wordCTK,colorCTK,corrAnsCTK,congruentCTK,thisN,thisTrialN,thisRepN,keyResp_CTK.keys,keyResp_CTK.corr,keyResp_CTK.rt,keyResp_CTK.duration,wordPractice,colorPractice,corrAnsPractice,congruentPractice,respPractice.keys,respPractice.corr,respPractice.rt,respPractice.duration,word,color,corrAns,congruent,keyResp_test_run.keys,keyResp_test_run.corr,keyResp_test_run.rt,keyResp_test_run.duration,trials_CTK.thisRepN,trials_CTK.thisTrialN,trials_CTK.thisN,trials_CTK.thisIndex,trials_practice.thisRepN,trials_practice.thisTrialN,trials_practice.thisN,trials_practice.thisIndex,trials_test.thisRepN,trials_test.thisTrialN,trials_test.thisN,trials_test.thisIndex,thisRow.t,notes,instruction.started,instr_text.started,instr_image.started,instr_resp.started,instruction.stopped,instr_resp.keys,instr_resp.rt,instr_resp.duration,instr_color_to_key.started,instr_ctk.started,resp_ctk.started,instr_color_to_key.stopped,resp_ctk.keys,resp_ctk.rt,resp_ctk.duration,ITI.started,fixcross.started,fixcross.stopped,ITI.stopped,color_to_key_run.started,stimulus_CTK.started,keyResp_CTK.started,color_to_key_run.stopped,trials_CTK.keyResp_CTK.keys,trials_CTK.keyResp_CTK.corr,trials_CTK.keyResp_CTK.rt,trials_CTK.keyResp_CTK.duration,instr_practice.started,instr_practice_text.started,instr_practice_resp.started,instr_practice.stopped,instr_practice_resp.keys,instr_practice_resp.rt,instr_practice_resp.duration,practice_run.started,stimulus_practice.started,respPractice.started,practice_run.stopped,trials_practice.respPractice.keys,trials_practice.respPractice.corr,trials_practice.respPractice.rt,trials_practice.respPractice.duration,feedback.started,textFeedback.started,feedback.stopped,textFeedback.stopped,instr_test.started,instr_test_text.started,instr_test_resp.started,instr_test.stopped,instr_test_resp.keys,instr_test_resp.rt,instr_test_resp.duration,test_run.started,stimulus_test_run.started,keyResp_test_run.started,test_run.stopped,trials_test.keyResp_test_run.keys,trials_test.keyResp_test_run.corr,trials_test.keyResp_test_run.rt,trials_test.keyResp_test_run.duration,goodbye.started,textGoodbye.started,goodbye.stopped,participant,session,expName,frameRate,Unnamed: 112
,,,,,,,,,,,,,,,,,,,,,,,,,,,,,,,,,,,,,,,,,0.0106212539976695,0.0377762029966106,0.0377762029966106,0.0377762029966106,90.19014994899044,space,90.14457502600273,,,,,,,,,,,,,,,,,,,,,,,,,,,,,,,,,,,,,,,,,,,,,,,,,,,,,,,,,,sub-191,1,stroop_test,70.21960303660818,
,,,,,,,,,,,,,,,,,,,,,,,,,,,,,,,,,,,,,,,,,,,,,,,,,90.19019706899417,90.20227490698744,90.20227490698744,100.47907914599637,space,10.26372145699861,,,,,,,,,,,,,,,,,,,,,,,,,,,,,,,,,,,,,,,,,,,,,,,,,,,sub-191,1,stroop_test,70.21960303660818,
test,yellow,g,1.0,0.0,0.0,0.0,g,1.0,7.022778682003263,,,,,,,,,,,,,,,,,,0.0,0.0,0.0,1.0,,,,,,,,,100.50485112798924,,,,,,,,,,,,,,,,,100.49275696399854,101.28345627700035,102.0881701259932,102.07104184498894,102.07866897599888,102.0881701259932,102.0881701259932,109.12201639599516,g,1.0,7.022778682003263,,,,,,,,,,,,,,,,,,,,,,,,,,,,,,,,,,,,,,,sub-191,1,stroop_test,70.21960303660818,
test,blue,b,1.0,1.0,1.0,0.0,b,1.0,1.0789651579980273,,,,,,,,,,,,,,,,,,0.0,1.0,1.0,2.0,,,,,,,,,109.13887882498966,,,,,,,,,,,,,,,,,109.12247847698744,109.22496738100016,110.02878137399966,110.01892086298903,110.0201554009982,110.02878137399966,110.02878137399966,111.11659148499892,b,1.0,1.0789651579980273,,,,,,,,,,,,,,,,,,,,,,,,,,,,,,,,,,,,,,,sub-191,1,stroop_test,70.21960303660818,
test,red,r,1.0,2.0,2.0,0.0,r,1.0,0.6681913799984613,,,,,,,,,,,,,,,,,,0.0,2.0,2.0,0.0,,,,,,,,,111.12714227299148,,,,,,,,,,,,,,,,,111.1169543159922,111.9112697239907,112.7102265249996,112.698533029994,112.69969453799422,112.7102265249996,112.7102265249996,113.3896949810005,r,1.0,0.6681913799984613,,,,,,,,,,,,,,,,,,,,,,,,,,,,,,,,,,,,,,,sub-191,1,stroop_test,70.21960303660818,
test,red,r,1.0,3.0,0.0,1.0,r,1.0,0.5404951449891087,,,,,,,,,,,,,,,,,,1.0,0.0,3.0,0.0,,,,,,,,,113.3989758539974,,,,,,,,,,,,,,,,,113.38993710798968,113.4890204389958,114.28286463499536,114.2724974679877,114.27317565199336,114.28286463499536,114.28286463499536,114.8266717869992,r,1.0,0.5404951449891087,,,,,,,,,,,,,,,,,,,,,,,,,,,,,,,,,,,,,,,sub-191,1,stroop_test,70.21960303660818,
test,yellow,g,1.0,4.0,1.0,1.0,g,1.0,0.549504890004755,,,,,,,,,,,,,,,,,,1.0,1.0,4.0,1.0,,,,,,,,,114.83919113599404,,,,,,,,,,,,,,,,,114.82699518899608,114.92431864899116,115.7275636599952,115.71480493599664,115.71612940599152,115.7275636599952,115.7275636599952,116.28940198798956,g,1.0,0.549504890004755,,,,,,,,,,,,,,,,,,,,,,,,,,,,,,,,,,,,,,,sub-191,1,stroop_test,70.21960303660818,
test,blue,b,1.0,5.0,2.0,1.0,b,1.0,0.3365583669947227,,,,,,,,,,,,,,,,,,1.0,2.0,5.0,2.0,,,,,,,,,116.29893306799931,,,,,,,,,,,,,,,,,116.28964662499492,117.08095514499291,117.87684109198744,117.864627707997,117.86589574399112,117.87684109198744,117.87684109198744,118.22281221298908,b,1.0,0.3365583669947227,,,,,,,,,,,,,,,,,,,,,,,,,,,,,,,,,,,,,,,sub-191,1,stroop_test,70.21960303660818,
test,yellow,g,1.0,6.0,0.0,2.0,g,1.0,0.3413158749899594,,,,,,,,,,,,,,,,,,2.0,0.0,6.0,1.0,,,,,,,,,118.23276531099692,,,,,,,,,,,,,,,,,118.22314588699372,118.56785000200034,119.36608870700002,119.35566133199607,119.35634713299804,119.36608870700002,119.36608870700002,119.71410500598722,g,1.0,0.3413158749899594,,,,,,,,,,,,,,,,,,,,,,,,,,,,,,,,,,,,,,,sub-191,1,stroop_test,70.21960303660818,
test,red,r,1.0,7.0,1.0,2.0,r,1.0,0.2778994169930229,,,,,,,,,,,,,,,,,,2.0,1.0,7.0,0.0,,,,,,,,,119.73856387499836,,,,,,,,,,,,,,,,,119.71436054399236,120.51102967798944,121.31391013399116,121.30314411399011,121.30480584999896,121.31391013399116,121.31391013399116,121.600400721989,r,1.0,0.2778994169930229,,,,,,,,,,,,,,,,,,,,,,,,,,,,,,,,,,,,,,,sub-191,1,stroop_test,70.21960303660818,
test,blue,b,1.0,8.0,2.0,2.0,g,0.0,0.5276736890082248,,,,,,,,,,,,,,,,,,2.0,2.0,8.0,2.0,,,,,,,,,121.61200353399909,,,,,,,,,,,,,,,,,121.60066546099551,122.394366515,123.19943514998886,123.18905579099372,123.1897383889882,123.19943514998886,123.19943514998886,123.7285434519872,g,0.0,0.5276736890082248,,,,,,,,,,,,,,,,,,,,,,,,,,,,,,,,,,,,,,,sub-191,1,stroop_test,70.21960303660818,
test,blue,b,1.0,9.0,0.0,3.0,b,1.0,0.6945094459952088,,,,,,,,,,,,,,,,,,3.0,0.0,9.0,2.0,,,,,,,,,123.73984872599247,,,,,,,,,,,,,,,,,123.72880479799642,123.83091093499388,124.62758664898864,124.61456024699146,124.6158185940003,124.62758664898864,124.62758664898864,125.32308936798654,b,1.0,0.6945094459952088,,,,,,,,,,,,,,,,,,,,,,,,,,,,,,,,,,,,,,,sub-191,1,stroop_test,70.21960303660818,
test,red,r,1.0,10.0,1.0,3.0,r,1.0,0.5692558260052465,,,,,,,,,,,,,,,,,,3.0,1.0,10.0,0.0,,,,,,,,,125.33114173398644,,,,,,,,,,,,,,,,,125.32345020699722,125.43711564199477,126.2329477309977,126.22232151898788,126.22313179699997,126.2329477309977,126.2329477309977,126.82170287999908,r,1.0,0.5692558260052465,,,,,,,,,,,,,,,,,,,,,,,,,,,,,,,,,,,,,,,sub-191,1,stroop_test,70.21960303660818,
test,yellow,g,1.0,11.0,2.0,3.0,g,1.0,0.5227917890006211,,,,,,,,,,,,,,,,,,3.0,2.0,11.0,1.0,,,,,,,,,126.83850259298924,,,,,,,,,,,,,,,,,126.8221618719981,127.17197607799608,127.97603642199827,127.96419291298662,127.96484423299262,127.97603642199827,127.97603642199827,128.50439504699898,g,1.0,0.5227917890006211,,,,,,,,,,,,,,,,,,,,,,,,,,,,,,,,,,,,,,,sub-191,1,stroop_test,70.21960303660818,
,,,,,,,,,,,,,,,,,,,,,,,,,,,,,,,,,,,,,,,,,,,,,,,,,,,,,,,,,,,,,,,,,,,,128.5045112529915,128.52155552699696,128.52155552699696,132.4161896359874,space,3.8909321800019834,,,,,,,,,,,,,,,,,,,,,,,,,,,,,,,,sub-191,1,stroop_test,70.21960303660818,
,,,,0.0,0.0,0.0,,,,,gelb,yellow,g,1.0,g,1.0,1.9560547699948077,,,,,,,,,,,,,,0.0,0.0,0.0,11.0,,,,,132.4377135919931,,,,,,,,,,,,,,,,,132.42589106599917,132.51317975598795,133.31297807498777,133.29652856299072,,,,,,,,,,,,,,,,133.30406726499496,133.31297807498777,133.31297807498777,135.27153218199965,g,1.0,1.9560547699948077,,135.27571044499928,135.2888112019864,136.288708742999,,,,,,,,,,,,,,,,,,,,sub-191,1,stroop_test,70.21960303660818,
,,,,1.0,1.0,0.0,,,,,rot,yellow,g,0.0,g,1.0,0.7030890510068275,,,,,,,,,,,,,,0.0,1.0,1.0,3.0,,,,,136.29722792199755,,,,,,,,,,,,,,,,,136.28919082599168,137.47175184398657,138.27200688399898,138.25545485600014,,,,,,,,,,,,,,,,138.26041941299627,138.27200688399898,138.27200688399898,138.9785324389959,g,1.0,0.7030890510068275,,138.97904416899837,138.98933162099274,139.98863790999167,,,,,,,,,,,,,,,,,,,,sub-191,1,stroop_test,70.21960303660818,
,,,,2.0,2.0,0.0,,,,,rot,red,r,1.0,r,1.0,0.6798793820053106,,,,,,,,,,,,,,0.0,2.0,2.0,1.0,,,,,139.99713173299097,,,,,,,,,,,,,,,,,139.98912393399223,140.33862012199825,141.14055356598692,141.1271682719962,,,,,,,,,,,,,,,,141.12785529998655,141.14055356598692,141.14055356598692,141.82930368499365,r,1.0,0.6798793820053106,,141.8296543849865,141.8397985529882,142.83081586098706,,,,,,,,,,,,,,,,,,,,sub-191,1,stroop_test,70.21960303660818,
,,,,3.0,3.0,0.0,,,,,rot,blue,b,0.0,b,1.0,0.6368895409977995,,,,,,,,,,,,,,0.0,3.0,3.0,2.0,,,,,142.84334624599433,,,,,,,,,,,,,,,,,142.8321416099934,143.18869415699737,143.99897507599962,143.98862324899528,,,,,,,,,,,,,,,,143.98925265998696,143.99897507599962,143.99897507599962,144.64758565499503,b,1.0,0.6368895409977995,,144.64797017099045,144.66036426198843,145.65518285598955,,,,,,,,,,,,,,,,,,,,sub-191,1,stroop_test,70.21960303660818,
,,,,4.0,4.0,0.0,,,,,rot,red,r,1.0,r,1.0,0.5635913919977611,,,,,,,,,,,,,,0.0,4.0,4.0,0.0,,,,,145.66362492198823,,,,,,,,,,,,,,,,,145.65563740298967,146.84628325898666,147.65494281699648,147.6371284029883,,,,,,,,,,,,,,,,147.63782365799125,147.65494281699648,147.65494281699648,148.22133440698963,r,1.0,0.5635913919977611,,148.22175323899137,148.23827796099067,149.23691671699635,,,,,,,,,,,,,,,,,,,,sub-191,1,stroop_test,70.21960303660818,
,,,,5.0,5.0,0.0,,,,,gelb,yellow,g,1.0,g,1.0,0.5801276229904033,,,,,,,,,,,,,,0.0,5.0,5.0,10.0,,,,,149.25499710798613,,,,,,,,,,,,,,,,,149.23755234699638,149.32144352699106,150.1353110459895,150.1219517099962,,,,,,,,,,,,,,,,150.12603184398904,150.1353110459895,150.1353110459895,150.72087031199771,g,1.0,0.5801276229904033,,150.72123655999894,150.73814305799897,151.73845195799368,,,,,,,,,,,,,,,,,,,,sub-191,1,stroop_test,70.21960303660818,
,,,,6.0,6.0,0.0,,,,,gelb,blue,b,0.0,b,1.0,0.4674265030043898,,,,,,,,,,,,,,0.0,6.0,6.0,9.0,,,,,151.7470690489863,,,,,,,,,,,,,,,,,151.738940197989,151.81739942698914,152.62409041498904,152.61040680400038,,,,,,,,,,,,,,,,152.6110865149967,152.62409041498904,152.62409041498904,153.10440759299672,b,1.0,0.4674265030043898,,153.10489291598788,153.12142370299262,154.10489567599143,,,,,,,,,,,,,,,,,,,,sub-191,1,stroop_test,70.21960303660818,
,,,,7.0,7.0,0.0,,,,,gelb,red,r,0.0,r,1.0,0.5757533529977081,,,,,,,,,,,,,,0.0,7.0,7.0,8.0,,,,,154.1127458429983,,,,,,,,,,,,,,,,,154.10515313698852,155.3061033799895,156.0976830689906,156.08882219099905,,,,,,,,,,,,,,,,156.08920777098683,156.0976830689906,156.0976830689906,156.67519448699022,r,1.0,0.5757533529977081,,156.67572329498944,156.68737372699252,157.68642124799953,,,,,,,,,,,,,,,,,,,,sub-191,1,stroop_test,70.21960303660818,
,,,,8.0,8.0,0.0,,,,,blau,blue,b,1.0,b,1.0,0.7532189509947784,,,,,,,,,,,,,,0.0,8.0,8.0,6.0,,,,,157.70206510399294,,,,,,,,,,,,,,,,,157.68666900599783,158.02783441099746,158.83812094099994,158.82012432099145,,,,,,,,,,,,,,,,158.82627281399618,158.83812094099994,158.83812094099994,159.60449520198745,b,1.0,0.7532189509947784,,159.60526717799075,159.62116481899284,160.61983581099776,,,,,,,,,,,,,,,,,,,,sub-191,1,stroop_test,70.21960303660818,
,,,,9.0,9.0,0.0,,,,,blau,yellow,g,0.0,g,1.0,0.6576426929968875,,,,,,,,,,,,,,0.0,9.0,9.0,7.0,,,,,160.6380284029874,,,,,,,,,,,,,,,,,160.62008749999222,160.94674306199886,161.75486078098766,161.73691094199603,,,,,,,,,,,,,,,,161.73762931898818,161.75486078098766,161.75486078098766,162.42186861799564,g,1.0,0.6576426929968875,,162.422275222998,162.43322633499338,163.42182651399344,163.4302802359889,,,,,,,,,,,,,,,,,,,sub-191,1,stroop_test,70.21960303660818,
,,,,10.0,10.0,0.0,,,,,blau,red,r,0.0,r,1.0,0.3364324229914928,,,,,,,,,,,,,,0.0,10.0,10.0,4.0,,,,,163.4302802359889,,,,,,,,,,,,,,,,,163.42228541099755,164.62139470099646,165.41557574599574,165.40514109199285,,,,,,,,,,,,,,,,165.40582621299836,165.41557574599574,165.41557574599574,165.75571008199768,r,1.0,0.3364324229914928,,165.75623695299146,165.76805115799652,166.75332549298764,166.77152652599034,,,,,,,,,,,,,,,,,,,sub-191,1,stroop_test,70.21960303660818,
,,,,11.0,11.0,0.0,,,,,blau,blue,b,1.0,b,1.0,0.6529915849969257,,,,,,,,,,,,,,0.0,11.0,11.0,5.0,,,,,166.77152652599034,,,,,,,,,,,,,,,,,166.75365899798635,167.09708816598868,167.893795742988,167.88077738998982,,,,,,,,,,,,,,,,167.88208344898885,167.893795742988,167.893795742988,168.55709702799504,b,1.0,0.6529915849969257,,168.55766423098976,168.56812018899657,169.55530059499142,169.56373253199854,,,,,,,,,,,,,,,,,,,sub-191,1,stroop_test,70.21960303660818,
,,,,12.0,0.0,1.0,,,,,gelb,yellow,g,1.0,g,1.0,0.2684208720020251,,,,,,,,,,,,,,1.0,0.0,12.0,10.0,,,,,169.56373253199854,,,,,,,,,,,,,,,,,169.55575682999915,170.75460848899093,171.56849084899295,171.55499974299164,,,,,,,,,,,,,,,,171.55876703799004,171.56849084899295,171.56849084899295,171.8444732039934,g,1.0,0.2684208720020251,,171.84483720199205,171.85525013199367,172.853380318993,,,,,,,,,,,,,,,,,,,,sub-191,1,stroop_test,70.21960303660818,
,,,,13.0,1.0,1.0,,,,,gelb,yellow,g,1.0,g,1.0,0.5580683529988164,,,,,,,,,,,,,,1.0,1.0,13.0,11.0,,,,,172.87109870898712,,,,,,,,,,,,,,,,,172.85387461799837,174.03917319799075,174.84318403698853,174.83079298499797,,,,,,,,,,,,,,,,174.8321182619984,174.84318403698853,174.84318403698853,175.4057026909868,g,1.0,0.5580683529988164,,175.40614554999047,175.41609073898871,176.40343567098898,176.421293744992,,,,,,,,,,,,,,,,,,,sub-191,1,stroop_test,70.21960303660818,
,,,,14.0,2.0,1.0,,,,,blau,yellow,g,0.0,b,0.0,0.6981342820072314,,,,,,,,,,,,,,1.0,2.0,14.0,7.0,,,,,176.421293744992,,,,,,,,,,,,,,,,,176.40392761198746,176.50643428199692,177.32133865599462,177.30353840799944,,,,,,,,,,,,,,,,177.30772462098685,177.32133865599462,177.32133865599462,178.02230723199318,b,0.0,0.6981342820072314,,178.02598402299918,178.0385451209877,179.03820953799004,,,,,,,,,,,,,,,,,,,,sub-191,1,stroop_test,70.21960303660818,
,,,,15.0,3.0,1.0,,,,,gelb,red,r,0.0,r,1.0,0.6891929370030994,,,,,,,,,,,,,,1.0,3.0,15.0,8.0,,,,,179.04676910499984,,,,,,,,,,,,,,,,,179.03869639999175,179.8213949859928,180.6382287079905,180.62003347098653,,,,,,,,,,,,,,,,180.62412787298672,180.6382287079905,180.6382287079905,181.3366130219947,r,1.0,0.6891929370030994,,181.33901240699925,181.3492188169912,182.33800248699845,,,,,,,,,,,,,,,,,,,,sub-191,1,stroop_test,70.21960303660818,
,,,,16.0,4.0,1.0,,,,,rot,blue,b,0.0,b,1.0,0.6465648269950179,,,,,,,,,,,,,,1.0,4.0,16.0,2.0,,,,,182.3461197109864,,,,,,,,,,,,,,,,,182.3383540319919,183.5379608089861,184.3348248689872,184.3214680529927,,,,,,,,,,,,,,,,184.32544960999803,184.3348248689872,184.3348248689872,184.99447646099725,b,1.0,0.6465648269950179,,184.99495862699405,185.00578754898743,185.98864642498663,185.99690663299407,,,,,,,,,,,,,,,,,,,sub-191,1,stroop_test,70.21960303660818,
,,,,17.0,5.0,1.0,,,,,gelb,blue,b,0.0,b,1.0,0.5586975479964167,,,,,,,,,,,,,,1.0,5.0,17.0,9.0,,,,,185.99690663299407,,,,,,,,,,,,,,,,,185.98910058398903,186.35305221399176,187.15156991098772,187.13825582498976,,,,,,,,,,,,,,,,187.14227671599656,187.15156991098772,187.15156991098772,187.7217970079946,b,1.0,0.5586975479964167,,187.72221059398728,187.73437471399663,188.7233140899916,,,,,,,,,,,,,,,,,,,,sub-191,1,stroop_test,70.21960303660818,
,,,,18.0,6.0,1.0,,,,,blau,blue,b,1.0,b,1.0,0.568492991005769,,,,,,,,,,,,,,1.0,6.0,18.0,5.0,,,,,188.73357411799952,,,,,,,,,,,,,,,,,188.7244223119924,189.9212592499971,190.71816227398813,190.70470838798792,,,,,,,,,,,,,,,,190.7087840819877,190.71816227398813,190.71816227398813,191.30426445898772,b,1.0,0.568492991005769,,191.30502841999987,191.3209243099991,192.31959891598672,,,,,,,,,,,,,,,,,,,,sub-191,1,stroop_test,70.21960303660818,
,,,,19.0,7.0,1.0,,,,,rot,red,r,1.0,r,1.0,0.559897543003899,,,,,,,,,,,,,,1.0,7.0,19.0,1.0,,,,,192.3378021309909,,,,,,,,,,,,,,,,,192.3200680539885,192.6462715849921,193.451638863,193.4382503279921,,,,,,,,,,,,,,,,193.44223201400015,193.451638863,193.451638863,194.02150071399228,r,1.0,0.559897543003899,,194.02192716799615,194.03223841098952,195.0198745779926,195.0376980259898,,,,,,,,,,,,,,,,,,,sub-191,1,stroop_test,70.21960303660818,
,,,,20.0,8.0,1.0,,,,,blau,blue,b,1.0,b,1.0,0.675570710998727,,,,,,,,,,,,,,1.0,8.0,20.0,6.0,,,,,195.0376980259898,,,,,,,,,,,,,,,,,195.02034369199828,195.1230862349912,195.91968609098691,195.90717918898736,,,,,,,,,,,,,,,,195.91075723498943,195.91968609098691,195.91968609098691,196.60510985698784,b,1.0,0.675570710998727,,196.60560258399343,196.61618332199575,197.60968372799107,,,,,,,,,,,,,,,,,,,,sub-191,1,stroop_test,70.21960303660818,
,,,,21.0,9.0,1.0,,,,,rot,yellow,g,0.0,r,0.0,0.917172886998742,,,,,,,,,,,,,,1.0,9.0,21.0,3.0,,,,,197.6208303329913,,,,,,,,,,,,,,,,,197.6099970409996,197.94994264299748,198.7709605729906,198.75317875698968,,,,,,,,,,,,,,,,198.7571758309932,198.7709605729906,198.7709605729906,199.70430927199777,r,0.0,0.917172886998742,,199.70914940199876,199.72064204899647,200.7211761559884,,,,,,,,,,,,,,,,,,,,sub-191,1,stroop_test,70.21960303660818,
,,,,22.0,10.0,1.0,,,,,rot,red,r,1.0,r,1.0,0.727107878003153,,,,,,,,,,,,,,1.0,10.0,22.0,0.0,,,,,200.729760710994,,,,,,,,,,,,,,,,,200.72166239499347,200.7998750249972,201.620980022999,201.60304620399256,,,,,,,,,,,,,,,,201.60373342699316,201.620980022999,201.620980022999,202.35876153598656,r,1.0,0.727107878003153,,202.3610351499956,202.3713723369874,203.36169432799213,,,,,,,,,,,,,,,,,,,,sub-191,1,stroop_test,70.21960303660818,
,,,,23.0,11.0,1.0,,,,,blau,red,r,0.0,b,0.0,0.7264703499968164,,,,,,,,,,,,,,1.0,11.0,23.0,4.0,,,,,203.37354501598747,,,,,,,,,,,,,,,,,203.36221798798945,203.7195675159892,204.53751144898703,204.5197245399904,,,,,,,,,,,,,,,,204.52380848198663,204.53751144898703,204.53751144898703,205.27160500299945,b,0.0,0.7264703499968164,,205.27372386898787,205.286582996996,206.2862578369968,,,,,,,,,,,,,,,,,,,,sub-191,1,stroop_test,70.21960303660818,
,,,,,,,,,,,,,,,,,,,,,,,,,,,,,,,,,,,,,,,,,,,,,,,,,,,,,,,,,,,,,,,,,,,,,,,,,,,,,,,,,,,,,,,206.28646541098715,206.3044392679876,206.3044392679876,212.3371063159866,space,6.022510167997098,,,,,,,,,,,,,sub-191,1,stroop_test,70.21960303660818,
,,,,0.0,0.0,0.0,,,,,,,,,,,,,rot,red,r,1.0,r,1.0,0.4352329120010836,,,,,,,,,,0.0,0.0,0.0,1.0,212.36078490699583,,,,,,,,,,,,,,,,,212.3492539479921,213.13427124900045,213.93735149499844,213.91958641199744,,,,,,,,,,,,,,,,,,,,,,,,,,,,,,,,,,,213.9237914939877,213.93735149499844,213.93735149499844,214.3770863089885,r,1.0,0.4352329120010836,,,,,sub-191,1,stroop_test,70.21960303660818,
,,,,1.0,1.0,0.0,,,,,,,,,,,,,blau,blue,b,1.0,b,1.0,0.6499029670085292,,,,,,,,,,0.0,1.0,1.0,5.0,214.38673593799467,,,,,,,,,,,,,,,,,214.3773611929937,215.57578031199228,216.38742096998607,216.3695360459969,,,,,,,,,,,,,,,,,,,,,,,,,,,,,,,,,,,216.37368933799732,216.38742096998607,216.38742096998607,217.04168956298963,b,1.0,0.6499029670085292,,,,,sub-191,1,stroop_test,70.21960303660818,
,,,,2.0,2.0,0.0,,,,,,,,,,,,,gelb,yellow,g,1.0,g,1.0,0.7997734189993935,,,,,,,,,,0.0,2.0,2.0,11.0,217.05221610399892,,,,,,,,,,,,,,,,,217.0422745879914,217.8460870309937,218.6515720280004,218.6377739899908,,,,,,,,,,,,,,,,,,,,,,,,,,,,,,,,,,,218.6421852450003,218.6515720280004,218.6515720280004,219.45515892498952,g,1.0,0.7997734189993935,,,,,sub-191,1,stroop_test,70.21960303660818,
,,,,3.0,3.0,0.0,,,,,,,,,,,,,gelb,yellow,g,1.0,g,1.0,0.5641610439924989,,,,,,,,,,0.0,3.0,3.0,10.0,219.4662947629986,,,,,,,,,,,,,,,,,219.4555567339994,219.5689409419865,220.3651072699868,220.35471294699528,,,,,,,,,,,,,,,,,,,,,,,,,,,,,,,,,,,220.3554022600001,220.3651072699868,220.3651072699868,220.93801532698853,g,1.0,0.5641610439924989,,,,,sub-191,1,stroop_test,70.21960303660818,
,,,,4.0,4.0,0.0,,,,,,,,,,,,,blau,blue,b,1.0,b,1.0,0.3665212889900431,,,,,,,,,,0.0,4.0,4.0,6.0,220.94819175399607,,,,,,,,,,,,,,,,,220.93840172799537,222.137308253994,222.9537768169976,222.93623944799765,,,,,,,,,,,,,,,,,,,,,,,,,,,,,,,,,,,222.9403706529993,222.9537768169976,222.9537768169976,223.3219917739916,b,1.0,0.3665212889900431,,,,,sub-191,1,stroop_test,70.21960303660818,
,,,,5.0,5.0,0.0,,,,,,,,,,,,,rot,red,r,1.0,r,1.0,0.3886363440105924,,,,,,,,,,0.0,5.0,5.0,0.0,223.33026855699427,,,,,,,,,,,,,,,,,223.32238838799825,224.5224877409928,225.3284808509925,225.31351276498756,,,,,,,,,,,,,,,,,,,,,,,,,,,,,,,,,,,225.31918078899616,225.3284808509925,225.3284808509925,225.7219097039924,r,1.0,0.3886363440105924,,,,,sub-191,1,stroop_test,70.21960303660818,
,,,,6.0,6.0,0.0,,,,,,,,,,,,,gelb,blue,b,0.0,b,1.0,0.7820166859892197,,,,,,,,,,0.0,6.0,6.0,9.0,225.73150434799027,,,,,,,,,,,,,,,,,225.72218916199927,226.07037870898785,226.8650760969904,226.85400154499803,,,,,,,,,,,,,,,,,,,,,,,,,,,,,,,,,,,226.85612885298903,226.8650760969904,226.8650760969904,227.6569736449892,b,1.0,0.7820166859892197,,,,,sub-191,1,stroop_test,70.21960303660818,
,,,,7.0,7.0,0.0,,,,,,,,,,,,,gelb,red,r,0.0,r,1.0,0.7580060280015459,,,,,,,,,,0.0,7.0,7.0,8.0,227.66718443199352,,,,,,,,,,,,,,,,,227.6573935339984,228.01128587698625,228.8129611119948,228.80175065899675,,,,,,,,,,,,,,,,,,,,,,,,,,,,,,,,,,,228.80365457799053,228.8129611119948,228.8129611119948,229.58630624299985,r,1.0,0.7580060280015459,,,,,sub-191,1,stroop_test,70.21960303660818,
,,,,8.0,8.0,0.0,,,,,,,,,,,,,blau,yellow,g,0.0,g,1.0,0.5860224770003697,,,,,,,,,,0.0,8.0,8.0,7.0,229.60507001799124,,,,,,,,,,,,,,,,,229.5865785729984,229.93234521598788,230.731828879987,230.71807403599087,,,,,,,,,,,,,,,,,,,,,,,,,,,,,,,,,,,230.72232053599143,230.731828879987,230.731828879987,231.3256223829958,g,1.0,0.5860224770003697,,,,,sub-191,1,stroop_test,70.21960303660818,
,,,,9.0,9.0,0.0,,,,,,,,,,,,,rot,yellow,g,0.0,g,1.0,1.0259120529954089,,,,,,,,,,0.0,9.0,9.0,3.0,231.3367107699887,,,,,,,,,,,,,,,,,231.3261064580001,231.4320436619892,232.23222238699964,232.218472018998,,,,,,,,,,,,,,,,,,,,,,,,,,,,,,,,,,,232.22274942699005,232.23222238699964,232.23222238699964,233.26399197499268,g,1.0,1.0259120529954089,,,,,sub-191,1,stroop_test,70.21960303660818,
,,,,10.0,10.0,0.0,,,,,,,,,,,,,rot,blue,b,0.0,b,1.0,0.6695233089994872,,,,,,,,,,0.0,10.0,10.0,2.0,233.27645567798757,,,,,,,,,,,,,,,,,233.26450750499495,233.37030983399015,234.16863621899392,234.15698046098987,,,,,,,,,,,,,,,,,,,,,,,,,,,,,,,,,,,234.1588153699995,234.16863621899392,234.16863621899392,234.84933929399995,b,1.0,0.6695233089994872,,,,,sub-191,1,stroop_test,70.21960303660818,
,,,,11.0,11.0,0.0,,,,,,,,,,,,,blau,red,r,0.0,r,1.0,0.5451099729980342,,,,,,,,,,0.0,11.0,11.0,4.0,234.86153840599584,,,,,,,,,,,,,,,,,234.84982787999616,235.64980027999263,236.4528075769922,236.43874147899623,,,,,,,,,,,,,,,,,,,,,,,,,,,,,,,,,,,236.44341972300023,236.4528075769922,236.4528075769922,237.002453928988,r,1.0,0.5451099729980342,,,,,sub-191,1,stroop_test,70.21960303660818,
,,,,12.0,0.0,1.0,,,,,,,,,,,,,rot,red,r,1.0,r,1.0,0.5685482420085464,,,,,,,,,,1.0,0.0,12.0,0.0,237.01160010899184,,,,,,,,,,,,,,,,,237.00305525999283,237.3604577629885,238.1714379729965,238.14895149099172,,,,,,,,,,,,,,,,,,,,,,,,,,,,,,,,,,,238.15425566698832,238.1714379729965,238.1714379729965,238.7511289739923,r,1.0,0.5685482420085464,,,,,sub-191,1,stroop_test,70.21960303660818,
,,,,13.0,1.0,1.0,,,,,,,,,,,,,rot,red,r,1.0,r,1.0,0.3863189660041826,,,,,,,,,,1.0,1.0,13.0,1.0,238.77040886098985,,,,,,,,,,,,,,,,,238.75216026698763,239.9571335829969,240.7695851169992,240.75364864099535,,,,,,,,,,,,,,,,,,,,,,,,,,,,,,,,,,,240.75433525598783,240.7695851169992,240.7695851169992,241.17354410499684,r,1.0,0.3863189660041826,,,,,sub-191,1,stroop_test,70.21960303660818,
,,,,14.0,2.0,1.0,,,,,,,,,,,,,rot,blue,b,0.0,b,1.0,0.6684296909952536,,,,,,,,,,1.0,2.0,14.0,2.0,241.1902979799925,,,,,,,,,,,,,,,,,241.1740597209864,241.2768422169902,242.08512544998663,242.0694694809936,,,,,,,,,,,,,,,,,,,,,,,,,,,,,,,,,,,242.07014255499237,242.08512544998663,242.08512544998663,242.7563921859983,b,1.0,0.6684296909952536,,,,,sub-191,1,stroop_test,70.21960303660818,
,,,,15.0,3.0,1.0,,,,,,,,,,,,,blau,blue,b,1.0,b,1.0,0.723116890003439,,,,,,,,,,1.0,3.0,15.0,5.0,242.76854557098704,,,,,,,,,,,,,,,,,242.75670363698737,243.1009013599978,243.90369668698983,243.88922393899705,,,,,,,,,,,,,,,,,,,,,,,,,,,,,,,,,,,243.8912213289877,243.90369668698983,243.90369668698983,244.6322873099998,b,1.0,0.723116890003439,,,,,sub-191,1,stroop_test,70.21960303660818,
,,,,16.0,4.0,1.0,,,,,,,,,,,,,rot,yellow,g,0.0,g,1.0,0.6757914749905467,,,,,,,,,,1.0,4.0,16.0,3.0,244.64471528898864,,,,,,,,,,,,,,,,,244.6327320189885,245.0035276109993,245.80758466800037,245.79439909399665,,,,,,,,,,,,,,,,,,,,,,,,,,,,,,,,,,,245.7967787979869,245.80758466800037,245.80758466800037,246.48746347999256,g,1.0,0.6757914749905467,,,,,sub-191,1,stroop_test,70.21960303660818,
,,,,17.0,5.0,1.0,,,,,,,,,,,,,gelb,red,r,0.0,r,1.0,0.7966478610032937,,,,,,,,,,1.0,5.0,17.0,8.0,246.4989241559961,,,,,,,,,,,,,,,,,246.4879310929973,247.68230992599277,248.487837276989,248.47226486,,,,,,,,,,,,,,,,,,,,,,,,,,,,,,,,,,,248.47582942699955,248.487837276989,248.487837276989,249.3004029820004,r,1.0,0.7966478610032937,,,,,sub-191,1,stroop_test,70.21960303660818,
,,,,18.0,6.0,1.0,,,,,,,,,,,,,gelb,yellow,g,1.0,g,1.0,0.995757283992134,,,,,,,,,,1.0,6.0,18.0,11.0,249.31488441399412,,,,,,,,,,,,,,,,,249.30122354399649,249.65639516299416,250.4566771099926,250.4403121129872,,,,,,,,,,,,,,,,,,,,,,,,,,,,,,,,,,,250.4410099779925,250.4566771099926,250.4566771099926,251.46036727298636,g,1.0,0.995757283992134,,,,,sub-191,1,stroop_test,70.21960303660818,
,,,,19.0,7.0,1.0,,,,,,,,,,,,,gelb,yellow,g,1.0,g,1.0,0.6973664790129988,,,,,,,,,,1.0,7.0,19.0,10.0,251.48725384499997,,,,,,,,,,,,,,,,,251.46087196799635,252.6624923929921,253.45918664299825,253.4462067479908,,,,,,,,,,,,,,,,,,,,,,,,,,,,,,,,,,,253.4477597539953,253.45918664299825,253.45918664299825,254.1692025069933,g,1.0,0.6973664790129988,,,,,sub-191,1,stroop_test,70.21960303660818,
,,,,20.0,8.0,1.0,,,,,,,,,,,,,blau,blue,b,1.0,b,1.0,0.5976378619961906,,,,,,,,,,1.0,8.0,20.0,6.0,254.17974083599984,,,,,,,,,,,,,,,,,254.1696903089905,254.5119738229987,255.3172685509926,255.3039753799967,,,,,,,,,,,,,,,,,,,,,,,,,,,,,,,,,,,255.3080663079891,255.3172685509926,255.3172685509926,255.9197041899897,b,1.0,0.5976378619961906,,,,,sub-191,1,stroop_test,70.21960303660818,
,,,,21.0,9.0,1.0,,,,,,,,,,,,,blau,yellow,g,0.0,g,1.0,0.6596827100001974,,,,,,,,,,1.0,9.0,21.0,7.0,255.93695342099815,,,,,,,,,,,,,,,,,255.9200917109993,256.0155493319908,256.81940474099247,256.809564072988,,,,,,,,,,,,,,,,,,,,,,,,,,,,,,,,,,,256.810009348992,256.81940474099247,256.81940474099247,257.4932064349996,g,1.0,0.6596827100001974,,,,,sub-191,1,stroop_test,70.21960303660818,
,,,,22.0,10.0,1.0,,,,,,,,,,,,,gelb,blue,b,0.0,b,1.0,0.9168572060007136,,,,,,,,,,1.0,10.0,22.0,9.0,257.5188600639958,,,,,,,,,,,,,,,,,257.49380957298854,257.85355206498934,258.6701105409884,258.65210866399866,,,,,,,,,,,,,,,,,,,,,,,,,,,,,,,,,,,258.65483006199065,258.6701105409884,258.6701105409884,259.60424359099125,b,1.0,0.9168572060007136,,,,,sub-191,1,stroop_test,70.21960303660818,
,,,,23.0,11.0,1.0,,,,,,,,,,,,,blau,red,r,0.0,r,1.0,0.4491379859973676,,,,,,,,,,1.0,11.0,23.0,4.0,259.61524015398754,,,,,,,,,,,,,,,,,259.60454157598724,260.80551382599515,261.60392736599897,261.5898402259918,,,,,,,,,,,,,,,,,,,,,,,,,,,,,,,,,,,261.59400526499667,261.60392736599897,261.60392736599897,262.0552443849883,r,1.0,0.4491379859973676,,,,,sub-191,1,stroop_test,70.21960303660818,
,,,,24.0,0.0,2.0,,,,,,,,,,,,,rot,blue,b,0.0,b,1.0,0.898251831997186,,,,,,,,,,2.0,0.0,24.0,2.0,262.0642387599946,,,,,,,,,,,,,,,,,262.05584653498954,263.25992553599644,264.0686004829913,264.0487612379948,,,,,,,,,,,,,,,,,,,,,,,,,,,,,,,,,,,264.0537833389972,264.0686004829913,264.0686004829913,264.98399859799247,b,1.0,0.898251831997186,,,,,sub-191,1,stroop_test,70.21960303660818,
,,,,25.0,1.0,2.0,,,,,,,,,,,,,blau,yellow,g,0.0,g,1.0,0.5844739110034425,,,,,,,,,,2.0,1.0,25.0,7.0,265.0014967749885,,,,,,,,,,,,,,,,,264.9847959799954,265.7866289329977,266.60265497698856,266.5825702639995,,,,,,,,,,,,,,,,,,,,,,,,,,,,,,,,,,,266.58759214699967,266.60265497698856,266.60265497698856,267.2016568079998,g,1.0,0.5844739110034425,,,,,sub-191,1,stroop_test,70.21960303660818,
,,,,26.0,2.0,2.0,,,,,,,,,,,,,gelb,yellow,g,1.0,g,1.0,0.6152506759972312,,,,,,,,,,2.0,2.0,26.0,10.0,267.2189243009925,,,,,,,,,,,,,,,,,267.2021758329938,267.9993417730002,268.80244083599246,268.7872730179952,,,,,,,,,,,,,,,,,,,,,,,,,,,,,,,,,,,268.7919812159962,268.80244083599246,268.80244083599246,269.4211362039932,g,1.0,0.6152506759972312,,,,,sub-191,1,stroop_test,70.21960303660818,
,,,,27.0,3.0,2.0,,,,,,,,,,,,,blau,red,r,0.0,r,1.0,0.6421261859941296,,,,,,,,,,2.0,3.0,27.0,4.0,269.4319246179948,,,,,,,,,,,,,,,,,269.4214610209892,269.76618065100047,270.586638992987,270.56854292699427,,,,,,,,,,,,,,,,,,,,,,,,,,,,,,,,,,,270.570796355998,270.586638992987,270.586638992987,271.2368701009982,r,1.0,0.6421261859941296,,,,,sub-191,1,stroop_test,70.21960303660818,
,,,,28.0,4.0,2.0,,,,,,,,,,,,,gelb,blue,b,0.0,b,1.0,0.615556867007399,,,,,,,,,,2.0,4.0,28.0,9.0,271.2479354219977,,,,,,,,,,,,,,,,,271.23734510499344,272.43669578799745,273.245104851987,273.22906519800017,,,,,,,,,,,,,,,,,,,,,,,,,,,,,,,,,,,273.23501762899105,273.245104851987,273.245104851987,273.8749010649917,b,1.0,0.615556867007399,,,,,sub-191,1,stroop_test,70.21960303660818,
,,,,29.0,5.0,2.0,,,,,,,,,,,,,rot,red,r,1.0,r,1.0,0.5004747380007757,,,,,,,,,,2.0,5.0,29.0,1.0,273.89356312699965,,,,,,,,,,,,,,,,,273.8757472009893,274.2312102189899,275.0360251940001,275.01534313798766,,,,,,,,,,,,,,,,,,,,,,,,,,,,,,,,,,,275.0210496469954,275.0360251940001,275.0360251940001,275.5506987589906,r,1.0,0.5004747380007757,,,,,sub-191,1,stroop_test,70.21960303660818,
,,,,30.0,6.0,2.0,,,,,,,,,,,,,gelb,yellow,g,1.0,g,1.0,0.5980551429965999,,,,,,,,,,2.0,6.0,30.0,11.0,275.5696020849864,,,,,,,,,,,,,,,,,275.55164895099006,275.65419775698683,276.4705782709934,276.4498522699869,,,,,,,,,,,,,,,,,,,,,,,,,,,,,,,,,,,276.45515014999546,276.4705782709934,276.4705782709934,277.08962743298616,g,1.0,0.5980551429965999,,,,,sub-191,1,stroop_test,70.21960303660818,
,,,,31.0,7.0,2.0,,,,,,,,,,,,,gelb,red,r,0.0,r,1.0,0.5774228960071923,,,,,,,,,,2.0,7.0,31.0,8.0,277.10591144199134,,,,,,,,,,,,,,,,,277.0901275919896,278.3057368439913,279.1101975609927,279.0956426199991,,,,,,,,,,,,,,,,,,,,,,,,,,,,,,,,,,,279.09633167598804,279.1101975609927,279.1101975609927,279.6966794740001,r,1.0,0.5774228960071923,,,,,sub-191,1,stroop_test,70.21960303660818,
,,,,32.0,8.0,2.0,,,,,,,,,,,,,rot,red,r,1.0,r,1.0,0.4739775170019129,,,,,,,,,,2.0,8.0,32.0,0.0,279.7121160199895,,,,,,,,,,,,,,,,,279.6971653609944,279.80853889900027,280.605197219993,280.59206482699665,,,,,,,,,,,,,,,,,,,,,,,,,,,,,,,,,,,280.593926223999,280.605197219993,280.605197219993,281.0859947809949,r,1.0,0.4739775170019129,,,,,sub-191,1,stroop_test,70.21960303660818,
,,,,33.0,9.0,2.0,,,,,,,,,,,,,blau,blue,b,1.0,b,1.0,0.5403611660003662,,,,,,,,,,2.0,9.0,33.0,6.0,281.10340642200026,,,,,,,,,,,,,,,,,281.08627400599653,282.28671909999684,283.0979073879862,283.08667249999417,,,,,,,,,,,,,,,,,,,,,,,,,,,,,,,,,,,283.0888843139983,283.0979073879862,283.0979073879862,283.6479558729916,b,1.0,0.5403611660003662,,,,,sub-191,1,stroop_test,70.21960303660818,
,,,,34.0,10.0,2.0,,,,,,,,,,,,,blau,blue,b,1.0,b,1.0,0.5340013789973455,,,,,,,,,,2.0,10.0,34.0,5.0,283.6607688410004,,,,,,,,,,,,,,,,,283.64851881600043,284.4457529309875,285.2460555019934,285.23667868699704,,,,,,,,,,,,,,,,,,,,,,,,,,,,,,,,,,,285.2370908390003,285.2460555019934,285.2460555019934,285.7896302259905,b,1.0,0.5340013789973455,,,,,sub-191,1,stroop_test,70.21960303660818,
,,,,35.0,11.0,2.0,,,,,,,,,,,,,rot,yellow,g,0.0,g,1.0,0.8314646020007785,,,,,,,,,,2.0,11.0,35.0,3.0,285.8008106529888,,,,,,,,,,,,,,,,,285.79013240599306,286.1313838319911,286.9366597509943,286.9216662389954,,,,,,,,,,,,,,,,,,,,,,,,,,,,,,,,,,,286.9249699739885,286.9366597509943,286.9366597509943,287.7720782469987,g,1.0,0.8314646020007785,,,,,sub-191,1,stroop_test,70.21960303660818,
,,,,36.0,0.0,3.0,,,,,,,,,,,,,blau,blue,b,1.0,b,1.0,0.5534029170084978,,,,,,,,,,3.0,0.0,36.0,6.0,287.7814705579949,,,,,,,,,,,,,,,,,287.77280777499254,288.5668017179996,289.3755576979893,289.35686690500006,,,,,,,,,,,,,,,,,,,,,,,,,,,,,,,,,,,289.3632704959891,289.3755576979893,289.3755576979893,289.9380620569864,b,1.0,0.5534029170084978,,,,,sub-191,1,stroop_test,70.21960303660818,
,,,,37.0,1.0,3.0,,,,,,,,,,,,,rot,blue,b,0.0,b,1.0,0.9025448719912674,,,,,,,,,,3.0,1.0,37.0,2.0,289.9506549999933,,,,,,,,,,,,,,,,,289.9386261740001,290.73653248399205,291.54749340099806,291.5272421189875,,,,,,,,,,,,,,,,,,,,,,,,,,,,,,,,,,,291.53691149999213,291.54749340099806,291.54749340099806,292.46340603499266,b,1.0,0.9025448719912674,,,,,sub-191,1,stroop_test,70.21960303660818,
,,,,38.0,2.0,3.0,,,,,,,,,,,,,blau,red,r,0.0,r,1.0,0.8774839849938871,,,,,,,,,,3.0,2.0,38.0,4.0,292.47924985698774,,,,,,,,,,,,,,,,,292.4642313689983,293.2701149529894,294.0854746799887,294.07140010999865,,,,,,,,,,,,,,,,,,,,,,,,,,,,,,,,,,,294.0743244549958,294.0854746799887,294.0854746799887,294.9683282979968,r,1.0,0.8774839849938871,,,,,sub-191,1,stroop_test,70.21960303660818,
,,,,39.0,3.0,3.0,,,,,,,,,,,,,blau,yellow,g,0.0,g,1.0,0.726860315000522,,,,,,,,,,3.0,3.0,39.0,7.0,294.9825526799977,,,,,,,,,,,,,,,,,294.9691585809924,295.3220768189931,296.13183662699885,296.1154872029874,,,,,,,,,,,,,,,,,,,,,,,,,,,,,,,,,,,296.11653456398926,296.13183662699885,296.13183662699885,296.8662708119955,g,1.0,0.726860315000522,,,,,sub-191,1,stroop_test,70.21960303660818,
,,,,40.0,4.0,3.0,,,,,,,,,,,,,gelb,blue,b,0.0,b,1.0,1.0852369390049716,,,,,,,,,,3.0,4.0,40.0,9.0,296.8842048189981,,,,,,,,,,,,,,,,,296.8672113020002,298.0657055849879,298.88554431499506,298.86521205998724,,,,,,,,,,,,,,,,,,,,,,,,,,,,,,,,,,,298.8708014129952,298.88554431499506,298.88554431499506,299.9836352519924,b,1.0,1.0852369390049716,,,,,sub-191,1,stroop_test,70.21960303660818,
,,,,41.0,5.0,3.0,,,,,,,,,,,,,gelb,red,r,0.0,r,1.0,0.761540002989932,,,,,,,,,,3.0,5.0,41.0,8.0,300.0023947640002,,,,,,,,,,,,,,,,,299.9846720969945,300.79796490799345,301.59788202898926,301.5816359899909,,,,,,,,,,,,,,,,,,,,,,,,,,,,,,,,,,,301.5825639219984,301.59788202898926,301.59788202898926,302.36648101099127,r,1.0,0.761540002989932,,,,,sub-191,1,stroop_test,70.21960303660818,
,,,,42.0,6.0,3.0,,,,,,,,,,,,,gelb,yellow,g,1.0,g,1.0,0.4487935780052794,,,,,,,,,,3.0,6.0,42.0,10.0,302.3866496249975,,,,,,,,,,,,,,,,,302.3672425239929,303.57169341799454,304.3760161429964,304.3632672019885,,,,,,,,,,,,,,,,,,,,,,,,,,,,,,,,,,,304.3649324239959,304.3760161429964,304.3760161429964,304.8328385979985,g,1.0,0.4487935780052794,,,,,sub-191,1,stroop_test,70.21960303660818,
,,,,43.0,7.0,3.0,,,,,,,,,,,,,gelb,yellow,g,1.0,g,1.0,0.8687097470101435,,,,,,,,,,3.0,7.0,43.0,11.0,304.8459215779876,,,,,,,,,,,,,,,,,304.833896843993,306.0287616229907,306.83462172299915,306.82175804898725,,,,,,,,,,,,,,,,,,,,,,,,,,,,,,,,,,,306.8228656029969,306.83462172299915,306.83462172299915,307.71012278499256,g,1.0,0.8687097470101435,,,,,sub-191,1,stroop_test,70.21960303660818,
,,,,44.0,8.0,3.0,,,,,,,,,,,,,rot,yellow,g,0.0,g,1.0,0.8094789359893184,,,,,,,,,,3.0,8.0,44.0,3.0,307.72617298699333,,,,,,,,,,,,,,,,,307.7108862539899,308.90688595599204,309.7177107519965,309.7035645959986,,,,,,,,,,,,,,,,,,,,,,,,,,,,,,,,,,,309.7076628419891,309.7177107519965,309.7177107519965,310.53361698798835,g,1.0,0.8094789359893184,,,,,sub-191,1,stroop_test,70.21960303660818,
,,,,45.0,9.0,3.0,,,,,,,,,,,,,rot,red,r,1.0,r,1.0,0.5606530460063368,,,,,,,,,,3.0,9.0,45.0,1.0,310.54443331999937,,,,,,,,,,,,,,,,,310.53502696799114,311.34702048699546,312.14852939698903,312.1315525539976,,,,,,,,,,,,,,,,,,,,,,,,,,,,,,,,,,,312.1323901089927,312.14852939698903,312.14852939698903,312.7163634499884,r,1.0,0.5606530460063368,,,,,sub-191,1,stroop_test,70.21960303660818,
,,,,46.0,10.0,3.0,,,,,,,,,,,,,blau,blue,b,1.0,b,1.0,0.4782339499943191,,,,,,,,,,3.0,10.0,46.0,5.0,312.7348958589864,,,,,,,,,,,,,,,,,312.7171105979942,313.07088617098634,313.88808111099934,313.86646266699245,,,,,,,,,,,,,,,,,,,,,,,,,,,,,,,,,,,313.8710675009934,313.88808111099934,313.88808111099934,314.3838202989864,b,1.0,0.4782339499943191,,,,,sub-191,1,stroop_test,70.21960303660818,
,,,,47.0,11.0,3.0,,,,,,,,,,,,,rot,red,r,1.0,r,1.0,0.5936735229915939,,,,,,,,,,3.0,11.0,47.0,0.0,314.4014661729889,,,,,,,,,,,,,,,,,314.38450038799783,315.583420689989,316.40133400799823,316.3814930319932,,,,,,,,,,,,,,,,,,,,,,,,,,,,,,,,,,,316.3864538719936,316.40133400799823,316.40133400799823,316.9996776869957,r,1.0,0.5936735229915939,,,,,sub-191,1,stroop_test,70.21960303660818,
,,,,48.0,0.0,4.0,,,,,,,,,,,,,rot,red,r,1.0,r,1.0,0.5047444689989788,,,,,,,,,,4.0,0.0,48.0,0.0,317.0177295549948,,,,,,,,,,,,,,,,,317.00092335599766,318.20345255799475,319.0174996329879,319.00172561299405,,,,,,,,,,,,,,,,,,,,,,,,,,,,,,,,,,,319.0024085609912,319.0174996329879,319.0174996329879,319.5357753939897,r,1.0,0.5047444689989788,,,,,sub-191,1,stroop_test,70.21960303660818,
,,,,49.0,1.0,4.0,,,,,,,,,,,,,gelb,yellow,g,1.0,g,1.0,0.4954643709934316,,,,,,,,,,4.0,1.0,49.0,10.0,319.5530510509998,,,,,,,,,,,,,,,,,319.5363145549927,320.7375173069886,321.5545920949953,321.5335043209925,,,,,,,,,,,,,,,,,,,,,,,,,,,,,,,,,,,321.538907256996,321.5545920949953,321.5545920949953,322.0712222619913,g,1.0,0.4954643709934316,,,,,sub-191,1,stroop_test,70.21960303660818,
,,,,50.0,2.0,4.0,,,,,,,,,,,,,gelb,yellow,g,1.0,g,1.0,0.787668418008252,,,,,,,,,,4.0,2.0,50.0,11.0,322.08826584198687,,,,,,,,,,,,,,,,,322.0717651429877,323.2749136459897,324.075730231998,324.0593907959992,,,,,,,,,,,,,,,,,,,,,,,,,,,,,,,,,,,324.06037500499224,324.075730231998,324.075730231998,324.8696916739864,g,1.0,0.787668418008252,,,,,sub-191,1,stroop_test,70.21960303660818,
,,,,51.0,3.0,4.0,,,,,,,,,,,,,gelb,red,r,0.0,r,1.0,0.7089610409893794,,,,,,,,,,4.0,3.0,51.0,8.0,324.8848393299995,,,,,,,,,,,,,,,,,324.8709457609948,326.0629738079879,326.86807674900047,326.8535391039913,,,,,,,,,,,,,,,,,,,,,,,,,,,,,,,,,,,326.85527134999575,326.86807674900047,326.86807674900047,327.5848913249938,r,1.0,0.7089610409893794,,,,,sub-191,1,stroop_test,70.21960303660818,
,,,,52.0,4.0,4.0,,,,,,,,,,,,,gelb,blue,b,0.0,b,1.0,0.5706668109924067,,,,,,,,,,4.0,4.0,52.0,9.0,327.59574775699,,,,,,,,,,,,,,,,,327.58620340599737,327.6910741249885,328.49292342299304,328.4773247559933,,,,,,,,,,,,,,,,,,,,,,,,,,,,,,,,,,,328.4786735289963,328.49292342299304,328.49292342299304,329.06658570498985,b,1.0,0.5706668109924067,,,,,sub-191,1,stroop_test,70.21960303660818,
,,,,53.0,5.0,4.0,,,,,,,,,,,,,rot,yellow,g,0.0,g,1.0,0.7075003670033766,,,,,,,,,,4.0,5.0,53.0,3.0,329.08097872999497,,,,,,,,,,,,,,,,,329.0679071889899,329.4202670819941,330.23710383998696,330.21481159399264,,,,,,,,,,,,,,,,,,,,,,,,,,,,,,,,,,,330.2199071399955,330.23710383998696,330.23710383998696,330.94965249799134,g,1.0,0.7075003670033766,,,,,sub-191,1,stroop_test,70.21960303660818,
,,,,54.0,6.0,4.0,,,,,,,,,,,,,blau,blue,b,1.0,b,1.0,0.6326025250018574,,,,,,,,,,4.0,6.0,54.0,6.0,330.96815909899306,,,,,,,,,,,,,,,,,330.9509796249913,331.30339475099754,332.11826220699004,332.09800105598697,,,,,,,,,,,,,,,,,,,,,,,,,,,,,,,,,,,332.10341812399565,332.11826220699004,332.11826220699004,332.766650747988,b,1.0,0.6326025250018574,,,,,sub-191,1,stroop_test,70.21960303660818,
,,,,55.0,7.0,4.0,,,,,,,,,,,,,blau,blue,b,1.0,b,1.0,0.4959760119963903,,,,,,,,,,4.0,7.0,55.0,5.0,332.785470399991,,,,,,,,,,,,,,,,,332.76766050099104,333.1229970219865,333.93360385698907,333.9155802329915,,,,,,,,,,,,,,,,,,,,,,,,,,,,,,,,,,,333.91771582899673,333.93360385698907,333.93360385698907,334.43620974899386,b,1.0,0.4959760119963903,,,,,sub-191,1,stroop_test,70.21960303660818,
,,,,56.0,8.0,4.0,,,,,,,,,,,,,rot,red,r,1.0,r,1.0,0.4938227710081264,,,,,,,,,,4.0,8.0,56.0,1.0,334.45349639198685,,,,,,,,,,,,,,,,,334.4368964049936,334.7976996869984,335.6046415439924,335.5856017810001,,,,,,,,,,,,,,,,,,,,,,,,,,,,,,,,,,,335.5897115319967,335.6046415439924,335.6046415439924,336.10175828798674,r,1.0,0.4938227710081264,,,,,sub-191,1,stroop_test,70.21960303660818,
,,,,57.0,9.0,4.0,,,,,,,,,,,,,blau,yellow,g,0.0,g,1.0,0.3929327600053511,,,,,,,,,,4.0,9.0,57.0,7.0,336.1152863569878,,,,,,,,,,,,,,,,,336.1020650829887,336.8942121149885,337.7013092220004,337.6811204729893,,,,,,,,,,,,,,,,,,,,,,,,,,,,,,,,,,,337.6896928609931,337.7013092220004,337.7013092220004,338.105408435993,g,1.0,0.3929327600053511,,,,,sub-191,1,stroop_test,70.21960303660818,
,,,,58.0,10.0,4.0,,,,,,,,,,,,,rot,blue,b,0.0,b,1.0,0.5958106019970728,,,,,,,,,,4.0,10.0,58.0,2.0,338.120122538996,,,,,,,,,,,,,,,,,338.1062643699988,338.4527419169899,339.26039073299034,339.2405634530005,,,,,,,,,,,,,,,,,,,,,,,,,,,,,,,,,,,339.2476180159865,339.26039073299034,339.26039073299034,339.86645892799424,b,1.0,0.5958106019970728,,,,,sub-191,1,stroop_test,70.21960303660818,
,,,,59.0,11.0,4.0,,,,,,,,,,,,,blau,red,r,0.0,r,1.0,0.4539326160011114,,,,,,,,,,4.0,11.0,59.0,4.0,339.8834277839924,,,,,,,,,,,,,,,,,339.8681391680002,340.2234034939902,341.0257216369937,341.0116287129931,,,,,,,,,,,,,,,,,,,,,,,,,,,,,,,,,,,341.016514412986,341.0257216369937,341.0257216369937,341.4931097359949,r,1.0,0.4539326160011114,,,,,sub-191,1,stroop_test,70.21960303660818,
,,,,60.0,0.0,5.0,,,,,,,,,,,,,gelb,red,r,0.0,r,1.0,1.0217722600064008,,,,,,,,,,5.0,0.0,60.0,8.0,341.5109633739921,,,,,,,,,,,,,,,,,341.49431369800004,341.6083027279965,342.41245264498866,342.39328531299543,,,,,,,,,,,,,,,,,,,,,,,,,,,,,,,,,,,342.3975346679945,342.41245264498866,342.41245264498866,343.4498782259907,r,1.0,1.0217722600064008,,,,,sub-191,1,stroop_test,70.21960303660818,
,,,,61.0,1.0,5.0,,,,,,,,,,,,,rot,yellow,g,0.0,g,1.0,0.6277804460114567,,,,,,,,,,5.0,1.0,61.0,3.0,343.4675282899989,,,,,,,,,,,,,,,,,343.4507064589998,343.80100199799926,344.6215967459866,344.602479817986,,,,,,,,,,,,,,,,,,,,,,,,,,,,,,,,,,,344.6064897319884,344.6215967459866,344.6215967459866,345.2560896129871,g,1.0,0.6277804460114567,,,,,sub-191,1,stroop_test,70.21960303660818,
,,,,62.0,2.0,5.0,,,,,,,,,,,,,blau,blue,b,1.0,b,1.0,0.6049493750033434,,,,,,,,,,5.0,2.0,62.0,5.0,345.2742488359945,,,,,,,,,,,,,,,,,345.256867374992,345.36052774998825,346.1693522969872,346.1486510929972,,,,,,,,,,,,,,,,,,,,,,,,,,,,,,,,,,,346.15399517599144,346.1693522969872,346.1693522969872,346.7837838979904,b,1.0,0.6049493750033434,,,,,sub-191,1,stroop_test,70.21960303660818,
,,,,63.0,3.0,5.0,,,,,,,,,,,,,gelb,blue,b,0.0,b,1.0,0.6125780620059231,,,,,,,,,,5.0,3.0,63.0,9.0,346.80109696699947,,,,,,,,,,,,,,,,,346.7845841919916,347.1436219850002,347.96380658498674,347.944448905997,,,,,,,,,,,,,,,,,,,,,,,,,,,,,,,,,,,347.9489467719977,347.96380658498674,347.96380658498674,348.5860442449921,b,1.0,0.6125780620059231,,,,,sub-191,1,stroop_test,70.21960303660818,
,,,,64.0,4.0,5.0,,,,,,,,,,,,,gelb,yellow,g,1.0,g,1.0,0.5559688880020985,,,,,,,,,,5.0,4.0,64.0,11.0,348.602699473995,,,,,,,,,,,,,,,,,348.58651886299776,348.94053128399537,349.7523158039985,349.7365734039922,,,,,,,,,,,,,,,,,,,,,,,,,,,,,,,,,,,349.7372496129974,349.7523158039985,349.7523158039985,350.3188456979988,g,1.0,0.5559688880020985,,,,,sub-191,1,stroop_test,70.21960303660818,
,,,,65.0,5.0,5.0,,,,,,,,,,,,,rot,red,r,1.0,r,1.0,0.4777010390098439,,,,,,,,,,5.0,5.0,65.0,1.0,350.33643758599646,,,,,,,,,,,,,,,,,350.31954021999263,350.42421146598645,351.23826929899224,351.2189184379968,,,,,,,,,,,,,,,,,,,,,,,,,,,,,,,,,,,351.22298916,351.23826929899224,351.23826929899224,351.7192771459959,r,1.0,0.4777010390098439,,,,,sub-191,1,stroop_test,70.21960303660818,
,,,,66.0,6.0,5.0,,,,,,,,,,,,,gelb,yellow,g,1.0,g,1.0,0.5925306440040004,,,,,,,,,,5.0,6.0,66.0,10.0,351.73387838399503,,,,,,,,,,,,,,,,,351.71988368999155,351.8214584899979,352.6364271079947,352.61621351199574,,,,,,,,,,,,,,,,,,,,,,,,,,,,,,,,,,,352.6212407569983,352.6364271079947,352.6364271079947,353.2355771989969,g,1.0,0.5925306440040004,,,,,sub-191,1,stroop_test,70.21960303660818,
,,,,67.0,7.0,5.0,,,,,,,,,,,,,blau,red,r,0.0,r,1.0,0.5942284960037796,,,,,,,,,,5.0,7.0,67.0,4.0,353.25284760999784,,,,,,,,,,,,,,,,,353.2364738389879,353.5919995209988,354.39186475599126,354.37862825699267,,,,,,,,,,,,,,,,,,,,,,,,,,,,,,,,,,,354.3830957419996,354.39186475599126,354.39186475599126,354.99927581098746,r,1.0,0.5942284960037796,,,,,sub-191,1,stroop_test,70.21960303660818,
,,,,68.0,8.0,5.0,,,,,,,,,,,,,blau,blue,b,1.0,b,1.0,0.5629347940121079,,,,,,,,,,5.0,8.0,68.0,6.0,355.016371708989,,,,,,,,,,,,,,,,,355.0008239749877,355.8000897659949,356.6061314260005,356.59184695499425,,,,,,,,,,,,,,,,,,,,,,,,,,,,,,,,,,,356.5925325579883,356.6061314260005,356.6061314260005,357.18544375199417,b,1.0,0.5629347940121079,,,,,sub-191,1,stroop_test,70.21960303660818,
,,,,69.0,9.0,5.0,,,,,,,,,,,,,blau,yellow,g,0.0,g,1.0,0.7206354239897337,,,,,,,,,,5.0,9.0,69.0,7.0,357.2020761429885,,,,,,,,,,,,,,,,,357.18599512999936,358.37798373198893,359.17511217299034,359.16257075699104,,,,,,,,,,,,,,,,,,,,,,,,,,,,,,,,,,,359.1640813099948,359.17511217299034,359.17511217299034,359.9083979849965,g,1.0,0.7206354239897337,,,,,sub-191,1,stroop_test,70.21960303660818,
,,,,70.0,10.0,5.0,,,,,,,,,,,,,rot,red,r,1.0,r,1.0,0.4686669610091485,,,,,,,,,,5.0,10.0,70.0,0.0,359.9247728489863,,,,,,,,,,,,,,,,,359.9095465829887,360.7101749039866,361.5259923470003,361.5062558239879,,,,,,,,,,,,,,,,,,,,,,,,,,,,,,,,,,,361.5134666119993,361.5259923470003,361.5259923470003,362.0037948190002,r,1.0,0.4686669610091485,,,,,sub-191,1,stroop_test,70.21960303660818,
,,,,71.0,11.0,5.0,,,,,,,,,,,,,rot,blue,b,0.0,b,1.0,0.4794905940070748,,,,,,,,,,5.0,11.0,71.0,2.0,362.0148043899972,,,,,,,,,,,,,,,,,362.0041696739936,362.8038410529989,363.6171636419895,363.5995556419948,,,,,,,,,,,,,,,,,,,,,,,,,,,,,,,,,,,363.6016889649909,363.6171636419895,363.6171636419895,364.10285748098977,b,1.0,0.4794905940070748,,,,,sub-191,1,stroop_test,70.21960303660818,
,,,,72.0,0.0,6.0,,,,,,,,,,,,,gelb,blue,b,0.0,b,1.0,0.7294355860067299,,,,,,,,,,6.0,0.0,72.0,9.0,364.1193411599961,,,,,,,,,,,,,,,,,364.10333542698936,364.9038963319909,365.720088623988,365.6993371969874,,,,,,,,,,,,,,,,,,,,,,,,,,,,,,,,,,,365.705108626993,365.720088623988,365.720088623988,366.4528568409878,b,1.0,0.7294355860067299,,,,,sub-191,1,stroop_test,70.21960303660818,
,,,,73.0,1.0,6.0,,,,,,,,,,,,,blau,blue,b,1.0,b,1.0,0.4555435219954233,,,,,,,,,,6.0,1.0,73.0,5.0,366.467199050996,,,,,,,,,,,,,,,,,366.4534290099982,367.2554712540005,368.0681652429921,368.0481698589865,,,,,,,,,,,,,,,,,,,,,,,,,,,,,,,,,,,368.0531318439898,368.0681652429921,368.0681652429921,368.5359922609932,b,1.0,0.4555435219954233,,,,,sub-191,1,stroop_test,70.21960303660818,
,,,,74.0,2.0,6.0,,,,,,,,,,,,,blau,red,r,0.0,r,1.0,0.534282346998225,,,,,,,,,,6.0,2.0,74.0,4.0,368.55259509099415,,,,,,,,,,,,,,,,,368.5364703259984,368.6446625299868,369.4491262359952,369.43159866399947,,,,,,,,,,,,,,,,,,,,,,,,,,,,,,,,,,,369.43356376499287,369.4491262359952,369.4491262359952,369.9876505089924,r,1.0,0.534282346998225,,,,,sub-191,1,stroop_test,70.21960303660818,
,,,,75.0,3.0,6.0,,,,,,,,,,,,,rot,red,r,1.0,r,1.0,0.4345066919922828,,,,,,,,,,6.0,3.0,75.0,0.0,370.0022270169866,,,,,,,,,,,,,,,,,369.9883321159869,371.1916410179984,371.994090860986,371.97899027699896,,,,,,,,,,,,,,,,,,,,,,,,,,,,,,,,,,,371.98424770998827,371.994090860986,371.994090860986,372.4418127479876,r,1.0,0.4345066919922828,,,,,sub-191,1,stroop_test,70.21960303660818,
,,,,76.0,4.0,6.0,,,,,,,,,,,,,rot,blue,b,0.0,b,1.0,0.5948627820034744,,,,,,,,,,6.0,4.0,76.0,2.0,372.45218041299086,,,,,,,,,,,,,,,,,372.4421181229991,372.54328722998616,373.3528968859901,373.337896276993,,,,,,,,,,,,,,,,,,,,,,,,,,,,,,,,,,,373.3385808429885,373.3528968859901,373.3528968859901,373.9679596779897,b,1.0,0.5948627820034744,,,,,sub-191,1,stroop_test,70.21960303660818,
,,,,77.0,5.0,6.0,,,,,,,,,,,,,blau,blue,b,1.0,b,1.0,0.4535295220121043,,,,,,,,,,6.0,5.0,77.0,6.0,373.9854138219962,,,,,,,,,,,,,,,,,373.968309533986,374.7729703279911,375.57765058499353,375.5617989189923,,,,,,,,,,,,,,,,,,,,,,,,,,,,,,,,,,,375.5684099569917,375.57765058499353,375.57765058499353,376.0445429669926,b,1.0,0.4535295220121043,,,,,sub-191,1,stroop_test,70.21960303660818,
,,,,78.0,6.0,6.0,,,,,,,,,,,,,gelb,yellow,g,1.0,g,1.0,0.718443012010539,,,,,,,,,,6.0,6.0,78.0,11.0,376.0652863419964,,,,,,,,,,,,,,,,,376.0453309779987,376.14759532098833,376.951868817996,376.9335070939997,,,,,,,,,,,,,,,,,,,,,,,,,,,,,,,,,,,376.9359313799941,376.951868817996,376.951868817996,377.681235141994,g,1.0,0.718443012010539,,,,,sub-191,1,stroop_test,70.21960303660818,
,,,,79.0,7.0,6.0,,,,,,,,,,,,,gelb,red,r,0.0,r,1.0,0.5574671600043075,,,,,,,,,,6.0,7.0,79.0,8.0,377.6922787969961,,,,,,,,,,,,,,,,,377.6815270399966,378.4856362829887,379.2849075689883,379.2710413449968,,,,,,,,,,,,,,,,,,,,,,,,,,,,,,,,,,,379.2720296129992,379.2849075689883,379.2849075689883,379.8525665969937,r,1.0,0.5574671600043075,,,,,sub-191,1,stroop_test,70.21960303660818,
,,,,80.0,8.0,6.0,,,,,,,,,,,,,rot,yellow,g,0.0,g,1.0,1.1439461279951502,,,,,,,,,,6.0,8.0,80.0,3.0,379.8627269629942,,,,,,,,,,,,,,,,,379.8528264469933,379.9537550429959,380.75520664099895,380.7413422209938,,,,,,,,,,,,,,,,,,,,,,,,,,,,,,,,,,,380.74335829599295,380.75520664099895,380.75520664099895,381.9158405049966,g,1.0,1.1439461279951502,,,,,sub-191,1,stroop_test,70.21960303660818,
,,,,81.0,9.0,6.0,,,,,,,,,,,,,gelb,yellow,g,1.0,g,1.0,0.4068478339904686,,,,,,,,,,6.0,9.0,81.0,10.0,381.9332257289934,,,,,,,,,,,,,,,,,381.9166691449937,382.71989389199007,383.53714046799,383.5183583479957,,,,,,,,,,,,,,,,,,,,,,,,,,,,,,,,,,,383.5221472479898,383.53714046799,383.53714046799,383.9517572419864,g,1.0,0.4068478339904686,,,,,sub-191,1,stroop_test,70.21960303660818,
,,,,82.0,10.0,6.0,,,,,,,,,,,,,rot,red,r,1.0,r,1.0,0.5221651930041844,,,,,,,,,,6.0,10.0,82.0,1.0,383.9688100739877,,,,,,,,,,,,,,,,,383.9522714289924,384.30658669299737,385.1136771780002,385.09298874498927,,,,,,,,,,,,,,,,,,,,,,,,,,,,,,,,,,,385.0982800789934,385.1136771780002,385.1136771780002,385.6535681639944,r,1.0,0.5221651930041844,,,,,sub-191,1,stroop_test,70.21960303660818,
,,,,83.0,11.0,6.0,,,,,,,,,,,,,blau,yellow,g,0.0,g,1.0,0.5417985660023987,,,,,,,,,,6.0,11.0,83.0,7.0,385.6706705389952,,,,,,,,,,,,,,,,,385.6541067249928,386.00379800298833,386.81929623799806,386.7992133279913,,,,,,,,,,,,,,,,,,,,,,,,,,,,,,,,,,,386.8042608559917,386.81929623799806,386.81929623799806,387.3701356659876,g,1.0,0.5417985660023987,,,,,sub-191,1,stroop_test,70.21960303660818,
,,,,84.0,0.0,7.0,,,,,,,,,,,,,gelb,red,r,0.0,r,1.0,0.544052728000679,,,,,,,,,,7.0,0.0,84.0,8.0,387.3868280779861,,,,,,,,,,,,,,,,,387.3706140939903,388.5808125399926,389.3901001849881,389.3750166739919,,,,,,,,,,,,,,,,,,,,,,,,,,,,,,,,,,,389.3790121539933,389.3901001849881,389.3901001849881,389.93654089998745,r,1.0,0.544052728000679,,,,,sub-191,1,stroop_test,70.21960303660818,
,,,,85.0,1.0,7.0,,,,,,,,,,,,,rot,red,r,1.0,r,1.0,0.3517055239935871,,,,,,,,,,7.0,1.0,85.0,0.0,389.9453030059958,,,,,,,,,,,,,,,,,389.9369368429907,390.73760936799226,391.55202403099975,391.5340449369978,,,,,,,,,,,,,,,,,,,,,,,,,,,,,,,,,,,391.538604728994,391.55202403099975,391.55202403099975,391.9138229999953,r,1.0,0.3517055239935871,,,,,sub-191,1,stroop_test,70.21960303660818,
,,,,86.0,2.0,7.0,,,,,,,,,,,,,blau,blue,b,1.0,b,1.0,0.512305212992942,,,,,,,,,,7.0,2.0,86.0,6.0,391.926508190998,,,,,,,,,,,,,,,,,391.9143435959995,392.2690525039943,393.0750831109908,393.059540325994,,,,,,,,,,,,,,,,,,,,,,,,,,,,,,,,,,,393.0639252529945,393.0750831109908,393.0750831109908,393.6022653489927,b,1.0,0.512305212992942,,,,,sub-191,1,stroop_test,70.21960303660818,
,,,,87.0,3.0,7.0,,,,,,,,,,,,,gelb,blue,b,0.0,b,1.0,0.5446447419963079,,,,,,,,,,7.0,3.0,87.0,9.0,393.618637224994,,,,,,,,,,,,,,,,,393.60263916999975,393.7033316629968,394.5071279939875,394.48887791000016,,,,,,,,,,,,,,,,,,,,,,,,,,,,,,,,,,,394.4925472019968,394.5071279939875,394.5071279939875,395.0531273109955,b,1.0,0.5446447419963079,,,,,sub-191,1,stroop_test,70.21960303660818,
,,,,88.0,4.0,7.0,,,,,,,,,,,,,blau,blue,b,1.0,b,1.0,0.4177693809906486,,,,,,,,,,7.0,4.0,88.0,5.0,395.062041266996,,,,,,,,,,,,,,,,,395.0535211869865,395.15184275498905,395.9469842949911,395.9353430489864,,,,,,,,,,,,,,,,,,,,,,,,,,,,,,,,,,,395.9371710099949,395.9469842949911,395.9469842949911,396.384073735986,b,1.0,0.4177693809906486,,,,,sub-191,1,stroop_test,70.21960303660818,
,,,,89.0,5.0,7.0,,,,,,,,,,,,,gelb,yellow,g,1.0,g,1.0,0.5487683090032078,,,,,,,,,,7.0,5.0,89.0,11.0,396.4010968499933,,,,,,,,,,,,,,,,,396.38458824799454,396.7436008439981,397.54969319199154,397.5302854449983,,,,,,,,,,,,,,,,,,,,,,,,,,,,,,,,,,,397.53503521799576,397.54969319199154,397.54969319199154,398.1013308149995,g,1.0,0.5487683090032078,,,,,sub-191,1,stroop_test,70.21960303660818,
,,,,90.0,6.0,7.0,,,,,,,,,,,,,gelb,yellow,g,1.0,g,1.0,0.5026586300082272,,,,,,,,,,7.0,6.0,90.0,10.0,398.11590546599473,,,,,,,,,,,,,,,,,398.10200023099605,398.20412743798806,399.01696734198777,398.9996052129864,,,,,,,,,,,,,,,,,,,,,,,,,,,,,,,,,,,399.0012398619874,399.01696734198777,399.01696734198777,399.5355348649901,g,1.0,0.5026586300082272,,,,,sub-191,1,stroop_test,70.21960303660818,
,,,,91.0,7.0,7.0,,,,,,,,,,,,,rot,blue,b,0.0,b,1.0,0.454627346000052,,,,,,,,,,7.0,7.0,91.0,2.0,399.5520553809911,,,,,,,,,,,,,,,,,399.5360109229951,400.74068281200016,401.55290403099207,401.5319584159879,,,,,,,,,,,,,,,,,,,,,,,,,,,,,,,,,,,401.5378250939975,401.55290403099207,401.55290403099207,402.0165614019934,b,1.0,0.454627346000052,,,,,sub-191,1,stroop_test,70.21960303660818,
,,,,92.0,8.0,7.0,,,,,,,,,,,,,blau,red,r,0.0,r,1.0,0.4569771230017068,,,,,,,,,,7.0,8.0,92.0,4.0,402.0337998239993,,,,,,,,,,,,,,,,,402.017141267992,403.2195853019948,404.0354893529875,404.0160673009959,,,,,,,,,,,,,,,,,,,,,,,,,,,,,,,,,,,404.0201016509964,404.0354893529875,404.0354893529875,404.5020586239989,r,1.0,0.4569771230017068,,,,,sub-191,1,stroop_test,70.21960303660818,
,,,,93.0,9.0,7.0,,,,,,,,,,,,,rot,yellow,g,0.0,g,1.0,0.988513716001762,,,,,,,,,,7.0,9.0,93.0,3.0,404.5190196169861,,,,,,,,,,,,,,,,,404.5025395849953,404.6092520019884,405.4211769359972,405.3994225709903,,,,,,,,,,,,,,,,,,,,,,,,,,,,,,,,,,,405.4058721749898,405.4211769359972,405.4211769359972,406.4120569059887,g,1.0,0.988513716001762,,,,,sub-191,1,stroop_test,70.21960303660818,
,,,,94.0,10.0,7.0,,,,,,,,,,,,,rot,red,r,1.0,r,1.0,0.5643951620004373,,,,,,,,,,7.0,10.0,94.0,1.0,406.4263826199895,,,,,,,,,,,,,,,,,406.41297085800034,406.5142302259919,407.3227767389908,407.304926205994,,,,,,,,,,,,,,,,,,,,,,,,,,,,,,,,,,,407.3071616149973,407.3227767389908,407.3227767389908,407.8942916029919,r,1.0,0.5643951620004373,,,,,sub-191,1,stroop_test,70.21960303660818,
,,,,95.0,11.0,7.0,,,,,,,,,,,,,blau,yellow,g,0.0,g,1.0,0.4852596019918564,,,,,,,,,,7.0,11.0,95.0,7.0,407.9137328919896,,,,,,,,,,,,,,,,,407.8948863080004,408.0014161629952,408.806733993988,408.791487008988,,,,,,,,,,,,,,,,,,,,,,,,,,,,,,,,,,,408.7957404289919,408.806733993988,408.806733993988,409.2962181019975,g,1.0,0.4852596019918564,,,,,sub-191,1,stroop_test,70.21960303660818,
,,,,96.0,0.0,8.0,,,,,,,,,,,,,rot,red,r,1.0,r,1.0,0.4779510840016883,,,,,,,,,,8.0,0.0,96.0,1.0,409.3068685139879,,,,,,,,,,,,,,,,,409.29656261399214,410.50241168099456,411.3042968269874,411.28755261898914,,,,,,,,,,,,,,,,,,,,,,,,,,,,,,,,,,,411.29154009599006,411.3042968269874,411.3042968269874,411.7919743299863,r,1.0,0.4779510840016883,,,,,sub-191,1,stroop_test,70.21960303660818,
,,,,97.0,1.0,8.0,,,,,,,,,,,,,rot,yellow,g,0.0,g,1.0,1.0172574159951182,,,,,,,,,,8.0,1.0,97.0,3.0,411.8027619259956,,,,,,,,,,,,,,,,,411.7922816779901,412.1527932600002,412.9539679299924,412.9371367559943,,,,,,,,,,,,,,,,,,,,,,,,,,,,,,,,,,,412.93896869198943,412.9539679299924,412.9539679299924,413.98599008799647,g,1.0,1.0172574159951182,,,,,sub-191,1,stroop_test,70.21960303660818,
,,,,98.0,2.0,8.0,,,,,,,,,,,,,blau,blue,b,1.0,b,1.0,0.5262231629894814,,,,,,,,,,8.0,2.0,98.0,6.0,413.9970271209895,,,,,,,,,,,,,,,,,413.9863785709895,414.3377101069928,415.146619659994,415.1257454789884,,,,,,,,,,,,,,,,,,,,,,,,,,,,,,,,,,,415.13482824699895,415.146619659994,415.146619659994,415.6795004069864,b,1.0,0.5262231629894814,,,,,sub-191,1,stroop_test,70.21960303660818,
,,,,99.0,3.0,8.0,,,,,,,,,,,,,gelb,blue,b,0.0,b,1.0,0.5905117049987894,,,,,,,,,,8.0,3.0,99.0,9.0,415.6916009649867,,,,,,,,,,,,,,,,,415.6799671709887,416.880181163986,417.6873837589956,417.6676324309956,,,,,,,,,,,,,,,,,,,,,,,,,,,,,,,,,,,417.67189313798735,417.6873837589956,417.6873837589956,418.288743453988,b,1.0,0.5905117049987894,,,,,sub-191,1,stroop_test,70.21960303660818,
,,,,100.0,4.0,8.0,,,,,,,,,,,,,blau,yellow,g,0.0,b,0.0,0.5030568890069844,,,,,,,,,,8.0,4.0,100.0,7.0,418.3059274579864,,,,,,,,,,,,,,,,,418.2892558839958,419.1030294299999,419.915697517994,419.89636486399104,,,,,,,,,,,,,,,,,,,,,,,,,,,,,,,,,,,419.9009600589925,419.915697517994,419.915697517994,420.43449887499446,b,0.0,0.5030568890069844,,,,,sub-191,1,stroop_test,70.21960303660818,
,,,,101.0,5.0,8.0,,,,,,,,,,,,,blau,red,r,0.0,r,1.0,0.5443255020072684,,,,,,,,,,8.0,5.0,101.0,4.0,420.4518697899912,,,,,,,,,,,,,,,,,420.4350167039957,421.23671482599457,422.0494262809953,422.0319364399911,,,,,,,,,,,,,,,,,,,,,,,,,,,,,,,,,,,422.03370514599374,422.0494262809953,422.0494262809953,422.60186423698906,r,1.0,0.5443255020072684,,,,,sub-191,1,stroop_test,70.21960303660818,
,,,,102.0,6.0,8.0,,,,,,,,,,,,,gelb,red,r,0.0,r,1.0,0.9201759789866628,,,,,,,,,,8.0,6.0,102.0,8.0,422.6183748809999,,,,,,,,,,,,,,,,,422.60233502498886,423.4077080119896,424.2233702230005,424.20203047098767,,,,,,,,,,,,,,,,,,,,,,,,,,,,,,,,,,,424.20803662498656,424.2233702230005,424.2233702230005,425.15155970498745,r,1.0,0.9201759789866628,,,,,sub-191,1,stroop_test,70.21960303660818,
,,,,103.0,7.0,8.0,,,,,,,,,,,,,gelb,yellow,g,1.0,g,1.0,0.6787085719988681,,,,,,,,,,8.0,7.0,103.0,10.0,425.1687704639917,,,,,,,,,,,,,,,,,425.1520754709927,425.2565568519931,426.0660870439897,426.0484914779954,,,,,,,,,,,,,,,,,,,,,,,,,,,,,,,,,,,426.0505756099883,426.0660870439897,426.0660870439897,426.7540210129955,g,1.0,0.6787085719988681,,,,,sub-191,1,stroop_test,70.21960303660818,
,,,,104.0,8.0,8.0,,,,,,,,,,,,,blau,blue,b,1.0,b,1.0,0.5120865450007841,,,,,,,,,,8.0,8.0,104.0,5.0,426.7666950779967,,,,,,,,,,,,,,,,,426.7547196649976,427.1004704789957,427.904241250988,427.8855865809892,,,,,,,,,,,,,,,,,,,,,,,,,,,,,,,,,,,427.8923702199973,427.904241250988,427.904241250988,428.4360496409936,b,1.0,0.5120865450007841,,,,,sub-191,1,stroop_test,70.21960303660818,
,,,,105.0,9.0,8.0,,,,,,,,,,,,,rot,blue,b,0.0,b,1.0,0.9685432630067226,,,,,,,,,,8.0,9.0,105.0,2.0,428.44779426199966,,,,,,,,,,,,,,,,,428.4364396919991,428.7937123729935,429.5978023479984,429.5848957259877,,,,,,,,,,,,,,,,,,,,,,,,,,,,,,,,,,,429.58771732599416,429.5978023479984,429.5978023479984,430.5842884189915,b,1.0,0.9685432630067226,,,,,sub-191,1,stroop_test,70.21960303660818,
,,,,106.0,10.0,8.0,,,,,,,,,,,,,gelb,yellow,g,1.0,g,1.0,0.6293270079913782,,,,,,,,,,8.0,10.0,106.0,11.0,430.6014142639906,,,,,,,,,,,,,,,,,430.58476988598704,430.9394787009951,431.7523377559992,431.73175974498736,,,,,,,,,,,,,,,,,,,,,,,,,,,,,,,,,,,431.73686903799535,431.7523377559992,431.7523377559992,432.3850043279963,g,1.0,0.6293270079913782,,,,,sub-191,1,stroop_test,70.21960303660818,
,,,,107.0,11.0,8.0,,,,,,,,,,,,,rot,red,r,1.0,r,1.0,0.3511811290081823,,,,,,,,,,8.0,11.0,107.0,0.0,432.3993819049938,,,,,,,,,,,,,,,,,432.3857030469953,433.18656928699056,434.0034878459992,433.9844867109932,,,,,,,,,,,,,,,,,,,,,,,,,,,,,,,,,,,433.9884116579924,434.0034878459992,434.0034878459992,434.3688580589951,r,1.0,0.3511811290081823,,,,,sub-191,1,stroop_test,70.21960303660818,
,,,,108.0,0.0,9.0,,,,,,,,,,,,,gelb,yellow,g,1.0,g,1.0,0.7146200689894613,,,,,,,,,,9.0,0.0,108.0,11.0,434.3855205619912,,,,,,,,,,,,,,,,,434.36932974899537,434.4758475589915,435.2838648599864,435.2635597240005,,,,,,,,,,,,,,,,,,,,,,,,,,,,,,,,,,,435.26858225199976,435.2838648599864,435.2838648599864,436.0188109179872,g,1.0,0.7146200689894613,,,,,sub-191,1,stroop_test,70.21960303660818,
,,,,109.0,1.0,9.0,,,,,,,,,,,,,rot,red,r,1.0,r,1.0,0.4839762790070381,,,,,,,,,,9.0,1.0,109.0,1.0,436.0359087639954,,,,,,,,,,,,,,,,,436.0193613489973,436.8234077879897,437.6364815339912,437.6154696599988,,,,,,,,,,,,,,,,,,,,,,,,,,,,,,,,,,,437.62083586699737,437.6364815339912,437.6364815339912,438.1409698259959,r,1.0,0.4839762790070381,,,,,sub-191,1,stroop_test,70.21960303660818,
,,,,110.0,2.0,9.0,,,,,,,,,,,,,rot,yellow,g,0.0,g,1.0,0.5822214419895317,,,,,,,,,,9.0,2.0,110.0,3.0,438.1584974429861,,,,,,,,,,,,,,,,,438.1414517959929,438.2446429279953,439.04936143899977,439.031699766987,,,,,,,,,,,,,,,,,,,,,,,,,,,,,,,,,,,439.0336817399948,439.04936143899977,439.04936143899977,439.6351159659971,g,1.0,0.5822214419895317,,,,,sub-191,1,stroop_test,70.21960303660818,
,,,,111.0,3.0,9.0,,,,,,,,,,,,,blau,blue,b,1.0,b,1.0,0.3868099539977265,,,,,,,,,,9.0,3.0,111.0,5.0,439.6494306079985,,,,,,,,,,,,,,,,,439.6360623529909,439.736954492997,440.55236398299166,440.5313144019892,,,,,,,,,,,,,,,,,,,,,,,,,,,,,,,,,,,440.53703820699593,440.55236398299166,440.55236398299166,440.9510998179903,b,1.0,0.3868099539977265,,,,,sub-191,1,stroop_test,70.21960303660818,
,,,,112.0,4.0,9.0,,,,,,,,,,,,,rot,blue,b,0.0,b,1.0,0.3850055180082563,,,,,,,,,,9.0,4.0,112.0,2.0,440.96809751799447,,,,,,,,,,,,,,,,,440.951748965992,441.7539927559992,442.569114190992,442.5482900409989,,,,,,,,,,,,,,,,,,,,,,,,,,,,,,,,,,,442.554050472987,442.569114190992,442.569114190992,442.9568652569869,b,1.0,0.3850055180082563,,,,,sub-191,1,stroop_test,70.21960303660818,
,,,,113.0,5.0,9.0,,,,,,,,,,,,,rot,red,r,1.0,r,1.0,0.5914540240046335,,,,,,,,,,9.0,5.0,113.0,0.0,442.9708302090002,,,,,,,,,,,,,,,,,442.9574348509923,443.3166016619944,444.1337339129968,444.1175753249991,,,,,,,,,,,,,,,,,,,,,,,,,,,,,,,,,,,444.1182587869989,444.1337339129968,444.1337339129968,444.7348391599953,r,1.0,0.5914540240046335,,,,,sub-191,1,stroop_test,70.21960303660818,
,,,,114.0,6.0,9.0,,,,,,,,,,,,,gelb,blue,b,0.0,b,1.0,0.8477379720134195,,,,,,,,,,9.0,6.0,114.0,9.0,444.7528303419968,,,,,,,,,,,,,,,,,444.7356090069952,444.83703095999954,445.6535592189903,445.6339546999952,,,,,,,,,,,,,,,,,,,,,,,,,,,,,,,,,,,445.6379581019864,445.6535592189903,445.6535592189903,446.5093111239985,b,1.0,0.8477379720134195,,,,,sub-191,1,stroop_test,70.21960303660818,
,,,,115.0,7.0,9.0,,,,,,,,,,,,,blau,yellow,g,0.0,g,1.0,0.6606361769954674,,,,,,,,,,9.0,7.0,115.0,7.0,446.52949180499127,,,,,,,,,,,,,,,,,446.5097919309919,447.3124683949864,448.1221825449902,448.10302528899047,,,,,,,,,,,,,,,,,,,,,,,,,,,,,,,,,,,448.10699834799743,448.1221825449902,448.1221825449902,448.7895226129913,g,1.0,0.6606361769954674,,,,,sub-191,1,stroop_test,70.21960303660818,
,,,,116.0,8.0,9.0,,,,,,,,,,,,,gelb,red,r,0.0,r,1.0,0.330722175000119,,,,,,,,,,9.0,8.0,116.0,8.0,448.806748596995,,,,,,,,,,,,,,,,,448.79012825599057,449.9962797499902,450.8025048959971,450.78075799498765,,,,,,,,,,,,,,,,,,,,,,,,,,,,,,,,,,,450.7863007169945,450.8025048959971,450.8025048959971,451.1419000209862,r,1.0,0.330722175000119,,,,,sub-191,1,stroop_test,70.21960303660818,
,,,,117.0,9.0,9.0,,,,,,,,,,,,,blau,red,r,0.0,r,1.0,0.3825727690127678,,,,,,,,,,9.0,9.0,117.0,4.0,451.1594377899892,,,,,,,,,,,,,,,,,451.1424192019913,451.50505607899686,452.3182816789922,452.2981661619997,,,,,,,,,,,,,,,,,,,,,,,,,,,,,,,,,,,452.303043833992,452.3182816789922,452.3182816789922,452.72196370099846,r,1.0,0.3825727690127678,,,,,sub-191,1,stroop_test,70.21960303660818,
,,,,118.0,10.0,9.0,,,,,,,,,,,,,gelb,yellow,g,1.0,g,1.0,0.2974999449943425,,,,,,,,,,9.0,10.0,118.0,10.0,452.7388230029901,,,,,,,,,,,,,,,,,452.7224388839968,453.9214768709935,454.7353285469872,454.7161311859964,,,,,,,,,,,,,,,,,,,,,,,,,,,,,,,,,,,454.7202116779954,454.7353285469872,454.7353285469872,455.0415715329873,g,1.0,0.2974999449943425,,,,,sub-191,1,stroop_test,70.21960303660818,
,,,,119.0,11.0,9.0,,,,,,,,,,,,,blau,blue,b,1.0,b,1.0,0.3604733090032823,,,,,,,,,,9.0,11.0,119.0,6.0,455.05817049898906,,,,,,,,,,,,,,,,,455.0421106639988,455.84036791599647,456.6429004129896,456.6279152639909,,,,,,,,,,,,,,,,,,,,,,,,,,,,,,,,,,,456.6330078109895,456.6429004129896,456.6429004129896,457.0089851109951,b,1.0,0.3604733090032823,,,,,sub-191,1,stroop_test,70.21960303660818,
,,,,,,,,,,,,,,,,,,,,,,,,,,,,,,,,,,,,,,,,,,,,,,,,,,,,,,,,,,,,,,,,,,,,,,,,,,,,,,,,,,,,,,,,,,,,,,,,,,,,,,457.00911316899874,457.0254028489872,462.0200131199963,sub-191,1,stroop_test,70.21960303660818,
