wordCTK,colorCTK,corrAnsCTK,congruentCTK,thisN,thisTrialN,thisRepN,keyResp_CTK.keys,keyResp_CTK.corr,keyResp_CTK.rt,keyResp_CTK.duration,wordPractice,colorPractice,corrAnsPractice,congruentPractice,respPractice.keys,respPractice.corr,respPractice.rt,respPractice.duration,word,color,corrAns,congruent,keyResp_test_run.keys,keyResp_test_run.corr,keyResp_test_run.rt,keyResp_test_run.duration,trials_CTK.thisRepN,trials_CTK.thisTrialN,trials_CTK.thisN,trials_CTK.thisIndex,trials_practice.thisRepN,trials_practice.thisTrialN,trials_practice.thisN,trials_practice.thisIndex,trials_test.thisRepN,trials_test.thisTrialN,trials_test.thisN,trials_test.thisIndex,thisRow.t,notes,instruction.started,instr_text.started,instr_image.started,instr_resp.started,instruction.stopped,instr_resp.keys,instr_resp.rt,instr_resp.duration,instr_color_to_key.started,instr_ctk.started,resp_ctk.started,instr_color_to_key.stopped,resp_ctk.keys,resp_ctk.rt,resp_ctk.duration,ITI.started,fixcross.started,fixcross.stopped,ITI.stopped,color_to_key_run.started,stimulus_CTK.started,keyResp_CTK.started,color_to_key_run.stopped,trials_CTK.keyResp_CTK.keys,trials_CTK.keyResp_CTK.corr,trials_CTK.keyResp_CTK.rt,trials_CTK.keyResp_CTK.duration,instr_practice.started,instr_practice_text.started,instr_practice_resp.started,instr_practice.stopped,instr_practice_resp.keys,instr_practice_resp.rt,instr_practice_resp.duration,practice_run.started,stimulus_practice.started,respPractice.started,practice_run.stopped,trials_practice.respPractice.keys,trials_practice.respPractice.corr,trials_practice.respPractice.rt,trials_practice.respPractice.duration,feedback.started,textFeedback.started,feedback.stopped,textFeedback.stopped,instr_test.started,instr_test_text.started,instr_test_resp.started,instr_test.stopped,instr_test_resp.keys,instr_test_resp.rt,instr_test_resp.duration,test_run.started,stimulus_test_run.started,keyResp_test_run.started,test_run.stopped,trials_test.keyResp_test_run.keys,trials_test.keyResp_test_run.corr,trials_test.keyResp_test_run.rt,trials_test.keyResp_test_run.duration,goodbye.started,textGoodbye.started,goodbye.stopped,participant,session,expName,frameRate,Unnamed: 112
,,,,,,,,,,,,,,,,,,,,,,,,,,,,,,,,,,,,,,,,,0.0042227000230923,0.0987099000485614,0.0987099000485614,0.0987099000485614,98.39299500000196,space,98.17646250000688,,,,,,,,,,,,,,,,,,,,,,,,,,,,,,,,,,,,,,,,,,,,,,,,,,,,,,,,,,sub-103,1,stroop_test,60.25199796725746,
,,,,,,,,,,,,,,,,,,,,,,,,,,,,,,,,,,,,,,,,,,,,,,,,,98.39306110003965,98.40195700002369,98.40195700002369,106.26341330003925,space,7.843553700018674,,,,,,,,,,,,,,,,,,,,,,,,,,,,,,,,,,,,,,,,,,,,,,,,,,,sub-103,1,stroop_test,60.25199796725746,
test,red,r,1.0,0.0,0.0,0.0,r,1.0,3.417431600042619,,,,,,,,,,,,,,,,,,0.0,0.0,0.0,0.0,,,,,,,,,106.28759670001456,,,,,,,,,,,,,,,,,106.28311690001284,107.07823700003792,107.87736050004604,107.86217139998917,107.87070269999094,107.87736050004604,107.87736050004604,111.3014229000546,r,1.0,3.417431600042619,,,,,,,,,,,,,,,,,,,,,,,,,,,,,,,,,,,,,,,sub-103,1,stroop_test,60.25199796725746,
test,blue,b,1.0,1.0,1.0,0.0,b,1.0,1.935790600022301,,,,,,,,,,,,,,,,,,0.0,1.0,1.0,2.0,,,,,,,,,111.31530230003408,,,,,,,,,,,,,,,,,111.302011199994,112.09929719998036,112.89968569995835,112.88419060001615,112.88529799995013,112.89968569995835,112.89968569995835,114.8546103000408,b,1.0,1.935790600022301,,,,,,,,,,,,,,,,,,,,,,,,,,,,,,,,,,,,,,,sub-103,1,stroop_test,60.25199796725746,
test,yellow,g,1.0,2.0,2.0,0.0,g,1.0,4.07674509997014,,,,,,,,,,,,,,,,,,0.0,2.0,2.0,1.0,,,,,,,,,114.86781850003172,,,,,,,,,,,,,,,,,114.85513539996464,115.2179204999702,116.01857670000754,116.00351579999553,116.0043034000555,116.01857670000754,116.01857670000754,120.10647869994864,g,1.0,4.07674509997014,,,,,,,,,,,,,,,,,,,,,,,,,,,,,,,,,,,,,,,sub-103,1,stroop_test,60.25199796725746,
test,blue,b,1.0,3.0,0.0,1.0,b,1.0,1.3832466000458226,,,,,,,,,,,,,,,,,,1.0,0.0,3.0,2.0,,,,,,,,,120.12135340005624,,,,,,,,,,,,,,,,,120.10717259999365,120.92182699998376,121.7216331999516,121.7057873000158,121.70636159996502,121.7216331999516,121.7216331999516,123.10993939999024,b,1.0,1.3832466000458226,,,,,,,,,,,,,,,,,,,,,,,,,,,,,,,,,,,,,,,sub-103,1,stroop_test,60.25199796725746,
test,red,r,1.0,4.0,1.0,1.0,r,1.0,1.1696923000272363,,,,,,,,,,,,,,,,,,1.0,1.0,4.0,0.0,,,,,,,,,123.1226098999614,,,,,,,,,,,,,,,,,123.11037709994709,124.3240749000106,125.12451890006196,125.10892509995028,125.10967300005724,125.12451890006196,125.12451890006196,126.31051199999638,r,1.0,1.1696923000272363,,,,,,,,,,,,,,,,,,,,,,,,,,,,,,,,,,,,,,,sub-103,1,stroop_test,60.25199796725746,
test,yellow,g,1.0,5.0,2.0,1.0,g,1.0,1.5181013999972492,,,,,,,,,,,,,,,,,,1.0,2.0,5.0,1.0,,,,,,,,,126.32538269995712,,,,,,,,,,,,,,,,,126.31109169998672,127.12602550000884,127.9269248000346,127.91127120004968,127.91212590003852,127.9269248000346,127.9269248000346,129.4482695000479,g,1.0,1.5181013999972492,,,,,,,,,,,,,,,,,,,,,,,,,,,,,,,,,,,,,,,sub-103,1,stroop_test,60.25199796725746,
test,red,r,1.0,6.0,0.0,2.0,r,1.0,0.964819799992256,,,,,,,,,,,,,,,,,,2.0,0.0,6.0,0.0,,,,,,,,,129.4610459000105,,,,,,,,,,,,,,,,,129.44882709998635,129.81124680000357,130.6118959999876,130.5967497000238,130.59749369998462,130.6118959999876,130.6118959999876,131.58233080001082,r,1.0,0.964819799992256,,,,,,,,,,,,,,,,,,,,,,,,,,,,,,,,,,,,,,,sub-103,1,stroop_test,60.25199796725746,
test,blue,b,1.0,7.0,1.0,2.0,b,1.0,0.9779356999788432,,,,,,,,,,,,,,,,,,2.0,1.0,7.0,2.0,,,,,,,,,131.59573900001124,,,,,,,,,,,,,,,,,131.58291390002705,132.3965299000265,133.196836899966,133.1812334000133,133.18202659999952,133.196836899966,133.196836899966,134.18351390003227,b,1.0,0.9779356999788432,,,,,,,,,,,,,,,,,,,,,,,,,,,,,,,,,,,,,,,sub-103,1,stroop_test,60.25199796725746,
test,yellow,g,1.0,8.0,2.0,2.0,g,1.0,1.0963576999492943,,,,,,,,,,,,,,,,,,2.0,2.0,8.0,1.0,,,,,,,,,134.1976764999563,,,,,,,,,,,,,,,,,134.18403989996295,134.99828219995834,135.79871210001875,135.7833330000285,135.7840960000176,135.79871210001875,135.79871210001875,136.9018656000262,g,1.0,1.0963576999492943,,,,,,,,,,,,,,,,,,,,,,,,,,,,,,,,,,,,,,,sub-103,1,stroop_test,60.25199796725746,
test,red,r,1.0,9.0,0.0,3.0,r,1.0,0.7180685999337584,,,,,,,,,,,,,,,,,,3.0,0.0,9.0,0.0,,,,,,,,,136.9163318000501,,,,,,,,,,,,,,,,,136.90238580002915,137.2662674000021,138.06687260000035,138.05174070002977,138.05250910005998,138.06687260000035,138.06687260000035,138.7882655999856,r,1.0,0.7180685999337584,,,,,,,,,,,,,,,,,,,,,,,,,,,,,,,,,,,,,,,sub-103,1,stroop_test,60.25199796725746,
test,yellow,g,1.0,10.0,1.0,3.0,g,1.0,0.9132429999299349,,,,,,,,,,,,,,,,,,3.0,1.0,10.0,1.0,,,,,,,,,138.8008795999922,,,,,,,,,,,,,,,,,138.78878890001215,138.90082169999368,139.7011269000359,139.68755090003833,139.68829259998165,139.7011269000359,139.7011269000359,140.62082980002742,g,1.0,0.9132429999299349,,,,,,,,,,,,,,,,,,,,,,,,,,,,,,,,,,,,,,,sub-103,1,stroop_test,60.25199796725746,
test,blue,b,1.0,11.0,2.0,3.0,b,1.0,0.5186830000020564,,,,,,,,,,,,,,,,,,3.0,2.0,11.0,2.0,,,,,,,,,140.63544129999354,,,,,,,,,,,,,,,,,140.6213613,141.435812599957,142.23615390004124,142.22077180002816,142.22160549997352,142.23615390004124,142.23615390004124,142.7724331000354,b,1.0,0.5186830000020564,,,,,,,,,,,,,,,,,,,,,,,,,,,,,,,,,,,,,,,sub-103,1,stroop_test,60.25199796725746,
,,,,,,,,,,,,,,,,,,,,,,,,,,,,,,,,,,,,,,,,,,,,,,,,,,,,,,,,,,,,,,,,,,,,142.77274679997936,142.7868094999576,142.7868094999576,147.0751934000291,space,4.278249999973923,,,,,,,,,,,,,,,,,,,,,,,,,,,,,,,,sub-103,1,stroop_test,60.25199796725746,
,,,,0.0,0.0,0.0,,,,,rot,yellow,g,0.0,g,1.0,1.6051337000681087,,,,,,,,,,,,,,0.0,0.0,0.0,3.0,,,,,147.09717379999347,,,,,,,,,,,,,,,,,147.09135200001765,147.1900254000211,147.99917059997097,147.97498030005954,,,,,,,,,,,,,,,,147.9896304999711,147.99917059997097,147.99917059997097,149.6106072999537,g,1.0,1.6051337000681087,,149.628563700011,149.63807770004496,150.61152849998325,,,,,,,,,,,,,,,,,,,,sub-103,1,stroop_test,60.25199796725746,
,,,,1.0,1.0,0.0,,,,,rot,red,r,1.0,r,1.0,1.6674329000525177,,,,,,,,,,,,,,0.0,1.0,1.0,0.0,,,,,150.62566969997715,,,,,,,,,,,,,,,,,150.612073999946,151.8266495000571,152.62680710002314,152.6117054000497,,,,,,,,,,,,,,,,152.61251739994623,152.62680710002314,152.62680710002314,154.29736980004236,r,1.0,1.6674329000525177,,154.29830749996472,154.31295040005352,155.3118938000407,,,,,,,,,,,,,,,,,,,,sub-103,1,stroop_test,60.25199796725746,
,,,,2.0,2.0,0.0,,,,,blau,yellow,g,0.0,g,1.0,2.866581700043753,,,,,,,,,,,,,,0.0,2.0,2.0,7.0,,,,,155.3287744000554,,,,,,,,,,,,,,,,,155.31248610001057,156.11289009999018,156.9183686999604,156.8979419999523,,,,,,,,,,,,,,,,156.9119682000019,156.9183686999604,156.9183686999604,159.80044709995855,g,1.0,2.866581700043753,,159.8012555000605,159.81518759997562,160.80086049996316,160.81596499995794,,,,,,,,,,,,,,,,,,,sub-103,1,stroop_test,60.25199796725746,
,,,,3.0,3.0,0.0,,,,,gelb,red,r,0.0,r,1.0,2.283736399956979,,,,,,,,,,,,,,0.0,3.0,3.0,8.0,,,,,160.81596499995794,,,,,,,,,,,,,,,,,160.8014542000601,160.8991143000312,161.7012930000201,161.68416770000476,,,,,,,,,,,,,,,,161.6903799000429,161.7012930000201,161.7012930000201,163.98804800002836,r,1.0,2.283736399956979,,163.98885349999182,164.00220530002844,164.98684340005275,165.00195890001487,,,,,,,,,,,,,,,,,,,sub-103,1,stroop_test,60.25199796725746,
,,,,4.0,4.0,0.0,,,,,blau,red,r,0.0,r,1.0,1.3827461000764742,,,,,,,,,,,,,,0.0,4.0,4.0,4.0,,,,,165.00195890001487,,,,,,,,,,,,,,,,,164.98739210003987,165.3521514000604,166.15231799997855,166.13752900005784,,,,,,,,,,,,,,,,166.14254609995987,166.15231799997855,166.15231799997855,167.54031149996445,r,1.0,1.3827461000764742,,167.5411832999671,167.5541190999793,168.5395391000202,168.55422090005595,,,,,,,,,,,,,,,,,,,sub-103,1,stroop_test,60.25199796725746,
,,,,5.0,5.0,0.0,,,,,blau,blue,b,1.0,b,1.0,0.8097025000024587,,,,,,,,,,,,,,0.0,5.0,5.0,6.0,,,,,168.55422090005595,,,,,,,,,,,,,,,,,168.54010109999217,168.6546590999933,169.4549580999883,169.43974659999367,,,,,,,,,,,,,,,,169.44054540002253,169.4549580999883,169.4549580999883,170.27476049994584,b,1.0,0.8097025000024587,,170.27556820004247,170.28911280003376,171.27437250001822,171.2897012999747,,,,,,,,,,,,,,,,,,,sub-103,1,stroop_test,60.25199796725746,
,,,,6.0,6.0,0.0,,,,,gelb,yellow,g,1.0,g,1.0,1.0580941999796778,,,,,,,,,,,,,,0.0,6.0,6.0,10.0,,,,,171.2897012999747,,,,,,,,,,,,,,,,,171.27488959999755,172.47389799996745,173.27721089997794,173.2591126000043,,,,,,,,,,,,,,,,173.26518300001044,173.27721089997794,173.27721089997794,174.34405129996594,g,1.0,1.0580941999796778,,174.34494540002197,174.3595697999699,175.3439284999622,175.35933710006066,,,,,,,,,,,,,,,,,,,sub-103,1,stroop_test,60.25199796725746,
,,,,7.0,7.0,0.0,,,,,rot,blue,b,0.0,b,1.0,0.8140487000346184,,,,,,,,,,,,,,0.0,7.0,7.0,2.0,,,,,175.35933710006066,,,,,,,,,,,,,,,,,175.3444345999742,175.4593447999796,176.2610685999971,176.24405750003643,,,,,,,,,,,,,,,,176.25193390005734,176.2610685999971,176.2610685999971,177.07976989995225,b,1.0,0.8140487000346184,,177.0806617999915,177.09370650001802,178.08090379997157,178.09465290000662,,,,,,,,,,,,,,,,,,,sub-103,1,stroop_test,60.25199796725746,
,,,,8.0,8.0,0.0,,,,,gelb,blue,b,0.0,b,1.0,1.0487958000740036,,,,,,,,,,,,,,0.0,8.0,8.0,9.0,,,,,178.09465290000662,,,,,,,,,,,,,,,,,178.08140809996985,178.19460349995643,178.9964807999786,178.98123469995335,,,,,,,,,,,,,,,,178.98692149994895,178.9964807999786,178.9964807999786,180.06377570005134,b,1.0,1.0487958000740036,,180.06453610002063,180.07892660005018,181.06510050001089,,,,,,,,,,,,,,,,,,,,sub-103,1,stroop_test,60.25199796725746,
,,,,9.0,9.0,0.0,,,,,blau,blue,b,1.0,b,1.0,0.5903558999998495,,,,,,,,,,,,,,0.0,9.0,9.0,5.0,,,,,181.0799234999577,,,,,,,,,,,,,,,,,181.0656591999577,181.4133108999813,182.2144954999676,182.19890299998224,,,,,,,,,,,,,,,,182.20406759995967,182.2144954999676,182.2144954999676,182.816813500016,b,1.0,0.5903558999998495,,182.81764130003285,182.83070020005107,183.81625010003336,183.83163250004876,,,,,,,,,,,,,,,,,,,sub-103,1,stroop_test,60.25199796725746,
,,,,10.0,10.0,0.0,,,,,rot,red,r,1.0,r,1.0,0.8000387999927625,,,,,,,,,,,,,,0.0,10.0,10.0,1.0,,,,,183.83163250004876,,,,,,,,,,,,,,,,,183.8167601999594,184.63233259995468,185.4344161000336,185.4185104999924,,,,,,,,,,,,,,,,185.4247796999989,185.4344161000336,185.4344161000336,186.25183139997532,r,1.0,0.8000387999927625,,186.2526308000088,186.26671230001372,187.2519253999926,187.2673214999959,,,,,,,,,,,,,,,,,,,sub-103,1,stroop_test,60.25199796725746,
,,,,11.0,11.0,0.0,,,,,gelb,yellow,g,1.0,g,1.0,0.4605086999945342,,,,,,,,,,,,,,0.0,11.0,11.0,11.0,,,,,187.2673214999959,,,,,,,,,,,,,,,,,187.25243430002595,188.45151190005708,189.2551910999464,189.2383987000212,,,,,,,,,,,,,,,,189.24498710001356,189.2551910999464,189.2551910999464,189.7210541999666,g,1.0,0.4605086999945342,,189.72184939996805,189.7356606000103,190.72108409996144,190.7363759999862,,,,,,,,,,,,,,,,,,,sub-103,1,stroop_test,60.25199796725746,
,,,,12.0,0.0,1.0,,,,,blau,blue,b,1.0,b,1.0,0.6567271000239998,,,,,,,,,,,,,,1.0,0.0,12.0,6.0,,,,,190.7363759999862,,,,,,,,,,,,,,,,,190.7216032999568,190.8365883999504,191.6381718999473,191.6217041000491,,,,,,,,,,,,,,,,191.62712139997168,191.6381718999473,191.6381718999473,192.30596799997147,b,1.0,0.6567271000239998,,192.30678049998824,192.3207377999788,193.30580680002456,193.3217488999944,,,,,,,,,,,,,,,,,,,sub-103,1,stroop_test,60.25199796725746,
,,,,13.0,1.0,1.0,,,,,rot,yellow,g,0.0,r,0.0,1.2577117999317124,,,,,,,,,,,,,,1.0,1.0,13.0,3.0,,,,,193.3217488999944,,,,,,,,,,,,,,,,,193.3064084999496,193.40473089995797,194.20752429997083,194.18979249999396,,,,,,,,,,,,,,,,194.19635550002567,194.20752429997083,194.20752429997083,195.47506019996945,r,0.0,1.2577117999317124,,195.4868094000267,195.49700650002345,196.49042729998476,,,,,,,,,,,,,,,,,,,,sub-103,1,stroop_test,60.25199796725746,
,,,,14.0,2.0,1.0,,,,,rot,blue,b,0.0,b,1.0,1.0739184999838471,,,,,,,,,,,,,,1.0,2.0,14.0,2.0,,,,,196.50702729995828,,,,,,,,,,,,,,,,,196.49097799998708,196.8404686000431,197.64124220004305,197.6256030000513,,,,,,,,,,,,,,,,197.62641539995093,197.64124220004305,197.64124220004305,198.7272938999813,b,1.0,1.0739184999838471,,198.73472119995856,198.7467473000288,199.7283290999476,,,,,,,,,,,,,,,,,,,,sub-103,1,stroop_test,60.25199796725746,
,,,,15.0,3.0,1.0,,,,,blau,blue,b,1.0,b,1.0,0.7065438999561593,,,,,,,,,,,,,,1.0,3.0,15.0,5.0,,,,,199.74426710000265,,,,,,,,,,,,,,,,,199.72884879994672,200.092414899962,200.9085141000105,200.87786070001312,,,,,,,,,,,,,,,,200.8853100000415,200.9085141000105,200.9085141000105,201.6299562000204,b,1.0,0.7065438999561593,,201.63082089996897,201.64339370001107,202.6290040999884,202.6445687999949,,,,,,,,,,,,,,,,,,,sub-103,1,stroop_test,60.25199796725746,
,,,,16.0,4.0,1.0,,,,,gelb,yellow,g,1.0,g,1.0,0.897538400022313,,,,,,,,,,,,,,1.0,4.0,16.0,10.0,,,,,202.6445687999949,,,,,,,,,,,,,,,,,202.62951780005824,202.74477620003745,203.546469300054,203.5296477000229,,,,,,,,,,,,,,,,203.53578939998988,203.546469300054,203.546469300054,204.44567080005072,g,1.0,0.897538400022313,,204.4461341999704,204.46104339999147,205.44690460001584,,,,,,,,,,,,,,,,,,,,sub-103,1,stroop_test,60.25199796725746,
,,,,17.0,5.0,1.0,,,,,blau,red,r,0.0,r,1.0,1.0369999000104144,,,,,,,,,,,,,,1.0,5.0,17.0,4.0,,,,,205.46420349995608,,,,,,,,,,,,,,,,,205.4474414000288,205.5455261999741,206.347561600036,206.3317980000284,,,,,,,,,,,,,,,,206.3360222999472,206.347561600036,206.347561600036,207.3985109999776,r,1.0,1.0369999000104144,,207.3990615999792,207.4147501999978,208.3993438000325,208.41426710004453,,,,,,,,,,,,,,,,,,,sub-103,1,stroop_test,60.25199796725746,
,,,,18.0,6.0,1.0,,,,,rot,red,r,1.0,r,1.0,1.159913899959065,,,,,,,,,,,,,,1.0,6.0,18.0,1.0,,,,,208.41426710004453,,,,,,,,,,,,,,,,,208.39979860000312,208.7492806999944,209.5648588000331,209.54867409996223,,,,,,,,,,,,,,,,209.5509822999593,209.5648588000331,209.5648588000331,210.73268520005516,r,1.0,1.159913899959065,,210.73306060000323,210.7484217999736,211.733031700016,211.74928009998985,,,,,,,,,,,,,,,,,,,sub-103,1,stroop_test,60.25199796725746,
,,,,19.0,7.0,1.0,,,,,blau,yellow,g,0.0,g,1.0,2.560567800072022,,,,,,,,,,,,,,1.0,7.0,19.0,7.0,,,,,211.74928009998985,,,,,,,,,,,,,,,,,211.7334280000068,212.9337975999806,213.73393430002037,213.7184620000189,,,,,,,,,,,,,,,,213.72274740005375,213.73393430002037,213.73393430002037,216.3037829999812,g,1.0,2.560567800072022,,216.30455250001975,216.319494000054,217.30493059998844,217.32034890004437,,,,,,,,,,,,,,,,,,,sub-103,1,stroop_test,60.25199796725746,
,,,,20.0,8.0,1.0,,,,,rot,red,r,1.0,r,1.0,0.781077100080438,,,,,,,,,,,,,,1.0,8.0,20.0,0.0,,,,,217.32034890004437,,,,,,,,,,,,,,,,,217.3054007999599,217.6537555999821,218.45354909996968,218.4382503000088,,,,,,,,,,,,,,,,218.44467949995305,218.45354909996968,218.45354909996968,219.2411038000137,r,1.0,0.781077100080438,,219.24198629998136,219.2541966000572,220.2401151000522,220.2557083000429,,,,,,,,,,,,,,,,,,,sub-103,1,stroop_test,60.25199796725746,
,,,,21.0,9.0,1.0,,,,,gelb,blue,b,0.0,b,1.0,0.6885963999666274,,,,,,,,,,,,,,1.0,9.0,21.0,9.0,,,,,220.2557083000429,,,,,,,,,,,,,,,,,220.2406718999846,221.0562844000524,221.85622049996164,221.8410802000435,,,,,,,,,,,,,,,,221.84752970002592,221.85622049996164,221.85622049996164,222.5580795999849,b,1.0,0.6885963999666274,,222.55851530004293,222.57402689999435,223.55862619995605,,,,,,,,,,,,,,,,,,,,sub-103,1,stroop_test,60.25199796725746,
,,,,22.0,10.0,1.0,,,,,gelb,red,r,0.0,r,1.0,0.7660682999994606,,,,,,,,,,,,,,1.0,10.0,22.0,8.0,,,,,223.5745247000596,,,,,,,,,,,,,,,,,223.55920749995855,224.75852280005347,225.5590744999936,225.54350160004105,,,,,,,,,,,,,,,,225.5443126000464,225.5590744999936,225.5590744999936,226.3292384999804,r,1.0,0.7660682999994606,,226.3301027000416,226.34302429994568,227.3287126000505,227.3440139000304,,,,,,,,,,,,,,,,,,,sub-103,1,stroop_test,60.25199796725746,
,,,,23.0,11.0,1.0,,,,,gelb,yellow,g,1.0,g,1.0,0.8049317999975756,,,,,,,,,,,,,,1.0,11.0,23.0,11.0,,,,,227.3440139000304,,,,,,,,,,,,,,,,,227.3292555999942,228.5286590999458,229.32935330003968,229.312806300004,,,,,,,,,,,,,,,,229.31317430001215,229.32935330003968,229.32935330003968,230.1480803999584,g,1.0,0.8049317999975756,,230.14895980001893,230.1625073000323,231.14816280000375,231.1632892000489,,,,,,,,,,,,,,,,,,,sub-103,1,stroop_test,60.25199796725746,
,,,,,,,,,,,,,,,,,,,,,,,,,,,,,,,,,,,,,,,,,,,,,,,,,,,,,,,,,,,,,,,,,,,,,,,,,,,,,,,,,,,,,,,231.1483761999989,231.1632892000489,231.1632892000489,237.81997650000267,space,6.651030400069431,,,,,,,,,,,,,sub-103,1,stroop_test,60.25199796725746,
,,,,0.0,0.0,0.0,,,,,,,,,,,,,rot,red,r,1.0,r,1.0,1.0196288999868557,,,,,,,,,,0.0,0.0,0.0,0.0,237.84524249995596,,,,,,,,,,,,,,,,,237.8401673999615,238.1844447000185,238.98495600000024,238.9702422999544,,,,,,,,,,,,,,,,,,,,,,,,,,,,,,,,,,,238.9760466000298,238.98495600000024,238.98495600000024,240.0213638000423,r,1.0,1.0196288999868557,,,,,sub-103,1,stroop_test,60.25199796725746,
,,,,1.0,1.0,0.0,,,,,,,,,,,,,gelb,yellow,g,1.0,g,1.0,0.707211900036782,,,,,,,,,,0.0,1.0,1.0,11.0,240.0357287999941,,,,,,,,,,,,,,,,,240.022056399961,241.2366549000144,242.03731020004489,242.02173589996528,,,,,,,,,,,,,,,,,,,,,,,,,,,,,,,,,,,242.02738069999032,242.03731020004489,242.03731020004489,242.75643619999755,g,1.0,0.707211900036782,,,,,sub-103,1,stroop_test,60.25199796725746,
,,,,2.0,2.0,0.0,,,,,,,,,,,,,rot,blue,b,0.0,b,1.0,1.0687209999887273,,,,,,,,,,0.0,2.0,2.0,2.0,242.77075829997196,,,,,,,,,,,,,,,,,242.7570921999868,243.9552937999833,244.7556678999681,244.7405467999633,,,,,,,,,,,,,,,,,,,,,,,,,,,,,,,,,,,244.74628760002088,244.7556678999681,244.7556678999681,245.84203970001545,b,1.0,1.0687209999887273,,,,,sub-103,1,stroop_test,60.25199796725746,
,,,,3.0,3.0,0.0,,,,,,,,,,,,,gelb,yellow,g,1.0,g,1.0,0.8061487000668421,,,,,,,,,,0.0,3.0,3.0,10.0,245.85656169999857,,,,,,,,,,,,,,,,,245.84266419999767,246.6565944000613,247.4581045999657,247.4425753999967,,,,,,,,,,,,,,,,,,,,,,,,,,,,,,,,,,,247.44865170004775,247.4581045999657,247.4581045999657,248.2772646000376,g,1.0,0.8061487000668421,,,,,sub-103,1,stroop_test,60.25199796725746,
,,,,4.0,4.0,0.0,,,,,,,,,,,,,blau,blue,b,1.0,b,1.0,0.958694100030698,,,,,,,,,,0.0,4.0,4.0,6.0,248.29202579997943,,,,,,,,,,,,,,,,,248.27785850001965,249.47653700003863,250.2762387000257,250.2607853000518,,,,,,,,,,,,,,,,,,,,,,,,,,,,,,,,,,,250.26647429994773,250.2762387000257,250.2762387000257,251.24510629998983,b,1.0,0.958694100030698,,,,,sub-103,1,stroop_test,60.25199796725746,
,,,,5.0,5.0,0.0,,,,,,,,,,,,,blau,red,r,0.0,r,1.0,0.8525330999400467,,,,,,,,,,0.0,5.0,5.0,4.0,251.25939749996175,,,,,,,,,,,,,,,,,251.2457641999936,252.46073110005815,253.2616638999898,253.24597899999932,,,,,,,,,,,,,,,,,,,,,,,,,,,,,,,,,,,253.24682330002543,253.2616638999898,253.2616638999898,254.1289861999685,r,1.0,0.8525330999400467,,,,,sub-103,1,stroop_test,60.25199796725746,
,,,,6.0,6.0,0.0,,,,,,,,,,,,,rot,red,r,1.0,r,1.0,0.758336600032635,,,,,,,,,,0.0,6.0,6.0,1.0,254.144388900022,,,,,,,,,,,,,,,,,254.1293436000124,254.2447916000383,255.04671729996332,255.0310677000089,,,,,,,,,,,,,,,,,,,,,,,,,,,,,,,,,,,255.03793880005836,255.04671729996332,255.04671729996332,255.8157421000069,r,1.0,0.758336600032635,,,,,sub-103,1,stroop_test,60.25199796725746,
,,,,7.0,7.0,0.0,,,,,,,,,,,,,gelb,blue,b,0.0,b,1.0,0.9923387999879196,,,,,,,,,,0.0,7.0,7.0,9.0,255.8306889999658,,,,,,,,,,,,,,,,,255.81635249999815,256.1806875000475,256.9821211999515,256.9658352000406,,,,,,,,,,,,,,,,,,,,,,,,,,,,,,,,,,,256.97153270000126,256.9821211999515,256.9821211999515,257.98463099997025,b,1.0,0.9923387999879196,,,,,sub-103,1,stroop_test,60.25199796725746,
,,,,8.0,8.0,0.0,,,,,,,,,,,,,blau,yellow,g,0.0,g,1.0,0.6870238999836147,,,,,,,,,,0.0,8.0,8.0,7.0,257.99747439997736,,,,,,,,,,,,,,,,,257.98534510005265,258.7987304000417,259.5987601999659,259.5835502999835,,,,,,,,,,,,,,,,,,,,,,,,,,,,,,,,,,,259.5887868000427,259.5987601999659,259.5987601999659,260.3014303999953,g,1.0,0.6870238999836147,,,,,sub-103,1,stroop_test,60.25199796725746,
,,,,9.0,9.0,0.0,,,,,,,,,,,,,rot,yellow,g,0.0,g,1.0,0.7558357999660075,,,,,,,,,,0.0,9.0,9.0,3.0,260.3164066000609,,,,,,,,,,,,,,,,,260.3021233000327,260.41643700003624,261.217999799992,261.2022916000569,,,,,,,,,,,,,,,,,,,,,,,,,,,,,,,,,,,261.2084383999463,261.217999799992,261.217999799992,261.98644849995617,g,1.0,0.7558357999660075,,,,,sub-103,1,stroop_test,60.25199796725746,
,,,,10.0,10.0,0.0,,,,,,,,,,,,,blau,blue,b,1.0,b,1.0,0.6542679000413045,,,,,,,,,,0.0,10.0,10.0,5.0,262.00008350005373,,,,,,,,,,,,,,,,,261.9869907000102,262.3510745000094,263.1513456000248,263.1365728999954,,,,,,,,,,,,,,,,,,,,,,,,,,,,,,,,,,,263.14256790000945,263.1513456000248,263.1513456000248,263.8233066999819,b,1.0,0.6542679000413045,,,,,sub-103,1,stroop_test,60.25199796725746,
,,,,11.0,11.0,0.0,,,,,,,,,,,,,gelb,red,r,0.0,r,1.0,0.6694748000008985,,,,,,,,,,0.0,11.0,11.0,8.0,263.8353424000088,,,,,,,,,,,,,,,,,263.8239145999541,263.9354217000073,264.7357757999562,264.7203236999921,,,,,,,,,,,,,,,,,,,,,,,,,,,,,,,,,,,264.7270223000087,264.7357757999562,264.7357757999562,265.42275040003005,r,1.0,0.6694748000008985,,,,,sub-103,1,stroop_test,60.25199796725746,
,,,,12.0,0.0,1.0,,,,,,,,,,,,,blau,red,r,0.0,r,1.0,0.7581284999614581,,,,,,,,,,1.0,0.0,12.0,4.0,265.436229599989,,,,,,,,,,,,,,,,,265.4234032999957,265.53710459999274,266.33770629996434,266.32210350001696,,,,,,,,,,,,,,,,,,,,,,,,,,,,,,,,,,,266.32748610002454,266.33770629996434,266.33770629996434,267.10632480005734,r,1.0,0.7581284999614581,,,,,sub-103,1,stroop_test,60.25199796725746,
,,,,13.0,1.0,1.0,,,,,,,,,,,,,rot,red,r,1.0,r,1.0,0.5905237999977544,,,,,,,,,,1.0,1.0,13.0,1.0,267.1210110000102,,,,,,,,,,,,,,,,,267.1069515000563,268.3053468000144,269.1053365999833,269.089919900056,,,,,,,,,,,,,,,,,,,,,,,,,,,,,,,,,,,269.095801700023,269.1053365999833,269.1053365999833,269.70857719995547,r,1.0,0.5905237999977544,,,,,sub-103,1,stroop_test,60.25199796725746,
,,,,14.0,2.0,1.0,,,,,,,,,,,,,blau,yellow,g,0.0,g,1.0,0.6614828000310808,,,,,,,,,,1.0,2.0,14.0,7.0,269.7230421999702,,,,,,,,,,,,,,,,,269.7091139999684,269.82286860002205,270.62398769997526,270.60906229994725,,,,,,,,,,,,,,,,,,,,,,,,,,,,,,,,,,,270.6145483000437,270.62398769997526,270.62398769997526,271.293740299996,g,1.0,0.6614828000310808,,,,,sub-103,1,stroop_test,60.25199796725746,
,,,,15.0,3.0,1.0,,,,,,,,,,,,,gelb,red,r,0.0,r,1.0,0.634953900007531,,,,,,,,,,1.0,3.0,15.0,8.0,271.30888909997884,,,,,,,,,,,,,,,,,271.2943847000133,271.65762660000473,272.46005899994634,272.44308730005287,,,,,,,,,,,,,,,,,,,,,,,,,,,,,,,,,,,272.44929749995936,272.46005899994634,272.46005899994634,273.11140169994906,r,1.0,0.634953900007531,,,,,sub-103,1,stroop_test,60.25199796725746,
,,,,16.0,4.0,1.0,,,,,,,,,,,,,gelb,yellow,g,1.0,g,1.0,0.6887527999933809,,,,,,,,,,1.0,4.0,16.0,11.0,273.1257792999968,,,,,,,,,,,,,,,,,273.11206720001064,274.32604159996845,275.1264836000046,275.1112764000427,,,,,,,,,,,,,,,,,,,,,,,,,,,,,,,,,,,275.11195930000395,275.1264836000046,275.1264836000046,275.8290885000024,g,1.0,0.6887527999933809,,,,,sub-103,1,stroop_test,60.25199796725746,
,,,,17.0,5.0,1.0,,,,,,,,,,,,,rot,yellow,g,0.0,g,1.0,0.610792100080289,,,,,,,,,,1.0,5.0,17.0,3.0,275.84348210005555,,,,,,,,,,,,,,,,,275.8297076000599,276.644261599984,277.4446126000257,277.4290817000437,,,,,,,,,,,,,,,,,,,,,,,,,,,,,,,,,,,277.4357561999932,277.4446126000257,277.4446126000257,278.06605090002995,g,1.0,0.610792100080289,,,,,sub-103,1,stroop_test,60.25199796725746,
,,,,18.0,6.0,1.0,,,,,,,,,,,,,blau,blue,b,1.0,b,1.0,0.7558365999720991,,,,,,,,,,1.0,6.0,18.0,5.0,278.0801487000426,,,,,,,,,,,,,,,,,278.06672130001243,278.87930300005246,279.67960120004136,279.66451949998736,,,,,,,,,,,,,,,,,,,,,,,,,,,,,,,,,,,279.6699437999632,279.67960120004136,279.67960120004136,280.44901450001635,b,1.0,0.7558365999720991,,,,,sub-103,1,stroop_test,60.25199796725746,
,,,,19.0,7.0,1.0,,,,,,,,,,,,,rot,blue,b,0.0,b,1.0,0.6389450000133365,,,,,,,,,,1.0,7.0,19.0,2.0,280.4638879999984,,,,,,,,,,,,,,,,,280.449599100044,280.81513450003695,281.61713539995253,281.5999408999924,,,,,,,,,,,,,,,,,,,,,,,,,,,,,,,,,,,281.60650330001954,281.61713539995253,281.61713539995253,282.2667787000537,b,1.0,0.6389450000133365,,,,,sub-103,1,stroop_test,60.25199796725746,
,,,,20.0,8.0,1.0,,,,,,,,,,,,,rot,red,r,1.0,r,1.0,0.6017740999814123,,,,,,,,,,1.0,8.0,20.0,0.0,282.281423300039,,,,,,,,,,,,,,,,,282.2674228999531,283.48180359997787,284.2829537000507,284.2671443000436,,,,,,,,,,,,,,,,,,,,,,,,,,,,,,,,,,,284.2679019999923,284.2829537000507,284.2829537000507,284.8868668000214,r,1.0,0.6017740999814123,,,,,sub-103,1,stroop_test,60.25199796725746,
,,,,21.0,9.0,1.0,,,,,,,,,,,,,gelb,blue,b,0.0,b,1.0,0.632730899960734,,,,,,,,,,1.0,9.0,21.0,9.0,284.89917140000034,,,,,,,,,,,,,,,,,284.88744199997745,285.7004033999983,286.5022835000418,286.48622740001883,,,,,,,,,,,,,,,,,,,,,,,,,,,,,,,,,,,286.4928881999804,286.5022835000418,286.5022835000418,287.1376724999864,b,1.0,0.632730899960734,,,,,sub-103,1,stroop_test,60.25199796725746,
,,,,22.0,10.0,1.0,,,,,,,,,,,,,blau,blue,b,1.0,b,1.0,0.6731413999805227,,,,,,,,,,1.0,10.0,22.0,6.0,287.15151860006154,,,,,,,,,,,,,,,,,287.1382895000279,288.3523869999917,289.15294329996686,289.1378680999624,,,,,,,,,,,,,,,,,,,,,,,,,,,,,,,,,,,289.1433318000054,289.15294329996686,289.15294329996686,289.840709400014,b,1.0,0.6731413999805227,,,,,sub-103,1,stroop_test,60.25199796725746,
,,,,23.0,11.0,1.0,,,,,,,,,,,,,gelb,yellow,g,1.0,g,1.0,0.6823095999425277,,,,,,,,,,1.0,11.0,23.0,10.0,289.85408159997314,,,,,,,,,,,,,,,,,289.8413295999635,290.2033550000051,291.00396849995013,290.98852969997097,,,,,,,,,,,,,,,,,,,,,,,,,,,,,,,,,,,290.99547600001097,291.00396849995013,291.00396849995013,291.689978600014,g,1.0,0.6823095999425277,,,,,sub-103,1,stroop_test,60.25199796725746,
,,,,24.0,0.0,2.0,,,,,,,,,,,,,blau,yellow,g,0.0,g,1.0,0.6498810000484809,,,,,,,,,,2.0,0.0,24.0,7.0,291.70430420001503,,,,,,,,,,,,,,,,,291.69051920005586,292.5051827999996,293.3056634999812,293.29016199999023,,,,,,,,,,,,,,,,,,,,,,,,,,,,,,,,,,,293.2955286999932,293.3056634999812,293.3056634999812,293.9592658999609,g,1.0,0.6498810000484809,,,,,sub-103,1,stroop_test,60.25199796725746,
,,,,25.0,1.0,2.0,,,,,,,,,,,,,blau,blue,b,1.0,b,1.0,0.5816640000557527,,,,,,,,,,2.0,1.0,25.0,6.0,293.973124000011,,,,,,,,,,,,,,,,,293.9598639999749,294.77412770001683,295.57412580004893,295.5583517999621,,,,,,,,,,,,,,,,,,,,,,,,,,,,,,,,,,,295.5591713000322,295.57412580004893,295.57412580004893,296.1599731000606,b,1.0,0.5816640000557527,,,,,sub-103,1,stroop_test,60.25199796725746,
,,,,26.0,2.0,2.0,,,,,,,,,,,,,gelb,yellow,g,1.0,g,1.0,0.6193105999846011,,,,,,,,,,2.0,2.0,26.0,11.0,296.1741046999814,,,,,,,,,,,,,,,,,296.1606408000225,297.3751700000139,298.1758176999865,298.1606998000061,,,,,,,,,,,,,,,,,,,,,,,,,,,,,,,,,,,298.1666737999767,298.1758176999865,298.1758176999865,298.811696000048,g,1.0,0.6193105999846011,,,,,sub-103,1,stroop_test,60.25199796725746,
,,,,27.0,3.0,2.0,,,,,,,,,,,,,rot,blue,b,0.0,b,1.0,0.7879366999259219,,,,,,,,,,2.0,3.0,27.0,2.0,298.82598570000846,,,,,,,,,,,,,,,,,298.8122591000283,298.9260043000104,299.7272260000464,299.7108640000224,,,,,,,,,,,,,,,,,,,,,,,,,,,,,,,,,,,299.71648189995904,299.7272260000464,299.7272260000464,300.53053109999746,b,1.0,0.7879366999259219,,,,,sub-103,1,stroop_test,60.25199796725746,
,,,,28.0,4.0,2.0,,,,,,,,,,,,,gelb,yellow,g,1.0,g,1.0,0.6010936999227852,,,,,,,,,,2.0,4.0,28.0,10.0,300.543690099963,,,,,,,,,,,,,,,,,300.5311524999561,300.89440069999546,301.6949479000177,301.67958520003594,,,,,,,,,,,,,,,,,,,,,,,,,,,,,,,,,,,301.68550659995526,301.6949479000177,301.6949479000177,302.2986019999953,g,1.0,0.6010936999227852,,,,,sub-103,1,stroop_test,60.25199796725746,
,,,,29.0,5.0,2.0,,,,,,,,,,,,,rot,red,r,1.0,r,1.0,0.5137477999087423,,,,,,,,,,2.0,5.0,29.0,1.0,302.3119596999604,,,,,,,,,,,,,,,,,302.2991417000303,303.1123652999522,303.9122058999492,303.8973766999552,,,,,,,,,,,,,,,,,,,,,,,,,,,,,,,,,,,303.9046519000549,303.9122058999492,303.9122058999492,304.4321024999954,r,1.0,0.5137477999087423,,,,,sub-103,1,stroop_test,60.25199796725746,
,,,,30.0,6.0,2.0,,,,,,,,,,,,,blau,blue,b,1.0,b,1.0,0.6087542000459507,,,,,,,,,,2.0,6.0,30.0,5.0,304.44645849999506,,,,,,,,,,,,,,,,,304.432701200014,304.5471326999832,305.3463030999992,305.3309975999873,,,,,,,,,,,,,,,,,,,,,,,,,,,,,,,,,,,305.3359090000158,305.3463030999992,305.3463030999992,305.964686900028,b,1.0,0.6087542000459507,,,,,sub-103,1,stroop_test,60.25199796725746,
,,,,31.0,7.0,2.0,,,,,,,,,,,,,rot,yellow,g,0.0,g,1.0,0.8236921000061557,,,,,,,,,,2.0,7.0,31.0,3.0,305.98010020004585,,,,,,,,,,,,,,,,,305.9650910999626,306.33050979999825,307.1307465999853,307.11506370001007,,,,,,,,,,,,,,,,,,,,,,,,,,,,,,,,,,,307.1184060999658,307.1307465999853,307.1307465999853,307.96611509996,g,1.0,0.8236921000061557,,,,,sub-103,1,stroop_test,60.25199796725746,
,,,,32.0,8.0,2.0,,,,,,,,,,,,,gelb,blue,b,0.0,b,1.0,0.5734252000693232,,,,,,,,,,2.0,8.0,32.0,9.0,307.9815045000287,,,,,,,,,,,,,,,,,307.9664906000253,308.081409299979,308.8818606999703,308.86604850005824,,,,,,,,,,,,,,,,,,,,,,,,,,,,,,,,,,,308.8705217000097,308.8818606999703,308.8818606999703,309.4669205000391,b,1.0,0.5734252000693232,,,,,sub-103,1,stroop_test,60.25199796725746,
,,,,33.0,9.0,2.0,,,,,,,,,,,,,rot,red,r,1.0,r,1.0,0.5113855000818148,,,,,,,,,,2.0,9.0,33.0,0.0,309.4823114000028,,,,,,,,,,,,,,,,,309.4673025000375,309.5822398000164,310.3833502000198,310.3674471999984,,,,,,,,,,,,,,,,,,,,,,,,,,,,,,,,,,,310.3706699999748,310.3833502000198,310.3833502000198,310.90169580001384,r,1.0,0.5113855000818148,,,,,sub-103,1,stroop_test,60.25199796725746,
,,,,34.0,10.0,2.0,,,,,,,,,,,,,gelb,red,r,0.0,r,1.0,0.7968920000130311,,,,,,,,,,2.0,10.0,34.0,8.0,310.9170409999788,,,,,,,,,,,,,,,,,310.90196689998265,311.2670798000181,312.0679999999702,312.0532129999483,,,,,,,,,,,,,,,,,,,,,,,,,,,,,,,,,,,312.0595931999851,312.0679999999702,312.0679999999702,312.8714863000205,r,1.0,0.7968920000130311,,,,,sub-103,1,stroop_test,60.25199796725746,
,,,,35.0,11.0,2.0,,,,,,,,,,,,,blau,red,r,0.0,r,1.0,0.5777244000928476,,,,,,,,,,2.0,11.0,35.0,4.0,312.8857330000028,,,,,,,,,,,,,,,,,312.8720537000336,314.08648139995057,314.88747880002484,314.8716728000436,,,,,,,,,,,,,,,,,,,,,,,,,,,,,,,,,,,314.8772686000448,314.88747880002484,314.88747880002484,315.47248250001576,r,1.0,0.5777244000928476,,,,,sub-103,1,stroop_test,60.25199796725746,
,,,,36.0,0.0,3.0,,,,,,,,,,,,,blau,yellow,g,0.0,g,1.0,0.5363658000715077,,,,,,,,,,3.0,0.0,36.0,7.0,315.487507599988,,,,,,,,,,,,,,,,,315.4731023999629,315.8374149999581,316.6382847999921,316.6229413000401,,,,,,,,,,,,,,,,,,,,,,,,,,,,,,,,,,,316.6237049000338,316.6382847999921,316.6382847999921,317.1913868000265,g,1.0,0.5363658000715077,,,,,sub-103,1,stroop_test,60.25199796725746,
,,,,37.0,1.0,3.0,,,,,,,,,,,,,rot,blue,b,0.0,b,1.0,0.685928100021556,,,,,,,,,,3.0,1.0,37.0,2.0,317.2054214000236,,,,,,,,,,,,,,,,,317.1919177999953,318.3891120000044,319.1899855999509,319.1747239000397,,,,,,,,,,,,,,,,,,,,,,,,,,,,,,,,,,,319.1805888999952,319.1899855999509,319.1899855999509,319.89268669998273,b,1.0,0.685928100021556,,,,,sub-103,1,stroop_test,60.25199796725746,
,,,,38.0,2.0,3.0,,,,,,,,,,,,,rot,red,r,1.0,r,1.0,0.5960658000549302,,,,,,,,,,3.0,2.0,38.0,0.0,319.9075243000407,,,,,,,,,,,,,,,,,319.8933099999558,320.0075400000205,320.8103360000532,320.7936710000504,,,,,,,,,,,,,,,,,,,,,,,,,,,,,,,,,,,320.794507100014,320.8103360000532,320.8103360000532,321.4129021000117,r,1.0,0.5960658000549302,,,,,sub-103,1,stroop_test,60.25199796725746,
,,,,39.0,3.0,3.0,,,,,,,,,,,,,blau,red,r,0.0,r,1.0,0.6292000999674201,,,,,,,,,,3.0,3.0,39.0,4.0,321.42545950005297,,,,,,,,,,,,,,,,,321.4135106999893,321.7759353000438,322.5763430000516,322.5607573000016,,,,,,,,,,,,,,,,,,,,,,,,,,,,,,,,,,,322.5663556000218,322.5763430000516,322.5763430000516,323.21137619996443,r,1.0,0.6292000999674201,,,,,sub-103,1,stroop_test,60.25199796725746,
,,,,40.0,4.0,3.0,,,,,,,,,,,,,gelb,yellow,g,1.0,g,1.0,0.4908432000083849,,,,,,,,,,3.0,4.0,40.0,10.0,323.2266627999488,,,,,,,,,,,,,,,,,323.2118333999533,324.4115095000016,325.2148123000516,325.1978903999552,,,,,,,,,,,,,,,,,,,,,,,,,,,,,,,,,,,325.2046376999933,325.2148123000516,325.2148123000516,325.71410390001256,g,1.0,0.4908432000083849,,,,,sub-103,1,stroop_test,60.25199796725746,
,,,,41.0,5.0,3.0,,,,,,,,,,,,,gelb,blue,b,0.0,b,1.0,0.605914399959147,,,,,,,,,,3.0,5.0,41.0,9.0,325.7284362999489,,,,,,,,,,,,,,,,,325.71466980001424,326.52900650002994,327.329743099981,327.3147951000137,,,,,,,,,,,,,,,,,,,,,,,,,,,,,,,,,,,327.31554019998293,327.329743099981,327.329743099981,327.9492121000076,b,1.0,0.605914399959147,,,,,sub-103,1,stroop_test,60.25199796725746,
,,,,42.0,6.0,3.0,,,,,,,,,,,,,gelb,yellow,g,1.0,g,1.0,0.5910523000638932,,,,,,,,,,3.0,6.0,42.0,11.0,327.9637482999824,,,,,,,,,,,,,,,,,327.94980069994926,328.0637465000618,328.8637513000285,328.8481979999924,,,,,,,,,,,,,,,,,,,,,,,,,,,,,,,,,,,328.84879680001177,328.8637513000285,328.8637513000285,329.4674201000016,g,1.0,0.5910523000638932,,,,,sub-103,1,stroop_test,60.25199796725746,
,,,,43.0,7.0,3.0,,,,,,,,,,,,,gelb,red,r,0.0,r,1.0,0.4739137999713421,,,,,,,,,,3.0,7.0,43.0,8.0,329.48145279998425,,,,,,,,,,,,,,,,,329.4680350000272,329.8314447000157,330.6319019000512,330.6174481000053,,,,,,,,,,,,,,,,,,,,,,,,,,,,,,,,,,,330.6203447000589,330.6319019000512,330.6319019000512,331.1166289000539,r,1.0,0.4739137999713421,,,,,sub-103,1,stroop_test,60.25199796725746,
,,,,44.0,8.0,3.0,,,,,,,,,,,,,rot,yellow,g,0.0,g,1.0,0.5647658000234514,,,,,,,,,,3.0,8.0,44.0,3.0,331.1316558000399,,,,,,,,,,,,,,,,,331.1172251000535,331.23191980004776,332.03139530005865,332.0165069999639,,,,,,,,,,,,,,,,,,,,,,,,,,,,,,,,,,,332.0230292000342,332.03139530005865,332.03139530005865,332.60212299996056,g,1.0,0.5647658000234514,,,,,sub-103,1,stroop_test,60.25199796725746,
,,,,45.0,9.0,3.0,,,,,,,,,,,,,rot,red,r,1.0,r,1.0,0.5987771999789402,,,,,,,,,,3.0,9.0,45.0,1.0,332.61576750001404,,,,,,,,,,,,,,,,,332.60272299998906,332.96662630001083,333.7665740000084,333.7516175999772,,,,,,,,,,,,,,,,,,,,,,,,,,,,,,,,,,,333.7523036999628,333.7665740000084,333.7665740000084,334.3693504000548,r,1.0,0.5987771999789402,,,,,sub-103,1,stroop_test,60.25199796725746,
,,,,46.0,10.0,3.0,,,,,,,,,,,,,blau,blue,b,1.0,b,1.0,0.6013882999541238,,,,,,,,,,3.0,10.0,46.0,5.0,334.383868600009,,,,,,,,,,,,,,,,,334.36991759995,334.73405430000275,335.5343995000003,335.5191796000581,,,,,,,,,,,,,,,,,,,,,,,,,,,,,,,,,,,335.524982700008,335.5343995000003,335.5343995000003,336.1384376999922,b,1.0,0.6013882999541238,,,,,sub-103,1,stroop_test,60.25199796725746,
,,,,47.0,11.0,3.0,,,,,,,,,,,,,blau,blue,b,1.0,b,1.0,0.6018062999937683,,,,,,,,,,3.0,11.0,47.0,6.0,336.15195349999703,,,,,,,,,,,,,,,,,336.1390495999949,337.35294719995,338.1537141000153,338.13838530005887,,,,,,,,,,,,,,,,,,,,,,,,,,,,,,,,,,,338.1391533999704,338.1537141000153,338.1537141000153,338.77303679997567,b,1.0,0.6018062999937683,,,,,sub-103,1,stroop_test,60.25199796725746,
,,,,48.0,0.0,4.0,,,,,,,,,,,,,rot,yellow,g,0.0,g,1.0,1.508703300030902,,,,,,,,,,4.0,0.0,48.0,3.0,338.7864104999462,,,,,,,,,,,,,,,,,338.7736462999601,339.1376187000424,339.9371844000416,339.9224360999651,,,,,,,,,,,,,,,,,,,,,,,,,,,,,,,,,,,339.9284453999717,339.9371844000416,339.9371844000416,341.4573679000605,g,1.0,1.508703300030902,,,,,sub-103,1,stroop_test,60.25199796725746,
,,,,49.0,1.0,4.0,,,,,,,,,,,,,gelb,red,r,0.0,r,1.0,0.562740599969402,,,,,,,,,,4.0,1.0,49.0,8.0,341.47206000005826,,,,,,,,,,,,,,,,,341.45802150003146,342.27245090005454,343.072849499993,343.05779929994605,,,,,,,,,,,,,,,,,,,,,,,,,,,,,,,,,,,343.0636126999743,343.072849499993,343.072849499993,343.6421194999712,r,1.0,0.562740599969402,,,,,sub-103,1,stroop_test,60.25199796725746,
,,,,50.0,2.0,4.0,,,,,,,,,,,,,gelb,yellow,g,1.0,g,1.0,0.6037008999846876,,,,,,,,,,4.0,2.0,50.0,11.0,343.6571014999645,,,,,,,,,,,,,,,,,343.64278660004493,344.8415764999809,345.641472700052,345.62726660002954,,,,,,,,,,,,,,,,,,,,,,,,,,,,,,,,,,,345.628078400041,345.641472700052,345.641472700052,346.26089819998015,g,1.0,0.6037008999846876,,,,,sub-103,1,stroop_test,60.25199796725746,
,,,,51.0,3.0,4.0,,,,,,,,,,,,,rot,blue,b,0.0,b,1.0,0.8562822999665514,,,,,,,,,,4.0,3.0,51.0,2.0,346.2759011000162,,,,,,,,,,,,,,,,,346.2615262999898,347.0765114000533,347.8791893000016,347.86221569997724,,,,,,,,,,,,,,,,,,,,,,,,,,,,,,,,,,,347.8690957999788,347.8791893000016,347.8791893000016,348.7475928999484,b,1.0,0.8562822999665514,,,,,sub-103,1,stroop_test,60.25199796725746,
,,,,52.0,4.0,4.0,,,,,,,,,,,,,gelb,yellow,g,1.0,g,1.0,0.6109596999594942,,,,,,,,,,4.0,4.0,52.0,10.0,348.7617496000603,,,,,,,,,,,,,,,,,348.7482427000068,349.5620903000236,350.3646256000502,350.3470782999648,,,,,,,,,,,,,,,,,,,,,,,,,,,,,,,,,,,350.3533650999889,350.3646256000502,350.3646256000502,350.9817416999722,g,1.0,0.6109596999594942,,,,,sub-103,1,stroop_test,60.25199796725746,
,,,,53.0,5.0,4.0,,,,,,,,,,,,,rot,red,r,1.0,r,1.0,0.6664318999974057,,,,,,,,,,4.0,5.0,53.0,1.0,350.995905000018,,,,,,,,,,,,,,,,,350.9823167000432,351.0962444000179,351.89856670005247,351.8812423000345,,,,,,,,,,,,,,,,,,,,,,,,,,,,,,,,,,,351.88724559999537,351.89856670005247,351.89856670005247,352.5826461999677,r,1.0,0.6664318999974057,,,,,sub-103,1,stroop_test,60.25199796725746,
,,,,54.0,6.0,4.0,,,,,,,,,,,,,blau,yellow,g,0.0,g,1.0,0.405462900060229,,,,,,,,,,4.0,6.0,54.0,7.0,352.5971629000269,,,,,,,,,,,,,,,,,352.58328879997134,353.79801330005284,354.5997536999639,354.58346240001265,,,,,,,,,,,,,,,,,,,,,,,,,,,,,,,,,,,354.5889379000291,354.5997536999639,354.5997536999639,355.0160172999604,g,1.0,0.405462900060229,,,,,sub-103,1,stroop_test,60.25199796725746,
,,,,55.0,7.0,4.0,,,,,,,,,,,,,blau,blue,b,1.0,b,1.0,0.6431534000439569,,,,,,,,,,4.0,7.0,55.0,6.0,355.0314392000437,,,,,,,,,,,,,,,,,355.01662849995773,356.2319374999497,357.0324711999856,357.01730920001864,,,,,,,,,,,,,,,,,,,,,,,,,,,,,,,,,,,357.01807810005266,357.0324711999856,357.0324711999856,357.68512399995234,b,1.0,0.6431534000439569,,,,,sub-103,1,stroop_test,60.25199796725746,
,,,,56.0,8.0,4.0,,,,,,,,,,,,,blau,red,r,0.0,r,1.0,1.09449729998596,,,,,,,,,,4.0,8.0,56.0,4.0,357.69948459998704,,,,,,,,,,,,,,,,,357.6857361999573,358.0501278999727,358.8505548000103,358.8347698999569,,,,,,,,,,,,,,,,,,,,,,,,,,,,,,,,,,,358.8355773000512,358.8505548000103,358.8505548000103,359.95392070000526,r,1.0,1.09449729998596,,,,,sub-103,1,stroop_test,60.25199796725746,
,,,,57.0,9.0,4.0,,,,,,,,,,,,,rot,red,r,1.0,r,1.0,0.5860541000729427,,,,,,,,,,4.0,9.0,57.0,0.0,359.9678161999909,,,,,,,,,,,,,,,,,359.954474600032,360.0686034000246,360.8691527999472,360.85363060003147,,,,,,,,,,,,,,,,,,,,,,,,,,,,,,,,,,,360.8596361000091,360.8691527999472,360.8691527999472,361.4719768000068,r,1.0,0.5860541000729427,,,,,sub-103,1,stroop_test,60.25199796725746,
,,,,58.0,10.0,4.0,,,,,,,,,,,,,gelb,blue,b,0.0,b,1.0,0.8172828000970185,,,,,,,,,,4.0,10.0,58.0,9.0,361.4863029000117,,,,,,,,,,,,,,,,,361.4728000999894,361.586374699953,362.3881580999587,362.37189770000987,,,,,,,,,,,,,,,,,,,,,,,,,,,,,,,,,,,362.3789190000389,362.3881580999587,362.3881580999587,363.2223225999624,b,1.0,0.8172828000970185,,,,,sub-103,1,stroop_test,60.25199796725746,
,,,,59.0,11.0,4.0,,,,,,,,,,,,,blau,blue,b,1.0,b,1.0,0.8172219999833032,,,,,,,,,,4.0,11.0,59.0,5.0,363.23685400001705,,,,,,,,,,,,,,,,,363.2229375999887,364.43748329998925,365.238034500042,365.2232832000591,,,,,,,,,,,,,,,,,,,,,,,,,,,,,,,,,,,365.2286361999577,365.238034500042,365.238034500042,366.05943809996825,b,1.0,0.8172219999833032,,,,,sub-103,1,stroop_test,60.25199796725746,
,,,,60.0,0.0,5.0,,,,,,,,,,,,,gelb,yellow,g,1.0,g,1.0,0.8822678999276832,,,,,,,,,,5.0,0.0,60.0,10.0,366.0726309999591,,,,,,,,,,,,,,,,,366.0600113000255,366.1727730999701,366.97322529996745,366.9574978000019,,,,,,,,,,,,,,,,,,,,,,,,,,,,,,,,,,,366.9639621999813,366.97322529996745,366.97322529996745,367.8591123999795,g,1.0,0.8822678999276832,,,,,sub-103,1,stroop_test,60.25199796725746,
,,,,61.0,1.0,5.0,,,,,,,,,,,,,gelb,blue,b,0.0,b,1.0,0.652858900022693,,,,,,,,,,5.0,1.0,61.0,9.0,367.87321880005766,,,,,,,,,,,,,,,,,367.8596946999896,367.9731467999518,368.7735495000379,368.7583260999527,,,,,,,,,,,,,,,,,,,,,,,,,,,,,,,,,,,368.7590537000215,368.7735495000379,368.7735495000379,369.4428835000144,b,1.0,0.652858900022693,,,,,sub-103,1,stroop_test,60.25199796725746,
,,,,62.0,2.0,5.0,,,,,,,,,,,,,blau,blue,b,1.0,b,1.0,0.6261422000825405,,,,,,,,,,5.0,2.0,62.0,6.0,369.4587221000111,,,,,,,,,,,,,,,,,369.4433765000431,370.6586801999947,371.4591968000168,371.4437313999515,,,,,,,,,,,,,,,,,,,,,,,,,,,,,,,,,,,371.4490520999534,371.4591968000168,371.4591968000168,372.0954775999999,b,1.0,0.6261422000825405,,,,,sub-103,1,stroop_test,60.25199796725746,
,,,,63.0,3.0,5.0,,,,,,,,,,,,,rot,red,r,1.0,r,1.0,0.5849469000240788,,,,,,,,,,5.0,3.0,63.0,1.0,372.10978910001,,,,,,,,,,,,,,,,,372.0960899000056,372.20975939999335,373.01016880001407,372.9944945999887,,,,,,,,,,,,,,,,,,,,,,,,,,,,,,,,,,,373.0005468999734,373.01016880001407,373.01016880001407,373.59771120001096,r,1.0,0.5849469000240788,,,,,sub-103,1,stroop_test,60.25199796725746,
,,,,64.0,4.0,5.0,,,,,,,,,,,,,rot,blue,b,0.0,b,1.0,0.6024740999564528,,,,,,,,,,5.0,4.0,64.0,2.0,373.61109979997855,,,,,,,,,,,,,,,,,373.5983364999993,374.41139929997735,375.2122707000235,375.1969088000478,,,,,,,,,,,,,,,,,,,,,,,,,,,,,,,,,,,375.1976903999457,375.2122707000235,375.2122707000235,375.8315141999629,b,1.0,0.6024740999564528,,,,,sub-103,1,stroop_test,60.25199796725746,
,,,,65.0,5.0,5.0,,,,,,,,,,,,,gelb,yellow,g,1.0,g,1.0,0.5864670999580994,,,,,,,,,,5.0,5.0,65.0,11.0,375.8449024000438,,,,,,,,,,,,,,,,,375.83222910005134,376.6464470999781,377.4480197000085,377.4321547000436,,,,,,,,,,,,,,,,,,,,,,,,,,,,,,,,,,,377.43921780004166,377.4480197000085,377.4480197000085,378.0501614999957,g,1.0,0.5864670999580994,,,,,sub-103,1,stroop_test,60.25199796725746,
,,,,66.0,6.0,5.0,,,,,,,,,,,,,rot,red,r,1.0,r,1.0,0.6885248000035062,,,,,,,,,,5.0,6.0,66.0,0.0,378.064383000019,,,,,,,,,,,,,,,,,378.050798399956,378.1643974999897,378.96670280001126,378.9503150000237,,,,,,,,,,,,,,,,,,,,,,,,,,,,,,,,,,,378.9565339999972,378.96670280001126,378.96670280001126,379.6674561999971,r,1.0,0.6885248000035062,,,,,sub-103,1,stroop_test,60.25199796725746,
,,,,67.0,7.0,5.0,,,,,,,,,,,,,rot,yellow,g,0.0,g,1.0,0.8359244000166655,,,,,,,,,,5.0,7.0,67.0,3.0,379.68138490000274,,,,,,,,,,,,,,,,,379.6680672999937,380.0331071000546,380.8488138000248,380.83327319996897,,,,,,,,,,,,,,,,,,,,,,,,,,,,,,,,,,,380.8340005000355,380.8488138000248,380.8488138000248,381.7015621999744,g,1.0,0.8359244000166655,,,,,sub-103,1,stroop_test,60.25199796725746,
,,,,68.0,8.0,5.0,,,,,,,,,,,,,blau,red,r,0.0,r,1.0,1.037684200098738,,,,,,,,,,5.0,8.0,68.0,4.0,381.7163019999862,,,,,,,,,,,,,,,,,381.70213710004464,382.9172048000619,383.71688570000697,383.7024000999518,,,,,,,,,,,,,,,,,,,,,,,,,,,,,,,,,,,383.7081341999583,383.71688570000697,383.71688570000697,384.7704407999991,r,1.0,1.037684200098738,,,,,sub-103,1,stroop_test,60.25199796725746,
,,,,69.0,9.0,5.0,,,,,,,,,,,,,blau,yellow,g,0.0,g,1.0,0.6494582999730483,,,,,,,,,,5.0,9.0,69.0,7.0,384.784915599972,,,,,,,,,,,,,,,,,384.7710583000444,385.58538549998775,386.3860592000419,386.3705299999565,,,,,,,,,,,,,,,,,,,,,,,,,,,,,,,,,,,386.3713117999723,386.3860592000419,386.3860592000419,387.0396191000473,g,1.0,0.6494582999730483,,,,,sub-103,1,stroop_test,60.25199796725746,
,,,,70.0,10.0,5.0,,,,,,,,,,,,,blau,blue,b,1.0,b,1.0,0.6407224999275059,,,,,,,,,,5.0,10.0,70.0,5.0,387.0533263999969,,,,,,,,,,,,,,,,,387.0402378999861,387.85414599999785,388.6544992000563,388.6391401999863,,,,,,,,,,,,,,,,,,,,,,,,,,,,,,,,,,,388.639935299987,388.6544992000563,388.6544992000563,389.3075982000446,b,1.0,0.6407224999275059,,,,,sub-103,1,stroop_test,60.25199796725746,
,,,,71.0,11.0,5.0,,,,,,,,,,,,,gelb,red,r,0.0,r,1.0,0.6110952999442816,,,,,,,,,,5.0,11.0,71.0,8.0,389.32210740004666,,,,,,,,,,,,,,,,,389.3082445999608,389.6724091999931,390.4750109000597,390.4575573999901,,,,,,,,,,,,,,,,,,,,,,,,,,,,,,,,,,,390.46418570005335,390.4750109000597,390.4750109000597,391.0928146999795,r,1.0,0.6110952999442816,,,,,sub-103,1,stroop_test,60.25199796725746,
,,,,72.0,0.0,6.0,,,,,,,,,,,,,gelb,yellow,g,1.0,g,1.0,0.599082300090231,,,,,,,,,,6.0,0.0,72.0,11.0,391.10570169996936,,,,,,,,,,,,,,,,,391.0933954999782,391.4559379999992,392.2566674000118,392.2412863000063,,,,,,,,,,,,,,,,,,,,,,,,,,,,,,,,,,,392.24211670004297,392.2566674000118,392.2566674000118,392.85907630005386,g,1.0,0.599082300090231,,,,,sub-103,1,stroop_test,60.25199796725746,
,,,,73.0,1.0,6.0,,,,,,,,,,,,,blau,yellow,g,0.0,g,1.0,0.651170999975875,,,,,,,,,,6.0,1.0,73.0,7.0,392.87377840001136,,,,,,,,,,,,,,,,,392.8596380000236,393.2239724999527,394.02418409998063,394.0088678000029,,,,,,,,,,,,,,,,,,,,,,,,,,,,,,,,,,,394.0148032000288,394.02418409998063,394.02418409998063,394.6783124000067,g,1.0,0.651170999975875,,,,,sub-103,1,stroop_test,60.25199796725746,
,,,,74.0,2.0,6.0,,,,,,,,,,,,,rot,yellow,g,0.0,g,1.0,0.5721421000780538,,,,,,,,,,6.0,2.0,74.0,3.0,394.69178800005466,,,,,,,,,,,,,,,,,394.678875099984,395.8921330999583,396.6928778999718,396.6778806999792,,,,,,,,,,,,,,,,,,,,,,,,,,,,,,,,,,,396.683854599949,396.6928778999718,396.6928778999718,397.2790085000452,g,1.0,0.5721421000780538,,,,,sub-103,1,stroop_test,60.25199796725746,
,,,,75.0,3.0,6.0,,,,,,,,,,,,,rot,blue,b,0.0,b,1.0,0.5977651999564841,,,,,,,,,,6.0,3.0,75.0,2.0,397.29378149996046,,,,,,,,,,,,,,,,,397.2796963000437,397.3772508000257,398.1774482999463,398.1622848999687,,,,,,,,,,,,,,,,,,,,,,,,,,,,,,,,,,,398.16299360000994,398.1774482999463,398.1774482999463,398.7803594999714,b,1.0,0.5977651999564841,,,,,sub-103,1,stroop_test,60.25199796725746,
,,,,76.0,4.0,6.0,,,,,,,,,,,,,blau,blue,b,1.0,b,1.0,0.6199175000656396,,,,,,,,,,6.0,4.0,76.0,5.0,398.79451679997146,,,,,,,,,,,,,,,,,398.7809652000433,399.1448065000586,399.9449948000256,399.9302948999684,,,,,,,,,,,,,,,,,,,,,,,,,,,,,,,,,,,399.93570360005833,399.9449948000256,399.9449948000256,400.5815017999848,b,1.0,0.6199175000656396,,,,,sub-103,1,stroop_test,60.25199796725746,
,,,,77.0,5.0,6.0,,,,,,,,,,,,,gelb,red,r,0.0,r,1.0,0.5051787999691442,,,,,,,,,,6.0,5.0,77.0,8.0,400.5962483000476,,,,,,,,,,,,,,,,,400.5821547999512,401.7974269000115,402.6000332999975,402.582366000046,,,,,,,,,,,,,,,,,,,,,,,,,,,,,,,,,,,402.5890401999932,402.6000332999975,402.6000332999975,403.1164211999858,r,1.0,0.5051787999691442,,,,,sub-103,1,stroop_test,60.25199796725746,
,,,,78.0,6.0,6.0,,,,,,,,,,,,,gelb,yellow,g,1.0,g,1.0,0.5737865000264719,,,,,,,,,,6.0,6.0,78.0,10.0,403.1309073000448,,,,,,,,,,,,,,,,,403.11700470000505,403.48104069998953,404.2808242000174,404.2667105,,,,,,,,,,,,,,,,,,,,,,,,,,,,,,,,,,,404.2674717999762,404.2808242000174,404.2808242000174,404.86765509995166,g,1.0,0.5737865000264719,,,,,sub-103,1,stroop_test,60.25199796725746,
,,,,79.0,7.0,6.0,,,,,,,,,,,,,rot,red,r,1.0,r,1.0,0.5516885999822989,,,,,,,,,,6.0,7.0,79.0,0.0,404.88276029995177,,,,,,,,,,,,,,,,,404.86821710004006,405.6820678999648,406.4833547000308,406.46777270000894,,,,,,,,,,,,,,,,,,,,,,,,,,,,,,,,,,,406.4734890999971,406.4833547000308,406.4833547000308,407.0523354000179,r,1.0,0.5516885999822989,,,,,sub-103,1,stroop_test,60.25199796725746,
,,,,80.0,8.0,6.0,,,,,,,,,,,,,rot,red,r,1.0,r,1.0,0.5572118000127375,,,,,,,,,,6.0,8.0,80.0,1.0,407.0668977999594,,,,,,,,,,,,,,,,,407.0529536999529,408.2672558999621,409.0677706999704,409.0533777000383,,,,,,,,,,,,,,,,,,,,,,,,,,,,,,,,,,,409.0541910000611,409.0677706999704,409.0677706999704,409.6369925000472,r,1.0,0.5572118000127375,,,,,sub-103,1,stroop_test,60.25199796725746,
,,,,81.0,9.0,6.0,,,,,,,,,,,,,gelb,blue,b,0.0,b,1.0,0.4883509000064805,,,,,,,,,,6.0,9.0,81.0,9.0,409.65198349999264,,,,,,,,,,,,,,,,,409.63761490001343,410.8362699999707,411.636822200031,411.6208250999916,,,,,,,,,,,,,,,,,,,,,,,,,,,,,,,,,,,411.6274417999666,411.636822200031,411.636822200031,412.1403579000616,b,1.0,0.4883509000064805,,,,,sub-103,1,stroop_test,60.25199796725746,
,,,,82.0,10.0,6.0,,,,,,,,,,,,,blau,blue,b,1.0,b,1.0,0.6384124000323936,,,,,,,,,,6.0,10.0,82.0,6.0,412.1535727999872,,,,,,,,,,,,,,,,,412.14092989999335,413.3546484999824,414.1561521999538,414.1402251999825,,,,,,,,,,,,,,,,,,,,,,,,,,,,,,,,,,,414.145994200022,414.1561521999538,414.1561521999538,414.8087395000039,b,1.0,0.6384124000323936,,,,,sub-103,1,stroop_test,60.25199796725746,
,,,,83.0,11.0,6.0,,,,,,,,,,,,,blau,red,r,0.0,r,1.0,0.8410579999908805,,,,,,,,,,6.0,11.0,83.0,4.0,414.8228074000217,,,,,,,,,,,,,,,,,414.8093122000573,414.9229863999644,415.7238665999612,415.7082251999527,,,,,,,,,,,,,,,,,,,,,,,,,,,,,,,,,,,415.7090191000607,415.7238665999612,415.7238665999612,416.5764072999591,r,1.0,0.8410579999908805,,,,,sub-103,1,stroop_test,60.25199796725746,
,,,,84.0,0.0,7.0,,,,,,,,,,,,,rot,blue,b,0.0,b,1.0,1.0301320999860764,,,,,,,,,,7.0,0.0,84.0,2.0,416.5909745000536,,,,,,,,,,,,,,,,,416.5770603000419,417.7921898999484,418.5946810999885,418.57794200000353,,,,,,,,,,,,,,,,,,,,,,,,,,,,,,,,,,,418.58418909995817,418.5946810999885,418.5946810999885,419.6290964999935,b,1.0,1.0301320999860764,,,,,sub-103,1,stroop_test,60.25199796725746,
,,,,85.0,1.0,7.0,,,,,,,,,,,,,rot,red,r,1.0,r,1.0,0.9916900000534952,,,,,,,,,,7.0,1.0,85.0,0.0,419.64296510000713,,,,,,,,,,,,,,,,,419.6296771999914,419.9934212999651,420.7940333000152,420.7786599999527,,,,,,,,,,,,,,,,,,,,,,,,,,,,,,,,,,,420.77945120004006,420.7940333000152,420.7940333000152,421.79728549998254,r,1.0,0.9916900000534952,,,,,sub-103,1,stroop_test,60.25199796725746,
,,,,86.0,2.0,7.0,,,,,,,,,,,,,blau,blue,b,1.0,b,1.0,0.994676599977538,,,,,,,,,,7.0,2.0,86.0,6.0,421.8112068000482,,,,,,,,,,,,,,,,,421.79792679997627,422.6121494000545,423.4108911999501,423.39652119996026,,,,,,,,,,,,,,,,,,,,,,,,,,,,,,,,,,,423.4020085999509,423.4108911999501,423.4108911999501,424.4141676999861,b,1.0,0.994676599977538,,,,,sub-103,1,stroop_test,60.25199796725746,
,,,,87.0,3.0,7.0,,,,,,,,,,,,,gelb,blue,b,0.0,b,1.0,0.7122179999714717,,,,,,,,,,7.0,3.0,87.0,9.0,424.4287224999862,,,,,,,,,,,,,,,,,424.4147386000259,425.6297655999661,426.432251399965,426.4179055000423,,,,,,,,,,,,,,,,,,,,,,,,,,,,,,,,,,,426.4240222000517,426.432251399965,426.432251399965,427.1502816999564,b,1.0,0.7122179999714717,,,,,sub-103,1,stroop_test,60.25199796725746,
,,,,88.0,4.0,7.0,,,,,,,,,,,,,rot,yellow,g,0.0,g,1.0,1.1806329999817535,,,,,,,,,,7.0,4.0,88.0,3.0,427.16399739997,,,,,,,,,,,,,,,,,427.1508958999766,427.2641292000189,428.0650874000276,428.0493307999568,,,,,,,,,,,,,,,,,,,,,,,,,,,,,,,,,,,428.0560615999857,428.0650874000276,428.0650874000276,429.25227639998775,g,1.0,1.1806329999817535,,,,,sub-103,1,stroop_test,60.25199796725746,
,,,,89.0,5.0,7.0,,,,,,,,,,,,,blau,yellow,g,0.0,g,1.0,0.5565173999639228,,,,,,,,,,7.0,5.0,89.0,7.0,429.2658450000454,,,,,,,,,,,,,,,,,429.2528580999933,430.06651959999,430.868202200043,430.8520539000165,,,,,,,,,,,,,,,,,,,,,,,,,,,,,,,,,,,430.8576163999969,430.868202200043,430.868202200043,431.4357101999922,g,1.0,0.5565173999639228,,,,,sub-103,1,stroop_test,60.25199796725746,
,,,,90.0,6.0,7.0,,,,,,,,,,,,,gelb,red,r,0.0,r,1.0,1.05397200002335,,,,,,,,,,7.0,6.0,90.0,8.0,431.4501612000168,,,,,,,,,,,,,,,,,431.4363076000009,432.25076099997386,433.0509649000596,433.0356581000378,,,,,,,,,,,,,,,,,,,,,,,,,,,,,,,,,,,433.0414634000044,433.0509649000596,433.0509649000596,434.1214564000256,r,1.0,1.05397200002335,,,,,sub-103,1,stroop_test,60.25199796725746,
,,,,91.0,7.0,7.0,,,,,,,,,,,,,rot,red,r,1.0,r,1.0,0.8469512000447139,,,,,,,,,,7.0,7.0,91.0,1.0,434.1357901999727,,,,,,,,,,,,,,,,,434.1220776999835,435.33620520005934,436.1378637000453,436.1217728999909,,,,,,,,,,,,,,,,,,,,,,,,,,,,,,,,,,,436.12781350000296,436.1378637000453,436.1378637000453,436.99025000003166,r,1.0,0.8469512000447139,,,,,sub-103,1,stroop_test,60.25199796725746,
,,,,92.0,8.0,7.0,,,,,,,,,,,,,blau,blue,b,1.0,b,1.0,0.5599555000662804,,,,,,,,,,7.0,8.0,92.0,5.0,437.00439070002176,,,,,,,,,,,,,,,,,436.9908495000564,438.20562669995707,439.00576510000974,438.9902959000319,,,,,,,,,,,,,,,,,,,,,,,,,,,,,,,,,,,438.99542399996426,439.00576510000974,439.00576510000974,439.57654589996673,b,1.0,0.5599555000662804,,,,,sub-103,1,stroop_test,60.25199796725746,
,,,,93.0,9.0,7.0,,,,,,,,,,,,,gelb,yellow,g,1.0,g,1.0,0.4993039999390021,,,,,,,,,,7.0,9.0,93.0,11.0,439.59018179995473,,,,,,,,,,,,,,,,,439.577191599994,439.9402944999747,440.7561210000422,440.7255589000415,,,,,,,,,,,,,,,,,,,,,,,,,,,,,,,,,,,440.7325974999694,440.7561210000422,440.7561210000422,441.2600529999472,g,1.0,0.4993039999390021,,,,,sub-103,1,stroop_test,60.25199796725746,
,,,,94.0,10.0,7.0,,,,,,,,,,,,,blau,red,r,0.0,r,1.0,0.5879437000257894,,,,,,,,,,7.0,10.0,94.0,4.0,441.2746011000127,,,,,,,,,,,,,,,,,441.2606388999848,442.47562990000006,443.2772157000145,443.2613962000469,,,,,,,,,,,,,,,,,,,,,,,,,,,,,,,,,,,443.2668486000039,443.2772157000145,443.2772157000145,443.8782205999596,r,1.0,0.5879437000257894,,,,,sub-103,1,stroop_test,60.25199796725746,
,,,,95.0,11.0,7.0,,,,,,,,,,,,,gelb,yellow,g,1.0,g,1.0,0.6682468000799417,,,,,,,,,,7.0,11.0,95.0,10.0,443.8931297999807,,,,,,,,,,,,,,,,,443.8788014999591,443.9931319999741,444.7961254999973,444.7800386999734,,,,,,,,,,,,,,,,,,,,,,,,,,,,,,,,,,,444.7859687999589,444.7961254999973,444.7961254999973,445.4801173000597,g,1.0,0.6682468000799417,,,,,sub-103,1,stroop_test,60.25199796725746,
,,,,96.0,0.0,8.0,,,,,,,,,,,,,blau,yellow,g,0.0,g,1.0,0.4949629999464378,,,,,,,,,,8.0,0.0,96.0,7.0,445.49410400004126,,,,,,,,,,,,,,,,,445.4807783999713,446.6946711000055,447.5105250000488,447.4948225000408,,,,,,,,,,,,,,,,,,,,,,,,,,,,,,,,,,,447.4981493999949,447.5105250000488,447.5105250000488,448.0121446000412,g,1.0,0.4949629999464378,,,,,sub-103,1,stroop_test,60.25199796725746,
,,,,97.0,1.0,8.0,,,,,,,,,,,,,gelb,red,r,0.0,r,1.0,1.0579023000318557,,,,,,,,,,8.0,1.0,97.0,8.0,448.02726710005663,,,,,,,,,,,,,,,,,448.0124173000222,448.1277565000346,448.9273073000368,448.9122351000551,,,,,,,,,,,,,,,,,,,,,,,,,,,,,,,,,,,448.9152321000584,448.9273073000368,448.9273073000368,449.99782579997554,r,1.0,1.0579023000318557,,,,,sub-103,1,stroop_test,60.25199796725746,
,,,,98.0,2.0,8.0,,,,,,,,,,,,,blau,red,r,0.0,r,1.0,0.651080199982971,,,,,,,,,,8.0,2.0,98.0,4.0,450.0130224999739,,,,,,,,,,,,,,,,,449.9984402999981,450.1127838999964,450.9139405000024,450.89843840000685,,,,,,,,,,,,,,,,,,,,,,,,,,,,,,,,,,,450.9050761000253,450.9139405000024,450.9139405000024,451.5676044999855,r,1.0,0.651080199982971,,,,,sub-103,1,stroop_test,60.25199796725746,
,,,,99.0,3.0,8.0,,,,,,,,,,,,,rot,red,r,1.0,r,1.0,0.4735116000520065,,,,,,,,,,8.0,3.0,99.0,1.0,451.5808857999509,,,,,,,,,,,,,,,,,451.5682223000331,452.3817105999915,453.182019699947,453.16583069995977,,,,,,,,,,,,,,,,,,,,,,,,,,,,,,,,,,,453.17187620000914,453.182019699947,453.182019699947,453.6681228999514,r,1.0,0.4735116000520065,,,,,sub-103,1,stroop_test,60.25199796725746,
,,,,100.0,4.0,8.0,,,,,,,,,,,,,gelb,blue,b,0.0,b,1.0,0.6116408000234514,,,,,,,,,,8.0,4.0,100.0,9.0,453.68347070005257,,,,,,,,,,,,,,,,,453.6687340999488,454.8835715999594,455.68347229994833,455.66817560000345,,,,,,,,,,,,,,,,,,,,,,,,,,,,,,,,,,,455.674230900011,455.68347229994833,455.68347229994833,456.30292030004784,b,1.0,0.6116408000234514,,,,,sub-103,1,stroop_test,60.25199796725746,
,,,,101.0,5.0,8.0,,,,,,,,,,,,,rot,yellow,g,0.0,g,1.0,0.5638501000357792,,,,,,,,,,8.0,5.0,101.0,3.0,456.31742079998367,,,,,,,,,,,,,,,,,456.3035677999724,457.1181737000588,457.92101489997,457.9039083999815,,,,,,,,,,,,,,,,,,,,,,,,,,,,,,,,,,,457.9103669000324,457.92101489997,457.92101489997,458.4889287999831,g,1.0,0.5638501000357792,,,,,sub-103,1,stroop_test,60.25199796725746,
,,,,102.0,6.0,8.0,,,,,,,,,,,,,blau,blue,b,1.0,b,1.0,0.6204999000765383,,,,,,,,,,8.0,6.0,102.0,6.0,458.5027750000591,,,,,,,,,,,,,,,,,458.489542700001,459.7038332000375,460.50571950001176,460.48916230001487,,,,,,,,,,,,,,,,,,,,,,,,,,,,,,,,,,,460.4948112999555,460.50571950001176,460.50571950001176,461.1409140999895,b,1.0,0.6204999000765383,,,,,sub-103,1,stroop_test,60.25199796725746,
,,,,103.0,7.0,8.0,,,,,,,,,,,,,blau,blue,b,1.0,b,1.0,0.7295067000668496,,,,,,,,,,8.0,7.0,103.0,5.0,461.15494230005424,,,,,,,,,,,,,,,,,461.1414947999874,461.5051182999741,462.3058370000217,462.2902185999556,,,,,,,,,,,,,,,,,,,,,,,,,,,,,,,,,,,462.2910542000318,462.3058370000217,462.3058370000217,463.04164579999633,b,1.0,0.7295067000668496,,,,,sub-103,1,stroop_test,60.25199796725746,
,,,,104.0,8.0,8.0,,,,,,,,,,,,,rot,blue,b,0.0,b,1.0,0.553386399988085,,,,,,,,,,8.0,8.0,104.0,2.0,463.05627209995873,,,,,,,,,,,,,,,,,463.0422105999896,463.8568790999707,464.67252759996336,464.6419330999488,,,,,,,,,,,,,,,,,,,,,,,,,,,,,,,,,,,464.64902030001394,464.67252759996336,464.67252759996336,465.2429282000521,b,1.0,0.553386399988085,,,,,sub-103,1,stroop_test,60.25199796725746,
,,,,105.0,9.0,8.0,,,,,,,,,,,,,gelb,yellow,g,1.0,g,1.0,0.5348715999862179,,,,,,,,,,8.0,9.0,105.0,11.0,465.25742689997423,,,,,,,,,,,,,,,,,465.2435488000047,465.60806730005424,466.410663299961,466.3942326999968,,,,,,,,,,,,,,,,,,,,,,,,,,,,,,,,,,,466.4004390999908,466.410663299961,466.410663299961,466.9621298999991,g,1.0,0.5348715999862179,,,,,sub-103,1,stroop_test,60.25199796725746,
,,,,106.0,10.0,8.0,,,,,,,,,,,,,gelb,yellow,g,1.0,g,1.0,0.5587176000699401,,,,,,,,,,8.0,10.0,106.0,10.0,466.97564540000167,,,,,,,,,,,,,,,,,466.9627114000032,467.0757148000412,467.87612659996375,467.8604651000351,,,,,,,,,,,,,,,,,,,,,,,,,,,,,,,,,,,467.8613839000464,467.87612659996375,467.87612659996375,468.4454209000105,g,1.0,0.5587176000699401,,,,,sub-103,1,stroop_test,60.25199796725746,
,,,,107.0,11.0,8.0,,,,,,,,,,,,,rot,red,r,1.0,r,1.0,0.4604720999486744,,,,,,,,,,8.0,11.0,107.0,0.0,468.4598076000111,,,,,,,,,,,,,,,,,468.446037900052,469.24511230003554,470.0456251000287,470.02887369995005,,,,,,,,,,,,,,,,,,,,,,,,,,,,,,,,,,,470.0357617000118,470.0456251000287,470.0456251000287,470.513479599962,r,1.0,0.4604720999486744,,,,,sub-103,1,stroop_test,60.25199796725746,
,,,,108.0,0.0,9.0,,,,,,,,,,,,,gelb,yellow,g,1.0,g,1.0,0.4962551000062376,,,,,,,,,,9.0,0.0,108.0,10.0,470.5279709000606,,,,,,,,,,,,,,,,,470.5141043999465,470.87847560003866,471.6804675000021,471.6633030000376,,,,,,,,,,,,,,,,,,,,,,,,,,,,,,,,,,,471.6694840999553,471.6804675000021,471.6804675000021,472.1833085999824,g,1.0,0.4962551000062376,,,,,sub-103,1,stroop_test,60.25199796725746,
,,,,109.0,1.0,9.0,,,,,,,,,,,,,gelb,blue,b,0.0,b,1.0,0.8099238000577316,,,,,,,,,,9.0,1.0,109.0,9.0,472.196133099962,,,,,,,,,,,,,,,,,472.1838927000063,472.2958091000328,473.0964899000246,473.0810110999737,,,,,,,,,,,,,,,,,,,,,,,,,,,,,,,,,,,473.0817949000048,473.0964899000246,473.0964899000246,473.9156343999784,b,1.0,0.8099238000577316,,,,,sub-103,1,stroop_test,60.25199796725746,
,,,,110.0,2.0,9.0,,,,,,,,,,,,,rot,red,r,1.0,r,1.0,0.5443122000433505,,,,,,,,,,9.0,2.0,110.0,0.0,473.9316344000399,,,,,,,,,,,,,,,,,473.9162461999804,474.2802985999733,475.0824155999581,475.0654791999841,,,,,,,,,,,,,,,,,,,,,,,,,,,,,,,,,,,475.0730387000367,475.0824155999581,475.0824155999581,475.6342378000263,r,1.0,0.5443122000433505,,,,,sub-103,1,stroop_test,60.25199796725746,
,,,,111.0,3.0,9.0,,,,,,,,,,,,,blau,blue,b,1.0,b,1.0,0.6360409000189975,,,,,,,,,,9.0,3.0,111.0,6.0,475.6479672000278,,,,,,,,,,,,,,,,,475.63481730001513,475.7482075999724,476.5501508000307,476.5336334999884,,,,,,,,,,,,,,,,,,,,,,,,,,,,,,,,,,,476.5391482999548,476.5501508000307,476.5501508000307,477.2021975000389,b,1.0,0.6360409000189975,,,,,sub-103,1,stroop_test,60.25199796725746,
,,,,112.0,4.0,9.0,,,,,,,,,,,,,rot,red,r,1.0,r,1.0,0.5873938000295311,,,,,,,,,,9.0,4.0,112.0,1.0,477.2156434999779,,,,,,,,,,,,,,,,,477.2027917000232,477.3158575999551,478.1181390000274,478.1009819000028,,,,,,,,,,,,,,,,,,,,,,,,,,,,,,,,,,,478.1073241999839,478.1181390000274,478.1181390000274,478.7188188000582,r,1.0,0.5873938000295311,,,,,sub-103,1,stroop_test,60.25199796725746,
,,,,113.0,5.0,9.0,,,,,,,,,,,,,blau,red,r,0.0,r,1.0,0.609008300001733,,,,,,,,,,9.0,5.0,113.0,4.0,478.7334846999729,,,,,,,,,,,,,,,,,478.7194525999949,478.83369450003374,479.6362900000531,479.6199765000492,,,,,,,,,,,,,,,,,,,,,,,,,,,,,,,,,,,479.6260287000332,479.6362900000531,479.6362900000531,480.2530004000291,r,1.0,0.609008300001733,,,,,sub-103,1,stroop_test,60.25199796725746,
,,,,114.0,6.0,9.0,,,,,,,,,,,,,rot,blue,b,0.0,b,1.0,0.6216959999874234,,,,,,,,,,9.0,6.0,114.0,2.0,480.2680205999641,,,,,,,,,,,,,,,,,480.25359720003325,480.60200820001774,481.4038182999939,481.3865229999647,,,,,,,,,,,,,,,,,,,,,,,,,,,,,,,,,,,481.3924127999926,481.4038182999939,481.4038182999939,482.03807590005454,b,1.0,0.6216959999874234,,,,,sub-103,1,stroop_test,60.25199796725746,
,,,,115.0,7.0,9.0,,,,,,,,,,,,,gelb,red,r,0.0,r,1.0,0.5412941999966279,,,,,,,,,,9.0,7.0,115.0,8.0,482.0524967999663,,,,,,,,,,,,,,,,,482.0386534000281,482.4027103000553,483.2047601999948,483.18814149999525,,,,,,,,,,,,,,,,,,,,,,,,,,,,,,,,,,,483.19594440003857,483.2047601999948,483.2047601999948,483.7563002000097,r,1.0,0.5412941999966279,,,,,sub-103,1,stroop_test,60.25199796725746,
,,,,116.0,8.0,9.0,,,,,,,,,,,,,rot,yellow,g,0.0,g,1.0,0.5531757998978719,,,,,,,,,,9.0,8.0,116.0,3.0,483.7706057999749,,,,,,,,,,,,,,,,,483.7568924999796,484.12060819996987,484.92302650003694,484.90538979996927,,,,,,,,,,,,,,,,,,,,,,,,,,,,,,,,,,,484.9115331999492,484.92302650003694,484.92302650003694,485.4905071000103,g,1.0,0.5531757998978719,,,,,sub-103,1,stroop_test,60.25199796725746,
,,,,117.0,9.0,9.0,,,,,,,,,,,,,blau,blue,b,1.0,b,1.0,0.4800947000039741,,,,,,,,,,9.0,9.0,117.0,5.0,485.5049335999647,,,,,,,,,,,,,,,,,485.4911647000117,485.6045357000549,486.4056622999488,486.3899450000608,,,,,,,,,,,,,,,,,,,,,,,,,,,,,,,,,,,486.3951046000002,486.4056622999488,486.4056622999488,486.89159819995984,b,1.0,0.4800947000039741,,,,,sub-103,1,stroop_test,60.25199796725746,
,,,,118.0,10.0,9.0,,,,,,,,,,,,,gelb,yellow,g,1.0,g,1.0,0.5465102000162005,,,,,,,,,,9.0,10.0,118.0,11.0,486.905498099979,,,,,,,,,,,,,,,,,486.89230609999504,487.0059021000052,487.809109200025,487.7909797000466,,,,,,,,,,,,,,,,,,,,,,,,,,,,,,,,,,,487.797609900008,487.809109200025,487.809109200025,488.359656500048,g,1.0,0.5465102000162005,,,,,sub-103,1,stroop_test,60.25199796725746,
,,,,119.0,11.0,9.0,,,,,,,,,,,,,blau,yellow,g,0.0,b,0.0,0.7919997000135481,,,,,,,,,,9.0,11.0,119.0,7.0,488.3735643000109,,,,,,,,,,,,,,,,,488.3602508000331,488.7238806999521,489.52451520005707,489.5085083000595,,,,,,,,,,,,,,,,,,,,,,,,,,,,,,,,,,,489.5135068000527,489.52451520005707,489.52451520005707,490.32701849995647,b,0.0,0.7919997000135481,,,,,sub-103,1,stroop_test,60.25199796725746,
,,,,,,,,,,,,,,,,,,,,,,,,,,,,,,,,,,,,,,,,,,,,,,,,,,,,,,,,,,,,,,,,,,,,,,,,,,,,,,,,,,,,,,,,,,,,,,,,,,,,,,490.3273344000336,490.3415572999511,495.3288237999659,sub-103,1,stroop_test,60.25199796725746,
