direction,corrAns,randomInstr,practice_trials.thisRepN,practice_trials.thisTrialN,practice_trials.thisN,practice_trials.thisIndex,instr_trials.thisRepN,instr_trials.thisTrialN,instr_trials.thisN,instr_trials.thisIndex,test_trials.thisRepN,test_trials.thisTrialN,test_trials.thisN,test_trials.thisIndex,thisRow.t,notes,general_instruction.started,textGeneralInstr.started,respGeneralInstr.started,general_instruction.stopped,respGeneralInstr.keys,respGeneralInstr.rt,respGeneralInstr.duration,ITI.started,fixcross.started,fixcross.stopped,ITI.stopped,dots.started,backgroundDots.started,stimulusDots.started,respDots.started,stimulusDots.stopped,dots.stopped,respDots.keys,respDots.corr,respDots.rt,respDots.duration,feedback.started,textFeedback.started,feedback.stopped,textFeedback.stopped,info.started,textInfo.started,keyRespInfo.started,info.stopped,keyRespInfo.keys,keyRespInfo.rt,keyRespInfo.duration,test_instruction.started,textTestInstr.started,respTestInstr.started,test_instruction.stopped,respTestInstr.keys,respTestInstr.rt,respTestInstr.duration,random_instruction.started,textRandomInstr.started,respRandomInstr.started,random_instruction.stopped,respRandomInstr.keys,respRandomInstr.rt,respRandomInstr.duration,goodbye.started,textGoodbye.started,goodbye.stopped,participant,session,expName,frameRate,Unnamed: 73
,,,,,,,,,,,,,,,,,0.0366127000015694,0.0420587000116938,0.0420587000116938,29.04886150000675,space,43.593371799986926,,,,,,,,,,,,,,,,,,,,,,,,,,,,,,,,,,,,,,,,,,,,sub-179,1.0,random_dot,59.97692087966552,
left,left,,0.0,0.0,0.0,0.0,,,,,,,,,29.075276800009306,,,,,,,,,29.068399700001464,29.412517900011157,30.223685500008287,30.197758000009344,30.197794600011548,30.223685500008287,30.223685500008287,30.223685500008287,35.201576800012845,76.03803790001257,left,1.0,60.39258800000243,,76.0412878000061,76.07778110000072,76.55194880001363,,,,,,,,,,,,,,,,,,,,,,,,,,sub-179,1.0,random_dot,59.97692087966552,
right,right,,0.0,1.0,1.0,1.0,,,,,,,,,76.56829450000077,,,,,,,,,76.55272000000696,76.90193630001158,77.70348390001163,77.68725890001224,77.68729790000361,77.70348390001163,77.70348390001163,77.70348390001163,82.690769000008,83.34635590000835,right,1.0,20.221929599996656,,83.3471556000004,83.35717870001099,83.84192550000444,83.85751830000663,,,,,,,,,,,,,,,,,,,,,,,,,sub-179,1.0,random_dot,59.97692087966552,
left,left,,1.0,0.0,2.0,0.0,,,,,,,,,83.85751830000663,,,,,,,,,83.84254300000612,83.9577641000069,84.75931290000153,84.74309390000417,84.7431307000079,84.75931290000153,84.75931290000153,84.75931290000153,,86.94637980000698,right,0.0,16.772785799985286,,86.9471598000091,86.96383630001219,87.46092800000042,,,,,,,,,,,,,,,,,,,,,,,,,,sub-179,1.0,random_dot,59.97692087966552,
right,right,,1.0,1.0,3.0,1.0,,,,,,,,,87.47737420001067,,,,,,,,,87.46184570000332,87.81098100000236,88.61249750001298,88.5961052000057,88.59614480000164,88.61249750001298,88.61249750001298,88.61249750001298,,92.96826640001382,right,1.0,18.933063599994057,,92.96914640000614,92.98180820001288,93.466906200003,93.48227240001142,,,,,,,,,,,,,,,,,,,,,,,,,sub-179,1.0,random_dot,59.97692087966552,
left,left,,2.0,0.0,4.0,0.0,,,,,,,,,93.48227240001142,,,,,,,,,93.46757210000942,94.68344120000256,95.4849208000087,95.46854450000684,95.46858090000752,95.4849208000087,95.4849208000087,95.4849208000087,,99.29017570000724,left,1.0,18.38347269999213,,99.29102090001106,99.30365070000698,99.78870150000148,99.80422630000976,,,,,,,,,,,,,,,,,,,,,,,,,sub-179,1.0,random_dot,59.97692087966552,
right,right,,2.0,1.0,5.0,1.0,,,,,,,,,99.80422630000976,,,,,,,,,99.78938300001028,100.60504450000008,101.40630349999992,101.38973670000269,101.389774700001,101.40630349999992,101.40630349999992,101.40630349999992,,104.0272624000063,right,1.0,17.193245699992985,,104.02812750000156,104.04104830000142,104.52625590001117,104.54138140000578,,,,,,,,,,,,,,,,,,,,,,,,,sub-179,1.0,random_dot,59.97692087966552,
left,left,,3.0,0.0,6.0,0.0,,,,,,,,,104.54138140000578,,,,,,,,,104.52693410000938,105.74250190000748,106.54393189999972,106.52752840000905,106.52758150000592,106.54393189999972,106.54393189999972,106.54393189999972,,107.99748780000664,left,1.0,16.038067200002843,,107.99839520000388,108.01116100000218,108.4959988000046,108.51131500001064,,,,,,,,,,,,,,,,,,,,,,,,,sub-179,1.0,random_dot,59.97692087966552,
right,right,,3.0,1.0,7.0,1.0,,,,,,,,,108.51131500001064,,,,,,,,,108.49659740000789,109.71234370001184,110.51430610001262,110.49755980000192,110.4975967000064,110.51430610001262,110.51430610001262,110.51430610001262,,111.2998066,right,1.0,15.369831699994393,,111.30062880000332,111.31375360001402,111.79852340000798,111.81402220000746,,,,,,,,,,,,,,,,,,,,,,,,,sub-179,1.0,random_dot,59.97692087966552,
right,right,,4.0,0.0,8.0,1.0,,,,,,,,,111.81402220000746,,,,,,,,,111.79912250000052,111.9142273000034,112.71554670001206,112.69959680001192,112.6996463000105,112.71554670001206,112.71554670001206,112.71554670001206,,113.68539180001244,right,1.0,15.545312000002014,,113.6862136000127,113.69907740000052,114.18395370000508,114.19932660000632,,,,,,,,,,,,,,,,,,,,,,,,,sub-179,1.0,random_dot,59.97692087966552,
left,left,,4.0,1.0,9.0,0.0,,,,,,,,,114.19932660000632,,,,,,,,,114.1845561000082,115.40066260000458,116.20209460001206,116.18565290000696,116.18568990001222,116.20209460001206,116.20209460001206,116.20209460001206,,117.3216323000088,left,1.0,15.698459000006553,,117.3224884000083,117.33530790000805,117.820117700001,117.83580210000218,,,,,,,,,,,,,,,,,,,,,,,,,sub-179,1.0,random_dot,59.97692087966552,
left,left,,5.0,0.0,10.0,0.0,,,,,,,,,117.83580210000218,,,,,,,,,117.82075560001248,117.9359051000065,118.73751980000816,118.72104160000164,118.72107940001295,118.73751980000816,118.73751980000816,118.73751980000816,,119.57382470001176,left,1.0,15.409515399995144,,119.57464060001077,119.58728190000691,120.07211110000208,120.08760400000028,,,,,,,,,,,,,,,,,,,,,,,,,sub-179,1.0,random_dot,59.97692087966552,
right,right,,5.0,1.0,11.0,1.0,,,,,,,,,120.08760400000028,,,,,,,,,120.07276740000816,120.18775540000934,120.98945230001118,120.97291570001109,120.97295320000558,120.98945230001118,120.98945230001118,120.98945230001118,,121.80836180000917,right,1.0,15.394219800000428,,121.80962640000509,121.8222087000031,122.3073427000054,122.32288620001054,,,,,,,,,,,,,,,,,,,,,,,,,sub-179,1.0,random_dot,59.97692087966552,
left,left,,6.0,0.0,12.0,0.0,,,,,,,,,122.32288620001054,,,,,,,,,122.30799250000564,123.5239974000142,124.32541970000602,124.30893700000888,124.30897460000416,124.32541970000602,124.32541970000602,124.32541970000602,,124.944590900006,left,1.0,15.199292599994806,,124.94540140000754,124.95858380000573,125.44321970001327,125.45875170000365,,,,,,,,,,,,,,,,,,,,,,,,,sub-179,1.0,random_dot,59.97692087966552,
right,right,,6.0,1.0,13.0,1.0,,,,,,,,,125.45875170000365,,,,,,,,,125.44385450000118,125.80919500000893,126.6107183000131,126.5942883000098,126.594324900012,126.6107183000131,126.6107183000131,126.6107183000131,,127.2632666000136,right,1.0,15.23271989999921,,127.26407190000464,127.27684850001242,127.76194550000946,127.77728390000992,,,,,,,,,,,,,,,,,,,,,,,,,sub-179,1.0,random_dot,59.97692087966552,
right,right,,7.0,0.0,14.0,1.0,,,,,,,,,127.77728390000992,,,,,,,,,127.76263410001413,128.12766550001106,128.9292473000096,128.91260239999974,128.9126369000005,128.9292473000096,128.9292473000096,128.9292473000096,,129.66528910001216,right,1.0,15.30868269999337,,129.6661771000072,129.67890570001327,130.16408760000195,130.1792901000008,,,,,,,,,,,,,,,,,,,,,,,,,sub-179,1.0,random_dot,59.97692087966552,
left,left,,7.0,1.0,15.0,0.0,,,,,,,,,130.1792901000008,,,,,,,,,130.1646851000114,130.97978800001147,131.78125280000677,131.76535090000834,131.7653883000021,131.78125280000677,131.78125280000677,131.78125280000677,,132.5013917000033,left,1.0,15.29320960000041,,132.50223800000094,132.51481780000904,132.99959820001095,133.01512060000096,,,,,,,,,,,,,,,,,,,,,,,,,sub-179,1.0,random_dot,59.97692087966552,
right,right,,8.0,0.0,16.0,1.0,,,,,,,,,133.01512060000096,,,,,,,,,133.00025980001374,133.3654428000009,134.16716040000028,134.15039820001402,134.15043340000557,134.16716040000028,134.16716040000028,134.16716040000028,,134.83631700000842,right,1.0,15.249203199986368,,134.8376025000034,134.84988760000851,135.33481570000004,135.35022600000957,,,,,,,,,,,,,,,,,,,,,,,,,sub-179,1.0,random_dot,59.97692087966552,
left,left,,8.0,1.0,17.0,0.0,,,,,,,,,135.35022600000957,,,,,,,,,135.3354401000106,136.1509933000052,136.9525594000006,136.93597050000972,136.93600810000498,136.9525594000006,136.9525594000006,136.9525594000006,,137.75572890001058,right,0.0,15.388987300000736,,137.7565559000068,137.76863290001347,138.2539037000097,138.2694016000023,,,,,,,,,,,,,,,,,,,,,,,,,sub-179,1.0,random_dot,59.97692087966552,
left,left,,9.0,0.0,18.0,0.0,,,,,,,,,138.2694016000023,,,,,,,,,138.25464140000986,138.6195938000019,139.42119760000787,139.4046958000108,139.40473420001217,139.42119760000787,139.42119760000787,139.42119760000787,,142.72605640000256,left,1.0,17.889731399991433,,142.72698430001037,142.7395979000139,143.22464200000104,143.24010850000195,,,,,,,,,,,,,,,,,,,,,,,,,sub-179,1.0,random_dot,59.97692087966552,
right,right,,9.0,1.0,19.0,1.0,,,,,,,,,143.24010850000195,,,,,,,,,143.2253614000074,143.59049340001366,144.39205290000243,144.37568110000575,144.3757203000132,144.39205290000243,144.39205290000243,144.39205290000243,,146.5626437000028,right,1.0,16.746958299991093,,146.56343900000502,146.5762373000034,147.0612938000122,147.0766941000038,,,,,,,,,,,,,,,,,,,,,,,,,sub-179,1.0,random_dot,59.97692087966552,
,,,,,,,,,,,,,,,,,,,,,,,,,,,,,,,,,,,,,,,,,,147.06139440000698,147.0766941000038,147.0766941000038,164.12614170000597,space,31.622122499989928,,,,,,,,,,,,,,,,,,,sub-179,1.0,random_dot,59.97692087966552,
,,,,,,,,,,,,,,,,,,,,,,,,,,,,,,,,,,,,,,,,,,,,,,,,,164.12620110000717,164.14129300000786,164.14129300000786,182.59250870000687,space,33.03694550000364,,,,,,,,,,,,sub-179,1.0,random_dot,59.97692087966552,
left,left,speed,,,,,0.0,0.0,0.0,1.0,0.0,0.0,0.0,0.0,186.46083550000915,,,,,,,,,186.45646740001396,186.5593927000009,187.3612576000014,187.3445897000056,187.3446292000008,187.3612576000014,187.3612576000014,187.3612576000014,,188.380479200001,left,1.0,15.594817299992428,,,,,,,,,,,,,,,,,,,,182.59972740001103,182.64235580000968,182.64235580000968,186.44472640000455,space,18.389844199991785,,,,,sub-179,1.0,random_dot,59.97692087966552,
right,right,speed,,,,,0.0,0.0,0.0,1.0,0.0,1.0,1.0,1.0,188.39408710000865,,,,,,,,,188.38266860001025,189.5953225000121,190.39679060000344,190.38029310001,190.3803316000121,190.39679060000344,190.39679060000344,190.39679060000344,,191.23290120001184,right,1.0,15.415953899981105,,,,,,,,,,,,,,,,,,,,,,,,,,,,,,sub-179,1.0,random_dot,59.97692087966552,
left,left,speed,,,,,0.0,0.0,0.0,1.0,1.0,0.0,2.0,0.0,191.24653060000853,,,,,,,,,191.23460760001035,191.59702550001384,192.3984533000039,192.3822904000117,192.3823345000128,192.3984533000039,192.3984533000039,192.3984533000039,,193.10105170001043,left,1.0,15.280031999995115,,,,,,,,,,,,,,,,,,,,,,,,,,,,,,sub-179,1.0,random_dot,59.97692087966552,
right,right,speed,,,,,0.0,0.0,0.0,1.0,1.0,1.0,3.0,1.0,193.11496770000667,,,,,,,,,193.1027313000086,193.21499400000903,194.0165102000028,194.00012000001152,194.0001560000092,194.0165102000028,194.0165102000028,194.0165102000028,,194.6024632000044,right,1.0,15.163737299997592,,,,,,,,,,,,,,,,,,,,,,,,,,,,,,sub-179,1.0,random_dot,59.97692087966552,
right,right,speed,,,,,0.0,0.0,0.0,1.0,2.0,0.0,4.0,1.0,194.61602160001348,,,,,,,,,194.60406900000817,195.81716490001415,196.61876740001023,196.60224750000637,196.60228470001312,196.61876740001023,196.61876740001023,196.61876740001023,,197.9221453000064,right,1.0,15.881362199987052,,,,,,,,,,,,,,,,,,,,,,,,,,,,,,sub-179,1.0,random_dot,59.97692087966552,
left,left,speed,,,,,0.0,0.0,0.0,1.0,2.0,1.0,5.0,0.0,197.93519450000892,,,,,,,,,197.9237660000072,199.1365012000024,199.93820899999992,199.9216621000087,199.92169980000472,199.93820899999992,199.93820899999992,199.93820899999992,,200.52457430001232,left,1.0,15.166688099998282,,,,,,,,,,,,,,,,,,,,,,,,,,,,,,sub-179,1.0,random_dot,59.97692087966552,
right,right,speed,,,,,0.0,0.0,0.0,1.0,3.0,0.0,6.0,1.0,200.53822980000405,,,,,,,,,200.5263799000095,200.6376825000043,201.43955280000228,201.4231596000027,201.4231967000087,201.43955280000228,201.43955280000228,201.43955280000228,,202.125305700014,right,1.0,15.273049499999615,,,,,,,,,,,,,,,,,,,,,,,,,,,,,,sub-179,1.0,random_dot,59.97692087966552,
left,left,speed,,,,,0.0,0.0,0.0,1.0,3.0,1.0,7.0,0.0,202.13899560000573,,,,,,,,,202.12701800001375,202.2391573000059,203.0407123000041,203.02431900000371,203.02435270001297,203.0407123000041,203.0407123000041,203.0407123000041,,203.72665480000435,left,1.0,15.26149570000416,,,,,,,,,,,,,,,,,,,,,,,,,,,,,,sub-179,1.0,random_dot,59.97692087966552,
right,right,speed,,,,,0.0,0.0,0.0,1.0,4.0,0.0,8.0,1.0,203.74015590001363,,,,,,,,,203.7285022000142,203.84021930000745,204.64193150000935,204.6256944000052,204.6257315000112,204.64193150000935,204.64193150000935,204.64193150000935,,205.27835540000524,right,1.0,15.218201099996804,,,,,,,,,,,,,,,,,,,,,,,,,,,,,,sub-179,1.0,random_dot,59.97692087966552,
left,left,speed,,,,,0.0,0.0,0.0,1.0,4.0,1.0,9.0,0.0,205.29153770000264,,,,,,,,,205.2799675000133,205.3915615000005,206.1933243000094,206.17675540001076,206.1767921000137,206.1933243000094,206.1933243000094,206.1933243000094,,206.8792506000027,left,1.0,15.267816599982323,,,,,,,,,,,,,,,,,,,,,,,,,,,,,,sub-179,1.0,random_dot,59.97692087966552,
right,right,speed,,,,,0.0,0.0,0.0,1.0,5.0,0.0,10.0,1.0,206.89281770000525,,,,,,,,,206.8808832000068,206.99301350000317,207.79466410000168,207.77812330001325,207.7781692999997,207.79466410000168,207.79466410000168,207.79466410000168,,208.3810000000085,right,1.0,15.17140519998793,,,,,,,,,,,,,,,,,,,,,,,,,,,,,,sub-179,1.0,random_dot,59.97692087966552,
left,left,speed,,,,,0.0,0.0,0.0,1.0,5.0,1.0,11.0,0.0,208.39413810000408,,,,,,,,,208.3827256000077,208.7448715000064,209.5458789000113,209.5293786000111,209.5294198000047,209.5458789000113,209.5458789000113,209.5458789000113,,210.33190070001,left,1.0,15.370133799995529,,,,,,,,,,,,,,,,,,,,,,,,,,,,,,sub-179,1.0,random_dot,59.97692087966552,
right,right,speed,,,,,0.0,0.0,0.0,1.0,6.0,0.0,12.0,1.0,210.3458071000059,,,,,,,,,210.3335766000091,211.5467454000027,212.34847930000976,212.3319948999997,212.33202850000816,212.34847930000976,212.34847930000976,212.34847930000976,,212.8508831000072,right,1.0,15.084568299993409,,,,,,,,,,,,,,,,,,,,,,,,,,,,,,sub-179,1.0,random_dot,59.97692087966552,
left,left,speed,,,,,0.0,0.0,0.0,1.0,6.0,1.0,13.0,0.0,212.8644135000068,,,,,,,,,212.8524894000002,214.0655187000084,214.8671933000005,214.8505637000053,214.85060140000127,214.8671933000005,214.8671933000005,214.8671933000005,,215.48650090000592,left,1.0,15.200434099984705,,,,,,,,,,,,,,,,,,,,,,,,,,,,,,sub-179,1.0,random_dot,59.97692087966552,
left,left,speed,,,,,0.0,0.0,0.0,1.0,7.0,0.0,14.0,0.0,215.50002790000872,,,,,,,,,215.4882057000068,216.7009628000087,217.50255400000609,217.4862412000075,217.4862779000105,217.50255400000609,217.50255400000609,217.50255400000609,,218.63898030000564,left,1.0,15.710011399991345,,,,,,,,,,,,,,,,,,,,,,,,,,,,,,sub-179,1.0,random_dot,59.97692087966552,
right,right,speed,,,,,0.0,0.0,0.0,1.0,7.0,1.0,15.0,1.0,218.65246120000663,,,,,,,,,218.64063900000477,219.45345890001045,220.25478570000269,220.23863450001227,220.2386710000137,220.25478570000269,220.25478570000269,220.25478570000269,,220.8573564000108,right,1.0,15.175626099982765,,,,,,,,,,,,,,,,,,,,,,,,,,,,,,sub-179,1.0,random_dot,59.97692087966552,
left,left,speed,,,,,0.0,0.0,0.0,1.0,8.0,0.0,16.0,0.0,220.8711197000084,,,,,,,,,220.85894820000976,221.6719355000096,222.4735672000097,222.4570331000141,222.4570856000064,222.4735672000097,222.4735672000097,222.4735672000097,,223.07654940000796,left,1.0,15.19047989998944,,,,,,,,,,,,,,,,,,,,,,,,,,,,,,sub-179,1.0,random_dot,59.97692087966552,
right,right,speed,,,,,0.0,0.0,0.0,1.0,8.0,1.0,17.0,1.0,223.08964650001144,,,,,,,,,223.07818020001287,223.18971630001036,223.9915206000005,223.9748771000013,223.9749140000058,223.9915206000005,223.9915206000005,223.9915206000005,,224.944195300006,right,1.0,15.530495199986037,,,,,,,,,,,,,,,,,,,,,,,,,,,,,,sub-179,1.0,random_dot,59.97692087966552,
left,left,speed,,,,,0.0,0.0,0.0,1.0,9.0,0.0,18.0,0.0,224.95801890001167,,,,,,,,,224.94571860000724,225.05788660001417,225.85958190000383,225.8430309000105,225.84306850000576,225.85958190000383,225.85958190000383,225.85958190000383,,226.6290549000114,left,1.0,15.351801199984038,,,,,,,,,,,,,,,,,,,,,,,,,,,,,,sub-179,1.0,random_dot,59.97692087966552,
right,right,speed,,,,,0.0,0.0,0.0,1.0,9.0,1.0,19.0,1.0,226.64269090000016,,,,,,,,,226.6306665000011,227.44326560001355,228.2450877000083,228.22868580000068,228.22872250000364,228.2450877000083,228.2450877000083,228.2450877000083,,229.18108260000008,right,1.0,15.5188353999838,,,,,,,,,,,,,,,,,,,,,,,,,,,,,,sub-179,1.0,random_dot,59.97692087966552,
right,right,speed,,,,,0.0,0.0,0.0,1.0,10.0,0.0,20.0,1.0,229.19457740000507,,,,,,,,,229.18275530000392,229.29469430001336,230.09632530000815,230.0800356000109,230.08007110000472,230.09632530000815,230.09632530000815,230.09632530000815,,230.9824657000136,right,1.0,15.468423399986932,,,,,,,,,,,,,,,,,,,,,,,,,,,,,,sub-179,1.0,random_dot,59.97692087966552,
left,left,speed,,,,,0.0,0.0,0.0,1.0,10.0,1.0,21.0,0.0,230.99637270001404,,,,,,,,,230.984386000011,232.19714590000515,232.9989801000047,232.98247950000223,232.9825410000049,232.9989801000047,232.9989801000047,232.9989801000047,,233.65143310000715,left,1.0,15.237070999995922,,,,,,,,,,,,,,,,,,,,,,,,,,,,,,sub-179,1.0,random_dot,59.97692087966552,
left,left,speed,,,,,0.0,0.0,0.0,1.0,11.0,0.0,22.0,0.0,233.66509020001104,,,,,,,,,233.6530846000096,233.76556710001023,234.56683670000348,234.55039800000668,234.5504365000088,234.56683670000348,234.56683670000348,234.56683670000348,,236.7542138999997,left,1.0,16.76318439998431,,,,,,,,,,,,,,,,,,,,,,,,,,,,,,sub-179,1.0,random_dot,59.97692087966552,
right,right,speed,,,,,0.0,0.0,0.0,1.0,11.0,1.0,23.0,1.0,236.7675133000012,,,,,,,,,236.7559409000096,236.86864070000595,237.66942920000287,237.6528510000062,237.6528907000029,237.66942920000287,237.66942920000287,237.66942920000287,,238.3221091000014,right,1.0,15.23516510000627,,,,,,,,,,,,,,,,,,,,,,,,,,,,,,sub-179,1.0,random_dot,59.97692087966552,
right,right,speed,,,,,0.0,0.0,0.0,1.0,12.0,0.0,24.0,1.0,238.33571250000384,,,,,,,,,238.32380620000183,239.5366592000064,240.3381197000126,240.3219158000138,240.3219517000107,240.3381197000126,240.3381197000126,240.3381197000126,,241.27440740000748,right,1.0,15.510253200001898,,,,,,,,,,,,,,,,,,,,,,,,,,,,,,sub-179,1.0,random_dot,59.97692087966552,
left,left,speed,,,,,0.0,0.0,0.0,1.0,12.0,1.0,25.0,0.0,241.28813230000375,,,,,,,,,241.27602650001063,242.08873070000843,242.89040970000497,242.8739624000009,242.8739950000017,242.89040970000497,242.89040970000497,242.89040970000497,,243.75995960000728,left,1.0,15.445777499990072,,,,,,,,,,,,,,,,,,,,,,,,,,,,,,sub-179,1.0,random_dot,59.97692087966552,
right,right,speed,,,,,0.0,0.0,0.0,1.0,13.0,0.0,26.0,1.0,243.77336350000405,,,,,,,,,243.7616080000007,244.57398630000532,245.37566000000515,245.3593379000085,245.3593768000137,245.37566000000515,245.37566000000515,245.37566000000515,,245.96174920001067,right,1.0,15.169658900005745,,,,,,,,,,,,,,,,,,,,,,,,,,,,,,sub-179,1.0,random_dot,59.97692087966552,
left,left,speed,,,,,0.0,0.0,0.0,1.0,13.0,1.0,27.0,0.0,245.97533790000307,,,,,,,,,245.9635818000097,246.7759417000052,247.5776412000123,247.56086170001072,247.5608959000092,247.5776412000123,247.5776412000123,247.5776412000123,,250.7988176000072,left,1.0,17.79386700000032,,,,,,,,,,,,,,,,,,,,,,,,,,,,,,sub-179,1.0,random_dot,59.97692087966552,
right,right,speed,,,,,0.0,0.0,0.0,1.0,14.0,0.0,28.0,1.0,250.81254260000424,,,,,,,,,250.80044290001388,252.01369340000383,252.81539540000085,252.7989052000048,252.79894320000312,252.81539540000085,252.81539540000085,252.81539540000085,,254.08528050000317,right,1.0,15.854349799992631,,,,,,,,,,,,,,,,,,,,,,,,,,,,,,sub-179,1.0,random_dot,59.97692087966552,
left,left,speed,,,,,0.0,0.0,0.0,1.0,14.0,1.0,29.0,0.0,254.0986883000005,,,,,,,,,254.08686560000933,255.2996681000077,256.101358800006,256.084866300007,256.08490220000385,256.101358800006,256.101358800006,256.101358800006,,256.9037195000128,left,1.0,15.383987199995316,,,,,,,,,,,,,,,,,,,,,,,,,,,,,,sub-179,1.0,random_dot,59.97692087966552,
left,left,speed,,,,,0.0,0.0,0.0,1.0,15.0,0.0,30.0,0.0,256.9176685000129,,,,,,,,,256.90535340001225,257.7181583000056,258.5199624000088,258.503875600014,258.5039140000008,258.5199624000088,258.5199624000088,258.5199624000088,,259.17275780001364,left,1.0,15.224803999983124,,,,,,,,,,,,,,,,,,,,,,,,,,,,,,sub-179,1.0,random_dot,59.97692087966552,
right,right,speed,,,,,0.0,0.0,0.0,1.0,15.0,1.0,31.0,1.0,259.1861696000124,,,,,,,,,259.17441040000995,259.5364736000047,260.3381897000072,260.32178870000644,260.3218331000098,260.3381897000072,260.3381897000072,260.3381897000072,,260.9241899000044,right,1.0,15.170746499992674,,,,,,,,,,,,,,,,,,,,,,,,,,,,,,sub-179,1.0,random_dot,59.97692087966552,
left,left,speed,,,,,0.0,0.0,0.0,1.0,16.0,0.0,32.0,0.0,260.937766300005,,,,,,,,,260.92580080000334,262.1388203000097,262.9402751000016,262.923681100001,262.9237420999998,262.9402751000016,262.9402751000016,262.9402751000016,,263.94319770000584,left,1.0,15.584428899994236,,,,,,,,,,,,,,,,,,,,,,,,,,,,,,sub-179,1.0,random_dot,59.97692087966552,
right,right,speed,,,,,0.0,0.0,0.0,1.0,16.0,1.0,33.0,1.0,263.9568078000011,,,,,,,,,263.94503720001376,264.3069664000068,265.1085866000067,265.09230260000913,265.09233940001286,265.1085866000067,265.1085866000067,265.1085866000067,,265.69485200000054,right,1.0,15.158549699990544,,,,,,,,,,,,,,,,,,,,,,,,,,,,,,sub-179,1.0,random_dot,59.97692087966552,
right,right,speed,,,,,0.0,0.0,0.0,1.0,17.0,0.0,34.0,1.0,265.7086786,,,,,,,,,265.6964760000119,266.9092751000135,267.7110260000045,267.6944470000017,267.6944846000115,267.7110260000045,267.7110260000045,267.7110260000045,,268.29698720001034,right,1.0,15.168946799996776,,,,,,,,,,,,,,,,,,,,,,,,,,,,,,sub-179,1.0,random_dot,59.97692087966552,
left,left,speed,,,,,0.0,0.0,0.0,1.0,17.0,1.0,35.0,0.0,268.3105726000067,,,,,,,,,268.2987415000098,269.51141800000914,270.3129003000068,270.2966831000085,270.2967213000084,270.3129003000068,270.3129003000068,270.3129003000068,,270.79876070001046,left,1.0,15.06694069999503,,,,,,,,,,,,,,,,,,,,,,,,,,,,,,sub-179,1.0,random_dot,59.97692087966552,
right,right,speed,,,,,0.0,0.0,0.0,1.0,18.0,0.0,36.0,1.0,270.81256750000466,,,,,,,,,270.80040310000186,271.16272440001194,271.9643749000097,271.9480642000126,271.9481097000098,271.9643749000097,271.9643749000097,271.9643749000097,,272.55035790000693,right,1.0,15.15924229999655,,,,,,,,,,,,,,,,,,,,,,,,,,,,,,sub-179,1.0,random_dot,59.97692087966552,
left,left,speed,,,,,0.0,0.0,0.0,1.0,18.0,1.0,37.0,0.0,272.564162300012,,,,,,,,,272.5520117000124,272.6641099000117,273.46570100000827,273.4493648000061,273.4494021000137,273.46570100000827,273.46570100000827,273.46570100000827,,274.0353523000085,left,1.0,15.152413799994974,,,,,,,,,,,,,,,,,,,,,,,,,,,,,,sub-179,1.0,random_dot,59.97692087966552,
right,right,speed,,,,,0.0,0.0,0.0,1.0,19.0,0.0,38.0,1.0,274.04853580000054,,,,,,,,,274.0369880000071,274.1489067000075,274.95010990000446,274.9339810000092,274.93401730000915,274.95010990000446,274.95010990000446,274.95010990000446,,275.8531215000112,right,1.0,15.48243089999596,,,,,,,,,,,,,,,,,,,,,,,,,,,,,,sub-179,1.0,random_dot,59.97692087966552,
left,left,speed,,,,,0.0,0.0,0.0,1.0,19.0,1.0,39.0,0.0,275.86690700000327,,,,,,,,,275.854736600013,275.9668491000048,276.768432300014,276.751808800007,276.7518456000107,276.768432300014,276.768432300014,276.768432300014,,278.0047221000132,left,1.0,15.80848390000756,,,,,,,,,,,,,,,,,,,,,,,,,,,,,,sub-179,1.0,random_dot,59.97692087966552,
left,left,speed,,,,,0.0,0.0,0.0,1.0,20.0,0.0,40.0,0.0,278.0184503000055,,,,,,,,,278.00633160000143,278.36928780000017,279.1706509000069,279.1540968000045,279.1541332000052,279.1706509000069,279.1706509000069,279.1706509000069,,280.05657190000056,left,1.0,15.469520400001784,,,,,,,,,,,,,,,,,,,,,,,,,,,,,,sub-179,1.0,random_dot,59.97692087966552,
right,right,speed,,,,,0.0,0.0,0.0,1.0,20.0,1.0,41.0,1.0,280.0699240000104,,,,,,,,,280.0585875000106,280.170259800012,280.97195250001096,280.9555579000007,280.9555950000067,280.97195250001096,280.97195250001096,280.97195250001096,,281.6744975000038,right,1.0,15.289620399998968,,,,,,,,,,,,,,,,,,,,,,,,,,,,,,sub-179,1.0,random_dot,59.97692087966552,
left,left,speed,,,,,0.0,0.0,0.0,1.0,21.0,0.0,42.0,0.0,281.68816190000507,,,,,,,,,281.676248600008,282.03861940000206,282.8399493000033,282.8236956000037,282.8237381000072,282.8399493000033,282.8399493000033,282.8399493000033,,283.3594944000069,left,1.0,15.10179309999512,,,,,,,,,,,,,,,,,,,,,,,,,,,,,,sub-179,1.0,random_dot,59.97692087966552,
right,right,speed,,,,,0.0,0.0,0.0,1.0,21.0,1.0,43.0,1.0,283.3729187999997,,,,,,,,,283.36117690001265,284.5738980000024,285.37555680000514,285.3591501000046,285.35918670000683,285.37555680000514,285.37555680000514,285.37555680000514,,285.94474780000746,right,1.0,15.147270999994362,,,,,,,,,,,,,,,,,,,,,,,,,,,,,,sub-179,1.0,random_dot,59.97692087966552,
left,left,speed,,,,,0.0,0.0,0.0,1.0,22.0,0.0,44.0,0.0,285.95843470000545,,,,,,,,,285.94644840000547,286.30873040000733,287.1102413000044,287.0940709000133,287.094116200009,287.1102413000044,287.1102413000044,287.1102413000044,,287.87980740000785,left,1.0,15.34335049999936,,,,,,,,,,,,,,,,,,,,,,,,,,,,,,sub-179,1.0,random_dot,59.97692087966552,
right,right,speed,,,,,0.0,0.0,0.0,1.0,22.0,1.0,45.0,1.0,287.8933814000047,,,,,,,,,287.881687400004,289.09441440000955,289.8959071000136,289.88018260001263,289.8802202000079,289.8959071000136,289.8959071000136,289.8959071000136,,290.46503000000666,right,1.0,15.148098599995135,,,,,,,,,,,,,,,,,,,,,,,,,,,,,,sub-179,1.0,random_dot,59.97692087966552,
left,left,speed,,,,,0.0,0.0,0.0,1.0,23.0,0.0,46.0,0.0,290.4788305000111,,,,,,,,,290.466745800004,290.5789319000032,291.38056420000794,291.36399070000334,291.36402700000326,291.38056420000794,291.38056420000794,291.38056420000794,,291.9164197000064,left,1.0,15.121712199994365,,,,,,,,,,,,,,,,,,,,,,,,,,,,,,sub-179,1.0,random_dot,59.97692087966552,
right,right,speed,,,,,0.0,0.0,0.0,1.0,23.0,1.0,47.0,1.0,291.92999010000494,,,,,,,,,291.91822610000963,292.73060230001283,293.53233990000444,293.5161710000102,293.51620870000625,293.53233990000444,293.53233990000444,293.53233990000444,,294.2015864000132,right,1.0,15.2424297999969,,,,,,,,,,,,,,,,,,,,,,,,,,,,,,sub-179,1.0,random_dot,59.97692087966552,
right,right,speed,,,,,0.0,0.0,0.0,1.0,24.0,0.0,48.0,1.0,294.2154142000072,,,,,,,,,294.20321460001287,295.0158955000079,295.8174324000138,295.8008572000108,295.8008945000038,295.8174324000138,295.8174324000138,295.8174324000138,,296.4536369000125,right,1.0,15.217061799994552,,,,,,,,,,,,,,,,,,,,,,,,,,,,,,sub-179,1.0,random_dot,59.97692087966552,
left,left,speed,,,,,0.0,0.0,0.0,1.0,24.0,1.0,49.0,0.0,296.46721900001285,,,,,,,,,296.45526950000203,296.81746200000634,297.6190673000092,297.6026336000068,297.6026715000044,297.6190673000092,297.6190673000092,297.6190673000092,,298.1386047000124,left,1.0,15.10176189999038,,,,,,,,,,,,,,,,,,,,,,,,,,,,,,sub-179,1.0,random_dot,59.97692087966552,
right,right,speed,,,,,0.0,0.0,0.0,1.0,25.0,0.0,50.0,1.0,298.15186590001395,,,,,,,,,298.14025240000046,298.2520210000075,299.05397079999966,299.0370445000008,299.03707920000306,299.05397079999966,299.05397079999966,299.05397079999966,,300.15652280001086,right,1.0,15.681954399988172,,,,,,,,,,,,,,,,,,,,,,,,,,,,,,sub-179,1.0,random_dot,59.97692087966552,
left,left,speed,,,,,0.0,0.0,0.0,1.0,25.0,1.0,51.0,0.0,300.17027150001377,,,,,,,,,300.1581567000103,301.3711554000038,302.1729936000047,302.15637580001203,302.156413100005,302.1729936000047,302.1729936000047,302.1729936000047,,302.8255640000134,left,1.0,15.23354799998924,,,,,,,,,,,,,,,,,,,,,,,,,,,,,,sub-179,1.0,random_dot,59.97692087966552,
left,left,speed,,,,,0.0,0.0,0.0,1.0,26.0,0.0,52.0,0.0,302.8391331000021,,,,,,,,,302.82722790000844,304.0401156000007,304.84147200000007,304.825318800009,304.82535590000043,304.84147200000007,304.84147200000007,304.84147200000007,,305.74409990001004,left,1.0,15.486607999991977,,,,,,,,,,,,,,,,,,,,,,,,,,,,,,sub-179,1.0,random_dot,59.97692087966552,
right,right,speed,,,,,0.0,0.0,0.0,1.0,26.0,1.0,53.0,1.0,305.7580630000012,,,,,,,,,305.7459237000003,306.10834020000766,306.9102686000115,306.8933424000133,306.8933800000086,306.9102686000115,306.9102686000115,306.9102686000115,,307.495891100014,right,1.0,15.170257499994475,,,,,,,,,,,,,,,,,,,,,,,,,,,,,,sub-179,1.0,random_dot,59.97692087966552,
right,right,speed,,,,,0.0,0.0,0.0,1.0,27.0,0.0,54.0,1.0,307.5097052000056,,,,,,,,,307.4975248000119,308.310106200006,309.1120399000065,309.0954155000072,309.09545350000553,309.1120399000065,309.1120399000065,309.1120399000065,,309.6978092000063,right,1.0,15.172242000000551,,,,,,,,,,,,,,,,,,,,,,,,,,,,,,sub-179,1.0,random_dot,59.97692087966552,
left,left,speed,,,,,0.0,0.0,0.0,1.0,27.0,1.0,55.0,0.0,309.71145820000675,,,,,,,,,309.69947240001056,310.0617530000018,310.8632360000047,310.8469597000076,310.8469968999998,310.8632360000047,310.8632360000047,310.8632360000047,,311.6660151000105,left,1.0,15.389940299995942,,,,,,,,,,,,,,,,,,,,,,,,,,,,,,sub-179,1.0,random_dot,59.97692087966552,
right,right,speed,,,,,0.0,0.0,0.0,1.0,28.0,0.0,56.0,1.0,311.67968380000093,,,,,,,,,311.66766970000754,311.7796018000081,312.58151240000734,312.56492850001086,312.5649655000016,312.58151240000734,312.58151240000734,312.58151240000734,,313.0839102000027,right,1.0,15.085731899991517,,,,,,,,,,,,,,,,,,,,,,,,,,,,,,sub-179,1.0,random_dot,59.97692087966552,
left,left,speed,,,,,0.0,0.0,0.0,1.0,28.0,1.0,57.0,0.0,313.09745100000873,,,,,,,,,313.0855881000025,313.89815920000547,314.6999533000053,314.683348400009,314.6833823000052,314.6999533000053,314.6999533000053,314.6999533000053,,315.16892760001065,left,1.0,15.047506899994914,,,,,,,,,,,,,,,,,,,,,,,,,,,,,,sub-179,1.0,random_dot,59.97692087966552,
left,left,speed,,,,,0.0,0.0,0.0,1.0,29.0,0.0,58.0,0.0,315.1825937000104,,,,,,,,,315.1705107000016,315.2828622000088,316.08435270001064,316.0678856000013,316.0679233000119,316.08435270001064,316.08435270001064,316.08435270001064,,316.7870188000088,left,1.0,15.288096999996924,,,,,,,,,,,,,,,,,,,,,,,,,,,,,,sub-179,1.0,random_dot,59.97692087966552,
right,right,speed,,,,,0.0,0.0,0.0,1.0,29.0,1.0,59.0,1.0,316.80059260000417,,,,,,,,,316.7885438000085,317.1509844000102,317.95266090000223,317.9361953000044,317.9362606000068,317.95266090000223,317.95266090000223,317.95266090000223,,318.53868570001214,right,1.0,15.166560199999369,,,,,,,,,,,,,,,,,,,,,,,,,,,,,,sub-179,1.0,random_dot,59.97692087966552,
,,speed,,,,,0.0,0.0,0.0,1.0,,,,,,,,,,,,,,,,,,,,,,,,,,,,,,,,,,,,,,,,,,,,,,,,,,,,,,,,sub-179,1.0,random_dot,59.97692087966552,
left,left,accuracy,,,,,0.0,1.0,1.0,0.0,0.0,0.0,0.0,0.0,331.4153390000138,,,,,,,,,331.41098810000403,331.5129043000052,332.3142991000059,332.29998760001035,332.3000394000119,332.3142991000059,332.3142991000059,332.3142991000059,,336.58692850000807,left,1.0,18.856158299997333,,,,,,,,,,,,,,,,,,,,318.5402712000068,318.5593329000112,318.5593329000112,331.3981728000072,space,27.41694039999857,,,,,sub-179,1.0,random_dot,59.97692087966552,
right,right,accuracy,,,,,0.0,1.0,1.0,0.0,0.0,1.0,1.0,1.0,336.60043280001264,,,,,,,,,336.5889582000091,337.801263100002,338.6029858000111,338.5868087000126,338.58684470001026,338.6029858000111,338.6029858000111,338.6029858000111,,339.2886908000073,right,1.0,15.269065499989663,,,,,,,,,,,,,,,,,,,,,,,,,,,,,,sub-179,1.0,random_dot,59.97692087966552,
left,left,accuracy,,,,,0.0,1.0,1.0,0.0,1.0,0.0,2.0,0.0,339.30276000000595,,,,,,,,,339.2903156000102,339.4028238000028,340.2045103000128,340.18805240000074,340.18808980000904,340.2045103000128,340.2045103000128,340.2045103000128,,341.0406948000018,left,1.0,15.42389559998992,,,,,,,,,,,,,,,,,,,,,,,,,,,,,,sub-179,1.0,random_dot,59.97692087966552,
right,right,accuracy,,,,,0.0,1.0,1.0,0.0,1.0,1.0,3.0,1.0,341.0540420000034,,,,,,,,,341.042300400004,342.25521840000874,343.05671470001107,343.0404214000009,343.04047840001294,343.05671470001107,343.05671470001107,343.05671470001107,,343.6928179000097,right,1.0,15.20965439999418,,,,,,,,,,,,,,,,,,,,,,,,,,,,,,sub-179,1.0,random_dot,59.97692087966552,
left,left,accuracy,,,,,0.0,1.0,1.0,0.0,2.0,0.0,4.0,0.0,343.70621990000654,,,,,,,,,343.69440350000514,343.80650510000123,344.60803780000424,344.59155410001404,344.5915909000032,344.60803780000424,344.60803780000424,344.60803780000424,,345.79507790000935,left,1.0,15.771005299990064,,,,,,,,,,,,,,,,,,,,,,,,,,,,,,sub-179,1.0,random_dot,59.97692087966552,
right,right,accuracy,,,,,0.0,1.0,1.0,0.0,2.0,1.0,5.0,1.0,345.8083384000056,,,,,,,,,345.7968233000138,346.6086135000078,347.41042910001124,347.3938654000085,347.39390140000614,347.41042910001124,347.41042910001124,347.41042910001124,,348.296474200004,right,1.0,15.4682482000062,,,,,,,,,,,,,,,,,,,,,,,,,,,,,,sub-179,1.0,random_dot,59.97692087966552,
left,left,accuracy,,,,,0.0,1.0,1.0,0.0,3.0,0.0,6.0,0.0,348.31017320000683,,,,,,,,,348.29811030000565,349.51111970000784,350.3126592000044,350.29615740000736,350.2961950000026,350.3126592000044,350.3126592000044,350.3126592000044,,350.9652589000034,left,1.0,15.23136039999372,,,,,,,,,,,,,,,,,,,,,,,,,,,,,,sub-179,1.0,random_dot,59.97692087966552,
right,right,accuracy,,,,,0.0,1.0,1.0,0.0,3.0,1.0,7.0,1.0,350.9791350000014,,,,,,,,,350.967218100006,352.179887700011,352.9817314000102,352.9650362000102,352.9650709000125,352.9817314000102,352.9817314000102,352.9817314000102,,354.88531100000546,right,1.0,16.476750400004676,,,,,,,,,,,,,,,,,,,,,,,,,,,,,,sub-179,1.0,random_dot,59.97692087966552,
left,left,accuracy,,,,,0.0,1.0,1.0,0.0,4.0,0.0,8.0,0.0,354.89885060000233,,,,,,,,,354.88695830000506,355.6995309000049,356.5012631000136,356.4846354000037,356.4846719000052,356.5012631000136,356.5012631000136,356.5012631000136,,357.23732890000974,left,1.0,15.317039099987596,,,,,,,,,,,,,,,,,,,,,,,,,,,,,,sub-179,1.0,random_dot,59.97692087966552,
right,right,accuracy,,,,,0.0,1.0,1.0,0.0,4.0,1.0,9.0,1.0,357.25066880001395,,,,,,,,,357.2395525000029,357.6011972000124,358.4026644000114,358.3861478000035,358.3861845000065,358.4026644000114,358.4026644000114,358.4026644000114,,359.40597560000606,right,1.0,15.590149499999823,,,,,,,,,,,,,,,,,,,,,,,,,,,,,,sub-179,1.0,random_dot,59.97692087966552,
right,right,accuracy,,,,,0.0,1.0,1.0,0.0,5.0,0.0,10.0,1.0,359.4192427000089,,,,,,,,,359.4075683000119,360.2198733000114,361.02152690000366,361.0051581000007,361.0051946000021,361.02152690000366,361.02152690000366,361.02152690000366,,361.7576567000069,right,1.0,15.320948999986284,,,,,,,,,,,,,,,,,,,,,,,,,,,,,,sub-179,1.0,random_dot,59.97692087966552,
left,left,accuracy,,,,,0.0,1.0,1.0,0.0,5.0,1.0,11.0,0.0,361.771121400001,,,,,,,,,361.7592742000125,362.5719652000116,363.3736135000072,363.3571413000027,363.3571798000048,363.3736135000072,363.3736135000072,363.3736135000072,,364.1093933000084,left,1.0,15.312907499988796,,,,,,,,,,,,,,,,,,,,,,,,,,,,,,sub-179,1.0,random_dot,59.97692087966552,
right,right,accuracy,,,,,0.0,1.0,1.0,0.0,6.0,0.0,12.0,1.0,364.1232473000128,,,,,,,,,364.11100129999977,364.9239238000009,365.7254329000134,365.7090447000082,365.7090817999997,365.7254329000134,365.7254329000134,365.7254329000134,,367.6123812000005,right,1.0,16.46341460000258,,,,,,,,,,,,,,,,,,,,,,,,,,,,,,sub-179,1.0,random_dot,59.97692087966552,
left,left,accuracy,,,,,0.0,1.0,1.0,0.0,6.0,1.0,13.0,0.0,367.6263294000091,,,,,,,,,367.6141453000018,367.7262779000012,368.5280224000017,368.51116380000894,368.5112004000112,368.5280224000017,368.5280224000017,368.5280224000017,,369.6976757000084,left,1.0,15.750123599995275,,,,,,,,,,,,,,,,,,,,,,,,,,,,,,sub-179,1.0,random_dot,59.97692087966552,
right,right,accuracy,,,,,0.0,1.0,1.0,0.0,7.0,0.0,14.0,1.0,369.7111356000096,,,,,,,,,369.6992817999999,369.8113641000091,370.6131733000075,370.5963815000141,370.59641980000015,370.6131733000075,370.6131733000075,370.6131733000075,,371.565686300004,right,1.0,15.527665000001434,,,,,,,,,,,,,,,,,,,,,,,,,,,,,,sub-179,1.0,random_dot,59.97692087966552,
left,left,accuracy,,,,,0.0,1.0,1.0,0.0,7.0,1.0,15.0,0.0,371.5793447000033,,,,,,,,,371.56728770000336,372.7800893000094,373.5819986000133,373.5656601000082,373.5656984000088,373.5819986000133,373.5819986000133,373.5819986000133,,374.35132470000826,left,1.0,15.353424199987783,,,,,,,,,,,,,,,,,,,,,,,,,,,,,,sub-179,1.0,random_dot,59.97692087966552,
left,left,accuracy,,,,,0.0,1.0,1.0,0.0,8.0,0.0,16.0,0.0,374.3650290000078,,,,,,,,,374.3529269000137,374.7152586000011,375.5170489000011,375.50047020000056,375.5005083000142,375.5170489000011,375.5170489000011,375.5170489000011,,377.4040989000059,left,1.0,16.46224710000388,,,,,,,,,,,,,,,,,,,,,,,,,,,,,,sub-179,1.0,random_dot,59.97692087966552,
right,right,accuracy,,,,,0.0,1.0,1.0,0.0,8.0,1.0,17.0,1.0,377.417655000012,,,,,,,,,377.40579360000265,378.6185400000104,379.4202972000057,379.40365510000265,379.4036926000117,379.4202972000057,379.4202972000057,379.4202972000057,,380.1229598000064,right,1.0,15.275093999996898,,,,,,,,,,,,,,,,,,,,,,,,,,,,,,sub-179,1.0,random_dot,59.97692087966552,
left,left,accuracy,,,,,0.0,1.0,1.0,0.0,9.0,0.0,18.0,0.0,380.136545100002,,,,,,,,,380.1245983000117,380.937128000005,381.7387929000106,381.722317000007,381.7223546000023,381.7387929000106,381.7387929000106,381.7387929000106,,382.64180940001097,left,1.0,15.482905599987134,,,,,,,,,,,,,,,,,,,,,,,,,,,,,,sub-179,1.0,random_dot,59.97692087966552,
right,right,accuracy,,,,,0.0,1.0,1.0,0.0,9.0,1.0,19.0,1.0,382.6552140000131,,,,,,,,,382.64337680001336,383.45588350000617,384.2575885000115,384.24117210000986,384.2412096000044,384.2575885000115,384.2575885000115,384.2575885000115,,384.8933916000096,right,1.0,15.2170652999921,,,,,,,,,,,,,,,,,,,,,,,,,,,,,,sub-179,1.0,random_dot,59.97692087966552,
right,right,accuracy,,,,,0.0,1.0,1.0,0.0,10.0,0.0,20.0,1.0,384.9071024000005,,,,,,,,,384.895001300014,385.0075586000021,385.8088002000004,385.7924172000057,385.7924534000049,385.8088002000004,385.8088002000004,385.8088002000004,,386.628249500005,right,1.0,15.395898299990222,,,,,,,,,,,,,,,,,,,,,,,,,,,,,,sub-179,1.0,random_dot,59.97692087966552,
left,left,accuracy,,,,,0.0,1.0,1.0,0.0,10.0,1.0,21.0,0.0,386.6419925000082,,,,,,,,,386.6298749000125,386.99213020000025,387.7938681000087,387.7772379000089,387.7772716000036,387.7938681000087,387.7938681000087,387.7938681000087,,388.57984860001307,left,1.0,15.363440799992532,,,,,,,,,,,,,,,,,,,,,,,,,,,,,,sub-179,1.0,random_dot,59.97692087966552,
left,left,accuracy,,,,,0.0,1.0,1.0,0.0,11.0,0.0,22.0,0.0,388.59357580001233,,,,,,,,,388.5813121000101,389.3942129000061,390.1957201000041,390.17931990000943,390.1793566000124,390.1957201000041,390.1957201000041,390.1957201000041,,391.08207680001215,left,1.0,15.468478299997514,,,,,,,,,,,,,,,,,,,,,,,,,,,,,,sub-179,1.0,random_dot,59.97692087966552,
right,right,accuracy,,,,,0.0,1.0,1.0,0.0,11.0,1.0,23.0,1.0,391.09561800000665,,,,,,,,,391.0836888000049,391.445907900008,392.2475428000034,392.23099690000527,392.23103470000206,392.2475428000034,392.2475428000034,392.2475428000034,,392.88368750001246,right,1.0,15.214981900004204,,,,,,,,,,,,,,,,,,,,,,,,,,,,,,sub-179,1.0,random_dot,59.97692087966552,
right,right,accuracy,,,,,0.0,1.0,1.0,0.0,12.0,0.0,24.0,1.0,392.89719990000594,,,,,,,,,392.8854500000016,393.697877700004,394.4995452000003,394.4829566000117,394.4829921000055,394.4995452000003,394.4995452000003,394.4995452000003,,395.2520581999997,right,1.0,15.328529399994297,,,,,,,,,,,,,,,,,,,,,,,,,,,,,,sub-179,1.0,random_dot,59.97692087966552,
left,left,accuracy,,,,,0.0,1.0,1.0,0.0,12.0,1.0,25.0,0.0,395.2658234000119,,,,,,,,,395.25364040001296,395.6160384000104,396.4176216000051,396.4010571000108,396.40109280000615,396.4176216000051,396.4176216000051,396.4176216000051,,397.153564200009,left,1.0,15.319808299987926,,,,,,,,,,,,,,,,,,,,,,,,,,,,,,sub-179,1.0,random_dot,59.97692087966552,
left,left,accuracy,,,,,0.0,1.0,1.0,0.0,13.0,0.0,26.0,0.0,397.1671545999998,,,,,,,,,397.1552255000133,397.9679150000011,398.7695309000119,398.7532922000101,398.7533296000038,398.7695309000119,398.7695309000119,398.7695309000119,,400.0893537000084,left,1.0,15.898140499994042,,,,,,,,,,,,,,,,,,,,,,,,,,,,,,sub-179,1.0,random_dot,59.97692087966552,
right,right,accuracy,,,,,0.0,1.0,1.0,0.0,13.0,1.0,27.0,1.0,400.10305309999967,,,,,,,,,400.0910413000093,400.9037771000003,401.7053306000016,401.6889095000079,401.6889463000116,401.7053306000016,401.7053306000016,401.7053306000016,,402.4912499000056,right,1.0,15.366424399995594,,,,,,,,,,,,,,,,,,,,,,,,,,,,,,sub-179,1.0,random_dot,59.97692087966552,
right,right,accuracy,,,,,0.0,1.0,1.0,0.0,14.0,0.0,28.0,1.0,402.5056084000098,,,,,,,,,402.492885700005,403.7060562000115,404.5075190000061,404.4911396000098,404.49117800001113,404.5075190000061,404.5075190000061,404.5075190000061,,405.2102816000115,right,1.0,15.27486149998731,,,,,,,,,,,,,,,,,,,,,,,,,,,,,,sub-179,1.0,random_dot,59.97692087966552,
left,left,accuracy,,,,,0.0,1.0,1.0,0.0,14.0,1.0,29.0,0.0,405.223844600012,,,,,,,,,405.2118982000102,405.5741784000129,406.3759010000067,406.3594373000087,406.3594756000093,406.3759010000067,406.3759010000067,406.3759010000067,,407.0454093000008,left,1.0,15.252038699996774,,,,,,,,,,,,,,,,,,,,,,,,,,,,,,sub-179,1.0,random_dot,59.97692087966552,
left,left,accuracy,,,,,0.0,1.0,1.0,0.0,15.0,0.0,30.0,0.0,407.05867510000826,,,,,,,,,407.0470318000007,407.40913090000686,408.21065980001,408.1939917000127,408.1940286000026,408.21065980001,408.21065980001,408.21065980001,,409.8478352000093,left,1.0,16.22298539998883,,,,,,,,,,,,,,,,,,,,,,,,,,,,,,sub-179,1.0,random_dot,59.97692087966552,
right,right,accuracy,,,,,0.0,1.0,1.0,0.0,15.0,1.0,31.0,1.0,409.8610127000138,,,,,,,,,409.8494972000044,410.21144820000336,411.0130065000121,410.9967207000009,410.9967590000015,411.0130065000121,411.0130065000121,411.0130065000121,,411.9158020000032,right,1.0,15.486909699990065,,,,,,,,,,,,,,,,,,,,,,,,,,,,,,sub-179,1.0,random_dot,59.97692087966552,
left,left,accuracy,,,,,0.0,1.0,1.0,0.0,16.0,0.0,32.0,0.0,411.9295015000098,,,,,,,,,411.9174794999999,412.7300303000084,413.5315376000072,413.5151651000051,413.5152107000031,413.5315376000072,413.5315376000072,413.5315376000072,,414.2846066000057,left,1.0,15.333652699991944,,,,,,,,,,,,,,,,,,,,,,,,,,,,,,sub-179,1.0,random_dot,59.97692087966552,
right,right,accuracy,,,,,0.0,1.0,1.0,0.0,16.0,1.0,33.0,1.0,414.2982066000113,,,,,,,,,414.2863180000131,415.0989195000002,415.9004122000042,415.8840981000103,415.8841350000002,415.9004122000042,415.9004122000042,415.9004122000042,,416.5529630000092,right,1.0,15.226698300000862,,,,,,,,,,,,,,,,,,,,,,,,,,,,,,sub-179,1.0,random_dot,59.97692087966552,
left,left,accuracy,,,,,0.0,1.0,1.0,0.0,17.0,0.0,34.0,0.0,416.5665399000136,,,,,,,,,416.5547375000024,417.3672454000043,418.16892490000464,418.1529145000095,418.15295220000553,418.16892490000464,418.16892490000464,418.16892490000464,,418.78823920000286,left,1.0,15.198504899992258,,,,,,,,,,,,,,,,,,,,,,,,,,,,,,sub-179,1.0,random_dot,59.97692087966552,
right,right,accuracy,,,,,0.0,1.0,1.0,0.0,17.0,1.0,35.0,1.0,418.8018831000081,,,,,,,,,418.7898738000076,420.00301580000087,420.8043060000055,420.7878930000006,420.78793150000274,420.8043060000055,420.8043060000055,420.8043060000055,,421.4570651000104,right,1.0,15.22586130000127,,,,,,,,,,,,,,,,,,,,,,,,,,,,,,sub-179,1.0,random_dot,59.97692087966552,
right,right,accuracy,,,,,0.0,1.0,1.0,0.0,18.0,0.0,36.0,1.0,421.4707555000059,,,,,,,,,421.4587960000063,422.671745700005,423.47333840001374,423.4569637000095,423.457009100006,423.47333840001374,423.47333840001374,423.47333840001374,,424.0591073000105,right,1.0,15.158266300000832,,,,,,,,,,,,,,,,,,,,,,,,,,,,,,sub-179,1.0,random_dot,59.97692087966552,
left,left,accuracy,,,,,0.0,1.0,1.0,0.0,18.0,1.0,37.0,0.0,424.0729082000034,,,,,,,,,424.0607384000032,425.27398870000616,426.07548920001136,426.0592069000122,426.0592432000121,426.07548920001136,426.07548920001136,426.07548920001136,,426.778066800005,left,1.0,15.278935599999386,,,,,,,,,,,,,,,,,,,,,,,,,,,,,,sub-179,1.0,random_dot,59.97692087966552,
left,left,accuracy,,,,,0.0,1.0,1.0,0.0,19.0,0.0,38.0,0.0,426.7918475000042,,,,,,,,,426.7795780000015,426.8918338000076,427.693170700004,427.67716940000537,427.6772083000105,427.693170700004,427.693170700004,427.693170700004,,429.614015500003,left,1.0,16.50007339999138,,,,,,,,,,,,,,,,,,,,,,,,,,,,,,sub-179,1.0,random_dot,59.97692087966552,
right,right,accuracy,,,,,0.0,1.0,1.0,0.0,19.0,1.0,39.0,1.0,429.6273527000012,,,,,,,,,429.6156062000082,429.72761430000537,430.52924560000247,430.5128209000104,430.5128586000064,430.52924560000247,430.52924560000247,430.52924560000247,,431.2652899000095,right,1.0,15.3104795999825,,,,,,,,,,,,,,,,,,,,,,,,,,,,,,sub-179,1.0,random_dot,59.97692087966552,
left,left,accuracy,,,,,0.0,1.0,1.0,0.0,20.0,0.0,40.0,0.0,431.278971000007,,,,,,,,,431.2668872000068,431.6291261000006,432.4310359000083,432.4141506000015,432.41418460001296,432.4310359000083,432.4310359000083,432.4310359000083,,434.9016171000112,left,1.0,17.046365599991987,,,,,,,,,,,,,,,,,,,,,,,,,,,,,,sub-179,1.0,random_dot,59.97692087966552,
right,right,accuracy,,,,,0.0,1.0,1.0,0.0,20.0,1.0,41.0,1.0,434.915149700013,,,,,,,,,434.9032208999997,436.116245000012,436.9177162000124,436.901234200006,436.90126150001015,436.9177162000124,436.9177162000124,436.9177162000124,,437.53727820000495,right,1.0,15.203178299983849,,,,,,,,,,,,,,,,,,,,,,,,,,,,,,sub-179,1.0,random_dot,59.97692087966552,
right,right,accuracy,,,,,0.0,1.0,1.0,0.0,21.0,0.0,42.0,1.0,437.5508297000051,,,,,,,,,437.5390469000122,438.7516961000074,439.5532174000109,439.5367450000049,439.5367797000072,439.5532174000109,439.5532174000109,439.5532174000109,,440.2893851000117,right,1.0,15.316522899986012,,,,,,,,,,,,,,,,,,,,,,,,,,,,,,sub-179,1.0,random_dot,59.97692087966552,
left,left,accuracy,,,,,0.0,1.0,1.0,0.0,21.0,1.0,43.0,0.0,440.30306330000167,,,,,,,,,440.291029,440.65336390001175,441.4551507000142,441.43829770000593,441.43833430000814,441.4551507000142,441.4551507000142,441.4551507000142,,442.2074958000012,left,1.0,15.32635930000106,,,,,,,,,,,,,,,,,,,,,,,,,,,,,,sub-179,1.0,random_dot,59.97692087966552,
left,left,accuracy,,,,,0.0,1.0,1.0,0.0,22.0,0.0,44.0,0.0,442.22114280000096,,,,,,,,,442.2091781000054,443.0219006000116,443.82368730001326,443.8072051000054,443.8072404000122,443.82368730001326,443.82368730001326,443.82368730001326,,445.9606605000008,left,1.0,16.709114799989038,,,,,,,,,,,,,,,,,,,,,,,,,,,,,,sub-179,1.0,random_dot,59.97692087966552,
right,right,accuracy,,,,,0.0,1.0,1.0,0.0,22.0,1.0,45.0,1.0,445.9742837000085,,,,,,,,,445.9623056000128,446.77496000000974,447.5766528000095,447.5601635000057,447.560201500004,447.5766528000095,447.5766528000095,447.5766528000095,,448.2964661000005,right,1.0,15.300551699983773,,,,,,,,,,,,,,,,,,,,,,,,,,,,,,sub-179,1.0,random_dot,59.97692087966552,
right,right,accuracy,,,,,0.0,1.0,1.0,0.0,23.0,0.0,46.0,1.0,448.30954430000565,,,,,,,,,448.2980865000136,449.512094900012,450.3123067000124,450.2958847000118,450.29592350000166,450.3123067000124,450.3123067000124,450.3123067000124,,450.9483054000011,right,1.0,15.20855080000183,,,,,,,,,,,,,,,,,,,,,,,,,,,,,,sub-179,1.0,random_dot,59.97692087966552,
left,left,accuracy,,,,,0.0,1.0,1.0,0.0,23.0,1.0,47.0,0.0,450.9619348000124,,,,,,,,,450.9499144000001,451.3121941999998,452.113845800006,452.0973790000135,452.0974164000072,452.113845800006,452.113845800006,452.113845800006,,452.8662401000038,left,1.0,15.33647779999592,,,,,,,,,,,,,,,,,,,,,,,,,,,,,,sub-179,1.0,random_dot,59.97692087966552,
right,right,accuracy,,,,,0.0,1.0,1.0,0.0,24.0,0.0,48.0,1.0,452.8801642000035,,,,,,,,,452.8678183000011,453.2306169000076,454.0318699000054,454.0153968000086,454.0154379000014,454.0318699000054,454.0318699000054,454.0318699000054,,454.7676460000075,right,1.0,15.31330639999942,,,,,,,,,,,,,,,,,,,,,,,,,,,,,,sub-179,1.0,random_dot,59.97692087966552,
left,left,accuracy,,,,,0.0,1.0,1.0,0.0,24.0,1.0,49.0,0.0,454.7813724000007,,,,,,,,,454.76946390001103,455.1317987000075,455.9334749000118,455.917111200004,455.9171484000108,455.9334749000118,455.9334749000118,455.9334749000118,,456.6027180000092,left,1.0,15.25336299999617,,,,,,,,,,,,,,,,,,,,,,,,,,,,,,sub-179,1.0,random_dot,59.97692087966552,
left,left,accuracy,,,,,0.0,1.0,1.0,0.0,25.0,0.0,50.0,0.0,456.61653140001,,,,,,,,,456.6044139000005,456.9669139000034,457.7684933000128,457.7520290000102,457.7520633000095,457.7684933000128,457.7684933000128,457.7684933000128,,458.57099630001176,left,1.0,15.3819727999944,,,,,,,,,,,,,,,,,,,,,,,,,,,,,,sub-179,1.0,random_dot,59.97692087966552,
right,right,accuracy,,,,,0.0,1.0,1.0,0.0,25.0,1.0,51.0,1.0,458.5847311000107,,,,,,,,,458.5726271000021,458.9351287000027,459.7367337000032,459.7204045000108,459.7204402000061,459.7367337000032,459.7367337000032,459.7367337000032,,460.4893329000042,right,1.0,15.3301145999867,,,,,,,,,,,,,,,,,,,,,,,,,,,,,,sub-179,1.0,random_dot,59.97692087966552,
right,right,accuracy,,,,,0.0,1.0,1.0,0.0,26.0,0.0,52.0,1.0,460.502926000001,,,,,,,,,460.4909232000064,461.3038229000085,462.1054194000026,462.088997800005,462.08903360000113,462.1054194000026,462.1054194000026,462.1054194000026,,462.8912539000012,right,1.0,15.369906499996432,,,,,,,,,,,,,,,,,,,,,,,,,,,,,,sub-179,1.0,random_dot,59.97692087966552,
left,left,accuracy,,,,,0.0,1.0,1.0,0.0,26.0,1.0,53.0,0.0,462.9050684000104,,,,,,,,,462.8929317000002,464.1060643000092,464.90781610000704,464.8914034000045,464.891440700012,464.90781610000704,464.90781610000704,464.90781610000704,,465.76058990000456,left,1.0,15.427978699997766,,,,,,,,,,,,,,,,,,,,,,,,,,,,,,sub-179,1.0,random_dot,59.97692087966552,
right,right,accuracy,,,,,0.0,1.0,1.0,0.0,27.0,0.0,54.0,1.0,465.7741066000017,,,,,,,,,465.76219800001127,465.8742746000062,466.67584320000606,466.6594317000127,466.65946800001257,466.67584320000606,466.67584320000606,466.67584320000606,,467.2618046000134,right,1.0,15.169608299984247,,,,,,,,,,,,,,,,,,,,,,,,,,,,,,sub-179,1.0,random_dot,59.97692087966552,
left,left,accuracy,,,,,0.0,1.0,1.0,0.0,27.0,1.0,55.0,0.0,467.2753909000021,,,,,,,,,467.26339460001327,467.6256076000136,468.42733710000175,468.4108881000138,468.4109233000054,468.42733710000175,468.42733710000175,468.42733710000175,,469.0307526000106,left,1.0,15.191127199999755,,,,,,,,,,,,,,,,,,,,,,,,,,,,,,sub-179,1.0,random_dot,59.97692087966552,
right,right,accuracy,,,,,0.0,1.0,1.0,0.0,28.0,0.0,56.0,1.0,469.0437307000102,,,,,,,,,469.0323533000046,469.84398230000807,470.6457245000056,470.6292280000053,470.6292647000082,470.6457245000056,470.6457245000056,470.6457245000056,,471.1316388000123,right,1.0,15.061059599989676,,,,,,,,,,,,,,,,,,,,,,,,,,,,,,sub-179,1.0,random_dot,59.97692087966552,
left,left,accuracy,,,,,0.0,1.0,1.0,0.0,28.0,1.0,57.0,0.0,471.1452003000013,,,,,,,,,471.1332846000005,471.4954972000123,472.2971817000071,472.2806314000045,472.2806693000021,472.2971817000071,472.2971817000071,472.2971817000071,,472.9164210000017,left,1.0,15.194261099997677,,,,,,,,,,,,,,,,,,,,,,,,,,,,,,sub-179,1.0,random_dot,59.97692087966552,
left,left,accuracy,,,,,0.0,1.0,1.0,0.0,29.0,0.0,58.0,0.0,472.9299358000135,,,,,,,,,472.9180471,473.7308199000108,474.5322530000121,474.51609210000606,474.5161283000052,474.5322530000121,474.5322530000121,474.5322530000121,,475.3017426000006,left,1.0,15.344655900000362,,,,,,,,,,,,,,,,,,,,,,,,,,,,,,sub-179,1.0,random_dot,59.97692087966552,
right,right,accuracy,,,,,0.0,1.0,1.0,0.0,29.0,1.0,59.0,1.0,475.3153816000122,,,,,,,,,475.3033706000133,476.516114500002,477.3179087000026,477.3014731000003,477.301509900004,477.3179087000026,477.3179087000026,477.3179087000026,,477.8871095000068,right,1.0,15.149506799993103,,,,,,,,,,,,,,,,,,,,,,,,,,,,,,sub-179,1.0,random_dot,59.97692087966552,
,,accuracy,,,,,0.0,1.0,1.0,0.0,,,,,,,,,,,,,,,,,,,,,,,,,,,,,,,,,,,,,,,,,,,,,,,,,,,,,,,,sub-179,1.0,random_dot,59.97692087966552,
,,,,,,,,,,,,,,,,,,,,,,,,,,,,,,,,,,,,,,,,,,,,,,,,,,,,,,,,,,,,,,,477.8884378000075,477.90099150000606,482.8886702000018,sub-179,,,,
