wordCTK,colorCTK,corrAnsCTK,congruentCTK,thisN,thisTrialN,thisRepN,keyResp_CTK.keys,keyResp_CTK.corr,keyResp_CTK.rt,keyResp_CTK.duration,wordPractice,colorPractice,corrAnsPractice,congruentPractice,respPractice.keys,respPractice.corr,respPractice.rt,respPractice.duration,word,color,corrAns,congruent,keyResp_test_run.keys,keyResp_test_run.corr,keyResp_test_run.rt,keyResp_test_run.duration,trials_CTK.thisRepN,trials_CTK.thisTrialN,trials_CTK.thisN,trials_CTK.thisIndex,trials_practice.thisRepN,trials_practice.thisTrialN,trials_practice.thisN,trials_practice.thisIndex,trials_test.thisRepN,trials_test.thisTrialN,trials_test.thisN,trials_test.thisIndex,thisRow.t,notes,instruction.started,instr_text.started,instr_image.started,instr_resp.started,instruction.stopped,instr_resp.keys,instr_resp.rt,instr_resp.duration,instr_color_to_key.started,instr_ctk.started,resp_ctk.started,instr_color_to_key.stopped,resp_ctk.keys,resp_ctk.rt,resp_ctk.duration,ITI.started,fixcross.started,fixcross.stopped,ITI.stopped,color_to_key_run.started,stimulus_CTK.started,keyResp_CTK.started,color_to_key_run.stopped,trials_CTK.keyResp_CTK.keys,trials_CTK.keyResp_CTK.corr,trials_CTK.keyResp_CTK.rt,trials_CTK.keyResp_CTK.duration,instr_practice.started,instr_practice_text.started,instr_practice_resp.started,instr_practice.stopped,instr_practice_resp.keys,instr_practice_resp.rt,instr_practice_resp.duration,practice_run.started,stimulus_practice.started,respPractice.started,practice_run.stopped,trials_practice.respPractice.keys,trials_practice.respPractice.corr,trials_practice.respPractice.rt,trials_practice.respPractice.duration,feedback.started,textFeedback.started,feedback.stopped,textFeedback.stopped,instr_test.started,instr_test_text.started,instr_test_resp.started,instr_test.stopped,instr_test_resp.keys,instr_test_resp.rt,instr_test_resp.duration,test_run.started,stimulus_test_run.started,keyResp_test_run.started,test_run.stopped,trials_test.keyResp_test_run.keys,trials_test.keyResp_test_run.corr,trials_test.keyResp_test_run.rt,trials_test.keyResp_test_run.duration,goodbye.started,textGoodbye.started,textGoodbye.stopped,goodbye.stopped,participant,session,expName,frameRate,Unnamed: 113
,,,,,,,,,,,,,,,,,,,,,,,,,,,,,,,,,,,,,,,,,0.0104645419924054,0.0170130420010536,0.0170130420010536,0.0170130420010536,20.065868375007994,space,20.026939041999867,,,,,,,,,,,,,,,,,,,,,,,,,,,,,,,,,,,,,,,,,,,,,,,,,,,,,,,,,,,sub-059,1,stroop_test,,
,,,,,,,,,,,,,,,,,,,,,,,,,,,,,,,,,,,,,,,,,,,,,,,,,20.06590404198505,20.084873666986823,20.084873666986823,25.698903916985728,space,5.611297083989484,,,,,,,,,,,,,,,,,,,,,,,,,,,,,,,,,,,,,,,,,,,,,,,,,,,,sub-059,1,stroop_test,,
test,blue,b,1.0,0.0,0.0,0.0,b,1.0,0.5442363750189543,,,,,,,,,,,,,,,,,,0.0,0.0,0.0,2.0,,,,,,,,,25.73730412501027,,,,,,,,,,,,,,,,,25.72007087498787,26.50440408400027,27.305264166992856,27.29085370901157,27.298515792004764,27.305264166992856,27.305264166992856,27.858799084002385,b,1.0,0.5442363750189543,,,,,,,,,,,,,,,,,,,,,,,,,,,,,,,,,,,,,,,,sub-059,1,stroop_test,,
test,yellow,g,1.0,1.0,1.0,0.0,g,1.0,0.595822125003906,,,,,,,,,,,,,,,,,,0.0,1.0,1.0,1.0,,,,,,,,,27.86927520899917,,,,,,,,,,,,,,,,,27.859407459007343,28.65670891699847,29.44895954200183,29.440978750004437,29.441749874997186,29.44895954200183,29.44895954200183,30.04756495900801,g,1.0,0.595822125003906,,,,,,,,,,,,,,,,,,,,,,,,,,,,,,,,,,,,,,,,sub-059,1,stroop_test,,
test,red,r,1.0,2.0,2.0,0.0,r,1.0,0.454153500002576,,,,,,,,,,,,,,,,,,0.0,2.0,2.0,0.0,,,,,,,,,30.058317458984675,,,,,,,,,,,,,,,,,30.048009041987825,31.24621495898464,32.03872179199243,32.02990808399045,32.03049974999158,32.03872179199243,32.03872179199243,32.49799804200302,r,1.0,0.454153500002576,,,,,,,,,,,,,,,,,,,,,,,,,,,,,,,,,,,,,,,,sub-059,1,stroop_test,,
test,red,r,1.0,3.0,0.0,1.0,r,1.0,0.4217156249796971,,,,,,,,,,,,,,,,,,1.0,0.0,3.0,0.0,,,,,,,,,32.50858579200576,,,,,,,,,,,,,,,,,32.49849545900361,32.84636804199545,33.63856070899055,33.630137458996614,33.63071516700438,33.63856070899055,33.63856070899055,34.06417508400045,r,1.0,0.4217156249796971,,,,,,,,,,,,,,,,,,,,,,,,,,,,,,,,,,,,,,,,sub-059,1,stroop_test,,
test,blue,b,1.0,4.0,1.0,1.0,b,1.0,0.6040080419916194,,,,,,,,,,,,,,,,,,1.0,1.0,4.0,2.0,,,,,,,,,34.075031166983536,,,,,,,,,,,,,,,,,34.06464529200457,34.86298091700883,35.6551933340088,35.64668466700823,35.647276250005234,35.6551933340088,35.6551933340088,36.26446445900365,b,1.0,0.6040080419916194,,,,,,,,,,,,,,,,,,,,,,,,,,,,,,,,,,,,,,,,sub-059,1,stroop_test,,
test,yellow,g,1.0,5.0,2.0,1.0,g,1.0,0.4822090840025339,,,,,,,,,,,,,,,,,,1.0,2.0,5.0,1.0,,,,,,,,,36.27555095899152,,,,,,,,,,,,,,,,,36.26497404198744,36.61331420901115,37.40518087500823,37.39662399998633,37.39721183400252,37.40518087500823,37.40518087500823,37.89192824999918,g,1.0,0.4822090840025339,,,,,,,,,,,,,,,,,,,,,,,,,,,,,,,,,,,,,,,,sub-059,1,stroop_test,,
test,red,r,1.0,6.0,0.0,2.0,r,1.0,0.6092222919978667,,,,,,,,,,,,,,,,,,2.0,0.0,6.0,0.0,,,,,,,,,37.90288870900986,,,,,,,,,,,,,,,,,37.89257779199397,38.69004554199637,39.481203625007765,39.47399425000185,39.474588292010594,39.481203625007765,39.481203625007765,40.093238708999706,r,1.0,0.6092222919978667,,,,,,,,,,,,,,,,,,,,,,,,,,,,,,,,,,,,,,,,sub-059,1,stroop_test,,
test,blue,b,1.0,7.0,1.0,2.0,b,1.0,0.3817168329842388,,,,,,,,,,,,,,,,,,2.0,1.0,7.0,2.0,,,,,,,,,40.10431412499747,,,,,,,,,,,,,,,,,40.0939630419889,40.89001095900312,41.68193758398411,41.67421295898384,41.67500849999488,41.68193758398411,41.68193758398411,42.075419417000376,b,1.0,0.3817168329842388,,,,,,,,,,,,,,,,,,,,,,,,,,,,,,,,,,,,,,,,sub-059,1,stroop_test,,
test,yellow,g,1.0,8.0,2.0,2.0,g,1.0,0.5220723749953322,,,,,,,,,,,,,,,,,,2.0,2.0,8.0,1.0,,,,,,,,,42.08663054200588,,,,,,,,,,,,,,,,,42.076135374984005,42.87322183398646,43.66545616698568,43.6575063749915,43.658272542001214,43.66545616698568,43.66545616698568,44.191942500008736,g,1.0,0.5220723749953322,,,,,,,,,,,,,,,,,,,,,,,,,,,,,,,,,,,,,,,,sub-059,1,stroop_test,,
test,yellow,g,1.0,9.0,0.0,3.0,g,1.0,0.6440174170129467,,,,,,,,,,,,,,,,,,3.0,0.0,9.0,1.0,,,,,,,,,44.2027653749974,,,,,,,,,,,,,,,,,44.19254629200441,44.28998570900876,45.08115820901003,45.0739364589972,45.07454649999272,45.08115820901003,45.08115820901003,45.7315251250111,g,1.0,0.6440174170129467,,,,,,,,,,,,,,,,,,,,,,,,,,,,,,,,,,,,,,,,sub-059,1,stroop_test,,
test,blue,b,1.0,10.0,1.0,3.0,b,1.0,0.6367081670032348,,,,,,,,,,,,,,,,,,3.0,1.0,10.0,2.0,,,,,,,,,45.74225554199074,,,,,,,,,,,,,,,,,45.73200812499272,45.83298474998446,46.63123070899746,46.623809666984016,46.62441604200285,46.63123070899746,46.63123070899746,47.27516345900949,b,1.0,0.6367081670032348,,,,,,,,,,,,,,,,,,,,,,,,,,,,,,,,,,,,,,,,sub-059,1,stroop_test,,
test,red,r,1.0,11.0,2.0,3.0,r,1.0,0.7760375420039054,,,,,,,,,,,,,,,,,,3.0,2.0,11.0,0.0,,,,,,,,,47.28591458400479,,,,,,,,,,,,,,,,,47.27571858398733,48.073106166993966,48.864785459009,48.857180166989565,48.85780254198471,48.864785459009,48.864785459009,49.65300358401146,r,1.0,0.7760375420039054,,,,,,,,,,,,,,,,,,,,,,,,,,,,,,,,,,,,,,,,sub-059,1,stroop_test,,
,,,,,,,,,,,,,,,,,,,,,,,,,,,,,,,,,,,,,,,,,,,,,,,,,,,,,,,,,,,,,,,,,,,,49.653196208993904,49.65964991698274,49.65964991698274,55.35835704198689,space,5.69067541701952,,,,,,,,,,,,,,,,,,,,,,,,,,,,,,,,,sub-059,1,stroop_test,,
,,,,0.0,0.0,0.0,,,,,blau,yellow,g,0.0,g,1.0,1.3530978750204667,,,,,,,,,,,,,,0.0,0.0,0.0,7.0,,,,,55.381426500011,,,,,,,,,,,,,,,,,55.373869875009404,56.15650670899777,56.955594667000696,56.94051583399414,,,,,,,,,,,,,,,,56.94808349999949,56.955594667000696,56.955594667000696,58.31492795899976,g,1.0,1.3530978750204667,,58.32449016699684,58.33415741700446,59.32326075001038,,,,,,,,,,,,,,,,,,,,,sub-059,1,stroop_test,,
,,,,1.0,1.0,0.0,,,,,gelb,yellow,g,1.0,g,1.0,0.8525791249994654,,,,,,,,,,,,,,0.0,1.0,1.0,11.0,,,,,59.32883108398528,,,,,,,,,,,,,,,,,59.32375112498994,59.662680916982936,60.4727930839872,60.4459388339892,,,,,,,,,,,,,,,,60.44956149999052,60.4727930839872,60.4727930839872,61.33059066699934,g,1.0,0.8525791249994654,,61.33136454198393,61.34225862499443,62.32939125000848,62.3396974169882,,,,,,,,,,,,,,,,,,,,sub-059,1,stroop_test,,
,,,,2.0,2.0,0.0,,,,,rot,blue,b,0.0,b,1.0,0.9480677919927984,,,,,,,,,,,,,,0.0,2.0,2.0,2.0,,,,,62.3396974169882,,,,,,,,,,,,,,,,,62.32979841699125,62.429339791997336,63.22572300001048,63.2132057499839,,,,,,,,,,,,,,,,63.21878629201092,63.22572300001048,63.22572300001048,64.18822774998262,b,1.0,0.9480677919927984,,64.18885849998333,64.19536454198533,65.17914633400505,65.18976108400966,,,,,,,,,,,,,,,,,,,,sub-059,1,stroop_test,,
,,,,3.0,3.0,0.0,,,,,gelb,yellow,g,1.0,g,1.0,0.8705317499989178,,,,,,,,,,,,,,0.0,3.0,3.0,10.0,,,,,65.18976108400966,,,,,,,,,,,,,,,,,65.17957104198285,65.98004158399999,66.78616545899422,66.77382450000732,,,,,,,,,,,,,,,,66.7784721670032,66.78616545899422,66.78616545899422,67.65923395898426,g,1.0,0.8705317499989178,,67.66029716699268,67.67111920900061,68.65703929201118,68.66247300000396,,,,,,,,,,,,,,,,,,,,sub-059,1,stroop_test,,
,,,,4.0,4.0,0.0,,,,,blau,blue,b,1.0,b,1.0,0.4656854579807259,,,,,,,,,,,,,,0.0,4.0,4.0,5.0,,,,,68.66247300000396,,,,,,,,,,,,,,,,,68.65746079199016,69.85628362500574,70.6519746670092,70.64033820899203,,,,,,,,,,,,,,,,70.64487550000194,70.6519746670092,70.6519746670092,71.12496345900581,b,1.0,0.4656854579807259,,71.12582737498451,71.13724354200531,72.12376395901083,72.12941583400243,,,,,,,,,,,,,,,,,,,,sub-059,1,stroop_test,,
,,,,5.0,5.0,0.0,,,,,gelb,red,r,0.0,r,1.0,1.0886332499794662,,,,,,,,,,,,,,0.0,5.0,5.0,8.0,,,,,72.12941583400243,,,,,,,,,,,,,,,,,72.1243143340107,72.47304470901145,73.2691184169962,73.25704012499773,,,,,,,,,,,,,,,,73.2622110839875,73.2691184169962,73.2691184169962,74.36436083400622,r,1.0,1.0886332499794662,,74.36505912500434,74.37762087499141,75.36286891700001,75.37296654199599,,,,,,,,,,,,,,,,,,,,sub-059,1,stroop_test,,
,,,,6.0,6.0,0.0,,,,,rot,red,r,1.0,r,1.0,0.623696791997645,,,,,,,,,,,,,,0.0,6.0,6.0,0.0,,,,,75.37296654199599,,,,,,,,,,,,,,,,,75.3632962089905,76.16244374998496,76.9577021249861,76.94620058400324,,,,,,,,,,,,,,,,76.9497722919914,76.9577021249861,76.9577021249861,77.59156037500361,r,1.0,0.623696791997645,,77.59242574998643,77.60388987499755,78.59029745898442,78.59547199998633,,,,,,,,,,,,,,,,,,,,sub-059,1,stroop_test,,
,,,,7.0,7.0,0.0,,,,,rot,yellow,g,0.0,g,1.0,0.9310639169998468,,,,,,,,,,,,,,0.0,7.0,7.0,3.0,,,,,78.59547199998633,,,,,,,,,,,,,,,,,78.59070699999575,79.38952633400913,80.18086770898663,80.17366420899634,,,,,,,,,,,,,,,,80.17426954201073,80.18086770898663,80.18086770898663,81.11459066698444,g,1.0,0.9310639169998468,,81.11540479198447,81.12713329200051,82.11200137500418,82.12289916700684,,,,,,,,,,,,,,,,,,,,sub-059,1,stroop_test,,
,,,,8.0,8.0,0.0,,,,,gelb,blue,b,0.0,b,1.0,0.5101879170106258,,,,,,,,,,,,,,0.0,8.0,8.0,9.0,,,,,82.12289916700684,,,,,,,,,,,,,,,,,82.11242379198666,82.2122828339925,83.0060218340077,82.99551408400293,,,,,,,,,,,,,,,,82.99912049999693,83.0060218340077,83.0060218340077,83.52488199999789,b,1.0,0.5101879170106258,,83.52576545899501,83.53669916698709,84.52354349999223,84.52922804199625,,,,,,,,,,,,,,,,,,,,sub-059,1,stroop_test,,
,,,,9.0,9.0,0.0,,,,,blau,red,r,0.0,r,1.0,0.6824288750067353,,,,,,,,,,,,,,0.0,9.0,9.0,4.0,,,,,84.52922804199625,,,,,,,,,,,,,,,,,84.52405824998277,84.8729167499987,85.66861020898796,85.65699908399256,,,,,,,,,,,,,,,,85.66156891698483,85.66861020898796,85.66861020898796,86.35816608398454,r,1.0,0.6824288750067353,,86.35913566700765,86.37022033400717,87.35685766700772,87.36227620899444,,,,,,,,,,,,,,,,,,,,sub-059,1,stroop_test,,
,,,,10.0,10.0,0.0,,,,,rot,red,r,1.0,r,1.0,0.7712807909992989,,,,,,,,,,,,,,0.0,10.0,10.0,1.0,,,,,87.36227620899444,,,,,,,,,,,,,,,,,87.35737933398923,87.45619979201001,88.25184124999214,88.24020933400607,,,,,,,,,,,,,,,,88.24445437500253,88.25184124999214,88.25184124999214,89.02581595900119,r,1.0,0.7712807909992989,,89.02677433399367,89.03814245900139,90.02354616700904,90.02924566698493,,,,,,,,,,,,,,,,,,,,sub-059,1,stroop_test,,
,,,,11.0,11.0,0.0,,,,,blau,blue,b,1.0,b,1.0,0.5339455830107909,,,,,,,,,,,,,,0.0,11.0,11.0,6.0,,,,,90.02924566698493,,,,,,,,,,,,,,,,,90.0240892090078,90.372757834004,91.16771270899336,91.156646583986,,,,,,,,,,,,,,,,91.16060974998982,91.16771270899336,91.16771270899336,91.70806904201164,b,1.0,0.5339455830107909,,91.70896374998848,91.71888591698372,92.7069940000074,92.7125863340043,,,,,,,,,,,,,,,,,,,,sub-059,1,stroop_test,,
,,,,12.0,0.0,1.0,,,,,blau,blue,b,1.0,b,1.0,0.393028917023912,,,,,,,,,,,,,,1.0,0.0,12.0,5.0,,,,,92.7125863340043,,,,,,,,,,,,,,,,,92.70753004201106,93.905985874997,94.69754024999564,94.69009770898263,,,,,,,,,,,,,,,,94.69082104199332,94.69754024999564,94.69754024999564,95.10219437500928,b,1.0,0.393028917023912,,95.10293699998874,95.10912820900558,96.09594670898514,96.10599149999324,,,,,,,,,,,,,,,,,,,,sub-059,1,stroop_test,,
,,,,13.0,1.0,1.0,,,,,gelb,yellow,g,1.0,g,1.0,0.6426207500044256,,,,,,,,,,,,,,1.0,1.0,13.0,10.0,,,,,96.10599149999324,,,,,,,,,,,,,,,,,96.0963369999954,97.29582112500792,98.09116824998635,98.07900033399346,,,,,,,,,,,,,,,,98.08343854200211,98.09116824998635,98.09116824998635,98.74099341698457,g,1.0,0.6426207500044256,,98.74164533399744,98.75150741700782,99.74018995900406,99.74588025000412,,,,,,,,,,,,,,,,,,,,sub-059,1,stroop_test,,
,,,,14.0,2.0,1.0,,,,,blau,yellow,g,0.0,g,1.0,0.994292957999278,,,,,,,,,,,,,,1.0,2.0,14.0,7.0,,,,,99.74588025000412,,,,,,,,,,,,,,,,,99.74071479198756,100.93921549999504,101.73445341701154,101.72335187499992,,,,,,,,,,,,,,,,101.72760395900696,101.73445341701154,101.73445341701154,102.73112650000256,g,1.0,0.994292957999278,,102.73194629198406,102.74360799998976,103.72925629199015,103.7393714589998,,,,,,,,,,,,,,,,,,,,sub-059,1,stroop_test,,
,,,,15.0,3.0,1.0,,,,,rot,yellow,g,0.0,g,1.0,1.014199916011421,,,,,,,,,,,,,,1.0,3.0,15.0,3.0,,,,,103.7393714589998,,,,,,,,,,,,,,,,,103.72966599999928,104.52952599999844,105.33511379201082,105.3233698749973,,,,,,,,,,,,,,,,105.32792516698828,105.33511379201082,105.33511379201082,106.3580040000088,g,1.0,1.014199916011421,,106.35899295899436,106.37008004199016,107.35652662499342,107.3621552499826,,,,,,,,,,,,,,,,,,,,sub-059,1,stroop_test,,
,,,,16.0,4.0,1.0,,,,,rot,red,r,1.0,r,1.0,0.8938866659882478,,,,,,,,,,,,,,1.0,4.0,16.0,0.0,,,,,107.3621552499826,,,,,,,,,,,,,,,,,107.35696362500312,107.70582316699438,108.49727504199836,108.4900009999983,,,,,,,,,,,,,,,,108.490624500002,108.49727504199836,108.49727504199836,109.39725462498608,r,1.0,0.8938866659882478,,109.39803320899956,109.40990737499668,110.39574691699818,110.40577300000588,,,,,,,,,,,,,,,,,,,,sub-059,1,stroop_test,,
,,,,17.0,5.0,1.0,,,,,rot,blue,b,0.0,b,1.0,0.5180122500169091,,,,,,,,,,,,,,1.0,5.0,17.0,2.0,,,,,110.40577300000588,,,,,,,,,,,,,,,,,110.39616929198382,111.59515091698267,112.38859308400424,112.37837004198808,,,,,,,,,,,,,,,,112.37893450001138,112.38859308400424,112.38859308400424,112.91932441698737,b,1.0,0.5180122500169091,,112.91988574998686,112.92587858400655,113.91287366699544,113.922467958997,,,,,,,,,,,,,,,,,,,,sub-059,1,stroop_test,,
,,,,18.0,6.0,1.0,,,,,rot,red,r,1.0,g,0.0,0.5350879580073524,,,,,,,,,,,,,,1.0,6.0,18.0,1.0,,,,,113.922467958997,,,,,,,,,,,,,,,,,113.91329687499092,114.71196004198282,115.50429787498432,115.49582750000992,,,,,,,,,,,,,,,,115.49637300000175,115.50429787498432,115.50429787498432,116.0426086249936,g,0.0,0.5350879580073524,,116.04943620899576,116.05888050000068,117.04465683398304,,,,,,,,,,,,,,,,,,,,,sub-059,1,stroop_test,,
,,,,19.0,7.0,1.0,,,,,gelb,yellow,g,1.0,g,1.0,0.4435557500110008,,,,,,,,,,,,,,1.0,7.0,19.0,11.0,,,,,117.05583925000974,,,,,,,,,,,,,,,,,117.04514858400216,117.83914937500958,118.63530266701127,118.62325949998922,,,,,,,,,,,,,,,,118.62788812498913,118.63530266701127,118.63530266701127,119.0812935839931,g,1.0,0.4435557500110008,,119.08668541698717,119.09771091700532,120.08922708398312,,,,,,,,,,,,,,,,,,,,,sub-059,1,stroop_test,,
,,,,20.0,8.0,1.0,,,,,blau,blue,b,1.0,b,1.0,0.6187931250024121,,,,,,,,,,,,,,1.0,8.0,20.0,6.0,,,,,120.09436979200107,,,,,,,,,,,,,,,,,120.08970424998552,120.17854841699592,120.9742308339919,120.9624361669994,,,,,,,,,,,,,,,,120.96737108399977,120.9742308339919,120.9742308339919,121.59700158398482,b,1.0,0.6187931250024121,,121.59782191700651,121.60967037500814,122.59569524999824,122.60569987498457,,,,,,,,,,,,,,,,,,,,sub-059,1,stroop_test,,
,,,,21.0,9.0,1.0,,,,,blau,red,r,0.0,r,1.0,0.8569157090096269,,,,,,,,,,,,,,1.0,9.0,21.0,4.0,,,,,122.60569987498457,,,,,,,,,,,,,,,,,122.5960992090113,122.69503766699928,123.48848770899347,123.47818141698372,,,,,,,,,,,,,,,,123.47878137498628,123.48848770899347,123.48848770899347,124.3477902089944,r,1.0,0.8569157090096269,,124.3488429170102,124.3596831249888,125.34552045899908,125.35571070900188,,,,,,,,,,,,,,,,,,,,sub-059,1,stroop_test,,
,,,,22.0,10.0,1.0,,,,,gelb,red,r,0.0,r,1.0,0.8735573749872856,,,,,,,,,,,,,,1.0,10.0,22.0,8.0,,,,,125.35571070900188,,,,,,,,,,,,,,,,,125.34593562499504,126.54621758399298,127.3511545000074,127.33978300000308,,,,,,,,,,,,,,,,127.34389054198982,127.3511545000074,127.3511545000074,128.2299390840053,r,1.0,0.8735573749872856,,128.23072379198857,128.2429415420047,129.2289127499971,129.23898091699812,,,,,,,,,,,,,,,,,,,,sub-059,1,stroop_test,,
,,,,23.0,11.0,1.0,,,,,gelb,blue,b,0.0,b,1.0,1.0020395829924382,,,,,,,,,,,,,,1.0,11.0,23.0,9.0,,,,,129.23898091699812,,,,,,,,,,,,,,,,,129.22933295898838,130.42944141698536,131.22078083400265,131.21247299999231,,,,,,,,,,,,,,,,131.21305733401095,131.22078083400265,131.22078083400265,132.22589104200597,b,1.0,1.0020395829924382,,132.22690795900417,132.23771575000137,133.22319520899327,133.23125970899127,,,,,,,,,,,,,,,,,,,,sub-059,1,stroop_test,,
,,,,,,,,,,,,,,,,,,,,,,,,,,,,,,,,,,,,,,,,,,,,,,,,,,,,,,,,,,,,,,,,,,,,,,,,,,,,,,,,,,,,,,,133.22339349999675,133.23125970899127,133.23125970899127,141.44077579199802,space,8.205042374989716,,,,,,,,,,,,,,sub-059,1,stroop_test,,
,,,,0.0,0.0,0.0,,,,,,,,,,,,,blau,yellow,g,0.0,g,1.0,0.8382554589770734,,,,,,,,,,0.0,0.0,0.0,7.0,141.46403787500458,,,,,,,,,,,,,,,,,141.457181167003,142.63886595898657,143.43427224998595,143.42281970899785,,,,,,,,,,,,,,,,,,,,,,,,,,,,,,,,,,,143.42722466698615,143.43427224998595,143.43427224998595,144.27561729200534,g,1.0,0.8382554589770734,,,,,,sub-059,1,stroop_test,,
,,,,1.0,1.0,0.0,,,,,,,,,,,,,blau,blue,b,1.0,b,1.0,0.8918337080103811,,,,,,,,,,0.0,1.0,1.0,6.0,144.2862232089974,,,,,,,,,,,,,,,,,144.27636483398965,144.62239766700077,145.4137896669854,145.4061370420095,,,,,,,,,,,,,,,,,,,,,,,,,,,,,,,,,,,145.40686749998713,145.4137896669854,145.4137896669854,146.30834233399946,b,1.0,0.8918337080103811,,,,,,sub-059,1,stroop_test,,
,,,,2.0,2.0,0.0,,,,,,,,,,,,,rot,yellow,g,0.0,g,1.0,1.2104077500116546,,,,,,,,,,0.0,2.0,2.0,3.0,146.31885179199162,,,,,,,,,,,,,,,,,146.30908316699788,146.65543608399457,147.45107937499415,147.4394760839932,,,,,,,,,,,,,,,,,,,,,,,,,,,,,,,,,,,147.4438147089968,147.45107937499415,147.45107937499415,148.66397754198988,g,1.0,1.2104077500116546,,,,,,sub-059,1,stroop_test,,
,,,,3.0,3.0,0.0,,,,,,,,,,,,,rot,red,r,1.0,r,1.0,0.7557649170048535,,,,,,,,,,0.0,3.0,3.0,1.0,148.6741181249963,,,,,,,,,,,,,,,,,148.66457741698832,149.86227354200673,150.65422687499083,150.64539220900042,,,,,,,,,,,,,,,,,,,,,,,,,,,,,,,,,,,150.6459845420031,150.65422687499083,150.65422687499083,151.41363304198603,r,1.0,0.7557649170048535,,,,,,sub-059,1,stroop_test,,
,,,,4.0,4.0,0.0,,,,,,,,,,,,,rot,blue,b,0.0,b,1.0,0.9079734999977518,,,,,,,,,,0.0,4.0,4.0,2.0,151.42385799999465,,,,,,,,,,,,,,,,,151.41417166698375,151.5120858339942,152.30385633400874,152.29541208400042,,,,,,,,,,,,,,,,,,,,,,,,,,,,,,,,,,,152.29601250000997,152.30385633400874,152.30385633400874,153.22406208398752,b,1.0,0.9079734999977518,,,,,,sub-059,1,stroop_test,,
,,,,5.0,5.0,0.0,,,,,,,,,,,,,blau,red,r,0.0,r,1.0,0.905731167003978,,,,,,,,,,0.0,5.0,5.0,4.0,153.23855762500898,,,,,,,,,,,,,,,,,153.22442145898822,153.57215600000927,154.36858504198608,154.35622579199844,,,,,,,,,,,,,,,,,,,,,,,,,,,,,,,,,,,154.36158891700325,154.36858504198608,154.36858504198608,155.27981737500522,r,1.0,0.905731167003978,,,,,,sub-059,1,stroop_test,,
,,,,6.0,6.0,0.0,,,,,,,,,,,,,gelb,yellow,g,1.0,g,1.0,0.3740250840201042,,,,,,,,,,0.0,6.0,6.0,11.0,155.2901756670035,,,,,,,,,,,,,,,,,155.28034558400395,156.07794341701083,156.87361820900696,156.86197579200962,,,,,,,,,,,,,,,,,,,,,,,,,,,,,,,,,,,156.86556949999067,156.87361820900696,156.87361820900696,157.2574252919876,g,1.0,0.3740250840201042,,,,,,sub-059,1,stroop_test,,
,,,,7.0,7.0,0.0,,,,,,,,,,,,,gelb,blue,b,0.0,b,1.0,0.6028924169950187,,,,,,,,,,0.0,7.0,7.0,9.0,157.26742516699596,,,,,,,,,,,,,,,,,157.2580859999871,157.60532524998416,158.39716525000404,158.38940933399135,,,,,,,,,,,,,,,,,,,,,,,,,,,,,,,,,,,158.39017237498774,158.39716525000404,158.39716525000404,159.0073766669957,b,1.0,0.6028924169950187,,,,,,sub-059,1,stroop_test,,
,,,,8.0,8.0,0.0,,,,,,,,,,,,,rot,red,r,1.0,r,1.0,0.5311111669871025,,,,,,,,,,0.0,8.0,8.0,0.0,159.01743445900502,,,,,,,,,,,,,,,,,159.00801604200387,159.1051870000083,159.90108933398733,159.88952816699748,,,,,,,,,,,,,,,,,,,,,,,,,,,,,,,,,,,159.89379537498462,159.90108933398733,159.90108933398733,160.44065541698365,r,1.0,0.5311111669871025,,,,,,sub-059,1,stroop_test,,
,,,,9.0,9.0,0.0,,,,,,,,,,,,,gelb,red,r,0.0,r,1.0,1.0069078330125194,,,,,,,,,,0.0,9.0,9.0,8.0,160.45113354199566,,,,,,,,,,,,,,,,,160.44131374999415,161.23852808400989,162.0337782499846,162.0226696250029,,,,,,,,,,,,,,,,,,,,,,,,,,,,,,,,,,,162.0266496250115,162.0337782499846,162.0337782499846,163.0460326669854,r,1.0,1.0069078330125194,,,,,,sub-059,1,stroop_test,,
,,,,10.0,10.0,0.0,,,,,,,,,,,,,gelb,yellow,g,1.0,g,1.0,0.6207663749810308,,,,,,,,,,0.0,10.0,10.0,10.0,163.0569746250112,,,,,,,,,,,,,,,,,163.0465830419853,163.8455222499906,164.64702595898416,164.63925941698835,,,,,,,,,,,,,,,,,,,,,,,,,,,,,,,,,,,164.64003979199333,164.64702595898416,164.64702595898416,165.27406487500411,g,1.0,0.6207663749810308,,,,,,sub-059,1,stroop_test,,
,,,,11.0,11.0,0.0,,,,,,,,,,,,,blau,blue,b,1.0,b,1.0,0.4793465420079883,,,,,,,,,,0.0,11.0,11.0,5.0,165.2839733749861,,,,,,,,,,,,,,,,,165.27472062499146,166.07199050000054,166.8677355000109,166.85600020899437,,,,,,,,,,,,,,,,,,,,,,,,,,,,,,,,,,,166.86054058399168,166.8677355000109,166.8677355000109,167.3573258339893,b,1.0,0.4793465420079883,,,,,,sub-059,1,stroop_test,,
,,,,12.0,0.0,1.0,,,,,,,,,,,,,rot,red,r,1.0,r,1.0,0.5960682499862742,,,,,,,,,,1.0,0.0,12.0,1.0,167.36745770898415,,,,,,,,,,,,,,,,,167.35798295898712,168.1552842920064,168.95120820900777,168.93956420899485,,,,,,,,,,,,,,,,,,,,,,,,,,,,,,,,,,,168.94352100000833,168.95120820900777,168.95120820900777,169.55706416699104,r,1.0,0.5960682499862742,,,,,,sub-059,1,stroop_test,,
,,,,13.0,1.0,1.0,,,,,,,,,,,,,gelb,red,r,0.0,r,1.0,1.056619832990691,,,,,,,,,,1.0,1.0,13.0,8.0,169.56716083400534,,,,,,,,,,,,,,,,,169.55772029201034,170.75511920900317,171.55201270899852,171.53921391698532,,,,,,,,,,,,,,,,,,,,,,,,,,,,,,,,,,,171.54497083398746,171.55201270899852,171.55201270899852,172.61290741700213,r,1.0,1.056619832990691,,,,,,sub-059,1,stroop_test,,
,,,,14.0,2.0,1.0,,,,,,,,,,,,,rot,blue,b,0.0,b,1.0,0.6321552910085302,,,,,,,,,,1.0,2.0,14.0,2.0,172.6231474590022,,,,,,,,,,,,,,,,,172.61346679198323,173.41194604200427,174.2066713339882,174.19509654201102,,,,,,,,,,,,,,,,,,,,,,,,,,,,,,,,,,,174.19866716698743,174.2066713339882,174.2066713339882,174.84096812500502,b,1.0,0.6321552910085302,,,,,,sub-059,1,stroop_test,,
,,,,15.0,3.0,1.0,,,,,,,,,,,,,gelb,yellow,g,1.0,g,1.0,0.6100507919909433,,,,,,,,,,1.0,3.0,15.0,10.0,174.8493744590087,,,,,,,,,,,,,,,,,174.84162791699055,174.93865616701078,175.73348395898938,175.72244887499255,,,,,,,,,,,,,,,,,,,,,,,,,,,,,,,,,,,175.7264261250093,175.73348395898938,175.73348395898938,176.34629616700113,g,1.0,0.6100507919909433,,,,,,sub-059,1,stroop_test,,
,,,,16.0,4.0,1.0,,,,,,,,,,,,,blau,blue,b,1.0,b,1.0,0.5585615829913877,,,,,,,,,,1.0,4.0,16.0,5.0,176.35664112499217,,,,,,,,,,,,,,,,,176.34685458400054,177.14456812498975,177.95499966701027,177.9281159999955,,,,,,,,,,,,,,,,,,,,,,,,,,,,,,,,,,,177.9317324589938,177.95499966701027,177.95499966701027,178.52345795900328,b,1.0,0.5585615829913877,,,,,,sub-059,1,stroop_test,,
,,,,17.0,5.0,1.0,,,,,,,,,,,,,blau,yellow,g,0.0,g,1.0,0.7521094999974594,,,,,,,,,,1.0,5.0,17.0,7.0,178.53543962500407,,,,,,,,,,,,,,,,,178.52426083400496,179.32186387499678,180.113964166987,180.10589270899072,,,,,,,,,,,,,,,,,,,,,,,,,,,,,,,,,,,180.1066814590013,180.113964166987,180.113964166987,180.8736828750116,g,1.0,0.7521094999974594,,,,,,sub-059,1,stroop_test,,
,,,,18.0,6.0,1.0,,,,,,,,,,,,,gelb,yellow,g,1.0,g,1.0,0.6430839170061518,,,,,,,,,,1.0,6.0,18.0,11.0,180.8853539999982,,,,,,,,,,,,,,,,,180.87446612500932,180.9716382089828,181.7673926249845,181.75576104200445,,,,,,,,,,,,,,,,,,,,,,,,,,,,,,,,,,,181.76022741699128,181.7673926249845,181.7673926249845,182.4133797920076,g,1.0,0.6430839170061518,,,,,,sub-059,1,stroop_test,,
,,,,19.0,7.0,1.0,,,,,,,,,,,,,blau,red,r,0.0,r,1.0,0.9050298749934882,,,,,,,,,,1.0,7.0,19.0,4.0,182.42421937501055,,,,,,,,,,,,,,,,,182.41394079200109,182.51056437499935,183.3066652920097,183.295280041988,,,,,,,,,,,,,,,,,,,,,,,,,,,,,,,,,,,183.29900166700827,183.3066652920097,183.3066652920097,184.2248404590064,r,1.0,0.9050298749934882,,,,,,sub-059,1,stroop_test,,
,,,,20.0,8.0,1.0,,,,,,,,,,,,,rot,red,r,1.0,r,1.0,0.4993834579945542,,,,,,,,,,1.0,8.0,20.0,0.0,184.2382219999854,,,,,,,,,,,,,,,,,184.2252245839918,184.57160187500995,185.36729908399863,185.35567499999888,,,,,,,,,,,,,,,,,,,,,,,,,,,,,,,,,,,185.3601560000097,185.36729908399863,185.36729908399863,185.873572084005,r,1.0,0.4993834579945542,,,,,,sub-059,1,stroop_test,,
,,,,21.0,9.0,1.0,,,,,,,,,,,,,gelb,blue,b,0.0,b,1.0,0.6200290420092642,,,,,,,,,,1.0,9.0,21.0,9.0,185.88476912499755,,,,,,,,,,,,,,,,,185.87421495901071,186.67167795900605,187.47003283401136,187.4556655419874,,,,,,,,,,,,,,,,,,,,,,,,,,,,,,,,,,,187.4630248750036,187.47003283401136,187.47003283401136,188.09579420898808,b,1.0,0.6200290420092642,,,,,,sub-059,1,stroop_test,,
,,,,22.0,10.0,1.0,,,,,,,,,,,,,rot,yellow,g,0.0,g,1.0,0.9327047920087352,,,,,,,,,,1.0,10.0,22.0,3.0,188.10693366700437,,,,,,,,,,,,,,,,,188.0963099169894,188.4442611669947,189.23969129199395,189.22815745900152,,,,,,,,,,,,,,,,,,,,,,,,,,,,,,,,,,,189.23184345898332,189.23969129199395,189.23969129199395,190.18589445899124,g,1.0,0.9327047920087352,,,,,,sub-059,1,stroop_test,,
,,,,23.0,11.0,1.0,,,,,,,,,,,,,blau,blue,b,1.0,b,1.0,0.5655845000001136,,,,,,,,,,1.0,11.0,23.0,6.0,190.18980091699632,,,,,,,,,,,,,,,,,190.18633054199745,190.97767258400563,191.77307674998883,191.7613751250028,,,,,,,,,,,,,,,,,,,,,,,,,,,,,,,,,,,191.7649917090021,191.77307674998883,191.77307674998883,192.342056124995,b,1.0,0.5655845000001136,,,,,,sub-059,1,stroop_test,,
,,,,24.0,0.0,2.0,,,,,,,,,,,,,blau,yellow,g,0.0,g,1.0,1.0590717919985764,,,,,,,,,,2.0,0.0,24.0,7.0,192.3531308340025,,,,,,,,,,,,,,,,,192.34270629199452,192.4381914169935,193.23004175000824,193.2224489999935,,,,,,,,,,,,,,,,,,,,,,,,,,,,,,,,,,,193.22320558398496,193.23004175000824,193.23004175000824,194.30124299999443,g,1.0,1.0590717919985764,,,,,,sub-059,1,stroop_test,,
,,,,25.0,1.0,2.0,,,,,,,,,,,,,gelb,yellow,g,1.0,g,1.0,0.9388421250041574,,,,,,,,,,2.0,1.0,25.0,11.0,194.30691449998997,,,,,,,,,,,,,,,,,194.30172424999185,195.09441133399375,195.8896911669872,195.8780525839829,,,,,,,,,,,,,,,,,,,,,,,,,,,,,,,,,,,195.8816809999989,195.8896911669872,195.8896911669872,196.8414490839932,g,1.0,0.9388421250041574,,,,,,sub-059,1,stroop_test,,
,,,,26.0,2.0,2.0,,,,,,,,,,,,,rot,red,r,1.0,r,1.0,0.5908692499797326,,,,,,,,,,2.0,2.0,26.0,1.0,196.8548165000102,,,,,,,,,,,,,,,,,196.84189445900847,197.63825791698764,198.4336002499913,198.42224679200444,,,,,,,,,,,,,,,,,,,,,,,,,,,,,,,,,,,198.4264269169944,198.4336002499913,198.4336002499913,199.02958841700456,r,1.0,0.5908692499797326,,,,,,sub-059,1,stroop_test,,
,,,,27.0,3.0,2.0,,,,,,,,,,,,,rot,yellow,g,0.0,g,1.0,0.9745142500032672,,,,,,,,,,2.0,3.0,27.0,3.0,199.04029549998813,,,,,,,,,,,,,,,,,199.03013545900467,199.1271477919945,199.92137008399004,199.9103637090011,,,,,,,,,,,,,,,,,,,,,,,,,,,,,,,,,,,199.9109369170037,199.92137008399004,199.92137008399004,200.90686408398324,g,1.0,0.9745142500032672,,,,,,sub-059,1,stroop_test,,
,,,,28.0,4.0,2.0,,,,,,,,,,,,,rot,red,r,1.0,r,1.0,0.8217731670010835,,,,,,,,,,2.0,4.0,28.0,0.0,200.9177493340103,,,,,,,,,,,,,,,,,200.90748349999197,201.00477800000223,201.79683029200527,201.78913045898665,,,,,,,,,,,,,,,,,,,,,,,,,,,,,,,,,,,201.789888542,201.79683029200527,201.79683029200527,202.6233793339925,r,1.0,0.8217731670010835,,,,,,sub-059,1,stroop_test,,
,,,,29.0,5.0,2.0,,,,,,,,,,,,,blau,blue,b,1.0,b,1.0,0.5218845409981441,,,,,,,,,,2.0,5.0,29.0,5.0,202.63437824998985,,,,,,,,,,,,,,,,,202.6239835419983,203.42156987500493,204.217128416989,204.2057586250012,,,,,,,,,,,,,,,,,,,,,,,,,,,,,,,,,,,204.210142750002,204.217128416989,204.217128416989,204.75301758400747,b,1.0,0.5218845409981441,,,,,,sub-059,1,stroop_test,,
,,,,30.0,6.0,2.0,,,,,,,,,,,,,blau,red,r,0.0,r,1.0,1.112537874985719,,,,,,,,,,2.0,6.0,30.0,4.0,204.75779962498927,,,,,,,,,,,,,,,,,204.75347070899443,204.84399704198583,205.63694558400312,205.6275078339968,,,,,,,,,,,,,,,,,,,,,,,,,,,,,,,,,,,205.62808200001015,205.63694558400312,205.63694558400312,206.75683604198275,r,1.0,1.112537874985719,,,,,,sub-059,1,stroop_test,,
,,,,31.0,7.0,2.0,,,,,,,,,,,,,gelb,red,r,0.0,r,1.0,1.2218887920025736,,,,,,,,,,2.0,7.0,31.0,8.0,206.7677292499866,,,,,,,,,,,,,,,,,206.7574720839912,206.85484437498965,207.6509119590046,207.6388343340077,,,,,,,,,,,,,,,,,,,,,,,,,,,,,,,,,,,207.64392962498823,207.6509119590046,207.6509119590046,208.87952720900648,r,1.0,1.2218887920025736,,,,,,sub-059,1,stroop_test,,
,,,,32.0,8.0,2.0,,,,,,,,,,,,,gelb,yellow,g,1.0,g,1.0,0.7138939580181614,,,,,,,,,,2.0,8.0,32.0,10.0,208.8902993749944,,,,,,,,,,,,,,,,,208.88006066699745,210.07779191699228,210.86989979198552,210.8618084169866,,,,,,,,,,,,,,,,,,,,,,,,,,,,,,,,,,,210.8624039590068,210.86989979198552,210.86989979198552,211.5899264590116,g,1.0,0.7138939580181614,,,,,,sub-059,1,stroop_test,,
,,,,33.0,9.0,2.0,,,,,,,,,,,,,gelb,blue,b,0.0,b,1.0,0.5263635409937706,,,,,,,,,,2.0,9.0,33.0,9.0,211.5993842919997,,,,,,,,,,,,,,,,,211.59047358398675,212.3880211249925,213.1798601670016,213.17209962499328,,,,,,,,,,,,,,,,,,,,,,,,,,,,,,,,,,,213.17286504199728,213.1798601670016,213.1798601670016,213.7175575419969,b,1.0,0.5263635409937706,,,,,,sub-059,1,stroop_test,,
,,,,34.0,10.0,2.0,,,,,,,,,,,,,blau,blue,b,1.0,b,1.0,0.8517658750060946,,,,,,,,,,2.0,10.0,34.0,6.0,213.72334825000144,,,,,,,,,,,,,,,,,213.7181134999846,214.51075749998563,215.30438383400903,215.29379354199045,,,,,,,,,,,,,,,,,,,,,,,,,,,,,,,,,,,215.29740466698425,215.30438383400903,215.30438383400903,216.16248724999605,b,1.0,0.8517658750060946,,,,,,sub-059,1,stroop_test,,
,,,,35.0,11.0,2.0,,,,,,,,,,,,,rot,blue,b,0.0,b,1.0,1.1556454169913195,,,,,,,,,,2.0,11.0,35.0,2.0,216.1733729999978,,,,,,,,,,,,,,,,,216.1630411669903,217.36157779200585,218.16651795900543,218.1551244170114,,,,,,,,,,,,,,,,,,,,,,,,,,,,,,,,,,,218.1589382090024,218.16651795900543,218.16651795900543,219.3332288340025,b,1.0,1.1556454169913195,,,,,,sub-059,1,stroop_test,,
,,,,36.0,0.0,3.0,,,,,,,,,,,,,rot,red,r,1.0,r,1.0,0.5091292090073694,,,,,,,,,,3.0,0.0,36.0,0.0,219.33935950000887,,,,,,,,,,,,,,,,,219.33369450000464,220.1280092500092,220.9292287499993,220.92198370900587,,,,,,,,,,,,,,,,,,,,,,,,,,,,,,,,,,,220.9225820419961,220.9292287499993,220.9292287499993,221.4408719589992,r,1.0,0.5091292090073694,,,,,,sub-059,1,stroop_test,,
,,,,37.0,1.0,3.0,,,,,,,,,,,,,rot,yellow,g,0.0,g,1.0,0.6916630000050645,,,,,,,,,,3.0,1.0,37.0,3.0,221.45129941700725,,,,,,,,,,,,,,,,,221.44154391699703,221.537773374992,222.32982470898423,222.32211095900857,,,,,,,,,,,,,,,,,,,,,,,,,,,,,,,,,,,222.32290829200065,222.32982470898423,222.32982470898423,223.0239823340089,g,1.0,0.6916630000050645,,,,,,sub-059,1,stroop_test,,
,,,,38.0,2.0,3.0,,,,,,,,,,,,,blau,blue,b,1.0,b,1.0,0.4382640419935342,,,,,,,,,,3.0,2.0,38.0,6.0,223.03428345898283,,,,,,,,,,,,,,,,,223.0246614589996,223.3712396250048,224.16644033399643,224.15513762499904,,,,,,,,,,,,,,,,,,,,,,,,,,,,,,,,,,,224.15949954200187,224.16644033399643,224.16644033399643,224.60741283401148,b,1.0,0.4382640419935342,,,,,,sub-059,1,stroop_test,,
,,,,39.0,3.0,3.0,,,,,,,,,,,,,gelb,blue,b,0.0,b,1.0,0.7548484579892829,,,,,,,,,,3.0,3.0,39.0,9.0,224.6176773750049,,,,,,,,,,,,,,,,,224.6080914170016,225.40459679201007,226.200376666995,226.18886479199864,,,,,,,,,,,,,,,,,,,,,,,,,,,,,,,,,,,226.19338541699108,226.200376666995,226.200376666995,226.9683704999916,b,1.0,0.7548484579892829,,,,,,sub-059,1,stroop_test,,
,,,,40.0,4.0,3.0,,,,,,,,,,,,,rot,red,r,1.0,r,1.0,0.6152561659982894,,,,,,,,,,3.0,4.0,40.0,1.0,226.9725335839903,,,,,,,,,,,,,,,,,226.96879975000047,227.7606357089826,228.5560964999895,228.544604041992,,,,,,,,,,,,,,,,,,,,,,,,,,,,,,,,,,,228.54812104199664,228.5560964999895,228.5560964999895,229.1738365420024,r,1.0,0.6152561659982894,,,,,,sub-059,1,stroop_test,,
,,,,41.0,5.0,3.0,,,,,,,,,,,,,blau,blue,b,1.0,b,1.0,0.5860394169867504,,,,,,,,,,3.0,5.0,41.0,5.0,229.1841965419881,,,,,,,,,,,,,,,,,229.1745282089978,229.2712090839923,230.06894712499343,230.0555704169965,,,,,,,,,,,,,,,,,,,,,,,,,,,,,,,,,,,230.0618731249997,230.06894712499343,230.06894712499343,230.657553291996,b,1.0,0.5860394169867504,,,,,,sub-059,1,stroop_test,,
,,,,42.0,6.0,3.0,,,,,,,,,,,,,blau,yellow,g,0.0,g,1.0,0.6026609170075972,,,,,,,,,,3.0,6.0,42.0,7.0,230.6679878750001,,,,,,,,,,,,,,,,,230.65825129198493,230.75441674998729,231.5462951670052,231.5387596669898,,,,,,,,,,,,,,,,,,,,,,,,,,,,,,,,,,,231.53953804200864,231.5462951670052,231.5462951670052,232.15652145899367,g,1.0,0.6026609170075972,,,,,,sub-059,1,stroop_test,,
,,,,43.0,7.0,3.0,,,,,,,,,,,,,gelb,yellow,g,1.0,g,1.0,0.6628271249937825,,,,,,,,,,3.0,7.0,43.0,10.0,232.16680312500105,,,,,,,,,,,,,,,,,232.1571544590115,232.25446979200933,233.04951795900703,233.03841999999716,,,,,,,,,,,,,,,,,,,,,,,,,,,,,,,,,,,233.04253591698944,233.04951795900703,233.04951795900703,233.72294012500788,g,1.0,0.6628271249937825,,,,,,sub-059,1,stroop_test,,
,,,,44.0,8.0,3.0,,,,,,,,,,,,,gelb,yellow,g,1.0,g,1.0,0.4447188749909401,,,,,,,,,,3.0,8.0,44.0,11.0,233.73286124999868,,,,,,,,,,,,,,,,,233.72355058399265,234.07112762500765,234.86326508398636,234.85537216698867,,,,,,,,,,,,,,,,,,,,,,,,,,,,,,,,,,,234.8561599169916,234.86326508398636,234.86326508398636,235.3124267089879,g,1.0,0.4447188749909401,,,,,,sub-059,1,stroop_test,,
,,,,45.0,9.0,3.0,,,,,,,,,,,,,gelb,red,r,0.0,r,1.0,0.7372545409889426,,,,,,,,,,3.0,9.0,45.0,8.0,235.3224701670115,,,,,,,,,,,,,,,,,235.31295787499403,235.6605061669834,236.46357658400663,236.4555091249931,,,,,,,,,,,,,,,,,,,,,,,,,,,,,,,,,,,236.45631208398845,236.46357658400663,236.46357658400663,237.20652508400963,r,1.0,0.7372545409889426,,,,,,sub-059,1,stroop_test,,
,,,,46.0,10.0,3.0,,,,,,,,,,,,,rot,blue,b,0.0,b,1.0,0.8713811249763239,,,,,,,,,,3.0,10.0,46.0,2.0,237.21863787499024,,,,,,,,,,,,,,,,,237.2073981249996,238.0043386250036,238.80058445900795,238.78843083398533,,,,,,,,,,,,,,,,,,,,,,,,,,,,,,,,,,,238.7931657090085,238.80058445900795,238.80058445900795,239.68428670900173,b,1.0,0.8713811249763239,,,,,,sub-059,1,stroop_test,,
,,,,47.0,11.0,3.0,,,,,,,,,,,,,blau,red,r,0.0,b,0.0,0.9377787910052576,,,,,,,,,,3.0,11.0,47.0,4.0,239.6897379999864,,,,,,,,,,,,,,,,,239.68479145900343,240.02794245898255,240.8337385419873,240.82189024999388,,,,,,,,,,,,,,,,,,,,,,,,,,,,,,,,,,,240.82652562498697,240.8337385419873,240.8337385419873,241.7745669170108,b,0.0,0.9377787910052576,,,,,,sub-059,1,stroop_test,,
,,,,48.0,0.0,4.0,,,,,,,,,,,,,gelb,red,r,0.0,r,1.0,0.6903329160122667,,,,,,,,,,4.0,0.0,48.0,8.0,241.7863432499871,,,,,,,,,,,,,,,,,241.7753908750019,242.9710035840108,243.7664720840112,243.75500691699563,,,,,,,,,,,,,,,,,,,,,,,,,,,,,,,,,,,243.75942616700195,243.7664720840112,243.7664720840112,244.46225820900872,r,1.0,0.6903329160122667,,,,,,sub-059,1,stroop_test,,
,,,,49.0,1.0,4.0,,,,,,,,,,,,,blau,yellow,g,0.0,g,1.0,0.8387455419870093,,,,,,,,,,4.0,1.0,49.0,7.0,244.47338329200284,,,,,,,,,,,,,,,,,244.4628511669871,245.6606870419928,246.45630724998773,246.44452158399508,,,,,,,,,,,,,,,,,,,,,,,,,,,,,,,,,,,246.4482017919945,246.45630724998773,246.45630724998773,247.30623487499545,g,1.0,0.8387455419870093,,,,,,sub-059,1,stroop_test,,
,,,,50.0,2.0,4.0,,,,,,,,,,,,,gelb,yellow,g,1.0,g,1.0,0.6147626250167377,,,,,,,,,,4.0,2.0,50.0,10.0,247.3177879999857,,,,,,,,,,,,,,,,,247.30696120898935,247.40421375000733,248.20163241701084,248.18860983400373,,,,,,,,,,,,,,,,,,,,,,,,,,,,,,,,,,,248.19461341699932,248.20163241701084,248.20163241701084,248.82287145900773,g,1.0,0.6147626250167377,,,,,,sub-059,1,stroop_test,,
,,,,51.0,3.0,4.0,,,,,,,,,,,,,blau,red,r,0.0,r,1.0,0.7990825000160839,,,,,,,,,,4.0,3.0,51.0,4.0,248.83226320898396,,,,,,,,,,,,,,,,,248.82346620899625,249.17094837498732,249.9669886670017,249.9550207919965,,,,,,,,,,,,,,,,,,,,,,,,,,,,,,,,,,,249.95967366700643,249.9669886670017,249.9669886670017,250.77327249999507,r,1.0,0.7990825000160839,,,,,,sub-059,1,stroop_test,,
,,,,52.0,4.0,4.0,,,,,,,,,,,,,rot,red,r,1.0,r,1.0,0.6708180420100689,,,,,,,,,,4.0,4.0,52.0,0.0,250.78356495898333,,,,,,,,,,,,,,,,,250.7740629169857,251.5710159169976,252.3669624169997,252.35502074999383,,,,,,,,,,,,,,,,,,,,,,,,,,,,,,,,,,,252.3594951670093,252.3669624169997,252.3669624169997,253.04042020899945,r,1.0,0.6708180420100689,,,,,,sub-059,1,stroop_test,,
,,,,53.0,5.0,4.0,,,,,,,,,,,,,rot,blue,b,0.0,b,1.0,0.7786215829837602,,,,,,,,,,4.0,5.0,53.0,2.0,253.05081733400584,,,,,,,,,,,,,,,,,253.0412006250117,253.1374944999989,253.9284319999861,253.9214034169854,,,,,,,,,,,,,,,,,,,,,,,,,,,,,,,,,,,253.92199920900748,253.9284319999861,253.9284319999861,254.71265187498648,b,1.0,0.7786215829837602,,,,,,sub-059,1,stroop_test,,
,,,,54.0,6.0,4.0,,,,,,,,,,,,,blau,blue,b,1.0,b,1.0,0.5631814160151407,,,,,,,,,,4.0,6.0,54.0,6.0,254.72270808400933,,,,,,,,,,,,,,,,,254.7132182919886,254.8097160840116,255.6040280000016,255.59340066698496,,,,,,,,,,,,,,,,,,,,,,,,,,,,,,,,,,,255.5970378750062,255.6040280000016,255.6040280000016,256.1726764589839,b,1.0,0.5631814160151407,,,,,,sub-059,1,stroop_test,,
,,,,55.0,7.0,4.0,,,,,,,,,,,,,rot,red,r,1.0,r,1.0,0.5659432079992257,,,,,,,,,,4.0,7.0,55.0,1.0,256.18279458399047,,,,,,,,,,,,,,,,,256.173391083983,257.3709547499893,258.1671028340061,258.15506941700005,,,,,,,,,,,,,,,,,,,,,,,,,,,,,,,,,,,258.15960887499386,258.1671028340061,258.1671028340061,258.7396892920078,r,1.0,0.5659432079992257,,,,,,sub-059,1,stroop_test,,
,,,,56.0,8.0,4.0,,,,,,,,,,,,,blau,blue,b,1.0,b,1.0,0.532123875018442,,,,,,,,,,4.0,8.0,56.0,5.0,258.7492067499843,,,,,,,,,,,,,,,,,258.7403760839952,259.08739945900743,259.8821882919874,259.8713232919981,,,,,,,,,,,,,,,,,,,,,,,,,,,,,,,,,,,259.87519308400806,259.8821882919874,259.8821882919874,260.4228265419952,b,1.0,0.532123875018442,,,,,,sub-059,1,stroop_test,,
,,,,57.0,9.0,4.0,,,,,,,,,,,,,gelb,blue,b,0.0,b,1.0,0.8013561249827035,,,,,,,,,,4.0,9.0,57.0,9.0,260.432869124983,,,,,,,,,,,,,,,,,260.42358608398354,260.77079404200776,261.5667971250077,261.55495312498533,,,,,,,,,,,,,,,,,,,,,,,,,,,,,,,,,,,261.5596018749929,261.5667971250077,261.5667971250077,262.37286754199886,b,1.0,0.8013561249827035,,,,,,sub-059,1,stroop_test,,
,,,,58.0,10.0,4.0,,,,,,,,,,,,,rot,yellow,g,0.0,g,1.0,0.6901451250014361,,,,,,,,,,4.0,10.0,58.0,3.0,262.38077458398766,,,,,,,,,,,,,,,,,262.37337149999803,263.1708306669898,263.96801733400207,263.954939208983,,,,,,,,,,,,,,,,,,,,,,,,,,,,,,,,,,,263.9607226669905,263.96801733400207,263.96801733400207,264.6622707089992,g,1.0,0.6901451250014361,,,,,,sub-059,1,stroop_test,,
,,,,59.0,11.0,4.0,,,,,,,,,,,,,gelb,yellow,g,1.0,g,1.0,0.4551693749963306,,,,,,,,,,4.0,11.0,59.0,11.0,264.67207462500664,,,,,,,,,,,,,,,,,264.6628643749864,265.4609662090079,266.26582974998746,266.2545009169844,,,,,,,,,,,,,,,,,,,,,,,,,,,,,,,,,,,266.25856666700565,266.26582974998746,266.26582974998746,266.723498834006,g,1.0,0.4551693749963306,,,,,,sub-059,1,stroop_test,,
,,,,60.0,0.0,5.0,,,,,,,,,,,,,rot,red,r,1.0,r,1.0,0.5386075830028858,,,,,,,,,,5.0,0.0,60.0,1.0,266.7334172499832,,,,,,,,,,,,,,,,,266.72421720900456,267.9206527089991,268.71570233401144,268.7045723339834,,,,,,,,,,,,,,,,,,,,,,,,,,,,,,,,,,,268.7083559590101,268.71570233401144,268.71570233401144,269.2569985839946,r,1.0,0.5386075830028858,,,,,,sub-059,1,stroop_test,,
,,,,61.0,1.0,5.0,,,,,,,,,,,,,rot,red,r,1.0,r,1.0,0.5683082909963559,,,,,,,,,,5.0,1.0,61.0,0.0,269.2670069169835,,,,,,,,,,,,,,,,,269.2576990840025,270.05397991699283,270.8458366669947,270.8380722919828,,,,,,,,,,,,,,,,,,,,,,,,,,,,,,,,,,,270.83881845898577,270.8458366669947,270.8458366669947,271.4227545419999,r,1.0,0.5683082909963559,,,,,,sub-059,1,stroop_test,,
,,,,62.0,2.0,5.0,,,,,,,,,,,,,gelb,red,r,0.0,r,1.0,1.054723457986256,,,,,,,,,,5.0,2.0,62.0,8.0,271.43273387500085,,,,,,,,,,,,,,,,,271.42347099998733,271.7706314169918,272.5663687500055,272.5547430419829,,,,,,,,,,,,,,,,,,,,,,,,,,,,,,,,,,,272.55938029199024,272.5663687500055,272.5663687500055,273.624025083991,r,1.0,1.054723457986256,,,,,,sub-059,1,stroop_test,,
,,,,63.0,3.0,5.0,,,,,,,,,,,,,gelb,yellow,g,1.0,g,1.0,0.6964082500198856,,,,,,,,,,5.0,3.0,63.0,11.0,273.6338971249934,,,,,,,,,,,,,,,,,273.6247389999917,273.7206528339884,274.5115590420028,274.5045270840056,,,,,,,,,,,,,,,,,,,,,,,,,,,,,,,,,,,274.50511704199016,274.5115590420028,274.5115590420028,275.2116074170044,g,1.0,0.6964082500198856,,,,,,sub-059,1,stroop_test,,
,,,,64.0,4.0,5.0,,,,,,,,,,,,,blau,blue,b,1.0,b,1.0,0.5602758750028443,,,,,,,,,,5.0,4.0,64.0,6.0,275.2222397089936,,,,,,,,,,,,,,,,,275.2121411249973,276.41000012500444,277.2054725420021,277.19387554199784,,,,,,,,,,,,,,,,,,,,,,,,,,,,,,,,,,,277.1975241249893,277.2054725420021,277.2054725420021,277.7725830420095,b,1.0,0.5602758750028443,,,,,,sub-059,1,stroop_test,,
,,,,65.0,5.0,5.0,,,,,,,,,,,,,gelb,blue,b,0.0,b,1.0,1.2249760830018204,,,,,,,,,,5.0,5.0,65.0,9.0,277.78236766700866,,,,,,,,,,,,,,,,,277.77324462498655,278.9705421249964,279.76621470900136,279.7545922920108,,,,,,,,,,,,,,,,,,,,,,,,,,,,,,,,,,,279.75922016700497,279.76621470900136,279.76621470900136,280.99517970898887,b,1.0,1.2249760830018204,,,,,,sub-059,1,stroop_test,,
,,,,66.0,6.0,5.0,,,,,,,,,,,,,blau,yellow,g,0.0,g,1.0,1.0586946659896057,,,,,,,,,,5.0,6.0,66.0,7.0,281.0051335419994,,,,,,,,,,,,,,,,,280.99575025000377,281.3436250000086,282.13910637499066,282.12679816700984,,,,,,,,,,,,,,,,,,,,,,,,,,,,,,,,,,,282.13188075000653,282.13910637499066,282.13910637499066,283.20588908399804,g,1.0,1.0586946659896057,,,,,,sub-059,1,stroop_test,,
,,,,67.0,7.0,5.0,,,,,,,,,,,,,blau,blue,b,1.0,b,1.0,0.5967109159973916,,,,,,,,,,5.0,7.0,67.0,5.0,283.2161305419868,,,,,,,,,,,,,,,,,283.2065441669838,283.5539222919906,284.3457614170038,284.33799450000515,,,,,,,,,,,,,,,,,,,,,,,,,,,,,,,,,,,284.33875562500907,284.3457614170038,284.3457614170038,284.9450911250024,b,1.0,0.5967109159973916,,,,,,sub-059,1,stroop_test,,
,,,,68.0,8.0,5.0,,,,,,,,,,,,,rot,yellow,g,0.0,g,1.0,1.171812749991659,,,,,,,,,,5.0,8.0,68.0,3.0,284.95508862499264,,,,,,,,,,,,,,,,,284.94560566698783,285.04275866699754,285.8387150419876,285.82739958399907,,,,,,,,,,,,,,,,,,,,,,,,,,,,,,,,,,,285.8309586670075,285.8387150419876,285.8387150419876,287.02283145900583,g,1.0,1.171812749991659,,,,,,sub-059,1,stroop_test,,
,,,,69.0,9.0,5.0,,,,,,,,,,,,,rot,blue,b,0.0,b,1.0,0.8176436670182738,,,,,,,,,,5.0,9.0,69.0,2.0,287.03634520899504,,,,,,,,,,,,,,,,,287.02317229198525,287.12042441699305,287.9124776670069,287.9046576250112,,,,,,,,,,,,,,,,,,,,,,,,,,,,,,,,,,,287.9054093339946,287.9124776670069,287.9124776670069,288.7390579170024,b,1.0,0.8176436670182738,,,,,,sub-059,1,stroop_test,,
,,,,70.0,10.0,5.0,,,,,,,,,,,,,gelb,yellow,g,1.0,g,1.0,0.5660162919957656,,,,,,,,,,5.0,10.0,70.0,10.0,288.74900566699216,,,,,,,,,,,,,,,,,288.7396282090049,288.8371080420038,289.6345038340078,289.62118524999823,,,,,,,,,,,,,,,,,,,,,,,,,,,,,,,,,,,289.6258270420076,289.6345038340078,289.6345038340078,290.20585941700847,g,1.0,0.5660162919957656,,,,,,sub-059,1,stroop_test,,
,,,,71.0,11.0,5.0,,,,,,,,,,,,,blau,red,r,0.0,r,1.0,0.5936954169883393,,,,,,,,,,5.0,11.0,71.0,4.0,290.2157945839863,,,,,,,,,,,,,,,,,290.20646424998995,290.3038741250057,291.0995982500026,291.0880199589883,,,,,,,,,,,,,,,,,,,,,,,,,,,,,,,,,,,291.09252179198666,291.0995982500026,291.0995982500026,291.6956304589985,r,1.0,0.5936954169883393,,,,,,sub-059,1,stroop_test,,
,,,,72.0,0.0,6.0,,,,,,,,,,,,,blau,blue,b,1.0,b,1.0,0.5836140000028536,,,,,,,,,,6.0,0.0,72.0,6.0,291.7059961250052,,,,,,,,,,,,,,,,,291.6962650420028,292.0433154999919,292.8457222500001,292.83792504199664,,,,,,,,,,,,,,,,,,,,,,,,,,,,,,,,,,,292.8386779589928,292.8457222500001,292.8457222500001,293.43921504198806,b,1.0,0.5836140000028536,,,,,,sub-059,1,stroop_test,,
,,,,73.0,1.0,6.0,,,,,,,,,,,,,gelb,yellow,g,1.0,g,1.0,0.547230333002517,,,,,,,,,,6.0,1.0,73.0,11.0,293.44937283400213,,,,,,,,,,,,,,,,,293.4398623750021,294.2370059170062,295.032982292003,295.0214325420093,,,,,,,,,,,,,,,,,,,,,,,,,,,,,,,,,,,295.0259981249983,295.032982292003,295.032982292003,295.58892949999426,g,1.0,0.547230333002517,,,,,,sub-059,1,stroop_test,,
,,,,74.0,2.0,6.0,,,,,,,,,,,,,rot,red,r,1.0,r,1.0,0.5001487910049036,,,,,,,,,,6.0,2.0,74.0,1.0,295.5987072499993,,,,,,,,,,,,,,,,,295.5895203340042,295.68722737499047,296.4829262089916,296.47119512499194,,,,,,,,,,,,,,,,,,,,,,,,,,,,,,,,,,,296.47567695900216,296.4829262089916,296.4829262089916,296.9886909170018,r,1.0,0.5001487910049036,,,,,,sub-059,1,stroop_test,,
,,,,75.0,3.0,6.0,,,,,,,,,,,,,rot,blue,b,0.0,b,1.0,0.7246498329914175,,,,,,,,,,6.0,3.0,75.0,2.0,296.99663754200446,,,,,,,,,,,,,,,,,296.98918658398907,297.7870369169977,298.5792082499829,298.5710449999897,,,,,,,,,,,,,,,,,,,,,,,,,,,,,,,,,,,298.5718564169947,298.5792082499829,298.5792082499829,299.30639937499654,b,1.0,0.7246498329914175,,,,,,sub-059,1,stroop_test,,
,,,,76.0,4.0,6.0,,,,,,,,,,,,,rot,yellow,g,0.0,g,1.0,0.5524235829943791,,,,,,,,,,6.0,4.0,76.0,3.0,299.318029291986,,,,,,,,,,,,,,,,,299.3072498750116,299.40359316699323,300.19548554200446,300.18768070900114,,,,,,,,,,,,,,,,,,,,,,,,,,,,,,,,,,,300.18843308399664,300.19548554200446,300.19548554200446,300.7556859590113,g,1.0,0.5524235829943791,,,,,,sub-059,1,stroop_test,,
,,,,77.0,5.0,6.0,,,,,,,,,,,,,rot,red,r,1.0,r,1.0,0.4667363329790532,,,,,,,,,,6.0,5.0,77.0,0.0,300.76736729199183,,,,,,,,,,,,,,,,,300.7564767499862,301.10364412498893,301.8948446669965,301.8875840420078,,,,,,,,,,,,,,,,,,,,,,,,,,,,,,,,,,,301.8881841670081,301.8948446669965,301.8948446669965,302.3721844170068,r,1.0,0.4667363329790532,,,,,,sub-059,1,stroop_test,,
,,,,78.0,6.0,6.0,,,,,,,,,,,,,blau,red,r,0.0,r,1.0,1.3557819169946017,,,,,,,,,,6.0,6.0,78.0,4.0,302.3838689999829,,,,,,,,,,,,,,,,,302.3729479169997,303.1703795419889,303.9675117919978,303.95437254200806,,,,,,,,,,,,,,,,,,,,,,,,,,,,,,,,,,,303.9603648750053,303.9675117919978,303.9675117919978,305.3274381250085,r,1.0,1.3557819169946017,,,,,,sub-059,1,stroop_test,,
,,,,79.0,7.0,6.0,,,,,,,,,,,,,blau,blue,b,1.0,b,1.0,0.5863589170039631,,,,,,,,,,6.0,7.0,79.0,5.0,305.3360119170102,,,,,,,,,,,,,,,,,305.3278205420065,305.42587783400086,306.21915037499275,306.20978983398527,,,,,,,,,,,,,,,,,,,,,,,,,,,,,,,,,,,306.2103589999897,306.21915037499275,306.21915037499275,306.81050975000835,b,1.0,0.5863589170039631,,,,,,sub-059,1,stroop_test,,
,,,,80.0,8.0,6.0,,,,,,,,,,,,,gelb,yellow,g,1.0,g,1.0,0.5404432500072289,,,,,,,,,,6.0,8.0,80.0,10.0,306.8194183339947,,,,,,,,,,,,,,,,,306.8110309999902,306.90970816698973,307.70519233398954,307.69364437498734,,,,,,,,,,,,,,,,,,,,,,,,,,,,,,,,,,,307.6972445420106,307.70519233398954,307.70519233398954,308.2558349169849,g,1.0,0.5404432500072289,,,,,,sub-059,1,stroop_test,,
,,,,81.0,9.0,6.0,,,,,,,,,,,,,gelb,blue,b,0.0,b,1.0,0.783409457973903,,,,,,,,,,6.0,9.0,81.0,9.0,308.265610041999,,,,,,,,,,,,,,,,,308.25650908399257,309.4536720000033,310.2445769170008,310.237497833994,,,,,,,,,,,,,,,,,,,,,,,,,,,,,,,,,,,310.23812633400667,310.2445769170008,310.2445769170008,311.0388743749936,b,1.0,0.783409457973903,,,,,,sub-059,1,stroop_test,,
,,,,82.0,10.0,6.0,,,,,,,,,,,,,gelb,red,r,0.0,g,0.0,0.8667982920014765,,,,,,,,,,6.0,10.0,82.0,8.0,311.0491337499989,,,,,,,,,,,,,,,,,311.03962408399093,311.3869196669839,312.17902524999226,312.17099912499543,,,,,,,,,,,,,,,,,,,,,,,,,,,,,,,,,,,312.1717540420068,312.17902524999226,312.17902524999226,313.05575316699105,g,0.0,0.8667982920014765,,,,,,sub-059,1,stroop_test,,
,,,,83.0,11.0,6.0,,,,,,,,,,,,,blau,yellow,g,0.0,g,1.0,0.9217548749875276,,,,,,,,,,6.0,11.0,83.0,7.0,313.0662159170024,,,,,,,,,,,,,,,,,313.05655583398766,313.8534354589938,314.6491533340013,314.63767487500445,,,,,,,,,,,,,,,,,,,,,,,,,,,,,,,,,,,314.64192529200227,314.6491533340013,314.6491533340013,315.58467129198834,g,1.0,0.9217548749875276,,,,,,sub-059,1,stroop_test,,
,,,,84.0,0.0,7.0,,,,,,,,,,,,,rot,yellow,g,0.0,g,1.0,1.152556665998418,,,,,,,,,,7.0,0.0,84.0,3.0,315.5887184590101,,,,,,,,,,,,,,,,,315.58514654199826,315.6756359169958,316.4717055000074,316.4602939169854,,,,,,,,,,,,,,,,,,,,,,,,,,,,,,,,,,,316.4638419589901,316.4717055000074,316.4717055000074,317.6289811669849,g,1.0,1.152556665998418,,,,,,sub-059,1,stroop_test,,
,,,,85.0,1.0,7.0,,,,,,,,,,,,,gelb,yellow,g,1.0,g,1.0,0.5029144580184948,,,,,,,,,,7.0,1.0,85.0,10.0,317.639296459005,,,,,,,,,,,,,,,,,317.6295474169892,318.426076208998,319.22166762501,319.2100814169971,,,,,,,,,,,,,,,,,,,,,,,,,,,,,,,,,,,319.2137356250023,319.22166762501,319.22166762501,319.7278802089859,g,1.0,0.5029144580184948,,,,,,sub-059,1,stroop_test,,
,,,,86.0,2.0,7.0,,,,,,,,,,,,,gelb,yellow,g,1.0,g,1.0,0.429265957995085,,,,,,,,,,7.0,2.0,86.0,11.0,319.73832104200847,,,,,,,,,,,,,,,,,319.7284536669904,320.52646083399304,321.3292412919982,321.3210797919892,,,,,,,,,,,,,,,,,,,,,,,,,,,,,,,,,,,321.32205729201087,321.3292412919982,321.3292412919982,321.7610959169979,g,1.0,0.429265957995085,,,,,,sub-059,1,stroop_test,,
,,,,87.0,3.0,7.0,,,,,,,,,,,,,rot,red,r,1.0,r,1.0,0.5487458330171648,,,,,,,,,,7.0,3.0,87.0,1.0,321.771506124991,,,,,,,,,,,,,,,,,321.76163929200266,321.8592647500045,322.6549713340064,322.64336591699976,,,,,,,,,,,,,,,,,,,,,,,,,,,,,,,,,,,322.6469731249963,322.6549713340064,322.6549713340064,323.2063066670089,r,1.0,0.5487458330171648,,,,,,sub-059,1,stroop_test,,
,,,,88.0,4.0,7.0,,,,,,,,,,,,,gelb,red,r,0.0,r,1.0,0.931460124993464,,,,,,,,,,7.0,4.0,88.0,8.0,323.2167063750094,,,,,,,,,,,,,,,,,323.2070641669852,324.00365025000065,324.8003952500003,324.7875272500096,,,,,,,,,,,,,,,,,,,,,,,,,,,,,,,,,,,324.79340762499487,324.8003952500003,324.8003952500003,325.73865912499605,r,1.0,0.931460124993464,,,,,,sub-059,1,stroop_test,,
,,,,89.0,5.0,7.0,,,,,,,,,,,,,blau,blue,b,1.0,b,1.0,0.6492714579799213,,,,,,,,,,7.0,5.0,89.0,5.0,325.7492921249941,,,,,,,,,,,,,,,,,325.7393516669981,326.5367097920098,327.332466708991,327.3207874590007,,,,,,,,,,,,,,,,,,,,,,,,,,,,,,,,,,,327.32512187500834,327.332466708991,327.332466708991,327.988644750003,b,1.0,0.6492714579799213,,,,,,sub-059,1,stroop_test,,
,,,,90.0,6.0,7.0,,,,,,,,,,,,,rot,blue,b,0.0,r,0.0,1.2415855420113076,,,,,,,,,,7.0,6.0,90.0,2.0,327.99911683399114,,,,,,,,,,,,,,,,,327.98939183400944,328.7867448749894,329.5826851250022,329.5707820839889,,,,,,,,,,,,,,,,,,,,,,,,,,,,,,,,,,,329.5752521670074,329.5826851250022,329.5826851250022,330.8279563749966,r,0.0,1.2415855420113076,,,,,,sub-059,1,stroop_test,,
,,,,91.0,7.0,7.0,,,,,,,,,,,,,gelb,blue,b,0.0,b,1.0,0.7772957500128541,,,,,,,,,,7.0,7.0,91.0,9.0,330.8386606670101,,,,,,,,,,,,,,,,,330.828543791984,331.6259371250053,332.43628916700254,332.4095439169905,,,,,,,,,,,,,,,,,,,,,,,,,,,,,,,,,,,332.4131920840009,332.43628916700254,332.43628916700254,333.22234945898526,b,1.0,0.7772957500128541,,,,,,sub-059,1,stroop_test,,
,,,,92.0,8.0,7.0,,,,,,,,,,,,,blau,red,r,0.0,r,1.0,1.2340862500132062,,,,,,,,,,7.0,8.0,92.0,4.0,333.2343362919928,,,,,,,,,,,,,,,,,333.223203208996,334.0198378750065,334.8160809999972,334.80424958400545,,,,,,,,,,,,,,,,,,,,,,,,,,,,,,,,,,,334.8089879170002,334.8160809999972,334.8160809999972,336.0555183750112,r,1.0,1.2340862500132062,,,,,,sub-059,1,stroop_test,,
,,,,93.0,9.0,7.0,,,,,,,,,,,,,blau,blue,b,1.0,b,1.0,0.6438505410042126,,,,,,,,,,7.0,9.0,93.0,6.0,336.0671107500093,,,,,,,,,,,,,,,,,336.0562937500072,336.4035349999904,337.1946565840044,337.187208791991,,,,,,,,,,,,,,,,,,,,,,,,,,,,,,,,,,,337.18781066700467,337.1946565840044,337.1946565840044,337.8442861670046,b,1.0,0.6438505410042126,,,,,,sub-059,1,stroop_test,,
,,,,94.0,10.0,7.0,,,,,,,,,,,,,blau,yellow,g,0.0,g,1.0,1.185452499979874,,,,,,,,,,7.0,10.0,94.0,7.0,337.8556084169832,,,,,,,,,,,,,,,,,337.8448532499897,337.94214058399666,338.7352644169878,338.7261409169878,,,,,,,,,,,,,,,,,,,,,,,,,,,,,,,,,,,338.72672120900825,338.7352644169878,338.7352644169878,339.93508208400453,g,1.0,1.185452499979874,,,,,,sub-059,1,stroop_test,,
,,,,95.0,11.0,7.0,,,,,,,,,,,,,rot,red,r,1.0,r,1.0,0.8225609160144813,,,,,,,,,,7.0,11.0,95.0,0.0,339.9394308750052,,,,,,,,,,,,,,,,,339.93554604199016,341.1258672089898,341.9213687919837,341.90983320900705,,,,,,,,,,,,,,,,,,,,,,,,,,,,,,,,,,,341.91346312500536,341.9213687919837,341.9213687919837,342.7564368339954,r,1.0,0.8225609160144813,,,,,,sub-059,1,stroop_test,,
,,,,96.0,0.0,8.0,,,,,,,,,,,,,blau,blue,b,1.0,b,1.0,0.6785942080023233,,,,,,,,,,8.0,0.0,96.0,6.0,342.76981912500923,,,,,,,,,,,,,,,,,342.7569294999994,342.8530871249968,343.6494979999843,343.63718829199206,,,,,,,,,,,,,,,,,,,,,,,,,,,,,,,,,,,343.6426371249836,343.6494979999843,343.6494979999843,344.338479166996,b,1.0,0.6785942080023233,,,,,,sub-059,1,stroop_test,,
,,,,97.0,1.0,8.0,,,,,,,,,,,,,rot,yellow,g,0.0,g,1.0,1.3747147920075804,,,,,,,,,,8.0,1.0,97.0,3.0,344.3500824169896,,,,,,,,,,,,,,,,,344.33920975000365,344.68655320900143,345.48246891700546,345.470598541986,,,,,,,,,,,,,,,,,,,,,,,,,,,,,,,,,,,345.4752241669921,345.48246891700546,345.48246891700546,346.8616540420044,g,1.0,1.3747147920075804,,,,,,sub-059,1,stroop_test,,
,,,,98.0,2.0,8.0,,,,,,,,,,,,,gelb,red,r,0.0,r,1.0,1.23828937500366,,,,,,,,,,8.0,2.0,98.0,8.0,346.87483583399444,,,,,,,,,,,,,,,,,346.8622545840044,348.05974379199324,348.85451141698286,348.842990834004,,,,,,,,,,,,,,,,,,,,,,,,,,,,,,,,,,,348.84669158401084,348.85451141698286,348.85451141698286,350.0952417500084,r,1.0,1.23828937500366,,,,,,sub-059,1,stroop_test,,
,,,,99.0,3.0,8.0,,,,,,,,,,,,,blau,red,r,0.0,r,1.0,0.6239993330091238,,,,,,,,,,8.0,3.0,99.0,4.0,350.107831500005,,,,,,,,,,,,,,,,,350.09584079199703,350.1921395419922,350.9878493750002,350.97634104199824,,,,,,,,,,,,,,,,,,,,,,,,,,,,,,,,,,,350.9799711669912,350.9878493750002,350.9878493750002,351.6218214999826,r,1.0,0.6239993330091238,,,,,,sub-059,1,stroop_test,,
,,,,100.0,4.0,8.0,,,,,,,,,,,,,rot,blue,b,0.0,b,1.0,0.7933013339934405,,,,,,,,,,8.0,4.0,100.0,2.0,351.63275620900095,,,,,,,,,,,,,,,,,351.6225716669869,352.8197741250042,353.6139346249984,353.6036952089926,,,,,,,,,,,,,,,,,,,,,,,,,,,,,,,,,,,353.6073463339999,353.6139346249984,353.6139346249984,354.41168841699255,b,1.0,0.7933013339934405,,,,,,sub-059,1,stroop_test,,
,,,,101.0,5.0,8.0,,,,,,,,,,,,,blau,blue,b,1.0,b,1.0,0.5342985829920508,,,,,,,,,,8.0,5.0,101.0,5.0,354.42375137499766,,,,,,,,,,,,,,,,,354.4122779169993,355.20960674999515,356.0194729589857,355.99300841699005,,,,,,,,,,,,,,,,,,,,,,,,,,,,,,,,,,,355.9965742919885,356.0194729589857,356.0194729589857,356.5669378339953,b,1.0,0.5342985829920508,,,,,,sub-059,1,stroop_test,,
,,,,102.0,6.0,8.0,,,,,,,,,,,,,rot,red,r,1.0,r,1.0,0.4932340410014149,,,,,,,,,,8.0,6.0,102.0,1.0,356.5710789170116,,,,,,,,,,,,,,,,,356.5673542919976,357.3603807920008,358.1664374170068,358.1540755419992,,,,,,,,,,,,,,,,,,,,,,,,,,,,,,,,,,,358.1586911249906,358.1664374170068,358.1664374170068,358.66228575000423,r,1.0,0.4932340410014149,,,,,,sub-059,1,stroop_test,,
,,,,103.0,7.0,8.0,,,,,,,,,,,,,rot,red,r,1.0,r,1.0,0.4718982499907724,,,,,,,,,,8.0,7.0,103.0,0.0,358.6749522089958,,,,,,,,,,,,,,,,,358.6630304169957,358.75931087500066,359.56020112498663,359.5538777500042,,,,,,,,,,,,,,,,,,,,,,,,,,,,,,,,,,,359.55439187499,359.56020112498663,359.56020112498663,360.03790512500564,r,1.0,0.4718982499907724,,,,,,sub-059,1,stroop_test,,
,,,,104.0,8.0,8.0,,,,,,,,,,,,,gelb,yellow,g,1.0,g,1.0,0.4515661670011468,,,,,,,,,,8.0,8.0,104.0,11.0,360.04602379200514,,,,,,,,,,,,,,,,,360.03835229200195,360.3865011669986,361.182706749998,361.17013529199176,,,,,,,,,,,,,,,,,,,,,,,,,,,,,,,,,,,361.1757209589996,361.182706749998,361.182706749998,361.638382834004,g,1.0,0.4515661670011468,,,,,,sub-059,1,stroop_test,,
,,,,105.0,9.0,8.0,,,,,,,,,,,,,gelb,yellow,g,1.0,g,1.0,0.6547956250142306,,,,,,,,,,8.0,9.0,105.0,10.0,361.6486801249848,,,,,,,,,,,,,,,,,361.6390441250114,362.8363248750102,363.6282447089907,363.6206419589871,,,,,,,,,,,,,,,,,,,,,,,,,,,,,,,,,,,363.6214292919904,363.6282447089907,363.6282447089907,364.28881329199066,g,1.0,0.6547956250142306,,,,,,sub-059,1,stroop_test,,
,,,,106.0,10.0,8.0,,,,,,,,,,,,,gelb,blue,b,0.0,b,1.0,0.98723087500548,,,,,,,,,,8.0,10.0,106.0,9.0,364.2996974170092,,,,,,,,,,,,,,,,,364.2895842499856,365.4862482919998,366.27786916701007,366.2702254590113,,,,,,,,,,,,,,,,,,,,,,,,,,,,,,,,,,,366.27090725000016,366.27786916701007,366.27786916701007,367.2716973339848,b,1.0,0.98723087500548,,,,,,sub-059,1,stroop_test,,
,,,,107.0,11.0,8.0,,,,,,,,,,,,,blau,yellow,g,0.0,g,1.0,1.143855749978684,,,,,,,,,,8.0,11.0,107.0,7.0,367.2825281670084,,,,,,,,,,,,,,,,,367.2723916670074,367.3696832499991,368.1644833750033,368.1534066250024,,,,,,,,,,,,,,,,,,,,,,,,,,,,,,,,,,,368.1572721249832,368.1644833750033,368.1644833750033,369.3111976670043,g,1.0,1.143855749978684,,,,,,sub-059,1,stroop_test,,
,,,,108.0,0.0,9.0,,,,,,,,,,,,,rot,red,r,1.0,r,1.0,0.6737846249889117,,,,,,,,,,9.0,0.0,108.0,1.0,369.3219291669957,,,,,,,,,,,,,,,,,369.31175404199166,370.5089471669926,371.31915245900746,371.2924520419911,,,,,,,,,,,,,,,,,,,,,,,,,,,,,,,,,,,371.29598845899454,371.31915245900746,371.31915245900746,372.0044819169853,r,1.0,0.6737846249889117,,,,,,sub-059,1,stroop_test,,
,,,,109.0,1.0,9.0,,,,,,,,,,,,,gelb,yellow,g,1.0,g,1.0,0.6306602499971632,,,,,,,,,,9.0,1.0,109.0,10.0,372.0099629999895,,,,,,,,,,,,,,,,,372.0049609589914,372.1028447920107,372.89837295899633,372.8869095419941,,,,,,,,,,,,,,,,,,,,,,,,,,,,,,,,,,,372.89135883399285,372.89837295899633,372.89837295899633,373.5381577500084,g,1.0,0.6306602499971632,,,,,,sub-059,1,stroop_test,,
,,,,110.0,2.0,9.0,,,,,,,,,,,,,blau,blue,b,1.0,b,1.0,0.6078735000046436,,,,,,,,,,9.0,2.0,110.0,6.0,373.5486825419939,,,,,,,,,,,,,,,,,373.53885124999215,373.88616674998775,374.6812396669993,374.6700909170031,,,,,,,,,,,,,,,,,,,,,,,,,,,,,,,,,,,374.6741236250091,374.6812396669993,374.6812396669993,375.29405666698585,b,1.0,0.6078735000046436,,,,,,sub-059,1,stroop_test,,
,,,,111.0,3.0,9.0,,,,,,,,,,,,,gelb,yellow,g,1.0,g,1.0,0.6324867499934044,,,,,,,,,,9.0,3.0,111.0,11.0,375.3048176669981,,,,,,,,,,,,,,,,,375.29460737499176,375.39162983399,376.1875802089926,376.1761164999916,,,,,,,,,,,,,,,,,,,,,,,,,,,,,,,,,,,376.17974566700286,376.1875802089926,376.1875802089926,376.83365554199554,g,1.0,0.6324867499934044,,,,,,sub-059,1,stroop_test,,
,,,,112.0,4.0,9.0,,,,,,,,,,,,,rot,blue,b,0.0,b,1.0,0.8453656659985427,,,,,,,,,,9.0,4.0,112.0,2.0,376.8388707920094,,,,,,,,,,,,,,,,,376.8341723339981,377.6255782920052,378.421821416996,378.4094179999957,,,,,,,,,,,,,,,,,,,,,,,,,,,,,,,,,,,378.41445974999806,378.421821416996,378.421821416996,379.27137058399967,b,1.0,0.8453656659985427,,,,,,sub-059,1,stroop_test,,
,,,,113.0,5.0,9.0,,,,,,,,,,,,,rot,yellow,g,0.0,g,1.0,0.714915166987339,,,,,,,,,,9.0,5.0,113.0,3.0,379.2812606669904,,,,,,,,,,,,,,,,,379.27196883398574,380.0695789169986,380.8612076249847,380.8534603749868,,,,,,,,,,,,,,,,,,,,,,,,,,,,,,,,,,,380.8542021669855,380.8612076249847,380.8612076249847,381.587029583985,g,1.0,0.714915166987339,,,,,,sub-059,1,stroop_test,,
,,,,114.0,6.0,9.0,,,,,,,,,,,,,gelb,blue,b,0.0,b,1.0,0.8595515830093063,,,,,,,,,,9.0,6.0,114.0,9.0,381.5924672500114,,,,,,,,,,,,,,,,,381.5874935419997,381.9261068750056,382.7208746249962,382.70917579199886,,,,,,,,,,,,,,,,,,,,,,,,,,,,,,,,,,,382.7128941669944,382.7208746249962,382.7208746249962,383.5880874590075,b,1.0,0.8595515830093063,,,,,,sub-059,1,stroop_test,,
,,,,115.0,7.0,9.0,,,,,,,,,,,,,rot,red,r,1.0,r,1.0,0.9260134999931324,,,,,,,,,,9.0,7.0,115.0,0.0,383.5981929590053,,,,,,,,,,,,,,,,,383.588762542,383.6860642090032,384.4816268750001,384.4700648750004,,,,,,,,,,,,,,,,,,,,,,,,,,,,,,,,,,,384.4742590000096,384.4816268750001,384.4816268750001,385.4102587919915,r,1.0,0.9260134999931324,,,,,,sub-059,1,stroop_test,,
,,,,116.0,8.0,9.0,,,,,,,,,,,,,blau,blue,b,1.0,b,1.0,0.5613108339894097,,,,,,,,,,9.0,8.0,116.0,5.0,385.4208508339944,,,,,,,,,,,,,,,,,385.41080929199234,385.7592767919996,386.5690020000038,386.5423053340055,,,,,,,,,,,,,,,,,,,,,,,,,,,,,,,,,,,386.5459095420083,386.5690020000038,386.5690020000038,387.13812374998815,b,1.0,0.5613108339894097,,,,,,sub-059,1,stroop_test,,
,,,,117.0,9.0,9.0,,,,,,,,,,,,,gelb,red,r,0.0,r,1.0,0.792347458016593,,,,,,,,,,9.0,9.0,117.0,8.0,387.1485882499837,,,,,,,,,,,,,,,,,387.1388258340012,387.4860602919944,388.2820743749908,388.270286791987,,,,,,,,,,,,,,,,,,,,,,,,,,,,,,,,,,,388.2750685839856,388.2820743749908,388.2820743749908,389.07703629200114,r,1.0,0.792347458016593,,,,,,sub-059,1,stroop_test,,
,,,,118.0,10.0,9.0,,,,,,,,,,,,,blau,red,r,0.0,r,1.0,0.6241018750006333,,,,,,,,,,9.0,10.0,118.0,4.0,389.08761912499904,,,,,,,,,,,,,,,,,389.0776139170048,389.17491820899886,389.968953167001,389.958601499995,,,,,,,,,,,,,,,,,,,,,,,,,,,,,,,,,,,389.9622229170054,389.968953167001,389.968953167001,390.6042285840085,r,1.0,0.6241018750006333,,,,,,sub-059,1,stroop_test,,
,,,,119.0,11.0,9.0,,,,,,,,,,,,,blau,yellow,g,0.0,g,1.0,0.7021621660096571,,,,,,,,,,9.0,11.0,119.0,7.0,390.60963200000697,,,,,,,,,,,,,,,,,390.6046660839929,390.7026064590027,391.494648833992,391.48697037500096,,,,,,,,,,,,,,,,,,,,,,,,,,,,,,,,,,,391.4877397090022,391.494648833992,391.494648833992,392.2044270839833,g,1.0,0.7021621660096571,,,,,,sub-059,1,stroop_test,,
,,,,,,,,,,,,,,,,,,,,,,,,,,,,,,,,,,,,,,,,,,,,,,,,,,,,,,,,,,,,,,,,,,,,,,,,,,,,,,,,,,,,,,,,,,,,,,,,,,,,,,392.2047094999871,392.21536649999325,397.2080589169928,397.2034057090059,sub-059,1,stroop_test,,
