direction,corrAns,randomInstr,practice_trials.thisRepN,practice_trials.thisTrialN,practice_trials.thisN,practice_trials.thisIndex,instr_trials.thisRepN,instr_trials.thisTrialN,instr_trials.thisN,instr_trials.thisIndex,test_trials.thisRepN,test_trials.thisTrialN,test_trials.thisN,test_trials.thisIndex,thisRow.t,notes,general_instruction.started,textGeneralInstr.started,respGeneralInstr.started,general_instruction.stopped,respGeneralInstr.keys,respGeneralInstr.rt,respGeneralInstr.duration,ITI.started,fixcross.started,fixcross.stopped,ITI.stopped,dots.started,backgroundDots.started,stimulusDots.started,respDots.started,stimulusDots.stopped,dots.stopped,respDots.keys,respDots.corr,respDots.rt,respDots.duration,feedback.started,textFeedback.started,feedback.stopped,textFeedback.stopped,info.started,textInfo.started,keyRespInfo.started,info.stopped,keyRespInfo.keys,keyRespInfo.rt,keyRespInfo.duration,test_instruction.started,textTestInstr.started,respTestInstr.started,test_instruction.stopped,respTestInstr.keys,respTestInstr.rt,respTestInstr.duration,random_instruction.started,textRandomInstr.started,respRandomInstr.started,random_instruction.stopped,respRandomInstr.keys,respRandomInstr.rt,respRandomInstr.duration,goodbye.started,textGoodbye.started,textGoodbye.stopped,goodbye.stopped,participant,session,expName,frameRate,Unnamed: 74
,,,,,,,,,,,,,,,,,0.032374600006733,0.0378796000004513,0.0378796000004513,9.04705660000036,space,25.64098389999708,,,,,,,,,,,,,,,,,,,,,,,,,,,,,,,,,,,,,,,,,,,,,sub-184,1.0,random_dot,59.97832383280011,
right,right,,0.0,0.0,0.0,1.0,,,,,,,,,9.071947899996305,,,,,,,,,9.06832829999621,9.410820400007651,10.211420999999971,10.195974700007357,10.196022899996024,10.211420999999971,10.211420999999971,10.211420999999971,15.195481699993252,21.34871020000719,left,0.0,27.76149160000205,,21.35071389999939,21.36567569999897,21.86275359999854,,,,,,,,,,,,,,,,,,,,,,,,,,,sub-184,1.0,random_dot,59.97832383280011,
left,left,,0.0,1.0,1.0,0.0,,,,,,,,,21.8793835999968,,,,,,,,,21.863595000002533,21.962936299998542,22.76315499999328,22.748290300005465,22.748344499996165,22.76315499999328,22.76315499999328,22.76315499999328,27.74811109999428,28.783635800005868,left,1.0,22.64830349999829,,28.78494870000577,28.798227399995085,29.297844700005957,,,,,,,,,,,,,,,,,,,,,,,,,,,sub-184,1.0,random_dot,59.97832383280011,
left,left,,1.0,0.0,2.0,0.0,,,,,,,,,29.31374009999854,,,,,,,,,29.298860599999895,30.09728260000702,30.89754849999736,30.88280000000668,30.882866100000683,30.89754849999736,30.89754849999736,30.89754849999736,35.89842060000228,36.36839930000133,right,0.0,22.104139999995823,,36.3694220000034,36.38142269999662,36.86748800000351,36.88213569999789,,,,,,,,,,,,,,,,,,,,,,,,,,sub-184,1.0,random_dot,59.97832383280011,
right,right,,1.0,1.0,3.0,1.0,,,,,,,,,36.88213569999789,,,,,,,,,36.86842749999778,38.081579499994405,38.88227529999858,38.866783899997245,38.8668433999992,38.88227529999858,38.88227529999858,38.88227529999858,43.86633020000591,44.2354239999986,right,1.0,21.98788300000888,,44.236579599994,44.249400700005936,44.734756300007575,44.74958869999682,,,,,,,,,,,,,,,,,,,,,,,,,,sub-184,1.0,random_dot,59.97832383280011,
left,left,,2.0,0.0,4.0,0.0,,,,,,,,,44.74958869999682,,,,,,,,,44.73563260000083,45.549779499997385,46.35024660000636,46.33422069999506,46.3342638000031,46.35024660000636,46.35024660000636,46.35024660000636,51.33405720000155,51.83731010000338,left,1.0,22.11676200000511,,51.83807949999755,51.85026659999858,52.335384999998496,52.350506600007066,,,,,,,,,,,,,,,,,,,,,,,,,,sub-184,1.0,random_dot,59.97832383280011,
right,right,,2.0,1.0,5.0,1.0,,,,,,,,,52.350506600007066,,,,,,,,,52.336209899993264,53.55089519999456,54.35130090000166,54.33557579999615,54.33561829999962,54.35130090000166,54.35130090000166,54.35130090000166,59.33539950000704,59.68840519999503,right,1.0,21.97160290001193,,59.68931210000301,59.70184639999934,60.18668369999796,60.20172660000389,,,,,,,,,,,,,,,,,,,,,,,,,,sub-184,1.0,random_dot,59.97832383280011,
right,right,,3.0,0.0,6.0,1.0,,,,,,,,,60.20172660000389,,,,,,,,,60.187459699998726,61.00165720000223,61.80255269999907,61.786680599994725,61.78673170000548,61.80255269999907,61.80255269999907,61.80255269999907,66.78624760000093,67.20492950000335,right,1.0,22.034360400008158,,67.20574249999481,67.2193491000071,67.70478549999825,67.71956719999434,,,,,,,,,,,,,,,,,,,,,,,,,,sub-184,1.0,random_dot,59.97832383280011,
left,left,,3.0,1.0,7.0,0.0,,,,,,,,,67.71956719999434,,,,,,,,,67.70554039999843,68.06985139999597,68.8699740000011,68.85565159999533,68.85570339999686,68.8699740000011,68.8699740000011,68.8699740000011,73.87094379999326,74.42347219999647,left,1.0,22.179854899994098,,74.42441239999607,74.43729220000387,74.92245509999339,74.93738699999813,,,,,,,,,,,,,,,,,,,,,,,,,,sub-184,1.0,random_dot,59.97832383280011,
left,left,,4.0,0.0,8.0,0.0,,,,,,,,,74.93738699999813,,,,,,,,,74.92340749999858,75.28733680000005,76.08779000000504,76.0727435000008,76.0728514999937,76.08779000000504,76.08779000000504,76.08779000000504,81.07215130000259,81.42565340000147,left,1.0,21.96471290000773,,81.42659200000344,81.43870260000404,81.92272790000425,81.93851849999919,,,,,,,,,,,,,,,,,,,,,,,,,,sub-184,1.0,random_dot,59.97832383280011,
right,right,,4.0,1.0,9.0,1.0,,,,,,,,,81.93851849999919,,,,,,,,,81.9232050999999,82.73857940000016,83.5388399999938,83.52335139999923,83.52343669999391,83.5388399999938,83.5388399999938,83.5388399999938,88.52310710000165,88.87636730000668,right,1.0,21.963643399998546,,88.87725439999485,88.8893406999996,89.37387850000232,89.38965029999963,,,,,,,,,,,,,,,,,,,,,,,,,,sub-184,1.0,random_dot,59.97832383280011,
right,right,,5.0,0.0,10.0,1.0,,,,,,,,,89.38965029999963,,,,,,,,,89.3744474999985,90.59024520000094,91.38991169999645,91.374192999996,91.3742429999984,91.38991169999645,91.38991169999645,91.38991169999645,96.37407370000436,96.7934316000028,right,1.0,22.03293549999944,,96.79435250000095,96.80705940000188,97.2916569999943,97.30757960000484,,,,,,,,,,,,,,,,,,,,,,,,,,sub-184,1.0,random_dot,59.97832383280011,
left,left,,5.0,1.0,11.0,0.0,,,,,,,,,97.30757960000484,,,,,,,,,97.2926010999945,98.50733110000148,99.30807410000124,99.2933067999984,99.29336429999968,99.30807410000124,99.30807410000124,99.30807410000124,104.3087274999998,104.71121740000672,left,1.0,22.029764800012344,,104.71242860000348,104.72492370000693,105.21007010000176,105.2250389999972,,,,,,,,,,,,,,,,,,,,,,,,,,sub-184,1.0,random_dot,59.97832383280011,
right,right,,6.0,0.0,12.0,1.0,,,,,,,,,105.2250389999972,,,,,,,,,105.21087749999424,105.57549050000672,106.37626150000142,106.36076850000244,106.36082739999983,106.37626150000142,106.37626150000142,106.37626150000142,,111.17807619999805,right,1.0,21.43607910000719,,111.17879299999912,111.19300319999456,111.6776652999979,111.6928859000036,,,,,,,,,,,,,,,,,,,,,,,,,,sub-184,1.0,random_dot,59.97832383280011,
left,left,,6.0,1.0,13.0,0.0,,,,,,,,,111.6928859000036,,,,,,,,,111.67850449999968,112.49329650000436,113.29349369999544,113.27830580000592,113.27835190000768,113.29349369999544,113.29349369999544,113.29349369999544,118.27757170000405,118.63084030000029,left,1.0,21.973221300009754,,118.6318758999987,118.64391939999769,119.12909000000218,119.14391729999625,,,,,,,,,,,,,,,,,,,,,,,,,,sub-184,1.0,random_dot,59.97832383280011,
right,right,,7.0,0.0,14.0,1.0,,,,,,,,,119.14391729999625,,,,,,,,,119.12993189999544,119.4938547000056,120.29468069999712,120.27923770000052,120.27928099999554,120.29468069999712,120.29468069999712,120.29468069999712,125.27870249999978,125.6653202000016,right,1.0,21.996677400005865,,125.666292599999,125.6781714999961,126.16321549999702,126.17825759999688,,,,,,,,,,,,,,,,,,,,,,,,,,sub-184,1.0,random_dot,59.97832383280011,
left,left,,7.0,1.0,15.0,0.0,,,,,,,,,126.17825759999688,,,,,,,,,126.16402480000396,126.27816980000352,127.07871460000752,127.0634085000056,127.06344670000544,127.07871460000752,127.07871460000752,127.07871460000752,,129.0986802999978,left,1.0,18.64600690000225,,129.09966999999597,129.11192989999836,129.59659370000008,129.6121151999978,,,,,,,,,,,,,,,,,,,,,,,,,,sub-184,1.0,random_dot,59.97832383280011,
right,right,,8.0,0.0,16.0,1.0,,,,,,,,,129.6121151999978,,,,,,,,,129.59735979999823,129.71249869999883,130.51282699999865,130.49789800000144,130.4979433999979,130.51282699999865,130.51282699999865,130.51282699999865,,132.4991205999977,right,1.0,18.611154000012903,,132.50016100000357,132.51306349999504,132.99768299999414,133.01276650000364,,,,,,,,,,,,,,,,,,,,,,,,,,sub-184,1.0,random_dot,59.97832383280011,
left,left,,8.0,1.0,17.0,0.0,,,,,,,,,133.01276650000364,,,,,,,,,132.9984034999943,134.21301500000118,135.01344419999805,134.99838639999507,134.99845650000498,135.01344419999805,135.01344419999805,135.01344419999805,,136.04893950000405,left,1.0,17.670915900002,,136.04965529999754,136.0633863999974,136.54889220000769,136.5634560000035,,,,,,,,,,,,,,,,,,,,,,,,,,sub-184,1.0,random_dot,59.97832383280011,
left,left,,9.0,0.0,18.0,0.0,,,,,,,,,136.5634560000035,,,,,,,,,136.550124100002,136.91339549999975,137.71380139999383,137.69851620000554,137.69855660000758,137.71380139999383,137.71380139999383,137.71380139999383,,138.5997411999997,left,1.0,17.51295950000349,,138.60078890000295,138.61332180000318,139.09878289999324,139.11371609999333,,,,,,,,,,,,,,,,,,,,,,,,,,sub-184,1.0,random_dot,59.97832383280011,
right,right,,9.0,1.0,19.0,1.0,,,,,,,,,139.11371609999333,,,,,,,,,139.09963369999605,140.3137640000059,141.11444809999375,141.09878709999612,141.0988247000059,141.11444809999375,141.11444809999375,141.11444809999375,,141.90158079999674,right,1.0,17.42229890001181,,141.90236779999395,141.91370370000368,142.39967980000074,142.41438250000647,,,,,,,,,,,,,,,,,,,,,,,,,,sub-184,1.0,random_dot,59.97832383280011,
,,,,,,,,,,,,,,,,,,,,,,,,,,,,,,,,,,,,,,,,,,142.3998500000016,142.41438250000647,142.41438250000647,172.6537587000057,space,46.86368160000711,0.0070541000022785,,,,,,,,,,,,,,,,,,,sub-184,1.0,random_dot,59.97832383280011,
,,,,,,,,,,,,,,,,,,,,,,,,,,,,,,,,,,,,,,,,,,,,,,,,,172.65380800000275,172.66889210000227,172.66889210000227,180.823450099997,space,24.782439200003864,,,,,,,,,,,,,sub-184,1.0,random_dot,59.97832383280011,
right,right,speed,,,,,0.0,0.0,0.0,1.0,0.0,0.0,0.0,1.0,186.5206526999973,,,,,,,,,186.51506010000597,187.7208869000024,188.521674100004,188.5066424999968,188.50674640000216,188.521674100004,188.521674100004,188.521674100004,,190.05800560000355,right,1.0,18.171094699995592,,,,,,,,,,,,,,,,,,,,180.8305856999941,180.8584362999973,180.8584362999973,186.50681079999777,space,22.276799200000823,,,,,,sub-184,1.0,random_dot,59.97832383280011,
left,left,speed,,,,,0.0,0.0,0.0,1.0,0.0,1.0,1.0,0.0,190.0710805999988,,,,,,,,,190.0609178000013,191.27159859999665,192.07227140000032,192.0572758000053,192.05732619999617,192.07227140000032,192.07227140000032,192.07227140000032,,194.0251131999976,left,1.0,18.577085299999453,,,,,,,,,,,,,,,,,,,,,,,,,,,,,,,sub-184,1.0,random_dot,59.97832383280011,
left,left,speed,,,,,0.0,0.0,0.0,1.0,1.0,0.0,2.0,0.0,194.0382791000011,,,,,,,,,194.02675410000663,194.38855329999933,195.18884350000008,195.17435080000723,195.1744006999943,195.18884350000008,195.18884350000008,195.18884350000008,,196.00853380000623,left,1.0,17.4467319999967,,,,,,,,,,,,,,,,,,,,,,,,,,,,,,,sub-184,1.0,random_dot,59.97832383280011,
right,right,speed,,,,,0.0,0.0,0.0,1.0,1.0,1.0,3.0,1.0,196.02213240000128,,,,,,,,,196.0102976000053,196.1224074000056,196.92285679999625,196.9071823999984,196.90723219999927,196.92285679999625,196.92285679999625,196.92285679999625,,198.15777639999575,right,1.0,17.868232700013323,,,,,,,,,,,,,,,,,,,,,,,,,,,,,,,sub-184,1.0,random_dot,59.97832383280011,
right,right,speed,,,,,0.0,0.0,0.0,1.0,2.0,0.0,4.0,1.0,198.17263390000156,,,,,,,,,198.15908969999876,198.9731119000062,199.77337189999523,199.75785399999583,199.75789259999877,199.77337189999523,199.77337189999523,199.77337189999523,,200.4431929999992,right,1.0,17.305988000007346,,,,,,,,,,,,,,,,,,,,,,,,,,,,,,,sub-184,1.0,random_dot,59.97832383280011,
left,left,speed,,,,,0.0,0.0,0.0,1.0,2.0,1.0,5.0,0.0,200.45611830000416,,,,,,,,,200.4446921000053,201.65642430000295,202.45709799999892,202.4416960999952,202.44174490000296,202.45709799999892,202.45709799999892,202.45709799999892,,203.1107309999934,left,1.0,17.27629330000491,,,,,,,,,,,,,,,,,,,,,,,,,,,,,,,sub-184,1.0,random_dot,59.97832383280011,
left,left,speed,,,,,0.0,0.0,0.0,1.0,3.0,0.0,6.0,0.0,203.12318999999843,,,,,,,,,203.11236929999723,203.4732253999973,204.2742012999952,204.25866760000645,204.25881749999823,204.2742012999952,204.2742012999952,204.2742012999952,,205.06068540000703,left,1.0,17.41906870000821,,,,,,,,,,,,,,,,,,,,,,,,,,,,,,,sub-184,1.0,random_dot,59.97832383280011,
right,right,speed,,,,,0.0,0.0,0.0,1.0,3.0,1.0,7.0,1.0,205.07354700000724,,,,,,,,,205.06235670000024,205.42373350000707,206.2244269999937,206.20951709999645,206.20956410000508,206.2244269999937,206.2244269999937,206.2244269999937,,206.82682750000092,right,1.0,17.23526870000933,,,,,,,,,,,,,,,,,,,,,,,,,,,,,,,sub-184,1.0,random_dot,59.97832383280011,
right,right,speed,,,,,0.0,0.0,0.0,1.0,4.0,0.0,8.0,1.0,206.84023020000316,,,,,,,,,206.82861909999335,208.04053379999823,208.84117339999648,208.82543409999928,208.825476900005,208.84117339999648,208.84117339999648,208.84117339999648,,209.62732670000696,right,1.0,17.420367800004897,,,,,,,,,,,,,,,,,,,,,,,,,,,,,,,sub-184,1.0,random_dot,59.97832383280011,
left,left,speed,,,,,0.0,0.0,0.0,1.0,4.0,1.0,9.0,0.0,209.64080269999977,,,,,,,,,209.6297683000012,210.8410758999962,211.64140409999527,211.6261969000043,211.6262354000064,211.64140409999527,211.64140409999527,211.64140409999527,,212.26103449999937,left,1.0,17.252610800002003,,,,,,,,,,,,,,,,,,,,,,,,,,,,,,,sub-184,1.0,random_dot,59.97832383280011,
left,left,speed,,,,,0.0,0.0,0.0,1.0,5.0,0.0,10.0,0.0,212.27470330000503,,,,,,,,,212.26290859999423,213.4748669999972,214.27582830000028,214.2601663999958,214.26022149999332,214.27582830000028,214.27582830000028,214.27582830000028,,214.87812690000283,left,1.0,17.224763300007908,,,,,,,,,,,,,,,,,,,,,,,,,,,,,,,sub-184,1.0,random_dot,59.97832383280011,
right,right,speed,,,,,0.0,0.0,0.0,1.0,5.0,1.0,11.0,1.0,214.89160499999707,,,,,,,,,214.88015880000603,215.24208470000303,216.04209499999703,216.0272668999969,216.02732229999677,216.04209499999703,216.04209499999703,216.04209499999703,,216.78017690000704,right,1.0,17.36668649999774,,,,,,,,,,,,,,,,,,,,,,,,,,,,,,,sub-184,1.0,random_dot,59.97832383280011,
right,right,speed,,,,,0.0,0.0,0.0,1.0,6.0,0.0,12.0,1.0,216.79175030000624,,,,,,,,,216.7815721999941,217.5919069999945,218.39262500000768,218.3772823000036,218.37732159999723,218.39262500000768,218.39262500000768,218.39262500000768,,219.09627660000115,right,1.0,17.334739400001126,,,,,,,,,,,,,,,,,,,,,,,,,,,,,,,sub-184,1.0,random_dot,59.97832383280011,
left,left,speed,,,,,0.0,0.0,0.0,1.0,6.0,1.0,13.0,0.0,219.10891500000437,,,,,,,,,219.09792369999923,220.30932289999328,221.1097654000041,221.09406790000503,221.0941193000035,221.1097654000041,221.1097654000041,221.1097654000041,,221.76322130000332,left,1.0,17.277341699998942,,,,,,,,,,,,,,,,,,,,,,,,,,,,,,,sub-184,1.0,random_dot,59.97832383280011,
right,right,speed,,,,,0.0,0.0,0.0,1.0,7.0,0.0,14.0,1.0,221.77632960000483,,,,,,,,,221.7649568000052,222.1264091000048,222.9266115000064,222.91203880000103,222.9120869000035,222.9266115000064,222.9266115000064,222.9266115000064,,223.58002850000048,right,1.0,17.281173499999568,,,,,,,,,,,,,,,,,,,,,,,,,,,,,,,sub-184,1.0,random_dot,59.97832383280011,
left,left,speed,,,,,0.0,0.0,0.0,1.0,7.0,1.0,15.0,0.0,223.5928486000048,,,,,,,,,223.5816943999962,223.69310289999703,224.49346759999756,224.4784428999992,224.4784972000052,224.49346759999756,224.49346759999756,224.49346759999756,,225.09593910000692,left,1.0,17.224139600002673,,,,,,,,,,,,,,,,,,,,,,,,,,,,,,,sub-184,1.0,random_dot,59.97832383280011,
right,right,speed,,,,,0.0,0.0,0.0,1.0,8.0,0.0,16.0,1.0,225.10998769999424,,,,,,,,,225.09836400000492,226.31034609999915,227.11087760000373,227.09521729999688,227.09527239999443,227.11087760000373,227.11087760000373,227.11087760000373,,227.66398719999412,right,1.0,17.18783340000664,,,,,,,,,,,,,,,,,,,,,,,,,,,,,,,sub-184,1.0,random_dot,59.97832383280011,
left,left,speed,,,,,0.0,0.0,0.0,1.0,8.0,1.0,17.0,0.0,227.67702020000436,,,,,,,,,227.66561910000743,228.4769884999987,229.2782709000021,229.2624991000048,229.26254349999363,229.2782709000021,229.2782709000021,229.2782709000021,,229.7138527000061,left,1.0,17.06014669999422,,,,,,,,,,,,,,,,,,,,,,,,,,,,,,,sub-184,1.0,random_dot,59.97832383280011,
left,left,speed,,,,,0.0,0.0,0.0,1.0,9.0,0.0,18.0,0.0,229.7272992999933,,,,,,,,,229.71525049999764,230.52769940000144,231.3278336000076,231.31272109999557,231.31277620000765,231.3278336000076,231.3278336000076,231.3278336000076,,231.86359670000093,left,1.0,17.160485700005665,,,,,,,,,,,,,,,,,,,,,,,,,,,,,,,sub-184,1.0,random_dot,59.97832383280011,
right,right,speed,,,,,0.0,0.0,0.0,1.0,9.0,1.0,19.0,1.0,231.87774949999584,,,,,,,,,231.8653481999936,233.0777858999936,233.87814060000528,233.86297200000263,233.86302180000348,233.87814060000528,233.87814060000528,233.87814060000528,,234.38106739999785,right,1.0,17.127012500001,,,,,,,,,,,,,,,,,,,,,,,,,,,,,,,sub-184,1.0,random_dot,59.97832383280011,
right,right,speed,,,,,0.0,0.0,0.0,1.0,10.0,0.0,20.0,1.0,234.39454910000492,,,,,,,,,234.38257590000285,234.4946224000014,235.29546900000423,235.28007019999492,235.28010740000173,235.29546900000423,235.29546900000423,235.29546900000423,,235.89798110000265,left,0.0,17.23838420001266,,,,,,,,,,,,,,,,,,,,,,,,,,,,,,,sub-184,1.0,random_dot,59.97832383280011,
left,left,speed,,,,,0.0,0.0,0.0,1.0,10.0,1.0,21.0,0.0,235.9113679000002,,,,,,,,,235.89990119999857,237.11195710000172,237.91255160000583,237.89712700000385,237.8971696999943,237.91255160000583,237.91255160000583,237.91255160000583,,238.41529649999572,left,1.0,17.13888370001223,,,,,,,,,,,,,,,,,,,,,,,,,,,,,,,sub-184,1.0,random_dot,59.97832383280011,
left,left,speed,,,,,0.0,0.0,0.0,1.0,11.0,0.0,22.0,0.0,238.428676800002,,,,,,,,,238.416962400006,238.52859139999785,239.32918610000343,239.3143934999971,239.31444269999335,239.32918610000343,239.32918610000343,239.32918610000343,,240.06621079999604,right,0.0,17.363645799996448,,,,,,,,,,,,,,,,,,,,,,,,,,,,,,,sub-184,1.0,random_dot,59.97832383280011,
right,right,speed,,,,,0.0,0.0,0.0,1.0,11.0,1.0,23.0,1.0,240.07913800000097,,,,,,,,,240.0679436000064,240.4293203999987,241.2298507999949,241.21431850000224,241.21435609999756,241.2298507999949,241.2298507999949,241.2298507999949,,243.78224850000697,left,0.0,19.177731100004166,,,,,,,,,,,,,,,,,,,,,,,,,,,,,,,sub-184,1.0,random_dot,59.97832383280011,
right,right,speed,,,,,0.0,0.0,0.0,1.0,12.0,0.0,24.0,1.0,243.7959364999988,,,,,,,,,243.78409580000152,244.14630269999907,244.94655090000012,244.9317463000043,244.93179780000355,244.94655090000012,244.94655090000012,244.94655090000012,,245.5005412000028,right,1.0,17.189788500007126,,,,,,,,,,,,,,,,,,,,,,,,,,,,,,,sub-184,1.0,random_dot,59.97832383280011,
left,left,speed,,,,,0.0,0.0,0.0,1.0,12.0,1.0,25.0,0.0,245.5127818000037,,,,,,,,,245.5020855000039,245.613268400004,246.41379459999732,246.39823619999515,246.39828199999465,246.41379459999732,246.41379459999732,246.41379459999732,,246.96653819999483,left,1.0,17.1833054000017,,,,,,,,,,,,,,,,,,,,,,,,,,,,,,,sub-184,1.0,random_dot,59.97832383280011,
right,right,speed,,,,,0.0,0.0,0.0,1.0,13.0,0.0,26.0,1.0,246.9799706000049,,,,,,,,,246.96815129999595,247.78006649999588,248.58071140000536,248.56583059999684,248.5658742999949,248.58071140000536,248.58071140000536,248.58071140000536,,249.86646839999597,right,1.0,17.913729300009436,,,,,,,,,,,,,,,,,,,,,,,,,,,,,,,sub-184,1.0,random_dot,59.97832383280011,
left,left,speed,,,,,0.0,0.0,0.0,1.0,13.0,1.0,27.0,0.0,249.88025149999885,,,,,,,,,249.86816620000167,251.08054860000263,251.88136990000203,251.86600700000417,251.86605330000748,251.88136990000203,251.88136990000203,251.88136990000203,,252.63361499999883,left,1.0,17.38740370000596,,,,,,,,,,,,,,,,,,,,,,,,,,,,,,,sub-184,1.0,random_dot,59.97832383280011,
right,right,speed,,,,,0.0,0.0,0.0,1.0,14.0,0.0,28.0,1.0,252.64721830000053,,,,,,,,,252.6353430000017,252.99715060000017,253.7981501000031,253.78332289999528,253.78337340000144,253.7981501000031,253.7981501000031,253.7981501000031,,254.48451419999765,right,1.0,17.316119199997047,,,,,,,,,,,,,,,,,,,,,,,,,,,,,,,sub-184,1.0,random_dot,59.97832383280011,
left,left,speed,,,,,0.0,0.0,0.0,1.0,14.0,1.0,29.0,0.0,254.49740340000423,,,,,,,,,254.48678560000556,255.69794480000564,256.4984706999967,256.4829636000068,256.48301789999823,256.4984706999967,256.4984706999967,256.4984706999967,,256.9856704999984,left,1.0,17.114723700011382,,,,,,,,,,,,,,,,,,,,,,,,,,,,,,,sub-184,1.0,random_dot,59.97832383280011,
right,right,speed,,,,,0.0,0.0,0.0,1.0,15.0,0.0,30.0,1.0,256.997881400006,,,,,,,,,256.98744850000367,257.34814180000103,258.1488801999949,258.13309430000663,258.13313269999344,258.1488801999949,258.1488801999949,258.1488801999949,,258.70186410000315,right,1.0,17.17914040001051,,,,,,,,,,,,,,,,,,,,,,,,,,,,,,,sub-184,1.0,random_dot,59.97832383280011,
left,left,speed,,,,,0.0,0.0,0.0,1.0,15.0,1.0,31.0,0.0,258.7149454000028,,,,,,,,,258.70340840000426,259.9152441000042,260.7162854000053,260.70017219999863,260.7002130000037,260.7162854000053,260.7162854000053,260.7162854000053,,261.1690247999941,left,1.0,17.079419700006838,,,,,,,,,,,,,,,,,,,,,,,,,,,,,,,sub-184,1.0,random_dot,59.97832383280011,
left,left,speed,,,,,0.0,0.0,0.0,1.0,16.0,0.0,32.0,0.0,261.182081299994,,,,,,,,,261.17063969999435,261.53235049999785,262.33310980000533,262.3181464999943,262.3181891999993,262.33310980000533,262.33310980000533,262.33310980000533,,263.6188194999995,left,1.0,17.917642100015655,,,,,,,,,,,,,,,,,,,,,,,,,,,,,,,sub-184,1.0,random_dot,59.97832383280011,
right,right,speed,,,,,0.0,0.0,0.0,1.0,16.0,1.0,33.0,1.0,263.6322755000001,,,,,,,,,263.6206865999993,263.98290269999416,264.78295989999606,264.76783919999434,264.76789160000044,264.78295989999606,264.78295989999606,264.78295989999606,,265.6363042000012,right,1.0,17.486825100000715,,,,,,,,,,,,,,,,,,,,,,,,,,,,,,,sub-184,1.0,random_dot,59.97832383280011,
right,right,speed,,,,,0.0,0.0,0.0,1.0,17.0,0.0,34.0,1.0,265.6494539999985,,,,,,,,,265.63788979999663,265.9995829999971,266.7999334000051,266.7851942999987,266.7852407000028,266.7999334000051,266.7999334000051,266.7999334000051,,267.71906879999733,right,1.0,17.543731700003264,,,,,,,,,,,,,,,,,,,,,,,,,,,,,,,sub-184,1.0,random_dot,59.97832383280011,
left,left,speed,,,,,0.0,0.0,0.0,1.0,17.0,1.0,35.0,0.0,267.73316180000256,,,,,,,,,267.7202537999983,267.8331080000062,268.63372310000705,268.6184355000005,268.6184865999967,268.63372310000705,268.63372310000705,268.63372310000705,,269.4699110000074,left,1.0,17.47255089999817,,,,,,,,,,,,,,,,,,,,,,,,,,,,,,,sub-184,1.0,random_dot,59.97832383280011,
left,left,speed,,,,,0.0,0.0,0.0,1.0,18.0,0.0,36.0,0.0,269.4834204999934,,,,,,,,,269.4713880000054,269.5832958999963,270.3840709000069,270.36778400000185,270.3678091000038,270.3840709000069,270.3840709000069,270.3840709000069,,271.07034150000254,left,1.0,17.315892099999473,,,,,,,,,,,,,,,,,,,,,,,,,,,,,,,sub-184,1.0,random_dot,59.97832383280011,
right,right,speed,,,,,0.0,0.0,0.0,1.0,18.0,1.0,37.0,1.0,271.0832886999997,,,,,,,,,271.07248440000694,271.8834926999989,272.68429299999843,272.6690484999999,272.66910800000187,272.68429299999843,272.68429299999843,272.68429299999843,,273.2876219000027,right,1.0,17.227095000009285,,,,,,,,,,,,,,,,,,,,,,,,,,,,,,,sub-184,1.0,random_dot,59.97832383280011,
left,left,speed,,,,,0.0,0.0,0.0,1.0,19.0,0.0,38.0,0.0,273.30061099999875,,,,,,,,,273.2892004000023,273.40056639999966,274.2013231000019,274.18571879999945,274.18576680000115,274.2013231000019,274.2013231000019,274.2013231000019,,275.38833810000506,left,1.0,17.8237449000153,,,,,,,,,,,,,,,,,,,,,,,,,,,,,,,sub-184,1.0,random_dot,59.97832383280011,
right,right,speed,,,,,0.0,0.0,0.0,1.0,19.0,1.0,39.0,1.0,275.4005628000013,,,,,,,,,275.3906123000052,275.50075829999696,276.3011988000071,276.2866667000053,276.28672350000124,276.3011988000071,276.3011988000071,276.3011988000071,,276.93740080000134,right,1.0,17.26086400001077,,,,,,,,,,,,,,,,,,,,,,,,,,,,,,,sub-184,1.0,random_dot,59.97832383280011,
left,left,speed,,,,,0.0,0.0,0.0,1.0,20.0,0.0,40.0,0.0,276.9512235000002,,,,,,,,,276.939043499995,278.1512961999979,278.95184829999926,278.9368473000068,278.93690570000035,278.95184829999926,278.95184829999926,278.95184829999926,,279.57123640000646,left,1.0,17.246014000003925,,,,,,,,,,,,,,,,,,,,,,,,,,,,,,,sub-184,1.0,random_dot,59.97832383280011,
right,right,speed,,,,,0.0,0.0,0.0,1.0,20.0,1.0,41.0,1.0,279.5850675999973,,,,,,,,,279.5728961999994,280.7854156999965,281.58551940000325,281.5708355999959,281.57091260000016,281.58551940000325,281.58551940000325,281.58551940000325,,282.2224656000035,right,1.0,17.264022000003024,,,,,,,,,,,,,,,,,,,,,,,,,,,,,,,sub-184,1.0,random_dot,59.97832383280011,
left,left,speed,,,,,0.0,0.0,0.0,1.0,21.0,0.0,42.0,0.0,282.2351131000032,,,,,,,,,282.22452319999866,282.5855159000057,283.3862542999996,283.37087159999646,283.3709214999981,283.3862542999996,283.3862542999996,283.3862542999996,,284.07146289999946,left,1.0,17.315901700014365,,,,,,,,,,,,,,,,,,,,,,,,,,,,,,,sub-184,1.0,random_dot,59.97832383280011,
right,right,speed,,,,,0.0,0.0,0.0,1.0,21.0,1.0,43.0,1.0,284.0855825000035,,,,,,,,,284.07380280000507,284.8855418000021,285.6861815000011,285.6713860000018,285.6714467999991,285.6861815000011,285.6861815000011,285.6861815000011,,286.2559838000016,right,1.0,17.19365340001241,,,,,,,,,,,,,,,,,,,,,,,,,,,,,,,sub-184,1.0,random_dot,59.97832383280011,
left,left,speed,,,,,0.0,0.0,0.0,1.0,22.0,0.0,44.0,0.0,286.2694884999946,,,,,,,,,286.25748430000385,286.61936529999366,287.4198198999948,287.4046285999939,287.40467050000734,287.4198198999948,287.4198198999948,287.4198198999948,,287.9230347999983,left,1.0,17.13821679999819,,,,,,,,,,,,,,,,,,,,,,,,,,,,,,,sub-184,1.0,random_dot,59.97832383280011,
right,right,speed,,,,,0.0,0.0,0.0,1.0,22.0,1.0,45.0,1.0,287.93593979999423,,,,,,,,,287.9246753000043,288.7365581000049,289.53691910000634,289.520972600003,289.5210092000052,289.53691910000634,289.53691910000634,289.53691910000634,,290.0558393999964,right,1.0,17.14378390001366,,,,,,,,,,,,,,,,,,,,,,,,,,,,,,,sub-184,1.0,random_dot,59.97832383280011,
left,left,speed,,,,,0.0,0.0,0.0,1.0,23.0,0.0,46.0,0.0,290.0697042999964,,,,,,,,,290.0579698999936,291.27023320000444,292.0708506999945,292.0549767000048,292.0550229000073,292.0708506999945,292.0708506999945,292.0708506999945,,292.7733273000049,left,1.0,17.33321359999536,,,,,,,,,,,,,,,,,,,,,,,,,,,,,,,sub-184,1.0,random_dot,59.97832383280011,
right,right,speed,,,,,0.0,0.0,0.0,1.0,23.0,1.0,47.0,1.0,292.7868619999936,,,,,,,,,292.7749318999995,293.98727129999315,294.78779630000645,294.77304240000376,294.7730929999961,294.78779630000645,294.78779630000645,294.78779630000645,,295.9556236000062,right,1.0,17.792610800010152,,,,,,,,,,,,,,,,,,,,,,,,,,,,,,,sub-184,1.0,random_dot,59.97832383280011,
right,right,speed,,,,,0.0,0.0,0.0,1.0,24.0,0.0,48.0,1.0,295.9707209000044,,,,,,,,,295.9568753000058,297.1709899999987,297.9715209999995,297.9565307000012,297.95658260000346,297.9715209999995,297.9715209999995,297.9715209999995,,298.57441289999406,right,1.0,17.231816500003333,,,,,,,,,,,,,,,,,,,,,,,,,,,,,,,sub-184,1.0,random_dot,59.97832383280011,
left,left,speed,,,,,0.0,0.0,0.0,1.0,24.0,1.0,49.0,0.0,298.5876037999988,,,,,,,,,298.57623669999884,299.3880774999998,300.18871170000057,300.1723950000014,300.17243130000134,300.18871170000057,300.18871170000057,300.18871170000057,,300.6569499000034,left,1.0,17.102484899995034,,,,,,,,,,,,,,,,,,,,,,,,,,,,,,,sub-184,1.0,random_dot,59.97832383280011,
right,right,speed,,,,,0.0,0.0,0.0,1.0,25.0,0.0,50.0,1.0,300.67147390000173,,,,,,,,,300.6584914999985,301.8716521000024,302.672284500004,302.65625620000355,302.6562952999957,302.672284500004,302.672284500004,302.672284500004,,303.19230969999626,right,1.0,17.146270700002788,,,,,,,,,,,,,,,,,,,,,,,,,,,,,,,sub-184,1.0,random_dot,59.97832383280011,
left,left,speed,,,,,0.0,0.0,0.0,1.0,25.0,1.0,51.0,0.0,303.2047664999991,,,,,,,,,303.19401059999655,304.4054415999999,305.2058315000031,305.19056909999927,305.1906172000017,305.2058315000031,305.2058315000031,305.2058315000031,,305.7094922999968,left,1.0,17.129626499998267,,,,,,,,,,,,,,,,,,,,,,,,,,,,,,,sub-184,1.0,random_dot,59.97832383280011,
left,left,speed,,,,,0.0,0.0,0.0,1.0,26.0,0.0,52.0,0.0,305.7220140999998,,,,,,,,,305.71122379999724,306.92226550000487,307.7229443999968,307.7073961999995,307.707447599998,307.7229443999968,307.7229443999968,307.7229443999968,,308.65762909999467,left,1.0,17.56703930000367,,,,,,,,,,,,,,,,,,,,,,,,,,,,,,,sub-184,1.0,random_dot,59.97832383280011,
right,right,speed,,,,,0.0,0.0,0.0,1.0,26.0,1.0,53.0,1.0,308.6724627999938,,,,,,,,,308.65947319999395,309.47291419999965,310.2734940999944,310.25773460000346,310.2577781,310.2734940999944,310.2734940999944,310.2734940999944,,310.9250414999988,right,1.0,17.285269400003017,,,,,,,,,,,,,,,,,,,,,,,,,,,,,,,sub-184,1.0,random_dot,59.97832383280011,
right,right,speed,,,,,0.0,0.0,0.0,1.0,27.0,0.0,54.0,1.0,310.93963360000635,,,,,,,,,310.92665910000505,311.0394793000014,311.8410862000019,311.82515639999474,311.8252124999999,311.8410862000019,311.8410862000019,311.8410862000019,,312.4109102999937,right,1.0,17.19650790000742,,,,,,,,,,,,,,,,,,,,,,,,,,,,,,,sub-184,1.0,random_dot,59.97832383280011,
left,left,speed,,,,,0.0,0.0,0.0,1.0,27.0,1.0,55.0,0.0,312.42304480000166,,,,,,,,,312.4123205000069,313.2234158000065,314.02382030000445,314.008361900007,314.00841840000066,314.02382030000445,314.02382030000445,314.02382030000445,,314.4942595000029,left,1.0,17.104709200008074,,,,,,,,,,,,,,,,,,,,,,,,,,,,,,,sub-184,1.0,random_dot,59.97832383280011,
right,right,speed,,,,,0.0,0.0,0.0,1.0,28.0,0.0,56.0,1.0,314.5069782000064,,,,,,,,,314.4957362999994,314.6067467999965,315.4074537999986,315.39245300000766,315.3925060000038,315.4074537999986,315.4074537999986,315.4074537999986,,316.243126100002,left,0.0,17.45810980000533,,,,,,,,,,,,,,,,,,,,,,,,,,,,,,,sub-184,1.0,random_dot,59.97832383280011,
left,left,speed,,,,,0.0,0.0,0.0,1.0,28.0,1.0,57.0,0.0,316.25675369999954,,,,,,,,,316.2451082000043,317.05730060000496,317.8574635999976,317.8430701000034,317.84311650000745,317.8574635999976,317.8574635999976,317.8574635999976,,318.64413950000016,left,1.0,17.41877970000496,,,,,,,,,,,,,,,,,,,,,,,,,,,,,,,sub-184,1.0,random_dot,59.97832383280011,
right,right,speed,,,,,0.0,0.0,0.0,1.0,29.0,0.0,58.0,1.0,318.6570748999948,,,,,,,,,318.6459343000024,319.45781950000674,320.2579723999952,320.2431516999932,320.2432560000016,320.2579723999952,320.2579723999952,320.2579723999952,,321.17759930000466,right,1.0,17.54281670000637,,,,,,,,,,,,,,,,,,,,,,,,,,,,,,,sub-184,1.0,random_dot,59.97832383280011,
left,left,speed,,,,,0.0,0.0,0.0,1.0,29.0,1.0,59.0,0.0,321.19090770000184,,,,,,,,,321.17959159999737,321.5414434999984,322.3419491999957,322.326029799995,322.3260714000062,322.3419491999957,322.3419491999957,322.3419491999957,,323.0625466000056,right,0.0,17.357403700007126,,,,,,,,,,,,,,,,,,,,,,,,,,,,,,,sub-184,1.0,random_dot,59.97832383280011,
,,speed,,,,,0.0,0.0,0.0,1.0,,,,,,,,,,,,,,,,,,,,,,,,,,,,,,,,,,,,,,,,,,,,,,,,,,,,,,,,,sub-184,1.0,random_dot,59.97832383280011,
right,right,accuracy,,,,,0.0,1.0,1.0,0.0,0.0,0.0,0.0,1.0,325.94161979999626,,,,,,,,,325.9381333000056,326.2919630999968,327.09284650000336,327.07704030000605,327.0770863999933,327.09284650000336,327.09284650000336,327.09284650000336,332.0764730999945,332.79563029999554,right,1.0,22.32995579999988,,,,,,,,,,,,,,,,,,,,323.064389399995,323.0788834999985,323.0788834999985,325.9280165999953,space,19.479296500008783,,,,,,sub-184,1.0,random_dot,59.97832383280011,
left,left,accuracy,,,,,0.0,1.0,1.0,0.0,0.0,1.0,1.0,0.0,332.8092941000068,,,,,,,,,332.7979070000001,333.15971409999474,333.9601040999987,333.9448306999984,333.94487839999783,333.9601040999987,333.9601040999987,333.9601040999987,,335.6469727000076,left,1.0,18.31165710001369,,,,,,,,,,,,,,,,,,,,,,,,,,,,,,,sub-184,1.0,random_dot,59.97832383280011,
right,right,accuracy,,,,,0.0,1.0,1.0,0.0,1.0,0.0,2.0,1.0,335.6598731999984,,,,,,,,,335.6484872000001,336.8602533999947,337.660698199994,337.645302799996,337.6453516000038,337.660698199994,337.660698199994,337.660698199994,,339.0635501999932,right,1.0,18.038515099993678,,,,,,,,,,,,,,,,,,,,,,,,,,,,,,,sub-184,1.0,random_dot,59.97832383280011,
left,left,accuracy,,,,,0.0,1.0,1.0,0.0,1.0,1.0,3.0,0.0,339.0767999999953,,,,,,,,,339.06535269999586,339.17721300000267,339.97769210000115,339.9623928999936,339.9624569000007,339.97769210000115,339.97769210000115,339.97769210000115,,341.9963959000015,left,1.0,18.643255100003444,,,,,,,,,,,,,,,,,,,,,,,,,,,,,,,sub-184,1.0,random_dot,59.97832383280011,
left,left,accuracy,,,,,0.0,1.0,1.0,0.0,2.0,0.0,4.0,0.0,342.0107949999947,,,,,,,,,341.9978965000046,342.3611576999974,343.1613202000008,343.1467738000065,343.1468351999938,343.1613202000008,343.1613202000008,343.1613202000008,,343.9135008000012,left,1.0,17.378586400009226,,,,,,,,,,,,,,,,,,,,,,,,,,,,,,,sub-184,1.0,random_dot,59.97832383280011,
right,right,accuracy,,,,,0.0,1.0,1.0,0.0,2.0,1.0,5.0,1.0,343.9278275999968,,,,,,,,,343.9150806999969,344.7282017999969,345.5287787999987,345.5129556000029,345.5129942000058,345.5287787999987,345.5287787999987,345.5287787999987,,346.18080689999624,right,1.0,17.28547630000685,,,,,,,,,,,,,,,,,,,,,,,,,,,,,,,sub-184,1.0,random_dot,59.97832383280011,
left,left,accuracy,,,,,0.0,1.0,1.0,0.0,3.0,0.0,6.0,0.0,346.19495350000216,,,,,,,,,346.18239339999855,346.2950698000059,347.0957328999939,347.07954239999526,347.07956959999865,347.0957328999939,347.0957328999939,347.0957328999939,,348.632652100001,left,1.0,18.158981100001256,,,,,,,,,,,,,,,,,,,,,,,,,,,,,,,sub-184,1.0,random_dot,59.97832383280011,
right,right,accuracy,,,,,0.0,1.0,1.0,0.0,3.0,1.0,7.0,1.0,348.64579150000645,,,,,,,,,348.63420040000346,349.4460984000034,350.2460269000003,350.2308524999971,350.23090429999866,350.2460269000003,350.2460269000003,350.2460269000003,,351.0157132000022,right,1.0,17.399151599995093,,,,,,,,,,,,,,,,,,,,,,,,,,,,,,,sub-184,1.0,random_dot,59.97832383280011,
left,left,accuracy,,,,,0.0,1.0,1.0,0.0,4.0,0.0,8.0,0.0,351.0291769000032,,,,,,,,,351.01727939999546,351.3792584000039,352.1795890000067,352.1647852000024,352.1648851000064,352.1795890000067,352.1795890000067,352.1795890000067,,352.9657819999993,left,1.0,17.41590800000995,,,,,,,,,,,,,,,,,,,,,,,,,,,,,,,sub-184,1.0,random_dot,59.97832383280011,
right,right,accuracy,,,,,0.0,1.0,1.0,0.0,4.0,1.0,9.0,1.0,352.97901439999987,,,,,,,,,352.9676299999992,353.3296442999999,354.1300270000065,354.1141023999953,354.11414859999786,354.1300270000065,354.1300270000065,354.1300270000065,,354.7503619000054,left,0.0,17.24586330000602,,,,,,,,,,,,,,,,,,,,,,,,,,,,,,,sub-184,1.0,random_dot,59.97832383280011,
left,left,accuracy,,,,,0.0,1.0,1.0,0.0,5.0,0.0,10.0,0.0,354.7625767999998,,,,,,,,,354.75211309999577,355.56315950000135,356.36330880000605,356.3479782000068,356.34802520000085,356.36330880000605,356.36330880000605,356.36330880000605,,357.36738919999334,right,0.0,17.633578300010413,,,,,,,,,,,,,,,,,,,,,,,,,,,,,,,sub-184,1.0,random_dot,59.97832383280011,
right,right,accuracy,,,,,0.0,1.0,1.0,0.0,5.0,1.0,11.0,1.0,357.3802682999958,,,,,,,,,357.3688798999938,358.5805149999942,359.38074819999747,359.36567820000346,359.3657303000073,359.38074819999747,359.38074819999747,359.38074819999747,,360.2843900000007,right,1.0,17.538081500009866,,,,,,,,,,,,,,,,,,,,,,,,,,,,,,,sub-184,1.0,random_dot,59.97832383280011,
right,right,accuracy,,,,,0.0,1.0,1.0,0.0,6.0,0.0,12.0,1.0,360.2969593000016,,,,,,,,,360.2859634000052,361.0970956999954,361.8979601000028,361.8825218999991,361.8826143000042,361.8979601000028,361.8979601000028,361.8979601000028,,363.86779289999686,left,0.0,18.59844129999692,,,,,,,,,,,,,,,,,,,,,,,,,,,,,,,sub-184,1.0,random_dot,59.97832383280011,
left,left,accuracy,,,,,0.0,1.0,1.0,0.0,6.0,1.0,13.0,0.0,363.8808445000032,,,,,,,,,363.8694351000013,365.08093409999856,365.8817068000062,365.86647500000254,365.8665178999945,365.8817068000062,365.8817068000062,365.8817068000062,,366.8166723000031,left,1.0,17.566700200011837,,,,,,,,,,,,,,,,,,,,,,,,,,,,,,,sub-184,1.0,random_dot,59.97832383280011,
right,right,accuracy,,,,,0.0,1.0,1.0,0.0,7.0,0.0,14.0,1.0,366.8312646999984,,,,,,,,,366.8177579000039,368.03177650000725,368.8321547999949,368.8174514999992,368.8175005999947,368.8321547999949,368.8321547999949,368.8321547999949,,371.35244079999393,right,1.0,19.15300570000545,,,,,,,,,,,,,,,,,,,,,,,,,,,,,,,sub-184,1.0,random_dot,59.97832383280011,
left,left,accuracy,,,,,0.0,1.0,1.0,0.0,7.0,1.0,15.0,0.0,371.36532640000223,,,,,,,,,371.35406529999455,372.565751999995,373.3661263999966,373.35073479999846,373.3507742000074,373.3661263999966,373.3661263999966,373.3661263999966,,374.2027565000026,left,1.0,17.457835100009106,,,,,,,,,,,,,,,,,,,,,,,,,,,,,,,sub-184,1.0,random_dot,59.97832383280011,
right,right,accuracy,,,,,0.0,1.0,1.0,0.0,8.0,0.0,16.0,1.0,374.2157761999988,,,,,,,,,374.20449160000135,375.416075000001,376.2164030999993,376.2017881000065,376.2018768999988,376.2164030999993,376.2164030999993,376.2164030999993,,377.6362239000009,right,1.0,18.051578500002503,,,,,,,,,,,,,,,,,,,,,,,,,,,,,,,sub-184,1.0,random_dot,59.97832383280011,
left,left,accuracy,,,,,0.0,1.0,1.0,0.0,8.0,1.0,17.0,0.0,377.6500309999974,,,,,,,,,377.6374165000016,378.8499371000071,379.6500533999933,379.6354313000047,379.63548310000624,379.6500533999933,379.6500533999933,379.6500533999933,,380.5203521999938,left,1.0,17.498781000002054,,,,,,,,,,,,,,,,,,,,,,,,,,,,,,,sub-184,1.0,random_dot,59.97832383280011,
left,left,accuracy,,,,,0.0,1.0,1.0,0.0,9.0,0.0,18.0,0.0,380.5333721000061,,,,,,,,,380.5218994000024,380.8836966999952,381.6842450999975,381.6689897000033,381.66904809999687,381.6842450999975,381.6842450999975,381.6842450999975,,382.8698588999978,left,1.0,17.811349900017376,,,,,,,,,,,,,,,,,,,,,,,,,,,,,,,sub-184,1.0,random_dot,59.97832383280011,
right,right,accuracy,,,,,0.0,1.0,1.0,0.0,9.0,1.0,19.0,1.0,382.8839233000035,,,,,,,,,382.8713259000069,383.6839030999981,384.48423970000295,384.4695573000063,384.4696038999973,384.48423970000295,384.48423970000295,384.48423970000295,,387.3214728000021,right,1.0,19.4733997000003,,,,,,,,,,,,,,,,,,,,,,,,,,,,,,,sub-184,1.0,random_dot,59.97832383280011,
right,right,accuracy,,,,,0.0,1.0,1.0,0.0,10.0,0.0,20.0,1.0,387.3342948000063,,,,,,,,,387.3232133999991,388.13499550000415,388.93530949999695,388.9200859999983,388.9201380000013,388.93530949999695,388.93530949999695,388.93530949999695,,390.1220325000031,right,1.0,17.822477000008803,,,,,,,,,,,,,,,,,,,,,,,,,,,,,,,sub-184,1.0,random_dot,59.97832383280011,
left,left,accuracy,,,,,0.0,1.0,1.0,0.0,10.0,1.0,21.0,0.0,390.1351330000034,,,,,,,,,390.12342689999787,390.2353028000071,391.035501499995,391.0205903000024,391.0206327000051,391.035501499995,391.035501499995,391.035501499995,,392.6382845000044,left,1.0,18.23622989999421,,,,,,,,,,,,,,,,,,,,,,,,,,,,,,,sub-184,1.0,random_dot,59.97832383280011,
right,right,accuracy,,,,,0.0,1.0,1.0,0.0,11.0,0.0,22.0,1.0,392.6523428999935,,,,,,,,,392.6395403000061,393.45241640000313,394.2526040999946,394.2377942000021,394.2378463000059,394.2526040999946,394.2526040999946,394.2526040999946,,395.4881868999946,left,0.0,17.861447000002954,,,,,,,,,,,,,,,,,,,,,,,,,,,,,,,sub-184,1.0,random_dot,59.97832383280011,
left,left,accuracy,,,,,0.0,1.0,1.0,0.0,11.0,1.0,23.0,0.0,395.5023776000016,,,,,,,,,395.48983540000336,396.3025976000063,397.1031223000027,397.0876297000068,397.0876768000017,397.1031223000027,397.1031223000027,397.1031223000027,,397.9058570000052,left,1.0,17.432399299999815,,,,,,,,,,,,,,,,,,,,,,,,,,,,,,,sub-184,1.0,random_dot,59.97832383280011,
left,left,accuracy,,,,,0.0,1.0,1.0,0.0,12.0,0.0,24.0,0.0,397.9192691000062,,,,,,,,,397.9076883999951,398.71983210000326,399.5201793000015,399.5047820000036,399.5048324999953,399.5201793000015,399.5201793000015,399.5201793000015,,400.5567482000042,left,1.0,17.67229220000445,,,,,,,,,,,,,,,,,,,,,,,,,,,,,,,sub-184,1.0,random_dot,59.97832383280011,
right,right,accuracy,,,,,0.0,1.0,1.0,0.0,12.0,1.0,25.0,1.0,400.56940439999744,,,,,,,,,400.55848870000045,400.6698562999954,401.4705459999968,401.4550806000043,401.45513230000506,401.4705459999968,401.4705459999968,401.4705459999968,,402.1408472000039,right,1.0,17.30693799999426,,,,,,,,,,,,,,,,,,,,,,,,,,,,,,,sub-184,1.0,random_dot,59.97832383280011,
left,left,accuracy,,,,,0.0,1.0,1.0,0.0,13.0,0.0,26.0,0.0,402.153217900006,,,,,,,,,402.1425232000038,402.5036357000063,403.3039853999944,403.2893444999936,403.28939629999513,403.3039853999944,403.3039853999944,403.3039853999944,,403.9399684999953,right,0.0,17.269897000005585,,,,,,,,,,,,,,,,,,,,,,,,,,,,,,,sub-184,1.0,random_dot,59.97832383280011,
right,right,accuracy,,,,,0.0,1.0,1.0,0.0,13.0,1.0,27.0,1.0,403.9536497999943,,,,,,,,,403.9413207000034,404.7541341000033,405.5542865000025,405.538870000004,405.5389240000077,405.5542865000025,405.5542865000025,405.5542865000025,,407.27350280000246,left,0.0,18.342463099994347,,,,,,,,,,,,,,,,,,,,,,,,,,,,,,,sub-184,1.0,random_dot,59.97832383280011,
right,right,accuracy,,,,,0.0,1.0,1.0,0.0,14.0,0.0,28.0,1.0,407.2876700000052,,,,,,,,,407.275169200002,408.0878720000037,408.8884242000058,408.87303420000535,408.8730885999976,408.8884242000058,408.8884242000058,408.8884242000058,,411.82366350000666,right,1.0,19.562298799995915,,,,,,,,,,,,,,,,,,,,,,,,,,,,,,,sub-184,1.0,random_dot,59.97832383280011,
left,left,accuracy,,,,,0.0,1.0,1.0,0.0,14.0,1.0,29.0,0.0,411.83822790000704,,,,,,,,,411.8251348000049,412.1886820999935,412.9889170999959,412.9730424000009,412.9730955999985,412.9889170999959,412.9889170999959,412.9889170999959,,414.0415141999984,left,1.0,17.68571800000791,,,,,,,,,,,,,,,,,,,,,,,,,,,,,,,sub-184,1.0,random_dot,59.97832383280011,
right,right,accuracy,,,,,0.0,1.0,1.0,0.0,15.0,0.0,30.0,1.0,414.0550949000026,,,,,,,,,414.04289199999766,414.40528300000005,415.2059110999981,415.1903377999988,415.190393900004,415.2059110999981,415.2059110999981,415.2059110999981,,416.7259266000037,left,0.0,18.151103100011824,,,,,,,,,,,,,,,,,,,,,,,,,,,,,,,sub-184,1.0,random_dot,59.97832383280011,
left,left,accuracy,,,,,0.0,1.0,1.0,0.0,15.0,1.0,31.0,0.0,416.7390662999969,,,,,,,,,416.7275253999978,416.83951750000415,417.6395048999984,417.624510900001,417.6245602999989,417.6395048999984,417.6395048999984,417.6395048999984,,419.30916089999664,right,0.0,18.29533350000565,,,,,,,,,,,,,,,,,,,,,,,,,,,,,,,sub-184,1.0,random_dot,59.97832383280011,
right,right,accuracy,,,,,0.0,1.0,1.0,0.0,16.0,0.0,32.0,1.0,419.3226982000051,,,,,,,,,419.31083610000496,419.6727489000041,420.4730907000048,420.45773650000046,420.4577754000056,420.4730907000048,420.4730907000048,420.4730907000048,,421.3759948999941,right,1.0,17.531407300004503,,,,,,,,,,,,,,,,,,,,,,,,,,,,,,,sub-184,1.0,random_dot,59.97832383280011,
left,left,accuracy,,,,,0.0,1.0,1.0,0.0,16.0,1.0,33.0,0.0,421.3896086000023,,,,,,,,,421.3777115999983,422.1897506999958,422.9900860000053,422.9747995000071,422.9748624000058,422.9900860000053,422.9900860000053,422.9900860000053,,423.9262279999966,left,1.0,17.567374899997958,,,,,,,,,,,,,,,,,,,,,,,,,,,,,,,sub-184,1.0,random_dot,59.97832383280011,
left,left,accuracy,,,,,0.0,1.0,1.0,0.0,17.0,0.0,34.0,0.0,423.93996940000216,,,,,,,,,423.9279341999936,425.1404731999937,425.94090600000345,425.925866000005,425.925903299998,425.94090600000345,425.94090600000345,425.94090600000345,,426.6611528000067,left,1.0,17.356618100006017,,,,,,,,,,,,,,,,,,,,,,,,,,,,,,,sub-184,1.0,random_dot,59.97832383280011,
right,right,accuracy,,,,,0.0,1.0,1.0,0.0,17.0,1.0,35.0,1.0,426.6738766000053,,,,,,,,,426.6626955999964,426.7741068000032,427.5743707999936,427.5593002999958,427.5593451000023,427.5743707999936,427.5743707999936,427.5743707999936,,428.27821940000285,right,1.0,17.340703100009705,,,,,,,,,,,,,,,,,,,,,,,,,,,,,,,sub-184,1.0,random_dot,59.97832383280011,
left,left,accuracy,,,,,0.0,1.0,1.0,0.0,18.0,0.0,36.0,0.0,428.2905198999943,,,,,,,,,428.279824600002,429.49092359999486,430.2914977000037,430.2759825999965,430.27603170000657,430.2914977000037,430.2914977000037,430.2914977000037,,431.5276062000048,left,1.0,17.864875300001586,,,,,,,,,,,,,,,,,,,,,,,,,,,,,,,sub-184,1.0,random_dot,59.97832383280011,
right,right,accuracy,,,,,0.0,1.0,1.0,0.0,18.0,1.0,37.0,1.0,431.5412364999938,,,,,,,,,431.5292167000007,431.89115549999406,432.691597099998,432.6768829000066,432.6769328999944,432.691597099998,432.691597099998,432.691597099998,,433.961464299995,left,0.0,17.905520400003297,,,,,,,,,,,,,,,,,,,,,,,,,,,,,,,sub-184,1.0,random_dot,59.97832383280011,
left,left,accuracy,,,,,0.0,1.0,1.0,0.0,19.0,0.0,38.0,0.0,433.9744709999941,,,,,,,,,433.9631994999945,434.7748683999962,435.57544850000704,435.5602712999971,435.56031889999576,435.57544850000704,435.57544850000704,435.57544850000704,,437.4946956000058,left,1.0,18.54201630000898,,,,,,,,,,,,,,,,,,,,,,,,,,,,,,,sub-184,1.0,random_dot,59.97832383280011,
right,right,accuracy,,,,,0.0,1.0,1.0,0.0,19.0,1.0,39.0,1.0,437.50874370000383,,,,,,,,,437.4968930000032,437.85897990000376,438.6594909999985,438.6425897000008,438.6426197999972,438.6594909999985,438.6594909999985,438.6594909999985,,440.4955023000075,left,0.0,18.464445999998134,,,,,,,,,,,,,,,,,,,,,,,,,,,,,,,sub-184,1.0,random_dot,59.97832383280011,
left,left,accuracy,,,,,0.0,1.0,1.0,0.0,20.0,0.0,40.0,0.0,440.5090638999973,,,,,,,,,440.4974144000007,441.7095416999946,442.5100467000011,442.4945336999954,442.4945945000072,442.5100467000011,442.5100467000011,442.5100467000011,,443.7973704000033,left,1.0,17.92438330000732,,,,,,,,,,,,,,,,,,,,,,,,,,,,,,,sub-184,1.0,random_dot,59.97832383280011,
right,right,accuracy,,,,,0.0,1.0,1.0,0.0,20.0,1.0,41.0,1.0,443.8095885999937,,,,,,,,,443.7991048999975,443.9101037999935,444.7103605000011,444.69480729999486,444.69486669999606,444.7103605000011,444.7103605000011,444.7103605000011,,446.73094759999367,right,1.0,18.656476200005272,,,,,,,,,,,,,,,,,,,,,,,,,,,,,,,sub-184,1.0,random_dot,59.97832383280011,
right,right,accuracy,,,,,0.0,1.0,1.0,0.0,21.0,0.0,42.0,1.0,446.7431881999946,,,,,,,,,446.7325715000042,447.544066500006,448.3440020999988,448.3287852000067,448.32883529999526,448.3440020999988,448.3440020999988,448.3440020999988,,449.0979692999972,right,1.0,17.38949919999868,,,,,,,,,,,,,,,,,,,,,,,,,,,,,,,sub-184,1.0,random_dot,59.97832383280011,
left,left,accuracy,,,,,0.0,1.0,1.0,0.0,21.0,1.0,43.0,0.0,449.110397299999,,,,,,,,,449.09948910000094,449.21051970000553,450.0111166999996,449.99548610000056,449.99552660000336,450.0111166999996,450.0111166999996,450.0111166999996,,451.38040939999337,right,0.0,17.99049090000335,,,,,,,,,,,,,,,,,,,,,,,,,,,,,,,sub-184,1.0,random_dot,59.97832383280011,
right,right,accuracy,,,,,0.0,1.0,1.0,0.0,22.0,0.0,44.0,1.0,451.39412820000143,,,,,,,,,451.3819437000057,451.744217200001,452.5451069999981,452.5287607000064,452.5287990999932,452.5451069999981,452.5451069999981,452.5451069999981,,453.399026900006,right,1.0,17.478501900011906,,,,,,,,,,,,,,,,,,,,,,,,,,,,,,,sub-184,1.0,random_dot,59.97832383280011,
left,left,accuracy,,,,,0.0,1.0,1.0,0.0,22.0,1.0,45.0,0.0,453.41109189999406,,,,,,,,,453.4006497999944,454.6113968999998,455.411749100007,455.3966192999942,455.39666870000656,455.411749100007,455.411749100007,455.411749100007,,456.5821673000028,left,1.0,17.802934999999707,,,,,,,,,,,,,,,,,,,,,,,,,,,,,,,sub-184,1.0,random_dot,59.97832383280011,
left,left,accuracy,,,,,0.0,1.0,1.0,0.0,23.0,0.0,46.0,0.0,456.59479970000393,,,,,,,,,456.5839210999984,456.9451706999971,457.74570010000025,457.7303091000067,457.73035569999774,457.74570010000025,457.74570010000025,457.74570010000025,,459.96542140000383,right,0.0,18.84153280001192,,,,,,,,,,,,,,,,,,,,,,,,,,,,,,,sub-184,1.0,random_dot,59.97832383280011,
right,right,accuracy,,,,,0.0,1.0,1.0,0.0,23.0,1.0,47.0,1.0,459.9786101000064,,,,,,,,,459.9669908000069,460.7788244999974,461.5793924000027,461.5647666000005,461.56482060000417,461.5793924000027,461.5793924000027,461.5793924000027,,463.0993509999971,left,0.0,18.14155990001745,,,,,,,,,,,,,,,,,,,,,,,,,,,,,,,sub-184,1.0,random_dot,59.97832383280011,
left,left,accuracy,,,,,0.0,1.0,1.0,0.0,24.0,0.0,48.0,0.0,463.1127597000013,,,,,,,,,463.1008696000063,463.2130204999994,464.0134295000025,463.9978766999993,463.9979139000061,464.0134295000025,464.0134295000025,464.0134295000025,,465.5162798999954,left,1.0,18.12855700000364,,,,,,,,,,,,,,,,,,,,,,,,,,,,,,,sub-184,1.0,random_dot,59.97832383280011,
right,right,accuracy,,,,,0.0,1.0,1.0,0.0,24.0,1.0,49.0,1.0,465.529664200003,,,,,,,,,465.5179308999941,466.3296345999988,467.1304528000037,467.1152277000074,467.1152707000001,467.1304528000037,467.1304528000037,467.1304528000037,,469.1012124999979,right,1.0,18.59693320000952,,,,,,,,,,,,,,,,,,,,,,,,,,,,,,,sub-184,1.0,random_dot,59.97832383280011,
right,right,accuracy,,,,,0.0,1.0,1.0,0.0,25.0,0.0,50.0,1.0,469.11351179999474,,,,,,,,,469.1028382999939,469.2137504999992,470.0140298000042,469.9992002000072,469.9993140000006,470.0140298000042,470.0140298000042,470.0140298000042,,471.5842310000007,left,0.0,18.20645160001004,,,,,,,,,,,,,,,,,,,,,,,,,,,,,,,sub-184,1.0,random_dot,59.97832383280011,
left,left,accuracy,,,,,0.0,1.0,1.0,0.0,25.0,1.0,51.0,0.0,471.597151199996,,,,,,,,,471.5863105000026,472.39747320000606,473.1982677000051,473.1827109000005,473.1827462999936,473.1982677000051,473.1982677000051,473.1982677000051,,474.7168448000011,right,0.0,18.15633000001253,,,,,,,,,,,,,,,,,,,,,,,,,,,,,,,sub-184,1.0,random_dot,59.97832383280011,
right,right,accuracy,,,,,0.0,1.0,1.0,0.0,26.0,0.0,52.0,1.0,474.7310436999978,,,,,,,,,474.71798080000735,475.9312323000049,476.73164189999807,476.7167252000072,476.7167776999995,476.73164189999807,476.73164189999807,476.73164189999807,,478.60363979999966,right,1.0,18.506897400002345,,,,,,,,,,,,,,,,,,,,,,,,,,,,,,,sub-184,1.0,random_dot,59.97832383280011,
left,left,accuracy,,,,,0.0,1.0,1.0,0.0,26.0,1.0,53.0,0.0,478.6148545000033,,,,,,,,,478.6050503000006,479.4150916000072,480.2157961000048,480.20080900000175,480.20085870000185,480.2157961000048,480.2157961000048,480.2157961000048,,482.2022657000052,right,0.0,18.61928510000871,,,,,,,,,,,,,,,,,,,,,,,,,,,,,,,sub-184,1.0,random_dot,59.97832383280011,
right,right,accuracy,,,,,0.0,1.0,1.0,0.0,27.0,0.0,54.0,1.0,482.2153057999967,,,,,,,,,482.2039001999947,483.01584320000256,483.81598539999686,483.8009810000076,483.8010234999965,483.81598539999686,483.81598539999686,483.81598539999686,,485.68543409999984,right,1.0,18.499429400006196,,,,,,,,,,,,,,,,,,,,,,,,,,,,,,,sub-184,1.0,random_dot,59.97832383280011,
left,left,accuracy,,,,,0.0,1.0,1.0,0.0,27.0,1.0,55.0,0.0,485.6992369999935,,,,,,,,,485.68747520000034,486.4998204000003,487.3015990999993,487.2848389999999,487.2848840999941,487.3015990999993,487.3015990999993,487.3015990999993,,488.6032513999962,left,1.0,17.935294399998384,,,,,,,,,,,,,,,,,,,,,,,,,,,,,,,sub-184,1.0,random_dot,59.97832383280011,
left,left,accuracy,,,,,0.0,1.0,1.0,0.0,28.0,0.0,56.0,0.0,488.6163609000069,,,,,,,,,488.6047989000072,489.8169220999989,490.617390600004,490.60218250000617,490.6022748999967,490.617390600004,490.617390600004,490.617390600004,,492.70291279999947,left,1.0,18.70894950001093,,,,,,,,,,,,,,,,,,,,,,,,,,,,,,,sub-184,1.0,random_dot,59.97832383280011,
right,right,accuracy,,,,,0.0,1.0,1.0,0.0,28.0,1.0,57.0,1.0,492.7173435000004,,,,,,,,,492.7043549999944,493.0673876999936,493.86790219999966,493.8522959999973,493.85233320000407,493.86790219999966,493.86790219999966,493.86790219999966,,495.67113649999374,right,1.0,18.436734500006423,,,,,,,,,,,,,,,,,,,,,,,,,,,,,,,sub-184,1.0,random_dot,59.97832383280011,
left,left,accuracy,,,,,0.0,1.0,1.0,0.0,29.0,0.0,58.0,0.0,495.684288000004,,,,,,,,,495.6726433000004,496.884286200002,497.6849726000073,497.6694493999967,497.6694909999933,497.6849726000073,497.6849726000073,497.6849726000073,,499.3372594999964,left,1.0,18.28546830000414,,,,,,,,,,,,,,,,,,,,,,,,,,,,,,,sub-184,1.0,random_dot,59.97832383280011,
right,right,accuracy,,,,,0.0,1.0,1.0,0.0,29.0,1.0,59.0,1.0,499.35121799999615,,,,,,,,,499.33882239999366,500.1518001000077,500.952071000007,500.9366868999932,500.9367446999968,500.952071000007,500.952071000007,500.952071000007,,501.7885704999935,right,1.0,17.462130500003695,,,,,,,,,,,,,,,,,,,,,,,,,,,,,,,sub-184,1.0,random_dot,59.97832383280011,
,,accuracy,,,,,0.0,1.0,1.0,0.0,,,,,,,,,,,,,,,,,,,,,,,,,,,,,,,,,,,,,,,,,,,,,,,,,,,,,,,,,sub-184,1.0,random_dot,59.97832383280011,
,,,,,,,,,,,,,,,,,,,,,,,,,,,,,,,,,,,,,,,,,,,,,,,,,,,,,,,,,,,,,,,501.78977360000135,501.8017271999997,506.8027544999932,506.7877195000037,sub-184,,,,
