direction,corrAns,thisN,thisTrialN,thisRepN,respDots.keys,respDots.corr,respDots.rt,respDots.duration,randomInstr,respRandomInstr.keys,respRandomInstr.rt,respRandomInstr.duration,practice_trials.thisRepN,practice_trials.thisTrialN,practice_trials.thisN,practice_trials.thisIndex,instr_trials.thisRepN,instr_trials.thisTrialN,instr_trials.thisN,instr_trials.thisIndex,test_trials.thisRepN,test_trials.thisTrialN,test_trials.thisN,test_trials.thisIndex,thisRow.t,notes,general_instruction.started,textGeneralInstr.started,respGeneralInstr.started,general_instruction.stopped,respGeneralInstr.keys,respGeneralInstr.rt,respGeneralInstr.duration,ITI.started,fixcross.started,fixcross.stopped,ITI.stopped,dots.started,backgroundDots.started,stimulusDots.started,respDots.started,dots.stopped,practice_trials.respDots.keys,practice_trials.respDots.corr,practice_trials.respDots.rt,practice_trials.respDots.duration,feedback.started,textFeedback.started,feedback.stopped,textFeedback.stopped,info.started,textInfo.started,keyRespInfo.started,info.stopped,keyRespInfo.keys,keyRespInfo.rt,keyRespInfo.duration,test_instruction.started,textTestInstr.started,respTestInstr.started,test_instruction.stopped,respTestInstr.keys,respTestInstr.rt,respTestInstr.duration,random_instruction.started,textRandomInstr.started,respRandomInstr.started,random_instruction.stopped,instr_trials.respRandomInstr.keys,instr_trials.respRandomInstr.rt,instr_trials.respRandomInstr.duration,test_trials.respDots.keys,test_trials.respDots.corr,test_trials.respDots.rt,test_trials.respDots.duration,stimulusDots.stopped,goodbye.started,textGoodbye.started,goodbye.stopped,participant,session,expName,frameRate,Unnamed: 87
,,,,,,,,,,,,,,,,,,,,,,,,,,,0.0352813749341294,0.0480626249918714,0.0480626249918714,3.890677082934417,space,3.739706207998097,,,,,,,,,,,,,,,,,,,,,,,,,,,,,,,,,,,,,,,,,,,,,,,,sub-110,1,random_dot,,
right,right,0.0,0.0,0.0,right,1.0,2.236485332949087,,,,,,0.0,0.0,0.0,1.0,,,,,,,,,3.935222083004192,,,,,,,,,3.920243832981214,4.691383957979269,5.490293249953538,5.477320791920647,5.47786029195413,5.490293249953538,5.490293249953538,5.490293249953538,7.729598541976884,right,1.0,2.236485332949087,,7.742104832897894,7.798324249917641,8.237898707971908,,,,,,,,,,,,,,,,,,,,,,,,,,,,,,,sub-110,1,random_dot,,
left,left,1.0,1.0,0.0,left,1.0,0.7685363750206307,,,,,,0.0,1.0,1.0,0.0,,,,,,,,,8.244176249951124,,,,,,,,,8.238652457948774,9.02813570795115,9.82011429197155,9.811211916967297,9.811846041935496,9.82011429197155,9.82011429197155,9.82011429197155,10.594318374991415,left,1.0,0.7685363750206307,,10.594468832947314,10.605002707918176,11.088289749925025,11.094632916967385,,,,,,,,,,,,,,,,,,,,,,,,,,,,,,sub-110,1,random_dot,,
right,right,2.0,0.0,1.0,right,1.0,0.5685655829729512,,,,,,1.0,0.0,2.0,1.0,,,,,,,,,11.094632916967385,,,,,,,,,11.08896508300677,11.44449954200536,12.246139999944717,12.2382802919019,12.239005707902834,12.246139999944717,12.246139999944717,12.246139999944717,12.820936874952167,right,1.0,0.5685655829729512,,12.821062791976146,12.828983332961798,13.32129862497095,,,,,,,,,,,,,,,,,,,,,,,,,,,,,,,sub-110,1,random_dot,,
left,left,3.0,1.0,1.0,left,1.0,0.641512374044396,,,,,,1.0,1.0,3.0,0.0,,,,,,,,,13.326934666954912,,,,,,,,,13.321807666914538,14.511127042002045,15.302943957969546,15.294325166963972,15.294763291953132,15.302943957969546,15.302943957969546,15.302943957969546,15.95675108290743,left,1.0,0.641512374044396,,15.956963707925752,15.962918957928196,16.454857874894515,16.461118166917004,,,,,,,,,,,,,,,,,,,,,,,,,,,,,,sub-110,1,random_dot,,
right,right,4.0,0.0,2.0,right,1.0,0.7087580830557272,,,,,,2.0,0.0,4.0,1.0,,,,,,,,,16.461118166917004,,,,,,,,,16.45550087490119,17.253029291983694,18.047637624898925,18.038433416979387,18.03921699989587,18.047637624898925,18.047637624898925,18.047637624898925,18.762130541959777,right,1.0,0.7087580830557272,,18.762277249945328,18.77074541698676,19.25468879193068,19.260223291930743,,,,,,,,,,,,,,,,,,,,,,,,,,,,,,sub-110,1,random_dot,,
left,left,5.0,1.0,2.0,left,1.0,0.5786205410258844,,,,,,2.0,1.0,5.0,0.0,,,,,,,,,19.260223291930743,,,,,,,,,19.255167666939087,19.360995583003387,20.159686374943703,20.144687582971528,20.145291124936197,20.159686374943703,20.159686374943703,20.159686374943703,20.74481474992353,left,1.0,0.5786205410258844,,20.744950916967355,20.75351608300116,21.23759245791007,21.24253820790909,,,,,,,,,,,,,,,,,,,,,,,,,,,,,,sub-110,1,random_dot,,
left,left,6.0,0.0,3.0,right,0.0,0.743086499045603,,,,,,3.0,0.0,6.0,0.0,,,,,,,,,21.24253820790909,,,,,,,,,21.23791562498081,22.044551832950678,22.846137624932453,22.838018957991157,22.838661416899413,22.846137624932453,22.846137624932453,22.846137624932453,23.596641416894272,right,0.0,0.743086499045603,,23.60686345794238,23.613015916896984,24.104245374910533,,,,,,,,,,,,,,,,,,,,,,,,,,,,,,,sub-110,1,random_dot,,
right,right,7.0,1.0,3.0,right,1.0,0.7832436660537496,,,,,,3.0,1.0,7.0,1.0,,,,,,,,,24.109043999924324,,,,,,,,,24.104635374969803,25.304444832960144,26.09786266693845,26.088302166899663,26.089970832923427,26.09786266693845,26.09786266693845,26.09786266693845,26.88790704193525,right,1.0,0.7832436660537496,,26.893329499987885,26.902311791898683,27.38829862489365,27.39548308297526,,,,,,,,,,,,,,,,,,,,,,,,,,,,,,sub-110,1,random_dot,,
left,left,8.0,0.0,4.0,left,1.0,0.6576252080267295,,,,,,4.0,0.0,8.0,0.0,,,,,,,,,27.39548308297526,,,,,,,,,27.38915499998257,28.586812541936524,29.37449791689869,29.369715666980483,29.369939500000328,29.37449791689869,29.37449791689869,29.37449791689869,30.04010170791298,left,1.0,0.6576252080267295,,30.04035479191225,30.04973245796282,30.54574308299925,,,,,,,,,,,,,,,,,,,,,,,,,,,,,,,sub-110,1,random_dot,,
right,right,9.0,1.0,4.0,right,1.0,0.7082407079869881,,,,,,4.0,1.0,9.0,1.0,,,,,,,,,30.554133708006702,,,,,,,,,30.546060624998063,31.73788999998942,32.529758832999505,32.52144354197662,32.52228279190604,32.529758832999505,32.529758832999505,32.529758832999505,33.24874829198234,right,1.0,0.7082407079869881,,33.248872082913294,33.2708229169948,33.75469820795115,,,,,,,,,,,,,,,,,,,,,,,,,,,,,,,sub-110,1,random_dot,,
left,left,10.0,0.0,5.0,left,1.0,0.5914825829677284,,,,,,5.0,0.0,10.0,0.0,,,,,,,,,33.7603088329779,,,,,,,,,33.75519229192287,34.09431820793543,34.88634229195304,34.877775957924314,34.87817133299541,34.88634229195304,34.88634229195304,34.88634229195304,35.4799932918977,left,1.0,0.5914825829677284,,35.4801265419228,35.504178207949735,35.987738083000295,,,,,,,,,,,,,,,,,,,,,,,,,,,,,,,sub-110,1,random_dot,,
right,right,11.0,1.0,5.0,left,0.0,0.4899808749323711,,,,,,5.0,1.0,11.0,1.0,,,,,,,,,35.99304345797282,,,,,,,,,35.988220541970804,36.32795287494082,37.12977208290249,37.1210547919618,37.12165441690013,37.12977208290249,37.12977208290249,37.12977208290249,37.62222037499305,left,0.0,0.4899808749323711,,37.628776541911066,37.6374694169499,38.12121579190716,38.12689762492664,,,,,,,,,,,,,,,,,,,,,,,,,,,,,,sub-110,1,random_dot,,
right,right,12.0,0.0,6.0,right,1.0,0.7594348329585046,,,,,,6.0,0.0,12.0,1.0,,,,,,,,,38.12689762492664,,,,,,,,,38.12176116695628,38.470977791934274,39.26334487495478,39.254632749944,39.25539841700811,39.26334487495478,39.26334487495478,39.26334487495478,40.0302064169664,right,1.0,0.7594348329585046,,40.034720374969766,40.04241870797705,40.528010457986966,40.53760779195,,,,,,,,,,,,,,,,,,,,,,,,,,,,,,sub-110,1,random_dot,,
left,left,13.0,1.0,6.0,right,0.0,3.227509457967244,,,,,,6.0,1.0,13.0,0.0,,,,,,,,,40.53760779195,,,,,,,,,40.52853954199236,41.32781212497503,42.12010879197624,42.11112633300945,42.11178299994208,42.12010879197624,42.12010879197624,42.12010879197624,45.35765504196752,right,0.0,3.227509457967244,,45.36547174991574,45.372771791997366,45.85937183292117,,,,,,,,,,,,,,,,,,,,,,,,,,,,,,,sub-110,1,random_dot,,
left,left,14.0,0.0,7.0,right,0.0,0.8430739999748766,,,,,,7.0,0.0,14.0,0.0,,,,,,,,,45.8744698750088,,,,,,,,,45.86380279192235,45.95394429191947,46.74432499997784,46.73692241695244,46.73773912491743,46.74432499997784,46.74432499997784,46.74432499997784,47.597817457979545,right,0.0,0.8430739999748766,,47.59794583299663,47.60385170800146,48.08780249999836,48.093821624992415,,,,,,,,,,,,,,,,,,,,,,,,,,,,,,sub-110,1,random_dot,,
right,right,15.0,1.0,7.0,right,1.0,1.0369787500239909,,,,,,7.0,1.0,15.0,1.0,,,,,,,,,48.093821624992415,,,,,,,,,48.08840291691013,48.8933534999378,49.69545758294407,49.68700166698545,49.688714457908645,49.69545758294407,49.69545758294407,49.69545758294407,50.73866091691889,right,1.0,1.0369787500239909,,50.74563791695982,50.75275749992579,51.23773979197722,51.24420758290216,,,,,,,,,,,,,,,,,,,,,,,,,,,,,,sub-110,1,random_dot,,
right,right,16.0,0.0,8.0,left,0.0,0.5348317910684273,,,,,,8.0,0.0,16.0,1.0,,,,,,,,,51.24420758290216,,,,,,,,,51.2385612919461,52.43624337494839,53.23046845791396,53.221269791945815,53.22212670790032,53.23046845791396,53.23046845791396,53.23046845791396,53.771146624931134,left,0.0,0.5348317910684273,,53.77594070800114,53.782375957933255,54.27118287491612,54.27712245797738,,,,,,,,,,,,,,,,,,,,,,,,,,,,,,sub-110,1,random_dot,,
left,left,17.0,1.0,8.0,right,0.0,1.6427069579949602,,,,,,8.0,1.0,17.0,0.0,,,,,,,,,54.27712245797738,,,,,,,,,54.27164679195266,54.36134370800573,55.153410624945536,55.14436254196335,55.14495012490079,55.153410624945536,55.153410624945536,55.153410624945536,56.80545087496285,right,0.0,1.6427069579949602,,56.80570449994411,56.81337545800488,57.3044042919064,57.31014508299995,,,,,,,,,,,,,,,,,,,,,,,,,,,,,,sub-110,1,random_dot,,
right,right,18.0,0.0,9.0,left,0.0,4.251956832944416,,,,,,9.0,0.0,18.0,1.0,,,,,,,,,57.31014508299995,,,,,,,,,57.304973499965854,58.50423933297861,59.29602599993814,59.28760279191192,59.28826720791403,59.29602599993814,59.29602599993814,59.29602599993814,63.554888624930754,left,0.0,4.251956832944416,,63.555069832946174,63.56343741691671,64.05427462491207,64.06037741689943,,,,,,,,,,,,,,,,,,,,,,,,,,,,,,sub-110,1,random_dot,,
left,left,19.0,1.0,9.0,left,1.0,0.7383208749815822,,,,,,9.0,1.0,19.0,0.0,,,,,,,,,64.06037741689943,,,,,,,,,64.05486529192422,64.14392191695515,64.94464516697917,64.93731708300766,64.93802679190412,64.94464516697917,64.94464516697917,64.94464516697917,65.68859054194763,left,1.0,0.7383208749815822,,65.69443395792041,65.70193183294032,66.18758745794185,66.19693245796952,,,,,,,,,,,,,,,,,,,,,,,,,,,,,,sub-110,1,random_dot,,
,,,,,,,,,,,,,,,,,,,,,,,,,,,,,,,,,,,,,,,,,,,,,,,,,,,66.18793816689868,66.19693245796952,66.19693245796952,68.69554949994199,space,2.4939672079635784,,,,,,,,,,,,,,,,,,,,,,,,sub-110,1,random_dot,,
,,,,,,,,,,,,,,,,,,,,,,,,,,,,,,,,,,,,,,,,,,,,,,,,,,,,,,,,,,68.69565095799044,68.70788337499835,68.70788337499835,74.41346899990458,space,5.700693165999837,,,,,,,,,,,,,,,,,sub-110,1,random_dot,,
left,left,0.0,0.0,0.0,right,0.0,0.5478115000296384,,speed,space,1.240464499918744,,,,,,0.0,0.0,0.0,1.0,0.0,0.0,0.0,0.0,75.70796374999918,,,,,,,,,75.70129020791501,76.88733941700775,77.68064116698224,77.67100799991749,77.67209891695529,77.68064116698224,77.68064116698224,77.68064116698224,78.24588774994481,,,,,,,,,,,,,,,,,,,,,,,74.43505133292638,74.4400710419286,74.4400710419286,75.68922187492717,space,1.240464499918744,,right,0.0,0.5478115000296384,,,,,,sub-110,1,random_dot,,
right,right,1.0,1.0,0.0,left,0.0,0.4963670830475166,,speed,space,1.240464499918744,,,,,,0.0,0.0,0.0,1.0,0.0,1.0,1.0,1.0,78.25211512495298,,,,,,,,,78.24611637496855,79.04251566692255,79.8361022080062,79.82710154191591,79.82766291697044,79.8361022080062,79.8361022080062,79.8361022080062,80.33710870798677,,,,,,,,,,,,,,,,,,,,,,,,,,,,,,left,0.0,0.4963670830475166,,,,,,sub-110,1,random_dot,,
left,left,2.0,0.0,1.0,left,1.0,0.9266060830559582,,speed,space,1.240464499918744,,,,,,0.0,0.0,0.0,1.0,1.0,0.0,2.0,0.0,80.3451867919648,,,,,,,,,80.33764758298639,81.52346395794302,82.31978525000159,82.30984591692686,82.31064258294646,82.31978525000159,82.31978525000159,82.31978525000159,83.25535258289892,,,,,,,,,,,,,,,,,,,,,,,,,,,,,,left,1.0,0.9266060830559582,,,,,,sub-110,1,random_dot,,
right,right,3.0,1.0,1.0,right,1.0,0.540203082957305,,speed,space,1.240464499918744,,,,,,0.0,0.0,0.0,1.0,1.0,1.0,3.0,1.0,83.26408041699324,,,,,,,,,83.25611324992497,83.60399462492205,84.40315341693349,84.39124804199673,84.39164195791818,84.40315341693349,84.40315341693349,84.40315341693349,84.94480604189448,,,,,,,,,,,,,,,,,,,,,,,,,,,,,,right,1.0,0.540203082957305,,,,,,sub-110,1,random_dot,,
right,right,4.0,0.0,2.0,left,0.0,0.9240071660606192,,speed,space,1.240464499918744,,,,,,0.0,0.0,0.0,1.0,2.0,0.0,4.0,1.0,84.95297537499573,,,,,,,,,84.9452590419678,86.14196674991399,86.93620941694826,86.92486399994232,86.92598062497564,86.93620941694826,86.93620941694826,86.93620941694826,87.86413795792032,,,,,,,,,,,,,,,,,,,,,,,,,,,,,,left,0.0,0.9240071660606192,,,,,,sub-110,1,random_dot,,
left,left,5.0,1.0,2.0,right,0.0,1.3196532080182806,,speed,space,1.240464499918744,,,,,,0.0,0.0,0.0,1.0,2.0,1.0,5.0,0.0,87.8736239579739,,,,,,,,,87.86525658296887,87.97076024999842,88.76352495793253,88.75462449993938,88.75552174996119,88.76352495793253,88.76352495793253,88.76352495793253,90.08770487492438,,,,,,,,,,,,,,,,,,,,,,,,,,,,,,right,0.0,1.3196532080182806,,,,,,sub-110,1,random_dot,,
right,right,6.0,0.0,3.0,right,1.0,0.6583902490092441,,speed,space,1.240464499918744,,,,,,0.0,0.0,0.0,1.0,3.0,0.0,6.0,1.0,90.10371508297976,,,,,,,,,90.08833737496752,90.175569166895,90.9687302079983,90.96053691697308,90.96094454196282,90.9687302079983,90.9687302079983,90.9687302079983,91.63837941689415,,,,,,,,,,,,,,,,,,,,,,,,,,,,,,right,1.0,0.6583902490092441,,,,,,sub-110,1,random_dot,,
left,left,7.0,1.0,3.0,left,1.0,0.7495743329636753,,speed,space,1.240464499918744,,,,,,0.0,0.0,0.0,1.0,3.0,1.0,7.0,0.0,91.64459433290176,,,,,,,,,91.63900070800446,91.98727366700768,92.77938962494954,92.77079945791048,92.7713174999226,92.77938962494954,92.77938962494954,92.77938962494954,93.53708054195158,,,,,,,,,,,,,,,,,,,,,,,,,,,,,,left,1.0,0.7495743329636753,,,,,,sub-110,1,random_dot,,
left,left,8.0,0.0,4.0,left,1.0,0.5628548749955371,,speed,space,1.240464499918744,,,,,,0.0,0.0,0.0,1.0,4.0,0.0,8.0,0.0,93.54526095790789,,,,,,,,,93.5377256249776,93.6269323749002,94.4194573329296,94.41049033298624,94.41101579193491,94.4194573329296,94.4194573329296,94.4194573329296,94.9884285419248,,,,,,,,,,,,,,,,,,,,,,,,,,,,,,left,1.0,0.5628548749955371,,,,,,sub-110,1,random_dot,,
right,right,9.0,1.0,4.0,right,1.0,0.8762878739507869,,speed,space,1.240464499918744,,,,,,0.0,0.0,0.0,1.0,4.0,1.0,9.0,1.0,94.99677824997345,,,,,,,,,94.98913949995767,95.33701449993532,96.1296973329736,96.12067870795728,96.12121787492651,96.1296973329736,96.1296973329736,96.1296973329736,97.01068249996752,,,,,,,,,,,,,,,,,,,,,,,,,,,,,,right,1.0,0.8762878739507869,,,,,,sub-110,1,random_dot,,
right,right,10.0,0.0,5.0,right,1.0,2.3198889170307666,,speed,space,1.240464499918744,,,,,,0.0,0.0,0.0,1.0,5.0,0.0,10.0,1.0,97.01912249997258,,,,,,,,,97.01115762500558,97.10340699995868,97.89588891691528,97.88712624995968,97.8875405829167,97.89588891691528,97.89588891691528,97.89588891691528,100.2212514579296,,,,,,,,,,,,,,,,,,,,,,,,,,,,,,right,1.0,2.3198889170307666,,,,,,sub-110,1,random_dot,,
left,left,11.0,1.0,5.0,left,1.0,1.4488015420502052,,speed,space,1.240464499918744,,,,,,0.0,0.0,0.0,1.0,5.0,1.0,11.0,0.0,100.23705324996264,,,,,,,,,100.22178245789836,100.56080304190982,101.36297954199836,101.35416404192802,101.35489279194736,101.36297954199836,101.36297954199836,101.36297954199836,102.82172516698483,,,,,,,,,,,,,,,,,,,,,,,,,,,,,,left,1.0,1.4488015420502052,,,,,,sub-110,1,random_dot,,
left,left,12.0,0.0,6.0,left,1.0,1.9973044169601053,,speed,space,1.240464499918744,,,,,,0.0,0.0,0.0,1.0,6.0,0.0,12.0,0.0,102.83087249996606,,,,,,,,,102.8226264999248,103.17041341692676,103.96125424990896,103.95372958295049,103.95422404189594,103.96125424990896,103.96125424990896,103.96125424990896,105.9629017499974,,,,,,,,,,,,,,,,,,,,,,,,,,,,,,left,1.0,1.9973044169601053,,,,,,sub-110,1,random_dot,,
right,right,13.0,1.0,6.0,right,1.0,0.6491427080472931,,speed,space,1.240464499918744,,,,,,0.0,0.0,0.0,1.0,6.0,1.0,13.0,1.0,105.97244291694368,,,,,,,,,105.96387024992146,107.16031062498224,107.95241304195952,107.94382724992464,107.94429279200268,107.95241304195952,107.95241304195952,107.95241304195952,108.60351995797828,,,,,,,,,,,,,,,,,,,,,,,,,,,,,,right,1.0,0.6491427080472931,,,,,,sub-110,1,random_dot,,
right,right,14.0,0.0,7.0,right,1.0,0.9005892910063267,,speed,space,1.240464499918744,,,,,,0.0,0.0,0.0,1.0,7.0,0.0,14.0,1.0,108.60941170796286,,,,,,,,,108.60396020789632,108.69360429199878,109.48581162490882,109.47685195796656,109.4773719169898,109.48581162490882,109.48581162490882,109.48581162490882,110.39643137494568,,,,,,,,,,,,,,,,,,,,,,,,,,,,,,right,1.0,0.9005892910063267,,,,,,sub-110,1,random_dot,,
left,left,15.0,1.0,7.0,left,1.0,0.5435062079923227,,speed,space,1.240464499918744,,,,,,0.0,0.0,0.0,1.0,7.0,1.0,15.0,0.0,110.40250224992631,,,,,,,,,110.3968878329033,110.74365991691592,111.54702562489548,111.53765899990684,111.53862179198768,111.54702562489548,111.54702562489548,111.54702562489548,112.09547987498809,,,,,,,,,,,,,,,,,,,,,,,,,,,,,,left,1.0,0.5435062079923227,,,,,,sub-110,1,random_dot,,
right,right,16.0,0.0,8.0,right,1.0,0.7397808749228716,,speed,space,1.240464499918744,,,,,,0.0,0.0,0.0,1.0,8.0,0.0,16.0,1.0,112.10377195791808,,,,,,,,,112.0959411249496,112.44377520796844,113.23564887500834,113.22667583299337,113.2270757079823,113.23564887500834,113.23564887500834,113.23564887500834,113.97788220795336,,,,,,,,,,,,,,,,,,,,,,,,,,,,,,right,1.0,0.7397808749228716,,,,,,sub-110,1,random_dot,,
left,left,17.0,1.0,8.0,left,1.0,2.7247359988978133,,speed,space,1.240464499918744,,,,,,0.0,0.0,0.0,1.0,8.0,1.0,17.0,0.0,113.98582729196642,,,,,,,,,113.97842245793436,114.07599462498912,114.86861020792276,114.85950237500948,114.85993491695262,114.86861020792276,114.86861020792276,114.86861020792276,117.60278266691604,,,,,,,,,,,,,,,,,,,,,,,,,,,,,,left,1.0,2.7247359988978133,,,,,,sub-110,1,random_dot,,
left,left,18.0,0.0,9.0,right,0.0,0.6224189989734441,,speed,space,1.240464499918744,,,,,,0.0,0.0,0.0,1.0,9.0,0.0,18.0,0.0,117.60699825000484,,,,,,,,,117.60297949996313,118.39370870799758,119.19381199998315,119.18629724998029,119.1874438750092,119.19381199998315,119.19381199998315,119.19381199998315,119.82125716691372,,,,,,,,,,,,,,,,,,,,,,,,,,,,,,right,0.0,0.6224189989734441,,,,,,sub-110,1,random_dot,,
right,right,19.0,1.0,9.0,right,1.0,0.8233083749655634,,speed,space,1.240464499918744,,,,,,0.0,0.0,0.0,1.0,9.0,1.0,19.0,1.0,119.82951162499376,,,,,,,,,119.82193333294708,120.16998395789416,120.9657434169203,120.9537980830064,120.95445145794656,120.9657434169203,120.9657434169203,120.9657434169203,121.7954239170067,,,,,,,,,,,,,,,,,,,,,,,,,,,,,,right,1.0,0.8233083749655634,,,,,,sub-110,1,random_dot,,
right,right,20.0,0.0,10.0,left,0.0,0.631034665973857,,speed,space,1.240464499918744,,,,,,0.0,0.0,0.0,1.0,10.0,0.0,20.0,1.0,121.80389041698072,,,,,,,,,121.79590737493707,121.89269262494054,122.6939850419294,122.6863464579219,122.68700945796444,122.6939850419294,122.6939850419294,122.6939850419294,123.32746924995443,,,,,,,,,,,,,,,,,,,,,,,,,,,,,,left,0.0,0.631034665973857,,,,,,sub-110,1,random_dot,,
left,left,21.0,1.0,10.0,left,1.0,0.8886395829031244,,speed,space,1.240464499918744,,,,,,0.0,0.0,0.0,1.0,10.0,1.0,21.0,0.0,123.33569716697092,,,,,,,,,123.32792616693769,124.52561791695187,125.31836883293,125.30992595793214,125.31033099989872,125.31836883293,125.31836883293,125.31836883293,126.21004199993332,,,,,,,,,,,,,,,,,,,,,,,,,,,,,,left,1.0,0.8886395829031244,,,,,,sub-110,1,random_dot,,
left,left,22.0,0.0,11.0,left,1.0,0.8164867490995675,,speed,space,1.240464499918744,,,,,,0.0,0.0,0.0,1.0,11.0,0.0,22.0,0.0,126.21853495796675,,,,,,,,,126.21056208293884,126.3102769999532,127.10949545796028,127.10292604193091,127.10371749999469,127.10949545796028,127.10949545796028,127.10949545796028,127.92836224997882,,,,,,,,,,,,,,,,,,,,,,,,,,,,,,left,1.0,0.8164867490995675,,,,,,sub-110,1,random_dot,,
right,right,23.0,1.0,11.0,right,1.0,0.9431619169190526,,speed,space,1.240464499918744,,,,,,0.0,0.0,0.0,1.0,11.0,1.0,23.0,1.0,127.93694608297665,,,,,,,,,127.92892129195388,128.02580025000498,128.81983324990142,128.80874762497842,128.80908558296505,128.81983324990142,128.81983324990142,128.81983324990142,129.77053179196082,,,,,,,,,,,,,,,,,,,,,,,,,,,,,,right,1.0,0.9431619169190526,,,,,,sub-110,1,random_dot,,
right,right,24.0,0.0,12.0,right,1.0,1.3545699999667704,,speed,space,1.240464499918744,,,,,,0.0,0.0,0.0,1.0,12.0,0.0,24.0,1.0,129.77753049996682,,,,,,,,,129.7712176250061,130.96026749990415,131.76123637496494,131.7527902079746,131.753530207905,131.76123637496494,131.76123637496494,131.76123637496494,133.1196539578959,,,,,,,,,,,,,,,,,,,,,,,,,,,,,,right,1.0,1.3545699999667704,,,,,,sub-110,1,random_dot,,
left,left,25.0,1.0,12.0,left,1.0,1.256097000092268,,speed,space,1.240464499918744,,,,,,0.0,0.0,0.0,1.0,12.0,1.0,25.0,0.0,133.12800337490626,,,,,,,,,133.12015879200771,133.459171333001,134.25160658289678,134.2426305419067,134.24319324991666,134.25160658289678,134.25160658289678,134.25160658289678,135.51094554190058,,,,,,,,,,,,,,,,,,,,,,,,,,,,,,left,1.0,1.256097000092268,,,,,,sub-110,1,random_dot,,
right,right,26.0,0.0,13.0,right,1.0,1.50033466599416,,speed,space,1.240464499918744,,,,,,0.0,0.0,0.0,1.0,13.0,0.0,26.0,1.0,135.5190386249451,,,,,,,,,135.5114060830092,136.70911858300678,137.51025483291596,137.5024963329779,137.50358754198533,137.51025483291596,137.51025483291596,137.51025483291596,139.032679582946,,,,,,,,,,,,,,,,,,,,,,,,,,,,,,right,1.0,1.50033466599416,,,,,,sub-110,1,random_dot,,
left,left,27.0,1.0,13.0,left,1.0,0.8393020409857854,,speed,space,1.240464499918744,,,,,,0.0,0.0,0.0,1.0,13.0,1.0,27.0,0.0,139.03971241693944,,,,,,,,,139.03339841694105,139.37568599998485,140.17724620795343,140.16909216693605,140.1701687918976,140.17724620795343,140.17724620795343,140.17724620795343,141.02010387496557,,,,,,,,,,,,,,,,,,,,,,,,,,,,,,left,1.0,0.8393020409857854,,,,,,sub-110,1,random_dot,,
left,left,28.0,0.0,14.0,left,1.0,2.8853157919365917,,speed,space,1.240464499918744,,,,,,0.0,0.0,0.0,1.0,14.0,0.0,28.0,0.0,141.0246919170022,,,,,,,,,141.02027112490032,141.11001724994276,141.90211237489711,141.89270333293825,141.8931213329779,141.90211237489711,141.90211237489711,141.90211237489711,144.80592824995983,,,,,,,,,,,,,,,,,,,,,,,,,,,,,,left,1.0,2.8853157919365917,,,,,,sub-110,1,random_dot,,
right,right,29.0,1.0,14.0,right,1.0,1.6532753750216216,,speed,space,1.240464499918744,,,,,,0.0,0.0,0.0,1.0,14.0,1.0,29.0,1.0,144.81185125000775,,,,,,,,,144.80649279197678,146.00310687499586,146.79492395790294,146.78723220794927,146.787884249934,146.79492395790294,146.79492395790294,146.79492395790294,148.4531577079324,,,,,,,,,,,,,,,,,,,,,,,,,,,,,,right,1.0,1.6532753750216216,,,,,,sub-110,1,random_dot,,
right,right,30.0,0.0,15.0,right,1.0,1.0374772920040414,,speed,space,1.240464499918744,,,,,,0.0,0.0,0.0,1.0,15.0,0.0,30.0,1.0,148.4591084169224,,,,,,,,,148.45366862497758,149.2435548749054,150.0357637499692,150.0272184999194,150.02778037497774,150.0357637499692,150.0357637499692,150.0357637499692,151.07615145796444,,,,,,,,,,,,,,,,,,,,,,,,,,,,,,right,1.0,1.0374772920040414,,,,,,sub-110,1,random_dot,,
left,left,31.0,1.0,15.0,left,1.0,0.9584823329932988,,speed,space,1.240464499918744,,,,,,0.0,0.0,0.0,1.0,15.0,1.0,31.0,0.0,151.08493949996773,,,,,,,,,151.07666891696863,151.42652241699398,152.21863958297763,152.20953879191077,152.21007533289958,152.21863958297763,152.21863958297763,152.21863958297763,153.19325712497812,,,,,,,,,,,,,,,,,,,,,,,,,,,,,,left,1.0,0.9584823329932988,,,,,,sub-110,1,random_dot,,
left,left,32.0,0.0,16.0,left,1.0,0.8319622079143301,,speed,space,1.240464499918744,,,,,,0.0,0.0,0.0,1.0,16.0,0.0,32.0,0.0,153.2024427499855,,,,,,,,,153.19450683298055,153.9917961669853,154.78517275000922,154.77638712490443,154.77684058295563,154.78517275000922,154.78517275000922,154.78517275000922,155.62109920789953,,,,,,,,,,,,,,,,,,,,,,,,,,,,,,left,1.0,0.8319622079143301,,,,,,sub-110,1,random_dot,,
right,right,33.0,1.0,16.0,right,1.0,1.4884007489308717,,speed,space,1.240464499918744,,,,,,0.0,0.0,0.0,1.0,16.0,1.0,33.0,1.0,155.62967429193668,,,,,,,,,155.62171183293685,156.42003420798574,157.21156570792664,157.20338412490673,157.20410508289933,157.21156570792664,157.21156570792664,157.21156570792664,158.70322983292863,,,,,,,,,,,,,,,,,,,,,,,,,,,,,,right,1.0,1.4884007489308717,,,,,,sub-110,1,random_dot,,
right,right,34.0,0.0,17.0,right,1.0,0.7060897500487044,,speed,space,1.240464499918744,,,,,,0.0,0.0,0.0,1.0,17.0,0.0,34.0,1.0,158.71119254198857,,,,,,,,,158.7037143749185,159.89357683295384,160.68570154195186,160.677140707965,160.6777352920035,160.68570154195186,160.68570154195186,160.68570154195186,161.39481841691304,,,,,,,,,,,,,,,,,,,,,,,,,,,,,,right,1.0,0.7060897500487044,,,,,,sub-110,1,random_dot,,
left,left,35.0,1.0,17.0,right,0.0,1.9003052910557017,,speed,space,1.240464499918744,,,,,,0.0,0.0,0.0,1.0,17.0,1.0,35.0,0.0,161.40576304192655,,,,,,,,,161.39589279191568,161.49331125000026,162.28548724995926,162.27640112489462,162.27700791694224,162.28548724995926,162.28548724995926,162.28548724995926,164.18753666698467,,,,,,,,,,,,,,,,,,,,,,,,,,,,,,right,0.0,1.9003052910557017,,,,,,sub-110,1,random_dot,,
right,right,36.0,0.0,18.0,right,1.0,2.8743096659891307,,speed,space,1.240464499918744,,,,,,0.0,0.0,0.0,1.0,18.0,0.0,36.0,1.0,164.19554945791606,,,,,,,,,164.18823366693687,165.38501870795153,166.1847437079996,166.17422508297022,166.1749858749099,166.1847437079996,166.1847437079996,166.1847437079996,169.0631614999147,,,,,,,,,,,,,,,,,,,,,,,,,,,,,,right,1.0,2.8743096659891307,,,,,,sub-110,1,random_dot,,
left,left,37.0,1.0,18.0,left,1.0,2.155034041032195,,speed,space,1.240464499918744,,,,,,0.0,0.0,0.0,1.0,18.0,1.0,37.0,0.0,169.07266549998894,,,,,,,,,169.06425308296457,169.4095255829161,170.20146725000814,170.19333574990742,170.1938106250018,170.20146725000814,170.20146725000814,170.20146725000814,172.36107120790984,,,,,,,,,,,,,,,,,,,,,,,,,,,,,,left,1.0,2.155034041032195,,,,,,sub-110,1,random_dot,,
right,right,38.0,0.0,19.0,left,0.0,3.160976415965706,,speed,space,1.240464499918744,,,,,,0.0,0.0,0.0,1.0,19.0,0.0,38.0,1.0,172.36980120791122,,,,,,,,,172.361776332953,172.46072945790365,173.2514647080097,173.2433307080064,173.24378274998162,173.2514647080097,173.2514647080097,173.2514647080097,176.4216062919004,,,,,,,,,,,,,,,,,,,,,,,,,,,,,,left,0.0,3.160976415965706,,,,,,sub-110,1,random_dot,,
left,left,39.0,1.0,19.0,right,0.0,1.1495030419901011,,speed,space,1.240464499918744,,,,,,0.0,0.0,0.0,1.0,19.0,1.0,39.0,0.0,176.43095445795916,,,,,,,,,176.42269583290908,177.61947804200463,178.4128658749396,178.40347045799717,178.4042852919083,178.4128658749396,178.4128658749396,178.4128658749396,179.57577091699932,,,,,,,,,,,,,,,,,,,,,,,,,,,,,,right,0.0,1.1495030419901011,,,,,,sub-110,1,random_dot,,
right,right,40.0,0.0,20.0,right,1.0,3.14623950002715,,speed,space,1.240464499918744,,,,,,0.0,0.0,0.0,1.0,20.0,0.0,40.0,1.0,179.58568945794832,,,,,,,,,179.57595645799302,179.9262192499591,180.7284577919636,180.72017824999057,180.72084504191295,180.7284577919636,180.7284577919636,180.7284577919636,183.8783147919457,,,,,,,,,,,,,,,,,,,,,,,,,,,,,,right,1.0,3.14623950002715,,,,,,sub-110,1,random_dot,,
left,left,41.0,1.0,20.0,right,0.0,3.1948115829145536,,speed,space,1.240464499918744,,,,,,0.0,0.0,0.0,1.0,20.0,1.0,41.0,0.0,183.887508291984,,,,,,,,,183.8789057919057,184.6762194999028,185.46786166692615,185.45953704195563,185.45998816692736,185.46786166692615,185.46786166692615,185.46786166692615,188.68182912492196,,,,,,,,,,,,,,,,,,,,,,,,,,,,,,right,0.0,3.1948115829145536,,,,,,sub-110,1,random_dot,,
right,right,42.0,0.0,21.0,right,1.0,0.8309966659871861,,speed,space,1.240464499918744,,,,,,0.0,0.0,0.0,1.0,21.0,0.0,42.0,1.0,188.68769095791504,,,,,,,,,188.6821726670023,189.476697707898,190.2681889169617,190.25942895794287,190.25989949994252,190.2681889169617,190.2681889169617,190.2681889169617,191.10360666690397,,,,,,,,,,,,,,,,,,,,,,,,,,,,,,right,1.0,0.8309966659871861,,,,,,sub-110,1,random_dot,,
left,left,43.0,1.0,21.0,left,1.0,0.5988143329741433,,speed,space,1.240464499918744,,,,,,0.0,0.0,0.0,1.0,21.0,1.0,43.0,0.0,191.11194679199247,,,,,,,,,191.1042554168962,191.45200191694312,192.2444082919974,192.23648933297957,192.2371748749865,192.2444082919974,192.2444082919974,192.2444082919974,192.85409304196943,,,,,,,,,,,,,,,,,,,,,,,,,,,,,,left,1.0,0.5988143329741433,,,,,,sub-110,1,random_dot,,
right,right,44.0,0.0,22.0,right,1.0,0.8154858750058338,,speed,space,1.240464499918744,,,,,,0.0,0.0,0.0,1.0,22.0,0.0,44.0,1.0,192.8627779999515,,,,,,,,,192.85473595792428,194.05264937493484,194.84561004198625,194.83656812494155,194.83724849997088,194.84561004198625,194.84561004198625,194.84561004198625,195.66919137490916,,,,,,,,,,,,,,,,,,,,,,,,,,,,,,right,1.0,0.8154858750058338,,,,,,sub-110,1,random_dot,,
left,left,45.0,1.0,22.0,left,1.0,0.5570924159837887,,speed,space,1.240464499918744,,,,,,0.0,0.0,0.0,1.0,22.0,1.0,45.0,0.0,195.6773912080098,,,,,,,,,195.66984654194675,195.75941220798995,196.5600119169103,196.55218187498397,196.55316029198,196.5600119169103,196.5600119169103,196.5600119169103,197.1205544999102,,,,,,,,,,,,,,,,,,,,,,,,,,,,,,left,1.0,0.5570924159837887,,,,,,sub-110,1,random_dot,,
right,right,46.0,0.0,23.0,right,1.0,1.1906459160381928,,speed,space,1.240464499918744,,,,,,0.0,0.0,0.0,1.0,23.0,0.0,46.0,1.0,197.13046870799732,,,,,,,,,197.12151691690087,197.46958620799705,198.269291582983,198.2553437079769,198.25646691699512,198.269291582983,198.269291582983,198.269291582983,199.47236741695087,,,,,,,,,,,,,,,,,,,,,,,,,,,,,,right,1.0,1.1906459160381928,,,,,,sub-110,1,random_dot,,
left,left,47.0,1.0,23.0,left,1.0,1.8143801250262184,,speed,space,1.240464499918744,,,,,,0.0,0.0,0.0,1.0,23.0,1.0,47.0,0.0,199.48497337498705,,,,,,,,,199.4731924579246,199.81936941691677,200.61159158300143,200.6030863749329,200.6037949579768,200.61159158300143,200.61159158300143,200.61159158300143,202.4375533330021,,,,,,,,,,,,,,,,,,,,,,,,,,,,,,left,1.0,1.8143801250262184,,,,,,sub-110,1,random_dot,,
right,right,48.0,0.0,24.0,right,1.0,0.8246485409326851,,speed,space,1.240464499918744,,,,,,0.0,0.0,0.0,1.0,24.0,0.0,48.0,1.0,202.4435168330092,,,,,,,,,202.43822741694748,202.536256124964,203.3351047500037,203.32292399997823,203.3233684169827,203.3351047500037,203.3351047500037,203.3351047500037,204.1616230419604,,,,,,,,,,,,,,,,,,,,,,,,,,,,,,right,1.0,0.8246485409326851,,,,,,sub-110,1,random_dot,,
left,left,49.0,1.0,24.0,left,1.0,0.9466586250346154,,speed,space,1.240464499918744,,,,,,0.0,0.0,0.0,1.0,24.0,1.0,49.0,0.0,204.1857444579946,,,,,,,,,204.16214733291417,205.3587387499865,206.1511097499169,206.1420035829069,206.1424340829253,206.1511097499169,206.1511097499169,206.1511097499169,207.1033726669848,,,,,,,,,,,,,,,,,,,,,,,,,,,,,,left,1.0,0.9466586250346154,,,,,,sub-110,1,random_dot,,
right,right,50.0,0.0,25.0,right,1.0,1.4449707079911605,,speed,space,1.240464499918744,,,,,,0.0,0.0,0.0,1.0,25.0,0.0,50.0,1.0,207.11007037491072,,,,,,,,,207.1039330830099,207.44287612498735,208.2356399169657,208.22601816698443,208.22660229192115,208.2356399169657,208.2356399169657,208.2356399169657,209.6888093749294,,,,,,,,,,,,,,,,,,,,,,,,,,,,,,right,1.0,1.4449707079911605,,,,,,sub-110,1,random_dot,,
left,left,51.0,1.0,25.0,right,0.0,1.0169442920014262,,speed,space,1.240464499918744,,,,,,0.0,0.0,0.0,1.0,25.0,1.0,51.0,0.0,209.6984692919068,,,,,,,,,209.68985199998133,210.88630708295383,211.6786348329624,211.66990962496493,211.67062791693024,211.6786348329624,211.6786348329624,211.6786348329624,212.6997151669348,,,,,,,,,,,,,,,,,,,,,,,,,,,,,,right,0.0,1.0169442920014262,,,,,,sub-110,1,random_dot,,
left,left,52.0,0.0,26.0,left,1.0,1.0631787909660488,,speed,space,1.240464499918744,,,,,,0.0,0.0,0.0,1.0,26.0,0.0,52.0,0.0,212.70483820792288,,,,,,,,,212.70016066695095,213.04287695791567,213.84237616695464,213.83520216692705,213.8359715419356,213.84237616695464,213.84237616695464,213.84237616695464,214.91120479197707,,,,,,,,,,,,,,,,,,,,,,,,,,,,,,left,1.0,1.0631787909660488,,,,,,sub-110,1,random_dot,,
right,right,53.0,1.0,26.0,right,1.0,2.342474833014421,,speed,space,1.240464499918744,,,,,,0.0,0.0,0.0,1.0,26.0,1.0,53.0,1.0,214.91971491696316,,,,,,,,,214.91169533296488,215.00869337492625,215.8009692080086,215.79132141696755,215.7918361669872,215.8009692080086,215.8009692080086,215.8009692080086,218.1462425829377,,,,,,,,,,,,,,,,,,,,,,,,,,,,,,right,1.0,2.342474833014421,,,,,,sub-110,1,random_dot,,
right,right,54.0,0.0,27.0,left,0.0,2.5605910829035565,,speed,space,1.240464499918744,,,,,,0.0,0.0,0.0,1.0,27.0,0.0,54.0,1.0,218.1557080829516,,,,,,,,,218.1471792079974,218.24311195791236,219.04476279194927,219.036478624912,219.0372047079727,219.04476279194927,219.04476279194927,219.04476279194927,221.61144312494437,,,,,,,,,,,,,,,,,,,,,,,,,,,,,,left,0.0,2.5605910829035565,,,,,,sub-110,1,random_dot,,
left,left,55.0,1.0,27.0,right,0.0,2.0492997081018984,,speed,space,1.240464499918744,,,,,,0.0,0.0,0.0,1.0,27.0,1.0,55.0,0.0,221.62077474989928,,,,,,,,,221.6124299169751,222.41040379193143,223.21284670790192,223.2029508328997,223.2038214579225,223.21284670790192,223.21284670790192,223.21284670790192,225.2684417079436,,,,,,,,,,,,,,,,,,,,,,,,,,,,,,right,0.0,2.0492997081018984,,,,,,sub-110,1,random_dot,,
right,right,56.0,0.0,28.0,right,1.0,2.9942509579705074,,speed,space,1.240464499918744,,,,,,0.0,0.0,0.0,1.0,28.0,0.0,56.0,1.0,225.2727612499148,,,,,,,,,225.2686554579996,226.0599054999184,226.8523250829894,226.84273941698484,226.84343887493011,226.8523250829894,226.8523250829894,226.8523250829894,229.85360858298367,,,,,,,,,,,,,,,,,,,,,,,,,,,,,,right,1.0,2.9942509579705074,,,,,,sub-110,1,random_dot,,
left,left,57.0,1.0,28.0,left,1.0,1.2564290829468518,,speed,space,1.240464499918744,,,,,,0.0,0.0,0.0,1.0,28.0,1.0,57.0,0.0,229.85900866694283,,,,,,,,,229.85396999993827,231.0524696249049,231.8447008749936,231.83620245789643,231.83697787497655,231.8447008749936,231.8447008749936,231.8447008749936,233.1028149579652,,,,,,,,,,,,,,,,,,,,,,,,,,,,,,left,1.0,1.2564290829468518,,,,,,sub-110,1,random_dot,,
right,right,58.0,0.0,29.0,right,1.0,0.901352500077337,,speed,space,1.240464499918744,,,,,,0.0,0.0,0.0,1.0,29.0,0.0,58.0,1.0,233.1111974579981,,,,,,,,,233.10366224998145,233.44252879195847,234.23466412490237,234.2256935419282,234.2261032499373,234.23466412490237,234.23466412490237,234.23466412490237,235.1462159579387,,,,,,,,,,,,,,,,,,,,,,,,,,,,,,right,1.0,0.901352500077337,,,,,,sub-110,1,random_dot,,
left,left,59.0,1.0,29.0,left,1.0,0.6216292079770938,,speed,space,1.240464499918744,,,,,,0.0,0.0,0.0,1.0,29.0,1.0,59.0,0.0,235.1521272920072,,,,,,,,,235.14667987497523,235.2422591249924,236.0383533749264,236.03439745795916,236.03455141698944,236.0383533749264,236.0383533749264,236.0383533749264,236.66954054194505,,,,,,,,,,,,,,,,,,,,,,,,,,,,,,left,1.0,0.6216292079770938,,,,,,sub-110,1,random_dot,,
,,0.0,0.0,0.0,,,,,speed,space,1.240464499918744,,,,,,0.0,0.0,0.0,1.0,,,,,,,,,,,,,,,,,,,,,,,,,,,,,,,,,,,,,,,,,,,,,,,,,,,,,,,,,,,,sub-110,1,random_dot,,
left,left,0.0,0.0,0.0,right,0.0,2.319934792001732,,accuracy,space,6.383145874016918,,,,,,0.0,1.0,1.0,0.0,0.0,0.0,0.0,0.0,243.10177712491716,,,,,,,,,243.0961016250076,243.1734785829904,243.97402333293576,243.9598986249184,243.9637151249917,243.97402333293576,243.97402333293576,243.97402333293576,246.3023370419396,,,,,,,,,,,,,,,,,,,,,,,236.6818111249013,236.68632554193027,236.68632554193027,243.07955220795705,space,6.383145874016918,,right,0.0,2.319934792001732,,,,,,sub-110,1,random_dot,,
right,right,1.0,1.0,0.0,left,0.0,1.3998431670479476,,accuracy,space,6.383145874016918,,,,,,0.0,1.0,1.0,0.0,0.0,1.0,1.0,1.0,246.3112320000073,,,,,,,,,246.30321841698608,246.39268804190212,247.1851091249846,247.17627441696823,247.17676054197364,247.1851091249846,247.1851091249846,247.1851091249846,248.58951308298856,,,,,,,,,,,,,,,,,,,,,,,,,,,,,,left,0.0,1.3998431670479476,,,,,,sub-110,1,random_dot,,
right,right,2.0,0.0,1.0,left,0.0,1.032894582953304,,accuracy,space,6.383145874016918,,,,,,0.0,1.0,1.0,0.0,1.0,0.0,2.0,1.0,248.60085104196327,,,,,,,,,248.58975954190828,249.38548091694247,250.177992416895,250.16939704190008,250.1701518329792,250.177992416895,250.177992416895,250.177992416895,251.21912820800208,,,,,,,,,,,,,,,,,,,,,,,,,,,,,,left,0.0,1.032894582953304,,,,,,sub-110,1,random_dot,,
left,left,3.0,1.0,1.0,left,1.0,1.0290380420628935,,accuracy,space,6.383145874016918,,,,,,0.0,1.0,1.0,0.0,1.0,1.0,3.0,0.0,251.2270881249569,,,,,,,,,251.21964587492403,252.00904249993616,252.80062266695316,252.79228370799683,252.79273633298,252.80062266695316,252.80062266695316,252.80062266695316,253.83640841697343,,,,,,,,,,,,,,,,,,,,,,,,,,,,,,left,1.0,1.0290380420628935,,,,,,sub-110,1,random_dot,,
left,left,4.0,0.0,2.0,left,1.0,0.6126862079836428,,accuracy,space,6.383145874016918,,,,,,0.0,1.0,1.0,0.0,2.0,0.0,4.0,0.0,253.84424087498337,,,,,,,,,253.83689429191872,254.17532774992287,254.97803233296145,254.96936179196928,254.9702731249854,254.97803233296145,254.97803233296145,254.97803233296145,255.5944264169084,,,,,,,,,,,,,,,,,,,,,,,,,,,,,,left,1.0,0.6126862079836428,,,,,,sub-110,1,random_dot,,
right,right,5.0,1.0,2.0,left,0.0,0.571368083008565,,accuracy,space,6.383145874016918,,,,,,0.0,1.0,1.0,0.0,2.0,1.0,5.0,1.0,255.618739916943,,,,,,,,,255.59499554196373,255.9415782499127,256.74223062500823,256.7346533329692,256.7354979579104,256.74223062500823,256.74223062500823,256.74223062500823,257.31881445797626,,,,,,,,,,,,,,,,,,,,,,,,,,,,,,left,0.0,0.571368083008565,,,,,,sub-110,1,random_dot,,
right,right,6.0,0.0,3.0,right,1.0,0.5631535410648212,,accuracy,space,6.383145874016918,,,,,,0.0,1.0,1.0,0.0,3.0,0.0,6.0,1.0,257.32328249991406,,,,,,,,,257.3189816669328,258.108597457991,258.90045845799614,258.8913027079543,258.89176391693763,258.90045845799614,258.90045845799614,258.90045845799614,259.46878566697706,,,,,,,,,,,,,,,,,,,,,,,,,,,,,,right,1.0,0.5631535410648212,,,,,,sub-110,1,random_dot,,
left,left,7.0,1.0,3.0,left,1.0,0.6867128330050036,,accuracy,space,6.383145874016918,,,,,,0.0,1.0,1.0,0.0,3.0,1.0,7.0,0.0,259.4768921249779,,,,,,,,,259.46938204194885,259.817910999991,260.60885104199406,260.6014204999665,260.60217054199893,260.60885104199406,260.60885104199406,260.60885104199406,261.30941737489775,,,,,,,,,,,,,,,,,,,,,,,,,,,,,,left,1.0,0.6867128330050036,,,,,,sub-110,1,random_dot,,
right,right,8.0,0.0,4.0,right,1.0,1.3262718740152195,,accuracy,space,6.383145874016918,,,,,,0.0,1.0,1.0,0.0,4.0,0.0,8.0,1.0,261.3174434999237,,,,,,,,,261.30986499995925,261.40766441693995,262.2006011249032,262.19220562500414,262.19267749995925,262.2006011249032,262.2006011249032,262.2006011249032,263.53521587490104,,,,,,,,,,,,,,,,,,,,,,,,,,,,,,right,1.0,1.3262718740152195,,,,,,sub-110,1,random_dot,,
left,left,9.0,1.0,4.0,right,0.0,4.685200958047062,,accuracy,space,6.383145874016918,,,,,,0.0,1.0,1.0,0.0,4.0,1.0,9.0,0.0,263.5404479999561,,,,,,,,,263.535375666921,263.9009883329272,264.6943501669448,264.6857451669639,264.6864731250098,264.6943501669448,264.6943501669448,264.6943501669448,269.3879932499258,,,,,,,,,,,,,,,,,,,,,,,,,,,,,,right,0.0,4.685200958047062,,,,,,sub-110,1,random_dot,,
left,left,10.0,0.0,5.0,left,1.0,3.4220999579411,,accuracy,space,6.383145874016918,,,,,,0.0,1.0,1.0,0.0,5.0,0.0,10.0,0.0,269.3985421669204,,,,,,,,,269.389190207934,270.5854383748956,271.3782467918936,271.36943458300084,271.3701217919588,271.3782467918936,271.3782467918936,271.3782467918936,274.80305808293633,,,,,,,,,,,,,,,,,,,,,,,,,,,,,,left,1.0,3.4220999579411,,,,,,sub-110,1,random_dot,,
right,right,11.0,1.0,5.0,right,1.0,2.5916056239511818,,accuracy,space,6.383145874016918,,,,,,0.0,1.0,1.0,0.0,5.0,1.0,11.0,1.0,274.8118748749839,,,,,,,,,274.8037953749299,276.0021089579677,276.7898277079221,276.7845496669179,276.7850153329782,276.7898277079221,276.7898277079221,276.7898277079221,279.3850074579241,,,,,,,,,,,,,,,,,,,,,,,,,,,,,,right,1.0,2.5916056239511818,,,,,,sub-110,1,random_dot,,
right,right,12.0,0.0,6.0,right,1.0,2.166210916941054,,accuracy,space,6.383145874016918,,,,,,0.0,1.0,1.0,0.0,6.0,0.0,12.0,1.0,279.39283799997065,,,,,,,,,279.38553270790726,279.47515170800034,280.2726590419188,280.2682381249033,280.26842783298343,280.2726590419188,280.2726590419188,280.2726590419188,282.4436774170026,,,,,,,,,,,,,,,,,,,,,,,,,,,,,,right,1.0,2.166210916941054,,,,,,sub-110,1,random_dot,,
left,left,13.0,1.0,6.0,left,1.0,0.9357989999698476,,accuracy,space,6.383145874016918,,,,,,0.0,1.0,1.0,0.0,6.0,1.0,13.0,0.0,282.4678815829102,,,,,,,,,282.4445687920088,282.7933709169738,283.5950451249955,283.585630082991,283.5869936249219,283.5950451249955,283.5950451249955,283.5950451249955,284.53896320797503,,,,,,,,,,,,,,,,,,,,,,,,,,,,,,left,1.0,0.9357989999698476,,,,,,sub-110,1,random_dot,,
right,right,14.0,0.0,7.0,right,1.0,0.8378087910823524,,accuracy,space,6.383145874016918,,,,,,0.0,1.0,1.0,0.0,7.0,0.0,14.0,1.0,284.54973391699605,,,,,,,,,284.54027162492275,284.6352447079262,285.4270491669886,285.4188945419155,285.4196031249594,285.4270491669886,285.4270491669886,285.4270491669886,286.26822662493214,,,,,,,,,,,,,,,,,,,,,,,,,,,,,,right,1.0,0.8378087910823524,,,,,,sub-110,1,random_dot,,
left,left,15.0,1.0,7.0,left,1.0,0.746920541045256,,accuracy,space,6.383145874016918,,,,,,0.0,1.0,1.0,0.0,7.0,1.0,15.0,0.0,286.2761069579283,,,,,,,,,286.2687738329405,287.05668337491807,287.85179508291185,287.8402033749735,287.84069783298764,287.85179508291185,287.85179508291185,287.85179508291185,288.60217229195405,,,,,,,,,,,,,,,,,,,,,,,,,,,,,,left,1.0,0.746920541045256,,,,,,sub-110,1,random_dot,,
left,left,16.0,0.0,8.0,left,1.0,0.6193216239335015,,accuracy,space,6.383145874016918,,,,,,0.0,1.0,1.0,0.0,8.0,0.0,16.0,0.0,288.610321791959,,,,,,,,,288.60277179197874,288.9417561669834,289.75060712499544,289.7360244169831,289.73643679195084,289.75060712499544,289.75060712499544,289.75060712499544,290.3760938330088,,,,,,,,,,,,,,,,,,,,,,,,,,,,,,left,1.0,0.6193216239335015,,,,,,sub-110,1,random_dot,,
right,right,17.0,1.0,8.0,right,1.0,0.6092489999718964,,accuracy,space,6.383145874016918,,,,,,0.0,1.0,1.0,0.0,8.0,1.0,17.0,1.0,290.3849818329327,,,,,,,,,290.3768666249234,291.17403170792386,291.9682787079364,291.95883699995466,291.9595677499892,291.9682787079364,291.9682787079364,291.9682787079364,292.58458845794667,,,,,,,,,,,,,,,,,,,,,,,,,,,,,,right,1.0,0.6092489999718964,,,,,,sub-110,1,random_dot,,
right,right,18.0,0.0,9.0,right,1.0,0.9303889160510151,,accuracy,space,6.383145874016918,,,,,,0.0,1.0,1.0,0.0,9.0,0.0,18.0,1.0,292.6007339999778,,,,,,,,,292.5848033329239,292.9205842500087,293.7180060829269,293.70903533289675,293.70949741697405,293.7180060829269,293.7180060829269,293.7180060829269,294.6516199168982,,,,,,,,,,,,,,,,,,,,,,,,,,,,,,right,1.0,0.9303889160510151,,,,,,sub-110,1,random_dot,,
left,left,19.0,1.0,9.0,left,1.0,0.492777333012782,,accuracy,space,6.383145874016918,,,,,,0.0,1.0,1.0,0.0,9.0,1.0,19.0,0.0,294.65961562492885,,,,,,,,,294.65210787497927,295.4423951669596,296.24267587496433,296.2345631669741,296.2355727920076,296.24267587496433,296.24267587496433,296.24267587496433,296.74958891700953,,,,,,,,,,,,,,,,,,,,,,,,,,,,,,left,1.0,0.492777333012782,,,,,,sub-110,1,random_dot,,
left,left,20.0,0.0,10.0,right,0.0,0.6777149990666658,,accuracy,space,6.383145874016918,,,,,,0.0,1.0,1.0,0.0,10.0,0.0,20.0,0.0,296.758851166931,,,,,,,,,296.7505960419076,297.55261533299927,298.34568991698325,298.3358180829091,298.33674758300185,298.34568991698325,298.34568991698325,298.34568991698325,299.0365565828979,,,,,,,,,,,,,,,,,,,,,,,,,,,,,,right,0.0,0.6777149990666658,,,,,,sub-110,1,random_dot,,
right,right,21.0,1.0,10.0,right,1.0,0.7428968331078067,,accuracy,space,6.383145874016918,,,,,,0.0,1.0,1.0,0.0,10.0,1.0,21.0,1.0,299.0448979169596,,,,,,,,,299.0373523749877,299.84501808299683,300.64338433300145,300.6349854579894,300.6360791249899,300.64338433300145,300.64338433300145,300.64338433300145,301.3924095829716,,,,,,,,,,,,,,,,,,,,,,,,,,,,,,right,1.0,0.7428968331078067,,,,,,sub-110,1,random_dot,,
right,right,22.0,0.0,11.0,right,1.0,0.6407552489545196,,accuracy,space,6.383145874016918,,,,,,0.0,1.0,1.0,0.0,11.0,0.0,22.0,1.0,301.4012737500016,,,,,,,,,301.3929973749909,301.4918724579038,302.2835152079351,302.2748725829879,302.275321999914,302.2835152079351,302.2835152079351,302.2835152079351,302.9279465829022,,,,,,,,,,,,,,,,,,,,,,,,,,,,,,right,1.0,0.6407552489545196,,,,,,sub-110,1,random_dot,,
left,left,23.0,1.0,11.0,left,1.0,0.7279414170188829,,accuracy,space,6.383145874016918,,,,,,0.0,1.0,1.0,0.0,11.0,1.0,23.0,0.0,302.93714783294126,,,,,,,,,302.92861629195977,303.2750084999716,304.07728016690817,304.06883804197423,304.0694742499618,304.07728016690817,304.07728016690817,304.07728016690817,304.81015325000044,,,,,,,,,,,,,,,,,,,,,,,,,,,,,,left,1.0,0.7279414170188829,,,,,,sub-110,1,random_dot,,
right,right,24.0,0.0,12.0,right,1.0,0.759721998940222,,accuracy,space,6.383145874016918,,,,,,0.0,1.0,1.0,0.0,12.0,0.0,24.0,1.0,304.8198757079663,,,,,,,,,304.8107664999552,305.1589398329379,305.9514306669589,305.9425007919781,305.9430573749123,305.9514306669589,305.9514306669589,305.9514306669589,306.71845508296974,,,,,,,,,,,,,,,,,,,,,,,,,,,,,,right,1.0,0.759721998940222,,,,,,sub-110,1,random_dot,,
left,left,25.0,1.0,12.0,right,0.0,0.6337807489326224,,accuracy,space,6.383145874016918,,,,,,0.0,1.0,1.0,0.0,12.0,1.0,25.0,0.0,306.7269866669085,,,,,,,,,306.7191458329325,307.9072171669686,308.7001210419694,308.69036649994086,308.6908800419187,308.7001210419694,308.7001210419694,308.7001210419694,309.3357007919112,,,,,,,,,,,,,,,,,,,,,,,,,,,,,,right,0.0,0.6337807489326224,,,,,,sub-110,1,random_dot,,
left,left,26.0,0.0,13.0,left,1.0,2.007813874981366,,accuracy,space,6.383145874016918,,,,,,0.0,1.0,1.0,0.0,13.0,0.0,26.0,0.0,309.34337333298754,,,,,,,,,309.3362059169449,310.125295292004,310.9291852499591,310.9190637919819,310.9204277920071,310.9291852499591,310.9291852499591,310.9291852499591,312.94164941692725,,,,,,,,,,,,,,,,,,,,,,,,,,,,,,left,1.0,2.007813874981366,,,,,,sub-110,1,random_dot,,
right,right,27.0,1.0,13.0,left,0.0,1.0316992909647524,,accuracy,space,6.383145874016918,,,,,,0.0,1.0,1.0,0.0,13.0,1.0,27.0,1.0,312.95020529197063,,,,,,,,,312.942210124922,313.2914837918943,314.08320408291183,314.0745747080073,314.07502258289605,314.08320408291183,314.08320408291183,314.08320408291183,315.119782332913,,,,,,,,,,,,,,,,,,,,,,,,,,,,,,left,0.0,1.0316992909647524,,,,,,sub-110,1,random_dot,,
right,right,28.0,0.0,14.0,left,0.0,0.5806706660659984,,accuracy,space,6.383145874016918,,,,,,0.0,1.0,1.0,0.0,14.0,0.0,28.0,1.0,315.1297119999072,,,,,,,,,315.1204924999038,316.3183204999659,317.1170937499264,317.1024862919003,317.10299633292016,317.1170937499264,317.1170937499264,317.1170937499264,317.70226179191377,,,,,,,,,,,,,,,,,,,,,,,,,,,,,,left,0.0,0.5806706660659984,,,,,,sub-110,1,random_dot,,
left,left,29.0,1.0,14.0,right,0.0,0.6060991670237854,,accuracy,space,6.383145874016918,,,,,,0.0,1.0,1.0,0.0,14.0,1.0,29.0,0.0,317.7113150829682,,,,,,,,,317.7029184579151,318.50157312490046,319.29252249991987,319.2850510419812,319.2854747920064,319.29252249991987,319.29252249991987,319.29252249991987,319.9014786669286,,,,,,,,,,,,,,,,,,,,,,,,,,,,,,right,0.0,0.6060991670237854,,,,,,sub-110,1,random_dot,,
left,left,30.0,0.0,15.0,left,1.0,2.4099719170480967,,accuracy,space,6.383145874016918,,,,,,0.0,1.0,1.0,0.0,15.0,0.0,30.0,0.0,319.9090026669437,,,,,,,,,319.9019522079034,320.2421829169616,321.04360224993434,321.0352662499063,321.0358607079834,321.04360224993434,321.04360224993434,321.04360224993434,323.4688484579092,,,,,,,,,,,,,,,,,,,,,,,,,,,,,,left,1.0,2.4099719170480967,,,,,,sub-110,1,random_dot,,
right,right,31.0,1.0,15.0,left,0.0,1.7665586669463664,,accuracy,space,6.383145874016918,,,,,,0.0,1.0,1.0,0.0,15.0,1.0,31.0,1.0,323.48463583295234,,,,,,,,,323.4698354579741,323.55848333297763,324.3499776669778,324.3418974169763,324.3423600419192,324.3499776669778,324.3499776669778,324.3499776669778,326.1185791249154,,,,,,,,,,,,,,,,,,,,,,,,,,,,,,left,0.0,1.7665586669463664,,,,,,sub-110,1,random_dot,,
right,right,32.0,0.0,16.0,right,1.0,3.599021708010696,,accuracy,space,6.383145874016918,,,,,,0.0,1.0,1.0,0.0,16.0,0.0,32.0,1.0,326.1273194579408,,,,,,,,,326.1192030829843,327.30919116700534,328.118185749976,328.09216291690245,328.0936343749054,328.118185749976,328.118185749976,328.118185749976,331.7299559999956,,,,,,,,,,,,,,,,,,,,,,,,,,,,,,right,1.0,3.599021708010696,,,,,,sub-110,1,random_dot,,
left,left,33.0,1.0,16.0,left,1.0,3.9473429169738665,,accuracy,space,6.383145874016918,,,,,,0.0,1.0,1.0,0.0,16.0,1.0,33.0,0.0,331.7512919579167,,,,,,,,,331.7307987079257,332.0753228329122,332.87733595795,332.8683246249566,332.86911199998576,332.87733595795,332.87733595795,332.87733595795,336.8360874169739,,,,,,,,,,,,,,,,,,,,,,,,,,,,,,left,1.0,3.9473429169738665,,,,,,sub-110,1,random_dot,,
left,left,34.0,0.0,17.0,left,1.0,4.835097666014917,,accuracy,space,6.383145874016918,,,,,,0.0,1.0,1.0,0.0,17.0,0.0,34.0,0.0,336.8438844169723,,,,,,,,,336.8367387079634,337.1850527919596,337.97690683300607,337.96836999990046,337.9691181249218,337.97690683300607,337.97690683300607,337.97690683300607,342.81825312494766,,,,,,,,,,,,,,,,,,,,,,,,,,,,,,left,1.0,4.835097666014917,,,,,,sub-110,1,random_dot,,
right,right,35.0,1.0,17.0,right,1.0,2.555039166938513,,accuracy,space,6.383145874016918,,,,,,0.0,1.0,1.0,0.0,17.0,1.0,35.0,1.0,342.82354495790787,,,,,,,,,342.81861854193266,342.90838366700336,343.7114814579254,343.70177204196807,343.7026019169716,343.7114814579254,343.7114814579254,343.7114814579254,346.2825269579189,,,,,,,,,,,,,,,,,,,,,,,,,,,,,,right,1.0,2.555039166938513,,,,,,sub-110,1,random_dot,,
left,left,36.0,0.0,18.0,left,1.0,1.1347029990283772,,accuracy,space,6.383145874016918,,,,,,0.0,1.0,1.0,0.0,18.0,0.0,36.0,0.0,346.29092941700947,,,,,,,,,346.2833452919731,346.6349385828944,347.4287450419506,347.41854883299675,347.4195061669452,347.4287450419506,347.4287450419506,347.4287450419506,348.5695100419689,,,,,,,,,,,,,,,,,,,,,,,,,,,,,,left,1.0,1.1347029990283772,,,,,,sub-110,1,random_dot,,
right,right,37.0,1.0,18.0,right,1.0,0.6952238329686224,,accuracy,space,6.383145874016918,,,,,,0.0,1.0,1.0,0.0,18.0,1.0,37.0,1.0,348.577204125002,,,,,,,,,348.5697704999475,348.91812387492973,349.710076832911,349.70150820794515,349.70215199992526,349.710076832911,349.710076832911,349.710076832911,350.40776916698087,,,,,,,,,,,,,,,,,,,,,,,,,,,,,,right,1.0,0.6952238329686224,,,,,,sub-110,1,random_dot,,
right,right,38.0,0.0,19.0,left,0.0,1.0305534159997478,,accuracy,space,6.383145874016918,,,,,,0.0,1.0,1.0,0.0,19.0,0.0,38.0,1.0,350.41629920795094,,,,,,,,,350.40831616695505,351.2013297079829,351.99472212500405,351.98519229190424,351.9866486249957,351.99472212500405,351.99472212500405,351.99472212500405,353.0365945829544,,,,,,,,,,,,,,,,,,,,,,,,,,,,,,left,0.0,1.0305534159997478,,,,,,sub-110,1,random_dot,,
left,left,39.0,1.0,19.0,left,1.0,0.5707642080960795,,accuracy,space,6.383145874016918,,,,,,0.0,1.0,1.0,0.0,19.0,1.0,39.0,0.0,353.04255533299875,,,,,,,,,353.037241666927,353.13473554200027,353.9264726249967,353.9182624579407,353.9188866249752,353.9264726249967,353.9264726249967,353.9264726249967,354.5011659169104,,,,,,,,,,,,,,,,,,,,,,,,,,,,,,left,1.0,0.5707642080960795,,,,,,sub-110,1,random_dot,,
right,right,40.0,0.0,20.0,right,1.0,0.5804330829996616,,accuracy,space,6.383145874016918,,,,,,0.0,1.0,1.0,0.0,20.0,0.0,40.0,1.0,354.5099817079026,,,,,,,,,354.5017650829395,355.6921600420028,356.4838536249008,356.4748411249602,356.4754195419373,356.4838536249008,356.4838536249008,356.4838536249008,357.06909808295313,,,,,,,,,,,,,,,,,,,,,,,,,,,,,,right,1.0,0.5804330829996616,,,,,,sub-110,1,random_dot,,
left,left,41.0,1.0,20.0,left,1.0,0.4199627080233767,,accuracy,space,6.383145874016918,,,,,,0.0,1.0,1.0,0.0,20.0,1.0,41.0,0.0,357.07749783294275,,,,,,,,,357.06968941690866,357.8678927499568,358.661136749899,358.65180245798547,358.6525981669547,358.661136749899,358.661136749899,358.661136749899,359.09227366698906,,,,,,,,,,,,,,,,,,,,,,,,,,,,,,left,1.0,0.4199627080233767,,,,,,sub-110,1,random_dot,,
left,left,42.0,0.0,21.0,right,0.0,0.5626101238885894,,accuracy,space,6.383145874016918,,,,,,0.0,1.0,1.0,0.0,21.0,0.0,42.0,0.0,359.1006764579797,,,,,,,,,359.0925573329441,359.4418203749228,360.2334721669322,360.2244601249695,360.2250293329125,360.2334721669322,360.2334721669322,360.2334721669322,360.8014279169729,,,,,,,,,,,,,,,,,,,,,,,,,,,,,,right,0.0,0.5626101238885894,,,,,,sub-110,1,random_dot,,
right,right,43.0,1.0,21.0,left,0.0,0.4951519999885931,,accuracy,space,6.383145874016918,,,,,,0.0,1.0,1.0,0.0,21.0,1.0,43.0,1.0,360.8092235419899,,,,,,,,,360.8019352079136,361.1414149169577,361.9338078749133,361.92518474999815,361.9256583749084,361.9338078749133,361.9338078749133,361.9338078749133,362.43422316689976,,,,,,,,,,,,,,,,,,,,,,,,,,,,,,left,0.0,0.4951519999885931,,,,,,sub-110,1,random_dot,,
left,left,44.0,0.0,22.0,left,1.0,0.4466864160494879,,accuracy,space,6.383145874016918,,,,,,0.0,1.0,1.0,0.0,22.0,0.0,44.0,0.0,362.4426791250007,,,,,,,,,362.4348078329349,362.5247161668958,363.3162928749807,363.3082475420088,363.3087097919779,363.3162928749807,363.3162928749807,363.3162928749807,363.76870649994817,,,,,,,,,,,,,,,,,,,,,,,,,,,,,,left,1.0,0.4466864160494879,,,,,,sub-110,1,random_dot,,
right,right,45.0,1.0,22.0,right,1.0,0.5749394580489025,,accuracy,space,6.383145874016918,,,,,,0.0,1.0,1.0,0.0,22.0,1.0,45.0,1.0,363.7770313329529,,,,,,,,,363.7692728749244,364.9678851669887,365.75891904195305,365.7513664579019,365.75186737498734,365.75891904195305,365.75891904195305,365.75891904195305,366.3451927079586,,,,,,,,,,,,,,,,,,,,,,,,,,,,,,right,1.0,0.5749394580489025,,,,,,sub-110,1,random_dot,,
right,right,46.0,0.0,23.0,right,1.0,0.998068290995434,,accuracy,space,6.383145874016918,,,,,,0.0,1.0,1.0,0.0,23.0,0.0,46.0,1.0,366.3514360829722,,,,,,,,,366.3457182080019,367.5407842919231,368.3337515000021,368.3247145829955,368.3252565419534,368.3337515000021,368.3337515000021,368.3337515000021,369.33556445792783,,,,,,,,,,,,,,,,,,,,,,,,,,,,,,right,1.0,0.998068290995434,,,,,,sub-110,1,random_dot,,
left,left,47.0,1.0,23.0,left,1.0,0.5133491249289364,,accuracy,space,6.383145874016918,,,,,,0.0,1.0,1.0,0.0,23.0,1.0,47.0,0.0,369.3439989580074,,,,,,,,,369.33612362493295,370.5342947499594,371.3272197919432,371.3183589169057,371.3194386669202,371.3272197919432,371.3272197919432,371.3272197919432,371.85236912500113,,,,,,,,,,,,,,,,,,,,,,,,,,,,,,left,1.0,0.5133491249289364,,,,,,sub-110,1,random_dot,,
right,right,48.0,0.0,24.0,right,1.0,0.5147786239394918,,accuracy,space,6.383145874016918,,,,,,0.0,1.0,1.0,0.0,24.0,0.0,48.0,1.0,371.8606986249797,,,,,,,,,371.8530478329631,373.0511603329796,373.843744291924,373.8347929999,373.8355733749922,373.843744291924,373.843744291924,373.843744291924,374.36884212493896,,,,,,,,,,,,,,,,,,,,,,,,,,,,,,right,1.0,0.5147786239394918,,,,,,sub-110,1,random_dot,,
left,left,49.0,1.0,24.0,right,0.0,0.8197917909128591,,accuracy,space,6.383145874016918,,,,,,0.0,1.0,1.0,0.0,24.0,1.0,49.0,0.0,374.3776902499376,,,,,,,,,374.3696160420077,374.7179300829303,375.5097059579566,375.50141833291855,375.5021619999316,375.5097059579566,375.5097059579566,375.5097059579566,376.3356448329287,,,,,,,,,,,,,,,,,,,,,,,,,,,,,,right,0.0,0.8197917909128591,,,,,,sub-110,1,random_dot,,
left,left,50.0,0.0,25.0,left,1.0,0.5051453330088407,,accuracy,space,6.383145874016918,,,,,,0.0,1.0,1.0,0.0,25.0,0.0,50.0,0.0,376.3438074999722,,,,,,,,,376.33622495795134,377.13459475000855,377.9273842079565,377.9181852499023,377.9189702079166,377.9273842079565,377.9273842079565,377.9273842079565,378.4342845419888,,,,,,,,,,,,,,,,,,,,,,,,,,,,,,left,1.0,0.5051453330088407,,,,,,sub-110,1,random_dot,,
right,right,51.0,1.0,25.0,right,1.0,0.3219116240506992,,accuracy,space,6.383145874016918,,,,,,0.0,1.0,1.0,0.0,25.0,1.0,51.0,1.0,378.44231174991,,,,,,,,,378.4348272499629,379.6249934999505,380.4274961668998,380.4181752499426,380.4193792919396,380.4274961668998,380.4274961668998,380.4274961668998,380.75156529189553,,,,,,,,,,,,,,,,,,,,,,,,,,,,,,right,1.0,0.3219116240506992,,,,,,sub-110,1,random_dot,,
left,left,52.0,0.0,26.0,left,1.0,0.5701506660552695,,accuracy,space,6.383145874016918,,,,,,0.0,1.0,1.0,0.0,26.0,0.0,52.0,0.0,380.76139816700015,,,,,,,,,380.7526202079607,381.0906394999474,381.8832799999509,381.8747352079954,381.8752496669768,381.8832799999509,381.8832799999509,381.8832799999509,382.4580142080085,,,,,,,,,,,,,,,,,,,,,,,,,,,,,,left,1.0,0.5701506660552695,,,,,,sub-110,1,random_dot,,
right,right,53.0,1.0,26.0,right,1.0,0.5236514579737559,,accuracy,space,6.383145874016918,,,,,,0.0,1.0,1.0,0.0,26.0,1.0,53.0,1.0,382.4711832499597,,,,,,,,,382.45857362495735,382.8080814579735,383.6106376670068,383.6015402919147,383.6023049579235,383.6106376670068,383.6106376670068,383.6106376670068,384.14439641695935,,,,,,,,,,,,,,,,,,,,,,,,,,,,,,right,1.0,0.5236514579737559,,,,,,sub-110,1,random_dot,,
left,left,54.0,0.0,27.0,left,1.0,0.5305376249598339,,accuracy,space,6.383145874016918,,,,,,0.0,1.0,1.0,0.0,27.0,0.0,54.0,0.0,384.1671119579114,,,,,,,,,384.1451504579745,385.3413303749403,386.132688416983,386.1245383329224,386.12503616698086,386.132688416983,386.132688416983,386.132688416983,386.669184917002,,,,,,,,,,,,,,,,,,,,,,,,,,,,,,left,1.0,0.5305376249598339,,,,,,sub-110,1,random_dot,,
right,right,55.0,1.0,27.0,right,1.0,0.7113856659270823,,accuracy,space,6.383145874016918,,,,,,0.0,1.0,1.0,0.0,27.0,1.0,55.0,1.0,386.6779275829904,,,,,,,,,386.6698429998942,387.46766716695856,388.2618996669771,388.2513776249252,388.25294333300553,388.2618996669771,388.2618996669771,388.2618996669771,388.97452291694935,,,,,,,,,,,,,,,,,,,,,,,,,,,,,,right,1.0,0.7113856659270823,,,,,,sub-110,1,random_dot,,
left,left,56.0,0.0,28.0,left,1.0,0.5553055829368532,,accuracy,space,6.383145874016918,,,,,,0.0,1.0,1.0,0.0,28.0,0.0,56.0,0.0,388.98252529196907,,,,,,,,,388.9752374578966,389.0736621249234,389.8668790420052,389.8578701249789,389.8584267499391,389.8668790420052,389.8668790420052,389.8668790420052,390.4261282919906,,,,,,,,,,,,,,,,,,,,,,,,,,,,,,left,1.0,0.5553055829368532,,,,,,sub-110,1,random_dot,,
right,right,57.0,1.0,28.0,right,1.0,5.462862042011693,,accuracy,space,6.383145874016918,,,,,,0.0,1.0,1.0,0.0,28.0,1.0,57.0,1.0,390.4342652919004,,,,,,,,,390.4266714169644,391.22408445796464,392.0160108749988,392.0077856249409,392.00824045797344,392.0160108749988,392.0160108749988,392.0160108749988,397.4871878329432,,,,,,,,,,,,,,,,,,,,,,,,,,,,,,right,1.0,5.462862042011693,,397.00594729196746,,,,sub-110,1,random_dot,,
right,right,58.0,0.0,29.0,left,0.0,1.6191605830099434,,accuracy,space,6.383145874016918,,,,,,0.0,1.0,1.0,0.0,29.0,0.0,58.0,1.0,397.4971082078992,,,,,,,,,397.48816437495407,398.2843315829523,399.0762187920045,399.0680684169056,399.0685809999704,399.0762187920045,399.0762187920045,399.0762187920045,400.70203149993904,,,,,,,,,,,,,,,,,,,,,,,,,,,,,,left,0.0,1.6191605830099434,,,,,,sub-110,1,random_dot,,
left,left,59.0,1.0,29.0,right,0.0,0.6728951240656897,,accuracy,space,6.383145874016918,,,,,,0.0,1.0,1.0,0.0,29.0,1.0,59.0,0.0,400.7106178329559,,,,,,,,,400.70264074997976,401.50029495800845,402.2923287919257,402.2843977499288,402.2850022079656,402.2923287919257,402.2923287919257,402.2923287919257,402.96753008291125,,,,,,,,,,,,,,,,,,,,,,,,,,,,,,right,0.0,0.6728951240656897,,,,,,sub-110,1,random_dot,,
,,1.0,1.0,0.0,,,,,accuracy,space,6.383145874016918,,,,,,0.0,1.0,1.0,0.0,,,,,,,,,,,,,,,,,,,,,,,,,,,,,,,,,,,,,,,,,,,,,,,,,,,,,,,,,,,,sub-110,1,random_dot,,
,,,,,,,,,,,,,,,,,,,,,,,,,,,,,,,,,,,,,,,,,,,,,,,,,,,,,,,,,,,,,,,,,,,,,,,,,,,,,402.9774866249645,402.9876546669984,407.9743240829557,sub-110,1,random_dot,,
