direction,corrAns,thisN,thisTrialN,thisRepN,respDots.keys,respDots.corr,respDots.rt,respDots.duration,randomInstr,respRandomInstr.keys,respRandomInstr.rt,respRandomInstr.duration,practice_trials.thisRepN,practice_trials.thisTrialN,practice_trials.thisN,practice_trials.thisIndex,instr_trials.thisRepN,instr_trials.thisTrialN,instr_trials.thisN,instr_trials.thisIndex,test_trials.thisRepN,test_trials.thisTrialN,test_trials.thisN,test_trials.thisIndex,thisRow.t,notes,general_instruction.started,textGeneralInstr.started,respGeneralInstr.started,general_instruction.stopped,respGeneralInstr.keys,respGeneralInstr.rt,respGeneralInstr.duration,ITI.started,fixcross.started,fixcross.stopped,ITI.stopped,dots.started,backgroundDots.started,stimulusDots.started,respDots.started,dots.stopped,practice_trials.respDots.keys,practice_trials.respDots.corr,practice_trials.respDots.rt,practice_trials.respDots.duration,feedback.started,textFeedback.started,feedback.stopped,textFeedback.stopped,stimulusDots.stopped,info.started,textInfo.started,keyRespInfo.started,info.stopped,keyRespInfo.keys,keyRespInfo.rt,keyRespInfo.duration,test_instruction.started,textTestInstr.started,respTestInstr.started,test_instruction.stopped,respTestInstr.keys,respTestInstr.rt,respTestInstr.duration,random_instruction.started,textRandomInstr.started,respRandomInstr.started,random_instruction.stopped,instr_trials.respRandomInstr.keys,instr_trials.respRandomInstr.rt,instr_trials.respRandomInstr.duration,test_trials.respDots.keys,test_trials.respDots.corr,test_trials.respDots.rt,test_trials.respDots.duration,goodbye.started,textGoodbye.started,goodbye.stopped,participant,session,expName,frameRate,Unnamed: 87
,,,,,,,,,,,,,,,,,,,,,,,,,,,0.0104554440040374,0.0308230770024238,0.0308230770024238,21.97502962300496,space,21.846301252997364,,,,,,,,,,,,,,,,,,,,,,,,,,,,,,,,,,,,,,,,,,,,,,,,sub-222,1,random_dot,73.20286187144224,
left,left,0.0,0.0,0.0,right,0.0,4.316194325001561,,,,,,0.0,0.0,0.0,0.0,,,,,,,,,21.99400736000098,,,,,,,,,21.981466567005555,22.071787562999816,22.87344868400396,22.85682500500116,22.85717835500691,22.87344868400396,22.87344868400396,22.87344868400396,27.20213957800297,right,0.0,4.316194325001561,,27.20722911000485,27.2324041009997,27.70335386200168,,,,,,,,,,,,,,,,,,,,,,,,,,,,,,,sub-222,1,random_dot,73.20286187144224,
right,right,1.0,1.0,0.0,left,0.0,4.15587606599729,,,,,,0.0,1.0,1.0,1.0,,,,,,,,,27.712644252002065,,,,,,,,,27.70440341000358,28.50360882300447,29.32310739500099,29.305254030005017,29.305504004005343,29.32310739500099,29.32310739500099,29.32310739500099,33.48636555499979,left,0.0,4.15587606599729,,33.486453090001305,33.49671203300386,33.98229778800305,33.991912741003034,,,,,,,,,,,,,,,,,,,,,,,,,,,,,,sub-222,1,random_dot,73.20286187144224,
right,right,2.0,0.0,1.0,right,1.0,0.8686326710012509,,,,,,1.0,0.0,2.0,1.0,,,,,,,,,33.991912741003034,,,,,,,,,33.983278065003105,34.79009517500526,35.600872341005015,35.59034662600607,35.59081374300149,35.600872341005015,35.600872341005015,35.600872341005015,36.481225834002544,right,1.0,0.8686326710012509,,36.48592925700359,36.4971061920005,36.99017508500401,,,,,,,,,,,,,,,,,,,,,,,,,,,,,,,sub-222,1,random_dot,73.20286187144224,
left,left,3.0,1.0,1.0,right,0.0,0.6398332270036917,,,,,,1.0,1.0,3.0,0.0,,,,,,,,,36.99868264000543,,,,,,,,,36.99060133800231,37.33063432000199,38.129360718005046,38.1176128540028,38.118319883004006,38.129360718005046,38.129360718005046,38.129360718005046,38.772931256004085,right,0.0,0.6398332270036917,,38.77490462800051,38.790018228006375,39.27358426200226,,,,,,,,,,,,,,,,,,,,,,,,,,,,,,,sub-222,1,random_dot,73.20286187144224,
right,right,4.0,0.0,2.0,right,1.0,1.8513905670042727,,,,,,2.0,0.0,4.0,1.0,,,,,,,,,39.2820063170002,,,,,,,,,39.27401280600316,40.46450466399983,41.27299022900115,41.2553692710062,41.25584086100571,41.27299022900115,41.27299022900115,41.27299022900115,43.132514226999774,right,1.0,1.8513905670042727,,43.1355377170039,43.14532787200005,43.64032447900536,,,,,,,,,,,,,,,,,,,,,,,,,,,,,,,sub-222,1,random_dot,73.20286187144224,
left,left,5.0,1.0,2.0,left,1.0,2.680863599998702,,,,,,2.0,1.0,5.0,0.0,,,,,,,,,43.64892569600488,,,,,,,,,43.64075540200429,43.73225940500561,44.53995266100537,44.52205429800233,44.52253388700046,44.53995266100537,44.53995266100537,44.53995266100537,47.2272070570034,left,1.0,2.680863599998702,,47.22728471600567,47.2398621770044,47.72904019500129,,,,,,,,,,,,,,,,,,,,,,,,,,,,,,,sub-222,1,random_dot,73.20286187144224,
right,right,6.0,0.0,3.0,right,1.0,2.3976500290009426,,,,,,3.0,0.0,6.0,1.0,,,,,,,,,47.74211752800329,,,,,,,,,47.72948663900024,48.93045689800056,49.73997821800003,49.72206614600145,49.72254191300453,49.73997821800003,49.73997821800003,49.73997821800003,52.14119452000159,right,1.0,2.3976500290009426,,52.141305229000864,52.151131909005926,52.64015840100183,52.64955358700536,,,,,,,,,,,,,,,,,,,,,,,,,,,,,,sub-222,1,random_dot,73.20286187144224,
left,left,7.0,1.0,3.0,right,0.0,1.9064627379993908,,,,,,3.0,1.0,7.0,0.0,,,,,,,,,52.64955358700536,,,,,,,,,52.64055716200528,53.84162954000203,54.64005315400573,54.62451931400574,54.62496622000617,54.64005315400573,54.64005315400573,54.64005315400573,56.550384911002766,right,0.0,1.9064627379993908,,56.55454329799977,56.56361311200453,57.04961155300407,57.06104237200634,,,,,,,,,,,,,,,,,,,,,,,,,,,,,,sub-222,1,random_dot,73.20286187144224,
left,left,8.0,0.0,4.0,left,1.0,3.072734841000056,,,,,,4.0,0.0,8.0,0.0,,,,,,,,,57.06104237200634,,,,,,,,,57.050022064002405,58.24883669800329,59.05235819500376,59.04017628800648,59.04064671800006,59.05235819500376,59.05235819500376,59.05235819500376,62.13051209400146,left,1.0,3.072734841000056,,62.13232440700085,62.1545998090005,62.63221814800636,,,,,,,,,,,,,,,,,,,,,,,,,,,,,,,sub-222,1,random_dot,73.20286187144224,
right,right,9.0,1.0,4.0,left,0.0,5.1581451750025735,,,,,,4.0,1.0,9.0,1.0,,,,,,,,,62.654607636002766,,,,,,,,,62.63335306600493,62.73160624100274,63.52867639900069,63.51499841199984,63.51626582300378,63.52867639900069,63.52867639900069,63.52867639900069,68.69270242000493,left,0.0,5.1581451750025735,,68.69552025500161,68.70833143900381,69.20462781200331,,68.51529781200225,,,,,,,,,,,,,,,,,,,,,,,,,,,,,sub-222,1,random_dot,73.20286187144224,
left,left,10.0,0.0,5.0,left,1.0,2.2412426349983434,,,,,,5.0,0.0,10.0,0.0,,,,,,,,,69.22258270800376,,,,,,,,,69.20494597400102,69.54328332700243,70.34617991800042,70.33227289200295,70.3332681200045,70.34617991800042,70.34617991800042,70.34617991800042,72.59060209600284,left,1.0,2.2412426349983434,,72.592672098006,72.60141077600565,73.08537354400323,73.0963744880064,,,,,,,,,,,,,,,,,,,,,,,,,,,,,,sub-222,1,random_dot,73.20286187144224,
right,right,11.0,1.0,5.0,right,1.0,1.441820287000155,,,,,,5.0,1.0,11.0,1.0,,,,,,,,,73.0963744880064,,,,,,,,,73.08628806300112,73.43937080600153,74.23188775200106,74.22286120000354,74.22308466899995,74.23188775200106,74.23188775200106,74.23188775200106,75.68091289300355,right,1.0,1.441820287000155,,75.68098993000604,75.68969159500557,76.1731856990009,76.18265690200496,,,,,,,,,,,,,,,,,,,,,,,,,,,,,,sub-222,1,random_dot,73.20286187144224,
right,right,12.0,0.0,6.0,left,0.0,2.526749614000437,,,,,,6.0,0.0,12.0,1.0,,,,,,,,,76.18265690200496,,,,,,,,,76.17356184800155,76.2780923820028,77.08342056300171,77.0729406840037,77.07338039699971,77.08342056300171,77.08342056300171,77.08342056300171,79.61479817000509,left,0.0,2.526749614000437,,79.61754172300425,79.62718432700058,80.11515288300143,,,,,,,,,,,,,,,,,,,,,,,,,,,,,,,sub-222,1,random_dot,73.20286187144224,
left,left,13.0,1.0,6.0,right,0.0,2.3881244989970583,,,,,,6.0,1.0,13.0,0.0,,,,,,,,,80.13785591500346,,,,,,,,,80.11644110100315,80.22290987400629,81.01663831500628,81.00632095699984,81.00675749800575,81.01663831500628,81.01663831500628,81.01663831500628,83.41500502000417,right,0.0,2.3881244989970583,,83.41508960500505,83.42467081300128,83.91559516100097,83.92787617000431,,,,,,,,,,,,,,,,,,,,,,,,,,,,,,sub-222,1,random_dot,73.20286187144224,
right,right,14.0,0.0,7.0,left,0.0,5.508376072000829,,,,,,7.0,0.0,14.0,1.0,,,,,,,,,83.92787617000431,,,,,,,,,83.9166665330049,84.71433671900013,85.51679258900549,85.50645505000284,85.5068894770011,85.51679258900549,85.51679258900549,85.51679258900549,91.03453834000538,left,0.0,5.508376072000829,,91.0346275050033,91.04487602500012,91.53248862300096,91.54477836600564,90.50877063900408,,,,,,,,,,,,,,,,,,,,,,,,,,,,,sub-222,1,random_dot,73.20286187144224,
left,left,15.0,1.0,7.0,left,1.0,3.139613767998526,,,,,,7.0,1.0,15.0,0.0,,,,,,,,,91.54477836600564,,,,,,,,,91.53332411100564,92.33196723100264,93.13597415800176,93.124821161,93.12597939700208,93.13597415800176,93.13597415800176,93.13597415800176,96.28017545600596,left,1.0,3.139613767998526,,96.28299607900408,96.2936881170026,96.78986835800606,,,,,,,,,,,,,,,,,,,,,,,,,,,,,,,sub-222,1,random_dot,73.20286187144224,
left,left,16.0,0.0,8.0,right,0.0,1.7609683889968435,,,,,,8.0,0.0,16.0,0.0,,,,,,,,,96.79846756400366,,,,,,,,,96.79037318900372,97.5742155140033,98.37243055900036,98.35937580500467,98.35963401100162,98.37243055900036,98.37243055900036,98.37243055900036,100.14704970800084,right,0.0,1.7609683889968435,,100.14973429100064,100.16023970800596,100.65131903900328,,,,,,,,,,,,,,,,,,,,,,,,,,,,,,,sub-222,1,random_dot,73.20286187144224,
right,right,17.0,1.0,8.0,right,1.0,2.283205380001164,,,,,,8.0,1.0,17.0,1.0,,,,,,,,,100.6628540390011,,,,,,,,,100.65261778600689,100.7561617790052,101.55028477900488,101.53956939300406,101.54000601900044,101.55028477900488,101.55028477900488,101.55028477900488,103.84645440700116,right,1.0,2.283205380001164,,103.8487151590016,103.8591983830047,104.356112639005,,,,,,,,,,,,,,,,,,,,,,,,,,,,,,,sub-222,1,random_dot,73.20286187144224,
right,right,18.0,0.0,9.0,left,0.0,2.873342762999528,,,,,,9.0,0.0,18.0,1.0,,,,,,,,,104.36437841300358,,,,,,,,,104.35651639000572,104.69027604400615,105.49522663200332,105.48251556600007,105.48296417500389,105.49522663200332,105.49522663200332,105.49522663200332,108.37403036700562,left,0.0,2.873342762999528,,108.37592120000043,108.38454787400406,108.87122991700016,108.88923943300324,,,,,,,,,,,,,,,,,,,,,,,,,,,,,,sub-222,1,random_dot,73.20286187144224,
left,left,19.0,1.0,9.0,right,0.0,5.310683298994263,,,,,,9.0,1.0,19.0,0.0,,,,,,,,,108.88923943300324,,,,,,,,,108.8716186360034,108.97420197199972,109.76921667900024,109.75761360500474,109.75864858400018,109.76921667900024,109.76921667900024,109.76921667900024,115.08395190900046,right,0.0,5.310683298994263,,115.08408592100022,115.09438602900627,115.58918266600084,,114.7588042780044,,,,,,,,,,,,,,,,,,,,,,,,,,,,,sub-222,1,random_dot,73.20286187144224,
,,,,,,,,,,,,,,,,,,,,,,,,,,,,,,,,,,,,,,,,,,,,,,,,,,,,115.58930732700536,115.59968526300509,115.59968526300509,128.67947883099987,space,13.068631454996648,,,,,,,,,,,,,,,,,,,,,,,sub-222,1,random_dot,73.20286187144224,
,,,,,,,,,,,,,,,,,,,,,,,,,,,,,,,,,,,,,,,,,,,,,,,,,,,,,,,,,,,128.6795577590019,128.69445590800024,128.69445590800024,136.5050257490002,space,7.796509250998497,,,,,,,,,,,,,,,,sub-222,1,random_dot,73.20286187144224,
right,right,0.0,0.0,0.0,right,1.0,4.547953312998288,,accuracy,space,16.10435366800084,,,,,,0.0,0.0,0.0,0.0,0.0,0.0,0.0,1.0,152.66336460100138,,,,,,,,,152.65405140700022,152.99785171600524,153.805250094003,153.79061454800103,153.79090485800407,153.805250094003,153.805250094003,153.805250094003,158.3582119890052,,,,,,,,,,,,,,,,,,,,,,,,136.52341897800216,136.53448424700036,136.53448424700036,152.64865817100508,space,16.10435366800084,,right,1.0,4.547953312998288,,,,,sub-222,1,random_dot,73.20286187144224,
left,left,1.0,1.0,0.0,left,1.0,5.277802053999039,,accuracy,space,16.10435366800084,,,,,,0.0,0.0,0.0,0.0,0.0,1.0,1.0,0.0,158.3715186240006,,,,,,,,,158.35852542300563,159.1700922520031,159.988595765004,159.9706854150063,159.97116564000316,159.988595765004,159.988595765004,159.988595765004,165.279798141004,,,,,,,,,164.98680626400164,,,,,,,,,,,,,,,,,,,,,,left,1.0,5.277802053999039,,,,,sub-222,1,random_dot,73.20286187144224,
right,right,2.0,0.0,1.0,left,0.0,5.626298237002629,,accuracy,space,16.10435366800084,,,,,,0.0,0.0,0.0,0.0,1.0,0.0,2.0,1.0,165.289361465002,,,,,,,,,165.28019456400216,166.08819543600112,166.88985092200164,166.88035692100675,166.88060797900107,166.88985092200164,166.88985092200164,166.88985092200164,172.5285623680029,,,,,,,,,171.88165697700606,,,,,,,,,,,,,,,,,,,,,,left,0.0,5.626298237002629,,,,,sub-222,1,random_dot,73.20286187144224,
left,left,3.0,1.0,1.0,right,0.0,5.430880767999042,,accuracy,space,16.10435366800084,,,,,,0.0,0.0,0.0,0.0,1.0,1.0,3.0,0.0,172.54074333600147,,,,,,,,,172.5288745210055,173.32404797700292,174.123670468005,174.110389983005,174.11086947600415,174.123670468005,174.123670468005,174.123670468005,179.555790806,,,,,,,,,179.107827990003,,,,,,,,,,,,,,,,,,,,,,right,0.0,5.430880767999042,,,,,sub-222,1,random_dot,73.20286187144224,
right,right,4.0,0.0,2.0,right,1.0,3.836481824000657,,accuracy,space,16.10435366800084,,,,,,0.0,0.0,0.0,0.0,2.0,0.0,4.0,1.0,179.5638414990026,,,,,,,,,179.55608977800148,180.35088612200343,181.15483324700472,181.1419255810033,181.14228132400603,181.15483324700472,181.15483324700472,181.15483324700472,184.99537012500517,,,,,,,,,,,,,,,,,,,,,,,,,,,,,,,right,1.0,3.836481824000657,,,,,sub-222,1,random_dot,73.20286187144224,
left,left,5.0,1.0,2.0,right,0.0,5.723005163999915,,accuracy,space,16.10435366800084,,,,,,0.0,0.0,0.0,0.0,2.0,1.0,5.0,0.0,185.00586848100647,,,,,,,,,184.99568682400425,185.79672742800176,186.594064544006,186.58041854900512,186.5815268890001,186.594064544006,186.594064544006,186.594064544006,192.3289855450057,,,,,,,,,191.57726682100477,,,,,,,,,,,,,,,,,,,,,,right,0.0,5.723005163999915,,,,,sub-222,1,random_dot,73.20286187144224,
right,right,6.0,0.0,3.0,right,1.0,5.446259969998209,,accuracy,space,16.10435366800084,,,,,,0.0,0.0,0.0,0.0,3.0,0.0,6.0,1.0,192.33825981800328,,,,,,,,,192.32927458900667,192.4259608810025,193.22875415300223,193.21456220300024,193.21557934100565,193.22875415300223,193.22875415300223,193.22875415300223,198.6887774679999,,,,,,,,,198.2119575290053,,,,,,,,,,,,,,,,,,,,,,right,1.0,5.446259969998209,,,,,sub-222,1,random_dot,73.20286187144224,
left,left,7.0,1.0,3.0,left,1.0,1.2217482560008648,,accuracy,space,16.10435366800084,,,,,,0.0,0.0,0.0,0.0,3.0,1.0,7.0,0.0,198.6986721370049,,,,,,,,,198.68915269900023,199.88415648000228,200.6849543480057,200.6737521190007,200.67498835300648,200.6849543480057,200.6849543480057,200.6849543480057,201.9198951320068,,,,,,,,,,,,,,,,,,,,,,,,,,,,,,,left,1.0,1.2217482560008648,,,,,sub-222,1,random_dot,73.20286187144224,
right,right,8.0,0.0,4.0,right,1.0,2.890572655000142,,accuracy,space,16.10435366800084,,,,,,0.0,0.0,0.0,0.0,4.0,0.0,8.0,1.0,201.93039059600412,,,,,,,,,201.9208755320069,202.2630558689998,203.0608721180033,203.04757518300173,203.04818068000168,203.0608721180033,203.0608721180033,203.0608721180033,205.9629476860064,,,,,,,,,,,,,,,,,,,,,,,,,,,,,,,right,1.0,2.890572655000142,,,,,sub-222,1,random_dot,73.20286187144224,
left,left,9.0,1.0,4.0,left,1.0,4.06196459900093,,accuracy,space,16.10435366800084,,,,,,0.0,0.0,0.0,0.0,4.0,1.0,9.0,0.0,205.97231800900045,,,,,,,,,205.9632202300054,206.31292924100129,207.1100429710059,207.0974009010024,207.09836171000643,207.1100429710059,207.1100429710059,207.1100429710059,211.1825826370041,,,,,,,,,,,,,,,,,,,,,,,,,,,,,,,left,1.0,4.06196459900093,,,,,sub-222,1,random_dot,73.20286187144224,
right,right,10.0,0.0,5.0,right,1.0,2.101586771001166,,accuracy,space,16.10435366800084,,,,,,0.0,0.0,0.0,0.0,5.0,0.0,10.0,1.0,211.19254951900075,,,,,,,,,211.18295296600263,211.52664711900437,212.33317183700277,212.32149755200223,212.3219588090069,212.33317183700277,212.33317183700277,212.33317183700277,214.43877999500543,,,,,,,,,,,,,,,,,,,,,,,,,,,,,,,right,1.0,2.101586771001166,,,,,sub-222,1,random_dot,73.20286187144224,
left,left,11.0,1.0,5.0,left,1.0,5.5857356439955765,,accuracy,space,16.10435366800084,,,,,,0.0,0.0,0.0,0.0,5.0,1.0,11.0,0.0,214.4474856310044,,,,,,,,,214.43918579300225,214.78769142900276,215.5805372850009,215.5709758470039,215.57134678800503,215.5805372850009,215.5805372850009,215.5805372850009,221.1795445470052,,,,,,,,,220.58100130200185,,,,,,,,,,,,,,,,,,,,,,left,1.0,5.5857356439955765,,,,,sub-222,1,random_dot,73.20286187144224,
left,left,12.0,0.0,6.0,left,1.0,5.388243200999568,,accuracy,space,16.10435366800084,,,,,,0.0,0.0,0.0,0.0,6.0,0.0,12.0,0.0,221.188544482,,,,,,,,,221.1798066740012,222.38162243600527,223.1873363460036,223.17355858700464,223.1739168070053,223.1873363460036,223.1873363460036,223.1873363460036,228.5902426080065,,,,,,,,,228.17384586100525,,,,,,,,,,,,,,,,,,,,,,left,1.0,5.388243200999568,,,,,sub-222,1,random_dot,73.20286187144224,
right,right,13.0,1.0,6.0,right,1.0,1.233947366999928,,accuracy,space,16.10435366800084,,,,,,0.0,0.0,0.0,0.0,6.0,1.0,13.0,1.0,228.6042478590025,,,,,,,,,228.5905268839997,228.9427794630028,229.7540482230033,229.7361298340038,229.7365998400055,229.7540482230033,229.7540482230033,229.7540482230033,230.9919770380002,,,,,,,,,,,,,,,,,,,,,,,,,,,,,,,right,1.0,1.233947366999928,,,,,sub-222,1,random_dot,73.20286187144224,
left,left,14.0,0.0,7.0,right,0.0,5.3410769189940766,,accuracy,space,16.10435366800084,,,,,,0.0,0.0,0.0,0.0,7.0,0.0,14.0,0.0,231.00396827800432,,,,,,,,,230.9923895450047,232.19054653400235,232.99467942000047,232.983000774002,232.98343370000657,232.99467942000047,232.99467942000047,232.99467942000047,238.34066037600127,,,,,,,,,237.9804041970056,,,,,,,,,,,,,,,,,,,,,,right,0.0,5.3410769189940766,,,,,sub-222,1,random_dot,73.20286187144224,
right,right,15.0,1.0,7.0,left,0.0,3.57830854599888,,accuracy,space,16.10435366800084,,,,,,0.0,0.0,0.0,0.0,7.0,1.0,15.0,1.0,238.3538272460064,,,,,,,,,238.3410262899997,239.14276165400224,239.94602030200625,239.9339283110021,239.93540870900324,239.94602030200625,239.94602030200625,239.94602030200625,243.53861643800337,,,,,,,,,,,,,,,,,,,,,,,,,,,,,,,left,0.0,3.57830854599888,,,,,sub-222,1,random_dot,73.20286187144224,
right,right,16.0,0.0,8.0,right,1.0,4.034184440999525,,accuracy,space,16.10435366800084,,,,,,0.0,0.0,0.0,0.0,8.0,0.0,16.0,1.0,243.548222549005,,,,,,,,,243.53897040700397,243.63747977700405,244.45397973900253,244.43598925200055,244.43648979000136,244.45397973900253,244.45397973900253,244.45397973900253,248.4919909770033,,,,,,,,,,,,,,,,,,,,,,,,,,,,,,,right,1.0,4.034184440999525,,,,,sub-222,1,random_dot,73.20286187144224,
left,left,17.0,1.0,8.0,right,0.0,5.371570078001241,,accuracy,space,16.10435366800084,,,,,,0.0,0.0,0.0,0.0,8.0,1.0,17.0,0.0,248.5008556890025,,,,,,,,,248.4924289940027,248.84083939300035,249.65370951900692,249.63591148300475,249.6363860430065,249.65370951900692,249.65370951900692,249.65370951900692,255.03682356200443,,,,,,,,,254.629759375006,,,,,,,,,,,,,,,,,,,,,,right,0.0,5.371570078001241,,,,,sub-222,1,random_dot,73.20286187144224,
right,right,18.0,0.0,9.0,right,1.0,2.9681937380009917,,accuracy,space,16.10435366800084,,,,,,0.0,0.0,0.0,0.0,9.0,0.0,18.0,1.0,255.04660682100075,,,,,,,,,255.03724459800287,255.3889041940056,256.1933721020032,256.18017501300346,256.1810258559999,256.1933721020032,256.1933721020032,256.1933721020032,259.1655010930044,,,,,,,,,,,,,,,,,,,,,,,,,,,,,,,right,1.0,2.9681937380009917,,,,,sub-222,1,random_dot,73.20286187144224,
left,left,19.0,1.0,9.0,left,1.0,5.372378412001126,,accuracy,space,16.10435366800084,,,,,,0.0,0.0,0.0,0.0,9.0,1.0,19.0,0.0,259.1758653870056,,,,,,,,,259.1659058390069,259.96252518400433,260.7640442350021,260.753876007002,260.75433278499986,260.7640442350021,260.7640442350021,260.7640442350021,266.14435817800404,,,,,,,,,265.75397772,,,,,,,,,,,,,,,,,,,,,,left,1.0,5.372378412001126,,,,,sub-222,1,random_dot,73.20286187144224,
left,left,20.0,0.0,10.0,right,0.0,4.629179684998235,,accuracy,space,16.10435366800084,,,,,,0.0,0.0,0.0,0.0,10.0,0.0,20.0,0.0,266.1530167260062,,,,,,,,,266.1446249100045,266.2469963550029,267.0489320150009,267.0372371160047,267.03775962900545,267.0489320150009,267.0489320150009,267.0489320150009,271.6828992630035,,,,,,,,,,,,,,,,,,,,,,,,,,,,,,,right,0.0,4.629179684998235,,,,,sub-222,1,random_dot,73.20286187144224,
right,right,21.0,1.0,10.0,left,0.0,1.4942140450002626,,accuracy,space,16.10435366800084,,,,,,0.0,0.0,0.0,0.0,10.0,1.0,21.0,1.0,271.6929049850005,,,,,,,,,271.6833393720008,271.78698937100125,272.59757711600105,272.58703318000335,272.5874964579998,272.59757711600105,272.59757711600105,272.59757711600105,274.1026802330016,,,,,,,,,,,,,,,,,,,,,,,,,,,,,,,left,0.0,1.4942140450002626,,,,,sub-222,1,random_dot,73.20286187144224,
right,right,22.0,0.0,11.0,left,0.0,2.617764533002628,,accuracy,space,16.10435366800084,,,,,,0.0,0.0,0.0,0.0,11.0,0.0,22.0,1.0,274.1200528680056,,,,,,,,,274.1030607720022,274.19564892300696,275.0036975010007,274.985633068005,274.9861001060053,275.0036975010007,275.0036975010007,275.0036975010007,277.63732396400155,,,,,,,,,,,,,,,,,,,,,,,,,,,,,,,left,0.0,2.617764533002628,,,,,sub-222,1,random_dot,73.20286187144224,
left,left,23.0,1.0,11.0,right,0.0,3.4352432140003657,,accuracy,space,16.10435366800084,,,,,,0.0,0.0,0.0,0.0,11.0,1.0,23.0,0.0,277.6470004680013,,,,,,,,,277.63758311400306,278.4369639560027,279.2314838680031,279.22077609100234,279.2212475080014,279.2314838680031,279.2314838680031,279.2314838680031,282.6773266270029,,,,,,,,,,,,,,,,,,,,,,,,,,,,,,,right,0.0,3.4352432140003657,,,,,sub-222,1,random_dot,73.20286187144224,
left,left,24.0,0.0,12.0,right,0.0,4.206831925999722,,accuracy,space,16.10435366800084,,,,,,0.0,0.0,0.0,0.0,12.0,0.0,24.0,0.0,282.6869071540059,,,,,,,,,282.6776061530036,283.4850080870019,284.2835671120047,284.27230961100577,284.27355689800606,284.2835671120047,284.2835671120047,284.2835671120047,288.49555985500047,,,,,,,,,,,,,,,,,,,,,,,,,,,,,,,right,0.0,4.206831925999722,,,,,sub-222,1,random_dot,73.20286187144224,
right,right,25.0,1.0,12.0,right,1.0,2.732601052004611,,accuracy,space,16.10435366800084,,,,,,0.0,0.0,0.0,0.0,12.0,1.0,25.0,1.0,288.50496181600465,,,,,,,,,288.49597216400434,289.6932316980019,290.49260257100104,290.4786773070009,290.47984791600175,290.49260257100104,290.49260257100104,290.49260257100104,293.23042915000406,,,,,,,,,,,,,,,,,,,,,,,,,,,,,,,right,1.0,2.732601052004611,,,,,sub-222,1,random_dot,73.20286187144224,
right,right,26.0,0.0,13.0,right,1.0,5.351934078003978,,accuracy,space,16.10435366800084,,,,,,0.0,0.0,0.0,0.0,13.0,0.0,26.0,1.0,293.2420917070049,,,,,,,,,293.2307982110069,293.5785606270001,294.38492149200465,294.362071511001,294.3630682270013,294.38492149200465,294.38492149200465,294.38492149200465,299.74331792100566,,,,,,,,,299.3612866550029,,,,,,,,,,,,,,,,,,,,,,right,1.0,5.351934078003978,,,,,sub-222,1,random_dot,73.20286187144224,
left,left,27.0,1.0,13.0,left,1.0,2.2098682969954098,,accuracy,space,16.10435366800084,,,,,,0.0,0.0,0.0,0.0,13.0,1.0,27.0,0.0,299.7523959620012,,,,,,,,,299.7437113870037,300.9513664610058,301.7527798920055,301.73467654200067,301.7349159510049,301.7527798920055,301.7527798920055,301.7527798920055,303.9705864620046,,,,,,,,,,,,,,,,,,,,,,,,,,,,,,,left,1.0,2.2098682969954098,,,,,sub-222,1,random_dot,73.20286187144224,
right,right,28.0,0.0,14.0,right,1.0,4.028992045998166,,accuracy,space,16.10435366800084,,,,,,0.0,0.0,0.0,0.0,14.0,0.0,28.0,1.0,303.9793449880017,,,,,,,,,303.9708425900026,305.17190069900244,305.9754415790012,305.9614837800036,305.9625846770068,305.9754415790012,305.9754415790012,305.9754415790012,310.017328381,,,,,,,,,,,,,,,,,,,,,,,,,,,,,,,right,1.0,4.028992045998166,,,,,sub-222,1,random_dot,73.20286187144224,
left,left,29.0,1.0,14.0,left,1.0,5.38210236300074,,accuracy,space,16.10435366800084,,,,,,0.0,0.0,0.0,0.0,14.0,1.0,29.0,0.0,310.027817910006,,,,,,,,,310.01791367900296,310.83629927400034,311.64740187700227,311.636749713005,311.6372174220014,311.64740187700227,311.64740187700227,311.64740187700227,317.0387158390004,,,,,,,,,316.64199261199974,,,,,,,,,,,,,,,,,,,,,,left,1.0,5.38210236300074,,,,,sub-222,1,random_dot,73.20286187144224,
left,left,30.0,0.0,15.0,right,0.0,5.268341856004554,,accuracy,space,16.10435366800084,,,,,,0.0,0.0,0.0,0.0,15.0,0.0,30.0,0.0,317.05310956000176,,,,,,,,,317.03897799400147,317.14166823000414,317.9463440470063,317.936644899004,317.9369736580047,317.9463440470063,317.9463440470063,317.9463440470063,323.2195873380042,,,,,,,,,322.93634882000333,,,,,,,,,,,,,,,,,,,,,,right,0.0,5.268341856004554,,,,,sub-222,1,random_dot,73.20286187144224,
right,right,31.0,1.0,15.0,right,1.0,5.25223243200162,,accuracy,space,16.10435366800084,,,,,,0.0,0.0,0.0,0.0,15.0,1.0,31.0,1.0,323.23615179800254,,,,,,,,,323.2198549750028,323.3221031860012,324.12577208400035,324.11211728900525,324.1132148590041,324.12577208400035,324.12577208400035,324.12577208400035,329.38117385900114,,,,,,,,,329.11960713900044,,,,,,,,,,,,,,,,,,,,,,right,1.0,5.25223243200162,,,,,sub-222,1,random_dot,73.20286187144224,
left,left,32.0,0.0,16.0,left,1.0,2.7553586560025,,accuracy,space,16.10435366800084,,,,,,0.0,0.0,0.0,0.0,16.0,0.0,32.0,0.0,329.39280543600034,,,,,,,,,329.3817385000002,330.60261283300497,331.39690717300255,331.3864373010001,331.3868774790026,331.39690717300255,331.39690717300255,331.39690717300255,334.15693961299985,,,,,,,,,,,,,,,,,,,,,,,,,,,,,,,left,1.0,2.7553586560025,,,,,sub-222,1,random_dot,73.20286187144224,
right,right,33.0,1.0,16.0,right,1.0,1.9592376529981264,,accuracy,space,16.10435366800084,,,,,,0.0,0.0,0.0,0.0,16.0,1.0,33.0,1.0,334.16932571600046,,,,,,,,,334.1572006130009,334.51817331700295,335.3124262260026,335.30297964400233,335.3033113440033,335.3124262260026,335.3124262260026,335.3124262260026,337.27945593300683,,,,,,,,,,,,,,,,,,,,,,,,,,,,,,,right,1.0,1.9592376529981264,,,,,sub-222,1,random_dot,73.20286187144224,
right,right,34.0,0.0,17.0,left,0.0,2.639544122001098,,accuracy,space,16.10435366800084,,,,,,0.0,0.0,0.0,0.0,17.0,0.0,34.0,1.0,337.29119195300154,,,,,,,,,337.27973513100005,338.4762982259999,339.2810460990004,339.26966202699987,339.27012819000083,339.2810460990004,339.2810460990004,339.2810460990004,341.9270617900038,,,,,,,,,,,,,,,,,,,,,,,,,,,,,,,left,0.0,2.639544122001098,,,,,sub-222,1,random_dot,73.20286187144224,
left,left,35.0,1.0,17.0,left,1.0,3.385721850994741,,accuracy,space,16.10435366800084,,,,,,0.0,0.0,0.0,0.0,17.0,1.0,35.0,0.0,341.9358722260004,,,,,,,,,341.9273928990005,342.2752734960013,343.0789844990068,343.0694541860066,343.0697845130053,343.0789844990068,343.0789844990068,343.0789844990068,346.47083200300403,,,,,,,,,,,,,,,,,,,,,,,,,,,,,,,left,1.0,3.385721850994741,,,,,sub-222,1,random_dot,73.20286187144224,
right,right,36.0,0.0,18.0,right,1.0,1.0843262929993216,,accuracy,space,16.10435366800084,,,,,,0.0,0.0,0.0,0.0,18.0,0.0,36.0,1.0,346.4806910270054,,,,,,,,,346.4712145390004,347.2692485480002,348.07112789900566,348.0581241840045,348.0585324280037,348.07112789900566,348.07112789900566,348.07112789900566,349.1693701010008,,,,,,,,,,,,,,,,,,,,,,,,,,,,,,,right,1.0,1.0843262929993216,,,,,sub-222,1,random_dot,73.20286187144224,
left,left,37.0,1.0,18.0,left,1.0,3.671881916001439,,accuracy,space,16.10435366800084,,,,,,0.0,0.0,0.0,0.0,18.0,1.0,37.0,0.0,349.17853963900416,,,,,,,,,349.1698690340054,350.3857316990034,351.17999555600545,351.1694663880044,351.1699323250068,351.17999555600545,351.17999555600545,351.17999555600545,354.8646265940042,,,,,,,,,,,,,,,,,,,,,,,,,,,,,,,left,1.0,3.671881916001439,,,,,sub-222,1,random_dot,73.20286187144224,
right,right,38.0,0.0,19.0,left,0.0,4.3081717349996325,,accuracy,space,16.10435366800084,,,,,,0.0,0.0,0.0,0.0,19.0,0.0,38.0,1.0,354.8747980510016,,,,,,,,,354.86499410300166,356.0607293810026,356.859443622001,356.8453170390057,356.8464416830029,356.859443622001,356.859443622001,356.859443622001,361.174128096005,,,,,,,,,,,,,,,,,,,,,,,,,,,,,,,left,0.0,4.3081717349996325,,,,,sub-222,1,random_dot,73.20286187144224,
left,left,39.0,1.0,19.0,right,0.0,2.958831059993827,,accuracy,space,16.10435366800084,,,,,,0.0,0.0,0.0,0.0,19.0,1.0,39.0,0.0,361.1857878250012,,,,,,,,,361.1743875180037,361.98396715000126,362.78561163900304,362.76765372700174,362.7681279000026,362.78561163900304,362.78561163900304,362.78561163900304,365.7483926010027,,,,,,,,,,,,,,,,,,,,,,,,,,,,,,,right,0.0,2.958831059993827,,,,,sub-222,1,random_dot,73.20286187144224,
left,left,40.0,0.0,20.0,right,0.0,6.25649367999722,,accuracy,space,16.10435366800084,,,,,,0.0,0.0,0.0,0.0,20.0,0.0,40.0,0.0,365.7577068620012,,,,,,,,,365.7488256050056,366.5479311420058,367.3686945100053,367.3510327880067,367.3515099130018,367.3686945100053,367.3686945100053,367.3686945100053,373.63939308500267,,,,,,,,,372.344692688006,,,,,,,,,,,,,,,,,,,,,,right,0.0,6.25649367999722,,,,,sub-222,1,random_dot,73.20286187144224,
right,right,41.0,1.0,20.0,right,1.0,5.16004511200299,,accuracy,space,16.10435366800084,,,,,,0.0,0.0,0.0,0.0,20.0,1.0,41.0,1.0,373.65194369200617,,,,,,,,,373.6396538540066,373.7393340150011,374.5423179400023,374.528305151005,374.529283681004,374.5423179400023,374.5423179400023,374.5423179400023,379.7145675080028,,,,,,,,,379.5290612330064,,,,,,,,,,,,,,,,,,,,,,right,1.0,5.16004511200299,,,,,sub-222,1,random_dot,73.20286187144224,
left,left,42.0,0.0,21.0,left,1.0,5.359533066999575,,accuracy,space,16.10435366800084,,,,,,0.0,0.0,0.0,0.0,21.0,0.0,42.0,0.0,379.7243622330061,,,,,,,,,379.7153826070062,379.8354342760067,380.6454463250048,380.6353330270067,380.63557102900086,380.6454463250048,380.6454463250048,380.6454463250048,386.0194126570059,,,,,,,,,385.627800758004,,,,,,,,,,,,,,,,,,,,,,left,1.0,5.359533066999575,,,,,sub-222,1,random_dot,73.20286187144224,
right,right,43.0,1.0,21.0,right,1.0,3.714777278997644,,accuracy,space,16.10435366800084,,,,,,0.0,0.0,0.0,0.0,21.0,1.0,43.0,1.0,386.0284970499997,,,,,,,,,386.0198088430043,386.8138463030045,387.6120618220011,387.6023450909997,387.6026791100012,387.6120618220011,387.6120618220011,387.6120618220011,391.3314905460065,,,,,,,,,,,,,,,,,,,,,,,,,,,,,,,right,1.0,3.714777278997644,,,,,sub-222,1,random_dot,73.20286187144224,
left,left,44.0,0.0,22.0,left,1.0,6.276520674000494,,accuracy,space,16.10435366800084,,,,,,0.0,0.0,0.0,0.0,22.0,0.0,44.0,0.0,391.3419139870021,,,,,,,,,391.3323922540003,392.5354920710015,393.3277818020069,393.3187082180011,393.318950285,393.3277818020069,393.3277818020069,393.3277818020069,399.6094706570002,,,,,,,,,398.3201626210066,,,,,,,,,,,,,,,,,,,,,,left,1.0,6.276520674000494,,,,,sub-222,1,random_dot,73.20286187144224,
right,right,45.0,1.0,22.0,right,1.0,3.0527887969947187,,accuracy,space,16.10435366800084,,,,,,0.0,0.0,0.0,0.0,22.0,1.0,45.0,1.0,399.62102689099993,,,,,,,,,399.6098185880037,400.8064036260039,401.6184614070007,401.60049699700176,401.6009654520021,401.6184614070007,401.6184614070007,401.6184614070007,404.6725055410061,,,,,,,,,,,,,,,,,,,,,,,,,,,,,,,right,1.0,3.0527887969947187,,,,,sub-222,1,random_dot,73.20286187144224,
right,right,46.0,0.0,23.0,left,0.0,4.428290121002647,,accuracy,space,16.10435366800084,,,,,,0.0,0.0,0.0,0.0,23.0,0.0,46.0,1.0,404.685511058,,,,,,,,,404.6728125260052,404.7733068710004,405.5835152540021,405.56055486100377,405.5615297910044,405.5835152540021,405.5835152540021,405.5835152540021,410.0159533430051,,,,,,,,,,,,,,,,,,,,,,,,,,,,,,,left,0.0,4.428290121002647,,,,,sub-222,1,random_dot,73.20286187144224,
left,left,47.0,1.0,23.0,left,1.0,3.834018228997593,,accuracy,space,16.10435366800084,,,,,,0.0,0.0,0.0,0.0,23.0,1.0,47.0,0.0,410.025710038004,,,,,,,,,410.0166757860061,410.820682207006,411.6186868280056,411.6040551470069,411.6045278800011,411.6186868280056,411.6186868280056,411.6186868280056,415.46259327100415,,,,,,,,,,,,,,,,,,,,,,,,,,,,,,,left,1.0,3.834018228997593,,,,,sub-222,1,random_dot,73.20286187144224,
left,left,48.0,0.0,24.0,left,1.0,2.710478834997048,,accuracy,space,16.10435366800084,,,,,,0.0,0.0,0.0,0.0,24.0,0.0,48.0,0.0,415.4730935540065,,,,,,,,,415.463153884004,415.8133358500054,416.618463398001,416.6004518720001,416.6009280840008,416.618463398001,416.618463398001,416.618463398001,419.3390841220025,,,,,,,,,,,,,,,,,,,,,,,,,,,,,,,left,1.0,2.710478834997048,,,,,sub-222,1,random_dot,73.20286187144224,
right,right,49.0,1.0,24.0,right,1.0,5.334707032998267,,accuracy,space,16.10435366800084,,,,,,0.0,0.0,0.0,0.0,24.0,1.0,49.0,1.0,419.3494398880066,,,,,,,,,419.3395558750053,420.5370767440036,421.3417695820026,421.3279839810057,421.3289635730034,421.3417695820026,421.3417695820026,421.3417695820026,426.6883575460015,,,,,,,,,426.3347547700032,,,,,,,,,,,,,,,,,,,,,,right,1.0,5.334707032998267,,,,,sub-222,1,random_dot,73.20286187144224,
right,right,50.0,0.0,25.0,right,1.0,2.697640554004465,,accuracy,space,16.10435366800084,,,,,,0.0,0.0,0.0,0.0,25.0,0.0,50.0,1.0,426.6975436930006,,,,,,,,,426.68875100600417,427.0299238530061,427.8349202590034,427.816752658,427.8172239570049,427.8349202590034,427.8349202590034,427.8349202590034,430.5359556350013,,,,,,,,,,,,,,,,,,,,,,,,,,,,,,,right,1.0,2.697640554004465,,,,,sub-222,1,random_dot,73.20286187144224,
left,left,51.0,1.0,25.0,left,1.0,1.709434855998552,,accuracy,space,16.10435366800084,,,,,,0.0,0.0,0.0,0.0,25.0,1.0,51.0,0.0,430.5451112940064,,,,,,,,,430.5363071030006,431.351549854,432.1448081810013,432.135141745006,432.13547293700685,432.1448081810013,432.1448081810013,432.1448081810013,433.8646608210038,,,,,,,,,,,,,,,,,,,,,,,,,,,,,,,left,1.0,1.709434855998552,,,,,sub-222,1,random_dot,73.20286187144224,
left,left,52.0,0.0,26.0,right,0.0,3.385347631003242,,accuracy,space,16.10435366800084,,,,,,0.0,0.0,0.0,0.0,26.0,0.0,52.0,0.0,433.87447050700575,,,,,,,,,433.8649369640043,434.6639922530012,435.46270305900543,435.4517755100024,435.45224081200286,435.46270305900543,435.46270305900543,435.46270305900543,438.85889261800185,,,,,,,,,,,,,,,,,,,,,,,,,,,,,,,right,0.0,3.385347631003242,,,,,sub-222,1,random_dot,73.20286187144224,
right,right,53.0,1.0,26.0,left,0.0,2.7696318779999274,,accuracy,space,16.10435366800084,,,,,,0.0,0.0,0.0,0.0,26.0,1.0,53.0,1.0,438.86782360000507,,,,,,,,,438.8591402950042,439.2099029700039,440.0104923400068,440.0012359850007,440.0014642690003,440.0104923400068,440.0104923400068,440.0104923400068,442.7851688120063,,,,,,,,,,,,,,,,,,,,,,,,,,,,,,,left,0.0,2.7696318779999274,,,,,sub-222,1,random_dot,73.20286187144224,
left,left,54.0,0.0,27.0,left,1.0,3.6109417749976274,,accuracy,space,16.10435366800084,,,,,,0.0,0.0,0.0,0.0,27.0,0.0,54.0,0.0,442.7939576000063,,,,,,,,,442.78558627700113,443.98048694300087,444.7795266520043,444.768119021006,444.7685887700063,444.7795266520043,444.7795266520043,444.7795266520043,448.3960080820034,,,,,,,,,,,,,,,,,,,,,,,,,,,,,,,left,1.0,3.6109417749976274,,,,,sub-222,1,random_dot,73.20286187144224,
right,right,55.0,1.0,27.0,left,0.0,3.626762876003341,,accuracy,space,16.10435366800084,,,,,,0.0,0.0,0.0,0.0,27.0,1.0,55.0,1.0,448.4062811630065,,,,,,,,,448.39639010300016,448.4924882030027,449.3012333660008,449.2832335990024,449.2837066780048,449.3012333660008,449.3012333660008,449.3012333660008,452.9412630350053,,,,,,,,,,,,,,,,,,,,,,,,,,,,,,,left,0.0,3.626762876003341,,,,,sub-222,1,random_dot,73.20286187144224,
left,left,56.0,0.0,28.0,right,0.0,1.1043861889993425,,accuracy,space,16.10435366800084,,,,,,0.0,0.0,0.0,0.0,28.0,0.0,56.0,0.0,452.9530664050035,,,,,,,,,452.9415614600002,453.286419423006,454.0860709620029,454.0726801730052,454.0731813320017,454.0860709620029,454.0860709620029,454.0860709620029,455.1960804370028,,,,,,,,,,,,,,,,,,,,,,,,,,,,,,,right,0.0,1.1043861889993425,,,,,sub-222,1,random_dot,73.20286187144224,
right,right,57.0,1.0,28.0,right,1.0,3.4812071429987554,,accuracy,space,16.10435366800084,,,,,,0.0,0.0,0.0,0.0,28.0,1.0,57.0,1.0,455.2061246240046,,,,,,,,,455.1963686000017,455.54333875300654,456.345324463,456.334686537004,456.3351511100045,456.345324463,456.345324463,456.345324463,459.8314547640039,,,,,,,,,,,,,,,,,,,,,,,,,,,,,,,right,1.0,3.4812071429987554,,,,,sub-222,1,random_dot,73.20286187144224,
left,left,58.0,0.0,29.0,left,1.0,3.123669943001005,,accuracy,space,16.10435366800084,,,,,,0.0,0.0,0.0,0.0,29.0,0.0,58.0,0.0,459.8416233060052,,,,,,,,,459.83217265100393,461.0343388440015,461.85100541600696,461.83304010600114,461.8335136010064,461.85100541600696,461.85100541600696,461.85100541600696,464.9887372869998,,,,,,,,,,,,,,,,,,,,,,,,,,,,,,,left,1.0,3.123669943001005,,,,,sub-222,1,random_dot,73.20286187144224,
right,right,59.0,1.0,29.0,left,0.0,0.8627659499979927,,accuracy,space,16.10435366800084,,,,,,0.0,0.0,0.0,0.0,29.0,1.0,59.0,1.0,464.9986177820029,,,,,,,,,464.9894261870068,465.0927877850045,465.8964552430043,465.8847750460045,465.88523899500433,465.8964552430043,465.8964552430043,465.8964552430043,466.7624345110016,,,,,,,,,,,,,,,,,,,,,,,,,,,,,,,left,0.0,0.8627659499979927,,,,,sub-222,1,random_dot,73.20286187144224,
,,0.0,0.0,0.0,,,,,accuracy,space,16.10435366800084,,,,,,0.0,0.0,0.0,0.0,,,,,,,,,,,,,,,,,,,,,,,,,,,,,,,,,,,,,,,,,,,,,,,,,,,,,,,,,,,,sub-222,1,random_dot,73.20286187144224,
left,left,0.0,0.0,0.0,left,1.0,1.1793195319987717,,speed,space,3.6367013940034663,,,,,,0.0,1.0,1.0,1.0,0.0,0.0,0.0,0.0,470.4441829290008,,,,,,,,,470.43456758200045,470.7761169590012,471.5825883270009,471.5598428750018,471.5608474570036,471.5825883270009,471.5825883270009,471.5825883270009,472.7685969160011,,,,,,,,,,,,,,,,,,,,,,,,466.771741634002,466.781162006002,466.781162006002,470.4288663140032,space,3.6367013940034663,,left,1.0,1.1793195319987717,,,,,sub-222,1,random_dot,73.20286187144224,
right,right,1.0,1.0,0.0,right,1.0,0.9616648410010384,,speed,space,3.6367013940034663,,,,,,0.0,1.0,1.0,1.0,0.0,1.0,1.0,1.0,472.7774243990061,,,,,,,,,472.7688590100006,473.982617226,474.776233179,474.7671600820031,474.76738860400656,474.776233179,474.776233179,474.776233179,475.7448410840007,,,,,,,,,,,,,,,,,,,,,,,,,,,,,,,right,1.0,0.9616648410010384,,,,,sub-222,1,random_dot,73.20286187144224,
right,right,2.0,0.0,1.0,left,0.0,1.130979653004033,,speed,space,3.6367013940034663,,,,,,0.0,1.0,1.0,1.0,1.0,0.0,2.0,1.0,475.7559228590035,,,,,,,,,475.745107229006,476.0925880020004,476.8909021260042,476.87633875300526,476.8775841410024,476.8909021260042,476.8909021260042,476.8909021260042,478.0259456200001,,,,,,,,,,,,,,,,,,,,,,,,,,,,,,,left,0.0,1.130979653004033,,,,,sub-222,1,random_dot,73.20286187144224,
left,left,3.0,1.0,1.0,left,1.0,0.8765960529999575,,speed,space,3.6367013940034663,,,,,,0.0,1.0,1.0,1.0,1.0,1.0,3.0,0.0,478.0347493730005,,,,,,,,,478.0262148930051,478.3751483160013,479.1812850580027,479.1657598260063,479.1660912540028,479.1812850580027,479.1812850580027,479.1812850580027,480.064087357001,,,,,,,,,,,,,,,,,,,,,,,,,,,,,,,left,1.0,0.8765960529999575,,,,,sub-222,1,random_dot,73.20286187144224,
left,left,4.0,0.0,2.0,left,1.0,2.327590674998646,,speed,space,3.6367013940034663,,,,,,0.0,1.0,1.0,1.0,2.0,0.0,4.0,0.0,480.073998646003,,,,,,,,,480.06477326800086,480.1625699360011,480.9840875240043,480.9662238240053,480.9666968720048,480.9840875240043,480.9840875240043,480.9840875240043,483.3183202380024,,,,,,,,,,,,,,,,,,,,,,,,,,,,,,,left,1.0,2.327590674998646,,,,,sub-222,1,random_dot,73.20286187144224,
right,right,5.0,1.0,2.0,right,1.0,2.257187839000835,,speed,space,3.6367013940034663,,,,,,0.0,1.0,1.0,1.0,2.0,1.0,5.0,1.0,483.32689746300457,,,,,,,,,483.3186222850054,484.1173857870017,484.9123780890004,484.9010499230062,484.90151602000697,484.9123780890004,484.9123780890004,484.9123780890004,487.1797569860064,,,,,,,,,,,,,,,,,,,,,,,,,,,,,,,right,1.0,2.257187839000835,,,,,sub-222,1,random_dot,73.20286187144224,
right,right,6.0,0.0,3.0,left,0.0,1.2301700099997106,,speed,space,3.6367013940034663,,,,,,0.0,1.0,1.0,1.0,3.0,0.0,6.0,1.0,487.1896232860017,,,,,,,,,487.180304461006,487.2795332599999,488.1006469460044,488.0826916610022,488.0831630080065,488.1006469460044,488.1006469460044,488.1006469460044,489.3393149860058,,,,,,,,,,,,,,,,,,,,,,,,,,,,,,,left,0.0,1.2301700099997106,,,,,sub-222,1,random_dot,73.20286187144224,
left,left,7.0,1.0,3.0,left,1.0,2.0797565460015903,,speed,space,3.6367013940034663,,,,,,0.0,1.0,1.0,1.0,3.0,1.0,7.0,0.0,489.34861084200384,,,,,,,,,489.3397567460052,490.55075442300586,491.3629351820055,491.3508692370015,491.351330440004,491.3629351820055,491.3629351820055,491.3629351820055,493.45729946900246,,,,,,,,,,,,,,,,,,,,,,,,,,,,,,,left,1.0,2.0797565460015903,,,,,sub-222,1,random_dot,73.20286187144224,
left,left,8.0,0.0,4.0,right,0.0,2.900173891001032,,speed,space,3.6367013940034663,,,,,,0.0,1.0,1.0,1.0,4.0,0.0,8.0,0.0,493.4677699560052,,,,,,,,,493.45783151700016,494.6594313000023,495.4673669630065,495.4493951270051,495.4498650780006,495.4673669630065,495.4673669630065,495.4673669630065,498.3724421330044,,,,,,,,,,,,,,,,,,,,,,,,,,,,,,,right,0.0,2.900173891001032,,,,,sub-222,1,random_dot,73.20286187144224,
right,right,9.0,1.0,4.0,left,0.0,1.9140312500021537,,speed,space,3.6367013940034663,,,,,,0.0,1.0,1.0,1.0,4.0,1.0,9.0,1.0,498.3836598770067,,,,,,,,,498.37293008100096,499.1691712760002,499.9637193450035,499.9524333000009,499.9537729570002,499.9637193450035,499.9637193450035,499.9637193450035,501.88329678100126,,,,,,,,,,,,,,,,,,,,,,,,,,,,,,,left,0.0,1.9140312500021537,,,,,sub-222,1,random_dot,73.20286187144224,
left,left,10.0,0.0,5.0,right,0.0,3.885771807996207,,speed,space,3.6367013940034663,,,,,,0.0,1.0,1.0,1.0,5.0,0.0,10.0,0.0,501.8916711250058,,,,,,,,,501.8836775860036,503.0794547530022,503.8784130960048,503.8672010720038,503.8676343910047,503.8784130960048,503.8784130960048,503.8784130960048,507.7719532170013,,,,,,,,,,,,,,,,,,,,,,,,,,,,,,,right,0.0,3.885771807996207,,,,,sub-222,1,random_dot,73.20286187144224,
right,right,11.0,1.0,5.0,right,1.0,1.6493925699978718,,speed,space,3.6367013940034663,,,,,,0.0,1.0,1.0,1.0,5.0,1.0,11.0,1.0,507.7816745320015,,,,,,,,,507.7723779120061,508.5685638050054,509.3773543550051,509.3670078030045,509.3672772130012,509.3773543550051,509.3773543550051,509.3773543550051,511.0344600660028,,,,,,,,,,,,,,,,,,,,,,,,,,,,,,,right,1.0,1.6493925699978718,,,,,sub-222,1,random_dot,73.20286187144224,
right,right,12.0,0.0,6.0,left,0.0,5.372012271000131,,speed,space,3.6367013940034663,,,,,,0.0,1.0,1.0,1.0,6.0,0.0,12.0,1.0,511.0445111860026,,,,,,,,,511.0351507940068,512.2289839050063,513.0336973510057,513.0157524710012,513.0162269820066,513.0336973510057,513.0336973510057,513.0336973510057,518.4094917900002,,,,,,,,,518.0151271890063,,,,,,,,,,,,,,,,,,,,,,left,0.0,5.372012271000131,,,,,sub-222,1,random_dot,73.20286187144224,
left,left,13.0,1.0,6.0,left,1.0,1.4494890670030145,,speed,space,3.6367013940034663,,,,,,0.0,1.0,1.0,1.0,6.0,1.0,13.0,0.0,518.4181382730021,,,,,,,,,518.4098424950062,518.7668289330031,519.5836793120034,519.5655863930006,519.5660609260012,519.5836793120034,519.5836793120034,519.5836793120034,521.0379224030039,,,,,,,,,,,,,,,,,,,,,,,,,,,,,,,left,1.0,1.4494890670030145,,,,,sub-222,1,random_dot,73.20286187144224,
left,left,14.0,0.0,7.0,right,0.0,1.3361623020027764,,speed,space,3.6367013940034663,,,,,,0.0,1.0,1.0,1.0,7.0,0.0,14.0,0.0,521.047517443003,,,,,,,,,521.0384061250006,522.2354214470033,523.0308472410034,523.0196018320057,523.0206835589997,523.0308472410034,523.0308472410034,523.0308472410034,524.3707986030058,,,,,,,,,,,,,,,,,,,,,,,,,,,,,,,right,0.0,1.3361623020027764,,,,,sub-222,1,random_dot,73.20286187144224,
right,right,15.0,1.0,7.0,left,0.0,2.976444810999965,,speed,space,3.6367013940034663,,,,,,0.0,1.0,1.0,1.0,7.0,1.0,15.0,1.0,524.3794712620002,,,,,,,,,524.3713178720063,524.7228948560005,525.5274739530068,525.5169040330002,525.5173657940031,525.5274739530068,525.5274739530068,525.5274739530068,528.5162129510063,,,,,,,,,,,,,,,,,,,,,,,,,,,,,,,left,0.0,2.976444810999965,,,,,sub-222,1,random_dot,73.20286187144224,
right,right,16.0,0.0,8.0,left,0.0,0.8076792680003564,,speed,space,3.6367013940034663,,,,,,0.0,1.0,1.0,1.0,8.0,0.0,16.0,1.0,528.53345119,,,,,,,,,528.5164694910054,528.6129624670066,529.4068400670003,529.3963318360038,529.3971764070011,529.4068400670003,529.4068400670003,529.4068400670003,530.2200371320068,,,,,,,,,,,,,,,,,,,,,,,,,,,,,,,left,0.0,0.8076792680003564,,,,,sub-222,1,random_dot,73.20286187144224,
left,left,17.0,1.0,8.0,left,1.0,1.0393659090041183,,speed,space,3.6367013940034663,,,,,,0.0,1.0,1.0,1.0,8.0,1.0,17.0,0.0,530.233132211004,,,,,,,,,530.2202907190003,531.018550834,531.8181972470047,531.8065275030021,531.8075325200043,531.8181972470047,531.8181972470047,531.8181972470047,532.8619432570049,,,,,,,,,,,,,,,,,,,,,,,,,,,,,,,left,1.0,1.0393659090041183,,,,,sub-222,1,random_dot,73.20286187144224,
right,right,18.0,0.0,9.0,right,1.0,1.505983570998069,,speed,space,3.6367013940034663,,,,,,0.0,1.0,1.0,1.0,9.0,0.0,18.0,1.0,532.8719996830041,,,,,,,,,532.8622093480008,532.9583263810055,533.760504195001,533.7503596710012,533.7506887780037,533.760504195001,533.760504195001,533.760504195001,535.2789281020014,,,,,,,,,,,,,,,,,,,,,,,,,,,,,,,right,1.0,1.505983570998069,,,,,sub-222,1,random_dot,73.20286187144224,
left,left,19.0,1.0,9.0,right,0.0,1.3549838999970234,,speed,space,3.6367013940034663,,,,,,0.0,1.0,1.0,1.0,9.0,1.0,19.0,0.0,535.2889919890004,,,,,,,,,535.2794083560002,535.383543132004,536.1835993900022,536.1718743250021,536.1721232920027,536.1835993900022,536.1835993900022,536.1835993900022,537.5506063300054,,,,,,,,,,,,,,,,,,,,,,,,,,,,,,,right,0.0,1.3549838999970234,,,,,sub-222,1,random_dot,73.20286187144224,
right,right,20.0,0.0,10.0,right,1.0,1.1207250549996388,,speed,space,3.6367013940034663,,,,,,0.0,1.0,1.0,1.0,10.0,0.0,20.0,1.0,537.5591254200044,,,,,,,,,537.550902327006,538.3451980200043,539.1474412280004,539.1357168110044,539.1372125660055,539.1474412280004,539.1474412280004,539.1474412280004,540.2829954740009,,,,,,,,,,,,,,,,,,,,,,,,,,,,,,,right,1.0,1.1207250549996388,,,,,sub-222,1,random_dot,73.20286187144224,
left,left,21.0,1.0,10.0,left,1.0,1.2938826710014837,,speed,space,3.6367013940034663,,,,,,0.0,1.0,1.0,1.0,10.0,1.0,21.0,0.0,540.2921087310024,,,,,,,,,540.2833538320047,540.3844751780052,541.1834779580022,541.1687481170011,541.1692228220054,541.1834779580022,541.1834779580022,541.1834779580022,542.4910992570003,,,,,,,,,,,,,,,,,,,,,,,,,,,,,,,left,1.0,1.2938826710014837,,,,,sub-222,1,random_dot,73.20286187144224,
right,right,22.0,0.0,11.0,right,1.0,2.355832728993846,,speed,space,3.6367013940034663,,,,,,0.0,1.0,1.0,1.0,11.0,0.0,22.0,1.0,542.5149232050026,,,,,,,,,542.4916322070058,543.2910942330054,544.0899648710038,544.0760272550033,544.077043325,544.0899648710038,544.0899648710038,544.0899648710038,546.4532940280042,,,,,,,,,,,,,,,,,,,,,,,,,,,,,,,right,1.0,2.355832728993846,,,,,sub-222,1,random_dot,73.20286187144224,
left,left,23.0,1.0,11.0,right,0.0,1.5953909300005762,,speed,space,3.6367013940034663,,,,,,0.0,1.0,1.0,1.0,11.0,1.0,23.0,0.0,546.4663732210029,,,,,,,,,546.4537231710055,547.2649532060022,548.0638478890032,548.0525933010067,548.0538634350014,548.0638478890032,548.0638478890032,548.0638478890032,549.6674842370048,,,,,,,,,,,,,,,,,,,,,,,,,,,,,,,right,0.0,1.5953909300005762,,,,,sub-222,1,random_dot,73.20286187144224,
left,left,24.0,0.0,12.0,left,1.0,3.5076843580027344,,speed,space,3.6367013940034663,,,,,,0.0,1.0,1.0,1.0,12.0,0.0,24.0,0.0,549.6762122260043,,,,,,,,,549.667736317002,550.8588783090017,551.6584505920036,551.6493974570039,551.649639123003,551.6584505920036,551.6584505920036,551.6584505920036,555.1711676780033,,,,,,,,,,,,,,,,,,,,,,,,,,,,,,,left,1.0,3.5076843580027344,,,,,sub-222,1,random_dot,73.20286187144224,
right,right,25.0,1.0,12.0,right,1.0,1.3399807790046907,,speed,space,3.6367013940034663,,,,,,0.0,1.0,1.0,1.0,12.0,1.0,25.0,1.0,555.1832438840065,,,,,,,,,555.1714918840007,555.2628925840036,556.0685707850062,556.0549039580001,556.0553777130044,556.0685707850062,556.0685707850062,556.0685707850062,557.4169667650058,,,,,,,,,,,,,,,,,,,,,,,,,,,,,,,right,1.0,1.3399807790046907,,,,,sub-222,1,random_dot,73.20286187144224,
left,left,26.0,0.0,13.0,right,0.0,1.5000048160000006,,speed,space,3.6367013940034663,,,,,,0.0,1.0,1.0,1.0,13.0,0.0,26.0,0.0,557.425916238004,,,,,,,,,557.4172773960017,557.516556335002,558.3187689980041,558.3051165390061,558.305588949006,558.3187689980041,558.3187689980041,558.3187689980041,559.824926334004,,,,,,,,,,,,,,,,,,,,,,,,,,,,,,,right,0.0,1.5000048160000006,,,,,sub-222,1,random_dot,73.20286187144224,
right,right,27.0,1.0,13.0,right,1.0,3.0039692479986115,,speed,space,3.6367013940034663,,,,,,0.0,1.0,1.0,1.0,13.0,1.0,27.0,1.0,559.8337587790011,,,,,,,,,559.8251875290007,560.6217733320009,561.417321273002,561.4070991700064,561.4073830680063,561.417321273002,561.417321273002,561.417321273002,564.4243111360047,,,,,,,,,,,,,,,,,,,,,,,,,,,,,,,right,1.0,3.0039692479986115,,,,,sub-222,1,random_dot,73.20286187144224,
right,right,28.0,0.0,14.0,left,0.0,2.622099072999845,,speed,space,3.6367013940034663,,,,,,0.0,1.0,1.0,1.0,14.0,0.0,28.0,1.0,564.4324417030002,,,,,,,,,564.4246301830062,565.2249554000009,566.0273816920017,566.0168262200023,566.0172895350042,566.0273816920017,566.0273816920017,566.0273816920017,568.6572890710013,,,,,,,,,,,,,,,,,,,,,,,,,,,,,,,left,0.0,2.622099072999845,,,,,sub-222,1,random_dot,73.20286187144224,
left,left,29.0,1.0,14.0,left,1.0,1.3659446930032573,,speed,space,3.6367013940034663,,,,,,0.0,1.0,1.0,1.0,14.0,1.0,29.0,0.0,568.6670614100003,,,,,,,,,568.6576864250019,568.7662551280009,569.5828093580058,569.5650809120052,569.5656489060057,569.5828093580058,569.5828093580058,569.5828093580058,570.9604805970012,,,,,,,,,,,,,,,,,,,,,,,,,,,,,,,left,1.0,1.3659446930032573,,,,,sub-222,1,random_dot,73.20286187144224,
left,left,30.0,0.0,15.0,right,0.0,2.0616762489953544,,speed,space,3.6367013940034663,,,,,,0.0,1.0,1.0,1.0,15.0,0.0,30.0,0.0,570.9706824390014,,,,,,,,,570.9609235860044,571.7576889600023,572.5593285260038,572.5499614220025,572.5502345340064,572.5593285260038,572.5593285260038,572.5593285260038,574.6231734750036,,,,,,,,,,,,,,,,,,,,,,,,,,,,,,,right,0.0,2.0616762489953544,,,,,sub-222,1,random_dot,73.20286187144224,
right,right,31.0,1.0,15.0,right,1.0,4.046348361000128,,speed,space,3.6367013940034663,,,,,,0.0,1.0,1.0,1.0,15.0,1.0,31.0,1.0,574.6344825220003,,,,,,,,,574.623508333003,574.7238791039999,575.5268322789998,575.516387085001,575.5168466090036,575.5268322789998,575.5268322789998,575.5268322789998,579.5828815630011,,,,,,,,,,,,,,,,,,,,,,,,,,,,,,,right,1.0,4.046348361000128,,,,,sub-222,1,random_dot,73.20286187144224,
left,left,32.0,0.0,16.0,left,1.0,1.5537667450043957,,speed,space,3.6367013940034663,,,,,,0.0,1.0,1.0,1.0,16.0,0.0,32.0,0.0,579.592355053006,,,,,,,,,579.5834489250046,580.7765280130043,581.5747151230025,581.5625355960001,581.5638453770007,581.5747151230025,581.5747151230025,581.5747151230025,583.1403399750052,,,,,,,,,,,,,,,,,,,,,,,,,,,,,,,left,1.0,1.5537667450043957,,,,,sub-222,1,random_dot,73.20286187144224,
right,right,33.0,1.0,16.0,right,1.0,0.830582078997395,,speed,space,3.6367013940034663,,,,,,0.0,1.0,1.0,1.0,16.0,1.0,33.0,1.0,583.1518311140026,,,,,,,,,583.1406317340006,583.498015644007,584.2932946510045,584.2828027270007,584.2832716360062,584.2932946510045,584.2932946510045,584.2932946510045,585.1334235140021,,,,,,,,,,,,,,,,,,,,,,,,,,,,,,,right,1.0,0.830582078997395,,,,,sub-222,1,random_dot,73.20286187144224,
left,left,34.0,0.0,17.0,left,1.0,1.215032574997167,,speed,space,3.6367013940034663,,,,,,0.0,1.0,1.0,1.0,17.0,0.0,34.0,0.0,585.1419571530059,,,,,,,,,585.1336809320055,585.4742187570009,586.2826655190001,586.2690349170007,586.2695102020007,586.2826655190001,586.2826655190001,586.2826655190001,587.5109560760029,,,,,,,,,,,,,,,,,,,,,,,,,,,,,,,left,1.0,1.215032574997167,,,,,sub-222,1,random_dot,73.20286187144224,
right,right,35.0,1.0,17.0,right,1.0,4.624030576000223,,speed,space,3.6367013940034663,,,,,,0.0,1.0,1.0,1.0,17.0,1.0,35.0,1.0,587.521110051006,,,,,,,,,587.5112809250058,588.3112629970055,589.1323425190058,589.1147597460003,589.1152292010011,589.1323425190058,589.1323425190058,589.1323425190058,593.7706393790068,,,,,,,,,,,,,,,,,,,,,,,,,,,,,,,right,1.0,4.624030576000223,,,,,sub-222,1,random_dot,73.20286187144224,
right,right,36.0,0.0,18.0,right,1.0,2.189649769003154,,speed,space,3.6367013940034663,,,,,,0.0,1.0,1.0,1.0,18.0,0.0,36.0,1.0,593.7804450660042,,,,,,,,,593.7710758450048,594.5682338100014,595.3719624180012,595.3582428330046,595.3591006800052,595.3719624180012,595.3719624180012,595.3719624180012,597.5670671800035,,,,,,,,,,,,,,,,,,,,,,,,,,,,,,,right,1.0,2.189649769003154,,,,,sub-222,1,random_dot,73.20286187144224,
left,left,37.0,1.0,18.0,right,0.0,2.1487170820037136,,speed,space,3.6367013940034663,,,,,,0.0,1.0,1.0,1.0,18.0,1.0,37.0,0.0,597.5755740550012,,,,,,,,,597.567324898002,597.6658781850056,598.4658584400022,598.4528617310061,598.4531985540016,598.4658584400022,598.4658584400022,598.4658584400022,600.619572484,,,,,,,,,,,,,,,,,,,,,,,,,,,,,,,right,0.0,2.1487170820037136,,,,,sub-222,1,random_dot,73.20286187144224,
right,right,38.0,0.0,19.0,right,1.0,5.158019305999915,,speed,space,3.6367013940034663,,,,,,0.0,1.0,1.0,1.0,19.0,0.0,38.0,1.0,600.6322548370008,,,,,,,,,600.6199360870014,600.7176016230005,601.5167455400006,601.5043179090062,601.5045951540014,601.5167455400006,601.5167455400006,601.5167455400006,606.6847038720007,,,,,,,,,606.5075465310001,,,,,,,,,,,,,,,,,,,,,,right,1.0,5.158019305999915,,,,,sub-222,1,random_dot,73.20286187144224,
left,left,39.0,1.0,19.0,left,1.0,0.9418338329996914,,speed,space,3.6367013940034663,,,,,,0.0,1.0,1.0,1.0,19.0,1.0,39.0,0.0,606.6937983810058,,,,,,,,,606.6852095740032,607.8848072010005,608.6989842700059,608.6812112220068,608.6816834650017,608.6989842700059,608.6989842700059,608.6989842700059,609.6531425650028,,,,,,,,,,,,,,,,,,,,,,,,,,,,,,,left,1.0,0.9418338329996914,,,,,sub-222,1,random_dot,73.20286187144224,
right,right,40.0,0.0,20.0,right,1.0,2.778868929999589,,speed,space,3.6367013940034663,,,,,,0.0,1.0,1.0,1.0,20.0,0.0,40.0,1.0,609.6652737720069,,,,,,,,,609.6533960310044,610.8576594330007,611.6656278280061,611.6476560160008,611.6481271960001,611.6656278280061,611.6656278280061,611.6656278280061,614.4591807530014,,,,,,,,,,,,,,,,,,,,,,,,,,,,,,,right,1.0,2.778868929999589,,,,,sub-222,1,random_dot,73.20286187144224,
left,left,41.0,1.0,20.0,left,1.0,2.482435390003957,,speed,space,3.6367013940034663,,,,,,0.0,1.0,1.0,1.0,20.0,1.0,41.0,0.0,614.4712101260011,,,,,,,,,614.4597401880019,615.256499728006,616.0656328230034,616.0478443960019,616.048318222005,616.0656328230034,616.0656328230034,616.0656328230034,618.5565442430016,,,,,,,,,,,,,,,,,,,,,,,,,,,,,,,left,1.0,2.482435390003957,,,,,sub-222,1,random_dot,73.20286187144224,
left,left,42.0,0.0,21.0,left,1.0,1.960540263004077,,speed,space,3.6367013940034663,,,,,,0.0,1.0,1.0,1.0,21.0,0.0,42.0,0.0,618.5659165270044,,,,,,,,,618.5569273100045,619.353182937004,620.1595921930057,620.1491191400055,620.1495844770034,620.1595921930057,620.1595921930057,620.1595921930057,622.1322328800015,,,,,,,,,,,,,,,,,,,,,,,,,,,,,,,left,1.0,1.960540263004077,,,,,sub-222,1,random_dot,73.20286187144224,
right,right,43.0,1.0,21.0,right,1.0,1.708863911997469,,speed,space,3.6367013940034663,,,,,,0.0,1.0,1.0,1.0,21.0,1.0,43.0,1.0,622.1414927140067,,,,,,,,,622.1327441419999,622.478448449001,623.2763102260069,623.2658957060048,623.266357061002,623.2763102260069,623.2763102260069,623.2763102260069,624.9894695280018,,,,,,,,,,,,,,,,,,,,,,,,,,,,,,,right,1.0,1.708863911997469,,,,,sub-222,1,random_dot,73.20286187144224,
right,right,44.0,0.0,22.0,right,1.0,2.2590183630018146,,speed,space,3.6367013940034663,,,,,,0.0,1.0,1.0,1.0,22.0,0.0,44.0,1.0,624.9988609230059,,,,,,,,,624.9898391349998,626.1910080280068,626.9988209750009,626.9808028150001,626.9812863640036,626.9988209750009,626.9988209750009,626.9988209750009,629.2617137770067,,,,,,,,,,,,,,,,,,,,,,,,,,,,,,,right,1.0,2.2590183630018146,,,,,sub-222,1,random_dot,73.20286187144224,
left,left,45.0,1.0,22.0,right,0.0,1.204702554001415,,speed,space,3.6367013940034663,,,,,,0.0,1.0,1.0,1.0,22.0,1.0,45.0,0.0,629.2710444760014,,,,,,,,,629.2623023240012,629.3572321860047,630.1654219500051,630.1505859150056,630.1510584839998,630.1654219500051,630.1654219500051,630.1654219500051,631.3773249320002,,,,,,,,,,,,,,,,,,,,,,,,,,,,,,,right,0.0,1.204702554001415,,,,,sub-222,1,random_dot,73.20286187144224,
left,left,46.0,0.0,23.0,left,1.0,0.8919207650033059,,speed,space,3.6367013940034663,,,,,,0.0,1.0,1.0,1.0,23.0,0.0,46.0,0.0,631.3875314860052,,,,,,,,,631.3777658920008,632.5783577890033,633.3760172260008,633.3655539020037,633.3660232160037,633.3760172260008,633.3760172260008,633.3760172260008,634.2727679100062,,,,,,,,,,,,,,,,,,,,,,,,,,,,,,,left,1.0,0.8919207650033059,,,,,sub-222,1,random_dot,73.20286187144224,
right,right,47.0,1.0,23.0,right,1.0,1.6603624769995804,,speed,space,3.6367013940034663,,,,,,0.0,1.0,1.0,1.0,23.0,1.0,47.0,1.0,634.2847360880041,,,,,,,,,634.2730295330039,634.3739996500008,635.1723607490057,635.1618382260058,635.1627512490013,635.1723607490057,635.1723607490057,635.1723607490057,636.8442771370028,,,,,,,,,,,,,,,,,,,,,,,,,,,,,,,right,1.0,1.6603624769995804,,,,,sub-222,1,random_dot,73.20286187144224,
right,right,48.0,0.0,24.0,right,1.0,1.1113488359987969,,speed,space,3.6367013940034663,,,,,,0.0,1.0,1.0,1.0,24.0,0.0,48.0,1.0,636.8541166630021,,,,,,,,,636.8447302350032,636.9486979590001,637.758228509003,637.7487309960052,637.7490584000043,637.758228509003,637.758228509003,637.758228509003,638.8820897800033,,,,,,,,,,,,,,,,,,,,,,,,,,,,,,,right,1.0,1.1113488359987969,,,,,sub-222,1,random_dot,73.20286187144224,
left,left,49.0,1.0,24.0,left,1.0,1.4101644249967649,,speed,space,3.6367013940034663,,,,,,0.0,1.0,1.0,1.0,24.0,1.0,49.0,0.0,638.8912375640066,,,,,,,,,638.8825957940062,639.6821067240016,640.4972666760004,640.4735471200038,640.4740262800042,640.4972666760004,640.4972666760004,640.4972666760004,641.9117947710038,,,,,,,,,,,,,,,,,,,,,,,,,,,,,,,left,1.0,1.4101644249967649,,,,,sub-222,1,random_dot,73.20286187144224,
left,left,50.0,0.0,25.0,left,1.0,1.0037564040030702,,speed,space,3.6367013940034663,,,,,,0.0,1.0,1.0,1.0,25.0,0.0,50.0,0.0,641.9229665710009,,,,,,,,,641.9127033480036,642.2570395160001,643.0547035950003,643.0419311229998,643.0424028900015,643.0547035950003,643.0547035950003,643.0547035950003,644.0615802290049,,,,,,,,,,,,,,,,,,,,,,,,,,,,,,,left,1.0,1.0037564040030702,,,,,sub-222,1,random_dot,73.20286187144224,
right,right,51.0,1.0,25.0,right,1.0,0.7946637730055954,,speed,space,3.6367013940034663,,,,,,0.0,1.0,1.0,1.0,25.0,1.0,51.0,1.0,644.0717688250006,,,,,,,,,644.0619196940024,644.156195896001,644.9585349230038,644.9492439100068,644.949643316002,644.9585349230038,644.9585349230038,644.9585349230038,645.7570900880019,,,,,,,,,,,,,,,,,,,,,,,,,,,,,,,right,1.0,0.7946637730055954,,,,,sub-222,1,random_dot,73.20286187144224,
left,left,52.0,0.0,26.0,left,1.0,2.255026369006373,,speed,space,3.6367013940034663,,,,,,0.0,1.0,1.0,1.0,26.0,0.0,52.0,0.0,645.7656103440022,,,,,,,,,645.7573756020065,646.1074233230029,646.9092464330024,646.8988096270041,646.8992708700025,646.9092464330024,646.9092464330024,646.9092464330024,649.1766876190013,,,,,,,,,,,,,,,,,,,,,,,,,,,,,,,left,1.0,2.255026369006373,,,,,sub-222,1,random_dot,73.20286187144224,
right,right,53.0,1.0,26.0,right,1.0,1.1887207550025778,,speed,space,3.6367013940034663,,,,,,0.0,1.0,1.0,1.0,26.0,1.0,53.0,1.0,649.1864872420047,,,,,,,,,649.1769889100033,649.5211777800068,650.3218335330021,650.3082687720016,650.308743046,650.3218335330021,650.3218335330021,650.3218335330021,651.5163159580043,,,,,,,,,,,,,,,,,,,,,,,,,,,,,,,right,1.0,1.1887207550025778,,,,,sub-222,1,random_dot,73.20286187144224,
right,right,54.0,0.0,27.0,right,1.0,2.051389011001447,,speed,space,3.6367013940034663,,,,,,0.0,1.0,1.0,1.0,27.0,0.0,54.0,1.0,651.525374031,,,,,,,,,651.5166919790063,652.3148515280045,653.1147294640032,653.1013855160054,653.1016347850018,653.1147294640032,653.1147294640032,653.1147294640032,655.1682567270036,,,,,,,,,,,,,,,,,,,,,,,,,,,,,,,right,1.0,2.051389011001447,,,,,sub-222,1,random_dot,73.20286187144224,
left,left,55.0,1.0,27.0,left,1.0,5.04194712699973,,speed,space,3.6367013940034663,,,,,,0.0,1.0,1.0,1.0,27.0,1.0,55.0,0.0,655.1818209810008,,,,,,,,,655.1685754260034,656.3678026680063,657.1796454249998,657.1569038770031,657.1579073390021,657.1796454249998,657.1796454249998,657.1796454249998,662.2266370790021,,,,,,,,,662.1650778870026,,,,,,,,,,,,,,,,,,,,,,left,1.0,5.04194712699973,,,,,sub-222,1,random_dot,73.20286187144224,
left,left,56.0,0.0,28.0,left,1.0,5.275809888997173,,speed,space,3.6367013940034663,,,,,,0.0,1.0,1.0,1.0,28.0,0.0,56.0,0.0,662.2372933270017,,,,,,,,,662.2269351590003,662.3313688170019,663.1254836080043,663.1151632500041,663.1156062890004,663.1254836080043,663.1254836080043,663.1254836080043,668.4154295960034,,,,,,,,,668.1147708040007,,,,,,,,,,,,,,,,,,,,,,left,1.0,5.275809888997173,,,,,sub-222,1,random_dot,73.20286187144224,
right,right,57.0,1.0,28.0,left,0.0,3.3960226779963705,,speed,space,3.6367013940034663,,,,,,0.0,1.0,1.0,1.0,28.0,1.0,57.0,1.0,668.4240613770016,,,,,,,,,668.4157374090064,668.5182441400029,669.3208040840036,669.3084615080006,669.3095834560008,669.3208040840036,669.3208040840036,669.3208040840036,672.7252274370039,,,,,,,,,,,,,,,,,,,,,,,,,,,,,,,left,0.0,3.3960226779963705,,,,,sub-222,1,random_dot,73.20286187144224,
left,left,58.0,0.0,29.0,right,0.0,0.8495397019942175,,speed,space,3.6367013940034663,,,,,,0.0,1.0,1.0,1.0,29.0,0.0,58.0,0.0,672.7369945590035,,,,,,,,,672.7254935590026,673.0771343720044,673.8716592870041,673.8609745050053,673.861318356001,673.8716592870041,673.8716592870041,673.8716592870041,674.7247455000033,,,,,,,,,,,,,,,,,,,,,,,,,,,,,,,right,0.0,0.8495397019942175,,,,,sub-222,1,random_dot,73.20286187144224,
right,right,59.0,1.0,29.0,right,1.0,1.0356681949997435,,speed,space,3.6367013940034663,,,,,,0.0,1.0,1.0,1.0,29.0,1.0,59.0,1.0,674.7334913720042,,,,,,,,,674.725055368006,674.8213851220062,675.6313140730053,675.6170783000052,675.6174163340038,675.6313140730053,675.6313140730053,675.6313140730053,676.6741830860046,,,,,,,,,,,,,,,,,,,,,,,,,,,,,,,right,1.0,1.0356681949997435,,,,,sub-222,1,random_dot,73.20286187144224,
,,1.0,1.0,0.0,,,,,speed,space,3.6367013940034663,,,,,,0.0,1.0,1.0,1.0,,,,,,,,,,,,,,,,,,,,,,,,,,,,,,,,,,,,,,,,,,,,,,,,,,,,,,,,,,,,sub-222,1,random_dot,73.20286187144224,
,,,,,,,,,,,,,,,,,,,,,,,,,,,,,,,,,,,,,,,,,,,,,,,,,,,,,,,,,,,,,,,,,,,,,,,,,,,,,676.678607945003,676.6887366310038,681.677788757006,sub-222,1,random_dot,73.20286187144224,
