direction,corrAns,thisN,thisTrialN,thisRepN,respDots.keys,respDots.corr,respDots.rt,respDots.duration,randomInstr,respRandomInstr.keys,respRandomInstr.rt,respRandomInstr.duration,practice_trials.thisRepN,practice_trials.thisTrialN,practice_trials.thisN,practice_trials.thisIndex,instr_trials.thisRepN,instr_trials.thisTrialN,instr_trials.thisN,instr_trials.thisIndex,test_trials.thisRepN,test_trials.thisTrialN,test_trials.thisN,test_trials.thisIndex,thisRow.t,notes,general_instruction.started,textGeneralInstr.started,respGeneralInstr.started,general_instruction.stopped,respGeneralInstr.keys,respGeneralInstr.rt,respGeneralInstr.duration,ITI.started,fixcross.started,fixcross.stopped,ITI.stopped,dots.started,backgroundDots.started,stimulusDots.started,respDots.started,dots.stopped,practice_trials.respDots.keys,practice_trials.respDots.corr,practice_trials.respDots.rt,practice_trials.respDots.duration,feedback.started,textFeedback.started,textFeedback.stopped,feedback.stopped,info.started,textInfo.started,keyRespInfo.started,info.stopped,keyRespInfo.keys,keyRespInfo.rt,keyRespInfo.duration,test_instruction.started,textTestInstr.started,respTestInstr.started,test_instruction.stopped,respTestInstr.keys,respTestInstr.rt,respTestInstr.duration,random_instruction.started,textRandomInstr.started,respRandomInstr.started,random_instruction.stopped,instr_trials.respRandomInstr.keys,instr_trials.respRandomInstr.rt,instr_trials.respRandomInstr.duration,test_trials.respDots.keys,test_trials.respDots.corr,test_trials.respDots.rt,test_trials.respDots.duration,stimulusDots.stopped,goodbye.started,textGoodbye.started,goodbye.stopped,participant,session,expName,frameRate,Unnamed: 87
,,,,,,,,,,,,,,,,,,,,,,,,,,,0.0026196000108029,0.0136780999891925,0.0136780999891925,29.28241449999041,space,29.254415100003826,,,,,,,,,,,,,,,,,,,,,,,,,,,,,,,,,,,,,,,,,,,,,,,,sub-208,1,random_dot,60.09817637988829,
left,left,0.0,0.0,0.0,right,0.0,3.7559475999732967,,,,,,0.0,0.0,0.0,0.0,,,,,,,,,29.30122950000805,,,,,,,,,29.29775850000442,29.64417020001565,30.461149000009755,30.443240399996284,30.44350080000004,30.461149000009755,30.461149000009755,30.461149000009755,34.22320999999647,right,0.0,3.7559475999732967,,34.23036640000646,34.2380083000171,34.73741349999909,34.7208726000099,,,,,,,,,,,,,,,,,,,,,,,,,,,,,,sub-208,1,random_dot,60.09817637988829,
right,right,1.0,1.0,0.0,left,0.0,0.8385905000031926,,,,,,0.0,1.0,1.0,1.0,,,,,,,,,34.73741349999909,,,,,,,,,34.72106770001119,35.935860800003866,36.75289279999561,36.735039599996526,36.73530140001094,36.75289279999561,36.75289279999561,36.75289279999561,37.60207550000632,left,0.0,0.8385905000031926,,37.60216070001479,37.61698089999845,38.11627870000666,38.09978859999683,,,,,,,,,,,,,,,,,,,,,,,,,,,,,,sub-208,1,random_dot,60.09817637988829,
left,left,2.0,0.0,1.0,left,1.0,4.555568400013726,,,,,,1.0,0.0,2.0,0.0,,,,,,,,,38.11627870000666,,,,,,,,,38.09999799999059,38.21610960000544,39.0331382000004,39.01533439999912,39.01560700000846,39.0331382000004,39.0331382000004,39.0331382000004,43.59413899999345,left,1.0,4.555568400013726,,43.59931419999339,43.60893210000359,44.10833760001697,44.091935700009344,,,,,,,,,,,,,,,,,,,,,,,,,,,,,,sub-208,1,random_dot,60.09817637988829,
right,right,3.0,1.0,1.0,right,1.0,2.3334565999975894,,,,,,1.0,1.0,3.0,1.0,,,,,,,,,44.10833760001697,,,,,,,,,44.092153000005055,44.90737070000614,45.70766859999276,45.68997390000732,45.69021130001056,45.70766859999276,45.70766859999276,45.70766859999276,48.05499370000325,right,1.0,2.3334565999975894,,48.05507570001646,48.069810499990126,48.56908250000561,48.55280360000325,,,,,,,,,,,,,,,,,,,,,,,,,,,,,,sub-208,1,random_dot,60.09817637988829,
left,left,4.0,0.0,2.0,left,1.0,1.689172599988524,,,,,,2.0,0.0,4.0,0.0,,,,,,,,,48.56908250000561,,,,,,,,,48.55302940000547,48.66895210000803,49.4694403000176,49.451499299990246,49.45176530000754,49.4694403000176,49.4694403000176,49.4694403000176,51.16740380000556,left,1.0,1.689172599988524,,51.16748120001285,51.18235119999736,51.68163910001749,51.66529420000734,,,,,,,,,,,,,,,,,,,,,,,,,,,,,,sub-208,1,random_dot,60.09817637988829,
right,right,5.0,1.0,2.0,right,1.0,1.2111702999973204,,,,,,2.0,1.0,5.0,1.0,,,,,,,,,51.68163910001749,,,,,,,,,51.665531200007536,52.48055850001401,53.28096249999362,53.26315919999615,53.26345070000389,53.28096249999362,53.28096249999362,53.28096249999362,54.49635810000473,right,1.0,1.2111702999973204,,54.49644710001303,54.51130750001175,55.01054730001488,54.99417960000574,,,,,,,,,,,,,,,,,,,,,,,,,,,,,,sub-208,1,random_dot,60.09817637988829,
left,left,6.0,0.0,3.0,left,1.0,0.9187741999921856,,,,,,3.0,0.0,6.0,0.0,,,,,,,,,55.01054730001488,,,,,,,,,54.9944066000171,55.36011559999315,56.17710239998996,56.159317500016186,56.15958949999185,56.17710239998996,56.17710239998996,56.17710239998996,57.109513800009154,left,1.0,0.9187741999921856,,57.10959090001416,57.12449590000324,57.62375220001559,57.60745860001771,,,,,,,,,,,,,,,,,,,,,,,,,,,,,,sub-208,1,random_dot,60.09817637988829,
right,right,7.0,1.0,3.0,left,0.0,1.157982800010359,,,,,,3.0,1.0,7.0,1.0,,,,,,,,,57.62375220001559,,,,,,,,,57.607694300008006,57.723678000009386,58.54075360001298,58.52279920000001,58.52306840001256,58.54075360001298,58.54075360001298,58.54075360001298,59.706272500014165,left,0.0,1.157982800010359,,59.7083805000002,59.72102070000256,60.22028320000391,60.20388970000204,,,,,,,,,,,,,,,,,,,,,,,,,,,,,,sub-208,1,random_dot,60.09817637988829,
right,right,8.0,0.0,4.0,right,1.0,2.3682441000128165,,,,,,4.0,0.0,8.0,1.0,,,,,,,,,60.22028320000391,,,,,,,,,60.20411610000883,60.56991550000384,61.38680320000276,61.36922650001361,61.36950210001669,61.38680320000276,61.38680320000276,61.38680320000276,63.76746780000394,right,1.0,2.3682441000128165,,63.76978930001496,63.78223690000596,64.28168650000589,64.2655078000098,,,,,,,,,,,,,,,,,,,,,,,,,,,,,,sub-208,1,random_dot,60.09817637988829,
left,left,9.0,1.0,4.0,left,1.0,1.1185273999872152,,,,,,4.0,1.0,9.0,0.0,,,,,,,,,64.28168650000589,,,,,,,,,64.26584810001077,65.48012300001574,66.29705819999799,66.27912110000034,66.27935009999783,66.29705819999799,66.29705819999799,66.29705819999799,67.42928420001408,left,1.0,1.1185273999872152,,67.42935359998955,67.44413540000096,67.94335929999943,67.92702329999884,,,,,,,,,,,,,,,,,,,,,,,,,,,,,,sub-208,1,random_dot,60.09817637988829,
right,right,10.0,0.0,5.0,right,1.0,1.3454333000117913,,,,,,5.0,0.0,10.0,1.0,,,,,,,,,67.94335929999943,,,,,,,,,67.92725410001003,68.74232779999147,69.54280699999072,69.52498330001254,69.5252715999959,69.54280699999072,69.54280699999072,69.54280699999072,70.89166280001518,right,1.0,1.3454333000117913,,70.89180290000513,70.90642089999164,71.4055340999912,71.38920229999349,,,,,,,,,,,,,,,,,,,,,,,,,,,,,,sub-208,1,random_dot,60.09817637988829,
left,left,11.0,1.0,5.0,left,1.0,1.3282032999850344,,,,,,5.0,1.0,11.0,0.0,,,,,,,,,71.4055340999912,,,,,,,,,71.38946480001323,72.20457780000288,73.02176500001224,73.0045056999952,73.00477749999845,73.02176500001224,73.02176500001224,73.02176500001224,74.35351519999676,left,1.0,1.3282032999850344,,74.35359109999263,74.36829449998913,74.86766380001791,74.85122070001671,,,,,,,,,,,,,,,,,,,,,,,,,,,,,,sub-208,1,random_dot,60.09817637988829,
right,right,12.0,0.0,6.0,left,0.0,0.8341712999972515,,,,,,6.0,0.0,12.0,1.0,,,,,,,,,74.86766380001791,,,,,,,,,74.85144679999212,75.21722079999745,76.0341868000105,76.01628370000981,76.01658290001797,76.0341868000105,76.0341868000105,76.0341868000105,76.88344100001268,left,0.0,0.8341712999972515,,76.88571860000957,76.89826929999981,77.3978269000072,77.38170160001027,,,,,,,,,,,,,,,,,,,,,,,,,,,,,,sub-208,1,random_dot,60.09817637988829,
left,left,13.0,1.0,6.0,right,0.0,2.3541799999948125,,,,,,6.0,1.0,13.0,0.0,,,,,,,,,77.3978269000072,,,,,,,,,77.38221549999435,78.1965606000158,79.01363239999046,78.99571479999577,78.99596319999546,79.01363239999046,79.01363239999046,79.01363239999046,81.37740040000062,right,0.0,2.3541799999948125,,81.37747400000808,81.39232210000046,81.89155140001094,81.87527930000215,,,,,,,,,,,,,,,,,,,,,,,,,,,,,,sub-208,1,random_dot,60.09817637988829,
right,right,14.0,0.0,7.0,right,1.0,0.7291525999899022,,,,,,7.0,0.0,14.0,1.0,,,,,,,,,81.89155140001094,,,,,,,,,81.87553419999313,82.6906536000024,83.50761970001622,83.48982280000928,83.49008160000085,83.50761970001622,83.50761970001622,83.50761970001622,84.24020739999833,right,1.0,0.7291525999899022,,84.24249890001374,84.25519170000916,84.75460929999826,84.7383298999921,,,,,,,,,,,,,,,,,,,,,,,,,,,,,,sub-208,1,random_dot,60.09817637988829,
left,left,15.0,1.0,7.0,right,0.0,2.324997400020948,,,,,,7.0,1.0,15.0,0.0,,,,,,,,,84.75460929999826,,,,,,,,,84.73866200001794,85.9529814000125,86.75351850001607,86.7357033000153,86.73618010000791,86.75351850001607,86.75351850001607,86.75351850001607,89.0839796999935,right,0.0,2.324997400020948,,89.08611979999114,89.09875559998909,89.59808250001515,89.58169769999222,,,,,,,,,,,,,,,,,,,,,,,,,,,,,,sub-208,1,random_dot,60.09817637988829,
left,left,16.0,0.0,8.0,left,1.0,0.9160053000086918,,,,,,8.0,0.0,16.0,0.0,,,,,,,,,89.59808250001515,,,,,,,,,89.581912499998,90.79650679999033,91.61358160001691,91.59568960001344,91.59596500001498,91.61358160001691,91.61358160001691,91.61358160001691,92.5460194000043,left,1.0,0.9160053000086918,,92.5483523000148,92.5608242000162,93.0601861999894,93.043837300007,,,,,,,,,,,,,,,,,,,,,,,,,,,,,,sub-208,1,random_dot,60.09817637988829,
right,right,17.0,1.0,8.0,right,1.0,0.4933039000025019,,,,,,8.0,1.0,17.0,1.0,,,,,,,,,93.0601861999894,,,,,,,,,93.04405960001168,93.85912159999134,94.6595340000058,94.64169009999024,94.64192349999212,94.6595340000058,94.6595340000058,94.6595340000058,95.15909370000008,right,1.0,0.4933039000025019,,95.15917120000812,95.17411620001076,95.6733835999912,95.65704930000356,,,,,,,,,,,,,,,,,,,,,,,,,,,,,,sub-208,1,random_dot,60.09817637988829,
left,left,18.0,0.0,9.0,left,1.0,0.3556105000025127,,,,,,9.0,0.0,18.0,0.0,,,,,,,,,95.6733835999912,,,,,,,,,95.6573078999936,96.8717949000129,97.68887730001006,97.67101429999455,97.6713049999962,97.68887730001006,97.68887730001006,97.68887730001006,98.05531039999914,left,1.0,0.3556105000025127,,98.05539310001768,98.0702530000126,98.5695529000077,98.5532402000099,,,,,,,,,,,,,,,,,,,,,,,,,,,,,,sub-208,1,random_dot,60.09817637988829,
right,right,19.0,1.0,9.0,right,1.0,0.4443241999833844,,,,,,9.0,1.0,19.0,1.0,,,,,,,,,98.5695529000077,,,,,,,,,98.55349469999784,98.66944470000452,99.4864290000114,99.46857970001292,99.46885930001736,99.4864290000114,99.4864290000114,99.4864290000114,99.93612490000667,right,1.0,0.4443241999833844,,99.9362136000127,99.95105249999324,100.450620299991,100.433932200016,,,,,,,,,,,,,,,,,,,,,,,,,,,,,,sub-208,1,random_dot,60.09817637988829,
,,,,,,,,,,,,,,,,,,,,,,,,,,,,,,,,,,,,,,,,,,,,,,,,,,,100.4340315000154,100.450620299991,100.450620299991,104.11258829999132,space,3.6584284999989904,,,,,,,,,,,,,,,,,,,,,,,,sub-208,1,random_dot,60.09817637988829,
,,,,,,,,,,,,,,,,,,,,,,,,,,,,,,,,,,,,,,,,,,,,,,,,,,,,,,,,,,104.1126316000009,104.12942119999208,104.12942119999208,105.24498310001218,space,1.1109933000116143,,,,,,,,,,,,,,,,,sub-208,1,random_dot,60.09817637988829,
left,left,0.0,0.0,0.0,left,1.0,1.1676206999982242,,accuracy,space,1.6653425999975298,,,,,,0.0,0.0,0.0,0.0,0.0,0.0,0.0,0.0,106.95841670001391,,,,,,,,,106.94732120001572,108.15691200000585,108.97385800001211,108.95603190001566,108.95631010000945,108.97385800001211,108.97385800001211,108.97385800001211,110.15601569999126,,,,,,,,,,,,,,,,,,,,,,,105.2586994000012,105.26288389999536,105.26288389999536,106.94235409999963,space,1.6653425999975298,,left,1.0,1.1676206999982242,,,,,,sub-208,1,random_dot,60.09817637988829,
right,right,1.0,1.0,0.0,right,1.0,2.0639037000073586,,accuracy,space,1.6653425999975298,,,,,,0.0,0.0,0.0,0.0,0.0,1.0,1.0,1.0,110.17084730000352,,,,,,,,,110.15635500001372,110.520391500002,111.33744339999976,111.31960710001296,111.31984050001483,111.33744339999976,111.33744339999976,111.33744339999976,113.41838990000542,,,,,,,,,,,,,,,,,,,,,,,,,,,,,,right,1.0,2.0639037000073586,,,,,,sub-208,1,random_dot,60.09817637988829,
left,left,2.0,0.0,1.0,left,1.0,2.103630300000077,,accuracy,space,1.6653425999975298,,,,,,0.0,0.0,0.0,0.0,1.0,0.0,2.0,0.0,113.43322080001236,,,,,,,,,113.41870599999676,113.53311250000844,114.35013579999212,114.332269800012,114.33254960001796,114.35013579999212,114.35013579999212,114.35013579999212,116.46430940000572,,,,,,,,,,,,,,,,,,,,,,,,,,,,,,left,1.0,2.103630300000077,,,,,,sub-208,1,random_dot,60.09817637988829,
right,right,3.0,1.0,1.0,right,1.0,1.1725788000039756,,accuracy,space,1.6653425999975298,,,,,,0.0,0.0,0.0,0.0,1.0,1.0,3.0,1.0,116.47917500001496,,,,,,,,,116.46461039999848,116.82869220001156,117.64568459999282,117.62782640001387,117.62807060001067,117.64568459999282,117.64568459999282,117.64568459999282,118.82780060000368,,,,,,,,,,,,,,,,,,,,,,,,,,,,,,right,1.0,1.1725788000039756,,,,,,sub-208,1,random_dot,60.09817637988829,
left,left,4.0,0.0,2.0,left,1.0,1.1332774000184145,,accuracy,space,1.6653425999975298,,,,,,0.0,0.0,0.0,0.0,2.0,0.0,4.0,0.0,118.8427212999959,,,,,,,,,118.82814070000312,118.94260139999096,119.75956179999048,119.74173770000924,119.74201149999864,119.75956179999048,119.75956179999048,119.75956179999048,120.9082114000048,,,,,,,,,,,,,,,,,,,,,,,,,,,,,,left,1.0,1.1332774000184145,,,,,,sub-208,1,random_dot,60.09817637988829,
right,right,5.0,1.0,2.0,left,0.0,2.425676399987424,,accuracy,space,1.6653425999975298,,,,,,0.0,0.0,0.0,0.0,2.0,1.0,5.0,1.0,120.92327870000736,,,,,,,,,120.90845560000162,122.12168979999842,122.9387560999894,122.92085570000928,122.92113860000973,122.9387560999894,122.9387560999894,122.9387560999894,125.36905259999912,,,,,,,,,,,,,,,,,,,,,,,,,,,,,,left,0.0,2.425676399987424,,,,,,sub-208,1,random_dot,60.09817637988829,
right,right,6.0,0.0,3.0,right,1.0,3.2853220000106376,,accuracy,space,1.6653425999975298,,,,,,0.0,0.0,0.0,0.0,3.0,0.0,6.0,1.0,125.38403980000294,,,,,,,,,125.36929390000296,125.73358540001207,126.53398609999569,126.51617869999608,126.51644900001702,126.53398609999569,126.53398609999569,126.53398609999569,129.82995310000842,,,,,,,,,,,,,,,,,,,,,,,,,,,,,,right,1.0,3.2853220000106376,,,,,,sub-208,1,random_dot,60.09817637988829,
left,left,7.0,1.0,3.0,left,1.0,2.0571459000057075,,accuracy,space,1.6653425999975298,,,,,,0.0,0.0,0.0,0.0,3.0,1.0,7.0,0.0,129.84480340001755,,,,,,,,,129.8302374999912,131.04318860001513,131.8435851999966,131.82575290001114,131.82602480001515,131.8435851999966,131.8435851999966,131.8435851999966,133.90780350001296,,,,,,,,,,,,,,,,,,,,,,,,,,,,,,left,1.0,2.0571459000057075,,,,,,sub-208,1,random_dot,60.09817637988829,
left,left,8.0,0.0,4.0,left,1.0,1.7076735000009649,,accuracy,space,1.6653425999975298,,,,,,0.0,0.0,0.0,0.0,4.0,0.0,8.0,0.0,133.92268519999925,,,,,,,,,133.90807949998998,134.27233330000308,135.08931370000937,135.071357000008,135.0715898000053,135.08931370000937,135.08931370000937,135.08931370000937,136.8041138999979,,,,,,,,,,,,,,,,,,,,,,,,,,,,,,left,1.0,1.7076735000009649,,,,,,sub-208,1,random_dot,60.09817637988829,
right,right,9.0,1.0,4.0,right,1.0,1.4107577000104357,,accuracy,space,1.6653425999975298,,,,,,0.0,0.0,0.0,0.0,4.0,1.0,9.0,1.0,136.81887409999035,,,,,,,,,136.8043966999976,137.16846720001195,137.9855014999921,137.96765010000672,137.96791910001775,137.9855014999921,137.9855014999921,137.9855014999921,139.40045809998992,,,,,,,,,,,,,,,,,,,,,,,,,,,,,,right,1.0,1.4107577000104357,,,,,,sub-208,1,random_dot,60.09817637988829,
left,left,10.0,0.0,5.0,left,1.0,2.194895299995551,,accuracy,space,1.6653425999975298,,,,,,0.0,0.0,0.0,0.0,5.0,0.0,10.0,0.0,139.41546750001726,,,,,,,,,139.4007019000128,140.61386020001373,141.43086270001368,141.41303049999988,141.41329830000177,141.43086270001368,141.43086270001368,141.43086270001368,143.6281062999915,,,,,,,,,,,,,,,,,,,,,,,,,,,,,,left,1.0,2.194895299995551,,,,,,sub-208,1,random_dot,60.09817637988829,
right,right,11.0,1.0,5.0,left,0.0,4.618313099985244,,accuracy,space,1.6653425999975298,,,,,,0.0,0.0,0.0,0.0,5.0,1.0,11.0,1.0,143.643132600002,,,,,,,,,143.6283670999983,144.84157220000634,145.65856650000205,145.64081479999004,145.6410620000097,145.65856650000205,145.65856650000205,145.65856650000205,150.28612629999407,,,,,,,,,,,,,,,,,,,,,,,,,,,,,,left,0.0,4.618313099985244,,,,,,sub-208,1,random_dot,60.09817637988829,
left,left,12.0,0.0,6.0,left,1.0,7.878628700011177,,accuracy,space,1.6653425999975298,,,,,,0.0,0.0,0.0,0.0,6.0,0.0,12.0,0.0,150.30099499999778,,,,,,,,,150.28641610001796,150.4011976000038,151.21797349999542,151.2000604000059,151.20033059999696,151.21797349999542,151.21797349999542,151.21797349999542,159.10775650001597,,,,,,,,,,,,,,,,,,,,,,,,,,,,,,left,1.0,7.878628700011177,,156.21124239999335,,,,sub-208,1,random_dot,60.09817637988829,
right,right,13.0,1.0,6.0,right,1.0,2.413632299983874,,accuracy,space,1.6653425999975298,,,,,,0.0,0.0,0.0,0.0,6.0,1.0,13.0,1.0,159.12262609999743,,,,,,,,,159.10803440000743,159.47214150000946,160.2726057000109,160.25473630000488,160.25500649999594,160.2726057000109,160.2726057000109,160.2726057000109,162.6869483999908,,,,,,,,,,,,,,,,,,,,,,,,,,,,,,right,1.0,2.413632299983874,,,,,,sub-208,1,random_dot,60.09817637988829,
left,left,14.0,0.0,7.0,right,0.0,3.208812799974112,,accuracy,space,1.6653425999975298,,,,,,0.0,0.0,0.0,0.0,7.0,0.0,14.0,0.0,162.70161889999872,,,,,,,,,162.68763940001372,163.8997864999983,164.71679520001635,164.6986736000108,164.69891720000305,164.71679520001635,164.71679520001635,164.71679520001635,167.92977720001363,,,,,,,,,,,,,,,,,,,,,,,,,,,,,,right,0.0,3.208812799974112,,,,,,sub-208,1,random_dot,60.09817637988829,
right,right,15.0,1.0,7.0,left,0.0,3.19887480000034,,accuracy,space,1.6653425999975298,,,,,,0.0,0.0,0.0,0.0,7.0,1.0,15.0,1.0,167.9444824999955,,,,,,,,,167.93028289999347,168.7432408000168,169.56023890001234,169.54228009999497,169.54250159999356,169.56023890001234,169.56023890001234,169.56023890001234,172.7729811000172,,,,,,,,,,,,,,,,,,,,,,,,,,,,,,left,0.0,3.19887480000034,,,,,,sub-208,1,random_dot,60.09817637988829,
left,left,16.0,0.0,8.0,right,0.0,2.3740653000131715,,accuracy,space,1.6653425999975298,,,,,,0.0,0.0,0.0,0.0,8.0,0.0,16.0,0.0,172.7878341000178,,,,,,,,,172.77325319999363,173.98634370000218,174.8033524999919,174.78536800001166,174.78559320000932,174.8033524999919,174.8033524999919,174.8033524999919,177.18385060000583,,,,,,,,,,,,,,,,,,,,,,,,,,,,,,right,0.0,2.3740653000131715,,,,,,sub-208,1,random_dot,60.09817637988829,
right,right,17.0,1.0,8.0,left,0.0,1.295575900003314,,accuracy,space,1.6653425999975298,,,,,,0.0,0.0,0.0,0.0,8.0,1.0,17.0,1.0,177.19870919999084,,,,,,,,,177.18414679999114,177.99768030000268,178.81466180001735,178.79675850001513,178.7970059000072,178.81466180001735,178.81466180001735,178.81466180001735,180.11320970000816,,,,,,,,,,,,,,,,,,,,,,,,,,,,,,left,0.0,1.295575900003314,,,,,,sub-208,1,random_dot,60.09817637988829,
left,left,18.0,0.0,9.0,left,1.0,1.3647699000139255,,accuracy,space,1.6653425999975298,,,,,,0.0,0.0,0.0,0.0,9.0,0.0,18.0,0.0,180.12809069998912,,,,,,,,,180.11349300001166,180.4777068000112,181.27828920001048,181.2605018999893,181.26094470001408,181.27828920001048,181.27828920001048,181.27828920001048,182.6434026999923,,,,,,,,,,,,,,,,,,,,,,,,,,,,,,left,1.0,1.3647699000139255,,,,,,sub-208,1,random_dot,60.09817637988829,
right,right,19.0,1.0,9.0,right,1.0,1.1144358000019563,,accuracy,space,1.6653425999975298,,,,,,0.0,0.0,0.0,0.0,9.0,1.0,19.0,1.0,182.65818980001492,,,,,,,,,182.6437471999961,182.75805840000976,183.575075700006,183.55722970000352,183.55750880000411,183.575075700006,183.575075700006,183.575075700006,184.6903801000153,,,,,,,,,,,,,,,,,,,,,,,,,,,,,,right,1.0,1.1144358000019563,,,,,,sub-208,1,random_dot,60.09817637988829,
left,left,20.0,0.0,10.0,left,1.0,1.905186899995897,,accuracy,space,1.6653425999975298,,,,,,0.0,0.0,0.0,0.0,10.0,0.0,20.0,0.0,184.7053648000001,,,,,,,,,184.69064600000277,184.8053537000087,185.62235550000327,185.60451760000436,185.6048082000052,185.62235550000327,185.62235550000327,185.62235550000327,187.53671899999608,,,,,,,,,,,,,,,,,,,,,,,,,,,,,,left,1.0,1.905186899995897,,,,,,sub-208,1,random_dot,60.09817637988829,
right,right,21.0,1.0,10.0,left,0.0,1.729020099999616,,accuracy,space,1.6653425999975298,,,,,,0.0,0.0,0.0,0.0,10.0,1.0,21.0,1.0,187.55161970001063,,,,,,,,,187.53699150000463,187.90122749999864,188.71836289999192,188.70049990000552,188.7008274999971,188.71836289999192,188.71836289999192,188.71836289999192,190.44962230001693,,,,,,,,,,,,,,,,,,,,,,,,,,,,,,left,0.0,1.729020099999616,,,,,,sub-208,1,random_dot,60.09817637988829,
right,right,22.0,0.0,11.0,right,1.0,1.6667131000140216,,accuracy,space,1.6653425999975298,,,,,,0.0,0.0,0.0,0.0,11.0,0.0,22.0,1.0,190.46449559999743,,,,,,,,,190.44991610001307,190.5645521999977,191.38140260000364,191.36366170001563,191.36401660001135,191.38140260000364,191.38140260000364,191.38140260000364,193.06265149998944,,,,,,,,,,,,,,,,,,,,,,,,,,,,,,right,1.0,1.6667131000140216,,,,,,sub-208,1,random_dot,60.09817637988829,
left,left,23.0,1.0,11.0,left,1.0,1.4651167999836616,,accuracy,space,1.6653425999975298,,,,,,0.0,0.0,0.0,0.0,11.0,1.0,23.0,0.0,193.07758469998956,,,,,,,,,193.06289960001595,193.8766839000164,194.6937152000028,194.6758146999928,194.67607580000185,194.6937152000028,194.6937152000028,194.6937152000028,196.17534829999204,,,,,,,,,,,,,,,,,,,,,,,,,,,,,,left,1.0,1.4651167999836616,,,,,,sub-208,1,random_dot,60.09817637988829,
left,left,24.0,0.0,12.0,left,1.0,1.049447900004452,,accuracy,space,1.6653425999975298,,,,,,0.0,0.0,0.0,0.0,12.0,0.0,24.0,0.0,196.19018450001025,,,,,,,,,196.17561320000092,196.5397680000169,197.35683940001763,197.33895490001305,197.3392342000152,197.35683940001763,197.35683940001763,197.35683940001763,198.42240320000565,,,,,,,,,,,,,,,,,,,,,,,,,,,,,,left,1.0,1.049447900004452,,,,,,sub-208,1,random_dot,60.09817637988829,
right,right,25.0,1.0,12.0,right,1.0,0.934467599989148,,accuracy,space,1.6653425999975298,,,,,,0.0,0.0,0.0,0.0,12.0,1.0,25.0,1.0,198.43730320001487,,,,,,,,,198.4229292999953,199.23622399999292,200.03673520000305,200.018934199994,200.01940360001757,200.03673520000305,200.03673520000305,200.03673520000305,200.98569210001733,,,,,,,,,,,,,,,,,,,,,,,,,,,,,,right,1.0,0.934467599989148,,,,,,sub-208,1,random_dot,60.09817637988829,
right,right,26.0,0.0,13.0,right,1.0,2.054514899995411,,accuracy,space,1.6653425999975298,,,,,,0.0,0.0,0.0,0.0,13.0,0.0,26.0,1.0,201.00052010000215,,,,,,,,,200.985974500014,201.7995022000105,202.61656600001152,202.5986298999924,202.5988975999935,202.61656600001152,202.61656600001152,202.61656600001152,204.68067960001645,,,,,,,,,,,,,,,,,,,,,,,,,,,,,,right,1.0,2.054514899995411,,,,,,sub-208,1,random_dot,60.09817637988829,
left,left,27.0,1.0,13.0,right,0.0,1.0470364000066184,,accuracy,space,1.6653425999975298,,,,,,0.0,0.0,0.0,0.0,13.0,1.0,27.0,0.0,204.69564920000263,,,,,,,,,204.68095919999175,204.7954808000068,205.61254040000492,205.5947132000001,205.59497080001165,205.61254040000492,205.61254040000492,205.61254040000492,206.66155720001552,,,,,,,,,,,,,,,,,,,,,,,,,,,,,,right,0.0,1.0470364000066184,,,,,,sub-208,1,random_dot,60.09817637988829,
left,left,28.0,0.0,14.0,left,1.0,0.2710667000210378,,accuracy,space,1.6653425999975298,,,,,,0.0,0.0,0.0,0.0,14.0,0.0,28.0,0.0,206.67636610000045,,,,,,,,,206.66186520000335,207.4752049999952,208.2757351000037,208.25781270000152,208.25807450001597,208.2757351000037,208.2757351000037,208.2757351000037,208.5590411000012,,,,,,,,,,,,,,,,,,,,,,,,,,,,,,left,1.0,0.2710667000210378,,,,,,sub-208,1,random_dot,60.09817637988829,
right,right,29.0,1.0,14.0,right,1.0,1.5922853000229225,,accuracy,space,1.6653425999975298,,,,,,0.0,0.0,0.0,0.0,14.0,1.0,29.0,1.0,208.57386330000008,,,,,,,,,208.5593513000058,208.6737387999892,209.4906910000136,209.4727167999954,209.4729447000136,209.4906910000136,209.4906910000136,209.4906910000136,211.0890008000133,,,,,,,,,,,,,,,,,,,,,,,,,,,,,,right,1.0,1.5922853000229225,,,,,,sub-208,1,random_dot,60.09817637988829,
left,left,30.0,0.0,15.0,right,0.0,2.32915169998887,,accuracy,space,1.6653425999975298,,,,,,0.0,0.0,0.0,0.0,15.0,0.0,30.0,0.0,211.103746000008,,,,,,,,,211.0892593000026,211.90275259999908,212.71975660001044,212.7017208999896,212.70195049999165,212.71975660001044,212.71975660001044,212.71975660001044,215.05036230001133,,,,,,,,,,,,,,,,,,,,,,,,,,,,,,right,0.0,2.32915169998887,,,,,,sub-208,1,random_dot,60.09817637988829,
right,right,31.0,1.0,15.0,left,0.0,1.9100866000226235,,accuracy,space,1.6653425999975298,,,,,,0.0,0.0,0.0,0.0,15.0,1.0,31.0,1.0,215.06517819999132,,,,,,,,,215.05064940001463,216.26361500000348,217.0805934999953,217.06257720000576,217.06280620000325,217.0805934999953,217.0805934999953,217.0805934999953,218.9955587000004,,,,,,,,,,,,,,,,,,,,,,,,,,,,,,left,0.0,1.9100866000226235,,,,,,sub-208,1,random_dot,60.09817637988829,
right,right,32.0,0.0,16.0,right,1.0,2.1392760000017006,,accuracy,space,1.6653425999975298,,,,,,0.0,0.0,0.0,0.0,16.0,0.0,32.0,1.0,219.01020930000232,,,,,,,,,218.99615680001443,219.11000390001573,219.91040839999917,219.89281220000703,219.89328640000892,219.91040839999917,219.91040839999917,219.91040839999917,222.05771110000205,,,,,,,,,,,,,,,,,,,,,,,,,,,,,,right,1.0,2.1392760000017006,,,,,,sub-208,1,random_dot,60.09817637988829,
left,left,33.0,1.0,16.0,left,1.0,2.226179599994793,,accuracy,space,1.6653425999975298,,,,,,0.0,0.0,0.0,0.0,16.0,1.0,33.0,0.0,222.07253969999147,,,,,,,,,222.05796939998984,223.2709753999952,224.08797069999852,224.07003989999063,224.0702592000016,224.08797069999852,224.08797069999852,224.08797069999852,226.31861919999935,,,,,,,,,,,,,,,,,,,,,,,,,,,,,,left,1.0,2.226179599994793,,,,,,sub-208,1,random_dot,60.09817637988829,
left,left,34.0,0.0,17.0,right,0.0,1.0550684000190813,,accuracy,space,1.6653425999975298,,,,,,0.0,0.0,0.0,0.0,17.0,0.0,34.0,0.0,226.33356070000443,,,,,,,,,226.3188947000017,226.43340860001624,227.2338260000106,227.2160237999924,227.21641850000012,227.2338260000106,227.2338260000106,227.2338260000106,228.29932789999293,,,,,,,,,,,,,,,,,,,,,,,,,,,,,,right,0.0,1.0550684000190813,,,,,,sub-208,1,random_dot,60.09817637988829,
right,right,35.0,1.0,17.0,left,0.0,0.8783535999828018,,accuracy,space,1.6653425999975298,,,,,,0.0,0.0,0.0,0.0,17.0,1.0,35.0,1.0,228.3143051000079,,,,,,,,,228.2995588000049,228.66388860001464,229.4808239999984,229.46292290001293,229.4631682000181,229.4808239999984,229.4808239999984,229.4808239999984,230.36326710000867,,,,,,,,,,,,,,,,,,,,,,,,,,,,,,left,0.0,0.8783535999828018,,,,,,sub-208,1,random_dot,60.09817637988829,
left,left,36.0,0.0,18.0,right,0.0,0.7869778999884147,,accuracy,space,1.6653425999975298,,,,,,0.0,0.0,0.0,0.0,18.0,0.0,36.0,0.0,230.3781944999937,,,,,,,,,230.3635317000153,230.47808369999984,231.2951205999998,231.27721739999836,231.27745160000632,231.2951205999998,231.2951205999998,231.2951205999998,232.09445390000477,,,,,,,,,,,,,,,,,,,,,,,,,,,,,,right,0.0,0.7869778999884147,,,,,,sub-208,1,random_dot,60.09817637988829,
right,right,37.0,1.0,18.0,right,1.0,1.1583168000215665,,accuracy,space,1.6653425999975298,,,,,,0.0,0.0,0.0,0.0,18.0,1.0,37.0,1.0,232.10922350001056,,,,,,,,,232.0947285000002,232.4588058000081,233.25926510000136,233.2414302999969,233.241709199996,233.25926510000136,233.25926510000136,233.25926510000136,234.4247111000004,,,,,,,,,,,,,,,,,,,,,,,,,,,,,,right,1.0,1.1583168000215665,,,,,,sub-208,1,random_dot,60.09817637988829,
left,left,38.0,0.0,19.0,left,1.0,1.3103955000115093,,accuracy,space,1.6653425999975298,,,,,,0.0,0.0,0.0,0.0,19.0,0.0,38.0,0.0,234.4394813000108,,,,,,,,,234.42497729999013,234.5394331999996,235.3565029000165,235.33860230000573,235.3388635000156,235.3565029000165,235.3565029000165,235.3565029000165,236.67177240000456,,,,,,,,,,,,,,,,,,,,,,,,,,,,,,left,1.0,1.3103955000115093,,,,,,sub-208,1,random_dot,60.09817637988829,
right,right,39.0,1.0,19.0,right,1.0,1.026872500020545,,accuracy,space,1.6653425999975298,,,,,,0.0,0.0,0.0,0.0,19.0,1.0,39.0,1.0,236.68661969999084,,,,,,,,,236.6720983000123,237.884982699994,238.70203000001493,238.6841488000064,238.68441200000237,238.70203000001493,238.70203000001493,238.70203000001493,239.73439610001515,,,,,,,,,,,,,,,,,,,,,,,,,,,,,,right,1.0,1.026872500020545,,,,,,sub-208,1,random_dot,60.09817637988829,
left,left,40.0,0.0,20.0,right,0.0,2.0762337000051048,,accuracy,space,1.6653425999975298,,,,,,0.0,0.0,0.0,0.0,20.0,0.0,40.0,0.0,239.74912230001064,,,,,,,,,239.73469569999725,240.9476080000168,241.76466350001283,241.74669880000877,241.7470076000027,241.76466350001283,241.76466350001283,241.76466350001283,243.845644999994,,,,,,,,,,,,,,,,,,,,,,,,,,,,,,right,0.0,2.0762337000051048,,,,,,sub-208,1,random_dot,60.09817637988829,
right,right,41.0,1.0,20.0,right,1.0,2.045723100018222,,accuracy,space,1.6653425999975298,,,,,,0.0,0.0,0.0,0.0,20.0,1.0,41.0,1.0,243.86034750001272,,,,,,,,,243.84594289999225,244.2099365000031,245.02696509999805,245.00920999998925,245.00947650001035,245.02696509999805,245.02696509999805,245.02696509999805,247.0744958000141,,,,,,,,,,,,,,,,,,,,,,,,,,,,,,right,1.0,2.045723100018222,,,,,,sub-208,1,random_dot,60.09817637988829,
left,left,42.0,0.0,21.0,left,1.0,1.248682600009488,,accuracy,space,1.6653425999975298,,,,,,0.0,0.0,0.0,0.0,21.0,0.0,42.0,0.0,247.08948009999585,,,,,,,,,247.0747403000132,248.2879038999963,249.10493639999183,249.08707959999447,249.08736920001684,249.10493639999183,249.10493639999183,249.10493639999183,250.37021180000735,,,,,,,,,,,,,,,,,,,,,,,,,,,,,,left,1.0,1.248682600009488,,,,,,sub-208,1,random_dot,60.09817637988829,
right,right,43.0,1.0,21.0,right,1.0,2.388989599974593,,accuracy,space,1.6653425999975298,,,,,,0.0,0.0,0.0,0.0,21.0,1.0,43.0,1.0,250.3851718000078,,,,,,,,,250.37049830000612,250.734557000018,251.5350401000178,251.5170974000066,251.51734389999183,251.5350401000178,251.5350401000178,251.5350401000178,253.93202140001813,,,,,,,,,,,,,,,,,,,,,,,,,,,,,,right,1.0,2.388989599974593,,,,,,sub-208,1,random_dot,60.09817637988829,
right,right,44.0,0.0,22.0,left,0.0,0.9801114000147207,,accuracy,space,1.6653425999975298,,,,,,0.0,0.0,0.0,0.0,22.0,0.0,44.0,1.0,253.94699769999715,,,,,,,,,253.9322516999964,254.29654370000932,255.0971894999966,255.07935919999727,255.0797741000133,255.0971894999966,255.0971894999966,255.0971894999966,256.07958590000635,,,,,,,,,,,,,,,,,,,,,,,,,,,,,,left,0.0,0.9801114000147207,,,,,,sub-208,1,random_dot,60.09817637988829,
left,left,45.0,1.0,22.0,right,0.0,1.2776647999999111,,accuracy,space,1.6653425999975298,,,,,,0.0,0.0,0.0,0.0,22.0,1.0,45.0,0.0,256.0944252999907,,,,,,,,,256.08002990001114,256.19425470000715,257.0111152000027,256.99325359999784,256.9935329,257.0111152000027,257.0111152000027,257.0111152000027,258.293175800005,,,,,,,,,,,,,,,,,,,,,,,,,,,,,,right,0.0,1.2776647999999111,,,,,,sub-208,1,random_dot,60.09817637988829,
right,right,46.0,0.0,23.0,right,1.0,1.2173208000021989,,accuracy,space,1.6653425999975298,,,,,,0.0,0.0,0.0,0.0,23.0,0.0,46.0,1.0,258.3079549999966,,,,,,,,,258.2934646999929,259.5063890000165,260.32340490000206,260.3055275999941,260.3058010000095,260.32340490000206,260.32340490000206,260.32340490000206,261.5554306000122,,,,,,,,,,,,,,,,,,,,,,,,,,,,,,right,1.0,1.2173208000021989,,,,,,sub-208,1,random_dot,60.09817637988829,
left,left,47.0,1.0,23.0,right,0.0,2.6492415000102483,,accuracy,space,1.6653425999975298,,,,,,0.0,0.0,0.0,0.0,23.0,1.0,47.0,0.0,261.57022620001226,,,,,,,,,261.5557218999893,261.6701790000079,262.48722219999763,262.4692712000105,262.4695439999923,262.48722219999763,262.48722219999763,262.48722219999763,265.1508123000094,,,,,,,,,,,,,,,,,,,,,,,,,,,,,,right,0.0,2.6492415000102483,,,,,,sub-208,1,random_dot,60.09817637988829,
right,right,48.0,0.0,24.0,left,0.0,1.2374892000225373,,accuracy,space,1.6653425999975298,,,,,,0.0,0.0,0.0,0.0,24.0,0.0,48.0,1.0,265.1655629000161,,,,,,,,,265.1511953000154,265.2654826999933,266.08241400000406,266.0645502000116,266.0648141000129,266.08241400000406,266.08241400000406,266.08241400000406,267.3310879000055,,,,,,,,,,,,,,,,,,,,,,,,,,,,,,left,0.0,1.2374892000225373,,,,,,sub-208,1,random_dot,60.09817637988829,
left,left,49.0,1.0,24.0,left,1.0,0.8790891999960877,,accuracy,space,1.6653425999975298,,,,,,0.0,0.0,0.0,0.0,24.0,1.0,49.0,0.0,267.3459123999928,,,,,,,,,267.3313765999919,268.1449036000122,268.9452952000138,268.9275450000132,268.9278416000016,268.9452952000138,268.9452952000138,268.9452952000138,269.8278369999898,,,,,,,,,,,,,,,,,,,,,,,,,,,,,,left,1.0,0.8790891999960877,,,,,,sub-208,1,random_dot,60.09817637988829,
right,right,50.0,0.0,25.0,left,0.0,2.644600100000389,,accuracy,space,1.6653425999975298,,,,,,0.0,0.0,0.0,0.0,25.0,0.0,50.0,1.0,269.8427093999926,,,,,,,,,269.8280946000013,271.041112100007,271.8581361999968,271.8402611000056,271.8405219000124,271.8581361999968,271.8581361999968,271.8581361999968,274.50484350000625,,,,,,,,,,,,,,,,,,,,,,,,,,,,,,left,0.0,2.644600100000389,,,,,,sub-208,1,random_dot,60.09817637988829,
left,left,51.0,1.0,25.0,right,0.0,1.6635130000067877,,accuracy,space,1.6653425999975298,,,,,,0.0,0.0,0.0,0.0,25.0,1.0,51.0,0.0,274.51976170000853,,,,,,,,,274.5051419000083,274.8693689999928,275.6697234000021,275.65190840000287,275.6521621000138,275.6697234000021,275.6697234000021,275.6697234000021,277.3345368000155,,,,,,,,,,,,,,,,,,,,,,,,,,,,,,right,0.0,1.6635130000067877,,,,,,sub-208,1,random_dot,60.09817637988829,
left,left,52.0,0.0,26.0,left,1.0,2.347326300019631,,accuracy,space,1.6653425999975298,,,,,,0.0,0.0,0.0,0.0,26.0,0.0,52.0,0.0,277.34937949999585,,,,,,,,,277.33479660001467,278.1482721999928,278.9487039000087,278.9307965000044,278.9310437999957,278.9487039000087,278.9487039000087,278.9487039000087,281.31261140000424,,,,,,,,,,,,,,,,,,,,,,,,,,,,,,left,1.0,2.347326300019631,,,,,,sub-208,1,random_dot,60.09817637988829,
right,right,53.0,1.0,26.0,right,1.0,2.7081736999971326,,accuracy,space,1.6653425999975298,,,,,,0.0,0.0,0.0,0.0,26.0,1.0,53.0,1.0,281.3273962000094,,,,,,,,,281.3129038999905,282.12640400000964,282.9434866000083,282.9254874000035,282.9257290000096,282.9434866000083,282.9434866000083,282.9434866000083,285.6568852000055,,,,,,,,,,,,,,,,,,,,,,,,,,,,,,right,1.0,2.7081736999971326,,,,,,sub-208,1,random_dot,60.09817637988829,
right,right,54.0,0.0,27.0,right,1.0,1.3870481999765616,,accuracy,space,1.6653425999975298,,,,,,0.0,0.0,0.0,0.0,27.0,0.0,54.0,1.0,285.6717209999915,,,,,,,,,285.65736390001257,286.0212237999949,286.8216504000011,286.8038016000064,286.80406120000407,286.8216504000011,286.8216504000011,286.8216504000011,288.2202128999925,,,,,,,,,,,,,,,,,,,,,,,,,,,,,,right,1.0,1.3870481999765616,,,,,,sub-208,1,random_dot,60.09817637988829,
left,left,55.0,1.0,27.0,left,1.0,1.3630506999907084,,accuracy,space,1.6653425999975298,,,,,,0.0,0.0,0.0,0.0,27.0,1.0,55.0,0.0,288.2349942000001,,,,,,,,,288.22050120000495,289.4332987999951,290.233693999995,290.2158873000008,290.21614289999707,290.233693999995,290.233693999995,290.233693999995,291.5990272999916,,,,,,,,,,,,,,,,,,,,,,,,,,,,,,left,1.0,1.3630506999907084,,,,,,sub-208,1,random_dot,60.09817637988829,
left,left,56.0,0.0,28.0,left,1.0,1.5473864999949,,accuracy,space,1.6653425999975298,,,,,,0.0,0.0,0.0,0.0,28.0,0.0,56.0,0.0,291.6138284000044,,,,,,,,,291.5992799999949,291.9633818000148,292.7804153999896,292.7625970999943,292.76289529999485,292.7804153999896,292.7804153999896,292.7804153999896,294.3287058999995,,,,,,,,,,,,,,,,,,,,,,,,,,,,,,left,1.0,1.5473864999949,,,,,,sub-208,1,random_dot,60.09817637988829,
right,right,57.0,1.0,28.0,right,1.0,0.3508651000156533,,accuracy,space,1.6653425999975298,,,,,,0.0,0.0,0.0,0.0,28.0,1.0,57.0,1.0,294.3435458000167,,,,,,,,,294.3290765999991,295.54212520000874,296.35903749999125,296.3411741000018,296.34146560000954,296.35903749999125,296.35903749999125,296.35903749999125,296.7255379999988,,,,,,,,,,,,,,,,,,,,,,,,,,,,,,right,1.0,0.3508651000156533,,,,,,sub-208,1,random_dot,60.09817637988829,
right,right,58.0,0.0,29.0,left,0.0,3.279734499985352,,accuracy,space,1.6653425999975298,,,,,,0.0,0.0,0.0,0.0,29.0,0.0,58.0,1.0,296.74041669999133,,,,,,,,,296.7258313999919,297.0899916999915,297.90697790001286,297.889132900018,297.88942099999986,297.90697790001286,297.90697790001286,297.90697790001286,301.2028777000087,,,,,,,,,,,,,,,,,,,,,,,,,,,,,,left,0.0,3.279734499985352,,,,,,sub-208,1,random_dot,60.09817637988829,
left,left,59.0,1.0,29.0,left,1.0,2.0880795999837574,,accuracy,space,1.6653425999975298,,,,,,0.0,0.0,0.0,0.0,29.0,1.0,59.0,0.0,301.2177116000093,,,,,,,,,301.2031382000132,302.0166402000177,302.8337490000122,302.81571329999133,302.81594249999034,302.8337490000122,302.8337490000122,302.8337490000122,304.9313905000163,,,,,,,,,,,,,,,,,,,,,,,,,,,,,,left,1.0,2.0880795999837574,,,,,,sub-208,1,random_dot,60.09817637988829,
,,0.0,0.0,0.0,,,,,accuracy,space,1.6653425999975298,,,,,,0.0,0.0,0.0,0.0,,,,,,,,,,,,,,,,,,,,,,,,,,,,,,,,,,,,,,,,,,,,,,,,,,,,,,,,,,,,sub-208,1,random_dot,60.09817637988829,
right,right,0.0,0.0,0.0,left,0.0,0.6385893999831751,,speed,space,4.208177099993918,,,,,,0.0,1.0,1.0,1.0,0.0,0.0,0.0,1.0,309.1738459999906,,,,,,,,,309.1631741000165,309.2571598000068,310.0741478000127,310.05627649999224,310.056570100016,310.0741478000127,310.0741478000127,310.0741478000127,310.72359070001403,,,,,,,,,,,,,,,,,,,,,,,304.94069930000114,304.946286099992,304.946286099992,309.15780200000154,space,4.208177099993918,,left,0.0,0.6385893999831751,,,,,,sub-208,1,random_dot,60.09817637988829,
left,left,1.0,1.0,0.0,left,1.0,0.9441102000128012,,speed,space,4.208177099993918,,,,,,0.0,1.0,1.0,1.0,0.0,1.0,1.0,0.0,310.73856289999094,,,,,,,,,310.7238762000052,310.8383899999899,311.6553170999978,311.6373860000167,311.6376064000069,311.6553170999978,311.6553170999978,311.6553170999978,312.60446940001566,,,,,,,,,,,,,,,,,,,,,,,,,,,,,,left,1.0,0.9441102000128012,,,,,,sub-208,1,random_dot,60.09817637988829,
right,right,2.0,0.0,1.0,right,1.0,1.0663318000151776,,speed,space,4.208177099993918,,,,,,0.0,1.0,1.0,1.0,1.0,0.0,2.0,1.0,312.61931800001184,,,,,,,,,312.60476819999167,312.7191729999904,313.53620269999374,313.5182169000036,313.5184530999977,313.53620269999374,313.53620269999374,313.53620269999374,314.6185134999978,,,,,,,,,,,,,,,,,,,,,,,,,,,,,,right,1.0,1.0663318000151776,,,,,,sub-208,1,random_dot,60.09817637988829,
left,left,3.0,1.0,1.0,left,1.0,0.6244907000218518,,speed,space,4.208177099993918,,,,,,0.0,1.0,1.0,1.0,1.0,1.0,3.0,0.0,314.6333128999977,,,,,,,,,314.6188144999905,315.831760400004,316.6322516000073,316.614321800007,316.6146069999959,316.6322516000073,316.6322516000073,316.6322516000073,317.26505750001525,,,,,,,,,,,,,,,,,,,,,,,,,,,,,,left,1.0,0.6244907000218518,,,,,,sub-208,1,random_dot,60.09817637988829,
left,left,4.0,0.0,2.0,right,0.0,0.9506829000019934,,speed,space,4.208177099993918,,,,,,0.0,1.0,1.0,1.0,2.0,0.0,4.0,0.0,317.2798652999918,,,,,,,,,317.26538450000226,317.6292785000114,318.42975770001067,318.4119590999908,318.4122173000069,318.42975770001067,318.42975770001067,318.42975770001067,319.3955285999982,,,,,,,,,,,,,,,,,,,,,,,,,,,,,,right,0.0,0.9506829000019934,,,,,,sub-208,1,random_dot,60.09817637988829,
right,right,5.0,1.0,2.0,right,1.0,0.5676845000125468,,speed,space,4.208177099993918,,,,,,0.0,1.0,1.0,1.0,2.0,1.0,5.0,1.0,319.41029090000666,,,,,,,,,319.3958220999921,320.20930610000505,321.0096939000068,320.9918917999894,320.9921631999896,321.0096939000068,321.0096939000068,321.0096939000068,321.59253150000586,,,,,,,,,,,,,,,,,,,,,,,,,,,,,,right,1.0,0.5676845000125468,,,,,,sub-208,1,random_dot,60.09817637988829,
left,left,6.0,0.0,3.0,left,1.0,0.7923748999892268,,speed,space,4.208177099993918,,,,,,0.0,1.0,1.0,1.0,3.0,0.0,6.0,0.0,321.607396300009,,,,,,,,,321.59279719999176,321.9569974000042,322.77389479998965,322.75617929999135,322.75645770001574,322.77389479998965,322.77389479998965,322.77389479998965,323.5733213000058,,,,,,,,,,,,,,,,,,,,,,,,,,,,,,left,1.0,0.7923748999892268,,,,,,sub-208,1,random_dot,60.09817637988829,
right,right,7.0,1.0,3.0,right,1.0,0.8985815999913029,,speed,space,4.208177099993918,,,,,,0.0,1.0,1.0,1.0,3.0,1.0,7.0,1.0,323.58806700000423,,,,,,,,,323.57379610001226,324.78654989998904,325.6036602999957,325.58577510001487,325.5860476999951,325.6036602999957,325.6036602999957,325.6036602999957,326.5027546999918,,,,,,,,,,,,,,,,,,,,,,,,,,,,,,right,1.0,0.8985815999913029,,,,,,sub-208,1,random_dot,60.09817637988829,
left,left,8.0,0.0,4.0,left,1.0,1.3776034000038635,,speed,space,4.208177099993918,,,,,,0.0,1.0,1.0,1.0,4.0,0.0,8.0,0.0,326.5176019000064,,,,,,,,,326.50304919999326,327.3165590999997,328.1335082000005,328.1157346999971,328.11600549999275,328.1335082000005,328.1335082000005,328.1335082000005,329.51550509998924,,,,,,,,,,,,,,,,,,,,,,,,,,,,,,left,1.0,1.3776034000038635,,,,,,sub-208,1,random_dot,60.09817637988829,
right,right,9.0,1.0,4.0,right,1.0,0.7370765999949072,,speed,space,4.208177099993918,,,,,,0.0,1.0,1.0,1.0,4.0,1.0,9.0,1.0,329.5302395999897,,,,,,,,,329.51581169999554,330.7287379000045,331.5457362000016,331.5278804000118,331.5281798999931,331.5457362000016,331.5457362000016,331.5457362000016,332.2951585999981,,,,,,,,,,,,,,,,,,,,,,,,,,,,,,right,1.0,0.7370765999949072,,,,,,sub-208,1,random_dot,60.09817637988829,
right,right,10.0,0.0,5.0,left,0.0,0.7195148000027984,,speed,space,4.208177099993918,,,,,,0.0,1.0,1.0,1.0,5.0,0.0,10.0,1.0,332.30995450000046,,,,,,,,,332.29547879999154,332.6595368999988,333.476513600006,333.4586886999896,333.45894159999443,333.476513600006,333.476513600006,333.476513600006,334.2092411000049,,,,,,,,,,,,,,,,,,,,,,,,,,,,,,left,0.0,0.7195148000027984,,,,,,sub-208,1,random_dot,60.09817637988829,
left,left,11.0,1.0,5.0,right,0.0,0.3489453000074718,,speed,space,4.208177099993918,,,,,,0.0,1.0,1.0,1.0,5.0,1.0,11.0,0.0,334.2240522000065,,,,,,,,,334.2095596000145,335.4225066000072,336.2394566000148,336.2215875000111,336.22184549999656,336.2394566000148,336.2394566000148,336.2394566000148,336.58928680000827,,,,,,,,,,,,,,,,,,,,,,,,,,,,,,right,0.0,0.3489453000074718,,,,,,sub-208,1,random_dot,60.09817637988829,
right,right,12.0,0.0,6.0,left,0.0,0.9931062000105156,,speed,space,4.208177099993918,,,,,,0.0,1.0,1.0,1.0,6.0,0.0,12.0,1.0,336.6042349000054,,,,,,,,,336.589581200009,337.8026785000111,338.6030366999912,338.5853336,338.58571879999363,338.6030366999912,338.6030366999912,338.6030366999912,339.60206949998974,,,,,,,,,,,,,,,,,,,,,,,,,,,,,,left,0.0,0.9931062000105156,,,,,,sub-208,1,random_dot,60.09817637988829,
left,left,13.0,1.0,6.0,right,0.0,0.7255188999988604,,speed,space,4.208177099993918,,,,,,0.0,1.0,1.0,1.0,6.0,1.0,13.0,0.0,339.6169351999997,,,,,,,,,339.60232350000297,339.71683889999986,340.53386280001723,340.51593789999606,340.51620929999626,340.53386280001723,340.53386280001723,340.53386280001723,341.26644680000027,,,,,,,,,,,,,,,,,,,,,,,,,,,,,,right,0.0,0.7255188999988604,,,,,,sub-208,1,random_dot,60.09817637988829,
left,left,14.0,0.0,7.0,left,1.0,0.6808233000047039,,speed,space,4.208177099993918,,,,,,0.0,1.0,1.0,1.0,7.0,0.0,14.0,0.0,341.2814052000176,,,,,,,,,341.26673070000834,342.47983500000555,343.2968233000138,343.27886550000403,343.27913969999645,343.2968233000138,343.2968233000138,343.2968233000138,343.97953929999494,,,,,,,,,,,,,,,,,,,,,,,,,,,,,,left,1.0,0.6808233000047039,,,,,,sub-208,1,random_dot,60.09817637988829,
right,right,15.0,1.0,7.0,right,1.0,0.3097318999934941,,speed,space,4.208177099993918,,,,,,0.0,1.0,1.0,1.0,7.0,1.0,15.0,1.0,343.99437470000703,,,,,,,,,343.9798434000113,345.1928999999945,346.00990060000913,345.9920836999954,345.99237550000544,346.00990060000913,346.00990060000913,346.00990060000913,346.3265589000075,,,,,,,,,,,,,,,,,,,,,,,,,,,,,,right,1.0,0.3097318999934941,,,,,,sub-208,1,random_dot,60.09817637988829,
right,right,16.0,0.0,8.0,left,0.0,0.9680168000049888,,speed,space,4.208177099993918,,,,,,0.0,1.0,1.0,1.0,8.0,0.0,16.0,1.0,346.34136099999887,,,,,,,,,346.3269149000116,347.14045130001614,347.9572819000168,347.9395332999993,347.93979609999224,347.9572819000168,347.9572819000168,347.9572819000168,348.93975779999164,,,,,,,,,,,,,,,,,,,,,,,,,,,,,,left,0.0,0.9680168000049888,,,,,,sub-208,1,random_dot,60.09817637988829,
left,left,17.0,1.0,8.0,left,1.0,0.683064499986358,,speed,space,4.208177099993918,,,,,,0.0,1.0,1.0,1.0,8.0,1.0,17.0,0.0,348.954521800013,,,,,,,,,348.9400290999911,349.0544612999947,349.8714139999938,349.8535937000124,349.8538765000121,349.8714139999938,349.8714139999938,349.8714139999938,350.57088680000743,,,,,,,,,,,,,,,,,,,,,,,,,,,,,,left,1.0,0.683064499986358,,,,,,sub-208,1,random_dot,60.09817637988829,
right,right,18.0,0.0,9.0,right,1.0,0.2835396000009496,,speed,space,4.208177099993918,,,,,,0.0,1.0,1.0,1.0,9.0,0.0,18.0,1.0,350.5857345999975,,,,,,,,,350.571188300004,350.93529449999915,351.7522825000051,351.7344909000094,351.73478940001223,351.7522825000051,351.7522825000051,351.7522825000051,352.0522612000059,,,,,,,,,,,,,,,,,,,,,,,,,,,,,,right,1.0,0.2835396000009496,,,,,,sub-208,1,random_dot,60.09817637988829,
left,left,19.0,1.0,9.0,right,0.0,0.9875860000029206,,speed,space,4.208177099993918,,,,,,0.0,1.0,1.0,1.0,9.0,1.0,19.0,0.0,352.0670634999988,,,,,,,,,352.0525667000038,353.2655691000109,354.0826032999903,354.06465270000626,354.0649266999972,354.0826032999903,354.0826032999903,354.0826032999903,355.08143220000784,,,,,,,,,,,,,,,,,,,,,,,,,,,,,,right,0.0,0.9875860000029206,,,,,,sub-208,1,random_dot,60.09817637988829,
left,left,20.0,0.0,10.0,right,0.0,0.7805760999908671,,speed,space,4.208177099993918,,,,,,0.0,1.0,1.0,1.0,10.0,0.0,20.0,0.0,355.0964077000099,,,,,,,,,355.0817066000018,356.2948529999994,357.1118134999997,357.0940020999988,357.0943070999929,357.1118134999997,357.1118134999997,357.1118134999997,357.8944152999902,,,,,,,,,,,,,,,,,,,,,,,,,,,,,,right,0.0,0.7805760999908671,,,,,,sub-208,1,random_dot,60.09817637988829,
right,right,21.0,1.0,10.0,left,0.0,0.3067702999978792,,speed,space,4.208177099993918,,,,,,0.0,1.0,1.0,1.0,10.0,1.0,21.0,1.0,357.9093712999893,,,,,,,,,357.89468659998965,358.7083161000046,359.5252515000175,359.507503300003,359.5077986000106,359.5252515000175,359.5252515000175,359.5252515000175,359.84181050001644,,,,,,,,,,,,,,,,,,,,,,,,,,,,,,left,0.0,0.3067702999978792,,,,,,sub-208,1,random_dot,60.09817637988829,
left,left,22.0,0.0,11.0,right,0.0,0.3528665000048931,,speed,space,4.208177099993918,,,,,,0.0,1.0,1.0,1.0,11.0,0.0,22.0,0.0,359.8567770000081,,,,,,,,,359.8421071000048,360.2062666999991,361.0067079,360.9888404000085,360.98912459998974,361.0067079,361.0067079,361.0067079,361.3732463000051,,,,,,,,,,,,,,,,,,,,,,,,,,,,,,right,0.0,0.3528665000048931,,,,,,sub-208,1,random_dot,60.09817637988829,
right,right,23.0,1.0,11.0,left,0.0,0.2559944000095129,,speed,space,4.208177099993918,,,,,,0.0,1.0,1.0,1.0,11.0,1.0,23.0,1.0,361.3880806000088,,,,,,,,,361.3735785000026,361.7376367000106,362.5547423000098,362.5367765999981,362.5370463000145,362.5547423000098,362.5547423000098,362.5547423000098,362.8212511000165,,,,,,,,,,,,,,,,,,,,,,,,,,,,,,left,0.0,0.2559944000095129,,,,,,sub-208,1,random_dot,60.09817637988829,
left,left,24.0,0.0,12.0,right,0.0,0.523537100001704,,speed,space,4.208177099993918,,,,,,0.0,1.0,1.0,1.0,12.0,0.0,24.0,0.0,362.8361250000016,,,,,,,,,362.8215491000156,363.18567430000985,364.0027090999938,363.984877800016,363.9851684000169,364.0027090999938,364.0027090999938,364.0027090999938,364.5356065999949,,,,,,,,,,,,,,,,,,,,,,,,,,,,,,right,0.0,0.523537100001704,,,,,,sub-208,1,random_dot,60.09817637988829,
right,right,25.0,1.0,12.0,left,0.0,0.5966207999736071,,speed,space,4.208177099993918,,,,,,0.0,1.0,1.0,1.0,12.0,1.0,25.0,1.0,364.55056430000695,,,,,,,,,364.5358962000173,365.3494470000151,366.14998770001694,366.1320163999917,366.1322987000167,366.14998770001694,366.14998770001694,366.14998770001694,366.7493741000071,,,,,,,,,,,,,,,,,,,,,,,,,,,,,,left,0.0,0.5966207999736071,,,,,,sub-208,1,random_dot,60.09817637988829,
left,left,26.0,0.0,13.0,right,0.0,0.2390031999966595,,speed,space,4.208177099993918,,,,,,0.0,1.0,1.0,1.0,13.0,0.0,26.0,0.0,366.7643299000047,,,,,,,,,366.7496717000031,367.56321990001015,368.3637365000032,368.3458315000171,368.3460982000106,368.3637365000032,368.3637365000032,368.3637365000032,368.61518540000543,,,,,,,,,,,,,,,,,,,,,,,,,,,,,,right,0.0,0.2390031999966595,,,,,,sub-208,1,random_dot,60.09817637988829,
right,right,27.0,1.0,13.0,right,1.0,1.427151000010781,,speed,space,4.208177099993918,,,,,,0.0,1.0,1.0,1.0,13.0,1.0,27.0,1.0,368.628426500014,,,,,,,,,368.6154568000056,369.4274843000167,370.2444426000002,370.2266605999903,370.22691860000486,370.2444426000002,370.2444426000002,370.2444426000002,371.6764186999935,,,,,,,,,,,,,,,,,,,,,,,,,,,,,,right,1.0,1.427151000010781,,,,,,sub-208,1,random_dot,60.09817637988829,
left,left,28.0,0.0,14.0,right,0.0,1.398938400001498,,speed,space,4.208177099993918,,,,,,0.0,1.0,1.0,1.0,14.0,0.0,28.0,0.0,371.6911687999964,,,,,,,,,371.6768223000108,371.7910596000147,372.6080227000057,372.5901270000031,372.5904295000073,372.6080227000057,372.6080227000057,372.6080227000057,374.0230263000121,,,,,,,,,,,,,,,,,,,,,,,,,,,,,,right,0.0,1.398938400001498,,,,,,sub-208,1,random_dot,60.09817637988829,
right,right,29.0,1.0,14.0,left,0.0,0.8615181999921333,,speed,space,4.208177099993918,,,,,,0.0,1.0,1.0,1.0,14.0,1.0,29.0,1.0,374.037939700007,,,,,,,,,374.0233232000028,374.8370024999895,375.65400700000464,375.63635559999966,375.6367223999987,375.65400700000464,375.65400700000464,375.65400700000464,376.51984749999247,,,,,,,,,,,,,,,,,,,,,,,,,,,,,,left,0.0,0.8615181999921333,,,,,,sub-208,1,random_dot,60.09817637988829,
left,left,30.0,0.0,15.0,right,0.0,0.9082059999927878,,speed,space,4.208177099993918,,,,,,0.0,1.0,1.0,1.0,15.0,0.0,30.0,0.0,376.53475170000456,,,,,,,,,376.5201612999954,377.7332162999956,378.5501631000079,378.5324316000042,378.5327957000118,378.5501631000079,378.5501631000079,378.5501631000079,379.4661160999967,,,,,,,,,,,,,,,,,,,,,,,,,,,,,,right,0.0,0.9082059999927878,,,,,,sub-208,1,random_dot,60.09817637988829,
right,right,31.0,1.0,15.0,right,1.0,1.183729299984407,,speed,space,4.208177099993918,,,,,,0.0,1.0,1.0,1.0,15.0,1.0,31.0,1.0,379.4808888999978,,,,,,,,,379.46649270001217,380.27978730000905,381.096753699996,381.0789566000167,381.0792550999904,381.096753699996,381.096753699996,381.096753699996,382.2953372999909,,,,,,,,,,,,,,,,,,,,,,,,,,,,,,right,1.0,1.183729299984407,,,,,,sub-208,1,random_dot,60.09817637988829,
left,left,32.0,0.0,16.0,right,0.0,1.4777096000034362,,speed,space,4.208177099993918,,,,,,0.0,1.0,1.0,1.0,16.0,0.0,32.0,0.0,382.3103466000175,,,,,,,,,382.29578690000926,382.6598768999975,383.476949200005,383.459032600018,383.45929420000175,383.476949200005,383.476949200005,383.476949200005,384.9587074000156,,,,,,,,,,,,,,,,,,,,,,,,,,,,,,right,0.0,1.4777096000034362,,,,,,sub-208,1,random_dot,60.09817637988829,
right,right,33.0,1.0,16.0,right,1.0,1.6201139999902807,,speed,space,4.208177099993918,,,,,,0.0,1.0,1.0,1.0,16.0,1.0,33.0,1.0,384.97350349999033,,,,,,,,,384.9590190000017,386.1719224000117,386.9724018000125,386.9545849999995,386.9548191000067,386.9724018000125,386.9724018000125,386.9724018000125,388.6038797000074,,,,,,,,,,,,,,,,,,,,,,,,,,,,,,right,1.0,1.6201139999902807,,,,,,sub-208,1,random_dot,60.09817637988829,
left,left,34.0,0.0,17.0,right,0.0,1.1958485000068322,,speed,space,4.208177099993918,,,,,,0.0,1.0,1.0,1.0,17.0,0.0,34.0,0.0,388.61861219999264,,,,,,,,,388.6042007000069,389.8171635000035,390.634195599996,390.6162570000161,390.6165269000048,390.634195599996,390.634195599996,390.634195599996,391.8329606000043,,,,,,,,,,,,,,,,,,,,,,,,,,,,,,right,0.0,1.1958485000068322,,,,,,sub-208,1,random_dot,60.09817637988829,
right,right,35.0,1.0,17.0,left,0.0,0.5863663000054657,,speed,space,4.208177099993918,,,,,,0.0,1.0,1.0,1.0,17.0,1.0,35.0,1.0,391.84773740000674,,,,,,,,,391.8332631000085,392.64666220001527,393.44706579999183,393.42924960001255,393.4295217000181,393.44706579999183,393.44706579999183,393.44706579999183,394.04665910001495,,,,,,,,,,,,,,,,,,,,,,,,,,,,,,left,0.0,0.5863663000054657,,,,,,sub-208,1,random_dot,60.09817637988829,
left,left,36.0,0.0,18.0,right,0.0,0.3564790000091307,,speed,space,4.208177099993918,,,,,,0.0,1.0,1.0,1.0,18.0,0.0,36.0,0.0,394.0613939999894,,,,,,,,,394.0469902000041,395.25994509999873,396.0769287000003,396.0590653000109,396.0593572999933,396.0769287000003,396.0769287000003,396.0769287000003,396.44344930001535,,,,,,,,,,,,,,,,,,,,,,,,,,,,,,right,0.0,0.3564790000091307,,,,,,sub-208,1,random_dot,60.09817637988829,
right,right,37.0,1.0,18.0,left,0.0,0.6956854999880306,,speed,space,4.208177099993918,,,,,,0.0,1.0,1.0,1.0,18.0,1.0,37.0,1.0,396.45827950001694,,,,,,,,,396.4437562999956,397.6567108000163,398.47378210001625,398.4558886000013,398.4561777999916,398.47378210001625,398.47378210001625,398.47378210001625,399.17328540000017,,,,,,,,,,,,,,,,,,,,,,,,,,,,,,left,0.0,0.6956854999880306,,,,,,sub-208,1,random_dot,60.09817637988829,
right,right,38.0,0.0,19.0,right,1.0,0.6921309999888763,,speed,space,4.208177099993918,,,,,,0.0,1.0,1.0,1.0,19.0,0.0,38.0,1.0,399.1880404000112,,,,,,,,,399.1735766000056,400.3863573000126,401.1868521000142,401.1690124000015,401.1692999000079,401.1868521000142,401.1868521000142,401.1868521000142,401.88617820001673,,,,,,,,,,,,,,,,,,,,,,,,,,,,,,right,1.0,0.6921309999888763,,,,,,sub-208,1,random_dot,60.09817637988829,
left,left,39.0,1.0,19.0,right,0.0,0.8211130000127014,,speed,space,4.208177099993918,,,,,,0.0,1.0,1.0,1.0,19.0,1.0,39.0,0.0,401.9011048999964,,,,,,,,,401.88647669999045,402.0009772999911,402.8179683999915,402.8000949000125,402.8003686000011,402.8179683999915,402.8179683999915,402.8179683999915,403.6503974999941,,,,,,,,,,,,,,,,,,,,,,,,,,,,,,right,0.0,0.8211130000127014,,,,,,sub-208,1,random_dot,60.09817637988829,
left,left,40.0,0.0,20.0,right,0.0,1.010964499990223,,speed,space,4.208177099993918,,,,,,0.0,1.0,1.0,1.0,20.0,0.0,40.0,0.0,403.6653417999914,,,,,,,,,403.6506582000002,404.8638535999926,405.6808590000146,405.6630057000148,405.6632796000049,405.6808590000146,405.6808590000146,405.6808590000146,406.6963223000057,,,,,,,,,,,,,,,,,,,,,,,,,,,,,,right,0.0,1.010964499990223,,,,,,sub-208,1,random_dot,60.09817637988829,
right,right,41.0,1.0,20.0,left,0.0,0.4843724999809637,,speed,space,4.208177099993918,,,,,,0.0,1.0,1.0,1.0,20.0,1.0,41.0,1.0,406.7114049000084,,,,,,,,,406.6965743000037,407.0609313000168,407.8780107999919,407.86012279998977,407.8603892000101,407.8780107999919,407.8780107999919,407.8780107999919,408.37762929999735,,,,,,,,,,,,,,,,,,,,,,,,,,,,,,left,0.0,0.4843724999809637,,,,,,sub-208,1,random_dot,60.09817637988829,
right,right,42.0,0.0,21.0,left,0.0,0.7192078000225592,,speed,space,4.208177099993918,,,,,,0.0,1.0,1.0,1.0,21.0,0.0,42.0,1.0,408.3924726000114,,,,,,,,,408.37795140000526,409.19146560001536,410.00853320001625,409.990595900017,409.9908770000038,410.00853320001625,410.00853320001625,410.00853320001625,410.7412462999928,,,,,,,,,,,,,,,,,,,,,,,,,,,,,,left,0.0,0.7192078000225592,,,,,,sub-208,1,random_dot,60.09817637988829,
left,left,43.0,1.0,21.0,right,0.0,1.0543249000038486,,speed,space,4.208177099993918,,,,,,0.0,1.0,1.0,1.0,21.0,1.0,43.0,0.0,410.7560655999987,,,,,,,,,410.7415498000046,411.5550185000175,412.3720538000052,412.3540186000173,412.3542608999997,412.3720538000052,412.3720538000052,412.3720538000052,413.4375527999946,,,,,,,,,,,,,,,,,,,,,,,,,,,,,,right,0.0,1.0543249000038486,,,,,,sub-208,1,random_dot,60.09817637988829,
left,left,44.0,0.0,22.0,left,1.0,0.5505391999904532,,speed,space,4.208177099993918,,,,,,0.0,1.0,1.0,1.0,22.0,0.0,44.0,0.0,413.4524384000106,,,,,,,,,413.4378492000105,414.6508630000171,415.451278499997,415.4334330999991,415.4336808999942,415.451278499997,415.451278499997,415.451278499997,416.0175753000076,,,,,,,,,,,,,,,,,,,,,,,,,,,,,,left,1.0,0.5505391999904532,,,,,,sub-208,1,random_dot,60.09817637988829,
right,right,45.0,1.0,22.0,left,0.0,0.5893562999845017,,speed,space,4.208177099993918,,,,,,0.0,1.0,1.0,1.0,22.0,1.0,45.0,1.0,416.03231060001417,,,,,,,,,416.017921199993,417.2307921000174,418.0311988999893,418.0133420999919,418.0136234000093,418.0311988999893,418.0311988999893,418.0311988999893,418.6307138999982,,,,,,,,,,,,,,,,,,,,,,,,,,,,,,left,0.0,0.5893562999845017,,,,,,sub-208,1,random_dot,60.09817637988829,
right,right,46.0,0.0,23.0,left,0.0,0.6002896999998484,,speed,space,4.208177099993918,,,,,,0.0,1.0,1.0,1.0,23.0,0.0,46.0,1.0,418.64560429999256,,,,,,,,,418.63104370000656,418.74549490000936,419.56247400000575,419.5446448000148,419.5449159000127,419.56247400000575,419.56247400000575,419.56247400000575,420.1784961000085,,,,,,,,,,,,,,,,,,,,,,,,,,,,,,left,0.0,0.6002896999998484,,,,,,sub-208,1,random_dot,60.09817637988829,
left,left,47.0,1.0,23.0,right,0.0,0.2736003999889362,,speed,space,4.208177099993918,,,,,,0.0,1.0,1.0,1.0,23.0,1.0,47.0,0.0,420.1936071999953,,,,,,,,,420.1787152999896,421.39187660001335,422.1924285000132,422.17447430000175,422.1747202000115,422.1924285000132,422.1924285000132,422.1924285000132,422.4756269000063,,,,,,,,,,,,,,,,,,,,,,,,,,,,,,right,0.0,0.2736003999889362,,,,,,sub-208,1,random_dot,60.09817637988829,
left,left,48.0,0.0,24.0,right,0.0,0.7361071999766864,,speed,space,4.208177099993918,,,,,,0.0,1.0,1.0,1.0,24.0,0.0,48.0,0.0,422.4904482999991,,,,,,,,,422.4759594000061,423.2894249999954,424.0897885000159,424.0719854999916,424.07224070001394,424.0897885000159,424.0897885000159,424.0897885000159,424.83903279999504,,,,,,,,,,,,,,,,,,,,,,,,,,,,,,right,0.0,0.7361071999766864,,,,,,sub-208,1,random_dot,60.09817637988829,
right,right,49.0,1.0,24.0,right,1.0,0.6425955999875441,,speed,space,4.208177099993918,,,,,,0.0,1.0,1.0,1.0,24.0,1.0,49.0,1.0,424.8539919000177,,,,,,,,,424.8393216000113,425.2035888000101,426.02047960000345,426.00259360001655,426.0028422999894,426.02047960000345,426.02047960000345,426.02047960000345,426.6699436999916,,,,,,,,,,,,,,,,,,,,,,,,,,,,,,right,1.0,0.6425955999875441,,,,,,sub-208,1,random_dot,60.09817637988829,
left,left,50.0,0.0,25.0,right,0.0,1.06483859999571,,speed,space,4.208177099993918,,,,,,0.0,1.0,1.0,1.0,25.0,0.0,50.0,0.0,426.684900399996,,,,,,,,,426.6702319000033,426.7846897999989,427.5851401000109,427.5672653999936,427.5675345000054,427.5851401000109,427.5851401000109,427.5851401000109,428.6505466999952,,,,,,,,,,,,,,,,,,,,,,,,,,,,,,right,0.0,1.06483859999571,,,,,,sub-208,1,random_dot,60.09817637988829,
right,right,51.0,1.0,25.0,right,1.0,0.7877728999883402,,speed,space,4.208177099993918,,,,,,0.0,1.0,1.0,1.0,25.0,1.0,51.0,1.0,428.6655005000066,,,,,,,,,428.65078140000696,428.7654022999923,429.5824108000088,429.56447780001326,429.5646993000119,429.5824108000088,429.5824108000088,429.5824108000088,430.3817093000107,,,,,,,,,,,,,,,,,,,,,,,,,,,,,,right,1.0,0.7877728999883402,,,,,,sub-208,1,random_dot,60.09817637988829,
right,right,52.0,0.0,26.0,right,1.0,0.7162909000180662,,speed,space,4.208177099993918,,,,,,0.0,1.0,1.0,1.0,26.0,0.0,52.0,1.0,430.3966345000081,,,,,,,,,430.3819958000095,430.49653500001295,431.3136317000026,431.2957450000104,431.2960091000132,431.3136317000026,431.3136317000026,431.3136317000026,432.04620710000745,,,,,,,,,,,,,,,,,,,,,,,,,,,,,,right,1.0,0.7162909000180662,,,,,,sub-208,1,random_dot,60.09817637988829,
left,left,53.0,1.0,26.0,left,1.0,0.6509732999838889,,speed,space,4.208177099993918,,,,,,0.0,1.0,1.0,1.0,26.0,1.0,53.0,0.0,432.0611284000042,,,,,,,,,432.046497000003,432.860079200007,433.6771007000061,433.659286900016,433.6595598999993,433.6771007000061,433.6771007000061,433.6771007000061,434.343171000015,,,,,,,,,,,,,,,,,,,,,,,,,,,,,,left,1.0,0.6509732999838889,,,,,,sub-208,1,random_dot,60.09817637988829,
left,left,54.0,0.0,27.0,right,0.0,0.360546100011561,,speed,space,4.208177099993918,,,,,,0.0,1.0,1.0,1.0,27.0,0.0,54.0,0.0,434.3580870000005,,,,,,,,,434.3434576000145,435.55656309999176,436.3735968999972,436.3557160999917,436.35599999999977,436.3735968999972,436.3735968999972,436.3735968999972,436.7399575000163,,,,,,,,,,,,,,,,,,,,,,,,,,,,,,right,0.0,0.360546100011561,,,,,,sub-208,1,random_dot,60.09817637988829,
right,right,55.0,1.0,27.0,right,1.0,0.7288023000000976,,speed,space,4.208177099993918,,,,,,0.0,1.0,1.0,1.0,27.0,1.0,55.0,1.0,436.75485490000574,,,,,,,,,436.7402214999893,437.9533950999903,438.7703585000127,438.75252810001257,438.7527974999976,438.7703585000127,438.7703585000127,438.7703585000127,439.5030770000012,,,,,,,,,,,,,,,,,,,,,,,,,,,,,,right,1.0,0.7288023000000976,,,,,,sub-208,1,random_dot,60.09817637988829,
right,right,56.0,0.0,28.0,right,1.0,1.6637285000178963,,speed,space,4.208177099993918,,,,,,0.0,1.0,1.0,1.0,28.0,0.0,56.0,1.0,439.5179247999913,,,,,,,,,439.5033458000107,439.617829099996,440.4348589000001,440.4168392000138,440.4170644000114,440.4348589000001,440.4348589000001,440.4348589000001,442.0996047999943,,,,,,,,,,,,,,,,,,,,,,,,,,,,,,right,1.0,1.6637285000178963,,,,,,sub-208,1,random_dot,60.09817637988829,
left,left,57.0,1.0,28.0,left,1.0,1.7520676999993157,,speed,space,4.208177099993918,,,,,,0.0,1.0,1.0,1.0,28.0,1.0,57.0,0.0,442.1144490000152,,,,,,,,,442.0999175000179,443.31291589999455,444.1299633000162,444.1120719000173,444.11234759999206,444.1299633000162,444.1299633000162,444.1299633000162,445.8946213000163,,,,,,,,,,,,,,,,,,,,,,,,,,,,,,left,1.0,1.7520676999993157,,,,,,sub-208,1,random_dot,60.09817637988829,
right,right,58.0,0.0,29.0,left,0.0,1.0941677000082564,,speed,space,4.208177099993918,,,,,,0.0,1.0,1.0,1.0,29.0,0.0,58.0,1.0,445.9094539000071,,,,,,,,,445.8949076000136,446.2589785000018,447.076097400015,447.05820140001015,447.05845800001407,447.076097400015,447.076097400015,447.076097400015,448.1747597999929,,,,,,,,,,,,,,,,,,,,,,,,,,,,,,left,0.0,1.0941677000082564,,,,,,sub-208,1,random_dot,60.09817637988829,
left,left,59.0,1.0,29.0,right,0.0,1.1459143999964,,speed,space,4.208177099993918,,,,,,0.0,1.0,1.0,1.0,29.0,1.0,59.0,0.0,448.1897198999941,,,,,,,,,448.17504060000647,449.38823139999295,450.205274500011,450.1873451000138,450.1876090000151,450.205274500011,450.205274500011,450.205274500011,451.35398590000113,,,,,,,,,,,,,,,,,,,,,,,,,,,,,,right,0.0,1.1459143999964,,,,,,sub-208,1,random_dot,60.09817637988829,
,,1.0,1.0,0.0,,,,,speed,space,4.208177099993918,,,,,,0.0,1.0,1.0,1.0,,,,,,,,,,,,,,,,,,,,,,,,,,,,,,,,,,,,,,,,,,,,,,,,,,,,,,,,,,,,sub-208,1,random_dot,60.09817637988829,
,,,,,,,,,,,,,,,,,,,,,,,,,,,,,,,,,,,,,,,,,,,,,,,,,,,,,,,,,,,,,,,,,,,,,,,,,,,,,451.3579618000076,451.3690185000014,456.3626087000012,sub-208,1,random_dot,60.09817637988829,
