direction,corrAns,randomInstr,practice_trials.thisRepN,practice_trials.thisTrialN,practice_trials.thisN,practice_trials.thisIndex,instr_trials.thisRepN,instr_trials.thisTrialN,instr_trials.thisN,instr_trials.thisIndex,test_trials.thisRepN,test_trials.thisTrialN,test_trials.thisN,test_trials.thisIndex,thisRow.t,notes,general_instruction.started,textGeneralInstr.started,respGeneralInstr.started,general_instruction.stopped,respGeneralInstr.keys,respGeneralInstr.rt,respGeneralInstr.duration,ITI.started,fixcross.started,fixcross.stopped,ITI.stopped,dots.started,backgroundDots.started,stimulusDots.started,respDots.started,stimulusDots.stopped,dots.stopped,respDots.keys,respDots.corr,respDots.rt,respDots.duration,feedback.started,textFeedback.started,feedback.stopped,textFeedback.stopped,info.started,textInfo.started,keyRespInfo.started,info.stopped,keyRespInfo.keys,keyRespInfo.rt,keyRespInfo.duration,test_instruction.started,textTestInstr.started,respTestInstr.started,test_instruction.stopped,respTestInstr.keys,respTestInstr.rt,respTestInstr.duration,random_instruction.started,textRandomInstr.started,respRandomInstr.started,random_instruction.stopped,respRandomInstr.keys,respRandomInstr.rt,respRandomInstr.duration,goodbye.started,textGoodbye.started,textGoodbye.stopped,goodbye.stopped,participant,session,date,expName,psychopyVersion,frameRate,expStart
,,,,,,,,,,,,,,,,,0.0063692,0.0113118,0.0113118,35.2239593,space,65.6712629,None,,,,,,,,,,,,,,,,,,,,,,,,,,,,,,,,,,,,,,,,,,,,sub-009,1,2025-03-13_13h35.53.489,random_dot,03.02.2023,60.10955566,2025-03-13 13h36.17.225042 +0100
right,right,,0,0,0,1,,,,,,,,,35.2468651,,,,,,,,,35.2435154,36.0349426,36.8514472,36.8197641,36.8198261,36.8514472,36.8514472,36.8514472,41.8354559,50.1214371,right,1,43.7267472,None,50.124301,50.1414432,50.6343892,,,,,,,,,,,,,,,,,,,,,,,,,,,sub-009,1,2025-03-13_13h35.53.489,random_dot,03.02.2023,60.10955566,2025-03-13 13h36.17.225042 +0100
left,left,,0,1,1,0,,,,,,,,,50.6512985,,,,,,,,,50.6354264,50.9846476,51.7847988,51.7689587,51.7690052,51.7847988,51.7847988,51.7847988,,55.005132,left,1,33.6787828,None,55.0069436,55.0177318,55.5027802,55.517917,,,,,,,,,,,,,,,,,,,,,,,,,,sub-009,1,2025-03-13_13h35.53.489,random_dot,03.02.2023,60.10955566,2025-03-13 13h36.17.225042 +0100
right,right,,1,0,2,1,,,,,,,,,55.517917,,,,,,,,,55.5038688,56.3176826,57.1182362,57.1025582,57.1026157,57.1182362,57.1182362,57.1182362,,58.2524187,right,1,31.5813223,None,58.2532468,58.2672245,58.7523407,58.767447,,,,,,,,,,,,,,,,,,,,,,,,,,sub-009,1,2025-03-13_13h35.53.489,random_dot,03.02.2023,60.10955566,2025-03-13 13h36.17.225042 +0100
left,left,,1,1,3,0,,,,,,,,,58.767447,,,,,,,,,58.7532145,59.9671746,60.7679779,60.7523456,60.7524019,60.7679779,60.7679779,60.7679779,,63.5530597,left,1,33.2404738,None,63.5540505,63.56697,64.0523902,64.0670803,,,,,,,,,,,,,,,,,,,,,,,,,,sub-009,1,2025-03-13_13h35.53.489,random_dot,03.02.2023,60.10955566,2025-03-13 13h36.17.225042 +0100
right,right,,2,0,4,1,,,,,,,,,64.0670803,,,,,,,,,64.0534644,64.1673609,64.9675023,64.9515244,64.9516191,64.9675023,64.9675023,64.9675023,,67.0201942,right,1,32.5077205,None,67.0212143,67.0334695,67.5186231,67.5338126,,,,,,,,,,,,,,,,,,,,,,,,,,sub-009,1,2025-03-13_13h35.53.489,random_dot,03.02.2023,60.10955566,2025-03-13 13h36.17.225042 +0100
left,left,,2,1,5,0,,,,,,,,,67.5338126,,,,,,,,,67.5195509,67.633528,68.4339981,68.4177806,68.4178293,68.4339981,68.4339981,68.4339981,,70.552018,left,1,32.5773253,None,70.5528471,70.566637,71.0517655,71.0669845,,,,,,,,,,,,,,,,,,,,,,,,,,sub-009,1,2025-03-13_13h35.53.489,random_dot,03.02.2023,60.10955566,2025-03-13 13h36.17.225042 +0100
left,left,,3,0,6,0,,,,,,,,,71.0669845,,,,,,,,,71.0526529,71.4170923,72.2171102,72.2016479,72.201691,72.2171102,72.2171102,72.2171102,,74.3185388,right,0,32.5515101,None,74.3193635,74.3327356,74.818291,74.8333598,,,,,,,,,,,,,,,,,,,,,,,,,,sub-009,1,2025-03-13_13h35.53.489,random_dot,03.02.2023,60.10955566,2025-03-13 13h36.17.225042 +0100
right,right,,3,1,7,1,,,,,,,,,74.8333598,,,,,,,,,74.8193272,76.0329843,76.8334527,76.817937,76.8180702,76.8334527,76.8334527,76.8334527,,79.4853622,right,1,33.1061648,None,79.4863644,79.4992235,79.9841285,79.9995208,,,,,,,,,,,,,,,,,,,,,,,,,,sub-009,1,2025-03-13_13h35.53.489,random_dot,03.02.2023,60.10955566,2025-03-13 13h36.17.225042 +0100
left,left,,4,0,8,0,,,,,,,,,79.9995208,,,,,,,,,79.9850465,80.099842,80.8999551,80.8843768,80.8844343,80.8999551,80.8999551,80.8999551,,84.8364029,left,1,34.3955921,None,84.8381629,84.8490475,85.3340825,85.3493381,,,,,,,,,,,,,,,,,,,,,,,,,,sub-009,1,2025-03-13_13h35.53.489,random_dot,03.02.2023,60.10955566,2025-03-13 13h36.17.225042 +0100
right,right,,4,1,9,1,,,,,,,,,85.3493381,,,,,,,,,85.3350414,85.6991169,86.5001202,86.484602,86.4846512,86.5001202,86.5001202,86.5001202,,90.6516029,right,1,34.5994748,None,90.6523468,90.6656249,91.1512312,91.1656412,,,,,,,,,,,,,,,,,,,,,,,,,,sub-009,1,2025-03-13_13h35.53.489,random_dot,03.02.2023,60.10955566,2025-03-13 13h36.17.225042 +0100
left,left,,5,0,10,0,,,,,,,,,91.1656412,,,,,,,,,91.1527536,91.5158902,92.3160576,92.3005092,92.300575,92.3160576,92.3160576,92.3160576,,94.8018799,left,1,32.9375008,None,94.8029547,94.8154469,95.3009789,95.3158879,,,,,,,,,,,,,,,,,,,,,,,,,,sub-009,1,2025-03-13_13h35.53.489,random_dot,03.02.2023,60.10955566,2025-03-13 13h36.17.225042 +0100
right,right,,5,1,11,1,,,,,,,,,95.3158879,,,,,,,,,95.3022706,96.1152496,96.9159742,96.9003169,96.9003707,96.9159742,96.9159742,96.9159742,,100.2177465,left,0,33.751444,None,100.218711,100.2315532,100.7171483,100.7318429,,,,,,,,,,,,,,,,,,,,,,,,,,sub-009,1,2025-03-13_13h35.53.489,random_dot,03.02.2023,60.10955566,2025-03-13 13h36.17.225042 +0100
right,right,,6,0,12,1,,,,,,,,,100.7318429,,,,,,,,,100.7180838,100.8318013,101.6324186,101.6166164,101.6166752,101.6324186,101.6324186,101.6324186,,103.5676437,left,0,32.3811603,None,103.5685129,103.5820164,104.0657318,104.0814467,,,,,,,,,,,,,,,,,,,,,,,,,,sub-009,1,2025-03-13_13h35.53.489,random_dot,03.02.2023,60.10955566,2025-03-13 13h36.17.225042 +0100
left,left,,6,1,13,0,,,,,,,,,104.0814467,,,,,,,,,104.0662394,104.8816414,105.6820295,105.6658305,105.6658715,105.6820295,105.6820295,105.6820295,,107.9000874,left,1,32.6756535,None,107.9008182,107.9144804,108.4001282,108.4145073,,,,,,,,,,,,,,,,,,,,,,,,,,sub-009,1,2025-03-13_13h35.53.489,random_dot,03.02.2023,60.10955566,2025-03-13 13h36.17.225042 +0100
right,right,,7,0,14,1,,,,,,,,,108.4145073,,,,,,,,,108.4012238,109.6147767,110.4151437,110.3997891,110.3998411,110.4151437,110.4151437,110.4151437,115.4158153,116.650071,left,0,36.6882028,None,116.6509221,116.6639839,117.1481871,117.1640556,,,,,,,,,,,,,,,,,,,,,,,,,,sub-009,1,2025-03-13_13h35.53.489,random_dot,03.02.2023,60.10955566,2025-03-13 13h36.17.225042 +0100
left,left,,7,1,15,0,,,,,,,,,117.1640556,,,,,,,,,117.1488556,117.9644507,118.7651234,118.7492641,118.749327,118.7651234,118.7651234,118.7651234,,120.6162633,left,1,32.3056335,None,120.6171795,120.6305826,121.1162681,121.1307511,,,,,,,,,,,,,,,,,,,,,,,,,,sub-009,1,2025-03-13_13h35.53.489,random_dot,03.02.2023,60.10955566,2025-03-13 13h36.17.225042 +0100
right,right,,8,0,16,1,,,,,,,,,121.1307511,,,,,,,,,121.1174014,121.9309343,122.7316727,122.7157347,122.7157797,122.7316727,122.7316727,122.7316727,,123.5162655,right,1,31.2347609,None,123.517273,123.5305281,124.015535,124.030423,,,,,,,,,,,,,,,,,,,,,,,,,,sub-009,1,2025-03-13_13h35.53.489,random_dot,03.02.2023,60.10955566,2025-03-13 13h36.17.225042 +0100
left,left,,8,1,17,0,,,,,,,,,124.030423,,,,,,,,,124.0165402,125.2307279,126.0311995,126.0155584,126.0156081,126.0311995,126.0311995,126.0311995,,128.9163908,left,1,33.3309039,None,128.917533,128.9305434,129.4154112,129.4302268,,,,,,,,,,,,,,,,,,,,,,,,,,sub-009,1,2025-03-13_13h35.53.489,random_dot,03.02.2023,60.10955566,2025-03-13 13h36.17.225042 +0100
right,right,,9,0,18,1,,,,,,,,,129.4302268,,,,,,,,,129.4164007,129.5305538,130.3313186,130.3151819,130.3152309,130.3313186,130.3313186,130.3313186,,131.1999007,right,1,31.3190802,None,131.2007877,131.2134138,131.6983509,131.7136234,,,,,,,,,,,,,,,,,,,,,,,,,,sub-009,1,2025-03-13_13h35.53.489,random_dot,03.02.2023,60.10955566,2025-03-13 13h36.17.225042 +0100
left,left,,9,1,19,0,,,,,,,,,131.7136234,,,,,,,,,131.6990744,131.8134746,132.6139465,132.5979234,132.5979665,132.6139465,132.6139465,132.6139465,,133.8989286,left,1,31.7380272,None,133.899801,133.9132729,134.3990928,134.413502,,,,,,,,,,,,,,,,,,,,,,,,,,sub-009,1,2025-03-13_13h35.53.489,random_dot,03.02.2023,60.10955566,2025-03-13 13h36.17.225042 +0100
,,,,,,,,,,,,,,,,,,,,,,,,,,,,,,,,,,,,,,,,,,134.3992407,134.413502,134.413502,143.4654163,space,39.5031612,None,,,,,,,,,,,,,,,,,,,sub-009,1,2025-03-13_13h35.53.489,random_dot,03.02.2023,60.10955566,2025-03-13 13h36.17.225042 +0100
,,,,,,,,,,,,,,,,,,,,,,,,,,,,,,,,,,,,,,,,,,,,,,,,,143.4654834,143.4798881,143.4798881,153.6146687,space,40.5849454,None,,,,,,,,,,,,sub-009,1,2025-03-13_13h35.53.489,random_dot,03.02.2023,60.10955566,2025-03-13 13h36.17.225042 +0100
right,right,speed,,,,,0,0,0,1,0,0,0,1,160.9616718,,,,,,,,,160.9527197,161.0616413,161.8624448,161.8456183,161.8456456,161.8624448,161.8624448,161.8624448,,163.0310385,right,1,31.6185923,None,,,,,,,,,,,,,,,,,,,153.622957,153.6490457,153.6490457,160.9460905,space,37.7450949,None,,,,,sub-009,1,2025-03-13_13h35.53.489,random_dot,03.02.2023,60.10955566,2025-03-13 13h36.17.225042 +0100
left,left,speed,,,,,0,0,0,1,0,1,1,0,163.0451545,,,,,,,,,163.0339852,163.1450192,163.9459233,163.9304426,163.9304986,163.9459233,163.9459233,163.9459233,,164.8471339,left,1,31.3574971,None,,,,,,,,,,,,,,,,,,,,,,,,,,,,,,sub-009,1,2025-03-13_13h35.53.489,random_dot,03.02.2023,60.10955566,2025-03-13 13h36.17.225042 +0100
right,right,speed,,,,,0,0,0,1,1,0,2,1,164.8618684,,,,,,,,,164.8484009,166.0621207,166.8625101,166.8467268,166.8468024,166.8625101,166.8625101,166.8625101,,169.0653207,left,0,32.6591981,None,,,,,,,,,,,,,,,,,,,,,,,,,,,,,,sub-009,1,2025-03-13_13h35.53.489,random_dot,03.02.2023,60.10955566,2025-03-13 13h36.17.225042 +0100
left,left,speed,,,,,0,0,0,1,1,1,3,0,169.0781369,,,,,,,,,169.0676438,170.2784128,171.0792116,171.0639168,171.06396,171.0792116,171.0792116,171.0792116,,172.3978672,right,0,31.7737111,None,,,,,,,,,,,,,,,,,,,,,,,,,,,,,,sub-009,1,2025-03-13_13h35.53.489,random_dot,03.02.2023,60.10955566,2025-03-13 13h36.17.225042 +0100
right,right,speed,,,,,0,0,0,1,2,0,4,1,172.4114636,,,,,,,,,172.4005538,173.2117828,174.0120512,173.9961596,173.9962163,174.0120512,174.0120512,174.0120512,,174.814485,left,0,31.2596039,None,,,,,,,,,,,,,,,,,,,,,,,,,,,,,,sub-009,1,2025-03-13_13h35.53.489,random_dot,03.02.2023,60.10955566,2025-03-13 13h36.17.225042 +0100
left,left,speed,,,,,0,0,0,1,2,1,5,0,174.8280394,,,,,,,,,174.8167296,175.1782549,175.9784785,175.9629831,175.9630814,175.9784785,175.9784785,175.9784785,,178.6305816,right,0,33.0998423,None,,,,,,,,,,,,,,,,,,,,,,,,,,,,,,sub-009,1,2025-03-13_13h35.53.489,random_dot,03.02.2023,60.10955566,2025-03-13 13h36.17.225042 +0100
left,left,speed,,,,,0,0,0,1,3,0,6,0,178.6444917,,,,,,,,,178.6328929,179.8448244,180.6450524,180.6297906,180.6298387,180.6450524,180.6450524,180.6450524,,181.8309309,left,1,31.6460545,None,,,,,,,,,,,,,,,,,,,,,,,,,,,,,,sub-009,1,2025-03-13_13h35.53.489,random_dot,03.02.2023,60.10955566,2025-03-13 13h36.17.225042 +0100
right,right,speed,,,,,0,0,0,1,3,1,7,1,181.8443219,,,,,,,,,181.8332403,182.6446702,183.4448639,183.4284712,183.4285001,183.4448639,183.4448639,183.4448639,,186.1630458,right,1,33.1726862,None,,,,,,,,,,,,,,,,,,,,,,,,,,,,,,sub-009,1,2025-03-13_13h35.53.489,random_dot,03.02.2023,60.10955566,2025-03-13 13h36.17.225042 +0100
left,left,speed,,,,,0,0,0,1,4,0,8,0,186.1775417,,,,,,,,,186.1652186,186.5277438,187.3285865,187.312545,187.3125883,187.3285865,187.3285865,187.3285865,,188.5311515,right,0,31.659594,None,,,,,,,,,,,,,,,,,,,,,,,,,,,,,,sub-009,1,2025-03-13_13h35.53.489,random_dot,03.02.2023,60.10955566,2025-03-13 13h36.17.225042 +0100
right,right,speed,,,,,0,0,0,1,4,1,9,1,188.5438927,,,,,,,,,188.5347885,188.6440129,189.4446245,189.4289119,189.4289578,189.4446245,189.4446245,189.4446245,,190.3799825,left,0,31.3813719,None,,,,,,,,,,,,,,,,,,,,,,,,,,,,,,sub-009,1,2025-03-13_13h35.53.489,random_dot,03.02.2023,60.10955566,2025-03-13 13h36.17.225042 +0100
left,left,speed,,,,,0,0,0,1,5,0,10,0,190.3939277,,,,,,,,,190.3823069,190.4941789,191.2945898,191.2788984,191.2789443,191.2945898,191.2945898,191.2945898,,193.1293879,left,1,32.2858873,None,,,,,,,,,,,,,,,,,,,,,,,,,,,,,,sub-009,1,2025-03-13_13h35.53.489,random_dot,03.02.2023,60.10955566,2025-03-13 13h36.17.225042 +0100
right,right,speed,,,,,0,0,0,1,5,1,11,1,193.1436313,,,,,,,,,193.131116,193.4937176,194.2940932,194.2789811,194.2790434,194.2940932,194.2940932,194.2940932,,194.9620777,right,1,31.1258901,None,,,,,,,,,,,,,,,,,,,,,,,,,,,,,,sub-009,1,2025-03-13_13h35.53.489,random_dot,03.02.2023,60.10955566,2025-03-13 13h36.17.225042 +0100
right,right,speed,,,,,0,0,0,1,6,0,12,1,194.9770704,,,,,,,,,194.9635922,195.777124,196.5774331,196.5618229,196.5618631,196.5774331,196.5774331,196.5774331,,197.412989,right,1,31.2864575,None,,,,,,,,,,,,,,,,,,,,,,,,,,,,,,sub-009,1,2025-03-13_13h35.53.489,random_dot,03.02.2023,60.10955566,2025-03-13 13h36.17.225042 +0100
left,left,speed,,,,,0,0,0,1,6,1,13,0,197.4268341,,,,,,,,,197.4151588,197.5267848,198.327815,198.3122362,198.3122841,198.327815,198.327815,198.327815,,200.0799589,left,1,32.2015109,None,,,,,,,,,,,,,,,,,,,,,,,,,,,,,,sub-009,1,2025-03-13_13h35.53.489,random_dot,03.02.2023,60.10955566,2025-03-13 13h36.17.225042 +0100
left,left,speed,,,,,0,0,0,1,7,0,14,0,200.0931878,,,,,,,,,200.0822121,201.2933916,202.0941672,202.0782713,202.0783276,202.0941672,202.0941672,202.0941672,,204.8952,right,0,33.259709,None,,,,,,,,,,,,,,,,,,,,,,,,,,,,,,sub-009,1,2025-03-13_13h35.53.489,random_dot,03.02.2023,60.10955566,2025-03-13 13h36.17.225042 +0100
right,right,speed,,,,,0,0,0,1,7,1,15,1,204.9097041,,,,,,,,,204.8967818,206.1100302,206.9107226,206.8952996,206.8953506,206.9107226,206.9107226,206.9107226,,207.762452,left,0,31.3077535,None,,,,,,,,,,,,,,,,,,,,,,,,,,,,,,sub-009,1,2025-03-13_13h35.53.489,random_dot,03.02.2023,60.10955566,2025-03-13 13h36.17.225042 +0100
right,right,speed,,,,,0,0,0,1,8,0,16,1,207.7764683,,,,,,,,,207.7641978,207.876422,208.6768194,208.6613259,208.6613945,208.6768194,208.6768194,208.6768194,,209.6955134,right,1,31.4643864,None,,,,,,,,,,,,,,,,,,,,,,,,,,,,,,sub-009,1,2025-03-13_13h35.53.489,random_dot,03.02.2023,60.10955566,2025-03-13 13h36.17.225042 +0100
left,left,speed,,,,,0,0,0,1,8,1,17,0,209.7093007,,,,,,,,,209.698183,210.5099149,211.3102799,211.294692,211.2947431,211.3102799,211.3102799,211.3102799,,212.6946301,left,1,31.8313701,None,,,,,,,,,,,,,,,,,,,,,,,,,,,,,,sub-009,1,2025-03-13_13h35.53.489,random_dot,03.02.2023,60.10955566,2025-03-13 13h36.17.225042 +0100
right,right,speed,,,,,0,0,0,1,9,0,18,1,212.7090875,,,,,,,,,212.6966006,213.9095192,214.7101607,214.6942661,214.6943103,214.7101607,214.7101607,214.7101607,,215.4291666,right,1,31.1716213,None,,,,,,,,,,,,,,,,,,,,,,,,,,,,,,sub-009,1,2025-03-13_13h35.53.489,random_dot,03.02.2023,60.10955566,2025-03-13 13h36.17.225042 +0100
left,left,speed,,,,,0,0,0,1,9,1,19,0,215.4426026,,,,,,,,,215.4315553,216.6426798,217.4429859,217.427879,217.4279433,217.4429859,217.4429859,217.4429859,,218.213395,left,1,31.2303466,None,,,,,,,,,,,,,,,,,,,,,,,,,,,,,,sub-009,1,2025-03-13_13h35.53.489,random_dot,03.02.2023,60.10955566,2025-03-13 13h36.17.225042 +0100
right,right,speed,,,,,0,0,0,1,10,0,20,1,218.225765,,,,,,,,,218.2160817,218.5759452,219.3765386,219.3601369,219.3601723,219.3765386,219.3765386,219.3765386,,220.1286205,right,1,31.1987388,None,,,,,,,,,,,,,,,,,,,,,,,,,,,,,,sub-009,1,2025-03-13_13h35.53.489,random_dot,03.02.2023,60.10955566,2025-03-13 13h36.17.225042 +0100
left,left,speed,,,,,0,0,0,1,10,1,21,0,220.1422061,,,,,,,,,220.1317205,220.9425636,221.7427456,221.7267376,221.7267953,221.7427456,221.7427456,221.7427456,,222.4291604,right,0,31.1423098,None,,,,,,,,,,,,,,,,,,,,,,,,,,,,,,sub-009,1,2025-03-13_13h35.53.489,random_dot,03.02.2023,60.10955566,2025-03-13 13h36.17.225042 +0100
left,left,speed,,,,,0,0,0,1,11,0,22,0,222.4422112,,,,,,,,,222.4313192,223.6425235,224.4430101,224.4269976,224.4270635,224.4430101,224.4430101,224.4430101,,225.177787,left,1,31.1815947,None,,,,,,,,,,,,,,,,,,,,,,,,,,,,,,sub-009,1,2025-03-13_13h35.53.489,random_dot,03.02.2023,60.10955566,2025-03-13 13h36.17.225042 +0100
right,right,speed,,,,,0,0,0,1,11,1,23,1,225.1920403,,,,,,,,,225.1795819,225.2921792,226.0929516,226.0770788,226.0771333,226.0929516,226.0929516,226.0929516,,227.5785616,left,0,31.9361099,None,,,,,,,,,,,,,,,,,,,,,,,,,,,,,,sub-009,1,2025-03-13_13h35.53.489,random_dot,03.02.2023,60.10955566,2025-03-13 13h36.17.225042 +0100
right,right,speed,,,,,0,0,0,1,12,0,24,1,227.5917771,,,,,,,,,227.5809809,227.9418395,228.7425471,228.7269125,228.7269528,228.7425471,228.7425471,228.7425471,,230.5434072,right,1,32.2515441,None,,,,,,,,,,,,,,,,,,,,,,,,,,,,,,sub-009,1,2025-03-13_13h35.53.489,random_dot,03.02.2023,60.10955566,2025-03-13 13h36.17.225042 +0100
left,left,speed,,,,,0,0,0,1,12,1,25,0,230.558425,,,,,,,,,230.5447153,230.9087588,231.7094322,231.6937016,231.693749,231.7094322,231.7094322,231.7094322,,232.9963383,right,0,31.745916,None,,,,,,,,,,,,,,,,,,,,,,,,,,,,,,sub-009,1,2025-03-13_13h35.53.489,random_dot,03.02.2023,60.10955566,2025-03-13 13h36.17.225042 +0100
right,right,speed,,,,,0,0,0,1,13,0,26,1,233.0081446,,,,,,,,,232.9990963,233.3584571,234.1593022,234.1430926,234.1431924,234.1593022,234.1593022,234.1593022,,236.0460823,left,0,32.3461385,None,,,,,,,,,,,,,,,,,,,,,,,,,,,,,,sub-009,1,2025-03-13_13h35.53.489,random_dot,03.02.2023,60.10955566,2025-03-13 13h36.17.225042 +0100
left,left,speed,,,,,0,0,0,1,13,1,27,0,236.0579814,,,,,,,,,236.049505,236.4081709,237.2086497,237.1929866,237.1930323,237.2086497,237.2086497,237.2086497,,238.8945446,left,1,32.1464956,None,,,,,,,,,,,,,,,,,,,,,,,,,,,,,,sub-009,1,2025-03-13_13h35.53.489,random_dot,03.02.2023,60.10955566,2025-03-13 13h36.17.225042 +0100
left,left,speed,,,,,0,0,0,1,14,0,28,0,238.9078912,,,,,,,,,238.8965628,239.7082841,240.5085069,240.4930352,240.4931342,240.5085069,240.5085069,240.5085069,,241.6609799,right,0,31.6022307,None,,,,,,,,,,,,,,,,,,,,,,,,,,,,,,sub-009,1,2025-03-13_13h35.53.489,random_dot,03.02.2023,60.10955566,2025-03-13 13h36.17.225042 +0100
right,right,speed,,,,,0,0,0,1,14,1,29,1,241.674663,,,,,,,,,241.6632448,242.4748877,243.2752129,243.2589239,243.2589639,243.2752129,243.2752129,243.2752129,,246.2785431,left,0,33.4630037,None,,,,,,,,,,,,,,,,,,,,,,,,,,,,,,sub-009,1,2025-03-13_13h35.53.489,random_dot,03.02.2023,60.10955566,2025-03-13 13h36.17.225042 +0100
left,left,speed,,,,,0,0,0,1,15,0,30,0,246.2911543,,,,,,,,,246.2804822,247.091406,247.8920735,247.8761116,247.8761561,247.8920735,247.8920735,247.8920735,,249.2260491,right,0,31.7923302,None,,,,,,,,,,,,,,,,,,,,,,,,,,,,,,sub-009,1,2025-03-13_13h35.53.489,random_dot,03.02.2023,60.10955566,2025-03-13 13h36.17.225042 +0100
right,right,speed,,,,,0,0,0,1,15,1,31,1,249.2409778,,,,,,,,,249.2273701,249.3409595,250.141441,250.1261416,250.1261868,250.141441,250.141441,250.141441,,250.9772834,left,0,31.2965211,None,,,,,,,,,,,,,,,,,,,,,,,,,,,,,,sub-009,1,2025-03-13_13h35.53.489,random_dot,03.02.2023,60.10955566,2025-03-13 13h36.17.225042 +0100
left,left,speed,,,,,0,0,0,1,16,0,32,0,250.9909543,,,,,,,,,250.9792169,251.0912791,251.8915835,251.8761552,251.8762029,251.8915835,251.8915835,251.8915835,,254.1440333,right,0,32.7012265,None,,,,,,,,,,,,,,,,,,,,,,,,,,,,,,sub-009,1,2025-03-13_13h35.53.489,random_dot,03.02.2023,60.10955566,2025-03-13 13h36.17.225042 +0100
right,right,speed,,,,,0,0,0,1,16,1,33,1,254.1575391,,,,,,,,,254.1466569,255.3570662,256.1581896,256.1425215,256.1425782,256.1581896,256.1581896,256.1581896,,256.9759305,right,1,31.2646156,None,,,,,,,,,,,,,,,,,,,,,,,,,,,,,,sub-009,1,2025-03-13_13h35.53.489,random_dot,03.02.2023,60.10955566,2025-03-13 13h36.17.225042 +0100
right,right,speed,,,,,0,0,0,1,17,0,34,1,256.9907708,,,,,,,,,256.9778525,257.0903521,257.8911652,257.8752901,257.8753467,257.8911652,257.8911652,257.8911652,,259.4434559,left,0,32.0015168,None,,,,,,,,,,,,,,,,,,,,,,,,,,,,,,sub-009,1,2025-03-13_13h35.53.489,random_dot,03.02.2023,60.10955566,2025-03-13 13h36.17.225042 +0100
left,left,speed,,,,,0,0,0,1,17,1,35,0,259.4569836,,,,,,,,,259.4456677,260.6569519,261.457658,261.4418324,261.4418767,261.457658,261.457658,261.457658,,263.1763743,right,0,32.1790549,None,,,,,,,,,,,,,,,,,,,,,,,,,,,,,,sub-009,1,2025-03-13_13h35.53.489,random_dot,03.02.2023,60.10955566,2025-03-13 13h36.17.225042 +0100
left,left,speed,,,,,0,0,0,1,18,0,36,0,263.1904349,,,,,,,,,263.1783097,263.5403518,264.3407687,264.3249333,264.3249985,264.3407687,264.3407687,264.3407687,,265.942406,left,1,32.0569951,None,,,,,,,,,,,,,,,,,,,,,,,,,,,,,,sub-009,1,2025-03-13_13h35.53.489,random_dot,03.02.2023,60.10955566,2025-03-13 13h36.17.225042 +0100
right,right,speed,,,,,0,0,0,1,18,1,37,1,265.9566217,,,,,,,,,265.944441,266.0567735,266.8574003,266.8415034,266.8415667,266.8574003,266.8574003,266.8574003,,268.4764908,right,1,32.0751239,None,,,,,,,,,,,,,,,,,,,,,,,,,,,,,,sub-009,1,2025-03-13_13h35.53.489,random_dot,03.02.2023,60.10955566,2025-03-13 13h36.17.225042 +0100
left,left,speed,,,,,0,0,0,1,19,0,38,0,268.4896954,,,,,,,,,268.4795801,269.2898858,270.0903477,270.074073,270.0741176,270.0903477,270.0903477,270.0903477,,271.1926589,right,0,31.5625331,None,,,,,,,,,,,,,,,,,,,,,,,,,,,,,,sub-009,1,2025-03-13_13h35.53.489,random_dot,03.02.2023,60.10955566,2025-03-13 13h36.17.225042 +0100
right,right,speed,,,,,0,0,0,1,19,1,39,1,271.2066068,,,,,,,,,271.1943344,271.3067213,272.107378,272.0915696,272.0916346,272.107378,272.107378,272.107378,,273.7759268,left,0,32.1241853,None,,,,,,,,,,,,,,,,,,,,,,,,,,,,,,sub-009,1,2025-03-13_13h35.53.489,random_dot,03.02.2023,60.10955566,2025-03-13 13h36.17.225042 +0100
right,right,speed,,,,,0,0,0,1,20,0,40,1,273.7897525,,,,,,,,,273.7778097,274.5897528,275.39054,275.3746229,275.3746745,275.39054,275.39054,275.39054,,276.9918049,right,1,32.0569083,None,,,,,,,,,,,,,,,,,,,,,,,,,,,,,,sub-009,1,2025-03-13_13h35.53.489,random_dot,03.02.2023,60.10955566,2025-03-13 13h36.17.225042 +0100
left,left,speed,,,,,0,0,0,1,20,1,41,0,277.0060018,,,,,,,,,276.9936868,278.2060652,279.0068777,278.991345,278.9914061,279.0068777,279.0068777,279.0068777,,281.9581928,right,0,33.4046075,None,,,,,,,,,,,,,,,,,,,,,,,,,,,,,,sub-009,1,2025-03-13_13h35.53.489,random_dot,03.02.2023,60.10955566,2025-03-13 13h36.17.225042 +0100
right,right,speed,,,,,0,0,0,1,21,0,42,1,281.9724283,,,,,,,,,281.9602494,282.772637,283.5734005,283.5576132,283.5576586,283.5734005,283.5734005,283.5734005,,285.2247595,left,0,32.1041619,None,,,,,,,,,,,,,,,,,,,,,,,,,,,,,,sub-009,1,2025-03-13_13h35.53.489,random_dot,03.02.2023,60.10955566,2025-03-13 13h36.17.225042 +0100
left,left,speed,,,,,0,0,0,1,21,1,43,0,285.2389257,,,,,,,,,285.2268982,285.5891318,286.3894459,286.3744548,286.3745021,286.3894459,286.3894459,286.3894459,,288.0419679,right,0,32.1075857,None,,,,,,,,,,,,,,,,,,,,,,,,,,,,,,sub-009,1,2025-03-13_13h35.53.489,random_dot,03.02.2023,60.10955566,2025-03-13 13h36.17.225042 +0100
left,left,speed,,,,,0,0,0,1,22,0,44,0,288.0554533,,,,,,,,,288.0438336,288.8558263,289.6559497,289.6408469,289.6409112,289.6559497,289.6559497,289.6559497,,290.908277,left,1,31.7070939,None,,,,,,,,,,,,,,,,,,,,,,,,,,,,,,sub-009,1,2025-03-13_13h35.53.489,random_dot,03.02.2023,60.10955566,2025-03-13 13h36.17.225042 +0100
right,right,speed,,,,,0,0,0,1,22,1,45,1,290.9218991,,,,,,,,,290.910176,291.7224605,292.522335,292.5068536,292.5068984,292.522335,292.522335,292.522335,,295.2248182,right,1,33.1529738,None,,,,,,,,,,,,,,,,,,,,,,,,,,,,,,sub-009,1,2025-03-13_13h35.53.489,random_dot,03.02.2023,60.10955566,2025-03-13 13h36.17.225042 +0100
left,left,speed,,,,,0,0,0,1,23,0,46,0,295.2387111,,,,,,,,,295.2266756,295.5889385,296.3892702,296.3735609,296.3736052,296.3892702,296.3892702,296.3892702,,297.3579477,right,0,31.4216538,None,,,,,,,,,,,,,,,,,,,,,,,,,,,,,,sub-009,1,2025-03-13_13h35.53.489,random_dot,03.02.2023,60.10955566,2025-03-13 13h36.17.225042 +0100
right,right,speed,,,,,0,0,0,1,23,1,47,1,297.3718138,,,,,,,,,297.3603303,298.1717418,298.9727627,298.9570282,298.9570797,298.9727627,298.9727627,298.9727627,,300.2739077,left,0,31.7470743,None,,,,,,,,,,,,,,,,,,,,,,,,,,,,,,sub-009,1,2025-03-13_13h35.53.489,random_dot,03.02.2023,60.10955566,2025-03-13 13h36.17.225042 +0100
right,right,speed,,,,,0,0,0,1,24,0,48,1,300.2884156,,,,,,,,,300.2758684,300.3882383,301.1887968,301.1732036,301.1732483,301.1887968,301.1887968,301.1887968,,303.6417882,right,1,32.9121267,None,,,,,,,,,,,,,,,,,,,,,,,,,,,,,,sub-009,1,2025-03-13_13h35.53.489,random_dot,03.02.2023,60.10955566,2025-03-13 13h36.17.225042 +0100
left,left,speed,,,,,0,0,0,1,24,1,49,0,303.6550182,,,,,,,,,303.6444418,304.854771,305.6554865,305.63975,305.6398085,305.6554865,305.6554865,305.6554865,,307.6589114,right,0,32.4633571,None,,,,,,,,,,,,,,,,,,,,,,,,,,,,,,sub-009,1,2025-03-13_13h35.53.489,random_dot,03.02.2023,60.10955566,2025-03-13 13h36.17.225042 +0100
left,left,speed,,,,,0,0,0,1,25,0,50,0,307.6712402,,,,,,,,,307.6611027,307.7714267,308.5718327,308.5565074,308.5565545,308.5718327,308.5718327,308.5718327,,310.1064435,left,1,31.9913614,None,,,,,,,,,,,,,,,,,,,,,,,,,,,,,,sub-009,1,2025-03-13_13h35.53.489,random_dot,03.02.2023,60.10955566,2025-03-13 13h36.17.225042 +0100
right,right,speed,,,,,0,0,0,1,25,1,51,1,310.1209364,,,,,,,,,310.1079624,310.4712906,311.2721402,311.2559827,311.2560374,311.2721402,311.2721402,311.2721402,,312.9916174,left,0,32.177327,None,,,,,,,,,,,,,,,,,,,,,,,,,,,,,,sub-009,1,2025-03-13_13h35.53.489,random_dot,03.02.2023,60.10955566,2025-03-13 13h36.17.225042 +0100
left,left,speed,,,,,0,0,0,1,26,0,52,0,313.0041363,,,,,,,,,312.993986,313.3543951,314.1552762,314.1390319,314.1390986,314.1552762,314.1552762,314.1552762,,316.5568605,right,0,32.8588598,None,,,,,,,,,,,,,,,,,,,,,,,,,,,,,,sub-009,1,2025-03-13_13h35.53.489,random_dot,03.02.2023,60.10955566,2025-03-13 13h36.17.225042 +0100
right,right,speed,,,,,0,0,0,1,26,1,53,1,316.5705982,,,,,,,,,316.5592929,316.9207411,317.7213955,317.7054761,317.7055336,317.7213955,317.7213955,317.7213955,,319.8908344,right,1,32.6299731,None,,,,,,,,,,,,,,,,,,,,,,,,,,,,,,sub-009,1,2025-03-13_13h35.53.489,random_dot,03.02.2023,60.10955566,2025-03-13 13h36.17.225042 +0100
left,left,speed,,,,,0,0,0,1,27,0,54,0,319.9039594,,,,,,,,,319.8927009,320.2543702,321.0543713,321.0390093,321.0390751,321.0543713,321.0543713,321.0543713,,323.3395126,right,0,32.7375902,None,,,,,,,,,,,,,,,,,,,,,,,,,,,,,,sub-009,1,2025-03-13_13h35.53.489,random_dot,03.02.2023,60.10955566,2025-03-13 13h36.17.225042 +0100
right,right,speed,,,,,0,0,0,1,27,1,55,1,323.3537307,,,,,,,,,323.3416982,323.4539756,324.2542712,324.2393652,324.2394235,324.2542712,324.2542712,324.2542712,,326.3908315,left,0,32.596984,None,,,,,,,,,,,,,,,,,,,,,,,,,,,,,,sub-009,1,2025-03-13_13h35.53.489,random_dot,03.02.2023,60.10955566,2025-03-13 13h36.17.225042 +0100
right,right,speed,,,,,0,0,0,1,28,0,56,1,326.4033476,,,,,,,,,326.393467,327.6039856,328.404192,328.3885929,328.3886608,328.404192,328.404192,328.404192,,329.9582618,right,1,32.0119591,None,,,,,,,,,,,,,,,,,,,,,,,,,,,,,,sub-009,1,2025-03-13_13h35.53.489,random_dot,03.02.2023,60.10955566,2025-03-13 13h36.17.225042 +0100
left,left,speed,,,,,0,0,0,1,28,1,57,0,329.9700756,,,,,,,,,329.9605201,330.7703393,331.5712793,331.5551592,331.5552038,331.5712793,331.5712793,331.5712793,,333.9222615,left,1,32.7996605,None,,,,,,,,,,,,,,,,,,,,,,,,,,,,,,sub-009,1,2025-03-13_13h35.53.489,random_dot,03.02.2023,60.10955566,2025-03-13 13h36.17.225042 +0100
right,right,speed,,,,,0,0,0,1,29,0,58,1,333.9362357,,,,,,,,,333.9242971,334.2869003,335.0873033,335.0717937,335.0718421,335.0873033,335.0873033,335.0873033,,337.9391708,left,0,33.3068148,None,,,,,,,,,,,,,,,,,,,,,,,,,,,,,,sub-009,1,2025-03-13_13h35.53.489,random_dot,03.02.2023,60.10955566,2025-03-13 13h36.17.225042 +0100
left,left,speed,,,,,0,0,0,1,29,1,59,0,337.9530134,,,,,,,,,337.941717,338.303277,339.1038379,339.0878439,339.0878865,339.1038379,339.1038379,339.1038379,,339.8588174,right,0,31.213805,None,,,,,,,,,,,,,,,,,,,,,,,,,,,,,,sub-009,1,2025-03-13_13h35.53.489,random_dot,03.02.2023,60.10955566,2025-03-13 13h36.17.225042 +0100
,,speed,,,,,0,0,0,1,,,,,,,,,,,,,,,,,,,,,,,,,,,,,,,,,,,,,,,,,,,,,,,,,,,,,,,,,sub-009,1,2025-03-13_13h35.53.489,random_dot,03.02.2023,60.10955566,2025-03-13 13h36.17.225042 +0100
right,right,accuracy,,,,,0,1,1,0,0,0,0,1,350.5207873,,,,,,,,,350.5181913,350.8690969,351.6698548,351.6543029,351.65435,351.6698548,351.6698548,351.6698548,,352.5216899,right,1,31.3064996,None,,,,,,,,,,,,,,,,,,,339.8609669,339.8793809,339.8793809,350.5046116,space,41.0713845,None,,,,,sub-009,1,2025-03-13_13h35.53.489,random_dot,03.02.2023,60.10955566,2025-03-13 13h36.17.225042 +0100
left,left,accuracy,,,,,0,1,1,0,0,1,1,0,352.5354051,,,,,,,,,352.5243524,352.6356186,353.4360909,353.4206637,353.4207604,353.4360909,353.4360909,353.4360909,,355.6378947,left,1,32.6498249,None,,,,,,,,,,,,,,,,,,,,,,,,,,,,,,sub-009,1,2025-03-13_13h35.53.489,random_dot,03.02.2023,60.10955566,2025-03-13 13h36.17.225042 +0100
right,right,accuracy,,,,,0,1,1,0,1,0,2,1,355.6521996,,,,,,,,,355.6398633,355.7522921,356.552533,356.5368758,356.536919,356.552533,356.552533,356.552533,,359.2875142,right,1,33.1915194,None,,,,,,,,,,,,,,,,,,,,,,,,,,,,,,sub-009,1,2025-03-13_13h35.53.489,random_dot,03.02.2023,60.10955566,2025-03-13 13h36.17.225042 +0100
left,left,accuracy,,,,,0,1,1,0,1,1,3,0,359.3018932,,,,,,,,,359.2892758,360.5021388,361.3023934,361.2866951,361.2867408,361.3023934,361.3023934,361.3023934,,363.671123,right,0,32.8244271,None,,,,,,,,,,,,,,,,,,,,,,,,,,,,,,sub-009,1,2025-03-13_13h35.53.489,random_dot,03.02.2023,60.10955566,2025-03-13 13h36.17.225042 +0100
right,right,accuracy,,,,,0,1,1,0,2,0,4,1,363.6848093,,,,,,,,,363.6730408,364.4851051,365.2859824,365.2701188,365.2701627,365.2859824,365.2859824,365.2859824,,369.5195524,left,0,34.690806,None,,,,,,,,,,,,,,,,,,,,,,,,,,,,,,sub-009,1,2025-03-13_13h35.53.489,random_dot,03.02.2023,60.10955566,2025-03-13 13h36.17.225042 +0100
left,left,accuracy,,,,,0,1,1,0,2,1,5,0,369.5346685,,,,,,,,,369.5206433,370.7351698,371.5357223,371.5201672,371.5202229,371.5357223,371.5357223,371.5357223,,375.1378466,left,1,34.0578026,None,,,,,,,,,,,,,,,,,,,,,,,,,,,,,,sub-009,1,2025-03-13_13h35.53.489,random_dot,03.02.2023,60.10955566,2025-03-13 13h36.17.225042 +0100
right,right,accuracy,,,,,0,1,1,0,3,0,6,1,375.1512831,,,,,,,,,375.1400864,375.2513593,376.0520548,376.036198,376.0362573,376.0520548,376.0520548,376.0520548,,378.0198737,right,1,32.4209918,None,,,,,,,,,,,,,,,,,,,,,,,,,,,,,,sub-009,1,2025-03-13_13h35.53.489,random_dot,03.02.2023,60.10955566,2025-03-13 13h36.17.225042 +0100
left,left,accuracy,,,,,0,1,1,0,3,1,7,0,378.0341714,,,,,,,,,378.0213674,378.1344207,378.9350559,378.9193691,378.9194272,378.9350559,378.9350559,378.9350559,,380.7862051,left,1,32.3080966,None,,,,,,,,,,,,,,,,,,,,,,,,,,,,,,sub-009,1,2025-03-13_13h35.53.489,random_dot,03.02.2023,60.10955566,2025-03-13 13h36.17.225042 +0100
right,right,accuracy,,,,,0,1,1,0,4,0,8,1,380.8006584,,,,,,,,,380.7879027,380.9010606,381.7017332,381.6859857,381.6860339,381.7017332,381.7017332,381.7017332,,383.9028041,right,1,32.6473295,None,,,,,,,,,,,,,,,,,,,,,,,,,,,,,,sub-009,1,2025-03-13_13h35.53.489,random_dot,03.02.2023,60.10955566,2025-03-13 13h36.17.225042 +0100
left,left,accuracy,,,,,0,1,1,0,4,1,9,0,383.9176865,,,,,,,,,383.9046587,384.0179114,384.8183077,384.8021876,384.8022449,384.8183077,384.8183077,384.8183077,,387.6190595,left,1,33.2479309,None,,,,,,,,,,,,,,,,,,,,,,,,,,,,,,sub-009,1,2025-03-13_13h35.53.489,random_dot,03.02.2023,60.10955566,2025-03-13 13h36.17.225042 +0100
left,left,accuracy,,,,,0,1,1,0,5,0,10,0,387.6339546,,,,,,,,,387.6206534,387.984106,388.7843512,388.7682515,388.7682963,388.7843512,388.7843512,388.7843512,,389.7696747,right,0,31.4457155,None,,,,,,,,,,,,,,,,,,,,,,,,,,,,,,sub-009,1,2025-03-13_13h35.53.489,random_dot,03.02.2023,60.10955566,2025-03-13 13h36.17.225042 +0100
right,right,accuracy,,,,,0,1,1,0,5,1,11,1,389.783567,,,,,,,,,389.7718004,389.8837144,390.6845393,390.6691004,390.6691623,390.6845393,390.6845393,390.6845393,,392.437621,right,1,32.2126915,None,,,,,,,,,,,,,,,,,,,,,,,,,,,,,,sub-009,1,2025-03-13_13h35.53.489,random_dot,03.02.2023,60.10955566,2025-03-13 13h36.17.225042 +0100
right,right,accuracy,,,,,0,1,1,0,6,0,12,1,392.4499118,,,,,,,,,392.4406032,392.8003117,393.6008338,393.5850816,393.585134,393.6008338,393.6008338,393.6008338,,395.885392,left,0,32.7303638,None,,,,,,,,,,,,,,,,,,,,,,,,,,,,,,sub-009,1,2025-03-13_13h35.53.489,random_dot,03.02.2023,60.10955566,2025-03-13 13h36.17.225042 +0100
left,left,accuracy,,,,,0,1,1,0,6,1,13,0,395.9002446,,,,,,,,,395.8871157,396.000455,396.8007532,396.7852525,396.7853014,396.8007532,396.8007532,396.8007532,,398.2689453,right,0,31.9200523,None,,,,,,,,,,,,,,,,,,,,,,,,,,,,,,sub-009,1,2025-03-13_13h35.53.489,random_dot,03.02.2023,60.10955566,2025-03-13 13h36.17.225042 +0100
left,left,accuracy,,,,,0,1,1,0,7,0,14,0,398.2833549,,,,,,,,,398.2708443,398.6338611,399.4340525,399.4185711,399.4186321,399.4340525,399.4340525,399.4340525,,401.38599,left,1,32.4023116,None,,,,,,,,,,,,,,,,,,,,,,,,,,,,,,sub-009,1,2025-03-13_13h35.53.489,random_dot,03.02.2023,60.10955566,2025-03-13 13h36.17.225042 +0100
right,right,accuracy,,,,,0,1,1,0,7,1,15,1,401.3995147,,,,,,,,,401.3881241,401.4997075,402.3008253,402.2851891,402.2852905,402.3008253,402.3008253,402.3008253,,403.6185967,right,1,31.770632,None,,,,,,,,,,,,,,,,,,,,,,,,,,,,,,sub-009,1,2025-03-13_13h35.53.489,random_dot,03.02.2023,60.10955566,2025-03-13 13h36.17.225042 +0100
right,right,accuracy,,,,,0,1,1,0,8,0,16,1,403.6332257,,,,,,,,,403.6205176,404.8329962,405.6336256,405.6176766,405.6177191,405.6336256,405.6336256,405.6336256,,406.934746,left,0,31.7580384,None,,,,,,,,,,,,,,,,,,,,,,,,,,,,,,sub-009,1,2025-03-13_13h35.53.489,random_dot,03.02.2023,60.10955566,2025-03-13 13h36.17.225042 +0100
left,left,accuracy,,,,,0,1,1,0,8,1,17,0,406.9494405,,,,,,,,,406.9360293,408.14965,408.950234,408.9340946,408.9341906,408.950234,408.950234,408.950234,,409.6866119,left,1,31.1872255,None,,,,,,,,,,,,,,,,,,,,,,,,,,,,,,sub-009,1,2025-03-13_13h35.53.489,random_dot,03.02.2023,60.10955566,2025-03-13 13h36.17.225042 +0100
right,right,accuracy,,,,,0,1,1,0,9,0,18,1,409.6995695,,,,,,,,,409.6889663,410.0493302,410.8500568,410.8341764,410.8342203,410.8500568,410.8500568,410.8500568,,411.7523675,right,1,31.3626958,None,,,,,,,,,,,,,,,,,,,,,,,,,,,,,,sub-009,1,2025-03-13_13h35.53.489,random_dot,03.02.2023,60.10955566,2025-03-13 13h36.17.225042 +0100
left,left,accuracy,,,,,0,1,1,0,9,1,19,0,411.7660844,,,,,,,,,411.7540795,412.1160458,412.9164625,412.9005441,412.9005902,412.9164625,412.9164625,412.9164625,,413.8675703,left,1,31.3984595,None,,,,,,,,,,,,,,,,,,,,,,,,,,,,,,sub-009,1,2025-03-13_13h35.53.489,random_dot,03.02.2023,60.10955566,2025-03-13 13h36.17.225042 +0100
left,left,accuracy,,,,,0,1,1,0,10,0,20,0,413.8821498,,,,,,,,,413.8688786,414.6822676,415.4831464,415.467933,415.4679982,415.4831464,415.4831464,415.4831464,,416.6847592,left,1,31.6627598,None,,,,,,,,,,,,,,,,,,,,,,,,,,,,,,sub-009,1,2025-03-13_13h35.53.489,random_dot,03.02.2023,60.10955566,2025-03-13 13h36.17.225042 +0100
right,right,accuracy,,,,,0,1,1,0,10,1,21,1,416.6988131,,,,,,,,,416.6861656,417.0491268,417.8497138,417.8328547,417.8328903,417.8497138,417.8497138,417.8497138,,418.8508634,right,1,31.4494539,None,,,,,,,,,,,,,,,,,,,,,,,,,,,,,,sub-009,1,2025-03-13_13h35.53.489,random_dot,03.02.2023,60.10955566,2025-03-13 13h36.17.225042 +0100
right,right,accuracy,,,,,0,1,1,0,11,0,22,1,418.8655049,,,,,,,,,418.8525024,418.9654778,419.7660994,419.7510457,419.7510879,419.7660994,419.7660994,419.7660994,,421.3682726,left,0,32.0522353,None,,,,,,,,,,,,,,,,,,,,,,,,,,,,,,sub-009,1,2025-03-13_13h35.53.489,random_dot,03.02.2023,60.10955566,2025-03-13 13h36.17.225042 +0100
left,left,accuracy,,,,,0,1,1,0,11,1,23,0,421.3819708,,,,,,,,,421.370926,422.1821061,422.9828803,422.9675711,422.9676364,422.9828803,422.9828803,422.9828803,,424.7011301,right,0,32.1720176,None,,,,,,,,,,,,,,,,,,,,,,,,,,,,,,sub-009,1,2025-03-13_13h35.53.489,random_dot,03.02.2023,60.10955566,2025-03-13 13h36.17.225042 +0100
right,right,accuracy,,,,,0,1,1,0,12,0,24,1,424.7151028,,,,,,,,,424.702983,425.5158816,426.3155785,426.3002191,426.3003325,426.3155785,426.3155785,426.3155785,,427.9346594,left,0,32.0716139,None,,,,,,,,,,,,,,,,,,,,,,,,,,,,,,sub-009,1,2025-03-13_13h35.53.489,random_dot,03.02.2023,60.10955566,2025-03-13 13h36.17.225042 +0100
left,left,accuracy,,,,,0,1,1,0,12,1,25,0,427.9486027,,,,,,,,,427.9368717,428.2984593,429.0990807,429.0834743,429.0835407,429.0990807,429.0990807,429.0990807,,430.2527223,right,0,31.6129683,None,,,,,,,,,,,,,,,,,,,,,,,,,,,,,,sub-009,1,2025-03-13_13h35.53.489,random_dot,03.02.2023,60.10955566,2025-03-13 13h36.17.225042 +0100
right,right,accuracy,,,,,0,1,1,0,13,0,26,1,430.264676,,,,,,,,,430.2548786,431.0651984,431.8658517,431.8501377,431.8501794,431.8658517,431.8658517,431.8658517,,433.8681577,right,1,32.4575592,None,,,,,,,,,,,,,,,,,,,,,,,,,,,,,,sub-009,1,2025-03-13_13h35.53.489,random_dot,03.02.2023,60.10955566,2025-03-13 13h36.17.225042 +0100
left,left,accuracy,,,,,0,1,1,0,13,1,27,0,433.8812383,,,,,,,,,433.8702301,434.2314858,435.0317182,435.0154967,435.0155281,435.0317182,435.0317182,435.0317182,,435.9669345,left,1,31.390256,None,,,,,,,,,,,,,,,,,,,,,,,,,,,,,,sub-009,1,2025-03-13_13h35.53.489,random_dot,03.02.2023,60.10955566,2025-03-13 13h36.17.225042 +0100
right,right,accuracy,,,,,0,1,1,0,14,0,28,1,435.9812004,,,,,,,,,435.9687578,436.7812448,437.5818311,437.5663728,437.5664176,437.5818311,437.5818311,437.5818311,,438.4349001,left,0,31.3066923,None,,,,,,,,,,,,,,,,,,,,,,,,,,,,,,sub-009,1,2025-03-13_13h35.53.489,random_dot,03.02.2023,60.10955566,2025-03-13 13h36.17.225042 +0100
left,left,accuracy,,,,,0,1,1,0,14,1,29,0,438.4477335,,,,,,,,,438.4372311,438.7980719,439.5985144,439.5831112,439.5832016,439.5985144,439.5985144,439.5985144,,440.7675468,left,1,31.6266071,None,,,,,,,,,,,,,,,,,,,,,,,,,,,,,,sub-009,1,2025-03-13_13h35.53.489,random_dot,03.02.2023,60.10955566,2025-03-13 13h36.17.225042 +0100
right,right,accuracy,,,,,0,1,1,0,15,0,30,1,440.7808624,,,,,,,,,440.7694587,441.1311522,441.9319394,441.9161979,441.9162397,441.9319394,441.9319394,441.9319394,,442.9333449,right,1,31.4476145,None,,,,,,,,,,,,,,,,,,,,,,,,,,,,,,sub-009,1,2025-03-13_13h35.53.489,random_dot,03.02.2023,60.10955566,2025-03-13 13h36.17.225042 +0100
left,left,accuracy,,,,,0,1,1,0,15,1,31,0,442.947602,,,,,,,,,442.9347613,443.2978362,444.0984029,444.0828724,444.0829147,444.0984029,444.0984029,444.0984029,,445.1673384,right,0,31.5257646,None,,,,,,,,,,,,,,,,,,,,,,,,,,,,,,sub-009,1,2025-03-13_13h35.53.489,random_dot,03.02.2023,60.10955566,2025-03-13 13h36.17.225042 +0100
left,left,accuracy,,,,,0,1,1,0,16,0,32,0,445.1808824,,,,,,,,,445.16957,445.9809102,446.7816517,446.7662111,446.7662619,446.7816517,446.7816517,446.7816517,,448.1164502,left,1,31.7819768,None,,,,,,,,,,,,,,,,,,,,,,,,,,,,,,sub-009,1,2025-03-13_13h35.53.489,random_dot,03.02.2023,60.10955566,2025-03-13 13h36.17.225042 +0100
right,right,accuracy,,,,,0,1,1,0,16,1,33,1,448.1306343,,,,,,,,,448.1178092,449.3306485,450.1309864,450.1156836,450.1157388,450.1309864,450.1309864,450.1309864,,451.5332703,right,1,31.8575085,None,,,,,,,,,,,,,,,,,,,,,,,,,,,,,,sub-009,1,2025-03-13_13h35.53.489,random_dot,03.02.2023,60.10955566,2025-03-13 13h36.17.225042 +0100
right,right,accuracy,,,,,0,1,1,0,17,0,34,1,451.5471566,,,,,,,,,451.5351399,451.8975802,452.6979764,452.6822516,452.6823101,452.6979764,452.6979764,452.6979764,,453.5007328,left,0,31.2556829,None,,,,,,,,,,,,,,,,,,,,,,,,,,,,,,sub-009,1,2025-03-13_13h35.53.489,random_dot,03.02.2023,60.10955566,2025-03-13 13h36.17.225042 +0100
left,left,accuracy,,,,,0,1,1,0,17,1,35,0,453.5136691,,,,,,,,,453.503734,453.8639196,454.6644854,454.648611,454.6486656,454.6644854,454.6644854,454.6644854,,456.5837783,right,0,32.3700334,None,,,,,,,,,,,,,,,,,,,,,,,,,,,,,,sub-009,1,2025-03-13_13h35.53.489,random_dot,03.02.2023,60.10955566,2025-03-13 13h36.17.225042 +0100
left,left,accuracy,,,,,0,1,1,0,18,0,36,0,456.5970609,,,,,,,,,456.5859641,457.7967246,458.5977646,458.58164,458.5816842,458.5977646,458.5977646,458.5977646,,459.3508084,left,1,31.2124326,None,,,,,,,,,,,,,,,,,,,,,,,,,,,,,,sub-009,1,2025-03-13_13h35.53.489,random_dot,03.02.2023,60.10955566,2025-03-13 13h36.17.225042 +0100
right,right,accuracy,,,,,0,1,1,0,18,1,37,1,459.363801,,,,,,,,,459.3534372,460.1640201,460.9643141,460.9484996,460.948543,460.9643141,460.9643141,460.9643141,,461.7843387,right,1,31.2798809,None,,,,,,,,,,,,,,,,,,,,,,,,,,,,,,sub-009,1,2025-03-13_13h35.53.489,random_dot,03.02.2023,60.10955566,2025-03-13 13h36.17.225042 +0100
left,left,accuracy,,,,,0,1,1,0,19,0,38,0,461.7965661,,,,,,,,,461.7867516,462.9971365,463.7974258,463.7811652,463.781227,463.7974258,463.7974258,463.7974258,,464.1990099,left,1,30.8516874,None,,,,,,,,,,,,,,,,,,,,,,,,,,,,,,sub-009,1,2025-03-13_13h35.53.489,random_dot,03.02.2023,60.10955566,2025-03-13 13h36.17.225042 +0100
right,right,accuracy,,,,,0,1,1,0,19,1,39,1,464.2132936,,,,,,,,,464.2003011,464.5629239,465.3637107,465.3472913,465.3473147,465.3637107,465.3637107,465.3637107,,466.0146511,right,1,31.1029916,None,,,,,,,,,,,,,,,,,,,,,,,,,,,,,,sub-009,1,2025-03-13_13h35.53.489,random_dot,03.02.2023,60.10955566,2025-03-13 13h36.17.225042 +0100
right,right,accuracy,,,,,0,1,1,0,20,0,40,1,466.029434,,,,,,,,,466.0164193,466.3794074,467.1802519,467.163687,467.1637089,467.1802519,467.1802519,467.1802519,,468.1990738,left,0,31.465942,None,,,,,,,,,,,,,,,,,,,,,,,,,,,,,,sub-009,1,2025-03-13_13h35.53.489,random_dot,03.02.2023,60.10955566,2025-03-13 13h36.17.225042 +0100
left,left,accuracy,,,,,0,1,1,0,20,1,41,0,468.2130913,,,,,,,,,468.2005161,468.3135372,469.1136052,469.0982168,469.0982712,469.1136052,469.1136052,469.1136052,,470.0984933,left,1,31.4368086,None,,,,,,,,,,,,,,,,,,,,,,,,,,,,,,sub-009,1,2025-03-13_13h35.53.489,random_dot,03.02.2023,60.10955566,2025-03-13 13h36.17.225042 +0100
right,right,accuracy,,,,,0,1,1,0,21,0,42,1,470.1127832,,,,,,,,,470.1004666,470.2128375,471.0137851,470.9981894,470.9982353,471.0137851,471.0137851,471.0137851,,471.6988024,right,1,31.1337773,None,,,,,,,,,,,,,,,,,,,,,,,,,,,,,,sub-009,1,2025-03-13_13h35.53.489,random_dot,03.02.2023,60.10955566,2025-03-13 13h36.17.225042 +0100
left,left,accuracy,,,,,0,1,1,0,21,1,43,0,471.7130535,,,,,,,,,471.7008486,472.5131867,473.3131947,473.2978803,473.2979804,473.3131947,473.3131947,473.3131947,,474.0839145,left,1,31.2300358,None,,,,,,,,,,,,,,,,,,,,,,,,,,,,,,sub-009,1,2025-03-13_13h35.53.489,random_dot,03.02.2023,60.10955566,2025-03-13 13h36.17.225042 +0100
left,left,accuracy,,,,,0,1,1,0,22,0,44,0,474.0959534,,,,,,,,,474.0870132,474.1966204,474.9969319,474.9816152,474.9816809,474.9969319,474.9969319,474.9969319,,476.8810112,right,0,32.3351989,None,,,,,,,,,,,,,,,,,,,,,,,,,,,,,,sub-009,1,2025-03-13_13h35.53.489,random_dot,03.02.2023,60.10955566,2025-03-13 13h36.17.225042 +0100
right,right,accuracy,,,,,0,1,1,0,22,1,45,1,476.8957727,,,,,,,,,476.882711,477.2460904,478.0464503,478.0318211,478.0319158,478.0464503,478.0464503,478.0464503,,478.9311641,left,0,31.3406752,None,,,,,,,,,,,,,,,,,,,,,,,,,,,,,,sub-009,1,2025-03-13_13h35.53.489,random_dot,03.02.2023,60.10955566,2025-03-13 13h36.17.225042 +0100
right,right,accuracy,,,,,0,1,1,0,23,0,46,1,478.9459501,,,,,,,,,478.9326956,479.745936,480.5464077,480.5308493,480.5308922,480.5464077,480.5464077,480.5464077,,481.7646529,right,1,31.6701567,None,,,,,,,,,,,,,,,,,,,,,,,,,,,,,,sub-009,1,2025-03-13_13h35.53.489,random_dot,03.02.2023,60.10955566,2025-03-13 13h36.17.225042 +0100
left,left,accuracy,,,,,0,1,1,0,23,1,47,0,481.7787994,,,,,,,,,481.7670218,482.5793537,483.3803468,483.3642129,483.3642569,483.3803468,483.3803468,483.3803468,,484.1316553,left,1,31.2009561,None,,,,,,,,,,,,,,,,,,,,,,,,,,,,,,sub-009,1,2025-03-13_13h35.53.489,random_dot,03.02.2023,60.10955566,2025-03-13 13h36.17.225042 +0100
left,left,accuracy,,,,,0,1,1,0,24,0,48,0,484.1458431,,,,,,,,,484.1340673,484.4957431,485.2961116,485.2806103,485.280654,485.2961116,485.2961116,485.2961116,,486.3487946,right,0,31.5037287,None,,,,,,,,,,,,,,,,,,,,,,,,,,,,,,sub-009,1,2025-03-13_13h35.53.489,random_dot,03.02.2023,60.10955566,2025-03-13 13h36.17.225042 +0100
right,right,accuracy,,,,,0,1,1,0,24,1,49,1,486.3620342,,,,,,,,,486.3512463,486.7122624,487.512949,487.4976855,487.4977281,487.512949,487.512949,487.512949,,488.3141483,left,0,31.2510933,None,,,,,,,,,,,,,,,,,,,,,,,,,,,,,,sub-009,1,2025-03-13_13h35.53.489,random_dot,03.02.2023,60.10955566,2025-03-13 13h36.17.225042 +0100
left,left,accuracy,,,,,0,1,1,0,25,0,50,0,488.3289623,,,,,,,,,488.31597,489.1287892,489.9292361,489.9137192,489.9137722,489.9292361,489.9292361,489.9292361,,490.7152269,left,1,31.2340591,None,,,,,,,,,,,,,,,,,,,,,,,,,,,,,,sub-009,1,2025-03-13_13h35.53.489,random_dot,03.02.2023,60.10955566,2025-03-13 13h36.17.225042 +0100
right,right,accuracy,,,,,0,1,1,0,25,1,51,1,490.7288806,,,,,,,,,490.7176303,490.8290783,491.6295656,491.6136395,491.6136814,491.6295656,491.6295656,491.6295656,,492.2811242,right,1,31.1018746,None,,,,,,,,,,,,,,,,,,,,,,,,,,,,,,sub-009,1,2025-03-13_13h35.53.489,random_dot,03.02.2023,60.10955566,2025-03-13 13h36.17.225042 +0100
right,right,accuracy,,,,,0,1,1,0,26,0,52,1,492.295163,,,,,,,,,492.2830589,493.0952057,493.8956917,493.8802496,493.8803117,493.8956917,493.8956917,493.8956917,,494.7804523,right,1,31.3407834,None,,,,,,,,,,,,,,,,,,,,,,,,,,,,,,sub-009,1,2025-03-13_13h35.53.489,random_dot,03.02.2023,60.10955566,2025-03-13 13h36.17.225042 +0100
left,left,accuracy,,,,,0,1,1,0,26,1,53,0,494.7950309,,,,,,,,,494.782539,495.5948931,496.395701,496.3794759,496.3795233,496.395701,496.395701,496.395701,,497.0973104,left,1,31.1491966,None,,,,,,,,,,,,,,,,,,,,,,,,,,,,,,sub-009,1,2025-03-13_13h35.53.489,random_dot,03.02.2023,60.10955566,2025-03-13 13h36.17.225042 +0100
left,left,accuracy,,,,,0,1,1,0,27,0,54,0,497.1115725,,,,,,,,,497.0993313,498.3115196,499.1121444,499.0965399,499.0965837,499.1121444,499.1121444,499.1121444,,499.813903,left,1,31.1531882,None,,,,,,,,,,,,,,,,,,,,,,,,,,,,,,sub-009,1,2025-03-13_13h35.53.489,random_dot,03.02.2023,60.10955566,2025-03-13 13h36.17.225042 +0100
right,right,accuracy,,,,,0,1,1,0,27,1,55,1,499.8279841,,,,,,,,,499.8162285,500.1785199,500.9783919,500.9628367,500.9628768,500.9783919,500.9783919,500.9783919,,502.0642642,right,1,31.540949,None,,,,,,,,,,,,,,,,,,,,,,,,,,,,,,sub-009,1,2025-03-13_13h35.53.489,random_dot,03.02.2023,60.10955566,2025-03-13 13h36.17.225042 +0100
left,left,accuracy,,,,,0,1,1,0,28,0,56,0,502.0778465,,,,,,,,,502.0661875,502.4280705,503.2286462,503.2119949,503.2120196,503.2286462,503.2286462,503.2286462,,503.9978185,left,1,31.2261527,None,,,,,,,,,,,,,,,,,,,,,,,,,,,,,,sub-009,1,2025-03-13_13h35.53.489,random_dot,03.02.2023,60.10955566,2025-03-13 13h36.17.225042 +0100
right,right,accuracy,,,,,0,1,1,0,28,1,57,1,504.011137,,,,,,,,,503.9998715,505.2110452,506.0115619,505.9964396,505.9965404,506.0115619,506.0115619,506.0115619,,508.5632124,right,1,33.0031438,None,,,,,,,,,,,,,,,,,,,,,,,,,,,,,,sub-009,1,2025-03-13_13h35.53.489,random_dot,03.02.2023,60.10955566,2025-03-13 13h36.17.225042 +0100
left,left,accuracy,,,,,0,1,1,0,29,0,58,0,508.577253,,,,,,,,,508.5651536,508.9274539,509.7282211,509.7124913,509.712545,509.7282211,509.7282211,509.7282211,,510.5959438,left,1,31.3146531,None,,,,,,,,,,,,,,,,,,,,,,,,,,,,,,sub-009,1,2025-03-13_13h35.53.489,random_dot,03.02.2023,60.10955566,2025-03-13 13h36.17.225042 +0100
right,right,accuracy,,,,,0,1,1,0,29,1,59,1,510.610704,,,,,,,,,510.59796,510.9610985,511.7620079,511.7458699,511.7459275,511.7620079,511.7620079,511.7620079,,512.129697,right,1,30.8237838,None,,,,,,,,,,,,,,,,,,,,,,,,,,,,,,sub-009,1,2025-03-13_13h35.53.489,random_dot,03.02.2023,60.10955566,2025-03-13 13h36.17.225042 +0100
,,accuracy,,,,,0,1,1,0,,,,,,,,,,,,,,,,,,,,,,,,,,,,,,,,,,,,,,,,,,,,,,,,,,,,,,,,,sub-009,1,2025-03-13_13h35.53.489,random_dot,03.02.2023,60.10955566,2025-03-13 13h36.17.225042 +0100
,,,,,,,,,,,,,,,,,,,,,,,,,,,,,,,,,,,,,,,,,,,,,,,,,,,,,,,,,,,,,,,512.1308797,512.1440512,517.1438599,517.1296833,,,,,,,
