wordCTK,colorCTK,corrAnsCTK,congruentCTK,thisN,thisTrialN,thisRepN,keyResp_CTK.keys,keyResp_CTK.corr,keyResp_CTK.rt,keyResp_CTK.duration,wordPractice,colorPractice,corrAnsPractice,congruentPractice,respPractice.keys,respPractice.corr,respPractice.rt,respPractice.duration,word,color,corrAns,congruent,keyResp_test_run.keys,keyResp_test_run.corr,keyResp_test_run.rt,keyResp_test_run.duration,trials_CTK.thisRepN,trials_CTK.thisTrialN,trials_CTK.thisN,trials_CTK.thisIndex,trials_practice.thisRepN,trials_practice.thisTrialN,trials_practice.thisN,trials_practice.thisIndex,trials_test.thisRepN,trials_test.thisTrialN,trials_test.thisN,trials_test.thisIndex,thisRow.t,notes,instruction.started,instr_text.started,instr_image.started,instr_resp.started,instruction.stopped,instr_resp.keys,instr_resp.rt,instr_resp.duration,instr_color_to_key.started,instr_ctk.started,resp_ctk.started,instr_color_to_key.stopped,resp_ctk.keys,resp_ctk.rt,resp_ctk.duration,ITI.started,fixcross.started,fixcross.stopped,ITI.stopped,color_to_key_run.started,stimulus_CTK.started,keyResp_CTK.started,color_to_key_run.stopped,trials_CTK.keyResp_CTK.keys,trials_CTK.keyResp_CTK.corr,trials_CTK.keyResp_CTK.rt,trials_CTK.keyResp_CTK.duration,instr_practice.started,instr_practice_text.started,instr_practice_resp.started,instr_practice.stopped,instr_practice_resp.keys,instr_practice_resp.rt,instr_practice_resp.duration,practice_run.started,stimulus_practice.started,respPractice.started,practice_run.stopped,trials_practice.respPractice.keys,trials_practice.respPractice.corr,trials_practice.respPractice.rt,trials_practice.respPractice.duration,feedback.started,textFeedback.started,textFeedback.stopped,feedback.stopped,instr_test.started,instr_test_text.started,instr_test_resp.started,instr_test.stopped,instr_test_resp.keys,instr_test_resp.rt,instr_test_resp.duration,test_run.started,stimulus_test_run.started,keyResp_test_run.started,test_run.stopped,trials_test.keyResp_test_run.keys,trials_test.keyResp_test_run.corr,trials_test.keyResp_test_run.rt,trials_test.keyResp_test_run.duration,goodbye.started,textGoodbye.started,textGoodbye.stopped,goodbye.stopped,participant,session,expName,frameRate,Unnamed: 113
,,,,,,,,,,,,,,,,,,,,,,,,,,,,,,,,,,,,,,,,,0.0123429579998628,0.0250591249998706,0.0250591249998706,0.0250591249998706,180.01000637499988,space,179.98055616700003,,,,,,,,,,,,,,,,,,,,,,,,,,,,,,,,,,,,,,,,,,,,,,,,,,,,,,,,,,,sub-021,2,stroop_test,,
,,,,,,,,,,,,,,,,,,,,,,,,,,,,,,,,,,,,,,,,,,,,,,,,,180.01009620799982,180.02231862500005,180.02231862500005,180.25295874999983,space,0.2246988339998097,,,,,,,,,,,,,,,,,,,,,,,,,,,,,,,,,,,,,,,,,,,,,,,,,,,,sub-021,2,stroop_test,,
test,yellow,g,1.0,0.0,0.0,0.0,g,1.0,16.067756666999912,,,,,,,,,,,,,,,,,,0.0,0.0,0.0,1.0,,,,,,,,,180.267973708,,,,,,,,,,,,,,,,,180.26016016599988,181.450420875,182.24300329099992,182.23670041599985,182.23991349999983,182.24300329099992,182.24300329099992,198.32144845799985,g,1.0,16.067756666999912,,,,,,,,,,,,,,,,,,,,,,,,,,,,,,,,,,,,,,,,sub-021,2,stroop_test,,
test,blue,b,1.0,1.0,1.0,0.0,b,1.0,1.4452263329999369,,,,,,,,,,,,,,,,,,0.0,1.0,1.0,2.0,,,,,,,,,198.32752095799992,,,,,,,,,,,,,,,,,198.32167733300005,198.6684574159999,199.4585099159999,199.45403187499983,199.454286875,199.4585099159999,199.4585099159999,200.91069249999987,b,1.0,1.4452263329999369,,,,,,,,,,,,,,,,,,,,,,,,,,,,,,,,,,,,,,,,sub-021,2,stroop_test,,
test,red,r,1.0,2.0,2.0,0.0,r,1.0,0.7465778750001846,,,,,,,,,,,,,,,,,,0.0,2.0,2.0,0.0,,,,,,,,,200.9178851659999,,,,,,,,,,,,,,,,,200.9109303749999,202.108087458,202.90194695799983,202.893042208,202.89325558299996,202.90194695799983,202.90194695799983,203.654735458,r,1.0,0.7465778750001846,,,,,,,,,,,,,,,,,,,,,,,,,,,,,,,,,,,,,,,,sub-021,2,stroop_test,,
test,yellow,g,1.0,3.0,0.0,1.0,g,1.0,0.738835459000029,,,,,,,,,,,,,,,,,,1.0,0.0,3.0,1.0,,,,,,,,,203.66046629099992,,,,,,,,,,,,,,,,,203.65496333299984,204.85193737500003,205.64222999999996,205.6376855829999,205.63791512499984,205.64222999999996,205.64222999999996,206.38857429099997,g,1.0,0.738835459000029,,,,,,,,,,,,,,,,,,,,,,,,,,,,,,,,,,,,,,,,sub-021,2,stroop_test,,
test,red,r,1.0,4.0,1.0,1.0,r,1.0,0.7740937920000306,,,,,,,,,,,,,,,,,,1.0,1.0,4.0,0.0,,,,,,,,,206.3947055409999,,,,,,,,,,,,,,,,,206.38879495799983,207.18547191599987,207.97530795800003,207.97101875,207.971270708,207.97530795800003,207.97530795800003,208.75509683299995,r,1.0,0.7740937920000306,,,,,,,,,,,,,,,,,,,,,,,,,,,,,,,,,,,,,,,,sub-021,2,stroop_test,,
test,blue,b,1.0,5.0,2.0,1.0,b,1.0,0.6256829170001765,,,,,,,,,,,,,,,,,,1.0,2.0,5.0,2.0,,,,,,,,,208.76111479099995,,,,,,,,,,,,,,,,,208.755330708,209.55220262499984,210.34051183299997,210.3368909159999,210.33704145799996,210.34051183299997,210.34051183299997,210.97165037499985,b,1.0,0.6256829170001765,,,,,,,,,,,,,,,,,,,,,,,,,,,,,,,,,,,,,,,,sub-021,2,stroop_test,,
test,blue,b,1.0,6.0,0.0,2.0,b,1.0,0.5193739579999601,,,,,,,,,,,,,,,,,,2.0,0.0,6.0,2.0,,,,,,,,,210.97704116599996,,,,,,,,,,,,,,,,,210.97187608299987,211.76900208300003,212.559326375,212.554800208,212.5550311249999,212.559326375,212.559326375,213.08872295799983,b,1.0,0.5193739579999601,,,,,,,,,,,,,,,,,,,,,,,,,,,,,,,,,,,,,,,,sub-021,2,stroop_test,,
test,yellow,g,1.0,7.0,1.0,2.0,g,1.0,0.6742768750000323,,,,,,,,,,,,,,,,,,2.0,1.0,7.0,1.0,,,,,,,,,213.09431783299988,,,,,,,,,,,,,,,,,213.0889501659999,214.2857154159999,215.07593495799983,215.0712735,215.07150449999995,215.07593495799983,215.07593495799983,215.75537804099983,g,1.0,0.6742768750000323,,,,,,,,,,,,,,,,,,,,,,,,,,,,,,,,,,,,,,,,sub-021,2,stroop_test,,
test,red,r,1.0,8.0,2.0,2.0,r,1.0,0.5501027919999615,,,,,,,,,,,,,,,,,,2.0,2.0,8.0,0.0,,,,,,,,,215.76091866599995,,,,,,,,,,,,,,,,,215.75558887499983,215.852440375,216.64289408299987,216.638279666,216.638545625,216.64289408299987,216.64289408299987,217.19454933299997,r,1.0,0.5501027919999615,,,,,,,,,,,,,,,,,,,,,,,,,,,,,,,,,,,,,,,,sub-021,2,stroop_test,,
test,yellow,g,1.0,9.0,0.0,3.0,g,1.0,0.6751595000000634,,,,,,,,,,,,,,,,,,3.0,0.0,9.0,1.0,,,,,,,,,217.20248904100004,,,,,,,,,,,,,,,,,217.19477325000005,217.29137204099996,218.0858935409999,218.077531166,218.07776425,218.0858935409999,218.0858935409999,218.772364208,g,1.0,0.6751595000000634,,,,,,,,,,,,,,,,,,,,,,,,,,,,,,,,,,,,,,,,sub-021,2,stroop_test,,
test,red,r,1.0,10.0,1.0,3.0,r,1.0,0.6556343749998632,,,,,,,,,,,,,,,,,,3.0,1.0,10.0,0.0,,,,,,,,,218.77820625000004,,,,,,,,,,,,,,,,,218.77261279100003,219.569254625,220.35900708299985,220.35481745799984,220.35504112499984,220.35900708299985,220.35900708299985,221.022239958,r,1.0,0.6556343749998632,,,,,,,,,,,,,,,,,,,,,,,,,,,,,,,,,,,,,,,,sub-021,2,stroop_test,,
test,blue,b,1.0,11.0,2.0,3.0,b,1.0,0.4882021250000434,,,,,,,,,,,,,,,,,,3.0,2.0,11.0,2.0,,,,,,,,,221.02797958299996,,,,,,,,,,,,,,,,,221.02244875,222.21935866599983,223.00904920799985,223.0048274159999,223.0050470409999,223.00904920799985,223.00904920799985,223.505390541,b,1.0,0.4882021250000434,,,,,,,,,,,,,,,,,,,,,,,,,,,,,,,,,,,,,,,,sub-021,2,stroop_test,,
,,,,,,,,,,,,,,,,,,,,,,,,,,,,,,,,,,,,,,,,,,,,,,,,,,,,,,,,,,,,,,,,,,,,223.50549291599987,223.51160537500004,223.51160537500004,231.228543833,space,7.7112757909999345,,,,,,,,,,,,,,,,,,,,,,,,,,,,,,,,,sub-021,2,stroop_test,,
,,,,0.0,0.0,0.0,,,,,blau,blue,b,1.0,b,1.0,0.54650662500012,,,,,,,,,,,,,,0.0,0.0,0.0,5.0,,,,,231.2407575,,,,,,,,,,,,,,,,,231.236073625,231.57418966599997,232.369000125,232.36105891600005,,,,,,,,,,,,,,,,232.36475,232.369000125,232.369000125,232.92232595799987,b,1.0,0.54650662500012,,232.92600670799996,232.9310472909999,233.92597125,233.922089916,,,,,,,,,,,,,,,,,,,,sub-021,2,stroop_test,,
,,,,1.0,1.0,0.0,,,,,gelb,blue,b,0.0,g,0.0,0.9965917500001068,,,,,,,,,,,,,,0.0,1.0,1.0,9.0,,,,,233.92597125,,,,,,,,,,,,,,,,,233.92230912499983,234.7198555,235.51157212499996,235.50547262500004,,,,,,,,,,,,,,,,235.50712787499992,235.51157212499996,235.51157212499996,236.51166945799991,g,0.0,0.9965917500001068,,236.514554291,236.51960612499988,237.50957308299985,237.50582870799985,,,,,,,,,,,,,,,,,,,,sub-021,2,stroop_test,,
,,,,2.0,2.0,0.0,,,,,blau,red,r,0.0,r,1.0,0.8812148749998414,,,,,,,,,,,,,,0.0,2.0,2.0,4.0,,,,,237.50957308299985,,,,,,,,,,,,,,,,,237.50604150000004,237.85936341599995,238.65264208300005,238.64427699999987,,,,,,,,,,,,,,,,238.64600591599992,238.65264208300005,238.65264208300005,239.539544125,r,1.0,0.8812148749998414,,239.541336583,239.5478673749999,240.54325537499997,240.539359333,,,,,,,,,,,,,,,,,,,,sub-021,2,stroop_test,,
,,,,3.0,3.0,0.0,,,,,blau,blue,b,1.0,b,1.0,0.8154810830001225,,,,,,,,,,,,,,0.0,3.0,3.0,6.0,,,,,240.54325537499997,,,,,,,,,,,,,,,,,240.53957570800003,240.886793875,241.676208458,241.671966375,,,,,,,,,,,,,,,,241.6721877079999,241.676208458,241.676208458,242.49541033299988,b,1.0,0.8154810830001225,,242.4956615409999,242.502707291,243.493037166,243.48933062499987,,,,,,,,,,,,,,,,,,,,sub-021,2,stroop_test,,
,,,,4.0,4.0,0.0,,,,,rot,yellow,g,0.0,g,1.0,0.8303899169998203,,,,,,,,,,,,,,0.0,4.0,4.0,3.0,,,,,243.493037166,,,,,,,,,,,,,,,,,243.48956495799985,244.69263820799983,245.48626625,245.479064375,,,,,,,,,,,,,,,,245.48176795799984,245.48626625,245.48626625,246.32312958299983,g,1.0,0.8303899169998203,,246.32341275,246.32978154099987,247.326500875,247.322696041,,,,,,,,,,,,,,,,,,,,sub-021,2,stroop_test,,
,,,,5.0,5.0,0.0,,,,,rot,red,r,1.0,r,1.0,0.6882466669999303,,,,,,,,,,,,,,0.0,5.0,5.0,0.0,,,,,247.326500875,,,,,,,,,,,,,,,,,247.32289770800003,247.670052833,248.4607565409999,248.4559975,,,,,,,,,,,,,,,,248.45629612499988,248.4607565409999,248.4607565409999,249.15677837499996,r,1.0,0.6882466669999303,,249.15707433299983,249.1634147079999,250.15982429099995,250.156186791,,,,,,,,,,,,,,,,,,,,sub-021,2,stroop_test,,
,,,,6.0,6.0,0.0,,,,,gelb,red,r,0.0,r,1.0,0.6892413749999378,,,,,,,,,,,,,,0.0,6.0,6.0,8.0,,,,,250.15982429099995,,,,,,,,,,,,,,,,,250.15639762499995,250.95381391599997,251.746023875,251.73959741599992,,,,,,,,,,,,,,,,251.7414815,251.746023875,251.746023875,252.44021170799988,r,1.0,0.6892413749999378,,252.4405133329999,252.4467205829999,253.443189458,253.4395656249999,,,,,,,,,,,,,,,,,,,,sub-021,2,stroop_test,,
,,,,7.0,7.0,0.0,,,,,gelb,yellow,g,1.0,g,1.0,0.6532616249999137,,,,,,,,,,,,,,0.0,7.0,7.0,11.0,,,,,253.443189458,,,,,,,,,,,,,,,,,253.4398034159999,254.63723099999996,255.42698695800004,255.42275729099995,,,,,,,,,,,,,,,,255.42298816599987,255.42698695800004,255.42698695800004,256.09021125000004,g,1.0,0.6532616249999137,,256.09045575000005,256.0963697079999,257.0936698329999,257.0896774999999,,,,,,,,,,,,,,,,,,,,sub-021,2,stroop_test,,
,,,,8.0,8.0,0.0,,,,,blau,yellow,g,0.0,g,1.0,0.512876125000048,,,,,,,,,,,,,,0.0,8.0,8.0,7.0,,,,,257.0936698329999,,,,,,,,,,,,,,,,,257.08992387499984,258.287302166,259.07916158299986,259.0729013329999,,,,,,,,,,,,,,,,259.07462324999983,259.07916158299986,259.07916158299986,259.595990583,g,1.0,0.512876125000048,,259.59624733299984,259.60339049999993,260.593456458,260.589818166,,,,,,,,,,,,,,,,,,,,sub-021,2,stroop_test,,
,,,,9.0,9.0,0.0,,,,,rot,blue,b,0.0,b,1.0,0.6684717499999806,,,,,,,,,,,,,,0.0,9.0,9.0,2.0,,,,,260.593456458,,,,,,,,,,,,,,,,,260.590042333,260.943507666,261.736788916,261.728682041,,,,,,,,,,,,,,,,261.73049312499984,261.736788916,261.736788916,262.406247375,b,1.0,0.6684717499999806,,262.40644758300004,262.41003550000005,263.4041534579999,263.395767125,,,,,,,,,,,,,,,,,,,,sub-021,2,stroop_test,,
,,,,10.0,10.0,0.0,,,,,gelb,yellow,g,1.0,g,1.0,0.5540182499998991,,,,,,,,,,,,,,0.0,10.0,10.0,10.0,,,,,263.4041534579999,,,,,,,,,,,,,,,,,263.3959916659999,264.60429958299983,265.3960595829999,265.38989137499993,,,,,,,,,,,,,,,,265.39156416599985,265.3960595829999,265.3960595829999,265.95746529099983,g,1.0,0.5540182499998991,,265.9577287079999,265.964122958,266.96056791599995,266.95668008300004,,,,,,,,,,,,,,,,,,,,sub-021,2,stroop_test,,
,,,,11.0,11.0,0.0,,,,,rot,red,r,1.0,r,1.0,0.5098879580000357,,,,,,,,,,,,,,0.0,11.0,11.0,1.0,,,,,266.96056791599995,,,,,,,,,,,,,,,,,266.9568986249999,267.3043574159999,268.09649241600005,268.0901879579999,,,,,,,,,,,,,,,,268.0918950829998,268.09649241600005,268.09649241600005,268.60771545800003,r,1.0,0.5098879580000357,,268.60796812499984,268.61408566599994,269.6106723329999,269.60678191600005,,,,,,,,,,,,,,,,,,,,sub-021,2,stroop_test,,
,,,,12.0,0.0,1.0,,,,,rot,red,r,1.0,g,0.0,0.5630553749999763,,,,,,,,,,,,,,1.0,0.0,12.0,1.0,,,,,269.6106723329999,,,,,,,,,,,,,,,,,269.6070064579999,269.954477541,270.74485474999983,270.74040179099984,,,,,,,,,,,,,,,,270.740636083,270.74485474999983,270.74485474999983,271.31341275,g,0.0,0.5630553749999763,,271.3151994579998,271.32170229099984,272.31073770800003,272.3068378749999,,,,,,,,,,,,,,,,,,,,sub-021,2,stroop_test,,
,,,,13.0,1.0,1.0,,,,,rot,blue,b,0.0,b,1.0,0.568504374999975,,,,,,,,,,,,,,1.0,1.0,13.0,2.0,,,,,272.31073770800003,,,,,,,,,,,,,,,,,272.30707975,272.4107007079999,273.204636125,273.1960339999998,,,,,,,,,,,,,,,,273.19625866599995,273.204636125,273.204636125,273.77981679100003,b,1.0,0.568504374999975,,273.7817776249999,273.788256458,274.777563958,274.77390012499995,,,,,,,,,,,,,,,,,,,,sub-021,2,stroop_test,,
,,,,14.0,2.0,1.0,,,,,blau,blue,b,1.0,b,1.0,0.6136349170001267,,,,,,,,,,,,,,1.0,2.0,14.0,6.0,,,,,274.777563958,,,,,,,,,,,,,,,,,274.7741404579999,275.127313166,275.920709083,275.91289337499984,,,,,,,,,,,,,,,,275.9146484999999,275.920709083,275.920709083,276.540797208,b,1.0,0.6136349170001267,,276.541041166,276.54690033299994,277.544521541,277.54064441599985,,,,,,,,,,,,,,,,,,,,sub-021,2,stroop_test,,
,,,,15.0,3.0,1.0,,,,,rot,red,r,1.0,r,1.0,0.6720745830000396,,,,,,,,,,,,,,1.0,3.0,15.0,0.0,,,,,277.544521541,,,,,,,,,,,,,,,,,277.540871958,277.8880875,278.68044804099986,278.67395112500003,,,,,,,,,,,,,,,,278.675646125,278.68044804099986,278.68044804099986,279.357699166,r,1.0,0.6720745830000396,,279.357988,279.36434133299986,280.360709333,280.35713054099983,,,,,,,,,,,,,,,,,,,,sub-021,2,stroop_test,,
,,,,16.0,4.0,1.0,,,,,gelb,yellow,g,1.0,g,1.0,0.4983084580001105,,,,,,,,,,,,,,1.0,4.0,16.0,11.0,,,,,280.360709333,,,,,,,,,,,,,,,,,280.35733212499986,280.7049690409999,281.4972674579999,281.490744791,,,,,,,,,,,,,,,,281.49264370799983,281.4972674579999,281.4972674579999,281.99714695800003,g,1.0,0.4983084580001105,,281.99738962499987,282.00435045799986,282.994474333,282.99083699999983,,,,,,,,,,,,,,,,,,,,sub-021,2,stroop_test,,
,,,,17.0,5.0,1.0,,,,,blau,blue,b,1.0,b,1.0,0.6166882919999352,,,,,,,,,,,,,,1.0,5.0,17.0,5.0,,,,,282.994474333,,,,,,,,,,,,,,,,,282.991077958,283.09460145799994,283.887701375,283.8796380409999,,,,,,,,,,,,,,,,283.8813359579999,283.887701375,283.887701375,284.5078088749999,b,1.0,0.6166882919999352,,284.5080552909999,284.51415162499984,285.5114766659999,285.507578708,,,,,,,,,,,,,,,,,,,,sub-021,2,stroop_test,,
,,,,18.0,6.0,1.0,,,,,blau,yellow,g,0.0,g,1.0,0.7010050000001229,,,,,,,,,,,,,,1.0,6.0,18.0,7.0,,,,,285.5114766659999,,,,,,,,,,,,,,,,,285.507836458,285.60513316599986,286.3951742909999,286.3906770829999,,,,,,,,,,,,,,,,286.39091662500005,286.3951742909999,286.3951742909999,287.09744224999986,g,1.0,0.7010050000001229,,287.09769141599986,287.104408791,288.0951789579999,288.0911659579999,,,,,,,,,,,,,,,,,,,,sub-021,2,stroop_test,,
,,,,19.0,7.0,1.0,,,,,gelb,blue,b,0.0,b,1.0,0.8197023749999062,,,,,,,,,,,,,,1.0,7.0,19.0,9.0,,,,,288.0951789579999,,,,,,,,,,,,,,,,,288.091406708,288.4445921249999,289.23783508299994,289.2304514159998,,,,,,,,,,,,,,,,289.23237641599985,289.23783508299994,289.23783508299994,290.06315574999985,b,1.0,0.8197023749999062,,290.063409458,290.0712792909999,291.06157029099995,291.05770133299984,,,,,,,,,,,,,,,,,,,,sub-021,2,stroop_test,,
,,,,20.0,8.0,1.0,,,,,blau,red,r,0.0,r,1.0,0.7154538750000938,,,,,,,,,,,,,,1.0,8.0,20.0,4.0,,,,,291.06157029099995,,,,,,,,,,,,,,,,,291.05793399999993,291.86127462499985,292.654685041,292.646321708,,,,,,,,,,,,,,,,292.6479992079999,292.654685041,292.654685041,293.374940125,r,1.0,0.7154538750000938,,293.3752046249999,293.3813178329999,294.3787762909999,294.37472016599986,,,,,,,,,,,,,,,,,,,,sub-021,2,stroop_test,,
,,,,21.0,9.0,1.0,,,,,rot,yellow,g,0.0,g,1.0,0.5816263750000417,,,,,,,,,,,,,,1.0,9.0,21.0,3.0,,,,,294.3787762909999,,,,,,,,,,,,,,,,,294.37499470800003,295.57210066599987,296.3644193749999,296.35797112499995,,,,,,,,,,,,,,,,296.359710208,296.3644193749999,296.3644193749999,296.9473983329999,g,1.0,0.5816263750000417,,296.947652416,296.95478845799994,297.94544029099984,297.94135970799994,,,,,,,,,,,,,,,,,,,,sub-021,2,stroop_test,,
,,,,22.0,10.0,1.0,,,,,gelb,red,r,0.0,r,1.0,0.8623343339997973,,,,,,,,,,,,,,1.0,10.0,22.0,8.0,,,,,297.94544029099984,,,,,,,,,,,,,,,,,297.941631208,298.29479679099995,299.0882308749999,299.08043875,,,,,,,,,,,,,,,,299.08234579099985,299.0882308749999,299.0882308749999,299.9585092499999,r,1.0,0.8623343339997973,,299.95876366599987,299.96508512499986,300.96177991599984,300.957909125,,,,,,,,,,,,,,,,,,,,sub-021,2,stroop_test,,
,,,,23.0,11.0,1.0,,,,,gelb,yellow,g,1.0,g,1.0,0.7792946670001584,,,,,,,,,,,,,,1.0,11.0,23.0,10.0,,,,,300.96177991599984,,,,,,,,,,,,,,,,,300.958160208,301.75568083300004,302.5459133749998,302.5412174999999,,,,,,,,,,,,,,,,302.5414492499999,302.5459133749998,302.5459133749998,303.330562958,g,1.0,0.7792946670001584,,303.33082583299984,303.33853691599984,304.32975787500004,304.3250357909999,,,,,,,,,,,,,,,,,,,,sub-021,2,stroop_test,,
,,,,,,,,,,,,,,,,,,,,,,,,,,,,,,,,,,,,,,,,,,,,,,,,,,,,,,,,,,,,,,,,,,,,,,,,,,,,,,,,,,,,,,,304.32513441599986,304.32975787500004,304.32975787500004,308.8755229159999,space,4.534468457999992,,,,,,,,,,,,,,sub-021,2,stroop_test,,
,,,,0.0,0.0,0.0,,,,,,,,,,,,,blau,red,r,0.0,r,1.0,0.6725199169998177,,,,,,,,,,0.0,0.0,0.0,4.0,308.8879623329999,,,,,,,,,,,,,,,,,308.88305445799983,309.67268316599984,310.4647615829999,310.45818808299987,,,,,,,,,,,,,,,,,,,,,,,,,,,,,,,,,,,310.46007395799984,310.4647615829999,310.4647615829999,311.1423118749999,r,1.0,0.6725199169998177,,,,,,sub-021,2,stroop_test,,
,,,,1.0,1.0,0.0,,,,,,,,,,,,,blau,blue,b,1.0,b,1.0,0.4254613339999196,,,,,,,,,,0.0,1.0,1.0,5.0,311.147894791,,,,,,,,,,,,,,,,,311.142551791,312.3394163329999,313.1295869999999,313.1250057079999,,,,,,,,,,,,,,,,,,,,,,,,,,,,,,,,,,,313.12523220799994,313.1295869999999,313.1295869999999,313.559408375,b,1.0,0.4254613339999196,,,,,,sub-021,2,stroop_test,,
,,,,2.0,2.0,0.0,,,,,,,,,,,,,rot,yellow,g,0.0,g,1.0,0.706540958000005,,,,,,,,,,0.0,2.0,2.0,3.0,313.565362291,,,,,,,,,,,,,,,,,313.5596734999999,313.9058514579999,314.6985702909999,314.6920285829999,,,,,,,,,,,,,,,,,,,,,,,,,,,,,,,,,,,314.6937224999999,314.6985702909999,314.6985702909999,315.40914591599994,g,1.0,0.706540958000005,,,,,,sub-021,2,stroop_test,,
,,,,3.0,3.0,0.0,,,,,,,,,,,,,gelb,red,r,0.0,r,1.0,0.5255491249999977,,,,,,,,,,0.0,3.0,3.0,8.0,315.41475775000004,,,,,,,,,,,,,,,,,315.409381208,316.606198875,317.398260208,317.3918034159999,,,,,,,,,,,,,,,,,,,,,,,,,,,,,,,,,,,317.39369462499985,317.398260208,317.398260208,317.9259555829999,r,1.0,0.5255491249999977,,,,,,sub-021,2,stroop_test,,
,,,,4.0,4.0,0.0,,,,,,,,,,,,,blau,blue,b,1.0,b,1.0,0.4604942920000212,,,,,,,,,,0.0,4.0,4.0,6.0,317.93192750000003,,,,,,,,,,,,,,,,,317.9262219999998,319.12298395799985,319.9150705,319.90876420799987,,,,,,,,,,,,,,,,,,,,,,,,,,,,,,,,,,,319.910490125,319.9150705,319.9150705,320.381864208,b,1.0,0.4604942920000212,,,,,,sub-021,2,stroop_test,,
,,,,5.0,5.0,0.0,,,,,,,,,,,,,rot,blue,b,0.0,b,1.0,0.4730256670000017,,,,,,,,,,0.0,5.0,5.0,2.0,320.389021833,,,,,,,,,,,,,,,,,320.38213295799983,321.179256166,321.9724094579999,321.964495708,,,,,,,,,,,,,,,,,,,,,,,,,,,,,,,,,,,321.96614654099994,321.9724094579999,321.9724094579999,322.44840095799987,b,1.0,0.4730256670000017,,,,,,sub-021,2,stroop_test,,
,,,,6.0,6.0,0.0,,,,,,,,,,,,,gelb,blue,b,0.0,b,1.0,0.4523035419999814,,,,,,,,,,0.0,6.0,6.0,9.0,322.45572987499986,,,,,,,,,,,,,,,,,322.4486791249999,323.6456120409998,324.4391885,324.43115554099995,,,,,,,,,,,,,,,,,,,,,,,,,,,,,,,,,,,324.432881875,324.4391885,324.4391885,324.89280399999984,b,1.0,0.4523035419999814,,,,,,sub-021,2,stroop_test,,
,,,,7.0,7.0,0.0,,,,,,,,,,,,,blau,yellow,g,0.0,g,1.0,0.6655198329999621,,,,,,,,,,0.0,7.0,7.0,7.0,324.8984278749999,,,,,,,,,,,,,,,,,324.89305658299986,326.089941041,326.881898416,326.8755047499999,,,,,,,,,,,,,,,,,,,,,,,,,,,,,,,,,,,326.877229083,326.881898416,326.881898416,327.549251916,g,1.0,0.6655198329999621,,,,,,sub-021,2,stroop_test,,
,,,,8.0,8.0,0.0,,,,,,,,,,,,,gelb,yellow,g,1.0,g,1.0,0.3855552499999248,,,,,,,,,,0.0,8.0,8.0,11.0,327.556027291,,,,,,,,,,,,,,,,,327.54950766599995,328.74604691599984,329.5393999579999,329.5309877079999,,,,,,,,,,,,,,,,,,,,,,,,,,,,,,,,,,,329.5326963329999,329.5393999579999,329.5393999579999,329.9264475,g,1.0,0.3855552499999248,,,,,,sub-021,2,stroop_test,,
,,,,9.0,9.0,0.0,,,,,,,,,,,,,rot,red,r,1.0,r,1.0,0.5365306250000685,,,,,,,,,,0.0,9.0,9.0,1.0,329.930135458,,,,,,,,,,,,,,,,,329.9266822499999,330.72345633299983,331.5154426249999,331.5090305829999,,,,,,,,,,,,,,,,,,,,,,,,,,,,,,,,,,,331.5107069159999,331.5154426249999,331.5154426249999,332.06005137499983,r,1.0,0.5365306250000685,,,,,,sub-021,2,stroop_test,,
,,,,10.0,10.0,0.0,,,,,,,,,,,,,gelb,yellow,g,1.0,g,1.0,1.28896316700002,,,,,,,,,,0.0,10.0,10.0,10.0,332.06601249999994,,,,,,,,,,,,,,,,,332.0603249579999,332.85684716599985,333.64883895799994,333.64248366599986,,,,,,,,,,,,,,,,,,,,,,,,,,,,,,,,,,,333.644196125,333.64883895799994,333.64883895799994,334.943218208,g,1.0,1.28896316700002,,,,,,sub-021,2,stroop_test,,
,,,,11.0,11.0,0.0,,,,,,,,,,,,,rot,red,r,1.0,r,1.0,0.485090166999953,,,,,,,,,,0.0,11.0,11.0,0.0,334.94929287499986,,,,,,,,,,,,,,,,,334.943521125,336.140353625,336.9326477079999,336.92592720799985,,,,,,,,,,,,,,,,,,,,,,,,,,,,,,,,,,,336.92781187499986,336.9326477079999,336.9326477079999,337.4265184159999,r,1.0,0.485090166999953,,,,,,sub-021,2,stroop_test,,
,,,,12.0,0.0,1.0,,,,,,,,,,,,,blau,blue,b,1.0,b,1.0,0.4961417080000956,,,,,,,,,,1.0,0.0,12.0,6.0,337.432117375,,,,,,,,,,,,,,,,,337.42675266599986,338.62372708299995,339.4154901659999,339.40919495799994,,,,,,,,,,,,,,,,,,,,,,,,,,,,,,,,,,,339.410891083,339.4154901659999,339.4154901659999,339.915796041,b,1.0,0.4961417080000956,,,,,,sub-021,2,stroop_test,,
,,,,13.0,1.0,1.0,,,,,,,,,,,,,gelb,yellow,g,1.0,g,1.0,0.481241541999907,,,,,,,,,,1.0,1.0,13.0,10.0,339.923074583,,,,,,,,,,,,,,,,,339.91608154100004,340.71316412500005,341.50650570799985,341.49869924999985,,,,,,,,,,,,,,,,,,,,,,,,,,,,,,,,,,,341.5004502909999,341.50650570799985,341.50650570799985,341.99326566599984,g,1.0,0.481241541999907,,,,,,sub-021,2,stroop_test,,
,,,,14.0,2.0,1.0,,,,,,,,,,,,,blau,red,r,0.0,r,1.0,0.4948214169999119,,,,,,,,,,1.0,2.0,14.0,4.0,341.999281958,,,,,,,,,,,,,,,,,341.993505833,342.0905566659999,342.88273908299993,342.876300291,,,,,,,,,,,,,,,,,,,,,,,,,,,,,,,,,,,342.8782033329999,342.88273908299993,342.88273908299993,343.3826396249999,r,1.0,0.4948214169999119,,,,,,sub-021,2,stroop_test,,
,,,,15.0,3.0,1.0,,,,,,,,,,,,,gelb,blue,b,0.0,b,1.0,0.5194568750000599,,,,,,,,,,1.0,3.0,15.0,9.0,343.38994604100003,,,,,,,,,,,,,,,,,343.38290600000005,344.5784873749999,345.37329279100004,345.3653669999999,,,,,,,,,,,,,,,,,,,,,,,,,,,,,,,,,,,345.3671429159999,345.37329279100004,345.37329279100004,345.894026166,b,1.0,0.5194568750000599,,,,,,sub-021,2,stroop_test,,
,,,,16.0,4.0,1.0,,,,,,,,,,,,,rot,blue,b,0.0,b,1.0,0.6143777499999032,,,,,,,,,,1.0,4.0,16.0,2.0,345.8977685,,,,,,,,,,,,,,,,,345.89426745799983,346.690704333,347.48361854099994,347.47673775,,,,,,,,,,,,,,,,,,,,,,,,,,,,,,,,,,,347.478666708,347.48361854099994,347.48361854099994,348.099540833,b,1.0,0.6143777499999032,,,,,,sub-021,2,stroop_test,,
,,,,17.0,5.0,1.0,,,,,,,,,,,,,gelb,red,r,0.0,g,0.0,0.40500116599992,,,,,,,,,,1.0,5.0,17.0,8.0,348.1073470829999,,,,,,,,,,,,,,,,,348.099786541,348.8966062909999,349.69008995800004,349.68230362500003,,,,,,,,,,,,,,,,,,,,,,,,,,,,,,,,,,,349.68401512499986,349.69008995800004,349.69008995800004,350.099456875,g,0.0,0.40500116599992,,,,,,sub-021,2,stroop_test,,
,,,,18.0,6.0,1.0,,,,,,,,,,,,,rot,yellow,g,0.0,g,1.0,0.7495488750000732,,,,,,,,,,1.0,6.0,18.0,3.0,350.1067378329999,,,,,,,,,,,,,,,,,350.099743583,350.19723758299983,350.9901729159999,350.9821565,,,,,,,,,,,,,,,,,,,,,,,,,,,,,,,,,,,350.983988875,350.9901729159999,350.9901729159999,351.7440697909999,g,1.0,0.7495488750000732,,,,,,sub-021,2,stroop_test,,
,,,,19.0,7.0,1.0,,,,,,,,,,,,,rot,red,r,1.0,r,1.0,0.567429250000032,,,,,,,,,,1.0,7.0,19.0,1.0,351.7499005,,,,,,,,,,,,,,,,,351.74432475000003,352.54089887500004,353.331123208,353.32655720799994,,,,,,,,,,,,,,,,,,,,,,,,,,,,,,,,,,,353.32675979099986,353.331123208,353.331123208,353.89980579099984,r,1.0,0.567429250000032,,,,,,sub-021,2,stroop_test,,
,,,,20.0,8.0,1.0,,,,,,,,,,,,,gelb,yellow,g,1.0,g,1.0,0.6410623749998194,,,,,,,,,,1.0,8.0,20.0,11.0,353.9068924579999,,,,,,,,,,,,,,,,,353.9000471249999,354.246666541,355.0403093749999,355.03249412499986,,,,,,,,,,,,,,,,,,,,,,,,,,,,,,,,,,,355.034450333,355.0403093749999,355.0403093749999,355.6833724579999,g,1.0,0.6410623749998194,,,,,,sub-021,2,stroop_test,,
,,,,21.0,9.0,1.0,,,,,,,,,,,,,blau,blue,b,1.0,b,1.0,0.5251783749999959,,,,,,,,,,1.0,9.0,21.0,5.0,355.6903057909999,,,,,,,,,,,,,,,,,355.6836142909999,356.029730708,356.8237322079999,356.8154515829999,,,,,,,,,,,,,,,,,,,,,,,,,,,,,,,,,,,356.8173180409999,356.8237322079999,356.8237322079999,357.350172791,b,1.0,0.5251783749999959,,,,,,sub-021,2,stroop_test,,
,,,,22.0,10.0,1.0,,,,,,,,,,,,,blau,yellow,g,0.0,g,1.0,0.7021252910001294,,,,,,,,,,1.0,10.0,22.0,7.0,357.35709037499987,,,,,,,,,,,,,,,,,357.35041020799986,357.696562416,358.4911351659998,358.482278166,,,,,,,,,,,,,,,,,,,,,,,,,,,,,,,,,,,358.4825390409999,358.4911351659998,358.4911351659998,359.194594583,g,1.0,0.7021252910001294,,,,,,sub-021,2,stroop_test,,
,,,,23.0,11.0,1.0,,,,,,,,,,,,,rot,red,r,1.0,r,1.0,0.4093003339999086,,,,,,,,,,1.0,11.0,23.0,0.0,359.1983108329998,,,,,,,,,,,,,,,,,359.194837666,359.54109912499985,360.333744416,360.327138416,,,,,,,,,,,,,,,,,,,,,,,,,,,,,,,,,,,360.329131791,360.333744416,360.333744416,360.7443015829999,r,1.0,0.4093003339999086,,,,,,sub-021,2,stroop_test,,
,,,,24.0,0.0,2.0,,,,,,,,,,,,,rot,red,r,1.0,r,1.0,0.4893950830000904,,,,,,,,,,2.0,0.0,24.0,0.0,360.748042958,,,,,,,,,,,,,,,,,360.7445413329999,360.841244875,361.63122158299984,361.6268063329999,,,,,,,,,,,,,,,,,,,,,,,,,,,,,,,,,,,361.627225625,361.63122158299984,361.63122158299984,362.1273598329999,r,1.0,0.4893950830000904,,,,,,sub-021,2,stroop_test,,
,,,,25.0,1.0,2.0,,,,,,,,,,,,,gelb,blue,b,0.0,b,1.0,0.7434902919999331,,,,,,,,,,2.0,1.0,25.0,9.0,362.13302325,,,,,,,,,,,,,,,,,362.1275922499999,362.474605958,363.266502666,363.260229166,,,,,,,,,,,,,,,,,,,,,,,,,,,,,,,,,,,363.261926875,363.266502666,363.266502666,364.016691375,b,1.0,0.7434902919999331,,,,,,sub-021,2,stroop_test,,
,,,,26.0,2.0,2.0,,,,,,,,,,,,,gelb,red,r,0.0,r,1.0,0.7519032079999306,,,,,,,,,,2.0,2.0,26.0,8.0,364.02404012499983,,,,,,,,,,,,,,,,,364.016965,364.11366562499984,364.908044458,364.898934416,,,,,,,,,,,,,,,,,,,,,,,,,,,,,,,,,,,364.8991491659999,364.908044458,364.908044458,365.6612708329999,r,1.0,0.7519032079999306,,,,,,sub-021,2,stroop_test,,
,,,,27.0,3.0,2.0,,,,,,,,,,,,,gelb,yellow,g,1.0,g,1.0,0.9335558330001276,,,,,,,,,,2.0,3.0,27.0,11.0,365.66513191599984,,,,,,,,,,,,,,,,,365.661539208,365.758123375,366.5484160829999,366.5439558329999,,,,,,,,,,,,,,,,,,,,,,,,,,,,,,,,,,,366.5442331659999,366.5484160829999,366.5484160829999,367.483186666,g,1.0,0.9335558330001276,,,,,,sub-021,2,stroop_test,,
,,,,28.0,4.0,2.0,,,,,,,,,,,,,rot,yellow,g,0.0,g,1.0,0.4787342080001053,,,,,,,,,,2.0,4.0,28.0,3.0,367.4908457079998,,,,,,,,,,,,,,,,,367.4834330829999,368.280884708,369.0741504999999,369.0663077499999,,,,,,,,,,,,,,,,,,,,,,,,,,,,,,,,,,,369.0681923749999,369.0741504999999,369.0741504999999,369.5615975829999,g,1.0,0.4787342080001053,,,,,,sub-021,2,stroop_test,,
,,,,29.0,5.0,2.0,,,,,,,,,,,,,blau,yellow,g,0.0,g,1.0,0.5458179999998265,,,,,,,,,,2.0,5.0,29.0,7.0,369.5677598329999,,,,,,,,,,,,,,,,,369.561896791,370.7583017079999,371.5503456249999,371.5440974999999,,,,,,,,,,,,,,,,,,,,,,,,,,,,,,,,,,,371.5458175409999,371.5503456249999,371.5503456249999,372.100714875,g,1.0,0.5458179999998265,,,,,,sub-021,2,stroop_test,,
,,,,30.0,6.0,2.0,,,,,,,,,,,,,blau,red,r,0.0,r,1.0,0.6186460829999305,,,,,,,,,,2.0,6.0,30.0,4.0,372.10757654099984,,,,,,,,,,,,,,,,,372.10098737499993,372.8978427079999,373.6916744579999,373.682826583,,,,,,,,,,,,,,,,,,,,,,,,,,,,,,,,,,,373.6830767909999,373.6916744579999,373.6916744579999,374.311610166,r,1.0,0.6186460829999305,,,,,,sub-021,2,stroop_test,,
,,,,31.0,7.0,2.0,,,,,,,,,,,,,blau,blue,b,1.0,b,1.0,0.3879752079999434,,,,,,,,,,2.0,7.0,31.0,5.0,374.3153975,,,,,,,,,,,,,,,,,374.3118682499999,375.5079544579999,376.299099458,376.2944051249999,,,,,,,,,,,,,,,,,,,,,,,,,,,,,,,,,,,376.294665166,376.299099458,376.299099458,376.69478541599983,b,1.0,0.3879752079999434,,,,,,sub-021,2,stroop_test,,
,,,,32.0,8.0,2.0,,,,,,,,,,,,,rot,blue,b,0.0,b,1.0,0.429228041999977,,,,,,,,,,2.0,8.0,32.0,2.0,376.70067637499983,,,,,,,,,,,,,,,,,376.6950777909999,376.7917848749999,377.5830509160001,377.5771635829999,,,,,,,,,,,,,,,,,,,,,,,,,,,,,,,,,,,377.5788158329999,377.5830509160001,377.5830509160001,378.01712695799984,b,1.0,0.429228041999977,,,,,,sub-021,2,stroop_test,,
,,,,33.0,9.0,2.0,,,,,,,,,,,,,blau,blue,b,1.0,b,1.0,0.4235097499999938,,,,,,,,,,2.0,9.0,33.0,6.0,378.024507333,,,,,,,,,,,,,,,,,378.017407458,378.3645012079999,379.157945333,379.14997,,,,,,,,,,,,,,,,,,,,,,,,,,,,,,,,,,,379.151823875,379.157945333,379.157945333,379.583592833,b,1.0,0.4235097499999938,,,,,,sub-021,2,stroop_test,,
,,,,34.0,10.0,2.0,,,,,,,,,,,,,rot,red,r,1.0,r,1.0,0.4874159589999181,,,,,,,,,,2.0,10.0,34.0,1.0,379.591292458,,,,,,,,,,,,,,,,,379.5838355829999,379.9312144579999,380.7246460829999,380.7162551249999,,,,,,,,,,,,,,,,,,,,,,,,,,,,,,,,,,,380.71807375,380.7246460829999,380.7246460829999,381.2175399999999,r,1.0,0.4874159589999181,,,,,,sub-021,2,stroop_test,,
,,,,35.0,11.0,2.0,,,,,,,,,,,,,gelb,yellow,g,1.0,g,1.0,0.5260409580000669,,,,,,,,,,2.0,11.0,35.0,10.0,381.224628083,,,,,,,,,,,,,,,,,381.217814375,381.5643031249999,382.357969208,382.3501919999999,,,,,,,,,,,,,,,,,,,,,,,,,,,,,,,,,,,382.3520424159999,382.357969208,382.357969208,382.894791916,g,1.0,0.5260409580000669,,,,,,sub-021,2,stroop_test,,
,,,,36.0,0.0,3.0,,,,,,,,,,,,,blau,red,r,0.0,r,1.0,0.5939687920001688,,,,,,,,,,3.0,0.0,36.0,4.0,382.900648625,,,,,,,,,,,,,,,,,382.895052291,383.2420224159998,384.0342201250001,384.027789625,,,,,,,,,,,,,,,,,,,,,,,,,,,,,,,,,,,384.029687125,384.0342201250001,384.0342201250001,384.63423375,r,1.0,0.5939687920001688,,,,,,sub-021,2,stroop_test,,
,,,,37.0,1.0,3.0,,,,,,,,,,,,,rot,red,r,1.0,r,1.0,0.4320232499999292,,,,,,,,,,3.0,1.0,37.0,1.0,384.6414057079999,,,,,,,,,,,,,,,,,384.634514958,385.830002333,386.6248808329999,386.6166672499999,,,,,,,,,,,,,,,,,,,,,,,,,,,,,,,,,,,386.6183940409999,386.6248808329999,386.6248808329999,387.061352041,r,1.0,0.4320232499999292,,,,,,sub-021,2,stroop_test,,
,,,,38.0,2.0,3.0,,,,,,,,,,,,,blau,blue,b,1.0,b,1.0,0.5725095830000555,,,,,,,,,,3.0,2.0,38.0,5.0,387.067451166,,,,,,,,,,,,,,,,,387.061586541,388.2589169579999,389.051027541,389.044648541,,,,,,,,,,,,,,,,,,,,,,,,,,,,,,,,,,,389.046547208,389.051027541,389.051027541,389.628503875,b,1.0,0.5725095830000555,,,,,,sub-021,2,stroop_test,,
,,,,39.0,3.0,3.0,,,,,,,,,,,,,rot,yellow,g,0.0,g,1.0,0.6390092080000613,,,,,,,,,,3.0,3.0,39.0,3.0,389.6343051249999,,,,,,,,,,,,,,,,,389.6287414159999,390.425224583,391.218035333,391.211546666,,,,,,,,,,,,,,,,,,,,,,,,,,,,,,,,,,,391.21344224999984,391.218035333,391.218035333,391.861577375,g,1.0,0.6390092080000613,,,,,,sub-021,2,stroop_test,,
,,,,40.0,4.0,3.0,,,,,,,,,,,,,gelb,red,r,0.0,r,1.0,0.5425808330001018,,,,,,,,,,3.0,4.0,40.0,8.0,391.8674813749999,,,,,,,,,,,,,,,,,391.8618099999999,392.2088840409999,393.0016538329999,392.9949549159999,,,,,,,,,,,,,,,,,,,,,,,,,,,,,,,,,,,392.997014,393.0016538329999,393.0016538329999,393.5454977079999,r,1.0,0.5425808330001018,,,,,,sub-021,2,stroop_test,,
,,,,41.0,5.0,3.0,,,,,,,,,,,,,gelb,blue,b,0.0,b,1.0,0.6027151250000315,,,,,,,,,,3.0,5.0,41.0,9.0,393.551203708,,,,,,,,,,,,,,,,,393.545749875,393.892494041,394.6829705,394.678321208,,,,,,,,,,,,,,,,,,,,,,,,,,,,,,,,,,,394.678545708,394.6829705,394.6829705,395.295535666,b,1.0,0.6027151250000315,,,,,,sub-021,2,stroop_test,,
,,,,42.0,6.0,3.0,,,,,,,,,,,,,blau,blue,b,1.0,b,1.0,0.5467171669999971,,,,,,,,,,3.0,6.0,42.0,6.0,395.30134520799993,,,,,,,,,,,,,,,,,395.29576658299993,395.64257825,396.4342643749999,396.4281262079999,,,,,,,,,,,,,,,,,,,,,,,,,,,,,,,,,,,396.4298262909999,396.4342643749999,396.4342643749999,396.984925541,b,1.0,0.5467171669999971,,,,,,sub-021,2,stroop_test,,
,,,,43.0,7.0,3.0,,,,,,,,,,,,,rot,blue,b,0.0,b,1.0,0.3894941250000556,,,,,,,,,,3.0,7.0,43.0,2.0,396.991863666,,,,,,,,,,,,,,,,,396.9852080409999,398.18162091599993,398.975698166,398.966393041,,,,,,,,,,,,,,,,,,,,,,,,,,,,,,,,,,,398.968273791,398.975698166,398.975698166,399.3683563749999,b,1.0,0.3894941250000556,,,,,,sub-021,2,stroop_test,,
,,,,44.0,8.0,3.0,,,,,,,,,,,,,gelb,yellow,g,1.0,g,1.0,0.3393880829999034,,,,,,,,,,3.0,8.0,44.0,10.0,399.37528625,,,,,,,,,,,,,,,,,399.368589875,400.165202958,400.95870225,400.950443041,,,,,,,,,,,,,,,,,,,,,,,,,,,,,,,,,,,400.9523198330001,400.95870225,400.95870225,401.301491041,g,1.0,0.3393880829999034,,,,,,sub-021,2,stroop_test,,
,,,,45.0,9.0,3.0,,,,,,,,,,,,,blau,yellow,g,0.0,g,1.0,0.4266571660000409,,,,,,,,,,3.0,9.0,45.0,7.0,401.3087241660001,,,,,,,,,,,,,,,,,401.301755208,402.4987571249999,403.2921463329999,403.2840215829999,,,,,,,,,,,,,,,,,,,,,,,,,,,,,,,,,,,403.2857205,403.2921463329999,403.2921463329999,403.7292665,g,1.0,0.4266571660000409,,,,,,sub-021,2,stroop_test,,
,,,,46.0,10.0,3.0,,,,,,,,,,,,,rot,red,r,1.0,r,1.0,0.51543208399994,,,,,,,,,,3.0,10.0,46.0,0.0,403.7352713749999,,,,,,,,,,,,,,,,,403.7295052499999,404.0762411660001,404.868744375,404.862021291,,,,,,,,,,,,,,,,,,,,,,,,,,,,,,,,,,,404.8641667499999,404.868744375,404.868744375,405.3854736659998,r,1.0,0.51543208399994,,,,,,sub-021,2,stroop_test,,
,,,,47.0,11.0,3.0,,,,,,,,,,,,,gelb,yellow,g,1.0,b,0.0,0.3883637080000426,,,,,,,,,,3.0,11.0,47.0,11.0,405.3925756659999,,,,,,,,,,,,,,,,,405.3857102909999,406.5822759999999,407.375612416,407.367936916,,,,,,,,,,,,,,,,,,,,,,,,,,,,,,,,,,,407.369673916,407.375612416,407.375612416,407.768261291,b,0.0,0.3883637080000426,,,,,,sub-021,2,stroop_test,,
,,,,48.0,0.0,4.0,,,,,,,,,,,,,gelb,yellow,g,1.0,r,0.0,0.6781040420000863,,,,,,,,,,4.0,0.0,48.0,10.0,407.77559662499993,,,,,,,,,,,,,,,,,407.76854208299983,408.566070333,409.3595854999999,409.3506639999998,,,,,,,,,,,,,,,,,,,,,,,,,,,,,,,,,,,409.3509007079999,409.3595854999999,409.3595854999999,410.046138166,r,0.0,0.6781040420000863,,,,,,sub-021,2,stroop_test,,
,,,,49.0,1.0,4.0,,,,,,,,,,,,,gelb,yellow,g,1.0,g,1.0,0.4956282499999815,,,,,,,,,,4.0,1.0,49.0,11.0,410.0521362499999,,,,,,,,,,,,,,,,,410.0464226249999,410.1430774579999,410.933285458,410.92870237499983,,,,,,,,,,,,,,,,,,,,,,,,,,,,,,,,,,,410.9289336249999,410.933285458,410.933285458,411.435009666,g,1.0,0.4956282499999815,,,,,,sub-021,2,stroop_test,,
,,,,50.0,2.0,4.0,,,,,,,,,,,,,rot,red,r,1.0,r,1.0,0.5335990420001053,,,,,,,,,,4.0,2.0,50.0,1.0,411.4424366660001,,,,,,,,,,,,,,,,,411.43528404099993,412.232433125,413.025799541,413.017817916,,,,,,,,,,,,,,,,,,,,,,,,,,,,,,,,,,,413.01976249999984,413.025799541,413.025799541,413.5624479159999,r,1.0,0.5335990420001053,,,,,,sub-021,2,stroop_test,,
,,,,51.0,3.0,4.0,,,,,,,,,,,,,rot,red,r,1.0,r,1.0,0.5575664999998935,,,,,,,,,,4.0,3.0,51.0,0.0,413.5680829579999,,,,,,,,,,,,,,,,,413.562703625,414.3598777499999,415.150372583,415.1457056659999,,,,,,,,,,,,,,,,,,,,,,,,,,,,,,,,,,,415.145946416,415.150372583,415.150372583,415.712752291,r,1.0,0.5575664999998935,,,,,,sub-021,2,stroop_test,,
,,,,52.0,4.0,4.0,,,,,,,,,,,,,gelb,red,r,0.0,r,1.0,0.5568929999999455,,,,,,,,,,4.0,4.0,52.0,8.0,415.7187213749999,,,,,,,,,,,,,,,,,415.712998791,415.8100944159999,416.5995330409999,416.594681416,,,,,,,,,,,,,,,,,,,,,,,,,,,,,,,,,,,416.595820708,416.5995330409999,416.5995330409999,417.162823416,r,1.0,0.5568929999999455,,,,,,sub-021,2,stroop_test,,
,,,,53.0,5.0,4.0,,,,,,,,,,,,,rot,blue,b,0.0,b,1.0,0.598316000000068,,,,,,,,,,4.0,5.0,53.0,2.0,417.1687455409999,,,,,,,,,,,,,,,,,417.163098708,417.9599907499999,418.752374916,418.7459961249999,,,,,,,,,,,,,,,,,,,,,,,,,,,,,,,,,,,418.74768099999983,418.752374916,418.752374916,419.3522807079999,b,1.0,0.598316000000068,,,,,,sub-021,2,stroop_test,,
,,,,54.0,6.0,4.0,,,,,,,,,,,,,rot,yellow,g,0.0,r,0.0,1.2724376659998595,,,,,,,,,,4.0,6.0,54.0,3.0,419.359385041,,,,,,,,,,,,,,,,,419.3525171249999,419.6994119159999,420.4934498329999,420.4848952079999,,,,,,,,,,,,,,,,,,,,,,,,,,,,,,,,,,,420.485134708,420.4934498329999,420.4934498329999,421.768915458,r,0.0,1.2724376659998595,,,,,,sub-021,2,stroop_test,,
,,,,55.0,7.0,4.0,,,,,,,,,,,,,gelb,blue,b,0.0,b,1.0,0.6445807919999424,,,,,,,,,,4.0,7.0,55.0,9.0,421.776164166,,,,,,,,,,,,,,,,,421.76915558299993,422.566140875,423.359572333,423.3517721660001,,,,,,,,,,,,,,,,,,,,,,,,,,,,,,,,,,,423.353463916,423.359572333,423.359572333,424.0128783749999,b,1.0,0.6445807919999424,,,,,,sub-021,2,stroop_test,,
,,,,56.0,8.0,4.0,,,,,,,,,,,,,blau,blue,b,1.0,b,1.0,0.6693997080001282,,,,,,,,,,4.0,8.0,56.0,6.0,424.018530416,,,,,,,,,,,,,,,,,424.01310049999984,425.2103485,426.00259470799983,425.9962425409999,,,,,,,,,,,,,,,,,,,,,,,,,,,,,,,,,,,425.9979444579999,426.00259470799983,426.00259470799983,426.6797575829999,b,1.0,0.6693997080001282,,,,,,sub-021,2,stroop_test,,
,,,,57.0,9.0,4.0,,,,,,,,,,,,,blau,red,r,0.0,r,1.0,0.8776741250001123,,,,,,,,,,4.0,9.0,57.0,4.0,426.685400958,,,,,,,,,,,,,,,,,426.679989708,427.0266779159999,427.8173091659999,427.81258641599993,,,,,,,,,,,,,,,,,,,,,,,,,,,,,,,,,,,427.812859333,427.8173091659999,427.8173091659999,428.696569,r,1.0,0.8776741250001123,,,,,,sub-021,2,stroop_test,,
,,,,58.0,10.0,4.0,,,,,,,,,,,,,blau,yellow,g,0.0,g,1.0,0.4052347499998632,,,,,,,,,,4.0,10.0,58.0,7.0,428.7002765,,,,,,,,,,,,,,,,,428.6968012499999,428.793806166,429.5844044159999,429.57964779099984,,,,,,,,,,,,,,,,,,,,,,,,,,,,,,,,,,,429.5798935,429.5844044159999,429.5844044159999,429.996880083,g,1.0,0.4052347499998632,,,,,,sub-021,2,stroop_test,,
,,,,59.0,11.0,4.0,,,,,,,,,,,,,blau,blue,b,1.0,b,1.0,1.4035541670000384,,,,,,,,,,4.0,11.0,59.0,5.0,430.0026733329999,,,,,,,,,,,,,,,,,429.99715445799984,430.093870291,430.884230958,430.8796709999999,,,,,,,,,,,,,,,,,,,,,,,,,,,,,,,,,,,430.879930583,430.884230958,430.884230958,432.2969867909999,b,1.0,1.4035541670000384,,,,,,sub-021,2,stroop_test,,
,,,,60.0,0.0,5.0,,,,,,,,,,,,,gelb,yellow,g,1.0,r,0.0,0.8319052909998845,,,,,,,,,,5.0,0.0,60.0,10.0,432.3029824579999,,,,,,,,,,,,,,,,,432.2972761659999,433.093962916,433.885803791,433.87938424999993,,,,,,,,,,,,,,,,,,,,,,,,,,,,,,,,,,,433.881088208,433.885803791,433.885803791,434.7190619999999,r,0.0,0.8319052909998845,,,,,,sub-021,2,stroop_test,,
,,,,61.0,1.0,5.0,,,,,,,,,,,,,rot,red,r,1.0,r,1.0,0.5858280420000028,,,,,,,,,,5.0,1.0,61.0,0.0,434.726669166,,,,,,,,,,,,,,,,,434.719296125,434.816551166,435.609984708,435.6021452499999,,,,,,,,,,,,,,,,,,,,,,,,,,,,,,,,,,,435.6041196659999,435.609984708,435.609984708,436.1969053329999,r,1.0,0.5858280420000028,,,,,,sub-021,2,stroop_test,,
,,,,62.0,2.0,5.0,,,,,,,,,,,,,gelb,yellow,g,1.0,g,1.0,0.5930394999998043,,,,,,,,,,5.0,2.0,62.0,11.0,436.202505166,,,,,,,,,,,,,,,,,436.197133375,436.5441228329999,437.3361499999999,437.32958491599993,,,,,,,,,,,,,,,,,,,,,,,,,,,,,,,,,,,437.3316480829999,437.3361499999999,437.3361499999999,437.9305247909999,g,1.0,0.5930394999998043,,,,,,sub-021,2,stroop_test,,
,,,,63.0,3.0,5.0,,,,,,,,,,,,,rot,yellow,g,0.0,g,1.0,0.4319729580001876,,,,,,,,,,5.0,3.0,63.0,3.0,437.934275333,,,,,,,,,,,,,,,,,437.93078579099983,439.127491166,439.919513541,439.913037416,,,,,,,,,,,,,,,,,,,,,,,,,,,,,,,,,,,439.914771541,439.919513541,439.919513541,440.3529033329999,g,1.0,0.4319729580001876,,,,,,sub-021,2,stroop_test,,
,,,,64.0,4.0,5.0,,,,,,,,,,,,,blau,yellow,g,0.0,g,1.0,0.4746399580001252,,,,,,,,,,5.0,4.0,64.0,7.0,440.36087899999984,,,,,,,,,,,,,,,,,440.353140708,440.44974475,441.2435894999999,441.2353714159999,,,,,,,,,,,,,,,,,,,,,,,,,,,,,,,,,,,441.2372412909999,441.2435894999999,441.2435894999999,441.719483458,g,1.0,0.4746399580001252,,,,,,sub-021,2,stroop_test,,
,,,,65.0,5.0,5.0,,,,,,,,,,,,,blau,blue,b,1.0,b,1.0,0.5521435830000883,,,,,,,,,,5.0,5.0,65.0,6.0,441.727635166,,,,,,,,,,,,,,,,,441.7197173749999,442.51688141599993,443.310974583,443.3020158749998,,,,,,,,,,,,,,,,,,,,,,,,,,,,,,,,,,,443.302254666,443.310974583,443.310974583,443.8644474579999,b,1.0,0.5521435830000883,,,,,,sub-021,2,stroop_test,,
,,,,66.0,6.0,5.0,,,,,,,,,,,,,rot,blue,b,0.0,b,1.0,0.4676459579998209,,,,,,,,,,5.0,6.0,66.0,2.0,443.868136625,,,,,,,,,,,,,,,,,443.8646855,444.210888541,445.0031387909999,444.9966743749999,,,,,,,,,,,,,,,,,,,,,,,,,,,,,,,,,,,444.9983769999999,445.0031387909999,445.0031387909999,445.480820625,b,1.0,0.4676459579998209,,,,,,sub-021,2,stroop_test,,
,,,,67.0,7.0,5.0,,,,,,,,,,,,,gelb,red,r,0.0,r,1.0,0.6482645830001275,,,,,,,,,,5.0,7.0,67.0,8.0,445.486496041,,,,,,,,,,,,,,,,,445.481055583,445.8277659579999,446.6201162079999,446.613704375,,,,,,,,,,,,,,,,,,,,,,,,,,,,,,,,,,,446.61554325,446.6201162079999,446.6201162079999,447.2696747499999,r,1.0,0.6482645830001275,,,,,,sub-021,2,stroop_test,,
,,,,68.0,8.0,5.0,,,,,,,,,,,,,blau,blue,b,1.0,b,1.0,0.6854474159999882,,,,,,,,,,5.0,8.0,68.0,5.0,447.2772184159999,,,,,,,,,,,,,,,,,447.269911458,448.466181541,449.260548125,449.252703458,,,,,,,,,,,,,,,,,,,,,,,,,,,,,,,,,,,449.25456529099984,449.260548125,449.260548125,449.9476017079999,b,1.0,0.6854474159999882,,,,,,sub-021,2,stroop_test,,
,,,,69.0,9.0,5.0,,,,,,,,,,,,,blau,red,r,0.0,r,1.0,0.7053669580000133,,,,,,,,,,5.0,9.0,69.0,4.0,449.95332733299983,,,,,,,,,,,,,,,,,449.9478396249999,450.2945179999999,451.084922666,451.0804235829999,,,,,,,,,,,,,,,,,,,,,,,,,,,,,,,,,,,451.0806466249999,451.084922666,451.084922666,451.7974602499999,r,1.0,0.7053669580000133,,,,,,sub-021,2,stroop_test,,
,,,,70.0,10.0,5.0,,,,,,,,,,,,,rot,red,r,1.0,r,1.0,0.7659579159999339,,,,,,,,,,5.0,10.0,70.0,1.0,451.803524125,,,,,,,,,,,,,,,,,451.7977228329999,452.5945266659999,453.386617916,453.3801161659999,,,,,,,,,,,,,,,,,,,,,,,,,,,,,,,,,,,453.381972083,453.386617916,453.386617916,454.1639458749999,r,1.0,0.7659579159999339,,,,,,sub-021,2,stroop_test,,
,,,,71.0,11.0,5.0,,,,,,,,,,,,,gelb,blue,b,0.0,b,1.0,0.4334906249998767,,,,,,,,,,5.0,11.0,71.0,9.0,454.169647916,,,,,,,,,,,,,,,,,454.1641978749999,454.9614583749999,455.7532181249999,455.747036,,,,,,,,,,,,,,,,,,,,,,,,,,,,,,,,,,,455.74870324999983,455.7532181249999,455.7532181249999,456.1979516659999,b,1.0,0.4334906249998767,,,,,,sub-021,2,stroop_test,,
,,,,72.0,0.0,6.0,,,,,,,,,,,,,blau,blue,b,1.0,b,1.0,0.5941228330000285,,,,,,,,,,6.0,0.0,72.0,6.0,456.2039411659998,,,,,,,,,,,,,,,,,456.1981867079999,457.394830083,458.186285083,458.1799871660001,,,,,,,,,,,,,,,,,,,,,,,,,,,,,,,,,,,458.18182125,458.186285083,458.186285083,458.7872232499999,b,1.0,0.5941228330000285,,,,,,sub-021,2,stroop_test,,
,,,,73.0,1.0,6.0,,,,,,,,,,,,,rot,red,r,1.0,r,1.0,0.6120785000000524,,,,,,,,,,6.0,1.0,73.0,0.0,458.794183083,,,,,,,,,,,,,,,,,458.78750041599983,458.8838302909999,459.6776292909999,459.6695668749999,,,,,,,,,,,,,,,,,,,,,,,,,,,,,,,,,,,459.671471333,459.6776292909999,459.6776292909999,460.297735375,r,1.0,0.6120785000000524,,,,,,sub-021,2,stroop_test,,
,,,,74.0,2.0,6.0,,,,,,,,,,,,,blau,blue,b,1.0,b,1.0,0.5880668339998465,,,,,,,,,,6.0,2.0,74.0,5.0,460.3037897499999,,,,,,,,,,,,,,,,,460.298005458,460.3949727909999,461.186935666,461.1805360829999,,,,,,,,,,,,,,,,,,,,,,,,,,,,,,,,,,,461.1824662909999,461.186935666,461.186935666,461.781319833,b,1.0,0.5880668339998465,,,,,,sub-021,2,stroop_test,,
,,,,75.0,3.0,6.0,,,,,,,,,,,,,gelb,yellow,g,1.0,g,1.0,0.366222124999922,,,,,,,,,,6.0,3.0,75.0,11.0,461.7872293749999,,,,,,,,,,,,,,,,,461.7816264159999,461.8783524579999,462.670228875,462.663859541,,,,,,,,,,,,,,,,,,,,,,,,,,,,,,,,,,,462.6657304159999,462.670228875,462.670228875,463.047825416,g,1.0,0.366222124999922,,,,,,sub-021,2,stroop_test,,
,,,,76.0,4.0,6.0,,,,,,,,,,,,,rot,blue,b,0.0,b,1.0,0.9830515830001332,,,,,,,,,,6.0,4.0,76.0,2.0,463.0533458749999,,,,,,,,,,,,,,,,,463.0480606659999,463.395033458,464.187028458,464.180371208,,,,,,,,,,,,,,,,,,,,,,,,,,,,,,,,,,,464.1821944999999,464.187028458,464.187028458,465.1810282499998,b,1.0,0.9830515830001332,,,,,,sub-021,2,stroop_test,,
,,,,77.0,5.0,6.0,,,,,,,,,,,,,gelb,blue,b,0.0,b,1.0,0.4254911250000077,,,,,,,,,,6.0,5.0,77.0,9.0,465.186887583,,,,,,,,,,,,,,,,,465.18126575,465.97850025,466.770732166,466.764412666,,,,,,,,,,,,,,,,,,,,,,,,,,,,,,,,,,,466.7661539999999,466.770732166,466.770732166,467.198198416,b,1.0,0.4254911250000077,,,,,,sub-021,2,stroop_test,,
,,,,78.0,6.0,6.0,,,,,,,,,,,,,blau,yellow,g,0.0,g,1.0,0.6994575409999015,,,,,,,,,,6.0,6.0,78.0,7.0,467.204315166,,,,,,,,,,,,,,,,,467.1984574159999,467.2952062499999,468.0874127079999,468.080849041,,,,,,,,,,,,,,,,,,,,,,,,,,,,,,,,,,,468.0829757909999,468.0874127079999,468.0874127079999,468.798246416,g,1.0,0.6994575409999015,,,,,,sub-021,2,stroop_test,,
,,,,79.0,7.0,6.0,,,,,,,,,,,,,gelb,red,r,0.0,r,1.0,0.4121527909999258,,,,,,,,,,6.0,7.0,79.0,8.0,468.803993791,,,,,,,,,,,,,,,,,468.798500291,468.8953093329999,469.687148041,469.6808450829999,,,,,,,,,,,,,,,,,,,,,,,,,,,,,,,,,,,469.6825127909999,469.687148041,469.687148041,470.1041345409999,r,1.0,0.4121527909999258,,,,,,sub-021,2,stroop_test,,
,,,,80.0,8.0,6.0,,,,,,,,,,,,,rot,yellow,g,0.0,g,1.0,0.6440100410000014,,,,,,,,,,6.0,8.0,80.0,3.0,470.1112825830001,,,,,,,,,,,,,,,,,470.1043669159999,470.201335666,470.99467775,470.98635575,,,,,,,,,,,,,,,,,,,,,,,,,,,,,,,,,,,470.9880431659999,470.99467775,470.99467775,471.6482579159999,g,1.0,0.6440100410000014,,,,,,sub-021,2,stroop_test,,
,,,,81.0,9.0,6.0,,,,,,,,,,,,,gelb,yellow,g,1.0,g,1.0,0.4027316249998875,,,,,,,,,,6.0,9.0,81.0,10.0,471.654212125,,,,,,,,,,,,,,,,,471.6485088329998,472.845389375,473.6373106249998,473.6310028329999,,,,,,,,,,,,,,,,,,,,,,,,,,,,,,,,,,,473.6326978749999,473.6373106249998,473.6373106249998,474.048370666,g,1.0,0.4027316249998875,,,,,,sub-021,2,stroop_test,,
,,,,82.0,10.0,6.0,,,,,,,,,,,,,rot,red,r,1.0,r,1.0,0.8087230420001106,,,,,,,,,,6.0,10.0,82.0,1.0,474.05436258299983,,,,,,,,,,,,,,,,,474.0486277079999,474.14545020799983,474.9378818329999,474.9312856249999,,,,,,,,,,,,,,,,,,,,,,,,,,,,,,,,,,,474.93316341599984,474.9378818329999,474.9378818329999,475.74811891599984,r,1.0,0.8087230420001106,,,,,,sub-021,2,stroop_test,,
,,,,83.0,11.0,6.0,,,,,,,,,,,,,blau,red,r,0.0,r,1.0,0.6141057919999184,,,,,,,,,,6.0,11.0,83.0,4.0,475.75377304099993,,,,,,,,,,,,,,,,,475.7483707500001,476.545624958,477.3375511249999,477.331207708,,,,,,,,,,,,,,,,,,,,,,,,,,,,,,,,,,,477.333038708,477.3375511249999,477.3375511249999,477.954268,r,1.0,0.6141057919999184,,,,,,sub-021,2,stroop_test,,
,,,,84.0,0.0,7.0,,,,,,,,,,,,,gelb,blue,b,0.0,b,1.0,0.5786001670001042,,,,,,,,,,7.0,0.0,84.0,9.0,477.9615262909999,,,,,,,,,,,,,,,,,477.9545425829999,479.151847916,479.945017666,479.93668925,,,,,,,,,,,,,,,,,,,,,,,,,,,,,,,,,,,479.93839912499993,479.945017666,479.945017666,480.5319465,b,1.0,0.5786001670001042,,,,,,sub-021,2,stroop_test,,
,,,,85.0,1.0,7.0,,,,,,,,,,,,,gelb,yellow,g,1.0,g,1.0,0.6835995830001593,,,,,,,,,,7.0,1.0,85.0,11.0,480.5374979159999,,,,,,,,,,,,,,,,,480.5321961249999,481.72911275,482.5193361249999,482.514835916,,,,,,,,,,,,,,,,,,,,,,,,,,,,,,,,,,,482.5150557499999,482.5193361249999,482.5193361249999,483.204841666,g,1.0,0.6835995830001593,,,,,,sub-021,2,stroop_test,,
,,,,86.0,2.0,7.0,,,,,,,,,,,,,blau,red,r,0.0,r,1.0,0.7647307500001261,,,,,,,,,,7.0,2.0,86.0,4.0,483.2117604999999,,,,,,,,,,,,,,,,,483.2051010830001,483.5516230829999,484.345114583,484.337728708,,,,,,,,,,,,,,,,,,,,,,,,,,,,,,,,,,,484.3396905,484.345114583,484.345114583,485.1158835409999,r,1.0,0.7647307500001261,,,,,,sub-021,2,stroop_test,,
,,,,87.0,3.0,7.0,,,,,,,,,,,,,blau,blue,b,1.0,b,1.0,0.7513300420000633,,,,,,,,,,7.0,3.0,87.0,5.0,485.121780166,,,,,,,,,,,,,,,,,485.1161173329999,485.2124309579999,486.0026659999999,485.9981666659999,,,,,,,,,,,,,,,,,,,,,,,,,,,,,,,,,,,485.9983932079999,486.0026659999999,486.0026659999999,486.7655434159999,b,1.0,0.7513300420000633,,,,,,sub-021,2,stroop_test,,
,,,,88.0,4.0,7.0,,,,,,,,,,,,,rot,red,r,1.0,r,1.0,0.7472384170000623,,,,,,,,,,7.0,4.0,88.0,0.0,486.771113666,,,,,,,,,,,,,,,,,486.76577295799984,486.8625414999999,487.654113583,487.647843,,,,,,,,,,,,,,,,,,,,,,,,,,,,,,,,,,,487.6495165829999,487.654113583,487.654113583,488.40391249999993,r,1.0,0.7472384170000623,,,,,,sub-021,2,stroop_test,,
,,,,89.0,5.0,7.0,,,,,,,,,,,,,rot,red,r,1.0,r,1.0,0.5072702500001469,,,,,,,,,,7.0,5.0,89.0,1.0,488.4122155,,,,,,,,,,,,,,,,,488.404128833,488.500466083,489.29588412499993,489.2871945,,,,,,,,,,,,,,,,,,,,,,,,,,,,,,,,,,,489.28744466599983,489.29588412499993,489.29588412499993,489.804346166,r,1.0,0.5072702500001469,,,,,,sub-021,2,stroop_test,,
,,,,90.0,6.0,7.0,,,,,,,,,,,,,blau,yellow,g,0.0,g,1.0,0.7123561670000527,,,,,,,,,,7.0,6.0,90.0,7.0,489.8127387079999,,,,,,,,,,,,,,,,,489.804595291,491.00226291599984,491.795452583,491.78725999999983,,,,,,,,,,,,,,,,,,,,,,,,,,,,,,,,,,,491.789184583,491.795452583,491.795452583,492.515860583,g,1.0,0.7123561670000527,,,,,,sub-021,2,stroop_test,,
,,,,91.0,7.0,7.0,,,,,,,,,,,,,rot,blue,b,0.0,b,1.0,0.6500980000000709,,,,,,,,,,7.0,7.0,91.0,2.0,492.521802541,,,,,,,,,,,,,,,,,492.5161082499999,493.7128628749999,494.50471845799984,494.49844325,,,,,,,,,,,,,,,,,,,,,,,,,,,,,,,,,,,494.500141791,494.50471845799984,494.50471845799984,495.165852458,b,1.0,0.6500980000000709,,,,,,sub-021,2,stroop_test,,
,,,,92.0,8.0,7.0,,,,,,,,,,,,,rot,yellow,g,0.0,r,0.0,0.7725342920000458,,,,,,,,,,7.0,8.0,92.0,3.0,495.1719349999999,,,,,,,,,,,,,,,,,495.1661045409999,495.512897541,496.303113125,496.2985767079999,,,,,,,,,,,,,,,,,,,,,,,,,,,,,,,,,,,496.2988196249999,496.303113125,496.303113125,497.082804375,r,0.0,0.7725342920000458,,,,,,sub-021,2,stroop_test,,
,,,,93.0,9.0,7.0,,,,,,,,,,,,,blau,blue,b,1.0,b,1.0,0.6778429579999283,,,,,,,,,,7.0,9.0,93.0,6.0,497.0888226249999,,,,,,,,,,,,,,,,,497.083077666,497.8796218329999,498.670658041,498.6649063749999,,,,,,,,,,,,,,,,,,,,,,,,,,,,,,,,,,,498.666531291,498.670658041,498.670658041,499.3498347079999,b,1.0,0.6778429579999283,,,,,,sub-021,2,stroop_test,,
,,,,94.0,10.0,7.0,,,,,,,,,,,,,gelb,red,r,0.0,r,1.0,0.3930418750001081,,,,,,,,,,7.0,10.0,94.0,8.0,499.353719666,,,,,,,,,,,,,,,,,499.35009274999993,500.14639349999993,500.9388188749999,500.9323327499999,,,,,,,,,,,,,,,,,,,,,,,,,,,,,,,,,,,500.93434308299993,500.9388188749999,500.9388188749999,501.3331398749999,r,1.0,0.3930418750001081,,,,,,sub-021,2,stroop_test,,
,,,,95.0,11.0,7.0,,,,,,,,,,,,,gelb,yellow,g,1.0,g,1.0,0.522828957999991,,,,,,,,,,7.0,11.0,95.0,10.0,501.33694983299984,,,,,,,,,,,,,,,,,501.3333942909999,501.6797972079999,502.470149583,502.465532916,,,,,,,,,,,,,,,,,,,,,,,,,,,,,,,,,,,502.4657737499999,502.470149583,502.470149583,502.99947429099984,g,1.0,0.522828957999991,,,,,,sub-021,2,stroop_test,,
,,,,96.0,0.0,8.0,,,,,,,,,,,,,blau,blue,b,1.0,b,1.0,0.9648654170000556,,,,,,,,,,8.0,0.0,96.0,6.0,503.005381666,,,,,,,,,,,,,,,,,502.999726083,503.796511041,504.589137958,504.5825029579999,,,,,,,,,,,,,,,,,,,,,,,,,,,,,,,,,,,504.5844442079999,504.589137958,504.589137958,505.55527775,b,1.0,0.9648654170000556,,,,,,sub-021,2,stroop_test,,
,,,,97.0,1.0,8.0,,,,,,,,,,,,,gelb,yellow,g,1.0,r,0.0,1.0471818329999678,,,,,,,,,,8.0,1.0,97.0,10.0,505.563336916,,,,,,,,,,,,,,,,,505.555519,506.3526595409999,507.1459707079998,507.138100166,,,,,,,,,,,,,,,,,,,,,,,,,,,,,,,,,,,507.139959291,507.1459707079998,507.1459707079998,508.199316791,r,0.0,1.0471818329999678,,,,,,sub-021,2,stroop_test,,
,,,,98.0,2.0,8.0,,,,,,,,,,,,,blau,blue,b,1.0,b,1.0,0.6493082500001037,,,,,,,,,,8.0,2.0,98.0,5.0,508.204890625,,,,,,,,,,,,,,,,,508.199539708,508.5466784999999,509.3390112079999,509.3325891249999,,,,,,,,,,,,,,,,,,,,,,,,,,,,,,,,,,,509.3343338329999,509.3390112079999,509.3390112079999,509.99945308299993,b,1.0,0.6493082500001037,,,,,,sub-021,2,stroop_test,,
,,,,99.0,3.0,8.0,,,,,,,,,,,,,rot,red,r,1.0,r,1.0,1.3935208339999008,,,,,,,,,,8.0,3.0,99.0,1.0,510.00509991599984,,,,,,,,,,,,,,,,,509.999677625,510.0967780409999,510.889018333,510.8826005409999,,,,,,,,,,,,,,,,,,,,,,,,,,,,,,,,,,,510.884310125,510.889018333,510.889018333,512.288809833,r,1.0,1.3935208339999008,,,,,,sub-021,2,stroop_test,,
,,,,100.0,4.0,8.0,,,,,,,,,,,,,gelb,blue,b,0.0,b,1.0,0.7262962919999154,,,,,,,,,,8.0,4.0,100.0,9.0,512.296213333,,,,,,,,,,,,,,,,,512.2890788749999,512.386141208,513.179600125,513.1713838329999,,,,,,,,,,,,,,,,,,,,,,,,,,,,,,,,,,,513.1730905,513.179600125,513.179600125,513.9163248749999,b,1.0,0.7262962919999154,,,,,,sub-021,2,stroop_test,,
,,,,101.0,5.0,8.0,,,,,,,,,,,,,gelb,yellow,g,1.0,g,1.0,0.3958624580000105,,,,,,,,,,8.0,5.0,101.0,11.0,513.922275208,,,,,,,,,,,,,,,,,513.916555708,514.713668916,515.5034579999999,515.49917125,,,,,,,,,,,,,,,,,,,,,,,,,,,,,,,,,,,515.499394208,515.5034579999999,515.5034579999999,515.9053296249999,g,1.0,0.3958624580000105,,,,,,sub-021,2,stroop_test,,
,,,,102.0,6.0,8.0,,,,,,,,,,,,,blau,red,r,0.0,r,1.0,0.3887912079999296,,,,,,,,,,8.0,6.0,102.0,4.0,515.913044875,,,,,,,,,,,,,,,,,515.9055885,516.7029263329998,517.4966030409998,517.4881095409999,,,,,,,,,,,,,,,,,,,,,,,,,,,,,,,,,,,517.4897784999998,517.4966030409998,517.4966030409998,517.888963416,r,1.0,0.3887912079999296,,,,,,sub-021,2,stroop_test,,
,,,,103.0,7.0,8.0,,,,,,,,,,,,,gelb,red,r,0.0,r,1.0,0.6352848750000248,,,,,,,,,,8.0,7.0,103.0,8.0,517.8964450829999,,,,,,,,,,,,,,,,,517.889242166,517.9858589579999,518.7797292079999,518.771982041,,,,,,,,,,,,,,,,,,,,,,,,,,,,,,,,,,,518.7741221659999,518.7797292079999,518.7797292079999,519.416599958,r,1.0,0.6352848750000248,,,,,,sub-021,2,stroop_test,,
,,,,104.0,8.0,8.0,,,,,,,,,,,,,rot,blue,b,0.0,b,1.0,0.6091077079997831,,,,,,,,,,8.0,8.0,104.0,2.0,519.422130791,,,,,,,,,,,,,,,,,519.416832291,519.7638019999999,520.556521833,520.549707916,,,,,,,,,,,,,,,,,,,,,,,,,,,,,,,,,,,520.551635625,520.556521833,520.556521833,521.1723467079998,b,1.0,0.6091077079997831,,,,,,sub-021,2,stroop_test,,
,,,,105.0,9.0,8.0,,,,,,,,,,,,,rot,red,r,1.0,r,1.0,0.4853995420000956,,,,,,,,,,8.0,9.0,105.0,0.0,521.179833166,,,,,,,,,,,,,,,,,521.1726241249999,521.2697496659998,522.0639099159998,522.055104458,,,,,,,,,,,,,,,,,,,,,,,,,,,,,,,,,,,522.055326916,522.0639099159998,522.0639099159998,522.550632666,r,1.0,0.4853995420000956,,,,,,sub-021,2,stroop_test,,
,,,,106.0,10.0,8.0,,,,,,,,,,,,,blau,yellow,g,0.0,b,0.0,0.7266726660000131,,,,,,,,,,8.0,10.0,106.0,7.0,522.5543740829999,,,,,,,,,,,,,,,,,522.550886,523.7471532909999,524.5394532079999,524.533182416,,,,,,,,,,,,,,,,,,,,,,,,,,,,,,,,,,,524.534893666,524.5394532079999,524.5394532079999,525.272999625,b,0.0,0.7266726660000131,,,,,,sub-021,2,stroop_test,,
,,,,107.0,11.0,8.0,,,,,,,,,,,,,rot,yellow,g,0.0,g,1.0,0.5970823749998999,,,,,,,,,,8.0,11.0,107.0,3.0,525.2799868329998,,,,,,,,,,,,,,,,,525.2732311249999,525.620150625,526.4133791659999,526.405175208,,,,,,,,,,,,,,,,,,,,,,,,,,,,,,,,,,,526.4068554579999,526.4133791659999,526.4133791659999,527.01656875,g,1.0,0.5970823749998999,,,,,,sub-021,2,stroop_test,,
,,,,108.0,0.0,9.0,,,,,,,,,,,,,gelb,red,r,0.0,r,1.0,0.9219722499999534,,,,,,,,,,9.0,0.0,108.0,8.0,527.022094291,,,,,,,,,,,,,,,,,527.0168018749998,527.1141364579998,527.90651725,527.90004125,,,,,,,,,,,,,,,,,,,,,,,,,,,,,,,,,,,527.9018852909999,527.90651725,527.90651725,528.8337758749999,r,1.0,0.9219722499999534,,,,,,sub-021,2,stroop_test,,
,,,,109.0,1.0,9.0,,,,,,,,,,,,,blau,blue,b,1.0,b,1.0,0.4765873750000082,,,,,,,,,,9.0,1.0,109.0,6.0,528.839826333,,,,,,,,,,,,,,,,,528.834063541,528.930713625,529.7224717499998,529.716249375,,,,,,,,,,,,,,,,,,,,,,,,,,,,,,,,,,,529.7181733329999,529.7224717499998,529.7224717499998,530.2006397079999,b,1.0,0.4765873750000082,,,,,,sub-021,2,stroop_test,,
,,,,110.0,2.0,9.0,,,,,,,,,,,,,rot,blue,b,0.0,b,1.0,0.5944683749999058,,,,,,,,,,9.0,2.0,110.0,2.0,530.2062973749998,,,,,,,,,,,,,,,,,530.200897708,530.29757825,531.0895760829999,531.083213333,,,,,,,,,,,,,,,,,,,,,,,,,,,,,,,,,,,531.0848942499999,531.0895760829999,531.0895760829999,531.6894949159998,b,1.0,0.5944683749999058,,,,,,sub-021,2,stroop_test,,
,,,,111.0,3.0,9.0,,,,,,,,,,,,,rot,red,r,1.0,r,1.0,0.5659573340001316,,,,,,,,,,9.0,3.0,111.0,1.0,531.696868083,,,,,,,,,,,,,,,,,531.6897582909999,532.487062916,533.2808788329999,533.271985333,,,,,,,,,,,,,,,,,,,,,,,,,,,,,,,,,,,533.272210333,533.2808788329999,533.2808788329999,533.850708708,r,1.0,0.5659573340001316,,,,,,sub-021,2,stroop_test,,
,,,,112.0,4.0,9.0,,,,,,,,,,,,,gelb,yellow,g,1.0,g,1.0,0.5435792909997872,,,,,,,,,,9.0,4.0,112.0,10.0,533.8567343749999,,,,,,,,,,,,,,,,,533.8509984999998,533.947685333,534.7397985,534.73338225,,,,,,,,,,,,,,,,,,,,,,,,,,,,,,,,,,,534.7352431659999,534.7397985,534.7397985,535.2893044579998,g,1.0,0.5435792909997872,,,,,,sub-021,2,stroop_test,,
,,,,113.0,5.0,9.0,,,,,,,,,,,,,blau,red,r,0.0,r,1.0,1.5064642909999293,,,,,,,,,,9.0,5.0,113.0,4.0,535.2970948329998,,,,,,,,,,,,,,,,,535.2895321659998,535.38694575,536.1804239999999,536.172392875,,,,,,,,,,,,,,,,,,,,,,,,,,,,,,,,,,,536.1740903329999,536.1804239999999,536.1804239999999,537.689361208,r,1.0,1.5064642909999293,,,,,,sub-021,2,stroop_test,,
,,,,114.0,6.0,9.0,,,,,,,,,,,,,rot,yellow,g,0.0,g,1.0,1.4137734579999233,,,,,,,,,,9.0,6.0,114.0,3.0,537.6971805409999,,,,,,,,,,,,,,,,,537.689598875,538.0370076249999,538.830454333,538.8225001659998,,,,,,,,,,,,,,,,,,,,,,,,,,,,,,,,,,,538.8241767079999,538.830454333,538.830454333,540.2503180829999,g,1.0,1.4137734579999233,,,,,,sub-021,2,stroop_test,,
,,,,115.0,7.0,9.0,,,,,,,,,,,,,blau,blue,b,1.0,b,1.0,0.6780070419999902,,,,,,,,,,9.0,7.0,115.0,5.0,540.256216083,,,,,,,,,,,,,,,,,540.2505966659999,540.598022791,541.3899100409999,541.3835724999999,,,,,,,,,,,,,,,,,,,,,,,,,,,,,,,,,,,541.3852688329998,541.3899100409999,541.3899100409999,542.0737099999999,b,1.0,0.6780070419999902,,,,,,sub-021,2,stroop_test,,
,,,,116.0,8.0,9.0,,,,,,,,,,,,,gelb,blue,b,0.0,b,1.0,0.6193998329999886,,,,,,,,,,9.0,8.0,116.0,9.0,542.0805942079999,,,,,,,,,,,,,,,,,542.0739819159999,543.2707035409999,544.064063625,544.055991791,,,,,,,,,,,,,,,,,,,,,,,,,,,,,,,,,,,544.0577055829999,544.064063625,544.064063625,544.6847284579999,b,1.0,0.6193998329999886,,,,,,sub-021,2,stroop_test,,
,,,,117.0,9.0,9.0,,,,,,,,,,,,,blau,yellow,g,0.0,g,1.0,0.7018923339999219,,,,,,,,,,9.0,9.0,117.0,7.0,544.68845625,,,,,,,,,,,,,,,,,544.6849668749999,544.781431458,545.573613583,545.5672823749999,,,,,,,,,,,,,,,,,,,,,,,,,,,,,,,,,,,545.569029125,545.573613583,545.573613583,546.2844548749999,g,1.0,0.7018923339999219,,,,,,sub-021,2,stroop_test,,
,,,,118.0,10.0,9.0,,,,,,,,,,,,,gelb,yellow,g,1.0,g,1.0,0.5768062920001285,,,,,,,,,,9.0,10.0,118.0,11.0,546.2903287079998,,,,,,,,,,,,,,,,,546.284721583,547.4815025409998,548.2735621249999,548.267330375,,,,,,,,,,,,,,,,,,,,,,,,,,,,,,,,,,,548.2690377499998,548.2735621249999,548.2735621249999,548.857075333,g,1.0,0.5768062920001285,,,,,,sub-021,2,stroop_test,,
,,,,119.0,11.0,9.0,,,,,,,,,,,,,rot,red,r,1.0,r,1.0,0.5286372909999955,,,,,,,,,,9.0,11.0,119.0,0.0,548.864176416,,,,,,,,,,,,,,,,,548.8573394579998,550.052913833,550.847562791,550.840387125,,,,,,,,,,,,,,,,,,,,,,,,,,,,,,,,,,,550.842040041,550.847562791,550.847562791,551.384591666,r,1.0,0.5286372909999955,,,,,,sub-021,2,stroop_test,,
,,,,,,,,,,,,,,,,,,,,,,,,,,,,,,,,,,,,,,,,,,,,,,,,,,,,,,,,,,,,,,,,,,,,,,,,,,,,,,,,,,,,,,,,,,,,,,,,,,,,,,551.3847469579998,551.391214541,556.38787325,556.3843601659999,sub-021,2,stroop_test,,
