direction,corrAns,thisN,thisTrialN,thisRepN,respDots.keys,respDots.corr,respDots.rt,respDots.duration,randomInstr,respRandomInstr.keys,respRandomInstr.rt,respRandomInstr.duration,practice_trials.thisRepN,practice_trials.thisTrialN,practice_trials.thisN,practice_trials.thisIndex,instr_trials.thisRepN,instr_trials.thisTrialN,instr_trials.thisN,instr_trials.thisIndex,test_trials.thisRepN,test_trials.thisTrialN,test_trials.thisN,test_trials.thisIndex,thisRow.t,notes,general_instruction.started,textGeneralInstr.started,respGeneralInstr.started,general_instruction.stopped,respGeneralInstr.keys,respGeneralInstr.rt,respGeneralInstr.duration,ITI.started,fixcross.started,fixcross.stopped,ITI.stopped,dots.started,backgroundDots.started,stimulusDots.started,respDots.started,stimulusDots.stopped,dots.stopped,practice_trials.respDots.keys,practice_trials.respDots.corr,practice_trials.respDots.rt,practice_trials.respDots.duration,feedback.started,textFeedback.started,feedback.stopped,textFeedback.stopped,info.started,textInfo.started,keyRespInfo.started,info.stopped,keyRespInfo.keys,keyRespInfo.rt,keyRespInfo.duration,test_instruction.started,textTestInstr.started,respTestInstr.started,test_instruction.stopped,respTestInstr.keys,respTestInstr.rt,respTestInstr.duration,random_instruction.started,textRandomInstr.started,respRandomInstr.started,random_instruction.stopped,instr_trials.respRandomInstr.keys,instr_trials.respRandomInstr.rt,instr_trials.respRandomInstr.duration,test_trials.respDots.keys,test_trials.respDots.corr,test_trials.respDots.rt,test_trials.respDots.duration,goodbye.started,textGoodbye.started,goodbye.stopped,participant,session,expName,frameRate,Unnamed: 87
,,,,,,,,,,,,,,,,,,,,,,,,,,,0.0036771000595763,0.012015699991025,0.012015699991025,32.287479200051166,space,32.250506500015035,,,,,,,,,,,,,,,,,,,,,,,,,,,,,,,,,,,,,,,,,,,,,,,,sub-159,1,random_dot,59.93313856989516,
left,left,0.0,0.0,0.0,left,1.0,5.899970099912025,,,,,,0.0,0.0,0.0,0.0,,,,,,,,,32.3876207000576,,,,,,,,,32.37257490004413,32.3876207000576,33.20251680002548,33.17131700005848,33.172126800054684,33.20251680002548,33.20251680002548,33.20251680002548,38.175180200021714,39.10989720001817,left,1.0,5.899970099912025,,39.14118450006936,39.15089930000249,39.625151699990965,,,,,,,,,,,,,,,,,,,,,,,,,,,,,,sub-159,1,random_dot,59.93313856989516,
right,right,1.0,1.0,0.0,right,1.0,5.485452000051737,,,,,,0.0,1.0,1.0,1.0,,,,,,,,,39.64138380007353,,,,,,,,,39.62585210008547,39.97474269999657,40.77680370002054,40.75916750007309,40.75994920008816,40.77680370002054,40.77680370002054,40.77680370002054,45.76361370005179,46.26497300004121,right,1.0,5.485452000051737,,46.26522679999471,46.27932720002718,46.763592200004496,46.7797230000142,,,,,,,,,,,,,,,,,,,,,,,,,,,,,sub-159,1,random_dot,59.93313856989516,
left,left,2.0,0.0,1.0,left,1.0,5.569894100073725,,,,,,1.0,0.0,2.0,0.0,,,,,,,,,46.7797230000142,,,,,,,,,46.76426259998698,47.58027969999239,48.38213530008216,48.36447190004401,48.36520150001161,48.38213530008216,48.38213530008216,48.38213530008216,53.368889400037006,53.95274800003972,left,1.0,5.569894100073725,,53.95289389998652,53.96739820006769,54.45143290003762,54.467914700042456,,,,,,,,,,,,,,,,,,,,,,,,,,,,,sub-159,1,random_dot,59.93313856989516,
right,right,3.0,1.0,1.0,right,1.0,5.5331513999262825,,,,,,1.0,1.0,3.0,1.0,,,,,,,,,54.467914700042456,,,,,,,,,54.451800400041975,55.26849669998046,56.07044030004181,56.05240970000159,56.05282990005799,56.07044030004181,56.07044030004181,56.07044030004181,61.0571956000058,61.60852210002486,right,1.0,5.5331513999262825,,61.60875880008098,61.62308100005612,62.10738529998344,62.123446400044486,,,,,,,,,,,,,,,,,,,,,,,,,,,,,sub-159,1,random_dot,59.93313856989516,
right,right,4.0,0.0,2.0,right,1.0,5.37375280004926,,,,,,2.0,0.0,4.0,1.0,,,,,,,,,62.123446400044486,,,,,,,,,62.10802789998706,63.30784420005512,64.10942160000559,64.09184280002955,64.09260710002854,64.10942160000559,64.10942160000559,64.10942160000559,69.09625569998752,69.4974455999909,right,1.0,5.37375280004926,,69.49768760008737,69.51188650005497,69.99634120007977,70.0120533000445,,,,,,,,,,,,,,,,,,,,,,,,,,,,,sub-159,1,random_dot,59.93313856989516,
left,left,5.0,1.0,2.0,left,1.0,5.488667499972507,,,,,,2.0,1.0,5.0,0.0,,,,,,,,,70.0120533000445,,,,,,,,,69.99701430008281,70.3625589000294,71.16477600007784,71.14701529999729,71.14777949999552,71.16477600007784,71.16477600007784,71.16477600007784,76.15123429999221,76.6690460999962,left,1.0,5.488667499972507,,76.6692892999854,76.68344020005316,77.16744880005717,77.18376949999947,,,,,,,,,,,,,,,,,,,,,,,,,,,,,sub-159,1,random_dot,59.93313856989516,
left,left,6.0,0.0,3.0,left,1.0,6.216471399995498,,,,,,3.0,0.0,6.0,0.0,,,,,,,,,77.18376949999947,,,,,,,,,77.16809689998627,78.38466930005234,79.18694230006076,79.16918109997641,79.16994649998378,79.18694230006076,79.18694230006076,79.18694230006076,84.1731945000356,85.40816190000623,left,1.0,6.216471399995498,,85.40841230005026,85.4227234000573,85.90694980008993,85.92310550005641,,,,,,,,,,,,,,,,,,,,,,,,,,,,,sub-159,1,random_dot,59.93313856989516,
right,right,7.0,1.0,3.0,right,1.0,5.363656900008209,,,,,,3.0,1.0,7.0,1.0,,,,,,,,,85.92310550005641,,,,,,,,,85.90764260001015,87.10742170002777,87.90976260008756,87.8920105000725,87.89274370006751,87.90976260008756,87.90976260008756,87.90976260008756,92.89590930007398,93.28024079999886,right,1.0,5.363656900008209,,93.28048010007478,93.29483440006152,93.77840359997936,93.7948885000078,,,,,,,,,,,,,,,,,,,,,,,,,,,,,sub-159,1,random_dot,59.93313856989516,
left,left,8.0,0.0,4.0,left,1.0,5.445608200039715,,,,,,4.0,0.0,8.0,0.0,,,,,,,,,93.7948885000078,,,,,,,,,93.77877600002104,94.59522570006084,95.39753359998576,95.37950530007949,95.379894600017,95.39753359998576,95.39753359998576,95.39753359998576,100.38420119998044,100.85228240001015,left,1.0,5.445608200039715,,100.85253700008616,100.86661050003022,101.35077350004576,101.36672090005597,,,,,,,,,,,,,,,,,,,,,,,,,,,,,sub-159,1,random_dot,59.93313856989516,
right,right,9.0,1.0,4.0,right,1.0,5.343097800039686,,,,,,4.0,1.0,9.0,1.0,,,,,,,,,101.36672090005597,,,,,,,,,101.35141730005851,102.56816390005406,103.37028200004715,103.35249750001822,103.35322749998886,103.37028200004715,103.37028200004715,103.37028200004715,108.3566747000441,108.7243543000659,right,1.0,5.343097800039686,,108.72459250001702,108.73891389998607,109.22290819999762,109.23904820007738,,,,,,,,,,,,,,,,,,,,,,,,,,,,,sub-159,1,random_dot,59.93313856989516,
left,left,10.0,0.0,5.0,left,1.0,5.421371700009331,,,,,,5.0,0.0,10.0,0.0,,,,,,,,,109.23904820007738,,,,,,,,,109.22357949998695,110.03969190001952,110.84189530008008,110.8242317000404,110.82500150008129,110.84189530008008,110.84189530008008,110.84189530008008,115.82910360000096,116.27976679999848,left,1.0,5.421371700009331,,116.2800146000227,116.29402520006988,116.7781857000664,116.79446850006934,,,,,,,,,,,,,,,,,,,,,,,,,,,,,sub-159,1,random_dot,59.93313856989516,
right,right,11.0,1.0,5.0,right,1.0,5.475327100022696,,,,,,5.0,1.0,11.0,1.0,,,,,,,,,116.79446850006934,,,,,,,,,116.77882380003577,117.99484569998458,118.79738970007747,118.77960460004395,118.780362599995,118.79738970007747,118.79738970007747,118.79738970007747,123.78631520003546,124.28440770006272,right,1.0,5.475327100022696,,124.28459210006986,124.2989530999912,124.78305880003607,124.79938890004996,,,,,,,,,,,,,,,,,,,,,,,,,,,,,sub-159,1,random_dot,59.93313856989516,
right,right,12.0,0.0,6.0,right,1.0,5.442912700003944,,,,,,6.0,0.0,12.0,1.0,,,,,,,,,124.79938890004996,,,,,,,,,124.78340770001525,124.8995327000739,125.70151450007688,125.68365700007416,125.68408110004384,125.70151450007688,125.70151450007688,125.70151450007688,130.688606300042,131.15649249998387,right,1.0,5.442912700003944,,131.15677920007147,131.17083720001392,131.65513389999978,131.67137530003674,,,,,,,,,,,,,,,,,,,,,,,,,,,,,sub-159,1,random_dot,59.93313856989516,
left,left,13.0,1.0,6.0,left,1.0,5.581168700009584,,,,,,6.0,1.0,13.0,0.0,,,,,,,,,131.67137530003674,,,,,,,,,131.65578879998066,131.77157290000468,132.57332970004063,132.55562920006923,132.55639990000054,132.57332970004063,132.57332970004063,132.57332970004063,137.55995800008532,138.16138050006705,left,1.0,5.581168700009584,,138.16162600007374,138.17583389999345,138.66004590003286,138.67612540000118,,,,,,,,,,,,,,,,,,,,,,,,,,,,,sub-159,1,random_dot,59.93313856989516,
right,right,14.0,0.0,7.0,right,1.0,5.4660991000710055,,,,,,7.0,0.0,14.0,1.0,,,,,,,,,138.67612540000118,,,,,,,,,138.66068910004105,139.0263569999952,139.8284515000414,139.81085250002798,139.81162390008103,139.8284515000414,139.8284515000414,139.8284515000414,144.8150304000592,145.29928080004174,right,1.0,5.4660991000710055,,145.29957310005557,145.3139075000072,145.79817940003704,145.81424810003955,,,,,,,,,,,,,,,,,,,,,,,,,,,,,sub-159,1,random_dot,59.93313856989516,
left,left,15.0,1.0,7.0,left,1.0,5.496967499959283,,,,,,7.0,1.0,15.0,0.0,,,,,,,,,145.81424810003955,,,,,,,,,145.79884040006436,146.1645466000773,146.96728470001835,146.94875600002706,146.94948030007072,146.96728470001835,146.96728470001835,146.96728470001835,151.95362829999067,152.47085919999518,left,1.0,5.496967499959283,,152.47113900003023,152.48540460004006,152.9697761000134,152.9858355000615,,,,,,,,,,,,,,,,,,,,,,,,,,,,,sub-159,1,random_dot,59.93313856989516,
right,right,16.0,0.0,8.0,right,1.0,5.384923999896273,,,,,,8.0,0.0,16.0,1.0,,,,,,,,,152.9858355000615,,,,,,,,,152.97041419998277,154.1867580000544,154.98923920001835,154.97110070008785,154.97185610001907,154.98923920001835,154.98923920001835,154.98923920001835,159.9769617000129,160.37587039999198,right,1.0,5.384923999896273,,160.37602309999056,160.39051639998797,160.87447470007464,160.89079690002836,,,,,,,,,,,,,,,,,,,,,,,,,,,,,sub-159,1,random_dot,59.93313856989516,
left,left,17.0,1.0,8.0,left,1.0,5.510551099898294,,,,,,8.0,1.0,17.0,0.0,,,,,,,,,160.89079690002836,,,,,,,,,160.87484539998695,161.69132980005816,162.4939836000558,162.4756821000483,162.47612690005917,162.4939836000558,162.4939836000558,162.4939836000558,167.4828016000101,168.01543370005675,left,1.0,5.510551099898294,,168.01575370004866,168.02953070006333,168.51336209999863,168.52953940001316,,,,,,,,,,,,,,,,,,,,,,,,,,,,,sub-159,1,random_dot,59.93313856989516,
right,right,18.0,0.0,9.0,right,1.0,5.41134210000746,,,,,,9.0,0.0,18.0,1.0,,,,,,,,,168.52953940001316,,,,,,,,,168.5139627000317,169.7307019000873,170.53293520002626,170.5152033000486,170.51599960005842,170.53293520002626,170.53293520002626,170.53293520002626,175.51967220008373,175.95432120002806,right,1.0,5.41134210000746,,175.95457780000288,175.96838940004818,176.45246250007767,176.46867610001937,,,,,,,,,,,,,,,,,,,,,,,,,,,,,sub-159,1,random_dot,59.93313856989516,
left,left,19.0,1.0,9.0,left,1.0,5.422464899951592,,,,,,9.0,1.0,19.0,0.0,,,,,,,,,176.46867610001937,,,,,,,,,176.45317660004366,177.66953060007654,178.47172630007844,178.45399790001102,178.45476490003057,178.47172630007844,178.47172630007844,178.47172630007844,183.4584466000088,183.909661600017,left,1.0,5.422464899951592,,183.909912000061,183.9238981000381,184.40802790003363,184.42425260005984,,,,,,,,,,,,,,,,,,,,,,,,,,,,,sub-159,1,random_dot,59.93313856989516,
,,,,,,,,,,,,,,,,,,,,,,,,,,,,,,,,,,,,,,,,,,,,,,,,,,,,184.40834419999737,184.42425260005984,184.42425260005984,217.081546899979,space,32.65125370002352,,,,,,,,,,,,,,,,,,,,,,,sub-159,1,random_dot,59.93313856989516,
,,,,,,,,,,,,,,,,,,,,,,,,,,,,,,,,,,,,,,,,,,,,,,,,,,,,,,,,,,,217.0817024999997,217.09803120000288,217.09803120000288,224.0021681999788,space,6.896609599934891,,,,,,,,,,,,,,,,sub-159,1,random_dot,59.93313856989516,
right,right,0.0,0.0,0.0,right,1.0,1.6552517000818625,,speed,space,3.436730599962175,,,,,,0.0,0.0,0.0,1.0,0.0,0.0,0.0,1.0,227.52964880003128,,,,,,,,,227.52286770008504,227.6223973000888,228.4394081999781,228.42146219999995,228.4222850999795,228.4394081999781,228.4394081999781,228.4394081999781,,230.10719480004627,,,,,,,,,,,,,,,,,,,,,,,224.0533037000569,224.05868050002027,224.05868050002027,227.50653330003843,space,3.436730599962175,,right,1.0,1.6552517000818625,,,,,sub-159,1,random_dot,59.93313856989516,
left,left,1.0,1.0,0.0,left,1.0,1.6601687000365928,,speed,space,3.436730599962175,,,,,,0.0,0.0,0.0,1.0,0.0,1.0,1.0,0.0,230.1217253999785,,,,,,,,,230.1076767999912,230.47203080006875,231.27463450003413,231.2564868000336,231.25693030003455,231.27463450003413,231.27463450003413,231.27463450003413,,232.94249090005175,,,,,,,,,,,,,,,,,,,,,,,,,,,,,,left,1.0,1.6601687000365928,,,,,sub-159,1,random_dot,59.93313856989516,
right,right,2.0,0.0,1.0,right,1.0,1.224872799939476,,speed,space,3.436730599962175,,,,,,0.0,0.0,0.0,1.0,1.0,0.0,2.0,1.0,232.95731880003584,,,,,,,,,232.94296580005903,233.05767130001917,233.85976160003335,233.84167830005757,233.84207620006052,233.85976160003335,233.85976160003335,233.85976160003335,,235.09513819997665,,,,,,,,,,,,,,,,,,,,,,,,,,,,,,right,1.0,1.224872799939476,,,,,sub-159,1,random_dot,59.93313856989516,
left,left,3.0,1.0,1.0,right,0.0,2.034141500014812,,speed,space,3.436730599962175,,,,,,0.0,0.0,0.0,1.0,1.0,1.0,3.0,0.0,235.10937870002817,,,,,,,,,235.09560550004244,235.4596995000029,236.2609449999873,236.2433902000776,236.2442009000806,236.2609449999873,236.2609449999873,236.2609449999873,,238.2969110000413,,,,,,,,,,,,,,,,,,,,,,,,,,,,,,right,0.0,2.034141500014812,,,,,sub-159,1,random_dot,59.93313856989516,
right,right,4.0,0.0,2.0,left,0.0,1.7121076000621542,,speed,space,3.436730599962175,,,,,,0.0,0.0,0.0,1.0,2.0,0.0,4.0,1.0,238.3109135000268,,,,,,,,,238.2977450999897,238.41127440007403,239.21349390002436,239.1957969000796,239.1965530000161,239.21349390002436,239.21349390002436,239.21349390002436,,240.93171580007763,,,,,,,,,,,,,,,,,,,,,,,,,,,,,,left,0.0,1.7121076000621542,,,,,sub-159,1,random_dot,59.93313856989516,
left,left,5.0,1.0,2.0,right,0.0,2.476859899936244,,speed,space,3.436730599962175,,,,,,0.0,0.0,0.0,1.0,2.0,1.0,5.0,0.0,240.9461975999875,,,,,,,,,240.9325408000732,241.04633949999695,241.84837430005427,241.8307973999763,241.8315264000557,241.84837430005427,241.84837430005427,241.84837430005427,,244.3341562000569,,,,,,,,,,,,,,,,,,,,,,,,,,,,,,right,0.0,2.476859899936244,,,,,sub-159,1,random_dot,59.93313856989516,
left,left,6.0,0.0,3.0,left,1.0,1.1138428999111056,,speed,space,3.436730599962175,,,,,,0.0,0.0,0.0,1.0,3.0,0.0,6.0,0.0,244.3487049000105,,,,,,,,,244.33503810002003,245.14921830000824,245.95134200004395,245.9337267000228,245.93445390008856,245.95134200004395,245.95134200004395,245.95134200004395,,247.06993200001307,,,,,,,,,,,,,,,,,,,,,,,,,,,,,,left,1.0,1.1138428999111056,,,,,sub-159,1,random_dot,59.93313856989516,
right,right,7.0,1.0,3.0,right,1.0,2.0088464999571443,,speed,space,3.436730599962175,,,,,,0.0,0.0,0.0,1.0,3.0,1.0,7.0,1.0,247.0839073000243,,,,,,,,,247.07080079999287,247.88471930008384,248.68644070008304,248.66883099998813,248.6695494999876,248.68644070008304,248.68644070008304,248.68644070008304,,250.7056375000393,,,,,,,,,,,,,,,,,,,,,,,,,,,,,,right,1.0,2.0088464999571443,,,,,sub-159,1,random_dot,59.93313856989516,
left,left,8.0,0.0,4.0,left,1.0,1.2428908000001684,,speed,space,3.436730599962175,,,,,,0.0,0.0,0.0,1.0,4.0,0.0,8.0,0.0,250.7197887999937,,,,,,,,,250.70650560001377,250.81992460007316,251.62221860000864,251.60453720006623,251.60532460000832,251.62221860000864,251.62221860000864,251.62221860000864,,252.8744893000694,,,,,,,,,,,,,,,,,,,,,,,,,,,,,,left,1.0,1.2428908000001684,,,,,sub-159,1,random_dot,59.93313856989516,
right,right,9.0,1.0,4.0,right,1.0,1.065273099928163,,speed,space,3.436730599962175,,,,,,0.0,0.0,0.0,1.0,4.0,1.0,9.0,1.0,252.8877591000637,,,,,,,,,252.8755019999808,253.68824030004907,254.49047830002385,254.47260670003016,254.47332800005097,254.49047830002385,254.49047830002385,254.49047830002385,,255.55912240000907,,,,,,,,,,,,,,,,,,,,,,,,,,,,,,right,1.0,1.065273099928163,,,,,sub-159,1,random_dot,59.93313856989516,
left,left,10.0,0.0,5.0,left,1.0,1.0598404000047594,,speed,space,3.436730599962175,,,,,,0.0,0.0,0.0,1.0,5.0,0.0,10.0,0.0,255.57281779998448,,,,,,,,,255.560112999985,256.37353910005186,257.1755854000803,257.157973100082,257.15872429998126,257.1755854000803,257.1755854000803,257.1755854000803,,258.24395620008,,,,,,,,,,,,,,,,,,,,,,,,,,,,,,left,1.0,1.0598404000047594,,,,,sub-159,1,random_dot,59.93313856989516,
right,right,11.0,1.0,5.0,right,1.0,1.073894599918276,,speed,space,3.436730599962175,,,,,,0.0,0.0,0.0,1.0,5.0,1.0,11.0,1.0,258.2582427000161,,,,,,,,,258.24481350008864,259.45901790005155,260.26155130006373,260.24277730006725,260.24337600008585,260.26155130006373,260.26155130006373,260.26155130006373,,261.3464294000296,,,,,,,,,,,,,,,,,,,,,,,,,,,,,,right,1.0,1.073894599918276,,,,,sub-159,1,random_dot,59.93313856989516,
right,right,12.0,0.0,6.0,right,1.0,0.9222665999550372,,speed,space,3.436730599962175,,,,,,0.0,0.0,0.0,1.0,6.0,0.0,12.0,1.0,261.36021850002,,,,,,,,,261.34726730000693,261.71056330006104,262.51271779998206,262.4949577000225,262.4957108000526,262.51271779998206,262.51271779998206,262.51271779998206,,263.44751650001854,,,,,,,,,,,,,,,,,,,,,,,,,,,,,,right,1.0,0.9222665999550372,,,,,sub-159,1,random_dot,59.93313856989516,
left,left,13.0,1.0,6.0,left,1.0,0.9809525000164284,,speed,space,3.436730599962175,,,,,,0.0,0.0,0.0,1.0,6.0,1.0,13.0,0.0,263.46149260003585,,,,,,,,,263.4484281999757,264.2622068000492,265.0639717000304,265.046122699976,265.046552099986,265.0639717000304,265.0639717000304,265.0639717000304,,266.0482490999857,,,,,,,,,,,,,,,,,,,,,,,,,,,,,,left,1.0,0.9809525000164284,,,,,sub-159,1,random_dot,59.93313856989516,
left,left,14.0,0.0,7.0,right,0.0,3.89022390008904,,speed,space,3.436730599962175,,,,,,0.0,0.0,0.0,1.0,7.0,0.0,14.0,0.0,266.0630219000159,,,,,,,,,266.048615799984,266.863761399989,267.6659202000592,267.6479669000255,267.6483645000262,267.6659202000592,267.6659202000592,267.6659202000592,,271.57182539999485,,,,,,,,,,,,,,,,,,,,,,,,,,,,,,right,0.0,3.89022390008904,,,,,sub-159,1,random_dot,59.93313856989516,
right,right,15.0,1.0,7.0,right,1.0,0.8834106000140309,,speed,space,3.436730599962175,,,,,,0.0,0.0,0.0,1.0,7.0,1.0,15.0,1.0,271.585213100072,,,,,,,,,271.5727055000607,271.6856535000261,272.50249350001104,272.4851450000424,272.4858709999826,272.50249350001104,272.50249350001104,272.50249350001104,,273.3877436000621,,,,,,,,,,,,,,,,,,,,,,,,,,,,,,right,1.0,0.8834106000140309,,,,,sub-159,1,random_dot,59.93313856989516,
right,right,16.0,0.0,8.0,right,1.0,2.6920257000019774,,speed,space,3.436730599962175,,,,,,0.0,0.0,0.0,1.0,8.0,0.0,16.0,1.0,273.40172890003305,,,,,,,,,273.3885837000562,273.501981300069,274.3041385000106,274.2864098000573,274.2871629000874,274.3041385000106,274.3041385000106,274.3041385000106,,277.00668230000883,,,,,,,,,,,,,,,,,,,,,,,,,,,,,,right,1.0,2.6920257000019774,,,,,sub-159,1,random_dot,59.93313856989516,
left,left,17.0,1.0,8.0,left,1.0,1.0419336999766529,,speed,space,3.436730599962175,,,,,,0.0,0.0,0.0,1.0,8.0,1.0,17.0,0.0,277.0210321000777,,,,,,,,,277.00755550002214,278.2218307000585,279.02437920006923,279.0062815999845,279.0070107000647,279.02437920006923,279.02437920006923,279.02437920006923,,280.0755660000723,,,,,,,,,,,,,,,,,,,,,,,,,,,,,,left,1.0,1.0419336999766529,,,,,sub-159,1,random_dot,59.93313856989516,
left,left,18.0,0.0,9.0,right,0.0,2.684275700012222,,speed,space,3.436730599962175,,,,,,0.0,0.0,0.0,1.0,9.0,0.0,18.0,0.0,280.0897910000058,,,,,,,,,280.07644029997755,280.1900517999893,280.9919456000207,280.9743763000006,280.97522610006854,280.9919456000207,280.9919456000207,280.9919456000207,,283.6783915000269,,,,,,,,,,,,,,,,,,,,,,,,,,,,,,right,0.0,2.684275700012222,,,,,sub-159,1,random_dot,59.93313856989516,
right,right,19.0,1.0,9.0,right,1.0,1.7909437000053003,,speed,space,3.436730599962175,,,,,,0.0,0.0,0.0,1.0,9.0,1.0,19.0,1.0,283.6925180000253,,,,,,,,,283.6792985000648,284.8930857999949,285.69519700005185,285.6775342000183,285.6782974000089,285.69519700005185,285.69519700005185,285.69519700005185,,287.4976518000476,,,,,,,,,,,,,,,,,,,,,,,,,,,,,,right,1.0,1.7909437000053003,,,,,sub-159,1,random_dot,59.93313856989516,
left,left,20.0,0.0,10.0,left,1.0,0.9355156999081372,,speed,space,3.436730599962175,,,,,,0.0,0.0,0.0,1.0,10.0,0.0,20.0,0.0,287.5118067000294,,,,,,,,,287.49853390001226,287.86478980001993,288.6805248000892,288.6628920000512,288.6636548000388,288.6805248000892,288.6805248000892,288.6805248000892,,289.6320826000301,,,,,,,,,,,,,,,,,,,,,,,,,,,,,,left,1.0,0.9355156999081372,,,,,sub-159,1,random_dot,59.93313856989516,
right,right,21.0,1.0,10.0,right,1.0,0.9975115999113768,,speed,space,3.436730599962175,,,,,,0.0,0.0,0.0,1.0,10.0,1.0,21.0,1.0,289.64632850000635,,,,,,,,,289.63294670009054,289.74650220002513,290.5487078999868,290.5310078000184,290.53177740005776,290.5487078999868,290.5487078999868,290.5487078999868,,291.5502113000257,,,,,,,,,,,,,,,,,,,,,,,,,,,,,,right,1.0,0.9975115999113768,,,,,sub-159,1,random_dot,59.93313856989516,
left,left,22.0,0.0,11.0,right,0.0,1.899110300000757,,speed,space,3.436730599962175,,,,,,0.0,0.0,0.0,1.0,11.0,0.0,22.0,0.0,291.5644334000536,,,,,,,,,291.551078199991,292.3650039000204,293.16701129998546,293.14934860006906,293.1500794000458,293.16701129998546,293.16701129998546,293.16701129998546,,295.0685319000622,,,,,,,,,,,,,,,,,,,,,,,,,,,,,,right,0.0,1.899110300000757,,,,,sub-159,1,random_dot,59.93313856989516,
right,right,23.0,1.0,11.0,left,0.0,2.03024289989844,,speed,space,3.436730599962175,,,,,,0.0,0.0,0.0,1.0,11.0,1.0,23.0,1.0,295.082961600041,,,,,,,,,295.0691666000057,295.18303349998314,295.98602870001923,295.9682993000606,295.969022699981,295.98602870001923,295.98602870001923,295.98602870001923,,298.020940400078,,,,,,,,,,,,,,,,,,,,,,,,,,,,,,left,0.0,2.03024289989844,,,,,sub-159,1,random_dot,59.93313856989516,
right,right,24.0,0.0,12.0,right,1.0,1.6989124999381602,,speed,space,3.436730599962175,,,,,,0.0,0.0,0.0,1.0,12.0,0.0,24.0,1.0,298.0354869000148,,,,,,,,,298.02177710004617,298.38568300008774,299.18760130007286,299.1694391000783,299.16972820006777,299.18760130007286,299.18760130007286,299.18760130007286,,300.88928780006245,,,,,,,,,,,,,,,,,,,,,,,,,,,,,,right,1.0,1.6989124999381602,,,,,sub-159,1,random_dot,59.93313856989516,
left,left,25.0,1.0,12.0,left,1.0,2.9789021000033244,,speed,space,3.436730599962175,,,,,,0.0,0.0,0.0,1.0,12.0,1.0,25.0,0.0,300.9037432000041,,,,,,,,,300.889748500078,301.70410830003675,302.5065598000074,302.4885436000768,302.4889625000069,302.5065598000074,302.5065598000074,302.5065598000074,,305.49310120008886,,,,,,,,,,,,,,,,,,,,,,,,,,,,,,left,1.0,2.9789021000033244,,,,,sub-159,1,random_dot,59.93313856989516,
right,right,26.0,0.0,13.0,right,1.0,2.404109499999322,,speed,space,3.436730599962175,,,,,,0.0,0.0,0.0,1.0,13.0,0.0,26.0,1.0,305.5072495000204,,,,,,,,,305.4935689000413,306.30786659999285,307.111893500085,307.093742200057,307.0945118999807,307.111893500085,307.111893500085,307.111893500085,,309.5288604000816,,,,,,,,,,,,,,,,,,,,,,,,,,,,,,right,1.0,2.404109499999322,,,,,sub-159,1,random_dot,59.93313856989516,
left,left,27.0,1.0,13.0,left,1.0,2.2191592999733984,,speed,space,3.436730599962175,,,,,,0.0,0.0,0.0,1.0,13.0,1.0,27.0,0.0,309.54318879998755,,,,,,,,,309.5297140000621,310.7445200000657,311.5468753000023,311.528902900056,311.5296555000823,311.5468753000023,311.5468753000023,311.5468753000023,,313.78186200000346,,,,,,,,,,,,,,,,,,,,,,,,,,,,,,left,1.0,2.2191592999733984,,,,,sub-159,1,random_dot,59.93313856989516,
right,right,28.0,0.0,14.0,left,0.0,3.537107099895365,,speed,space,3.436730599962175,,,,,,0.0,0.0,0.0,1.0,14.0,0.0,28.0,1.0,313.7959865999874,,,,,,,,,313.78272310004104,314.14670650009066,314.9489093000302,314.9311733000213,314.9319402000401,314.9489093000302,314.9489093000302,314.9489093000302,,318.501770199975,,,,,,,,,,,,,,,,,,,,,,,,,,,,,,left,0.0,3.537107099895365,,,,,sub-159,1,random_dot,59.93313856989516,
left,left,29.0,1.0,14.0,left,1.0,3.3173767999978736,,speed,space,3.436730599962175,,,,,,0.0,0.0,0.0,1.0,14.0,1.0,29.0,0.0,318.5161508000456,,,,,,,,,318.5026481000241,318.8666074000066,319.6688671000302,319.6511337000411,319.6518889000872,319.6688671000302,319.6688671000302,319.6688671000302,,322.98857759998646,,,,,,,,,,,,,,,,,,,,,,,,,,,,,,left,1.0,3.3173767999978736,,,,,sub-159,1,random_dot,59.93313856989516,
right,right,30.0,0.0,15.0,right,1.0,1.0111489000264555,,speed,space,3.436730599962175,,,,,,0.0,0.0,0.0,1.0,15.0,0.0,30.0,1.0,323.00246039999183,,,,,,,,,322.98945840005763,323.10285400005523,323.9052112000063,323.8874843000667,323.88821040000767,323.9052112000063,323.9052112000063,323.9052112000063,,324.92271990003064,,,,,,,,,,,,,,,,,,,,,,,,,,,,,,right,1.0,1.0111489000264555,,,,,sub-159,1,random_dot,59.93313856989516,
left,left,31.0,1.0,15.0,right,0.0,3.675624300027266,,speed,space,3.436730599962175,,,,,,0.0,0.0,0.0,1.0,15.0,1.0,31.0,0.0,324.9373647000175,,,,,,,,,324.9235969000729,325.7379175000824,326.5401020999998,326.52246720006224,326.52319259999786,326.5401020999998,326.5401020999998,326.5401020999998,,330.2277164000552,,,,,,,,,,,,,,,,,,,,,,,,,,,,,,right,0.0,3.675624300027266,,,,,sub-159,1,random_dot,59.93313856989516,
left,left,32.0,0.0,16.0,right,0.0,4.0694902000250295,,speed,space,3.436730599962175,,,,,,0.0,0.0,0.0,1.0,16.0,0.0,32.0,0.0,330.24186300009023,,,,,,,,,330.22850000008475,331.0427626000019,331.8460732999956,331.8277431000024,331.82849410001654,331.8460732999956,331.8460732999956,331.8460732999956,,335.9298313000472,,,,,,,,,,,,,,,,,,,,,,,,,,,,,,right,0.0,4.0694902000250295,,,,,sub-159,1,random_dot,59.93313856989516,
right,right,33.0,1.0,16.0,right,1.0,5.160582400043495,,speed,space,3.436730599962175,,,,,,0.0,0.0,0.0,1.0,16.0,1.0,33.0,1.0,335.9444532999769,,,,,,,,,335.93030700006057,336.29454580007587,337.0969771000091,337.07882579998113,337.0792357000755,337.0969771000091,337.0969771000091,337.0969771000091,342.08389890007675,342.26816820004024,,,,,,,,,,,,,,,,,,,,,,,,,,,,,,right,1.0,5.160582400043495,,,,,sub-159,1,random_dot,59.93313856989516,
left,left,34.0,0.0,17.0,right,0.0,2.6916377999586985,,speed,space,3.436730599962175,,,,,,0.0,0.0,0.0,1.0,17.0,0.0,34.0,0.0,342.2825734000653,,,,,,,,,342.269103800063,343.08327230007853,343.885553500033,343.86802260007244,343.86902590002865,343.885553500033,343.885553500033,343.885553500033,,346.58795519999694,,,,,,,,,,,,,,,,,,,,,,,,,,,,,,right,0.0,2.6916377999586985,,,,,sub-159,1,random_dot,59.93313856989516,
right,right,35.0,1.0,17.0,left,0.0,3.052617199951783,,speed,space,3.436730599962175,,,,,,0.0,0.0,0.0,1.0,17.0,1.0,35.0,1.0,346.60200559999794,,,,,,,,,346.58887420000974,346.9526412000414,347.7549882000312,347.7371737000067,347.7379248000216,347.7549882000312,347.7549882000312,347.7549882000312,,350.8242791000521,,,,,,,,,,,,,,,,,,,,,,,,,,,,,,left,0.0,3.052617199951783,,,,,sub-159,1,random_dot,59.93313856989516,
left,left,36.0,0.0,18.0,left,1.0,2.215598699986004,,speed,space,3.436730599962175,,,,,,0.0,0.0,0.0,1.0,18.0,0.0,36.0,0.0,350.8385206999956,,,,,,,,,350.82520100008696,352.0395343999844,352.8411655999953,352.82351260003634,352.82434000005014,352.8411655999953,352.8411655999953,352.8411655999953,,355.060404799995,,,,,,,,,,,,,,,,,,,,,,,,,,,,,,left,1.0,2.215598699986004,,,,,sub-159,1,random_dot,59.93313856989516,
right,right,37.0,1.0,18.0,right,1.0,3.690041200025007,,speed,space,3.436730599962175,,,,,,0.0,0.0,0.0,1.0,18.0,1.0,37.0,1.0,355.0747015000088,,,,,,,,,355.0623389000539,355.87521540001035,356.6772227999754,356.6595652999822,356.66033330000937,356.6772227999754,356.6772227999754,356.6772227999754,,360.380840400001,,,,,,,,,,,,,,,,,,,,,,,,,,,,,,right,1.0,3.690041200025007,,,,,sub-159,1,random_dot,59.93313856989516,
right,right,38.0,0.0,19.0,right,1.0,2.4901435000356287,,speed,space,3.436730599962175,,,,,,0.0,0.0,0.0,1.0,19.0,0.0,38.0,1.0,360.3949718000367,,,,,,,,,360.3817247999832,360.4952326000202,361.2971545000328,361.2796376000624,361.2803580000764,361.2971545000328,361.2971545000328,361.2971545000328,,363.7999465999892,,,,,,,,,,,,,,,,,,,,,,,,,,,,,,right,1.0,2.4901435000356287,,,,,sub-159,1,random_dot,59.93313856989516,
left,left,39.0,1.0,19.0,left,1.0,2.8814486000919715,,speed,space,3.436730599962175,,,,,,0.0,0.0,0.0,1.0,19.0,1.0,39.0,0.0,363.8140866000904,,,,,,,,,363.8010479999939,363.9140069000423,364.7159949999768,364.6982374000363,364.6989601000678,364.7159949999768,364.7159949999768,364.7159949999768,,367.6024130000733,,,,,,,,,,,,,,,,,,,,,,,,,,,,,,left,1.0,2.8814486000919715,,,,,sub-159,1,random_dot,59.93313856989516,
left,left,40.0,0.0,20.0,left,1.0,4.904649600037374,,speed,space,3.436730599962175,,,,,,0.0,0.0,0.0,1.0,20.0,0.0,40.0,0.0,367.6167788000312,,,,,,,,,367.60328630008735,367.950159,368.7522667000303,368.7346656000009,368.735416600015,368.7522667000303,368.7522667000303,368.7522667000303,,373.6731806000462,,,,,,,,,,,,,,,,,,,,,,,,,,,,,,left,1.0,4.904649600037374,,,,,sub-159,1,random_dot,59.93313856989516,
right,right,41.0,1.0,20.0,right,1.0,1.7169601999921724,,speed,space,3.436730599962175,,,,,,0.0,0.0,0.0,1.0,20.0,1.0,41.0,1.0,373.6871487000026,,,,,,,,,373.6740988000529,374.4875912000425,375.2900935000507,375.2718928999966,375.27230409998447,375.2900935000507,375.2900935000507,375.2900935000507,,377.0088065000018,,,,,,,,,,,,,,,,,,,,,,,,,,,,,,right,1.0,1.7169601999921724,,,,,sub-159,1,random_dot,59.93313856989516,
right,right,42.0,0.0,21.0,right,1.0,2.181847400031984,,speed,space,3.436730599962175,,,,,,0.0,0.0,0.0,1.0,21.0,0.0,42.0,1.0,377.0230850999942,,,,,,,,,377.00968820007984,377.122904799995,377.9252020000713,377.9077469999902,377.90848730003927,377.9252020000713,377.9252020000713,377.9252020000713,,380.1108722999925,,,,,,,,,,,,,,,,,,,,,,,,,,,,,,right,1.0,2.181847400031984,,,,,sub-159,1,random_dot,59.93313856989516,
left,left,43.0,1.0,21.0,left,1.0,4.070128499995917,,speed,space,3.436730599962175,,,,,,0.0,0.0,0.0,1.0,21.0,1.0,43.0,0.0,380.1252445999999,,,,,,,,,380.1117525000591,380.2254251000704,381.0273761000717,381.00974660005886,381.01050880004186,381.0273761000717,381.0273761000717,381.0273761000717,,385.1142375000054,,,,,,,,,,,,,,,,,,,,,,,,,,,,,,left,1.0,4.070128499995917,,,,,sub-159,1,random_dot,59.93313856989516,
left,left,44.0,0.0,22.0,left,1.0,2.295631300075911,,speed,space,3.436730599962175,,,,,,0.0,0.0,0.0,1.0,22.0,0.0,44.0,0.0,385.12831980001647,,,,,,,,,385.1150730000809,386.3297564000823,387.1315673000645,387.1141777000157,387.11503450002056,387.1315673000645,387.1315673000645,387.1315673000645,,389.4340673000552,,,,,,,,,,,,,,,,,,,,,,,,,,,,,,left,1.0,2.295631300075911,,,,,sub-159,1,random_dot,59.93313856989516,
right,right,45.0,1.0,22.0,right,1.0,4.186764399986714,,speed,space,3.436730599962175,,,,,,0.0,0.0,0.0,1.0,22.0,1.0,45.0,1.0,389.44822850008495,,,,,,,,,389.435021399986,389.54839200002607,390.35059030004777,390.3328814000124,390.3336009000195,390.35059030004777,390.35059030004777,390.35059030004777,,394.5542423999868,,,,,,,,,,,,,,,,,,,,,,,,,,,,,,right,1.0,4.186764399986714,,,,,sub-159,1,random_dot,59.93313856989516,
right,right,46.0,0.0,23.0,right,1.0,2.7364865000126883,,speed,space,3.436730599962175,,,,,,0.0,0.0,0.0,1.0,23.0,0.0,46.0,1.0,394.5686256000772,,,,,,,,,394.5552187000867,395.36894110008143,396.1711755000288,396.1536294000689,396.1543502000859,396.1711755000288,396.1711755000288,396.1711755000288,,398.9241200999823,,,,,,,,,,,,,,,,,,,,,,,,,,,,,,right,1.0,2.7364865000126883,,,,,sub-159,1,random_dot,59.93313856989516,
left,left,47.0,1.0,23.0,left,1.0,4.366964500048198,,speed,space,3.436730599962175,,,,,,0.0,0.0,0.0,1.0,23.0,1.0,47.0,0.0,398.93832359998487,,,,,,,,,398.92501350003295,399.0383752000053,399.8406802000245,399.82290540006943,399.8236320000142,399.8406802000245,399.8406802000245,399.8406802000245,,404.2100951999892,,,,,,,,,,,,,,,,,,,,,,,,,,,,,,left,1.0,4.366964500048198,,,,,sub-159,1,random_dot,59.93313856989516,
right,right,48.0,0.0,24.0,right,1.0,2.6103209999855608,,speed,space,3.436730599962175,,,,,,0.0,0.0,0.0,1.0,24.0,0.0,48.0,1.0,404.2244075000053,,,,,,,,,404.21060029999353,405.42554980004206,406.2278598999837,406.2096986999968,406.2101076000836,406.2278598999837,406.2278598999837,406.2278598999837,,408.8475485000527,,,,,,,,,,,,,,,,,,,,,,,,,,,,,,right,1.0,2.6103209999855608,,,,,sub-159,1,random_dot,59.93313856989516,
left,left,49.0,1.0,24.0,right,0.0,9.204112200066447,,speed,space,3.436730599962175,,,,,,0.0,0.0,0.0,1.0,24.0,1.0,49.0,0.0,408.86139810003806,,,,,,,,,408.84832860005554,409.66169550002087,410.46393129997887,410.4459115000209,410.4464385000756,410.46393129997887,410.46393129997887,410.46393129997887,415.451325800037,419.6715188000817,,,,,,,,,,,,,,,,,,,,,,,,,,,,,,right,0.0,9.204112200066447,,,,,sub-159,1,random_dot,59.93313856989516,
right,right,50.0,0.0,25.0,right,1.0,2.2202879999531437,,speed,space,3.436730599962175,,,,,,0.0,0.0,0.0,1.0,25.0,0.0,50.0,1.0,419.6858306999784,,,,,,,,,419.6724307000404,420.4863727000775,421.288690400077,421.2708969999803,421.271650300012,421.288690400077,421.288690400077,421.288690400077,,423.5251338999951,,,,,,,,,,,,,,,,,,,,,,,,,,,,,,right,1.0,2.2202879999531437,,,,,sub-159,1,random_dot,59.93313856989516,
left,left,51.0,1.0,25.0,left,1.0,1.5776359000010416,,speed,space,3.436730599962175,,,,,,0.0,0.0,0.0,1.0,25.0,1.0,51.0,0.0,423.5389014000539,,,,,,,,,423.5259862000821,423.88933590007946,424.690718100057,424.6728904000484,424.6736890000757,424.690718100057,424.690718100057,424.690718100057,,426.2761047000531,,,,,,,,,,,,,,,,,,,,,,,,,,,,,,left,1.0,1.5776359000010416,,,,,sub-159,1,random_dot,59.93313856989516,
left,left,52.0,0.0,26.0,left,1.0,2.644990600063465,,speed,space,3.436730599962175,,,,,,0.0,0.0,0.0,1.0,26.0,0.0,52.0,0.0,426.29028349998407,,,,,,,,,426.2770306000021,426.390310900053,427.19310390006285,427.1759245999856,427.1766512000468,427.19310390006285,427.19310390006285,427.19310390006285,,429.84486270009074,,,,,,,,,,,,,,,,,,,,,,,,,,,,,,left,1.0,2.644990600063465,,,,,sub-159,1,random_dot,59.93313856989516,
right,right,53.0,1.0,26.0,right,1.0,1.9860505000688136,,speed,space,3.436730599962175,,,,,,0.0,0.0,0.0,1.0,26.0,1.0,53.0,1.0,429.859259000048,,,,,,,,,429.84569500002544,430.6600323000457,431.4621387000661,431.44448110007215,431.44522520003375,431.4621387000661,431.4621387000661,431.4621387000661,,433.46435600006953,,,,,,,,,,,,,,,,,,,,,,,,,,,,,,right,1.0,1.9860505000688136,,,,,sub-159,1,random_dot,59.93313856989516,
left,left,54.0,0.0,27.0,right,0.0,4.187246699933894,,speed,space,3.436730599962175,,,,,,0.0,0.0,0.0,1.0,27.0,0.0,54.0,0.0,433.4785400000401,,,,,,,,,433.465188400005,434.2789260999998,435.0814625000348,435.06354750006,435.06429830007255,435.0814625000348,435.0814625000348,435.0814625000348,,439.2851549000479,,,,,,,,,,,,,,,,,,,,,,,,,,,,,,right,0.0,4.187246699933894,,,,,sub-159,1,random_dot,59.93313856989516,
right,right,55.0,1.0,27.0,right,1.0,1.566248400020413,,speed,space,3.436730599962175,,,,,,0.0,0.0,0.0,1.0,27.0,1.0,55.0,1.0,439.299204000039,,,,,,,,,439.28605860006064,439.6497073000064,440.45154300006106,440.43386870005634,440.434586700052,440.45154300006106,440.45154300006106,440.45154300006106,,442.0192643000046,,,,,,,,,,,,,,,,,,,,,,,,,,,,,,right,1.0,1.566248400020413,,,,,sub-159,1,random_dot,59.93313856989516,
left,left,56.0,0.0,28.0,left,1.0,1.5213400999782607,,speed,space,3.436730599962175,,,,,,0.0,0.0,0.0,1.0,28.0,0.0,56.0,0.0,442.0339034000645,,,,,,,,,442.0195801000809,442.1341326000402,442.9362651000265,442.91833420004696,442.9187296000309,442.9362651000265,442.9362651000265,442.9362651000265,,444.47122690000106,,,,,,,,,,,,,,,,,,,,,,,,,,,,,,left,1.0,1.5213400999782607,,,,,sub-159,1,random_dot,59.93313856989516,
right,right,57.0,1.0,28.0,right,1.0,1.8395992000587285,,speed,space,3.436730599962175,,,,,,0.0,0.0,0.0,1.0,28.0,1.0,57.0,1.0,444.48564650001936,,,,,,,,,444.4717018000083,444.8359773000702,445.6379999000346,445.62010890000965,445.62050630000886,445.6379999000346,445.6379999000346,445.6379999000346,,447.49001609999686,,,,,,,,,,,,,,,,,,,,,,,,,,,,,,right,1.0,1.8395992000587285,,,,,sub-159,1,random_dot,59.93313856989516,
right,right,58.0,0.0,29.0,right,1.0,2.260574700077996,,speed,space,3.436730599962175,,,,,,0.0,0.0,0.0,1.0,29.0,0.0,58.0,1.0,447.5045228999807,,,,,,,,,447.4904768000124,448.7056886000792,449.507763300091,449.4902212000452,449.4909602000844,449.507763300091,449.507763300091,449.507763300091,,451.7767282000277,,,,,,,,,,,,,,,,,,,,,,,,,,,,,,right,1.0,2.260574700077996,,,,,sub-159,1,random_dot,59.93313856989516,
left,left,59.0,1.0,29.0,left,1.0,2.934544299961999,,speed,space,3.436730599962175,,,,,,0.0,0.0,0.0,1.0,29.0,1.0,59.0,0.0,451.7910508000059,,,,,,,,,451.7776247999864,451.89127560006455,452.6932700000471,452.6756420000456,452.6764024000149,452.6932700000471,452.6932700000471,452.6932700000471,,455.6296560000628,,,,,,,,,,,,,,,,,,,,,,,,,,,,,,left,1.0,2.934544299961999,,,,,sub-159,1,random_dot,59.93313856989516,
,,0.0,0.0,0.0,,,,,speed,space,3.436730599962175,,,,,,0.0,0.0,0.0,1.0,,,,,,,,,,,,,,,,,,,,,,,,,,,,,,,,,,,,,,,,,,,,,,,,,,,,,,,,,,,,sub-159,1,random_dot,59.93313856989516,
left,left,0.0,0.0,0.0,left,1.0,8.636291199945845,,accuracy,space,18.33780449989717,,,,,,0.0,1.0,1.0,0.0,0.0,0.0,0.0,0.0,474.0636048000306,,,,,,,,,474.05836310004815,474.84066790004726,475.6430677000899,475.6254284000024,475.6263467000099,475.6430677000899,475.6430677000899,475.6430677000899,480.62892809999175,484.2823281000601,,,,,,,,,,,,,,,,,,,,,,,455.6932283000788,455.70053809997626,455.70053809997626,474.0408642999828,space,18.33780449989717,,left,1.0,8.636291199945845,,,,,sub-159,1,random_dot,59.93313856989516,
right,right,1.0,1.0,0.0,right,1.0,1.7691650000633672,,accuracy,space,18.33780449989717,,,,,,0.0,1.0,1.0,0.0,0.0,1.0,1.0,1.0,484.2968242000789,,,,,,,,,484.2831288999878,485.497644099989,486.29980959999375,486.2821647999808,486.2829812000273,486.29980959999375,486.29980959999375,486.29980959999375,,488.0854995000409,,,,,,,,,,,,,,,,,,,,,,,,,,,,,,right,1.0,1.7691650000633672,,,,,sub-159,1,random_dot,59.93313856989516,
left,left,2.0,0.0,1.0,left,1.0,4.25738129997626,,accuracy,space,18.33780449989717,,,,,,0.0,1.0,1.0,0.0,1.0,0.0,2.0,0.0,488.09936500003096,,,,,,,,,488.08639950002544,488.199447400053,489.0015351000475,488.9838847999927,488.9846488999901,489.0015351000475,489.0015351000475,489.0015351000475,,493.2719590000343,,,,,,,,,,,,,,,,,,,,,,,,,,,,,,left,1.0,4.25738129997626,,,,,sub-159,1,random_dot,59.93313856989516,
right,right,3.0,1.0,1.0,right,1.0,3.9406601999653503,,accuracy,space,18.33780449989717,,,,,,0.0,1.0,1.0,0.0,1.0,1.0,3.0,1.0,493.2862583000679,,,,,,,,,493.2728616000386,493.3867268000031,494.1883692999836,494.1706106000347,494.1713364000898,494.1883692999836,494.1883692999836,494.1883692999836,,498.1418314999901,,,,,,,,,,,,,,,,,,,,,,,,,,,,,,right,1.0,3.9406601999653503,,,,,sub-159,1,random_dot,59.93313856989516,
left,left,4.0,0.0,2.0,left,1.0,3.240431600017473,,accuracy,space,18.33780449989717,,,,,,0.0,1.0,1.0,0.0,2.0,0.0,4.0,0.0,498.15618910000194,,,,,,,,,498.14270810002927,498.2563161000144,499.0585154000437,499.0408801999874,499.0416576000862,499.0585154000437,499.0585154000437,499.0585154000437,,502.311754000024,,,,,,,,,,,,,,,,,,,,,,,,,,,,,,left,1.0,3.240431600017473,,,,,sub-159,1,random_dot,59.93313856989516,
right,right,5.0,1.0,2.0,right,1.0,1.8503184999572115,,accuracy,space,18.33780449989717,,,,,,0.0,1.0,1.0,0.0,2.0,1.0,5.0,1.0,502.3260500000324,,,,,,,,,502.3126571000321,503.5268942000112,504.32857170002535,504.3110997000476,504.31184970005415,504.32857170002535,504.32857170002535,504.32857170002535,,506.1809951000614,,,,,,,,,,,,,,,,,,,,,,,,,,,,,,right,1.0,1.8503184999572115,,,,,sub-159,1,random_dot,59.93313856989516,
left,left,6.0,0.0,3.0,right,0.0,6.041222000028938,,accuracy,space,18.33780449989717,,,,,,0.0,1.0,1.0,0.0,3.0,0.0,6.0,0.0,506.1951284999959,,,,,,,,,506.1818382000784,506.5454864000203,507.347240800038,507.32927149999887,507.3296674999874,507.347240800038,507.347240800038,507.347240800038,512.3341300000902,513.402278100024,,,,,,,,,,,,,,,,,,,,,,,,,,,,,,right,0.0,6.041222000028938,,,,,sub-159,1,random_dot,59.93313856989516,
right,right,7.0,1.0,3.0,right,1.0,2.1788106000749394,,accuracy,space,18.33780449989717,,,,,,0.0,1.0,1.0,0.0,3.0,1.0,7.0,1.0,513.4158929000841,,,,,,,,,513.4031380000524,514.617229500087,515.4195738000562,515.4011055000592,515.4015129000181,515.4195738000562,515.4195738000562,515.4195738000562,,517.6047538000857,,,,,,,,,,,,,,,,,,,,,,,,,,,,,,right,1.0,2.1788106000749394,,,,,sub-159,1,random_dot,59.93313856989516,
right,right,8.0,0.0,4.0,right,1.0,5.906129000009969,,accuracy,space,18.33780449989717,,,,,,0.0,1.0,1.0,0.0,4.0,0.0,8.0,1.0,517.6190924000693,,,,,,,,,517.6053106000181,518.4205370000564,519.2225077999756,519.2043358000228,519.2052642999915,519.2225077999756,519.2225077999756,519.2225077999756,524.2089992000256,525.1434728000313,,,,,,,,,,,,,,,,,,,,,,,,,,,,,,right,1.0,5.906129000009969,,,,,sub-159,1,random_dot,59.93313856989516,
left,left,9.0,1.0,4.0,left,1.0,1.9887412999523804,,accuracy,space,18.33780449989717,,,,,,0.0,1.0,1.0,0.0,4.0,1.0,9.0,0.0,525.1580524999881,,,,,,,,,525.1439629000379,525.9581832999829,526.7604182000505,526.7431706000352,526.7439944000216,526.7604182000505,526.7604182000505,526.7604182000505,,528.7633163999999,,,,,,,,,,,,,,,,,,,,,,,,,,,,,,left,1.0,1.9887412999523804,,,,,sub-159,1,random_dot,59.93313856989516,
right,right,10.0,0.0,5.0,right,1.0,3.248424299992621,,accuracy,space,18.33780449989717,,,,,,0.0,1.0,1.0,0.0,5.0,0.0,10.0,1.0,528.7775636999868,,,,,,,,,528.7643771000439,529.127680900041,529.9302598000504,529.9123215000145,529.912991499994,529.9302598000504,529.9302598000504,529.9302598000504,,533.182238599984,,,,,,,,,,,,,,,,,,,,,,,,,,,,,,right,1.0,3.248424299992621,,,,,sub-159,1,random_dot,59.93313856989516,
left,left,11.0,1.0,5.0,left,1.0,2.139896999928169,,accuracy,space,18.33780449989717,,,,,,0.0,1.0,1.0,0.0,5.0,1.0,11.0,0.0,533.1963430000469,,,,,,,,,533.1828551000217,533.2970809000544,534.0990022000624,534.0813638999825,534.0821191000286,534.0990022000624,534.0990022000624,534.0990022000624,,536.2518849000335,,,,,,,,,,,,,,,,,,,,,,,,,,,,,,left,1.0,2.139896999928169,,,,,sub-159,1,random_dot,59.93313856989516,
right,right,12.0,0.0,6.0,right,1.0,3.2811063000699505,,accuracy,space,18.33780449989717,,,,,,0.0,1.0,1.0,0.0,6.0,0.0,12.0,1.0,536.2655909000896,,,,,,,,,536.2530640000477,536.6158497000579,537.4175349000143,537.3998912000097,537.4002943000523,537.4175349000143,537.4175349000143,537.4175349000143,,540.7040504000615,,,,,,,,,,,,,,,,,,,,,,,,,,,,,,right,1.0,3.2811063000699505,,,,,sub-159,1,random_dot,59.93313856989516,
left,left,13.0,1.0,6.0,right,0.0,5.626569899963215,,accuracy,space,18.33780449989717,,,,,,0.0,1.0,1.0,0.0,6.0,1.0,13.0,0.0,540.7183713000268,,,,,,,,,540.704506100039,541.9192592999898,542.7219621000113,542.7042450000299,542.7052406000439,542.7219621000113,542.7219621000113,542.7219621000113,547.7088829000713,548.3589106000727,,,,,,,,,,,,,,,,,,,,,,,,,,,,,,right,0.0,5.626569899963215,,,,,sub-159,1,random_dot,59.93313856989516,
left,left,14.0,0.0,7.0,left,1.0,2.2024303999496624,,accuracy,space,18.33780449989717,,,,,,0.0,1.0,1.0,0.0,7.0,0.0,14.0,0.0,548.3735748000909,,,,,,,,,548.3593945000321,548.7238181000575,549.5261559999781,549.5079638999887,549.5084363999777,549.5261559999781,549.5261559999781,549.5261559999781,,551.7448775999947,,,,,,,,,,,,,,,,,,,,,,,,,,,,,,left,1.0,2.2024303999496624,,,,,sub-159,1,random_dot,59.93313856989516,
right,right,15.0,1.0,7.0,right,1.0,3.237816499895416,,accuracy,space,18.33780449989717,,,,,,0.0,1.0,1.0,0.0,7.0,1.0,15.0,1.0,551.7595627000555,,,,,,,,,551.7453645999776,552.1096562000457,552.9117671999848,552.893918100046,552.8943673999747,552.9117671999848,552.9117671999848,552.9117671999848,,556.165002600057,,,,,,,,,,,,,,,,,,,,,,,,,,,,,,right,1.0,3.237816499895416,,,,,sub-159,1,random_dot,59.93313856989516,
left,left,16.0,0.0,8.0,left,1.0,2.298311599995941,,accuracy,space,18.33780449989717,,,,,,0.0,1.0,1.0,0.0,8.0,0.0,16.0,0.0,556.1790652000345,,,,,,,,,556.1654782000696,556.2793871000176,557.0815383000299,557.0638850000687,557.0646982000908,557.0815383000299,557.0815383000299,557.0815383000299,,559.3843347000657,,,,,,,,,,,,,,,,,,,,,,,,,,,,,,left,1.0,2.298311599995941,,,,,sub-159,1,random_dot,59.93313856989516,
right,right,17.0,1.0,8.0,right,1.0,1.979715499910526,,accuracy,space,18.33780449989717,,,,,,0.0,1.0,1.0,0.0,8.0,1.0,17.0,1.0,559.3985227000667,,,,,,,,,559.3851978000021,559.7485198000213,560.5505641000345,560.533037199988,560.5337606000248,560.5505641000345,560.5505641000345,560.5505641000345,,562.5360097000375,,,,,,,,,,,,,,,,,,,,,,,,,,,,,,right,1.0,1.979715499910526,,,,,sub-159,1,random_dot,59.93313856989516,
right,right,18.0,0.0,9.0,right,1.0,3.3162214999319986,,accuracy,space,18.33780449989717,,,,,,0.0,1.0,1.0,0.0,9.0,0.0,18.0,1.0,562.5506418000441,,,,,,,,,562.5368474000134,563.3513090000488,564.1536370000103,564.1357950000092,564.1365684000775,564.1536370000103,564.1536370000103,564.1536370000103,,567.4731846000068,,,,,,,,,,,,,,,,,,,,,,,,,,,,,,right,1.0,3.3162214999319986,,,,,sub-159,1,random_dot,59.93313856989516,
left,left,19.0,1.0,9.0,left,1.0,6.269911099923775,,accuracy,space,18.33780449989717,,,,,,0.0,1.0,1.0,0.0,9.0,1.0,19.0,0.0,567.4874533000402,,,,,,,,,567.4741274000844,568.2875247000484,569.0899118999951,569.0724128000438,569.0731405999977,569.0899118999951,569.0899118999951,569.0899118999951,574.0765378000215,575.3618594000582,,,,,,,,,,,,,,,,,,,,,,,,,,,,,,left,1.0,6.269911099923775,,,,,sub-159,1,random_dot,59.93313856989516,
left,left,20.0,0.0,10.0,left,1.0,5.281390200019814,,accuracy,space,18.33780449989717,,,,,,0.0,1.0,1.0,0.0,10.0,0.0,20.0,0.0,575.3761363000376,,,,,,,,,575.3627499000868,576.1769470000872,576.9786947000539,576.9610108999768,576.9617858000565,576.9786947000539,576.9786947000539,576.9786947000539,581.9653847999871,582.2662137000589,,,,,,,,,,,,,,,,,,,,,,,,,,,,,,left,1.0,5.281390200019814,,,,,sub-159,1,random_dot,59.93313856989516,
right,right,21.0,1.0,10.0,right,1.0,1.224237099988386,,accuracy,space,18.33780449989717,,,,,,0.0,1.0,1.0,0.0,10.0,1.0,21.0,1.0,582.280733600026,,,,,,,,,582.267732999986,583.0816325000487,583.885110400035,583.8674516000319,583.8685471999925,583.885110400035,583.885110400035,583.885110400035,,585.1179523000028,,,,,,,,,,,,,,,,,,,,,,,,,,,,,,right,1.0,1.224237099988386,,,,,sub-159,1,random_dot,59.93313856989516,
left,left,22.0,0.0,11.0,right,0.0,5.494037299999036,,accuracy,space,18.33780449989717,,,,,,0.0,1.0,1.0,0.0,11.0,0.0,22.0,0.0,585.1325382000068,,,,,,,,,585.1183220000239,585.232807100052,586.0354834999889,586.0172337000258,586.0176344000502,586.0354834999889,586.0354834999889,586.0354834999889,591.021625500056,591.538950300077,,,,,,,,,,,,,,,,,,,,,,,,,,,,,,right,0.0,5.494037299999036,,,,,sub-159,1,random_dot,59.93313856989516,
right,right,23.0,1.0,11.0,right,1.0,3.0845338000217453,,accuracy,space,18.33780449989717,,,,,,0.0,1.0,1.0,0.0,11.0,1.0,23.0,1.0,591.5534295000834,,,,,,,,,591.5394115999807,592.3540977999801,593.1561551999766,593.1384732000297,593.1392251000507,593.1561551999766,593.1561551999766,593.1561551999766,,596.2429996000137,,,,,,,,,,,,,,,,,,,,,,,,,,,,,,right,1.0,3.0845338000217453,,,,,sub-159,1,random_dot,59.93313856989516,
right,right,24.0,0.0,12.0,right,1.0,4.860761900083162,,accuracy,space,18.33780449989717,,,,,,0.0,1.0,1.0,0.0,12.0,0.0,24.0,1.0,596.257077199989,,,,,,,,,596.2437490000157,596.6074186000042,597.4094174000202,597.3919441000326,597.3927323999815,597.4094174000202,597.4094174000202,597.4094174000202,,602.2800773000345,,,,,,,,,,,,,,,,,,,,,,,,,,,,,,right,1.0,4.860761900083162,,,,,sub-159,1,random_dot,59.93313856989516,
left,left,25.0,1.0,12.0,left,1.0,4.242902899975888,,accuracy,space,18.33780449989717,,,,,,0.0,1.0,1.0,0.0,12.0,1.0,25.0,0.0,602.2945856000297,,,,,,,,,602.2809652000433,602.6448377000634,603.4471649000188,603.4294174000388,603.4301562000765,603.4471649000188,603.4471649000188,603.4471649000188,,607.7009357999777,,,,,,,,,,,,,,,,,,,,,,,,,,,,,,left,1.0,4.242902899975888,,,,,sub-159,1,random_dot,59.93313856989516,
left,left,26.0,0.0,13.0,left,1.0,4.522417200030759,,accuracy,space,18.33780449989717,,,,,,0.0,1.0,1.0,0.0,13.0,0.0,26.0,0.0,607.7151494000573,,,,,,,,,607.7018071999773,608.5157138999784,609.3175940000219,609.2998866999988,609.3006405000342,609.3175940000219,609.3175940000219,609.3175940000219,,613.857180400053,,,,,,,,,,,,,,,,,,,,,,,,,,,,,,left,1.0,4.522417200030759,,,,,sub-159,1,random_dot,59.93313856989516,
right,right,27.0,1.0,13.0,right,1.0,2.8086694999365136,,accuracy,space,18.33780449989717,,,,,,0.0,1.0,1.0,0.0,13.0,1.0,27.0,1.0,613.8691691000713,,,,,,,,,613.8580719000893,613.969225000008,614.7714471999789,614.7539337000344,614.7546871000668,614.7714471999789,614.7714471999789,614.7714471999789,,617.5907014000695,,,,,,,,,,,,,,,,,,,,,,,,,,,,,,right,1.0,2.8086694999365136,,,,,sub-159,1,random_dot,59.93313856989516,
left,left,28.0,0.0,14.0,right,0.0,5.292988100089133,,accuracy,space,18.33780449989717,,,,,,0.0,1.0,1.0,0.0,14.0,0.0,28.0,0.0,617.6050093000522,,,,,,,,,617.5915406000568,618.8058057000162,619.6079495000886,619.5906140999869,619.5913797999965,619.6079495000886,619.6079495000886,619.6079495000886,624.5946306000696,624.9123512000078,,,,,,,,,,,,,,,,,,,,,,,,,,,,,,right,0.0,5.292988100089133,,,,,sub-159,1,random_dot,59.93313856989516,
right,right,29.0,1.0,14.0,right,1.0,4.122358300024644,,accuracy,space,18.33780449989717,,,,,,0.0,1.0,1.0,0.0,14.0,1.0,29.0,1.0,624.9268299000105,,,,,,,,,624.9132263000356,625.2766658000182,626.0787117000436,626.061585700023,626.0623127000872,626.0787117000436,626.0787117000436,626.0787117000436,,630.2160947000375,,,,,,,,,,,,,,,,,,,,,,,,,,,,,,right,1.0,4.122358300024644,,,,,sub-159,1,random_dot,59.93313856989516,
right,right,30.0,0.0,15.0,left,0.0,5.246231400058605,,accuracy,space,18.33780449989717,,,,,,0.0,1.0,1.0,0.0,15.0,0.0,30.0,1.0,630.2303950000787,,,,,,,,,630.2169314000057,631.4313679999905,632.2342332000844,632.215959800058,632.2167343000183,632.2342332000844,632.2342332000844,632.2342332000844,637.2197945000371,637.4871955000563,,,,,,,,,,,,,,,,,,,,,,,,,,,,,,left,0.0,5.246231400058605,,,,,sub-159,1,random_dot,59.93313856989516,
left,left,31.0,1.0,15.0,left,1.0,2.5466307000024244,,accuracy,space,18.33780449989717,,,,,,0.0,1.0,1.0,0.0,15.0,1.0,31.0,0.0,637.5015671000583,,,,,,,,,637.4876611999935,637.6016918000532,638.4038992000278,638.3858883000212,638.3862903000554,638.4038992000278,638.4038992000278,638.4038992000278,,640.9558808000293,,,,,,,,,,,,,,,,,,,,,,,,,,,,,,left,1.0,2.5466307000024244,,,,,sub-159,1,random_dot,59.93313856989516,
left,left,32.0,0.0,16.0,left,1.0,4.417116399970837,,accuracy,space,18.33780449989717,,,,,,0.0,1.0,1.0,0.0,16.0,0.0,32.0,0.0,640.9705535999965,,,,,,,,,640.9563569000456,641.7713747000089,642.5736336000264,642.5552738000406,642.5556944999844,642.5736336000264,642.5736336000264,642.5736336000264,,646.9944473999785,,,,,,,,,,,,,,,,,,,,,,,,,,,,,,left,1.0,4.417116399970837,,,,,sub-159,1,random_dot,59.93313856989516,
right,right,33.0,1.0,16.0,right,1.0,5.339976400020532,,accuracy,space,18.33780449989717,,,,,,0.0,1.0,1.0,0.0,16.0,1.0,33.0,1.0,647.0085136999842,,,,,,,,,646.9953555000247,647.1087092000525,647.9107796000317,647.8929977000225,647.8937193000456,647.9107796000317,647.9107796000317,647.9107796000317,652.8974959000479,653.2651405000361,,,,,,,,,,,,,,,,,,,,,,,,,,,,,,right,1.0,5.339976400020532,,,,,sub-159,1,random_dot,59.93313856989516,
left,left,34.0,0.0,17.0,left,1.0,5.388496699975804,,accuracy,space,18.33780449989717,,,,,,0.0,1.0,1.0,0.0,17.0,0.0,34.0,0.0,653.2795087000122,,,,,,,,,653.2661244000774,654.0796961000888,654.882351999986,654.8647159000393,654.8655649999855,654.882351999986,654.882351999986,654.882351999986,659.869251199998,660.2870493000373,,,,,,,,,,,,,,,,,,,,,,,,,,,,,,left,1.0,5.388496699975804,,,,,sub-159,1,random_dot,59.93313856989516,
right,right,35.0,1.0,17.0,right,1.0,5.35769800003618,,accuracy,space,18.33780449989717,,,,,,0.0,1.0,1.0,0.0,17.0,1.0,35.0,1.0,660.3012416000711,,,,,,,,,660.2879460999975,660.6512063000118,661.453358400031,661.435732300044,661.4364566000877,661.453358400031,661.453358400031,661.453358400031,666.4400484000798,666.8246291000396,,,,,,,,,,,,,,,,,,,,,,,,,,,,,,right,1.0,5.35769800003618,,,,,sub-159,1,random_dot,59.93313856989516,
left,left,36.0,0.0,18.0,left,1.0,5.64941109996289,,accuracy,space,18.33780449989717,,,,,,0.0,1.0,1.0,0.0,18.0,0.0,36.0,0.0,666.8389704000438,,,,,,,,,666.8255563999992,666.9390713000903,667.741237499984,667.7234606000129,667.7243759999983,667.741237499984,667.741237499984,667.741237499984,672.7273937000427,673.3949500999879,,,,,,,,,,,,,,,,,,,,,,,,,,,,,,left,1.0,5.64941109996289,,,,,sub-159,1,random_dot,59.93313856989516,
right,right,37.0,1.0,18.0,right,1.0,3.857830699998885,,accuracy,space,18.33780449989717,,,,,,0.0,1.0,1.0,0.0,18.0,1.0,37.0,1.0,673.409628399997,,,,,,,,,673.3954389999853,674.6104932000162,675.4129732000874,675.3952305000275,675.3959726000903,675.4129732000874,675.4129732000874,675.4129732000874,,679.2832360999892,,,,,,,,,,,,,,,,,,,,,,,,,,,,,,right,1.0,3.857830699998885,,,,,sub-159,1,random_dot,59.93313856989516,
right,right,38.0,0.0,19.0,left,0.0,5.381130099995062,,accuracy,space,18.33780449989717,,,,,,0.0,1.0,1.0,0.0,19.0,0.0,38.0,1.0,679.2974760000361,,,,,,,,,679.2842461999971,680.0981499999762,680.9000323000364,680.8823254000163,680.8830830000807,680.9000323000364,680.9000323000364,680.9000323000364,685.8866166999796,686.2875148000894,,,,,,,,,,,,,,,,,,,,,,,,,,,,,,left,0.0,5.381130099995062,,,,,sub-159,1,random_dot,59.93313856989516,
left,left,39.0,1.0,19.0,right,0.0,4.9362372000468895,,accuracy,space,18.33780449989717,,,,,,0.0,1.0,1.0,0.0,19.0,1.0,39.0,0.0,686.3022132000187,,,,,,,,,686.2884138000663,686.402445100015,687.2044862000039,687.186710900045,687.187431700062,687.2044862000039,687.2044862000039,687.2044862000039,,692.1423907000571,,,,,,,,,,,,,,,,,,,,,,,,,,,,,,right,0.0,4.9362372000468895,,,,,sub-159,1,random_dot,59.93313856989516,
left,left,40.0,0.0,20.0,left,1.0,5.392683699959889,,accuracy,space,18.33780449989717,,,,,,0.0,1.0,1.0,0.0,20.0,0.0,40.0,0.0,692.1564262000611,,,,,,,,,692.1432541999966,692.2565508000553,693.0583380000899,693.040662500076,693.0413828000892,693.0583380000899,693.0583380000899,693.0583380000899,698.0451463999925,698.4628897000803,,,,,,,,,,,,,,,,,,,,,,,,,,,,,,left,1.0,5.392683699959889,,,,,sub-159,1,random_dot,59.93313856989516,
right,right,41.0,1.0,20.0,right,1.0,3.211776399984956,,accuracy,space,18.33780449989717,,,,,,0.0,1.0,1.0,0.0,20.0,1.0,41.0,1.0,698.4772082000272,,,,,,,,,698.4637576000532,699.6783312000334,700.4803044000873,700.46251880005,700.4632883000886,700.4803044000873,700.4803044000873,700.4803044000873,,703.7000441000564,,,,,,,,,,,,,,,,,,,,,,,,,,,,,,right,1.0,3.211776399984956,,,,,sub-159,1,random_dot,59.93313856989516,
right,right,42.0,0.0,21.0,right,1.0,3.1052074999315664,,accuracy,space,18.33780449989717,,,,,,0.0,1.0,1.0,0.0,21.0,0.0,42.0,1.0,703.7143422000809,,,,,,,,,703.7009361999808,704.0647420000751,704.8665287999902,704.8490054000868,704.8497270999942,704.8665287999902,704.8665287999902,704.8665287999902,,707.9868028999772,,,,,,,,,,,,,,,,,,,,,,,,,,,,,,right,1.0,3.1052074999315664,,,,,sub-159,1,random_dot,59.93313856989516,
left,left,43.0,1.0,21.0,left,1.0,1.7196970999939367,,accuracy,space,18.33780449989717,,,,,,0.0,1.0,1.0,0.0,21.0,1.0,43.0,0.0,708.0002586999908,,,,,,,,,707.9877015000675,708.8005900999997,709.6026559000602,709.5848473000806,709.5852466999786,709.6026559000602,709.6026559000602,709.6026559000602,,711.3385178000899,,,,,,,,,,,,,,,,,,,,,,,,,,,,,,left,1.0,1.7196970999939367,,,,,sub-159,1,random_dot,59.93313856989516,
right,right,44.0,0.0,22.0,right,1.0,2.206511500058696,,accuracy,space,18.33780449989717,,,,,,0.0,1.0,1.0,0.0,22.0,0.0,44.0,1.0,711.352851600037,,,,,,,,,711.33938270004,712.5533362000715,713.3554181000218,713.3372668999946,713.337660600082,713.3554181000218,713.3554181000218,713.3554181000218,,715.576073299977,,,,,,,,,,,,,,,,,,,,,,,,,,,,,,right,1.0,2.206511500058696,,,,,sub-159,1,random_dot,59.93313856989516,
left,left,45.0,1.0,22.0,left,1.0,2.920143600087613,,accuracy,space,18.33780449989717,,,,,,0.0,1.0,1.0,0.0,22.0,1.0,45.0,0.0,715.5892624000553,,,,,,,,,715.5769082000479,716.7896514000604,717.5918725000229,717.5742046000669,717.5749721000902,717.5918725000229,717.5918725000229,717.5918725000229,,720.529067800031,,,,,,,,,,,,,,,,,,,,,,,,,,,,,,left,1.0,2.920143600087613,,,,,sub-159,1,random_dot,59.93313856989516,
left,left,46.0,0.0,23.0,right,0.0,4.387023800052702,,accuracy,space,18.33780449989717,,,,,,0.0,1.0,1.0,0.0,23.0,0.0,46.0,0.0,720.5422966000624,,,,,,,,,720.5298902000068,721.7432829000754,722.5453045000322,722.5273540000198,722.5281125000911,722.5453045000322,722.5453045000322,722.5453045000322,,726.9494037000695,,,,,,,,,,,,,,,,,,,,,,,,,,,,,,right,0.0,4.387023800052702,,,,,sub-159,1,random_dot,59.93313856989516,
right,right,47.0,1.0,23.0,left,0.0,3.215612699976191,,accuracy,space,18.33780449989717,,,,,,0.0,1.0,1.0,0.0,23.0,1.0,47.0,1.0,726.9636135000037,,,,,,,,,726.9503200000618,728.1646633000346,728.9663903000765,728.9487862000242,728.9495042000199,728.9663903000765,728.9663903000765,728.9663903000765,,732.1867664000019,,,,,,,,,,,,,,,,,,,,,,,,,,,,,,left,0.0,3.215612699976191,,,,,sub-159,1,random_dot,59.93313856989516,
right,right,48.0,0.0,24.0,right,1.0,1.4890840000007302,,accuracy,space,18.33780449989717,,,,,,0.0,1.0,1.0,0.0,24.0,0.0,48.0,1.0,732.2006855000509,,,,,,,,,732.1876547000138,732.5510004999815,733.3527671999764,733.3351517000701,733.3358939000173,733.3527671999764,733.3527671999764,733.3527671999764,,734.8546722000465,,,,,,,,,,,,,,,,,,,,,,,,,,,,,,right,1.0,1.4890840000007302,,,,,sub-159,1,random_dot,59.93313856989516,
left,left,49.0,1.0,24.0,left,1.0,2.1108235999708995,,accuracy,space,18.33780449989717,,,,,,0.0,1.0,1.0,0.0,24.0,1.0,49.0,0.0,734.8690413000295,,,,,,,,,734.8555077000055,734.9698564000428,735.7712654999923,735.7535888000857,735.7543213000754,735.7712654999923,735.7712654999923,735.7712654999923,,737.8899222000036,,,,,,,,,,,,,,,,,,,,,,,,,,,,,,left,1.0,2.1108235999708995,,,,,sub-159,1,random_dot,59.93313856989516,
right,right,50.0,0.0,25.0,right,1.0,2.845155099988915,,accuracy,space,18.33780449989717,,,,,,0.0,1.0,1.0,0.0,25.0,0.0,50.0,1.0,737.9041311000474,,,,,,,,,737.890797900036,738.004446899984,738.8068847000832,738.7889357000822,738.7896808000514,738.8068847000832,738.8068847000832,738.8068847000832,,741.6591131000314,,,,,,,,,,,,,,,,,,,,,,,,,,,,,,right,1.0,2.845155099988915,,,,,sub-159,1,random_dot,59.93313856989516,
left,left,51.0,1.0,25.0,left,1.0,4.035220699966885,,accuracy,space,18.33780449989717,,,,,,0.0,1.0,1.0,0.0,25.0,1.0,51.0,0.0,741.6735991000896,,,,,,,,,741.6599956999999,742.8740318000782,743.6764498000266,743.6582575000357,743.6586683000205,743.6764498000266,743.6764498000266,743.6764498000266,,747.7131955000805,,,,,,,,,,,,,,,,,,,,,,,,,,,,,,left,1.0,4.035220699966885,,,,,sub-159,1,random_dot,59.93313856989516,
left,left,52.0,0.0,26.0,right,0.0,1.721264300053008,,accuracy,space,18.33780449989717,,,,,,0.0,1.0,1.0,0.0,26.0,0.0,52.0,0.0,747.7276515000267,,,,,,,,,747.7139630999882,748.92873220006,749.7305717000272,749.7128335000016,749.7135928000789,749.7305717000272,749.7305717000272,749.7305717000272,,751.466134199989,,,,,,,,,,,,,,,,,,,,,,,,,,,,,,right,0.0,1.721264300053008,,,,,sub-159,1,random_dot,59.93313856989516,
right,right,53.0,1.0,26.0,right,1.0,0.9992440999485552,,accuracy,space,18.33780449989717,,,,,,0.0,1.0,1.0,0.0,26.0,1.0,53.0,1.0,751.4804365000455,,,,,,,,,751.467032100074,751.5805873000063,752.3826595999999,752.3649522999767,752.3657971000066,752.3826595999999,752.3826595999999,752.3826595999999,,753.3839876999846,,,,,,,,,,,,,,,,,,,,,,,,,,,,,,right,1.0,0.9992440999485552,,,,,sub-159,1,random_dot,59.93313856989516,
left,left,54.0,0.0,27.0,left,1.0,1.3212372000562027,,accuracy,space,18.33780449989717,,,,,,0.0,1.0,1.0,0.0,27.0,0.0,54.0,0.0,753.3981989000458,,,,,,,,,753.3848408000777,753.4984227999812,754.3005036000395,754.2828186000697,754.283587199985,754.3005036000395,754.3005036000395,754.3005036000395,,755.636262300075,,,,,,,,,,,,,,,,,,,,,,,,,,,,,,left,1.0,1.3212372000562027,,,,,sub-159,1,random_dot,59.93313856989516,
right,right,55.0,1.0,27.0,right,1.0,1.4500901000574231,,accuracy,space,18.33780449989717,,,,,,0.0,1.0,1.0,0.0,27.0,1.0,55.0,1.0,755.6501397000393,,,,,,,,,755.6371481000679,756.8505095000146,757.6526479000458,757.6349386000074,757.6356897000223,757.6526479000458,757.6526479000458,757.6526479000458,,759.1053652000846,,,,,,,,,,,,,,,,,,,,,,,,,,,,,,right,1.0,1.4500901000574231,,,,,sub-159,1,random_dot,59.93313856989516,
right,right,56.0,0.0,28.0,right,1.0,1.8904668999603016,,accuracy,space,18.33780449989717,,,,,,0.0,1.0,1.0,0.0,28.0,0.0,56.0,1.0,759.1190124000423,,,,,,,,,759.1062581000151,759.9199920999818,760.7213915000902,760.7037969999947,760.7046668999828,760.7213915000902,760.7213915000902,760.7213915000902,,762.6237158000004,,,,,,,,,,,,,,,,,,,,,,,,,,,,,,right,1.0,1.8904668999603016,,,,,sub-159,1,random_dot,59.93313856989516,
left,left,57.0,1.0,28.0,right,0.0,5.832704299944453,,accuracy,space,18.33780449989717,,,,,,0.0,1.0,1.0,0.0,28.0,1.0,57.0,0.0,762.6380289000226,,,,,,,,,762.6246743000811,762.9883337999927,763.7905181000242,763.7727635999909,763.7735181000317,763.7905181000242,763.7905181000242,763.7905181000242,768.7770414000843,769.6282775000436,,,,,,,,,,,,,,,,,,,,,,,,,,,,,,right,0.0,5.832704299944453,,,,,sub-159,1,random_dot,59.93313856989516,
left,left,58.0,0.0,29.0,left,1.0,2.4477102999808267,,accuracy,space,18.33780449989717,,,,,,0.0,1.0,1.0,0.0,29.0,0.0,58.0,0.0,769.6427801999962,,,,,,,,,769.629149000044,770.443325500004,771.245607900084,771.2278015000047,771.2285781999817,771.245607900084,771.245607900084,771.245607900084,,773.6980273000663,,,,,,,,,,,,,,,,,,,,,,,,,,,,,,left,1.0,2.4477102999808267,,,,,sub-159,1,random_dot,59.93313856989516,
right,right,59.0,1.0,29.0,left,0.0,5.337334899930283,,accuracy,space,18.33780449989717,,,,,,0.0,1.0,1.0,0.0,29.0,1.0,59.0,1.0,773.7125143000158,,,,,,,,,773.6988994000712,774.0629595000064,774.8652059000451,774.8474478999851,774.8481709000189,774.8652059000451,774.8652059000451,774.8652059000451,779.8510783000384,780.2188139000209,,,,,,,,,,,,,,,,,,,,,,,,,,,,,,left,0.0,5.337334899930283,,,,,sub-159,1,random_dot,59.93313856989516,
,,1.0,1.0,0.0,,,,,accuracy,space,18.33780449989717,,,,,,0.0,1.0,1.0,0.0,,,,,,,,,,,,,,,,,,,,,,,,,,,,,,,,,,,,,,,,,,,,,,,,,,,,,,,,,,,,sub-159,1,random_dot,59.93313856989516,
,,,,,,,,,,,,,,,,,,,,,,,,,,,,,,,,,,,,,,,,,,,,,,,,,,,,,,,,,,,,,,,,,,,,,,,,,,,,,780.2253128000302,780.233251000056,785.220539300004,sub-159,1,random_dot,59.93313856989516,
