wordCTK,colorCTK,corrAnsCTK,congruentCTK,thisN,thisTrialN,thisRepN,keyResp_CTK.keys,keyResp_CTK.corr,keyResp_CTK.rt,keyResp_CTK.duration,wordPractice,colorPractice,corrAnsPractice,congruentPractice,respPractice.keys,respPractice.corr,respPractice.rt,respPractice.duration,word,color,corrAns,congruent,keyResp_test_run.keys,keyResp_test_run.corr,keyResp_test_run.rt,keyResp_test_run.duration,trials_CTK.thisRepN,trials_CTK.thisTrialN,trials_CTK.thisN,trials_CTK.thisIndex,trials_practice.thisRepN,trials_practice.thisTrialN,trials_practice.thisN,trials_practice.thisIndex,trials_test.thisRepN,trials_test.thisTrialN,trials_test.thisN,trials_test.thisIndex,thisRow.t,notes,instruction.started,instr_text.started,instr_image.started,instr_resp.started,instruction.stopped,instr_resp.keys,instr_resp.rt,instr_resp.duration,instr_color_to_key.started,instr_ctk.started,resp_ctk.started,instr_color_to_key.stopped,resp_ctk.keys,resp_ctk.rt,resp_ctk.duration,ITI.started,fixcross.started,fixcross.stopped,ITI.stopped,color_to_key_run.started,stimulus_CTK.started,keyResp_CTK.started,color_to_key_run.stopped,trials_CTK.keyResp_CTK.keys,trials_CTK.keyResp_CTK.corr,trials_CTK.keyResp_CTK.rt,trials_CTK.keyResp_CTK.duration,instr_practice.started,instr_practice_text.started,instr_practice_resp.started,instr_practice.stopped,instr_practice_resp.keys,instr_practice_resp.rt,instr_practice_resp.duration,practice_run.started,stimulus_practice.started,respPractice.started,practice_run.stopped,trials_practice.respPractice.keys,trials_practice.respPractice.corr,trials_practice.respPractice.rt,trials_practice.respPractice.duration,feedback.started,textFeedback.started,feedback.stopped,textFeedback.stopped,instr_test.started,instr_test_text.started,instr_test_resp.started,instr_test.stopped,instr_test_resp.keys,instr_test_resp.rt,instr_test_resp.duration,test_run.started,stimulus_test_run.started,keyResp_test_run.started,test_run.stopped,trials_test.keyResp_test_run.keys,trials_test.keyResp_test_run.corr,trials_test.keyResp_test_run.rt,trials_test.keyResp_test_run.duration,goodbye.started,textGoodbye.started,textGoodbye.stopped,goodbye.stopped,participant,session,expName,frameRate,Unnamed: 113
,,,,,,,,,,,,,,,,,,,,,,,,,,,,,,,,,,,,,,,,,0.0053191999904811,0.1630588000407442,0.1630588000407442,0.1630588000407442,31.02195560000837,space,30.827902299992274,,,,,,,,,,,,,,,,,,,,,,,,,,,,,,,,,,,,,,,,,,,,,,,,,,,,,,,,,,,sub-233,1,stroop_test,120.30205440136176,
,,,,,,,,,,,,,,,,,,,,,,,,,,,,,,,,,,,,,,,,,,,,,,,,,31.02207190002082,31.02958630002104,31.02958630002104,44.78529800003162,space,13.747080600005576,,,,,,,,,,,,,,,,,,,,,,,,,,,,,,,,,,,,,,,,,,,,,,,,,,,,sub-233,1,stroop_test,120.30205440136176,
test,blue,b,1.0,0.0,0.0,0.0,b,1.0,0.7687570999842137,,,,,,,,,,,,,,,,,,0.0,0.0,0.0,2.0,,,,,,,,,44.977269000024535,,,,,,,,,,,,,,,,,44.96524809999392,45.98174760001712,46.80460969998967,46.77425310004037,46.795976700028405,46.80460969998967,46.80460969998967,47.576024000009056,b,1.0,0.7687570999842137,,,,,,,,,,,,,,,,,,,,,,,,,,,,,,,,,,,,,,,,sub-233,1,stroop_test,120.30205440136176,
test,red,r,1.0,1.0,1.0,0.0,r,1.0,1.1110415000002831,,,,,,,,,,,,,,,,,,0.0,1.0,1.0,0.0,,,,,,,,,47.5825274999952,,,,,,,,,,,,,,,,,47.5765878999955,48.77176040003542,49.567108699993696,49.556743299996015,49.558346900041215,49.567108699993696,49.567108699993696,50.6830498999916,r,1.0,1.1110415000002831,,,,,,,,,,,,,,,,,,,,,,,,,,,,,,,,,,,,,,,,sub-233,1,stroop_test,120.30205440136176,
test,yellow,g,1.0,2.0,2.0,0.0,g,1.0,0.3694020000402815,,,,,,,,,,,,,,,,,,0.0,2.0,2.0,1.0,,,,,,,,,50.6938181000296,,,,,,,,,,,,,,,,,50.68378990003839,51.88447480002651,52.68253950000508,52.67260330001591,52.67411890003132,52.68253950000508,52.68253950000508,53.056897500006016,g,1.0,0.3694020000402815,,,,,,,,,,,,,,,,,,,,,,,,,,,,,,,,,,,,,,,,sub-233,1,stroop_test,120.30205440136176,
test,blue,b,1.0,3.0,0.0,1.0,b,1.0,0.4008472000132315,,,,,,,,,,,,,,,,,,1.0,0.0,3.0,2.0,,,,,,,,,53.06624110002304,,,,,,,,,,,,,,,,,53.05766859999858,53.85355540004093,54.64894450001884,54.63878610002576,54.640537500032224,54.64894450001884,54.64894450001884,55.05767430004198,b,1.0,0.4008472000132315,,,,,,,,,,,,,,,,,,,,,,,,,,,,,,,,,,,,,,,,sub-233,1,stroop_test,120.30205440136176,
test,yellow,g,1.0,4.0,1.0,1.0,g,1.0,1.1681905000004915,,,,,,,,,,,,,,,,,,1.0,1.0,4.0,1.0,,,,,,,,,55.06761210004333,,,,,,,,,,,,,,,,,55.05923519999487,55.403393600019626,56.19733500003349,56.18792310002027,56.18947440001648,56.19733500003349,56.19733500003349,57.37213050003629,g,1.0,1.1681905000004915,,,,,,,,,,,,,,,,,,,,,,,,,,,,,,,,,,,,,,,,sub-233,1,stroop_test,120.30205440136176,
test,red,r,1.0,5.0,2.0,1.0,r,1.0,0.427550800028257,,,,,,,,,,,,,,,,,,1.0,2.0,5.0,0.0,,,,,,,,,57.37952730001416,,,,,,,,,,,,,,,,,57.37316560000181,58.17040330002783,58.97100240003783,58.962239300017245,58.96339250000892,58.97100240003783,58.97100240003783,59.40633940004045,r,1.0,0.427550800028257,,,,,,,,,,,,,,,,,,,,,,,,,,,,,,,,,,,,,,,,sub-233,1,stroop_test,120.30205440136176,
test,red,r,1.0,6.0,0.0,2.0,r,1.0,0.5896595999947749,,,,,,,,,,,,,,,,,,2.0,0.0,6.0,0.0,,,,,,,,,59.41361600003438,,,,,,,,,,,,,,,,,59.40723650000291,59.75201639998704,60.5462846000446,60.537185900029726,60.53839910001261,60.5462846000446,60.5462846000446,61.140222000016365,r,1.0,0.5896595999947749,,,,,,,,,,,,,,,,,,,,,,,,,,,,,,,,,,,,,,,,sub-233,1,stroop_test,120.30205440136176,
test,blue,b,1.0,7.0,1.0,2.0,b,1.0,0.6402258000453003,,,,,,,,,,,,,,,,,,2.0,1.0,7.0,2.0,,,,,,,,,61.14807340002153,,,,,,,,,,,,,,,,,61.14148440002464,61.485097100026906,62.27612679998856,62.26867640001001,62.26944619999267,62.27612679998856,62.27612679998856,62.92220259999158,b,1.0,0.6402258000453003,,,,,,,,,,,,,,,,,,,,,,,,,,,,,,,,,,,,,,,,sub-233,1,stroop_test,120.30205440136176,
test,yellow,g,1.0,8.0,2.0,2.0,g,1.0,0.7452442000503652,,,,,,,,,,,,,,,,,,2.0,2.0,8.0,1.0,,,,,,,,,62.93054050003411,,,,,,,,,,,,,,,,,62.92333710001549,64.11766839999473,64.91160170000512,64.90234830003465,64.90372480003862,64.91160170000512,64.91160170000512,65.66247360000852,g,1.0,0.7452442000503652,,,,,,,,,,,,,,,,,,,,,,,,,,,,,,,,,,,,,,,,sub-233,1,stroop_test,120.30205440136176,
test,yellow,g,1.0,9.0,0.0,3.0,g,1.0,0.4390600000042468,,,,,,,,,,,,,,,,,,3.0,0.0,9.0,1.0,,,,,,,,,65.66935470001772,,,,,,,,,,,,,,,,,65.66320469998755,66.85854280000785,67.65270880004391,67.64308629999869,67.644161800039,67.65270880004391,67.65270880004391,68.10080250003375,g,1.0,0.4390600000042468,,,,,,,,,,,,,,,,,,,,,,,,,,,,,,,,,,,,,,,,sub-233,1,stroop_test,120.30205440136176,
test,red,r,1.0,10.0,1.0,3.0,r,1.0,0.5365238999947906,,,,,,,,,,,,,,,,,,3.0,1.0,10.0,0.0,,,,,,,,,68.1079044000362,,,,,,,,,,,,,,,,,68.10120700002881,68.45016599999508,69.24537700001383,69.23454670002684,69.23567060002824,69.24537700001383,69.24537700001383,69.79004739999073,r,1.0,0.5365238999947906,,,,,,,,,,,,,,,,,,,,,,,,,,,,,,,,,,,,,,,,sub-233,1,stroop_test,120.30205440136176,
test,blue,b,1.0,11.0,2.0,3.0,b,1.0,0.2657995999907143,,,,,,,,,,,,,,,,,,3.0,2.0,11.0,2.0,,,,,,,,,69.79941530001815,,,,,,,,,,,,,,,,,69.79092440003296,70.58248330000788,71.37526679999428,71.36692920001224,71.36787320004078,71.37526679999428,71.37526679999428,71.64468690002104,b,1.0,0.2657995999907143,,,,,,,,,,,,,,,,,,,,,,,,,,,,,,,,,,,,,,,,sub-233,1,stroop_test,120.30205440136176,
,,,,,,,,,,,,,,,,,,,,,,,,,,,,,,,,,,,,,,,,,,,,,,,,,,,,,,,,,,,,,,,,,,,,71.64503040001728,71.65622980002081,71.65622980002081,77.43626630003564,space,5.775255499989726,,,,,,,,,,,,,,,,,,,,,,,,,,,,,,,,,sub-233,1,stroop_test,120.30205440136176,
,,,,0.0,0.0,0.0,,,,,blau,blue,b,1.0,b,1.0,0.342823099985253,,,,,,,,,,,,,,0.0,0.0,0.0,5.0,,,,,77.51961730001494,,,,,,,,,,,,,,,,,77.51366510003572,77.78054090001388,78.59467040002346,78.56498329999158,,,,,,,,,,,,,,,,78.58517420000862,78.59467040002346,78.59467040002346,78.9428259000415,b,1.0,0.342823099985253,,78.96594030002598,78.97570220002672,79.94694100000197,,,,,,,,,,,,,,,,,,,,,sub-233,1,stroop_test,120.30205440136176,
,,,,1.0,1.0,0.0,,,,,blau,red,r,0.0,b,0.0,0.9707260000286624,,,,,,,,,,,,,,0.0,1.0,1.0,4.0,,,,,79.95505280001089,,,,,,,,,,,,,,,,,79.94764980004402,80.7380316000199,81.53490329999477,81.52262490004068,,,,,,,,,,,,,,,,81.52376940002432,81.53490329999477,81.53490329999477,82.51437180000357,b,0.0,0.9707260000286624,,82.5253813000163,82.53495669999393,83.52115620003315,,,,,,,,,,,,,,,,,,,,,sub-233,1,stroop_test,120.30205440136176,
,,,,2.0,2.0,0.0,,,,,gelb,yellow,g,1.0,g,1.0,0.9494101000018418,,,,,,,,,,,,,,0.0,2.0,2.0,10.0,,,,,83.531418700004,,,,,,,,,,,,,,,,,83.52187980001327,84.71193470002618,85.51422080001794,85.49635339999804,,,,,,,,,,,,,,,,85.50502839998808,85.51422080001794,85.51422080001794,86.46920839999802,g,1.0,0.9494101000018418,,86.48520560003817,86.49638840003172,87.47002920001978,,,,,,,,,,,,,,,,,,,,,sub-233,1,stroop_test,120.30205440136176,
,,,,3.0,3.0,0.0,,,,,gelb,blue,b,0.0,b,1.0,0.5821217000484467,,,,,,,,,,,,,,0.0,3.0,3.0,9.0,,,,,87.47777390002739,,,,,,,,,,,,,,,,,87.470801700023,88.66086340002948,89.45496190001722,89.44538540003123,,,,,,,,,,,,,,,,89.44648650003364,89.45496190001722,89.45496190001722,90.04987759998767,b,1.0,0.5821217000484467,,90.05115910002496,90.05947020003805,91.04557040001964,91.05214430001796,,,,,,,,,,,,,,,,,,,,sub-233,1,stroop_test,120.30205440136176,
,,,,4.0,4.0,0.0,,,,,blau,blue,b,1.0,b,1.0,0.4826501000206917,,,,,,,,,,,,,,0.0,4.0,4.0,6.0,,,,,91.05214430001796,,,,,,,,,,,,,,,,,91.04657529998804,91.8429500000202,92.64547520002816,92.6278661999968,,,,,,,,,,,,,,,,92.63554650003788,92.64547520002816,92.64547520002816,93.14082910004072,b,1.0,0.4826501000206917,,93.14283500000602,93.152478300035,94.14316590002272,,,,,,,,,,,,,,,,,,,,,sub-233,1,stroop_test,120.30205440136176,
,,,,5.0,5.0,0.0,,,,,gelb,red,r,0.0,r,1.0,1.2386870000045749,,,,,,,,,,,,,,0.0,5.0,5.0,8.0,,,,,94.15117550001014,,,,,,,,,,,,,,,,,94.14396090002263,94.23431790003087,95.0402265000157,95.01830809999956,,,,,,,,,,,,,,,,95.02929199999198,95.0402265000157,95.0402265000157,96.29190990002826,r,1.0,1.2386870000045749,,96.29312149999896,96.30183240002953,97.2933395000291,97.30004030000418,,,,,,,,,,,,,,,,,,,,sub-233,1,stroop_test,120.30205440136176,
,,,,6.0,6.0,0.0,,,,,rot,red,r,1.0,r,1.0,0.4692039999645203,,,,,,,,,,,,,,0.0,6.0,6.0,0.0,,,,,97.30004030000418,,,,,,,,,,,,,,,,,97.29439100000307,97.63340220000828,98.43217710003955,98.41728640004294,,,,,,,,,,,,,,,,98.42554409999866,98.43217710003955,98.43217710003955,98.91791509999894,r,1.0,0.4692039999645203,,98.91915600001812,98.92839790001744,99.9177165000001,99.92441070004134,,,,,,,,,,,,,,,,,,,,sub-233,1,stroop_test,120.30205440136176,
,,,,7.0,7.0,0.0,,,,,rot,blue,b,0.0,b,1.0,0.3436708999797702,,,,,,,,,,,,,,0.0,7.0,7.0,2.0,,,,,99.92441070004134,,,,,,,,,,,,,,,,,99.91851899999892,100.016108300013,100.81361370004016,100.80160850001266,,,,,,,,,,,,,,,,100.80349300004308,100.81361370004016,100.81361370004016,101.16219820000696,b,1.0,0.3436708999797702,,101.1638144000317,101.17488460004095,102.15920480003116,102.16551770002116,,,,,,,,,,,,,,,,,,,,sub-233,1,stroop_test,120.30205440136176,
,,,,8.0,8.0,0.0,,,,,gelb,yellow,g,1.0,g,1.0,0.352546300040558,,,,,,,,,,,,,,0.0,8.0,8.0,11.0,,,,,102.16551770002116,,,,,,,,,,,,,,,,,102.1599014000385,102.25710710004203,103.06190269999206,103.041744999995,,,,,,,,,,,,,,,,103.05132140003845,103.06190269999206,103.06190269999206,103.41912350000348,g,1.0,0.352546300040558,,103.42126370000187,103.43177820002892,104.41629810002632,104.4230910000042,,,,,,,,,,,,,,,,,,,,sub-233,1,stroop_test,120.30205440136176,
,,,,9.0,9.0,0.0,,,,,rot,red,r,1.0,r,1.0,0.352294799988158,,,,,,,,,,,,,,0.0,9.0,9.0,1.0,,,,,104.4230910000042,,,,,,,,,,,,,,,,,104.41700960003072,104.51489350001792,105.32126500003504,105.29956030001632,,,,,,,,,,,,,,,,105.3115179000306,105.32126500003504,105.32126500003504,105.68909280002116,r,1.0,0.352294799988158,,105.69127579999622,105.70204569998896,106.6906394000398,106.6974304000032,,,,,,,,,,,,,,,,,,,,sub-233,1,stroop_test,120.30205440136176,
,,,,10.0,10.0,0.0,,,,,blau,yellow,g,0.0,g,1.0,0.6762229999876581,,,,,,,,,,,,,,0.0,10.0,10.0,7.0,,,,,106.6974304000032,,,,,,,,,,,,,,,,,106.69133400003192,106.78094840003178,107.58139060001122,107.56542500003708,,,,,,,,,,,,,,,,107.57326860004105,107.58139060001122,107.58139060001122,108.26995670003816,g,1.0,0.6762229999876581,,108.27155200002016,108.281046100019,109.26498330000322,109.27176850003887,,,,,,,,,,,,,,,,,,,,sub-233,1,stroop_test,120.30205440136176,
,,,,11.0,11.0,0.0,,,,,rot,yellow,g,0.0,g,1.0,0.3649304999853484,,,,,,,,,,,,,,0.0,11.0,11.0,3.0,,,,,109.27176850003887,,,,,,,,,,,,,,,,,109.26567280001473,110.06328330002724,110.87397680000868,110.8486269999994,,,,,,,,,,,,,,,,110.8635229000356,110.87397680000868,110.87397680000868,111.24777320004068,g,1.0,0.3649304999853484,,111.24871680000795,111.25674119999168,112.24755030003143,112.25439300003929,,,,,,,,,,,,,,,,,,,,sub-233,1,stroop_test,120.30205440136176,
,,,,12.0,0.0,1.0,,,,,rot,red,r,1.0,r,1.0,0.5638653000351042,,,,,,,,,,,,,,1.0,0.0,12.0,0.0,,,,,112.25439300003929,,,,,,,,,,,,,,,,,112.24838549998822,113.04573160002474,113.83682399999816,113.82921880000504,,,,,,,,,,,,,,,,113.82983340002828,113.83682399999816,113.83682399999816,114.40698700002396,r,1.0,0.5638653000351042,,114.40788810001686,114.4151780999964,115.40506550000282,115.4117583000334,,,,,,,,,,,,,,,,,,,,sub-233,1,stroop_test,120.30205440136176,
,,,,13.0,1.0,1.0,,,,,blau,yellow,g,0.0,g,1.0,0.693991600011941,,,,,,,,,,,,,,1.0,1.0,13.0,7.0,,,,,115.4117583000334,,,,,,,,,,,,,,,,,115.40577360003954,115.50345820002258,116.29801830003272,116.28739330003737,,,,,,,,,,,,,,,,116.29147190001096,116.29801830003272,116.29801830003272,116.99804880004376,g,1.0,0.693991600011941,,116.9992571999901,117.01184150000336,117.99585609999484,118.00271540001268,,,,,,,,,,,,,,,,,,,,sub-233,1,stroop_test,120.30205440136176,
,,,,14.0,2.0,1.0,,,,,gelb,yellow,g,1.0,g,1.0,0.707944099965971,,,,,,,,,,,,,,1.0,2.0,14.0,11.0,,,,,118.00271540001268,,,,,,,,,,,,,,,,,117.9967988000135,118.34430130000692,119.14256120001664,119.1282760000322,,,,,,,,,,,,,,,,119.1347188000218,119.14256120001664,119.14256120001664,119.85521250002785,g,1.0,0.707944099965971,,119.85639160004212,119.87048079998932,120.86065200000304,,,,,,,,,,,,,,,,,,,,,sub-233,1,stroop_test,120.30205440136176,
,,,,15.0,3.0,1.0,,,,,blau,blue,b,1.0,b,1.0,0.5426740000257269,,,,,,,,,,,,,,1.0,3.0,15.0,5.0,,,,,120.86894610000309,,,,,,,,,,,,,,,,,120.86171980004292,120.95192650001265,121.75380230002338,121.73672849999276,,,,,,,,,,,,,,,,121.7437607999891,121.75380230002338,121.75380230002338,122.30520589998925,b,1.0,0.5426740000257269,,122.3063806000282,122.31871950003551,123.30277110001772,123.3096059000236,,,,,,,,,,,,,,,,,,,,sub-233,1,stroop_test,120.30205440136176,
,,,,16.0,4.0,1.0,,,,,rot,red,r,1.0,r,1.0,0.3988703999784775,,,,,,,,,,,,,,1.0,4.0,16.0,1.0,,,,,123.3096059000236,,,,,,,,,,,,,,,,,123.30354950000763,123.40129400003934,124.21353740000632,124.18625170004088,,,,,,,,,,,,,,,,124.19630150002196,124.21353740000632,124.21353740000632,124.62139380001464,r,1.0,0.3988703999784775,,124.62258359999396,124.63282550004078,125.61900619999506,125.62563429999864,,,,,,,,,,,,,,,,,,,,sub-233,1,stroop_test,120.30205440136176,
,,,,17.0,5.0,1.0,,,,,gelb,blue,b,0.0,b,1.0,0.3701430999790318,,,,,,,,,,,,,,1.0,5.0,17.0,9.0,,,,,125.62563429999864,,,,,,,,,,,,,,,,,125.6199237999972,125.967235899996,126.77493390004383,126.7517591000069,,,,,,,,,,,,,,,,126.76146170002175,126.77493390004383,126.77493390004383,127.15433119999943,b,1.0,0.3701430999790318,,127.15569949999916,127.16546150000067,128.1526278000092,128.15824369998882,,,,,,,,,,,,,,,,,,,,sub-233,1,stroop_test,120.30205440136176,
,,,,18.0,6.0,1.0,,,,,rot,blue,b,0.0,b,1.0,0.397293499961961,,,,,,,,,,,,,,1.0,6.0,18.0,2.0,,,,,128.15824369998882,,,,,,,,,,,,,,,,,128.15351590001956,128.24980029999278,129.06406800000696,129.0351896000211,,,,,,,,,,,,,,,,129.05291120003676,129.06406800000696,129.06406800000696,129.46774860000005,b,1.0,0.397293499961961,,129.46850700001232,129.4752776999958,130.45962850004435,130.46632870001486,,,,,,,,,,,,,,,,,,,,sub-233,1,stroop_test,120.30205440136176,
,,,,19.0,7.0,1.0,,,,,blau,red,r,0.0,r,1.0,0.3879226999706588,,,,,,,,,,,,,,1.0,7.0,19.0,4.0,,,,,130.46632870001486,,,,,,,,,,,,,,,,,130.46086260001175,130.56836750003276,131.38069540000288,131.35942069999874,,,,,,,,,,,,,,,,131.36962579999818,131.38069540000288,131.38069540000288,131.77850600000238,r,1.0,0.3879226999706588,,131.77981840004213,131.79071380000096,132.7753856999916,132.78196860000023,,,,,,,,,,,,,,,,,,,,sub-233,1,stroop_test,120.30205440136176,
,,,,20.0,8.0,1.0,,,,,gelb,red,r,0.0,g,0.0,1.0093013999867253,,,,,,,,,,,,,,1.0,8.0,20.0,8.0,,,,,132.78196860000023,,,,,,,,,,,,,,,,,132.77607970003737,132.87413680000464,133.67631900002016,133.65823770000134,,,,,,,,,,,,,,,,133.66684090002673,133.67631900002016,133.67631900002016,134.69480870000552,g,0.0,1.0093013999867253,,134.70127369998954,134.71208720002323,135.69775130000198,,,,,,,,,,,,,,,,,,,,,sub-233,1,stroop_test,120.30205440136176,
,,,,21.0,9.0,1.0,,,,,gelb,yellow,g,1.0,g,1.0,0.5323426999966614,,,,,,,,,,,,,,1.0,9.0,21.0,10.0,,,,,135.70579320000252,,,,,,,,,,,,,,,,,135.69820030004485,136.4892600000021,137.28461820003577,137.27391109999735,,,,,,,,,,,,,,,,137.27505060000112,137.28461820003577,137.28461820003577,137.8263556000311,g,1.0,0.5323426999966614,,137.8397482000291,137.85153360001277,138.83070109999971,,,,,,,,,,,,,,,,,,,,,sub-233,1,stroop_test,120.30205440136176,
,,,,22.0,10.0,1.0,,,,,blau,blue,b,1.0,b,1.0,0.360614400007762,,,,,,,,,,,,,,1.0,10.0,22.0,6.0,,,,,138.83875540003646,,,,,,,,,,,,,,,,,138.83141740004066,139.17197160003707,139.97183280001627,139.95627040002728,,,,,,,,,,,,,,,,139.9636565000401,139.97183280001627,139.97183280001627,140.34523580002133,b,1.0,0.360614400007762,,140.34675369999604,140.35748250002507,141.34838849998778,,,,,,,,,,,,,,,,,,,,,sub-233,1,stroop_test,120.30205440136176,
,,,,23.0,11.0,1.0,,,,,rot,yellow,g,0.0,g,1.0,1.0614493999746628,,,,,,,,,,,,,,1.0,11.0,23.0,3.0,,,,,141.35459699999774,,,,,,,,,,,,,,,,,141.34908370004268,141.43798859999515,142.24458110000705,142.22265190002508,,,,,,,,,,,,,,,,142.2334066000185,142.24458110000705,142.24458110000705,143.32047169998987,g,1.0,1.0614493999746628,,143.32244860002538,143.33565000002272,144.3216403000406,,,,,,,,,,,,,,,,,,,,,sub-233,1,stroop_test,120.30205440136176,
,,,,,,,,,,,,,,,,,,,,,,,,,,,,,,,,,,,,,,,,,,,,,,,,,,,,,,,,,,,,,,,,,,,,,,,,,,,,,,,,,,,,,,,144.32192550000036,144.33092189999297,144.33092189999297,147.9067459999933,space,3.5676704000215977,,,,,,,,,,,,,,sub-233,1,stroop_test,120.30205440136176,
,,,,0.0,0.0,0.0,,,,,,,,,,,,,rot,red,r,1.0,r,1.0,0.4519357000244781,,,,,,,,,,0.0,0.0,0.0,1.0,148.00393300002906,,,,,,,,,,,,,,,,,147.99464910000097,148.25273000000743,149.05776340002194,149.03727900004014,,,,,,,,,,,,,,,,,,,,,,,,,,,,,,,,,,,149.04680449998705,149.05776340002194,149.05776340002194,149.5150178000331,r,1.0,0.4519357000244781,,,,,,sub-233,1,stroop_test,120.30205440136176,
,,,,1.0,1.0,0.0,,,,,,,,,,,,,rot,yellow,g,0.0,g,1.0,0.56592239998281,,,,,,,,,,0.0,1.0,1.0,3.0,149.5221338000265,,,,,,,,,,,,,,,,,149.51584850001382,149.8602741000359,150.65751839999575,150.64579650002997,,,,,,,,,,,,,,,,,,,,,,,,,,,,,,,,,,,150.64734790002694,150.65751839999575,150.65751839999575,151.22937549999915,g,1.0,0.56592239998281,,,,,,sub-233,1,stroop_test,120.30205440136176,
,,,,2.0,2.0,0.0,,,,,,,,,,,,,blau,blue,b,1.0,b,1.0,0.4332867000484839,,,,,,,,,,0.0,2.0,2.0,6.0,151.23671399999876,,,,,,,,,,,,,,,,,151.23032020003302,152.02663490001578,152.82926950004185,152.81148690002738,,,,,,,,,,,,,,,,,,,,,,,,,,,,,,,,,,,152.81930780003313,152.82926950004185,152.82926950004185,153.27173239999684,b,1.0,0.4332867000484839,,,,,,sub-233,1,stroop_test,120.30205440136176,
,,,,3.0,3.0,0.0,,,,,,,,,,,,,rot,red,r,1.0,r,1.0,0.4928825999959372,,,,,,,,,,0.0,3.0,3.0,0.0,153.27855109999655,,,,,,,,,,,,,,,,,153.27262140001403,154.46762890001992,155.27286900003674,155.25265979999676,,,,,,,,,,,,,,,,,,,,,,,,,,,,,,,,,,,155.26178980001714,155.27286900003674,155.27286900003674,155.77056570001878,r,1.0,0.4928825999959372,,,,,,sub-233,1,stroop_test,120.30205440136176,
,,,,4.0,4.0,0.0,,,,,,,,,,,,,gelb,yellow,g,1.0,g,1.0,0.3428650999558158,,,,,,,,,,0.0,4.0,4.0,10.0,155.7775866999873,,,,,,,,,,,,,,,,,155.7713928000303,156.56709530000808,157.38315010000952,157.3523208000115,,,,,,,,,,,,,,,,,,,,,,,,,,,,,,,,,,,157.36458530003438,157.38315010000952,157.38315010000952,157.7386475999956,g,1.0,0.3428650999558158,,,,,,sub-233,1,stroop_test,120.30205440136176,
,,,,5.0,5.0,0.0,,,,,,,,,,,,,gelb,yellow,g,1.0,g,1.0,0.3775867999647744,,,,,,,,,,0.0,5.0,5.0,11.0,157.7443481000373,,,,,,,,,,,,,,,,,157.73993730003713,158.93287280004006,159.7283630000311,159.7183442999958,,,,,,,,,,,,,,,,,,,,,,,,,,,,,,,,,,,159.7199585000053,159.7283630000311,159.7283630000311,160.11000250000507,g,1.0,0.3775867999647744,,,,,,sub-233,1,stroop_test,120.30205440136176,
,,,,6.0,6.0,0.0,,,,,,,,,,,,,blau,blue,b,1.0,b,1.0,0.3879028999945149,,,,,,,,,,0.0,6.0,6.0,5.0,160.1157591000083,,,,,,,,,,,,,,,,,160.11090170004172,160.9076109000016,161.7101180999889,161.69231780001428,,,,,,,,,,,,,,,,,,,,,,,,,,,,,,,,,,,161.6997882000287,161.7101180999889,161.7101180999889,162.10271140001714,b,1.0,0.3879028999945149,,,,,,sub-233,1,stroop_test,120.30205440136176,
,,,,7.0,7.0,0.0,,,,,,,,,,,,,gelb,red,r,0.0,r,1.0,0.5015828000032343,,,,,,,,,,0.0,7.0,7.0,8.0,162.11344169999938,,,,,,,,,,,,,,,,,162.1040631000069,163.29855740000494,164.09353040001588,164.08220920001622,,,,,,,,,,,,,,,,,,,,,,,,,,,,,,,,,,,164.08791740000015,164.09353040001588,164.09353040001588,164.60121160000563,r,1.0,0.5015828000032343,,,,,,sub-233,1,stroop_test,120.30205440136176,
,,,,8.0,8.0,0.0,,,,,,,,,,,,,rot,blue,b,0.0,b,1.0,0.4916900999960489,,,,,,,,,,0.0,8.0,8.0,2.0,164.60890029999427,,,,,,,,,,,,,,,,,164.60210860002553,164.94810070004314,165.75186110002687,165.7325858999975,,,,,,,,,,,,,,,,,,,,,,,,,,,,,,,,,,,165.74232950003352,165.75186110002687,165.75186110002687,166.26221350004198,b,1.0,0.4916900999960489,,,,,,sub-233,1,stroop_test,120.30205440136176,
,,,,9.0,9.0,0.0,,,,,,,,,,,,,blau,yellow,g,0.0,g,1.0,0.5229429000173695,,,,,,,,,,0.0,9.0,9.0,7.0,166.27317990001757,,,,,,,,,,,,,,,,,166.26316959998803,166.60599660000298,167.41042830003423,167.39063060004264,,,,,,,,,,,,,,,,,,,,,,,,,,,,,,,,,,,167.39979330002097,167.41042830003423,167.41042830003423,167.94078100001207,g,1.0,0.5229429000173695,,,,,,sub-233,1,stroop_test,120.30205440136176,
,,,,10.0,10.0,0.0,,,,,,,,,,,,,blau,red,r,0.0,r,1.0,0.4756100000231527,,,,,,,,,,0.0,10.0,10.0,4.0,167.9469810000155,,,,,,,,,,,,,,,,,167.9413535000058,169.1385870000231,169.93279240000993,169.92313650000142,,,,,,,,,,,,,,,,,,,,,,,,,,,,,,,,,,,169.92438169999514,169.93279240000993,169.93279240000993,170.4166110000224,r,1.0,0.4756100000231527,,,,,,sub-233,1,stroop_test,120.30205440136176,
,,,,11.0,11.0,0.0,,,,,,,,,,,,,gelb,blue,b,0.0,b,1.0,0.5091425999999046,,,,,,,,,,0.0,11.0,11.0,9.0,170.42419839999638,,,,,,,,,,,,,,,,,170.41734169999836,170.51286330004223,171.3190383000183,171.29763109999476,,,,,,,,,,,,,,,,,,,,,,,,,,,,,,,,,,,171.30834180000238,171.3190383000183,171.3190383000183,171.8313935000333,b,1.0,0.5091425999999046,,,,,,sub-233,1,stroop_test,120.30205440136176,
,,,,12.0,0.0,1.0,,,,,,,,,,,,,rot,red,r,1.0,r,1.0,0.6875825000461191,,,,,,,,,,1.0,0.0,12.0,0.0,171.8374917000183,,,,,,,,,,,,,,,,,171.83189680002397,171.9300526000443,172.7341005000053,172.71442450000905,,,,,,,,,,,,,,,,,,,,,,,,,,,,,,,,,,,172.72425430000294,172.7341005000053,172.7341005000053,173.43053350003902,r,1.0,0.6875825000461191,,,,,,sub-233,1,stroop_test,120.30205440136176,
,,,,13.0,1.0,1.0,,,,,,,,,,,,,blau,red,r,0.0,b,0.0,0.6449082999606617,,,,,,,,,,1.0,1.0,13.0,4.0,173.43705150001915,,,,,,,,,,,,,,,,,173.43119680002565,173.77927560004173,174.58009400003357,174.56308729999,,,,,,,,,,,,,,,,,,,,,,,,,,,,,,,,,,,174.57089680002537,174.58009400003357,174.58009400003357,175.2327462999965,b,0.0,0.6449082999606617,,,,,,sub-233,1,stroop_test,120.30205440136176,
,,,,14.0,2.0,1.0,,,,,,,,,,,,,gelb,yellow,g,1.0,g,1.0,0.4509344999678433,,,,,,,,,,1.0,2.0,14.0,10.0,175.242152300023,,,,,,,,,,,,,,,,,175.23380260000704,175.32855620002374,176.1350425000419,176.11318829999072,,,,,,,,,,,,,,,,,,,,,,,,,,,,,,,,,,,176.12456240004394,176.1350425000419,176.1350425000419,176.5913875999977,g,1.0,0.4509344999678433,,,,,,sub-233,1,stroop_test,120.30205440136176,
,,,,15.0,3.0,1.0,,,,,,,,,,,,,blau,yellow,g,0.0,b,0.0,0.5523501000134274,,,,,,,,,,1.0,3.0,15.0,7.0,176.6035521000158,,,,,,,,,,,,,,,,,176.59234299999662,176.9364379000035,177.73843930003932,177.72093579999637,,,,,,,,,,,,,,,,,,,,,,,,,,,,,,,,,,,177.7293112000334,177.73843930003932,177.73843930003932,178.29585110000335,b,0.0,0.5523501000134274,,,,,,sub-233,1,stroop_test,120.30205440136176,
,,,,16.0,4.0,1.0,,,,,,,,,,,,,rot,blue,b,0.0,b,1.0,0.5041297000134364,,,,,,,,,,1.0,4.0,16.0,2.0,178.3023846000433,,,,,,,,,,,,,,,,,178.2963865000056,178.64421360002598,179.43928749999031,179.42785999999614,,,,,,,,,,,,,,,,,,,,,,,,,,,,,,,,,,,179.43295620003482,179.43928749999031,179.43928749999031,179.94762640004046,b,1.0,0.5041297000134364,,,,,,sub-233,1,stroop_test,120.30205440136176,
,,,,17.0,5.0,1.0,,,,,,,,,,,,,blau,blue,b,1.0,b,1.0,0.5000809000339359,,,,,,,,,,1.0,5.0,17.0,5.0,179.95916920003947,,,,,,,,,,,,,,,,,179.948463800014,180.7433994000312,181.5449545000447,181.528134000022,,,,,,,,,,,,,,,,,,,,,,,,,,,,,,,,,,,181.53577389998827,181.5449545000447,181.5449545000447,182.0528412000276,b,1.0,0.5000809000339359,,,,,,sub-233,1,stroop_test,120.30205440136176,
,,,,18.0,6.0,1.0,,,,,,,,,,,,,gelb,yellow,g,1.0,g,1.0,0.4510130999842658,,,,,,,,,,1.0,6.0,18.0,11.0,182.05955220002213,,,,,,,,,,,,,,,,,182.0535552999936,183.25141540000917,184.05539630004205,184.03613980003863,,,,,,,,,,,,,,,,,,,,,,,,,,,,,,,,,,,184.04502700001467,184.05539630004205,184.05539630004205,184.5106919000391,g,1.0,0.4510130999842658,,,,,,sub-233,1,stroop_test,120.30205440136176,
,,,,19.0,7.0,1.0,,,,,,,,,,,,,gelb,blue,b,0.0,b,1.0,0.4664886000100523,,,,,,,,,,1.0,7.0,19.0,9.0,184.5173259000294,,,,,,,,,,,,,,,,,184.5113292000024,185.70900360000087,186.5064258000348,186.4936128000263,,,,,,,,,,,,,,,,,,,,,,,,,,,,,,,,,,,186.4954144000076,186.5064258000348,186.5064258000348,186.9837905000313,b,1.0,0.4664886000100523,,,,,,sub-233,1,stroop_test,120.30205440136176,
,,,,20.0,8.0,1.0,,,,,,,,,,,,,rot,yellow,g,0.0,g,1.0,1.5737907000002451,,,,,,,,,,1.0,8.0,20.0,3.0,186.9917241000221,,,,,,,,,,,,,,,,,186.98532159999013,187.0760213999893,187.88038420001976,187.86024240002732,,,,,,,,,,,,,,,,,,,,,,,,,,,,,,,,,,,187.86894250003388,187.88038420001976,187.88038420001976,189.46079790004296,g,1.0,1.5737907000002451,,,,,,sub-233,1,stroop_test,120.30205440136176,
,,,,21.0,9.0,1.0,,,,,,,,,,,,,blau,blue,b,1.0,b,1.0,0.4881039999891072,,,,,,,,,,1.0,9.0,21.0,6.0,189.467487899994,,,,,,,,,,,,,,,,,189.46165020001357,189.5579499999876,190.3605203999905,190.34279960003917,,,,,,,,,,,,,,,,,,,,,,,,,,,,,,,,,,,190.35212689999025,190.3605203999905,190.3605203999905,190.8540253000101,b,1.0,0.4881039999891072,,,,,,sub-233,1,stroop_test,120.30205440136176,
,,,,22.0,10.0,1.0,,,,,,,,,,,,,rot,red,r,1.0,r,1.0,0.3420732999802567,,,,,,,,,,1.0,10.0,22.0,1.0,190.86455800000115,,,,,,,,,,,,,,,,,190.85536099999445,191.6489666000125,192.45961970003555,192.43519039999228,,,,,,,,,,,,,,,,,,,,,,,,,,,,,,,,,,,192.4503439000109,192.45961970003555,192.45961970003555,192.8340860999888,r,1.0,0.3420732999802567,,,,,,sub-233,1,stroop_test,120.30205440136176,
,,,,23.0,11.0,1.0,,,,,,,,,,,,,gelb,red,r,0.0,r,1.0,1.3376577000017278,,,,,,,,,,1.0,11.0,23.0,8.0,192.8401876999997,,,,,,,,,,,,,,,,,192.8349181000376,194.03164340002692,194.84245080000252,194.81703100004236,,,,,,,,,,,,,,,,,,,,,,,,,,,,,,,,,,,194.82861120003508,194.84245080000252,194.84245080000252,196.1860147000407,r,1.0,1.3376577000017278,,,,,,sub-233,1,stroop_test,120.30205440136176,
,,,,24.0,0.0,2.0,,,,,,,,,,,,,rot,blue,b,0.0,b,1.0,0.5142049999558367,,,,,,,,,,2.0,0.0,24.0,2.0,196.20067430002385,,,,,,,,,,,,,,,,,196.1876658000401,197.3808954000124,198.18551460001615,198.16533160000108,,,,,,,,,,,,,,,,,,,,,,,,,,,,,,,,,,,198.1757664000033,198.18551460001615,198.18551460001615,198.71178850001888,b,1.0,0.5142049999558367,,,,,,sub-233,1,stroop_test,120.30205440136176,
,,,,25.0,1.0,2.0,,,,,,,,,,,,,rot,red,r,1.0,r,1.0,1.0300946999923326,,,,,,,,,,2.0,1.0,25.0,1.0,198.7189086000435,,,,,,,,,,,,,,,,,198.712905900029,199.9050869999919,200.69913510000333,200.69004700001096,,,,,,,,,,,,,,,,,,,,,,,,,,,,,,,,,,,200.6912233000039,200.69913510000333,200.69913510000333,201.73356419999615,r,1.0,1.0300946999923326,,,,,,sub-233,1,stroop_test,120.30205440136176,
,,,,26.0,2.0,2.0,,,,,,,,,,,,,blau,blue,b,1.0,b,1.0,0.3819009000435471,,,,,,,,,,2.0,2.0,26.0,6.0,201.7403382000048,,,,,,,,,,,,,,,,,201.73438370000804,202.92892440001012,203.73100710002475,203.71392820001347,,,,,,,,,,,,,,,,,,,,,,,,,,,,,,,,,,,203.7217859000084,203.73100710002475,203.73100710002475,204.12225399998715,b,1.0,0.3819009000435471,,,,,,sub-233,1,stroop_test,120.30205440136176,
,,,,27.0,3.0,2.0,,,,,,,,,,,,,gelb,yellow,g,1.0,g,1.0,0.4042113000177778,,,,,,,,,,2.0,3.0,27.0,11.0,204.12858950003283,,,,,,,,,,,,,,,,,204.12278570001945,204.22057390003465,205.0266671000281,205.0052853000234,,,,,,,,,,,,,,,,,,,,,,,,,,,,,,,,,,,205.0152447000146,205.0266671000281,205.0266671000281,205.43873059999896,g,1.0,0.4042113000177778,,,,,,sub-233,1,stroop_test,120.30205440136176,
,,,,28.0,4.0,2.0,,,,,,,,,,,,,blau,yellow,g,0.0,g,1.0,0.400288000004366,,,,,,,,,,2.0,4.0,28.0,7.0,205.4449791000225,,,,,,,,,,,,,,,,,205.43931849999356,205.78679280000503,206.5847492000321,206.57052910001948,,,,,,,,,,,,,,,,,,,,,,,,,,,,,,,,,,,206.57742270000745,206.5847492000321,206.5847492000321,206.98925240000244,g,1.0,0.400288000004366,,,,,,sub-233,1,stroop_test,120.30205440136176,
,,,,29.0,5.0,2.0,,,,,,,,,,,,,rot,yellow,g,0.0,g,1.0,0.3752073000068776,,,,,,,,,,2.0,5.0,29.0,3.0,206.9960169999977,,,,,,,,,,,,,,,,,206.99016460002167,207.33645120001165,208.14031730004356,208.1208980000229,,,,,,,,,,,,,,,,,,,,,,,,,,,,,,,,,,,208.13077720004367,208.14031730004356,208.14031730004356,208.5221903999918,g,1.0,0.3752073000068776,,,,,,sub-233,1,stroop_test,120.30205440136176,
,,,,30.0,6.0,2.0,,,,,,,,,,,,,gelb,red,r,0.0,r,1.0,0.2791663000243716,,,,,,,,,,2.0,6.0,30.0,8.0,208.52874750003684,,,,,,,,,,,,,,,,,208.52302290004445,209.3192790999892,210.12535819999172,210.10386510001263,,,,,,,,,,,,,,,,,,,,,,,,,,,,,,,,,,,210.112832600018,210.12535819999172,210.12535819999172,210.42170390003596,r,1.0,0.2791663000243716,,,,,,sub-233,1,stroop_test,120.30205440136176,
,,,,31.0,7.0,2.0,,,,,,,,,,,,,blau,red,r,0.0,r,1.0,0.4366247000289149,,,,,,,,,,2.0,7.0,31.0,4.0,210.4283936000429,,,,,,,,,,,,,,,,,210.4232103000395,210.7687463000184,211.57413640001323,211.55334540002517,,,,,,,,,,,,,,,,,,,,,,,,,,,,,,,,,,,211.56301939999685,211.57413640001323,211.57413640001323,212.01980050001293,r,1.0,0.4366247000289149,,,,,,sub-233,1,stroop_test,120.30205440136176,
,,,,32.0,8.0,2.0,,,,,,,,,,,,,gelb,blue,b,0.0,b,1.0,0.272398000000976,,,,,,,,,,2.0,8.0,32.0,9.0,212.02658629999496,,,,,,,,,,,,,,,,,212.02029160002712,212.81825750001008,213.6255076000234,213.6027624999988,,,,,,,,,,,,,,,,,,,,,,,,,,,,,,,,,,,213.6144613000215,213.6255076000234,213.6255076000234,213.9043711000122,b,1.0,0.272398000000976,,,,,,sub-233,1,stroop_test,120.30205440136176,
,,,,33.0,9.0,2.0,,,,,,,,,,,,,rot,red,r,1.0,r,1.0,0.4598930000211112,,,,,,,,,,2.0,9.0,33.0,0.0,213.914854200033,,,,,,,,,,,,,,,,,213.9051931000431,215.1009136000066,215.8966658000136,215.88450049998937,,,,,,,,,,,,,,,,,,,,,,,,,,,,,,,,,,,215.8893424000125,215.8966658000136,215.8966658000136,216.3620446000132,r,1.0,0.4598930000211112,,,,,,sub-233,1,stroop_test,120.30205440136176,
,,,,34.0,10.0,2.0,,,,,,,,,,,,,blau,blue,b,1.0,b,1.0,0.4659971999935806,,,,,,,,,,2.0,10.0,34.0,5.0,216.375666500011,,,,,,,,,,,,,,,,,216.36298209999225,216.4588951999904,217.2558040000149,217.24238780001176,,,,,,,,,,,,,,,,,,,,,,,,,,,,,,,,,,,217.24883759999648,217.2558040000149,217.2558040000149,217.72814140003172,b,1.0,0.4659971999935806,,,,,,sub-233,1,stroop_test,120.30205440136176,
,,,,35.0,11.0,2.0,,,,,,,,,,,,,gelb,yellow,g,1.0,g,1.0,0.517164499964565,,,,,,,,,,2.0,11.0,35.0,10.0,217.7364338000189,,,,,,,,,,,,,,,,,217.72902150003935,218.07541130000027,218.8778856000281,218.8596336999908,,,,,,,,,,,,,,,,,,,,,,,,,,,,,,,,,,,218.86871130001964,218.8778856000281,218.8778856000281,219.40649540000595,g,1.0,0.517164499964565,,,,,,sub-233,1,stroop_test,120.30205440136176,
,,,,36.0,0.0,3.0,,,,,,,,,,,,,rot,blue,b,0.0,b,1.0,0.3994177000131458,,,,,,,,,,3.0,0.0,36.0,2.0,219.41408720001343,,,,,,,,,,,,,,,,,219.40810599998804,220.5993344000308,221.4058268000372,221.38419920002343,,,,,,,,,,,,,,,,,,,,,,,,,,,,,,,,,,,221.39336420001928,221.4058268000372,221.4058268000372,221.8107040000032,b,1.0,0.3994177000131458,,,,,,sub-233,1,stroop_test,120.30205440136176,
,,,,37.0,1.0,3.0,,,,,,,,,,,,,blau,red,r,0.0,r,1.0,0.415281799971126,,,,,,,,,,3.0,1.0,37.0,4.0,221.8191221000161,,,,,,,,,,,,,,,,,221.81154080003037,222.60737979999976,223.40308120002737,223.39117990003436,,,,,,,,,,,,,,,,,,,,,,,,,,,,,,,,,,,223.3966178999981,223.40308120002737,223.40308120002737,223.82718210003804,r,1.0,0.415281799971126,,,,,,sub-233,1,stroop_test,120.30205440136176,
,,,,38.0,2.0,3.0,,,,,,,,,,,,,blau,yellow,g,0.0,g,1.0,1.327659600006882,,,,,,,,,,3.0,2.0,38.0,7.0,223.83421480003744,,,,,,,,,,,,,,,,,223.8279903000221,223.92351990001043,224.71911400003592,224.7088087000302,,,,,,,,,,,,,,,,,,,,,,,,,,,,,,,,,,,224.7100129000028,224.71911400003592,224.71911400003592,226.04937680001603,g,1.0,1.327659600006882,,,,,,sub-233,1,stroop_test,120.30205440136176,
,,,,39.0,3.0,3.0,,,,,,,,,,,,,gelb,yellow,g,1.0,g,1.0,0.3872168000089004,,,,,,,,,,3.0,3.0,39.0,11.0,226.0558617000352,,,,,,,,,,,,,,,,,226.04996949998892,226.84755340003176,227.65404140000464,227.6322846999974,,,,,,,,,,,,,,,,,,,,,,,,,,,,,,,,,,,227.6434601999936,227.65404140000464,227.65404140000464,228.05316710000625,g,1.0,0.3872168000089004,,,,,,sub-233,1,stroop_test,120.30205440136176,
,,,,40.0,4.0,3.0,,,,,,,,,,,,,blau,blue,b,1.0,b,1.0,0.3451334999990649,,,,,,,,,,3.0,4.0,40.0,6.0,228.0589534000028,,,,,,,,,,,,,,,,,228.05409430002328,229.2469234000309,230.0494990000152,230.0313695000368,,,,,,,,,,,,,,,,,,,,,,,,,,,,,,,,,,,230.04045020003105,230.0494990000152,230.0494990000152,230.3998128999956,b,1.0,0.3451334999990649,,,,,,sub-233,1,stroop_test,120.30205440136176,
,,,,41.0,5.0,3.0,,,,,,,,,,,,,rot,red,r,1.0,r,1.0,0.427661599998828,,,,,,,,,,3.0,5.0,41.0,1.0,230.40843840001617,,,,,,,,,,,,,,,,,230.4006825000397,231.19632550003007,232.002873999998,231.9811581000104,,,,,,,,,,,,,,,,,,,,,,,,,,,,,,,,,,,231.9929418000393,232.002873999998,232.002873999998,232.4393069000216,r,1.0,0.427661599998828,,,,,,sub-233,1,stroop_test,120.30205440136176,
,,,,42.0,6.0,3.0,,,,,,,,,,,,,blau,blue,b,1.0,b,1.0,0.4708162000169977,,,,,,,,,,3.0,6.0,42.0,5.0,232.44574570003897,,,,,,,,,,,,,,,,,232.4398865000112,232.5377012999961,233.3442118000239,233.3221594000352,,,,,,,,,,,,,,,,,,,,,,,,,,,,,,,,,,,233.3325303000165,233.3442118000239,233.3442118000239,233.82187660003547,b,1.0,0.4708162000169977,,,,,,sub-233,1,stroop_test,120.30205440136176,
,,,,43.0,7.0,3.0,,,,,,,,,,,,,gelb,red,r,0.0,r,1.0,0.7187181999906898,,,,,,,,,,3.0,7.0,43.0,8.0,233.8286642000312,,,,,,,,,,,,,,,,,233.8223888000357,233.92417000001296,234.7430615000194,234.7140087999869,,,,,,,,,,,,,,,,,,,,,,,,,,,,,,,,,,,234.72931970003992,234.7430615000194,234.7430615000194,235.4655876000179,r,1.0,0.7187181999906898,,,,,,sub-233,1,stroop_test,120.30205440136176,
,,,,44.0,8.0,3.0,,,,,,,,,,,,,rot,red,r,1.0,r,1.0,0.3538076999830082,,,,,,,,,,3.0,8.0,44.0,0.0,235.47675199998773,,,,,,,,,,,,,,,,,235.4664930000436,236.26139890000923,237.06809800001795,237.0464300999884,,,,,,,,,,,,,,,,,,,,,,,,,,,,,,,,,,,237.0562321000034,237.06809800001795,237.06809800001795,237.4297532000346,r,1.0,0.3538076999830082,,,,,,sub-233,1,stroop_test,120.30205440136176,
,,,,45.0,9.0,3.0,,,,,,,,,,,,,rot,yellow,g,0.0,g,1.0,0.5055906999623403,,,,,,,,,,3.0,9.0,45.0,3.0,237.43730059999507,,,,,,,,,,,,,,,,,237.4304308000137,237.52770219999368,238.3230675000232,238.3125078000012,,,,,,,,,,,,,,,,,,,,,,,,,,,,,,,,,,,238.313649800024,238.3230675000232,238.3230675000232,238.83355470001695,g,1.0,0.5055906999623403,,,,,,sub-233,1,stroop_test,120.30205440136176,
,,,,46.0,10.0,3.0,,,,,,,,,,,,,gelb,blue,b,0.0,b,1.0,0.5317460999940522,,,,,,,,,,3.0,10.0,46.0,9.0,238.8403319999925,,,,,,,,,,,,,,,,,238.83441400004085,239.1775303999893,239.97309500002305,239.96115340001413,,,,,,,,,,,,,,,,,,,,,,,,,,,,,,,,,,,239.9659692000132,239.97309500002305,239.97309500002305,240.51486310001928,b,1.0,0.5317460999940522,,,,,,sub-233,1,stroop_test,120.30205440136176,
,,,,47.0,11.0,3.0,,,,,,,,,,,,,gelb,yellow,g,1.0,g,1.0,0.8141347999917343,,,,,,,,,,3.0,11.0,47.0,10.0,240.52061880001563,,,,,,,,,,,,,,,,,240.51567500003148,240.61236369999824,241.4130546000088,241.40323729999363,,,,,,,,,,,,,,,,,,,,,,,,,,,,,,,,,,,241.40450699999928,241.4130546000088,241.4130546000088,242.23188100004336,g,1.0,0.8141347999917343,,,,,,sub-233,1,stroop_test,120.30205440136176,
,,,,48.0,0.0,4.0,,,,,,,,,,,,,rot,blue,b,0.0,b,1.0,0.4501573999878019,,,,,,,,,,4.0,0.0,48.0,2.0,242.24157990003005,,,,,,,,,,,,,,,,,242.2328828999889,243.02639850002012,243.84012310003163,243.81156380003085,,,,,,,,,,,,,,,,,,,,,,,,,,,,,,,,,,,243.8250960000441,243.84012310003163,243.84012310003163,244.2952229999937,b,1.0,0.4501573999878019,,,,,,sub-233,1,stroop_test,120.30205440136176,
,,,,49.0,1.0,4.0,,,,,,,,,,,,,blau,blue,b,1.0,b,1.0,0.430364100029692,,,,,,,,,,4.0,1.0,49.0,6.0,244.30252600001404,,,,,,,,,,,,,,,,,244.29608500003812,244.39505950000603,245.19888460001675,245.18500729999505,,,,,,,,,,,,,,,,,,,,,,,,,,,,,,,,,,,245.19128400000045,245.19888460001675,245.19888460001675,245.63721070002063,b,1.0,0.430364100029692,,,,,,sub-233,1,stroop_test,120.30205440136176,
,,,,50.0,2.0,4.0,,,,,,,,,,,,,gelb,yellow,g,1.0,g,1.0,0.4484617999987677,,,,,,,,,,4.0,2.0,50.0,11.0,245.64615250000497,,,,,,,,,,,,,,,,,245.63805589999535,245.98391340003585,246.78824250004251,246.7686464000144,,,,,,,,,,,,,,,,,,,,,,,,,,,,,,,,,,,246.77697340003212,246.78824250004251,246.78824250004251,247.2466314000194,g,1.0,0.4484617999987677,,,,,,sub-233,1,stroop_test,120.30205440136176,
,,,,51.0,3.0,4.0,,,,,,,,,,,,,gelb,red,r,0.0,r,1.0,0.4078574000159278,,,,,,,,,,4.0,3.0,51.0,8.0,247.25411730003543,,,,,,,,,,,,,,,,,247.2475846000016,248.4416024000384,249.2363817000296,249.2261129000108,,,,,,,,,,,,,,,,,,,,,,,,,,,,,,,,,,,249.2274851000402,249.2363817000296,249.2363817000296,249.65276880003512,r,1.0,0.4078574000159278,,,,,,sub-233,1,stroop_test,120.30205440136176,
,,,,52.0,4.0,4.0,,,,,,,,,,,,,rot,red,r,1.0,r,1.0,0.3595832000137307,,,,,,,,,,4.0,4.0,52.0,1.0,249.65994219999996,,,,,,,,,,,,,,,,,249.65356500004415,250.84927890001563,251.6460813000449,251.6328822000069,,,,,,,,,,,,,,,,,,,,,,,,,,,,,,,,,,,251.6389191999915,251.6460813000449,251.6460813000449,252.0104461000301,r,1.0,0.3595832000137307,,,,,,sub-233,1,stroop_test,120.30205440136176,
,,,,53.0,5.0,4.0,,,,,,,,,,,,,blau,yellow,g,0.0,g,1.0,1.090476299985312,,,,,,,,,,4.0,5.0,53.0,7.0,252.01890389999608,,,,,,,,,,,,,,,,,252.0112747999956,253.20694140001436,254.0054119999986,253.99080660002076,,,,,,,,,,,,,,,,,,,,,,,,,,,,,,,,,,,253.99839750002135,254.0054119999986,254.0054119999986,255.10322009999072,g,1.0,1.090476299985312,,,,,,sub-233,1,stroop_test,120.30205440136176,
,,,,54.0,6.0,4.0,,,,,,,,,,,,,blau,red,r,0.0,r,1.0,0.8198378999950364,,,,,,,,,,4.0,6.0,54.0,4.0,255.1128493000288,,,,,,,,,,,,,,,,,255.10416099999568,255.89780199999225,256.68914000003133,256.6823002999881,,,,,,,,,,,,,,,,,,,,,,,,,,,,,,,,,,,256.6830528000137,256.68914000003133,256.68914000003133,257.5217622999917,r,1.0,0.8198378999950364,,,,,,sub-233,1,stroop_test,120.30205440136176,
,,,,55.0,7.0,4.0,,,,,,,,,,,,,gelb,blue,b,0.0,b,1.0,0.5050433999858797,,,,,,,,,,4.0,7.0,55.0,9.0,257.52765410003485,,,,,,,,,,,,,,,,,257.5226951999939,257.86412250000285,258.6671287000063,258.64853830001084,,,,,,,,,,,,,,,,,,,,,,,,,,,,,,,,,,,258.6580490000197,258.6671287000063,258.6671287000063,259.1754504000419,b,1.0,0.5050433999858797,,,,,,sub-233,1,stroop_test,120.30205440136176,
,,,,56.0,8.0,4.0,,,,,,,,,,,,,rot,yellow,g,0.0,g,1.0,0.3814172000274993,,,,,,,,,,4.0,8.0,56.0,3.0,259.1819376000203,,,,,,,,,,,,,,,,,259.1764234000002,259.97166780004045,260.77503110002726,260.75638580002123,,,,,,,,,,,,,,,,,,,,,,,,,,,,,,,,,,,260.76498480001464,260.77503110002726,260.77503110002726,261.1675137000275,g,1.0,0.3814172000274993,,,,,,sub-233,1,stroop_test,120.30205440136176,
,,,,57.0,9.0,4.0,,,,,,,,,,,,,blau,blue,b,1.0,b,1.0,0.3509183999849483,,,,,,,,,,4.0,9.0,57.0,5.0,261.1768167000264,,,,,,,,,,,,,,,,,261.16831760003697,262.36281590000726,263.1651427000179,263.14739190001274,,,,,,,,,,,,,,,,,,,,,,,,,,,,,,,,,,,263.1561734999996,263.1651427000179,263.1651427000179,263.5241501000128,b,1.0,0.3509183999849483,,,,,,sub-233,1,stroop_test,120.30205440136176,
,,,,58.0,10.0,4.0,,,,,,,,,,,,,rot,red,r,1.0,r,1.0,0.2814907999709248,,,,,,,,,,4.0,10.0,58.0,0.0,263.53377500001807,,,,,,,,,,,,,,,,,263.52496200002497,264.3202369000064,265.1292465000297,265.10516800003825,,,,,,,,,,,,,,,,,,,,,,,,,,,,,,,,,,,265.1183585000108,265.1292465000297,265.1292465000297,265.41648900002474,r,1.0,0.2814907999709248,,,,,,sub-233,1,stroop_test,120.30205440136176,
,,,,59.0,11.0,4.0,,,,,,,,,,,,,gelb,yellow,g,1.0,g,1.0,0.4127412000088952,,,,,,,,,,4.0,11.0,59.0,10.0,265.4270736000035,,,,,,,,,,,,,,,,,265.41754659998696,265.5122196000302,266.31825880002,266.29677970003104,,,,,,,,,,,,,,,,,,,,,,,,,,,,,,,,,,,266.3070468000369,266.31825880002,266.31825880002,266.7432398000383,g,1.0,0.4127412000088952,,,,,,sub-233,1,stroop_test,120.30205440136176,
,,,,60.0,0.0,5.0,,,,,,,,,,,,,gelb,yellow,g,1.0,g,1.0,0.3578306999988854,,,,,,,,,,5.0,0.0,60.0,11.0,266.7511525999871,,,,,,,,,,,,,,,,,266.74475010001333,267.0861942000338,267.8812742999871,267.8710946000065,,,,,,,,,,,,,,,,,,,,,,,,,,,,,,,,,,,267.87221599998884,267.8812742999871,267.8812742999871,268.2466122999904,g,1.0,0.3578306999988854,,,,,,sub-233,1,stroop_test,120.30205440136176,
,,,,61.0,1.0,5.0,,,,,,,,,,,,,gelb,red,r,0.0,r,1.0,0.3525036000064574,,,,,,,,,,5.0,1.0,61.0,8.0,268.2525145999971,,,,,,,,,,,,,,,,,268.24715469998773,269.0441968000377,269.83785559999524,269.82879370002775,,,,,,,,,,,,,,,,,,,,,,,,,,,,,,,,,,,269.830172499991,269.83785559999524,269.83785559999524,270.1972064000438,r,1.0,0.3525036000064574,,,,,,sub-233,1,stroop_test,120.30205440136176,
,,,,62.0,2.0,5.0,,,,,,,,,,,,,blau,red,r,0.0,g,0.0,0.5691484999842942,,,,,,,,,,5.0,2.0,62.0,4.0,270.2113256000448,,,,,,,,,,,,,,,,,270.19802479998907,271.3935810000403,272.2003201000043,272.178264999995,,,,,,,,,,,,,,,,,,,,,,,,,,,,,,,,,,,272.18874539999524,272.2003201000043,272.2003201000043,272.78144130000146,g,0.0,0.5691484999842942,,,,,,sub-233,1,stroop_test,120.30205440136176,
,,,,63.0,3.0,5.0,,,,,,,,,,,,,gelb,yellow,g,1.0,g,1.0,0.6174231999902986,,,,,,,,,,5.0,3.0,63.0,10.0,272.78899020003155,,,,,,,,,,,,,,,,,272.783172800031,273.5762642000336,274.3840872000437,274.3607282000012,,,,,,,,,,,,,,,,,,,,,,,,,,,,,,,,,,,274.3706168000353,274.3840872000437,274.3840872000437,275.00635830004467,g,1.0,0.6174231999902986,,,,,,sub-233,1,stroop_test,120.30205440136176,
,,,,64.0,4.0,5.0,,,,,,,,,,,,,blau,yellow,g,0.0,b,0.0,0.5046952999546193,,,,,,,,,,5.0,4.0,64.0,7.0,275.01342910004314,,,,,,,,,,,,,,,,,275.0075176000246,276.2006501000142,277.00553770002443,276.98573499999475,,,,,,,,,,,,,,,,,,,,,,,,,,,,,,,,,,,276.9956267999951,277.00553770002443,277.00553770002443,277.52216729999054,b,0.0,0.5046952999546193,,,,,,sub-233,1,stroop_test,120.30205440136176,
,,,,65.0,5.0,5.0,,,,,,,,,,,,,rot,yellow,g,0.0,g,1.0,1.1861235999967903,,,,,,,,,,5.0,5.0,65.0,3.0,277.52792830002727,,,,,,,,,,,,,,,,,277.52298020001035,278.7162716999883,279.52857930003665,279.5015870000352,,,,,,,,,,,,,,,,,,,,,,,,,,,,,,,,,,,279.513198700035,279.52857930003665,279.52857930003665,280.72013460000744,g,1.0,1.1861235999967903,,,,,,sub-233,1,stroop_test,120.30205440136176,
,,,,66.0,6.0,5.0,,,,,,,,,,,,,rot,red,r,1.0,r,1.0,0.6133933999808505,,,,,,,,,,5.0,6.0,66.0,1.0,280.72747390001314,,,,,,,,,,,,,,,,,280.72098350001033,280.81609820004087,281.61017100000754,281.60055830003694,,,,,,,,,,,,,,,,,,,,,,,,,,,,,,,,,,,281.6016699000029,281.61017100000754,281.61017100000754,282.22793719999027,r,1.0,0.6133933999808505,,,,,,sub-233,1,stroop_test,120.30205440136176,
,,,,67.0,7.0,5.0,,,,,,,,,,,,,blau,blue,b,1.0,b,1.0,0.4354335000389255,,,,,,,,,,5.0,7.0,67.0,6.0,282.2371192999999,,,,,,,,,,,,,,,,,282.2287386000389,283.4235986000276,284.22745710000163,284.2086291000014,,,,,,,,,,,,,,,,,,,,,,,,,,,,,,,,,,,284.21741430001566,284.22745710000163,284.22745710000163,284.6682296000072,b,1.0,0.4354335000389255,,,,,,sub-233,1,stroop_test,120.30205440136176,
,,,,68.0,8.0,5.0,,,,,,,,,,,,,rot,blue,b,0.0,b,1.0,0.3496797999832779,,,,,,,,,,5.0,8.0,68.0,2.0,284.6773897000239,,,,,,,,,,,,,,,,,284.66908810002496,285.4647338000359,286.27038160001393,286.25008580001304,,,,,,,,,,,,,,,,,,,,,,,,,,,,,,,,,,,286.2597742000362,286.27038160001393,286.27038160001393,286.6252650000388,b,1.0,0.3496797999832779,,,,,,sub-233,1,stroop_test,120.30205440136176,
,,,,69.0,9.0,5.0,,,,,,,,,,,,,gelb,blue,b,0.0,b,1.0,0.5601197999785654,,,,,,,,,,5.0,9.0,69.0,9.0,286.6308056000271,,,,,,,,,,,,,,,,,286.62595200003125,286.72242950001964,287.52884159999667,287.5071915000444,,,,,,,,,,,,,,,,,,,,,,,,,,,,,,,,,,,287.51852859999053,287.52884159999667,287.52884159999667,288.0932015000144,b,1.0,0.5601197999785654,,,,,,sub-233,1,stroop_test,120.30205440136176,
,,,,70.0,10.0,5.0,,,,,,,,,,,,,rot,red,r,1.0,r,1.0,0.5264878000016324,,,,,,,,,,5.0,10.0,70.0,0.0,288.10376000002725,,,,,,,,,,,,,,,,,288.0940416000085,288.18892730004154,288.995686600043,288.9739014999941,,,,,,,,,,,,,,,,,,,,,,,,,,,,,,,,,,,288.98474230000284,288.995686600043,288.995686600043,289.5260272999876,r,1.0,0.5264878000016324,,,,,,sub-233,1,stroop_test,120.30205440136176,
,,,,71.0,11.0,5.0,,,,,,,,,,,,,blau,blue,b,1.0,b,1.0,0.4505938999936916,,,,,,,,,,5.0,11.0,71.0,5.0,289.53622800001176,,,,,,,,,,,,,,,,,289.5268221000442,289.8718513000058,290.66752280003857,290.6557596999919,,,,,,,,,,,,,,,,,,,,,,,,,,,,,,,,,,,290.6608858000254,290.66752280003857,290.66752280003857,291.124464099994,b,1.0,0.4505938999936916,,,,,,sub-233,1,stroop_test,120.30205440136176,
,,,,72.0,0.0,6.0,,,,,,,,,,,,,rot,red,r,1.0,r,1.0,0.757300800003577,,,,,,,,,,6.0,0.0,72.0,0.0,291.1311782000121,,,,,,,,,,,,,,,,,291.12528550002025,291.22427549998974,292.04131430003326,292.0144244999974,,,,,,,,,,,,,,,,,,,,,,,,,,,,,,,,,,,292.0236649000435,292.04131430003326,292.04131430003326,292.8081550000352,r,1.0,0.757300800003577,,,,,,sub-233,1,stroop_test,120.30205440136176,
,,,,73.0,1.0,6.0,,,,,,,,,,,,,gelb,yellow,g,1.0,g,1.0,0.5142112000030465,,,,,,,,,,6.0,1.0,73.0,11.0,292.81517980003264,,,,,,,,,,,,,,,,,292.80894680001074,293.60415740002645,294.4169877000386,294.38887230004184,,,,,,,,,,,,,,,,,,,,,,,,,,,,,,,,,,,294.404434200027,294.4169877000386,294.4169877000386,294.9426279999898,g,1.0,0.5142112000030465,,,,,,sub-233,1,stroop_test,120.30205440136176,
,,,,74.0,2.0,6.0,,,,,,,,,,,,,rot,red,r,1.0,r,1.0,0.4869354999973438,,,,,,,,,,6.0,2.0,74.0,1.0,294.9484271000256,,,,,,,,,,,,,,,,,294.9435310999979,295.2869207999902,296.09298610000405,296.0720511000254,,,,,,,,,,,,,,,,,,,,,,,,,,,,,,,,,,,296.0822468000115,296.09298610000405,296.09298610000405,296.5856979000382,r,1.0,0.4869354999973438,,,,,,sub-233,1,stroop_test,120.30205440136176,
,,,,75.0,3.0,6.0,,,,,,,,,,,,,rot,yellow,g,0.0,g,1.0,0.8093152000219561,,,,,,,,,,6.0,3.0,75.0,3.0,296.59270259999903,,,,,,,,,,,,,,,,,296.5866401999956,296.6784026999958,297.46964349999325,297.4622340000351,,,,,,,,,,,,,,,,,,,,,,,,,,,,,,,,,,,297.4631531999912,297.46964349999325,297.46964349999325,298.286163300043,g,1.0,0.8093152000219561,,,,,,sub-233,1,stroop_test,120.30205440136176,
,,,,76.0,4.0,6.0,,,,,,,,,,,,,blau,red,r,0.0,r,1.0,0.6182807000004686,,,,,,,,,,6.0,4.0,76.0,4.0,298.29419650003547,,,,,,,,,,,,,,,,,298.2871951000416,298.6277068000054,299.42895030003274,299.4123302000225,,,,,,,,,,,,,,,,,,,,,,,,,,,,,,,,,,,299.4193315000157,299.42895030003274,299.42895030003274,300.0600543000037,r,1.0,0.6182807000004686,,,,,,sub-233,1,stroop_test,120.30205440136176,
,,,,77.0,5.0,6.0,,,,,,,,,,,,,blau,yellow,g,0.0,g,1.0,1.1235104000079446,,,,,,,,,,6.0,5.0,77.0,7.0,300.06607110000914,,,,,,,,,,,,,,,,,300.06097340001725,300.8522980000125,301.6462877999875,301.6369270000141,,,,,,,,,,,,,,,,,,,,,,,,,,,,,,,,,,,301.63801170000806,301.6462877999875,301.6462877999875,302.78092620003736,g,1.0,1.1235104000079446,,,,,,sub-233,1,stroop_test,120.30205440136176,
,,,,78.0,6.0,6.0,,,,,,,,,,,,,gelb,blue,b,0.0,b,1.0,0.4861625999910757,,,,,,,,,,6.0,6.0,78.0,9.0,302.7872540000244,,,,,,,,,,,,,,,,,302.7818350000307,302.8765298000071,303.6791491000331,303.6612114000018,,,,,,,,,,,,,,,,,,,,,,,,,,,,,,,,,,,303.6703255000175,303.6791491000331,303.6791491000331,304.1707720000413,b,1.0,0.4861625999910757,,,,,,sub-233,1,stroop_test,120.30205440136176,
,,,,79.0,7.0,6.0,,,,,,,,,,,,,gelb,yellow,g,1.0,r,0.0,0.5466518999892287,,,,,,,,,,6.0,7.0,79.0,10.0,304.17728480004007,,,,,,,,,,,,,,,,,304.1715796000208,304.5178511000122,305.309027899988,305.30174880003324,,,,,,,,,,,,,,,,,,,,,,,,,,,,,,,,,,,305.3025862000068,305.309027899988,305.309027899988,305.8613519000355,r,0.0,0.5466518999892287,,,,,,sub-233,1,stroop_test,120.30205440136176,
,,,,80.0,8.0,6.0,,,,,,,,,,,,,blau,blue,b,1.0,b,1.0,0.6055479000206105,,,,,,,,,,6.0,8.0,80.0,6.0,305.8677104000235,,,,,,,,,,,,,,,,,305.8623748000245,306.6588296000264,307.4589515000116,307.44349790003616,,,,,,,,,,,,,,,,,,,,,,,,,,,,,,,,,,,307.450644400029,307.4589515000116,307.4589515000116,308.0694947000011,b,1.0,0.6055479000206105,,,,,,sub-233,1,stroop_test,120.30205440136176,
,,,,81.0,9.0,6.0,,,,,,,,,,,,,gelb,red,r,0.0,r,1.0,0.6087249000556767,,,,,,,,,,6.0,9.0,81.0,8.0,308.0759637000156,,,,,,,,,,,,,,,,,308.0703264999902,308.166866100044,308.9792885000352,308.9512772000162,,,,,,,,,,,,,,,,,,,,,,,,,,,,,,,,,,,308.96348580002086,308.9792885000352,308.9792885000352,309.5949721999932,r,1.0,0.6087249000556767,,,,,,sub-233,1,stroop_test,120.30205440136176,
,,,,82.0,10.0,6.0,,,,,,,,,,,,,blau,blue,b,1.0,b,1.0,0.5840714999940246,,,,,,,,,,6.0,10.0,82.0,5.0,309.6017024000176,,,,,,,,,,,,,,,,,309.59582180000143,309.94127080001635,310.74252170004183,310.72591169999214,,,,,,,,,,,,,,,,,,,,,,,,,,,,,,,,,,,310.73379920003936,310.74252170004183,310.74252170004183,311.3346007000073,b,1.0,0.5840714999940246,,,,,,sub-233,1,stroop_test,120.30205440136176,
,,,,83.0,11.0,6.0,,,,,,,,,,,,,rot,blue,b,0.0,b,1.0,0.4397099000052549,,,,,,,,,,6.0,11.0,83.0,2.0,311.34064589999616,,,,,,,,,,,,,,,,,311.33520000003045,311.68247200001497,312.4772327000392,312.4666750000324,,,,,,,,,,,,,,,,,,,,,,,,,,,,,,,,,,,312.4708623000188,312.4772327000392,312.4772327000392,312.9336628000019,b,1.0,0.4397099000052549,,,,,,sub-233,1,stroop_test,120.30205440136176,
,,,,84.0,0.0,7.0,,,,,,,,,,,,,rot,red,r,1.0,r,1.0,1.1916166000301018,,,,,,,,,,7.0,0.0,84.0,0.0,312.9430210000137,,,,,,,,,,,,,,,,,312.9345934999874,313.03211200004444,313.8252901000087,313.81661929999245,,,,,,,,,,,,,,,,,,,,,,,,,,,,,,,,,,,313.81771870004013,313.8252901000087,313.8252901000087,315.0247146000038,r,1.0,1.1916166000301018,,,,,,sub-233,1,stroop_test,120.30205440136176,
,,,,85.0,1.0,7.0,,,,,,,,,,,,,gelb,red,r,0.0,g,0.0,0.6665606999886222,,,,,,,,,,7.0,1.0,85.0,8.0,315.03122370003257,,,,,,,,,,,,,,,,,315.02526289998787,315.1229524000082,315.9275149999885,315.90764130000025,,,,,,,,,,,,,,,,,,,,,,,,,,,,,,,,,,,315.91642090003006,315.9275149999885,315.9275149999885,316.6008230000152,g,0.0,0.6665606999886222,,,,,,sub-233,1,stroop_test,120.30205440136176,
,,,,86.0,2.0,7.0,,,,,,,,,,,,,blau,red,r,0.0,r,1.0,1.4829416999709792,,,,,,,,,,7.0,2.0,86.0,4.0,316.60726680001244,,,,,,,,,,,,,,,,,316.6016564000165,317.79745469999034,318.61078859999543,318.58259820000967,,,,,,,,,,,,,,,,,,,,,,,,,,,,,,,,,,,318.5934934000252,318.61078859999543,318.61078859999543,320.0993538000039,r,1.0,1.4829416999709792,,,,,,sub-233,1,stroop_test,120.30205440136176,
,,,,87.0,3.0,7.0,,,,,,,,,,,,,rot,blue,b,0.0,b,1.0,0.4381847000331618,,,,,,,,,,7.0,3.0,87.0,2.0,320.1061686000321,,,,,,,,,,,,,,,,,320.10028920002514,320.44671730004484,321.2625595999998,321.23170950001804,,,,,,,,,,,,,,,,,,,,,,,,,,,,,,,,,,,321.25257260003127,321.2625595999998,321.2625595999998,321.7075835000141,b,1.0,0.4381847000331618,,,,,,sub-233,1,stroop_test,120.30205440136176,
,,,,88.0,4.0,7.0,,,,,,,,,,,,,gelb,yellow,g,1.0,g,1.0,0.9197357000084594,,,,,,,,,,7.0,4.0,88.0,10.0,321.7147182000336,,,,,,,,,,,,,,,,,321.708403000026,322.5044357000152,323.31034570001066,323.2890544999973,,,,,,,,,,,,,,,,,,,,,,,,,,,,,,,,,,,323.29983130004257,323.31034570001066,323.31034570001066,324.241121500032,g,1.0,0.9197357000084594,,,,,,sub-233,1,stroop_test,120.30205440136176,
,,,,89.0,5.0,7.0,,,,,,,,,,,,,blau,blue,b,1.0,b,1.0,0.4366957999882288,,,,,,,,,,7.0,5.0,89.0,6.0,324.2467693000217,,,,,,,,,,,,,,,,,324.24193850002484,324.5874109000433,325.3961574000423,325.3724047000287,,,,,,,,,,,,,,,,,,,,,,,,,,,,,,,,,,,325.3844500000123,325.3961574000423,325.3961574000423,325.83971740002744,b,1.0,0.4366957999882288,,,,,,sub-233,1,stroop_test,120.30205440136176,
,,,,90.0,6.0,7.0,,,,,,,,,,,,,gelb,blue,b,0.0,b,1.0,0.3964208999532275,,,,,,,,,,7.0,6.0,90.0,9.0,325.85033990000375,,,,,,,,,,,,,,,,,325.84056209999835,327.03653460001806,327.8463844000362,327.8214263000409,,,,,,,,,,,,,,,,,,,,,,,,,,,,,,,,,,,327.8352162000374,327.8463844000362,327.8463844000362,328.2474505000282,b,1.0,0.3964208999532275,,,,,,sub-233,1,stroop_test,120.30205440136176,
,,,,91.0,7.0,7.0,,,,,,,,,,,,,blau,blue,b,1.0,b,1.0,0.4697991000139154,,,,,,,,,,7.0,7.0,91.0,5.0,328.2558554999996,,,,,,,,,,,,,,,,,328.2483348000096,329.0442867000238,329.84695929999,329.82926090003457,,,,,,,,,,,,,,,,,,,,,,,,,,,,,,,,,,,329.8369973000372,329.84695929999,329.84695929999,330.3219384000404,b,1.0,0.4697991000139154,,,,,,sub-233,1,stroop_test,120.30205440136176,
,,,,92.0,8.0,7.0,,,,,,,,,,,,,rot,red,r,1.0,r,1.0,2.1446191999712028,,,,,,,,,,7.0,8.0,92.0,1.0,330.3316686000326,,,,,,,,,,,,,,,,,330.32275500003016,330.4189372000401,331.2253370000399,331.20372170000337,,,,,,,,,,,,,,,,,,,,,,,,,,,,,,,,,,,331.21554790000664,331.2253370000399,331.2253370000399,333.37901919998694,r,1.0,2.1446191999712028,,,,,,sub-233,1,stroop_test,120.30205440136176,
,,,,93.0,9.0,7.0,,,,,,,,,,,,,gelb,yellow,g,1.0,g,1.0,0.7844515000469983,,,,,,,,,,7.0,9.0,93.0,11.0,333.38451170001645,,,,,,,,,,,,,,,,,333.3795102000004,333.47638310003094,334.2784930000198,334.26104850001866,,,,,,,,,,,,,,,,,,,,,,,,,,,,,,,,,,,334.26952750002965,334.2784930000198,334.2784930000198,335.0706616000389,g,1.0,0.7844515000469983,,,,,,sub-233,1,stroop_test,120.30205440136176,
,,,,94.0,10.0,7.0,,,,,,,,,,,,,rot,yellow,g,0.0,g,1.0,0.4743308000033721,,,,,,,,,,7.0,10.0,94.0,3.0,335.08013469999423,,,,,,,,,,,,,,,,,335.07185260002734,335.16765610000584,335.9722451000125,335.95194609998725,,,,,,,,,,,,,,,,,,,,,,,,,,,,,,,,,,,335.9630423000199,335.9722451000125,335.9722451000125,336.45387620001566,g,1.0,0.4743308000033721,,,,,,sub-233,1,stroop_test,120.30205440136176,
,,,,95.0,11.0,7.0,,,,,,,,,,,,,blau,yellow,g,0.0,g,1.0,0.4583510999800637,,,,,,,,,,7.0,11.0,95.0,7.0,336.46071439998923,,,,,,,,,,,,,,,,,336.4547107000253,336.8005434999941,337.6022523000138,337.5850089000305,,,,,,,,,,,,,,,,,,,,,,,,,,,,,,,,,,,337.5921682000044,337.6022523000138,337.6022523000138,338.07329060003394,g,1.0,0.4583510999800637,,,,,,sub-233,1,stroop_test,120.30205440136176,
,,,,96.0,0.0,8.0,,,,,,,,,,,,,rot,yellow,g,0.0,g,1.0,0.6142678000032902,,,,,,,,,,8.0,0.0,96.0,3.0,338.08134030003566,,,,,,,,,,,,,,,,,338.0740865000407,338.4163595000282,339.2320238000248,339.201454700029,,,,,,,,,,,,,,,,,,,,,,,,,,,,,,,,,,,339.2120825999882,339.2320238000248,339.2320238000248,339.85281360003864,g,1.0,0.6142678000032902,,,,,,sub-233,1,stroop_test,120.30205440136176,
,,,,97.0,1.0,8.0,,,,,,,,,,,,,blau,blue,b,1.0,b,1.0,0.5324583000037819,,,,,,,,,,8.0,1.0,97.0,6.0,339.86104879999766,,,,,,,,,,,,,,,,,339.8536189000006,340.6496169000165,341.4504872999969,341.43392119999044,,,,,,,,,,,,,,,,,,,,,,,,,,,,,,,,,,,341.44179940002505,341.4504872999969,341.4504872999969,341.99225340003613,b,1.0,0.5324583000037819,,,,,,sub-233,1,stroop_test,120.30205440136176,
,,,,98.0,2.0,8.0,,,,,,,,,,,,,gelb,red,r,0.0,r,1.0,1.056395000021439,,,,,,,,,,8.0,2.0,98.0,8.0,341.9988064999925,,,,,,,,,,,,,,,,,341.9928553000209,342.7904012000072,343.60470670001814,343.5756481999997,,,,,,,,,,,,,,,,,,,,,,,,,,,,,,,,,,,343.5853566000005,343.60470670001814,343.60470670001814,344.66781210002955,r,1.0,1.056395000021439,,,,,,sub-233,1,stroop_test,120.30205440136176,
,,,,99.0,3.0,8.0,,,,,,,,,,,,,gelb,yellow,g,1.0,g,1.0,0.5292455999879166,,,,,,,,,,8.0,3.0,99.0,10.0,344.67645490000723,,,,,,,,,,,,,,,,,344.6686159000383,345.46475069999,346.25984030001564,346.2496122000157,,,,,,,,,,,,,,,,,,,,,,,,,,,,,,,,,,,346.2512792000198,346.25984030001564,346.25984030001564,346.7932704000268,g,1.0,0.5292455999879166,,,,,,sub-233,1,stroop_test,120.30205440136176,
,,,,100.0,4.0,8.0,,,,,,,,,,,,,blau,red,r,0.0,r,1.0,0.8194249999942258,,,,,,,,,,8.0,4.0,100.0,4.0,346.8008942999877,,,,,,,,,,,,,,,,,346.79463379998924,347.9890435000416,348.7976928999997,348.77393080003094,,,,,,,,,,,,,,,,,,,,,,,,,,,,,,,,,,,348.7851229000371,348.7976928999997,348.7976928999997,349.6259050000226,r,1.0,0.8194249999942258,,,,,,sub-233,1,stroop_test,120.30205440136176,
,,,,101.0,5.0,8.0,,,,,,,,,,,,,blau,yellow,g,0.0,g,1.0,0.8414694999810308,,,,,,,,,,8.0,5.0,101.0,7.0,349.6330048000091,,,,,,,,,,,,,,,,,349.6271270000143,349.72193739999784,350.5150092000258,350.50641010003164,,,,,,,,,,,,,,,,,,,,,,,,,,,,,,,,,,,350.5074774000095,350.5150092000258,350.5150092000258,351.3617915000068,g,1.0,0.8414694999810308,,,,,,sub-233,1,stroop_test,120.30205440136176,
,,,,102.0,6.0,8.0,,,,,,,,,,,,,gelb,blue,b,0.0,b,1.0,0.3524092999869026,,,,,,,,,,8.0,6.0,102.0,9.0,351.3695588000119,,,,,,,,,,,,,,,,,351.3626878000214,352.55447370000184,353.370284500008,353.3395898999879,,,,,,,,,,,,,,,,,,,,,,,,,,,,,,,,,,,353.3611674000276,353.370284500008,353.370284500008,353.73622660001274,b,1.0,0.3524092999869026,,,,,,sub-233,1,stroop_test,120.30205440136176,
,,,,103.0,7.0,8.0,,,,,,,,,,,,,rot,blue,b,0.0,b,1.0,0.446598999958951,,,,,,,,,,8.0,7.0,103.0,2.0,353.7426848000032,,,,,,,,,,,,,,,,,353.73760739999125,353.8291062000208,354.63224990002345,354.6136517000268,,,,,,,,,,,,,,,,,,,,,,,,,,,,,,,,,,,354.62267940002494,354.63224990002345,354.63224990002345,355.08303340000566,b,1.0,0.446598999958951,,,,,,sub-233,1,stroop_test,120.30205440136176,
,,,,104.0,8.0,8.0,,,,,,,,,,,,,gelb,yellow,g,1.0,g,1.0,0.5791864999919198,,,,,,,,,,8.0,8.0,104.0,11.0,355.0899211000069,,,,,,,,,,,,,,,,,355.0839001000277,355.4287474000012,356.2321013000328,356.2134319000179,,,,,,,,,,,,,,,,,,,,,,,,,,,,,,,,,,,356.22186490002787,356.2321013000328,356.2321013000328,356.8158901000279,g,1.0,0.5791864999919198,,,,,,sub-233,1,stroop_test,120.30205440136176,
,,,,105.0,9.0,8.0,,,,,,,,,,,,,rot,red,r,1.0,r,1.0,0.5894850000040606,,,,,,,,,,8.0,9.0,105.0,1.0,356.8226292000036,,,,,,,,,,,,,,,,,356.8167059000116,356.9115999999922,357.7154136000317,357.69623010000214,,,,,,,,,,,,,,,,,,,,,,,,,,,,,,,,,,,357.705180799996,357.7154136000317,357.7154136000317,358.3189129999955,r,1.0,0.5894850000040606,,,,,,sub-233,1,stroop_test,120.30205440136176,
,,,,106.0,10.0,8.0,,,,,,,,,,,,,rot,red,r,1.0,r,1.0,0.4857557999785058,,,,,,,,,,8.0,10.0,106.0,0.0,358.32488180004293,,,,,,,,,,,,,,,,,358.31972090003546,359.51085290004266,360.3044473000336,360.295477800013,,,,,,,,,,,,,,,,,,,,,,,,,,,,,,,,,,,360.2965755999903,360.3044473000336,360.3044473000336,360.7966311000055,r,1.0,0.4857557999785058,,,,,,sub-233,1,stroop_test,120.30205440136176,
,,,,107.0,11.0,8.0,,,,,,,,,,,,,blau,blue,b,1.0,b,1.0,0.5229743999661878,,,,,,,,,,8.0,11.0,107.0,5.0,360.8030446000048,,,,,,,,,,,,,,,,,360.7974296000321,360.8938290000078,361.69459670002107,361.6783711999888,,,,,,,,,,,,,,,,,,,,,,,,,,,,,,,,,,,361.6852883000393,361.69459670002107,361.69459670002107,362.2240272000199,b,1.0,0.5229743999661878,,,,,,sub-233,1,stroop_test,120.30205440136176,
,,,,108.0,0.0,9.0,,,,,,,,,,,,,gelb,yellow,g,1.0,g,1.0,0.4613036999944597,,,,,,,,,,9.0,0.0,108.0,10.0,362.2303603999899,,,,,,,,,,,,,,,,,362.2248811000027,362.5682735000155,363.3756259999936,363.35355430003256,,,,,,,,,,,,,,,,,,,,,,,,,,,,,,,,,,,363.3659464000375,363.3756259999936,363.3756259999936,363.847272300045,g,1.0,0.4613036999944597,,,,,,sub-233,1,stroop_test,120.30205440136176,
,,,,109.0,1.0,9.0,,,,,,,,,,,,,gelb,blue,b,0.0,b,1.0,0.4161517000175081,,,,,,,,,,9.0,1.0,109.0,9.0,363.85343140002806,,,,,,,,,,,,,,,,,363.8483476000256,364.6425502999919,365.4370920000365,365.42725250002695,,,,,,,,,,,,,,,,,,,,,,,,,,,,,,,,,,,365.4283104999922,365.4370920000365,365.4370920000365,365.8635867999983,b,1.0,0.4161517000175081,,,,,,sub-233,1,stroop_test,120.30205440136176,
,,,,110.0,2.0,9.0,,,,,,,,,,,,,rot,red,r,1.0,r,1.0,0.4355269999941811,,,,,,,,,,9.0,2.0,110.0,1.0,365.8703166000196,,,,,,,,,,,,,,,,,365.8647277000128,366.2090499000042,367.0137115000398,366.99387010000646,,,,,,,,,,,,,,,,,,,,,,,,,,,,,,,,,,,367.0038746999926,367.0137115000398,367.0137115000398,367.4541627000435,r,1.0,0.4355269999941811,,,,,,sub-233,1,stroop_test,120.30205440136176,
,,,,111.0,3.0,9.0,,,,,,,,,,,,,rot,blue,b,0.0,b,1.0,0.5687908999971114,,,,,,,,,,9.0,3.0,111.0,2.0,367.46083310002,,,,,,,,,,,,,,,,,367.4551077000215,367.55026440002257,368.3460821000044,368.335064999992,,,,,,,,,,,,,,,,,,,,,,,,,,,,,,,,,,,368.33625900000334,368.3460821000044,368.3460821000044,368.9194220000063,b,1.0,0.5687908999971114,,,,,,sub-233,1,stroop_test,120.30205440136176,
,,,,112.0,4.0,9.0,,,,,,,,,,,,,blau,blue,b,1.0,b,1.0,0.5570501000038348,,,,,,,,,,9.0,4.0,112.0,5.0,368.9291977999965,,,,,,,,,,,,,,,,,368.9202621000004,369.0166051000124,369.8195795000065,369.8014565000194,,,,,,,,,,,,,,,,,,,,,,,,,,,,,,,,,,,369.8091385000153,369.8195795000065,369.8195795000065,370.3872822000412,b,1.0,0.5570501000038348,,,,,,sub-233,1,stroop_test,120.30205440136176,
,,,,113.0,5.0,9.0,,,,,,,,,,,,,gelb,red,r,0.0,r,1.0,0.6751011000014842,,,,,,,,,,9.0,5.0,113.0,8.0,370.395279599994,,,,,,,,,,,,,,,,,370.3881033000071,370.7330472000176,371.5358624000218,371.5172265000292,,,,,,,,,,,,,,,,,,,,,,,,,,,,,,,,,,,371.52659329999005,371.5358624000218,371.5358624000218,372.22021370002767,r,1.0,0.6751011000014842,,,,,,sub-233,1,stroop_test,120.30205440136176,
,,,,114.0,6.0,9.0,,,,,,,,,,,,,gelb,yellow,g,1.0,g,1.0,0.4640701999887824,,,,,,,,,,9.0,6.0,114.0,11.0,372.2268109000288,,,,,,,,,,,,,,,,,372.2210421999917,372.5653774000239,373.3602566000191,373.3501802000101,,,,,,,,,,,,,,,,,,,,,,,,,,,,,,,,,,,373.3513045000145,373.3602566000191,373.3602566000191,373.8285079000052,g,1.0,0.4640701999887824,,,,,,sub-233,1,stroop_test,120.30205440136176,
,,,,115.0,7.0,9.0,,,,,,,,,,,,,blau,yellow,g,0.0,b,0.0,0.5715157999657094,,,,,,,,,,9.0,7.0,115.0,7.0,373.83876060001785,,,,,,,,,,,,,,,,,373.8296629000106,375.0234665999888,375.8333974000416,375.80767950002337,,,,,,,,,,,,,,,,,,,,,,,,,,,,,,,,,,,375.8231565000024,375.8333974000416,375.8333974000416,376.4106860000175,b,0.0,0.5715157999657094,,,,,,sub-233,1,stroop_test,120.30205440136176,
,,,,116.0,8.0,9.0,,,,,,,,,,,,,blau,blue,b,1.0,b,1.0,0.4107475000200793,,,,,,,,,,9.0,8.0,116.0,6.0,376.41968480002834,,,,,,,,,,,,,,,,,376.41240680002375,377.6058813999989,378.39962470001774,378.3904853000422,,,,,,,,,,,,,,,,,,,,,,,,,,,,,,,,,,,378.3915404000436,378.39962470001774,378.39962470001774,378.8164116000408,b,1.0,0.4107475000200793,,,,,,sub-233,1,stroop_test,120.30205440136176,
,,,,117.0,9.0,9.0,,,,,,,,,,,,,rot,yellow,g,0.0,g,1.0,0.9330061000073328,,,,,,,,,,9.0,9.0,117.0,3.0,378.8234016000061,,,,,,,,,,,,,,,,,378.81757429998834,379.6136856999947,380.4231346999877,380.39829710003687,,,,,,,,,,,,,,,,,,,,,,,,,,,,,,,,,,,380.4107988000033,380.4231346999877,380.4231346999877,381.3671604000265,g,1.0,0.9330061000073328,,,,,,sub-233,1,stroop_test,120.30205440136176,
,,,,118.0,10.0,9.0,,,,,,,,,,,,,rot,red,r,1.0,r,1.0,0.5145038000191562,,,,,,,,,,9.0,10.0,118.0,0.0,381.3728129999945,,,,,,,,,,,,,,,,,381.3681016000337,381.4631325000082,382.2565528000123,382.2477871000301,,,,,,,,,,,,,,,,,,,,,,,,,,,,,,,,,,,382.2490101000294,382.2565528000123,382.2565528000123,382.77521220000926,r,1.0,0.5145038000191562,,,,,,sub-233,1,stroop_test,120.30205440136176,
,,,,119.0,11.0,9.0,,,,,,,,,,,,,blau,red,r,0.0,r,1.0,1.0134620000026189,,,,,,,,,,9.0,11.0,119.0,4.0,382.78552740003215,,,,,,,,,,,,,,,,,382.7762095000362,382.8711171000032,383.6714467999991,383.6558151000063,,,,,,,,,,,,,,,,,,,,,,,,,,,,,,,,,,,383.6631597999949,383.6714467999991,383.6714467999991,384.689926400024,r,1.0,1.0134620000026189,,,,,,sub-233,1,stroop_test,120.30205440136176,
,,,,,,,,,,,,,,,,,,,,,,,,,,,,,,,,,,,,,,,,,,,,,,,,,,,,,,,,,,,,,,,,,,,,,,,,,,,,,,,,,,,,,,,,,,,,,,,,,,,,,,384.6903828000068,384.7029081000365,389.6940962999943,389.68795190000674,sub-233,1,stroop_test,120.30205440136176,
