wordCTK,colorCTK,corrAnsCTK,congruentCTK,thisN,thisTrialN,thisRepN,keyResp_CTK.keys,keyResp_CTK.corr,keyResp_CTK.rt,keyResp_CTK.duration,wordPractice,colorPractice,corrAnsPractice,congruentPractice,respPractice.keys,respPractice.corr,respPractice.rt,respPractice.duration,word,color,corrAns,congruent,keyResp_test_run.keys,keyResp_test_run.corr,keyResp_test_run.rt,keyResp_test_run.duration,trials_CTK.thisRepN,trials_CTK.thisTrialN,trials_CTK.thisN,trials_CTK.thisIndex,trials_practice.thisRepN,trials_practice.thisTrialN,trials_practice.thisN,trials_practice.thisIndex,trials_test.thisRepN,trials_test.thisTrialN,trials_test.thisN,trials_test.thisIndex,thisRow.t,notes,instruction.started,instr_text.started,instr_image.started,instr_resp.started,instruction.stopped,instr_resp.keys,instr_resp.rt,instr_resp.duration,instr_color_to_key.started,instr_ctk.started,resp_ctk.started,instr_color_to_key.stopped,resp_ctk.keys,resp_ctk.rt,resp_ctk.duration,ITI.started,fixcross.started,fixcross.stopped,ITI.stopped,color_to_key_run.started,stimulus_CTK.started,keyResp_CTK.started,color_to_key_run.stopped,trials_CTK.keyResp_CTK.keys,trials_CTK.keyResp_CTK.corr,trials_CTK.keyResp_CTK.rt,trials_CTK.keyResp_CTK.duration,instr_practice.started,instr_practice_text.started,instr_practice_resp.started,instr_practice.stopped,instr_practice_resp.keys,instr_practice_resp.rt,instr_practice_resp.duration,practice_run.started,stimulus_practice.started,respPractice.started,practice_run.stopped,trials_practice.respPractice.keys,trials_practice.respPractice.corr,trials_practice.respPractice.rt,trials_practice.respPractice.duration,feedback.started,textFeedback.started,textFeedback.stopped,feedback.stopped,instr_test.started,instr_test_text.started,instr_test_resp.started,instr_test.stopped,instr_test_resp.keys,instr_test_resp.rt,instr_test_resp.duration,test_run.started,stimulus_test_run.started,keyResp_test_run.started,test_run.stopped,trials_test.keyResp_test_run.keys,trials_test.keyResp_test_run.corr,trials_test.keyResp_test_run.rt,trials_test.keyResp_test_run.duration,goodbye.started,textGoodbye.started,goodbye.stopped,participant,session,expName,frameRate,Unnamed: 112
,,,,,,,,,,,,,,,,,,,,,,,,,,,,,,,,,,,,,,,,,0.0032667999985278,0.0779629000026034,0.0779629000026034,0.0779629000026034,25.59176209999714,space,25.453674099997443,,,,,,,,,,,,,,,,,,,,,,,,,,,,,,,,,,,,,,,,,,,,,,,,,,,,,,,,,,sub-108,1,stroop_test,59.990485509007286,
,,,,,,,,,,,,,,,,,,,,,,,,,,,,,,,,,,,,,,,,,,,,,,,,,25.591809500001546,25.59729169999628,25.59729169999628,32.42572870000004,space,6.823880500000087,,,,,,,,,,,,,,,,,,,,,,,,,,,,,,,,,,,,,,,,,,,,,,,,,,,sub-108,1,stroop_test,59.990485509007286,
test,yellow,g,1.0,0.0,0.0,0.0,g,1.0,2.636579499994696,,,,,,,,,,,,,,,,,,0.0,0.0,0.0,1.0,,,,,,,,,32.47558279999794,,,,,,,,,,,,,,,,,32.46938650000084,32.53911589999916,33.36665350000112,33.323299199997564,33.3624020999996,33.36665350000112,33.36665350000112,36.00697539999965,g,1.0,2.636579499994696,,,,,,,,,,,,,,,,,,,,,,,,,,,,,,,,,,,,,,,sub-108,1,stroop_test,59.990485509007286,
test,blue,b,1.0,1.0,1.0,0.0,b,1.0,0.935700399997586,,,,,,,,,,,,,,,,,,0.0,1.0,1.0,2.0,,,,,,,,,36.02031259999785,,,,,,,,,,,,,,,,,36.00744080000004,36.12044569999853,36.91969049999898,36.90426889999799,36.90482489999704,36.91969049999898,36.91969049999898,37.87137729999813,b,1.0,0.935700399997586,,,,,,,,,,,,,,,,,,,,,,,,,,,,,,,,,,,,,,,sub-108,1,stroop_test,59.990485509007286,
test,red,r,1.0,2.0,2.0,0.0,r,1.0,0.6336030000020401,,,,,,,,,,,,,,,,,,0.0,2.0,2.0,0.0,,,,,,,,,37.88592549999885,,,,,,,,,,,,,,,,,37.87174419999792,38.23573989999568,39.03541910000058,39.01977679999982,39.02045959999669,39.03541910000058,39.03541910000058,39.68615560000035,r,1.0,0.6336030000020401,,,,,,,,,,,,,,,,,,,,,,,,,,,,,,,,,,,,,,,sub-108,1,stroop_test,59.990485509007286,
test,blue,b,1.0,3.0,0.0,1.0,b,1.0,2.199305199996161,,,,,,,,,,,,,,,,,,1.0,0.0,3.0,2.0,,,,,,,,,39.70102239999687,,,,,,,,,,,,,,,,,39.686384000000544,40.05148299999564,40.85058790000039,40.83605209999951,40.83666490000178,40.85058790000039,40.85058790000039,43.05216980000114,b,1.0,2.199305199996161,,,,,,,,,,,,,,,,,,,,,,,,,,,,,,,,,,,,,,,sub-108,1,stroop_test,59.990485509007286,
test,yellow,g,1.0,4.0,1.0,1.0,g,1.0,1.2008566000004066,,,,,,,,,,,,,,,,,,1.0,1.0,4.0,1.0,,,,,,,,,43.06580450000183,,,,,,,,,,,,,,,,,43.05249360000016,43.165600899999845,43.96518439999636,43.94984560000012,43.95041689999925,43.96518439999636,43.96518439999636,45.182623599997896,g,1.0,1.2008566000004066,,,,,,,,,,,,,,,,,,,,,,,,,,,,,,,,,,,,,,,sub-108,1,stroop_test,59.990485509007286,
test,red,r,1.0,5.0,2.0,1.0,r,1.0,0.9961141000021598,,,,,,,,,,,,,,,,,,1.0,2.0,5.0,0.0,,,,,,,,,45.19805079999787,,,,,,,,,,,,,,,,,45.18295090000174,45.99746949999826,46.79716219999682,46.78213120000146,46.78285219999816,46.79716219999682,46.79716219999682,47.79768180000247,r,1.0,0.9961141000021598,,,,,,,,,,,,,,,,,,,,,,,,,,,,,,,,,,,,,,,sub-108,1,stroop_test,59.990485509007286,
test,yellow,g,1.0,6.0,0.0,2.0,g,1.0,1.6801078000062262,,,,,,,,,,,,,,,,,,2.0,0.0,6.0,1.0,,,,,,,,,47.81307869999728,,,,,,,,,,,,,,,,,47.79802919999929,49.0118586000026,49.81152640000073,49.7968297999978,49.79753270000219,49.81152640000073,49.81152640000073,51.49661070000002,g,1.0,1.6801078000062262,,,,,,,,,,,,,,,,,,,,,,,,,,,,,,,,,,,,,,,sub-108,1,stroop_test,59.990485509007286,
test,red,r,1.0,7.0,1.0,2.0,r,1.0,1.185774700003094,,,,,,,,,,,,,,,,,,2.0,1.0,7.0,0.0,,,,,,,,,51.51074939999671,,,,,,,,,,,,,,,,,51.49721819999832,52.30986419999681,53.10939479999797,53.09338890000072,53.09376340000017,53.10939479999797,53.10939479999797,54.311763300000166,r,1.0,1.185774700003094,,,,,,,,,,,,,,,,,,,,,,,,,,,,,,,,,,,,,,,sub-108,1,stroop_test,59.990485509007286,
test,blue,b,1.0,8.0,2.0,2.0,b,1.0,0.6418727999989642,,,,,,,,,,,,,,,,,,2.0,2.0,8.0,2.0,,,,,,,,,54.32529010000144,,,,,,,,,,,,,,,,,54.31265020000137,55.12474520000251,55.92437919999793,55.909262399996805,55.91005449999648,55.92437919999793,55.92437919999793,56.5753274000017,b,1.0,0.6418727999989642,,,,,,,,,,,,,,,,,,,,,,,,,,,,,,,,,,,,,,,sub-108,1,stroop_test,59.990485509007286,
test,red,r,1.0,9.0,0.0,3.0,r,1.0,0.464925400003267,,,,,,,,,,,,,,,,,,3.0,0.0,9.0,0.0,,,,,,,,,56.59064370000124,,,,,,,,,,,,,,,,,56.57564579999598,56.94045609999739,57.73989779999829,57.72463219999918,57.7252146000028,57.73989779999829,57.73989779999829,58.20979039999656,r,1.0,0.464925400003267,,,,,,,,,,,,,,,,,,,,,,,,,,,,,,,,,,,,,,,sub-108,1,stroop_test,59.990485509007286,
test,blue,b,1.0,10.0,1.0,3.0,b,1.0,0.6652065000016592,,,,,,,,,,,,,,,,,,3.0,1.0,10.0,2.0,,,,,,,,,58.2227206000025,,,,,,,,,,,,,,,,,58.2103586000012,59.02246609999565,59.8221612999987,59.80673319999914,59.807246999997005,59.8221612999987,59.8221612999987,60.49042550000013,b,1.0,0.6652065000016592,,,,,,,,,,,,,,,,,,,,,,,,,,,,,,,,,,,,,,,sub-108,1,stroop_test,59.990485509007286,
test,yellow,g,1.0,11.0,2.0,3.0,g,1.0,1.0370322999951895,,,,,,,,,,,,,,,,,,3.0,2.0,11.0,1.0,,,,,,,,,60.50481520000176,,,,,,,,,,,,,,,,,60.49079569999594,60.85470659999555,61.65416430000187,61.63972939999803,61.64076059999934,61.65416430000187,61.65416430000187,62.70460479999747,g,1.0,1.0370322999951895,,,,,,,,,,,,,,,,,,,,,,,,,,,,,,,,,,,,,,,sub-108,1,stroop_test,59.990485509007286,
,,,,,,,,,,,,,,,,,,,,,,,,,,,,,,,,,,,,,,,,,,,,,,,,,,,,,,,,,,,,,,,,,,,,62.70473599999968,62.72030939999968,62.72030939999968,65.87075650000043,space,3.14419249999628,,,,,,,,,,,,,,,,,,,,,,,,,,,,,,,,sub-108,1,stroop_test,59.990485509007286,
,,,,0.0,0.0,0.0,,,,,rot,blue,b,0.0,b,1.0,1.5404383999994025,,,,,,,,,,,,,,0.0,0.0,0.0,2.0,,,,,65.88451679999707,,,,,,,,,,,,,,,,,65.87862019999739,66.68459630000143,67.48389119999774,67.46877919999679,,,,,,,,,,,,,,,,67.47933860000194,67.48389119999774,67.48389119999774,69.03519999999844,b,1.0,1.5404383999994025,,69.04287759999715,69.04921599999943,70.04854109999724,70.03358019999723,,,,,,,,,,,,,,,,,,,sub-108,1,stroop_test,59.990485509007286,
,,,,1.0,1.0,0.0,,,,,gelb,yellow,g,1.0,g,1.0,0.7373369999986608,,,,,,,,,,,,,,0.0,1.0,1.0,11.0,,,,,70.04854109999724,,,,,,,,,,,,,,,,,70.0340068000005,70.14865209999698,70.94798959999753,70.9330095999976,,,,,,,,,,,,,,,,70.94117710000137,70.94798959999753,70.94798959999753,71.69998979999946,g,1.0,0.7373369999986608,,71.70098499999585,71.71456059999764,72.71406910000223,72.70009969999956,,,,,,,,,,,,,,,,,,,sub-108,1,stroop_test,59.990485509007286,
,,,,2.0,2.0,0.0,,,,,rot,red,r,1.0,r,1.0,0.4848230999996303,,,,,,,,,,,,,,0.0,2.0,2.0,0.0,,,,,72.71406910000223,,,,,,,,,,,,,,,,,72.7009298999983,73.51327139999921,74.31267189999926,74.29705660000036,,,,,,,,,,,,,,,,74.3008703000014,74.31267189999926,74.31267189999926,74.81516349999583,r,1.0,0.4848230999996303,,74.81625129999884,74.82919849999598,75.82837560000189,75.81310610000219,,,,,,,,,,,,,,,,,,,sub-108,1,stroop_test,59.990485509007286,
,,,,3.0,3.0,0.0,,,,,blau,yellow,g,0.0,g,1.0,1.9476851999934297,,,,,,,,,,,,,,0.0,3.0,3.0,7.0,,,,,75.82837560000189,,,,,,,,,,,,,,,,,75.81346359999588,75.92873900000268,76.72779599999922,76.71313930000179,,,,,,,,,,,,,,,,76.72165459999815,76.72779599999922,76.72779599999922,78.67876769999566,g,1.0,1.9476851999934297,,78.67932799999835,78.69324039999628,79.69238790000236,79.67799730000115,,,,,,,,,,,,,,,,,,,sub-108,1,stroop_test,59.990485509007286,
,,,,4.0,4.0,0.0,,,,,gelb,blue,b,0.0,b,1.0,1.0837864999994054,,,,,,,,,,,,,,0.0,4.0,4.0,9.0,,,,,79.69238790000236,,,,,,,,,,,,,,,,,79.67829489999713,80.04254829999991,80.84195789999649,80.8260261999967,,,,,,,,,,,,,,,,80.82911289999902,80.84195789999649,80.84195789999649,81.94280969999818,b,1.0,1.0837864999994054,,81.94337449999875,81.95776140000089,82.95704059999844,82.94164620000083,,,,,,,,,,,,,,,,,,,sub-108,1,stroop_test,59.990485509007286,
,,,,5.0,5.0,0.0,,,,,gelb,yellow,g,1.0,g,1.0,1.3791921000010916,,,,,,,,,,,,,,0.0,5.0,5.0,10.0,,,,,82.95704059999844,,,,,,,,,,,,,,,,,82.94194389999757,83.307272500002,84.10644650000177,84.09095369999704,,,,,,,,,,,,,,,,84.09150779999618,84.10644650000177,84.10644650000177,85.49117049999768,g,1.0,1.3791921000010916,,85.49176620000071,85.50577170000179,86.5054003999976,86.49020220000239,,,,,,,,,,,,,,,,,,,sub-108,1,stroop_test,59.990485509007286,
,,,,6.0,6.0,0.0,,,,,blau,blue,b,1.0,b,1.0,1.4878420999957598,,,,,,,,,,,,,,0.0,6.0,6.0,6.0,,,,,86.5054003999976,,,,,,,,,,,,,,,,,86.49072619999788,87.3045678999988,88.10420989999693,88.08869250000134,,,,,,,,,,,,,,,,88.09309770000255,88.10420989999693,88.10420989999693,89.60565489999863,b,1.0,1.4878420999957598,,89.60684719999699,89.6199987,90.61917040000117,90.6043725999989,,,,,,,,,,,,,,,,,,,sub-108,1,stroop_test,59.990485509007286,
,,,,7.0,7.0,0.0,,,,,rot,yellow,g,0.0,g,1.0,1.5632871000052546,,,,,,,,,,,,,,0.0,7.0,7.0,3.0,,,,,90.61917040000117,,,,,,,,,,,,,,,,,90.60513119999814,90.96929020000243,91.78514030000224,91.76937729999918,,,,,,,,,,,,,,,,91.7724298999965,91.78514030000224,91.78514030000224,93.35305900000094,g,1.0,1.5632871000052546,,93.35373199999594,93.36706889999914,94.3666499999963,94.35209049999683,,,,,,,,,,,,,,,,,,,sub-108,1,stroop_test,59.990485509007286,
,,,,8.0,8.0,0.0,,,,,blau,blue,b,1.0,b,1.0,0.955704899999546,,,,,,,,,,,,,,0.0,8.0,8.0,5.0,,,,,94.3666499999963,,,,,,,,,,,,,,,,,94.3525523999997,94.71650650000085,95.51612639999804,95.50182379999752,,,,,,,,,,,,,,,,95.50601849999656,95.51612639999804,95.51612639999804,96.48306479999884,b,1.0,0.955704899999546,,96.48354989999643,96.49891869999556,97.49803419999807,97.48283419999645,,,,,,,,,,,,,,,,,,,sub-108,1,stroop_test,59.990485509007286,
,,,,9.0,9.0,0.0,,,,,rot,red,r,1.0,r,1.0,1.903199799999129,,,,,,,,,,,,,,0.0,9.0,9.0,1.0,,,,,97.49803419999807,,,,,,,,,,,,,,,,,97.48323349999556,98.69725169999585,99.49662289999831,99.48255129999598,,,,,,,,,,,,,,,,99.4890013999975,99.49662289999831,99.49662289999831,101.4136948000014,r,1.0,1.903199799999129,,101.41415849999612,101.42884890000278,102.42814740000176,102.4122697999992,,,,,,,,,,,,,,,,,,,sub-108,1,stroop_test,59.990485509007286,
,,,,10.0,10.0,0.0,,,,,gelb,red,r,0.0,r,1.0,1.9644382999977097,,,,,,,,,,,,,,0.0,10.0,10.0,8.0,,,,,102.42814740000176,,,,,,,,,,,,,,,,,102.41258229999949,102.5279268000013,103.32765800000196,103.31263169999876,,,,,,,,,,,,,,,,103.31610479999654,103.32765800000196,103.32765800000196,105.29616079999688,r,1.0,1.9644382999977097,,105.29689549999604,105.30975690000196,106.30922299999656,106.29388990000008,,,,,,,,,,,,,,,,,,,sub-108,1,stroop_test,59.990485509007286,
,,,,11.0,11.0,0.0,,,,,blau,red,r,0.0,r,1.0,1.2515672000008635,,,,,,,,,,,,,,0.0,11.0,11.0,4.0,,,,,106.30922299999656,,,,,,,,,,,,,,,,,106.294267199999,107.10878689999664,107.9079727999997,107.8934792,,,,,,,,,,,,,,,,107.89795400000004,107.9079727999997,107.9079727999997,109.17563639999572,r,1.0,1.2515672000008635,,109.17693039999722,109.19080830000166,110.1900086999958,110.17444049999904,,,,,,,,,,,,,,,,,,,sub-108,1,stroop_test,59.990485509007286,
,,,,12.0,0.0,1.0,,,,,gelb,blue,b,0.0,b,1.0,1.863856299998588,,,,,,,,,,,,,,1.0,0.0,12.0,9.0,,,,,110.1900086999958,,,,,,,,,,,,,,,,,110.1747658000022,110.2897462999972,111.08943379999982,111.0739195999995,,,,,,,,,,,,,,,,111.07885689999966,111.08943379999982,111.08943379999982,112.95648449999862,b,1.0,1.863856299998588,,112.9569718999992,112.97127080000064,113.97073789999558,113.95570769999904,,,,,,,,,,,,,,,,,,,sub-108,1,stroop_test,59.990485509007286,
,,,,13.0,1.0,1.0,,,,,gelb,yellow,g,1.0,g,1.0,0.9947174999979324,,,,,,,,,,,,,,1.0,1.0,13.0,10.0,,,,,113.97073789999558,,,,,,,,,,,,,,,,,113.95606430000043,114.77024269999674,115.57011039999634,115.55430409999826,,,,,,,,,,,,,,,,115.55484109999816,115.57011039999634,115.57011039999634,116.57099069999822,g,1.0,0.9947174999979324,,116.57152530000168,116.58603459999722,117.5855229000008,117.56976459999714,,,,,,,,,,,,,,,,,,,sub-108,1,stroop_test,59.990485509007286,
,,,,14.0,2.0,1.0,,,,,gelb,yellow,g,1.0,g,1.0,1.6454737999956706,,,,,,,,,,,,,,1.0,2.0,14.0,11.0,,,,,117.5855229000008,,,,,,,,,,,,,,,,,117.5701115999982,117.93497930000012,118.73474229999556,118.71923349999996,,,,,,,,,,,,,,,,118.71981029999732,118.73474229999556,118.73474229999556,120.38487319999696,g,1.0,1.6454737999956706,,120.38584119999724,120.39992170000188,121.39953100000275,121.38460620000114,,,,,,,,,,,,,,,,,,,sub-108,1,stroop_test,59.990485509007286,
,,,,15.0,3.0,1.0,,,,,rot,red,r,1.0,r,1.0,0.9279707000023336,,,,,,,,,,,,,,1.0,3.0,15.0,0.0,,,,,121.39953100000275,,,,,,,,,,,,,,,,,121.38555030000134,121.74948729999596,122.5488342000026,122.5330793999965,,,,,,,,,,,,,,,,122.53580579999834,122.5488342000026,122.5488342000026,123.48337739999988,r,1.0,0.9279707000023336,,123.48413479999726,123.49808499999926,124.49751449999894,124.48204570000236,,,,,,,,,,,,,,,,,,,sub-108,1,stroop_test,59.990485509007286,
,,,,16.0,4.0,1.0,,,,,blau,yellow,g,0.0,g,1.0,1.347940399995423,,,,,,,,,,,,,,1.0,4.0,16.0,7.0,,,,,124.49751449999894,,,,,,,,,,,,,,,,,124.48240290000103,125.69691659999808,126.49617639999632,126.48125459999574,,,,,,,,,,,,,,,,126.48500790000251,126.49617639999632,126.49617639999632,127.847537499998,g,1.0,1.347940399995423,,127.84804749999604,127.86188499999844,128.8612565000003,128.84698070000013,,,,,,,,,,,,,,,,,,,sub-108,1,stroop_test,59.990485509007286,
,,,,17.0,5.0,1.0,,,,,blau,blue,b,1.0,b,1.0,0.8710094999987632,,,,,,,,,,,,,,1.0,5.0,17.0,6.0,,,,,128.8612565000003,,,,,,,,,,,,,,,,,128.84778659999574,128.96116050000273,129.76067689999763,129.74562650000007,,,,,,,,,,,,,,,,129.74618770000234,129.76067689999763,129.76067689999763,130.64507589999994,b,1.0,0.8710094999987632,,130.6454819999999,130.6602875000026,131.65942009999708,131.64528659999633,,,,,,,,,,,,,,,,,,,sub-108,1,stroop_test,59.990485509007286,
,,,,18.0,6.0,1.0,,,,,blau,blue,b,1.0,b,1.0,0.8099158000040916,,,,,,,,,,,,,,1.0,6.0,18.0,5.0,,,,,131.65942009999708,,,,,,,,,,,,,,,,,131.646233200001,132.00926649999747,132.8087239000015,132.79368519999844,,,,,,,,,,,,,,,,132.79435779999767,132.8087239000015,132.8087239000015,133.62726429999748,b,1.0,0.8099158000040916,,133.62776450000092,133.64156499999808,134.64087129999825,134.62528079999902,,,,,,,,,,,,,,,,,,,sub-108,1,stroop_test,59.990485509007286,
,,,,19.0,7.0,1.0,,,,,rot,blue,b,0.0,b,1.0,0.6043341999975382,,,,,,,,,,,,,,1.0,7.0,19.0,2.0,,,,,134.64087129999825,,,,,,,,,,,,,,,,,134.6256138999961,135.84022410000034,136.6400902999958,136.62496409999585,,,,,,,,,,,,,,,,136.6312887000022,136.6400902999958,136.6400902999958,137.25849609999568,b,1.0,0.6043341999975382,,137.25909939999838,137.27282969999942,138.27208499999688,138.2569921999966,,,,,,,,,,,,,,,,,,,sub-108,1,stroop_test,59.990485509007286,
,,,,20.0,8.0,1.0,,,,,rot,red,r,1.0,r,1.0,0.6681122000009054,,,,,,,,,,,,,,1.0,8.0,20.0,1.0,,,,,138.27208499999688,,,,,,,,,,,,,,,,,138.25739420000173,139.4712198999987,140.27079599999706,140.25709659999848,,,,,,,,,,,,,,,,140.25777289999678,140.27079599999706,140.27079599999706,140.95586619999813,r,1.0,0.6681122000009054,,140.9569010999985,140.97049819999663,141.97011519999796,141.95478519999597,,,,,,,,,,,,,,,,,,,sub-108,1,stroop_test,59.990485509007286,
,,,,21.0,9.0,1.0,,,,,gelb,red,r,0.0,r,1.0,2.281284500000765,,,,,,,,,,,,,,1.0,9.0,21.0,8.0,,,,,141.97011519999796,,,,,,,,,,,,,,,,,141.95517509999627,142.06991479999851,142.86914489999617,142.85394529999758,,,,,,,,,,,,,,,,142.85744949999935,142.86914489999617,142.86914489999617,145.1538214999964,r,1.0,2.281284500000765,,145.15432889999647,145.1677674999955,146.1675191999966,146.15121949999593,,,,,,,,,,,,,,,,,,,sub-108,1,stroop_test,59.990485509007286,
,,,,22.0,10.0,1.0,,,,,blau,red,r,0.0,r,1.0,1.102714400003606,,,,,,,,,,,,,,1.0,10.0,22.0,4.0,,,,,146.1675191999966,,,,,,,,,,,,,,,,,146.1515844999958,146.51692499999626,147.3162796999968,147.3007030000008,,,,,,,,,,,,,,,,147.30360610000207,147.3162796999968,147.3162796999968,148.43453099999897,r,1.0,1.102714400003606,,148.4351553000015,148.4490158999979,149.4485207999969,149.43340770000214,,,,,,,,,,,,,,,,,,,sub-108,1,stroop_test,59.990485509007286,
,,,,23.0,11.0,1.0,,,,,rot,yellow,g,0.0,g,1.0,1.244679300005373,,,,,,,,,,,,,,1.0,11.0,23.0,3.0,,,,,149.4485207999969,,,,,,,,,,,,,,,,,149.4338379999972,149.54803359999642,150.3475338999997,150.3317892999985,,,,,,,,,,,,,,,,150.33448520000093,150.3475338999997,150.3475338999997,151.59926689999702,g,1.0,1.244679300005373,,151.5998408000014,151.6138828999974,152.61288039999636,152.59771180000098,,,,,,,,,,,,,,,,,,,sub-108,1,stroop_test,59.990485509007286,
,,,,,,,,,,,,,,,,,,,,,,,,,,,,,,,,,,,,,,,,,,,,,,,,,,,,,,,,,,,,,,,,,,,,,,,,,,,,,,,,,,,,,,,152.59786560000066,152.61288039999636,152.61288039999636,155.6292878999957,space,3.000278700004856,,,,,,,,,,,,,sub-108,1,stroop_test,59.990485509007286,
,,,,0.0,0.0,0.0,,,,,,,,,,,,,gelb,red,r,0.0,r,1.0,1.1069757000004756,,,,,,,,,,0.0,0.0,0.0,8.0,155.6442717999962,,,,,,,,,,,,,,,,,155.63691039999685,156.8435094000015,157.64290690000053,157.6284594999961,,,,,,,,,,,,,,,,,,,,,,,,,,,,,,,,,,,157.63490119999915,157.64290690000053,157.64290690000053,158.7613932000022,r,1.0,1.1069757000004756,,,,,sub-108,1,stroop_test,59.990485509007286,
,,,,1.0,1.0,0.0,,,,,,,,,,,,,blau,yellow,g,0.0,g,1.0,1.2341211000020849,,,,,,,,,,0.0,1.0,1.0,7.0,158.77580640000087,,,,,,,,,,,,,,,,,158.76183760000276,159.1254224000004,159.92481789999874,159.91007530000206,,,,,,,,,,,,,,,,,,,,,,,,,,,,,,,,,,,159.9141032999978,159.92481789999874,159.92481789999874,161.1757271000024,g,1.0,1.2341211000020849,,,,,sub-108,1,stroop_test,59.990485509007286,
,,,,2.0,2.0,0.0,,,,,,,,,,,,,blau,red,r,0.0,r,1.0,0.6966155999980401,,,,,,,,,,0.0,2.0,2.0,4.0,161.19075840000005,,,,,,,,,,,,,,,,,161.17607729999872,162.39000900000246,163.1897425999996,163.17498160000105,,,,,,,,,,,,,,,,,,,,,,,,,,,,,,,,,,,163.17628289999993,163.1897425999996,163.1897425999996,163.89120990000083,r,1.0,0.6966155999980401,,,,,sub-108,1,stroop_test,59.990485509007286,
,,,,3.0,3.0,0.0,,,,,,,,,,,,,rot,yellow,g,0.0,g,1.0,0.6449529000019538,,,,,,,,,,0.0,3.0,3.0,3.0,163.90557389999594,,,,,,,,,,,,,,,,,163.89188170000125,164.25573099999747,165.05498380000063,165.04040530000202,,,,,,,,,,,,,,,,,,,,,,,,,,,,,,,,,,,165.04662129999633,165.05498380000063,165.05498380000063,165.70643589999963,g,1.0,0.6449529000019538,,,,,sub-108,1,stroop_test,59.990485509007286,
,,,,4.0,4.0,0.0,,,,,,,,,,,,,gelb,yellow,g,1.0,g,1.0,0.774695400003111,,,,,,,,,,0.0,4.0,4.0,11.0,165.72139890000108,,,,,,,,,,,,,,,,,165.70685149999915,166.07122240000172,166.87047280000115,166.8551718000017,,,,,,,,,,,,,,,,,,,,,,,,,,,,,,,,,,,166.85856100000092,166.87047280000115,166.87047280000115,167.6554227000015,g,1.0,0.774695400003111,,,,,sub-108,1,stroop_test,59.990485509007286,
,,,,5.0,5.0,0.0,,,,,,,,,,,,,blau,blue,b,1.0,b,1.0,0.5024648000035086,,,,,,,,,,0.0,5.0,5.0,5.0,167.67012579999573,,,,,,,,,,,,,,,,,167.6558012999958,168.86983489999693,169.66875569999684,169.65398730000015,,,,,,,,,,,,,,,,,,,,,,,,,,,,,,,,,,,169.65696949999983,169.66875569999684,169.66875569999684,170.1868267000027,b,1.0,0.5024648000035086,,,,,sub-108,1,stroop_test,59.990485509007286,
,,,,6.0,6.0,0.0,,,,,,,,,,,,,blau,blue,b,1.0,b,1.0,1.0955611000026693,,,,,,,,,,0.0,6.0,6.0,6.0,170.20187099999748,,,,,,,,,,,,,,,,,170.18723840000166,171.00122510000074,171.8008043000009,171.78523680000217,,,,,,,,,,,,,,,,,,,,,,,,,,,,,,,,,,,171.7858974999981,171.8008043000009,171.8008043000009,172.90148339999723,b,1.0,1.0955611000026693,,,,,sub-108,1,stroop_test,59.990485509007286,
,,,,7.0,7.0,0.0,,,,,,,,,,,,,rot,blue,b,0.0,b,1.0,0.7488424000039231,,,,,,,,,,0.0,7.0,7.0,2.0,172.91688959999738,,,,,,,,,,,,,,,,,172.90179270000226,173.26638799999637,174.06612339999992,174.0506252999985,,,,,,,,,,,,,,,,,,,,,,,,,,,,,,,,,,,174.0537897999966,174.06612339999992,174.06612339999992,174.81777309999595,b,1.0,0.7488424000039231,,,,,sub-108,1,stroop_test,59.990485509007286,
,,,,8.0,8.0,0.0,,,,,,,,,,,,,rot,red,r,1.0,r,1.0,0.5992058999981964,,,,,,,,,,0.0,8.0,8.0,1.0,174.8321491999959,,,,,,,,,,,,,,,,,174.81811999999627,174.9322194999986,175.73177230000147,175.71678959999554,,,,,,,,,,,,,,,,,,,,,,,,,,,,,,,,,,,175.71761510000215,175.73177230000147,175.73177230000147,176.33383109999704,r,1.0,0.5992058999981964,,,,,sub-108,1,stroop_test,59.990485509007286,
,,,,9.0,9.0,0.0,,,,,,,,,,,,,rot,red,r,1.0,r,1.0,0.5021116999996593,,,,,,,,,,0.0,9.0,9.0,0.0,176.34800320000068,,,,,,,,,,,,,,,,,176.33417219999683,177.54763749999984,178.34650490000058,178.33156980000058,,,,,,,,,,,,,,,,,,,,,,,,,,,,,,,,,,,178.33225739999762,178.34650490000058,178.34650490000058,178.8642559,r,1.0,0.5021116999996593,,,,,sub-108,1,stroop_test,59.990485509007286,
,,,,10.0,10.0,0.0,,,,,,,,,,,,,gelb,yellow,g,1.0,g,1.0,0.5073438999970676,,,,,,,,,,0.0,10.0,10.0,10.0,178.8795050999979,,,,,,,,,,,,,,,,,178.86457099999825,180.07880429999932,180.87834920000023,180.86282950000168,,,,,,,,,,,,,,,,,,,,,,,,,,,,,,,,,,,180.8660488999958,180.87834920000023,180.87834920000023,181.39631489999735,g,1.0,0.5073438999970676,,,,,sub-108,1,stroop_test,59.990485509007286,
,,,,11.0,11.0,0.0,,,,,,,,,,,,,gelb,blue,b,0.0,b,1.0,0.6760598000037135,,,,,,,,,,0.0,11.0,11.0,9.0,181.41109180000055,,,,,,,,,,,,,,,,,181.39665319999767,182.61078329999876,183.4101235999988,183.39475800000216,,,,,,,,,,,,,,,,,,,,,,,,,,,,,,,,,,,183.39541160000223,183.4101235999988,183.4101235999988,184.09560809999675,b,1.0,0.6760598000037135,,,,,sub-108,1,stroop_test,59.990485509007286,
,,,,12.0,0.0,1.0,,,,,,,,,,,,,gelb,yellow,g,1.0,g,1.0,0.9522259000004852,,,,,,,,,,1.0,0.0,12.0,11.0,184.10979679999585,,,,,,,,,,,,,,,,,184.0960991999964,184.90921389999855,185.70865480000063,185.69374419999804,,,,,,,,,,,,,,,,,,,,,,,,,,,,,,,,,,,185.69432470000172,185.70865480000063,185.70865480000063,186.6765086000014,g,1.0,0.9522259000004852,,,,,sub-108,1,stroop_test,59.990485509007286,
,,,,13.0,1.0,1.0,,,,,,,,,,,,,blau,blue,b,1.0,b,1.0,1.0788309999988996,,,,,,,,,,1.0,1.0,13.0,5.0,186.69151740000237,,,,,,,,,,,,,,,,,186.67687119999755,187.0412234999967,187.84078919999592,187.8253956999979,,,,,,,,,,,,,,,,,,,,,,,,,,,,,,,,,,,187.8286384999956,187.84078919999592,187.84078919999592,188.924207899996,b,1.0,1.0788309999988996,,,,,sub-108,1,stroop_test,59.990485509007286,
,,,,14.0,2.0,1.0,,,,,,,,,,,,,rot,yellow,g,0.0,g,1.0,0.5384026000028825,,,,,,,,,,1.0,2.0,14.0,3.0,188.93998809999903,,,,,,,,,,,,,,,,,188.92454500000167,189.73961269999563,190.53868639999564,190.5245872000014,,,,,,,,,,,,,,,,,,,,,,,,,,,,,,,,,,,190.52839569999924,190.53868639999564,190.53868639999564,191.090285899998,g,1.0,0.5384026000028825,,,,,sub-108,1,stroop_test,59.990485509007286,
,,,,15.0,3.0,1.0,,,,,,,,,,,,,rot,blue,b,0.0,b,1.0,0.5783566000027349,,,,,,,,,,1.0,3.0,15.0,2.0,191.10510169999907,,,,,,,,,,,,,,,,,191.090644099997,192.30451750000063,193.10413659999904,193.08962109999996,,,,,,,,,,,,,,,,,,,,,,,,,,,,,,,,,,,193.0902825000012,193.10413659999904,193.10413659999904,193.6893398999964,b,1.0,0.5783566000027349,,,,,sub-108,1,stroop_test,59.990485509007286,
,,,,16.0,4.0,1.0,,,,,,,,,,,,,gelb,red,r,0.0,r,1.0,0.4476709999944432,,,,,,,,,,1.0,4.0,16.0,8.0,193.7038704000006,,,,,,,,,,,,,,,,,193.6897351000007,194.0535903999989,194.8528216999985,194.8378365000026,,,,,,,,,,,,,,,,,,,,,,,,,,,,,,,,,,,194.84341270000004,194.8528216999985,194.8528216999985,195.3041039000018,r,1.0,0.4476709999944432,,,,,sub-108,1,stroop_test,59.990485509007286,
,,,,17.0,5.0,1.0,,,,,,,,,,,,,gelb,yellow,g,1.0,g,1.0,0.5346673000021838,,,,,,,,,,1.0,5.0,17.0,10.0,195.31899359999807,,,,,,,,,,,,,,,,,195.30440590000217,195.4191232000012,196.21877439999665,196.20324139999863,,,,,,,,,,,,,,,,,,,,,,,,,,,,,,,,,,,196.2038407,196.21877439999665,196.21877439999665,196.7696408999982,g,1.0,0.5346673000021838,,,,,sub-108,1,stroop_test,59.990485509007286,
,,,,18.0,6.0,1.0,,,,,,,,,,,,,blau,red,r,0.0,r,1.0,0.5509479000029387,,,,,,,,,,1.0,6.0,18.0,4.0,196.7851621000009,,,,,,,,,,,,,,,,,196.76999709999652,196.88490830000228,197.6843615999969,197.6695451999985,,,,,,,,,,,,,,,,,,,,,,,,,,,,,,,,,,,197.6731696999996,197.6843615999969,197.6843615999969,198.2524473000012,r,1.0,0.5509479000029387,,,,,sub-108,1,stroop_test,59.990485509007286,
,,,,19.0,7.0,1.0,,,,,,,,,,,,,blau,yellow,g,0.0,g,1.0,0.8787465000059456,,,,,,,,,,1.0,7.0,19.0,7.0,198.2672789999997,,,,,,,,,,,,,,,,,198.25297449999923,198.6173722000021,199.41661870000095,199.40083819999563,,,,,,,,,,,,,,,,,,,,,,,,,,,,,,,,,,,199.4011941999997,199.41661870000095,199.41661870000095,200.30261079999764,g,1.0,0.8787465000059456,,,,,sub-108,1,stroop_test,59.990485509007286,
,,,,20.0,8.0,1.0,,,,,,,,,,,,,blau,blue,b,1.0,b,1.0,0.6558408000055351,,,,,,,,,,1.0,8.0,20.0,6.0,200.3159902999978,,,,,,,,,,,,,,,,,200.30300039999565,201.51531509999768,202.31533859999763,202.29909079999925,,,,,,,,,,,,,,,,,,,,,,,,,,,,,,,,,,,202.2996237999978,202.31533859999763,202.31533859999763,202.9838485,b,1.0,0.6558408000055351,,,,,sub-108,1,stroop_test,59.990485509007286,
,,,,21.0,9.0,1.0,,,,,,,,,,,,,rot,red,r,1.0,r,1.0,0.4143456000019796,,,,,,,,,,1.0,9.0,21.0,0.0,202.9978341000024,,,,,,,,,,,,,,,,,202.9846614999988,204.19699749999563,204.9961716999969,204.9812015999996,,,,,,,,,,,,,,,,,,,,,,,,,,,,,,,,,,,204.9843370000017,204.9961716999969,204.9961716999969,205.4148589999968,r,1.0,0.4143456000019796,,,,,sub-108,1,stroop_test,59.990485509007286,
,,,,22.0,10.0,1.0,,,,,,,,,,,,,gelb,blue,b,0.0,b,1.0,2.4171993999989354,,,,,,,,,,1.0,10.0,22.0,9.0,205.4293938999981,,,,,,,,,,,,,,,,,205.41523400000003,205.5293789999996,206.32890880000195,206.31343789999664,,,,,,,,,,,,,,,,,,,,,,,,,,,,,,,,,,,206.31773299999625,206.32890880000195,206.32890880000195,208.76348419999704,b,1.0,2.4171993999989354,,,,,sub-108,1,stroop_test,59.990485509007286,
,,,,23.0,11.0,1.0,,,,,,,,,,,,,rot,red,r,1.0,r,1.0,0.5017683999976725,,,,,,,,,,1.0,11.0,23.0,1.0,208.77764500000197,,,,,,,,,,,,,,,,,208.7643259999968,209.57694320000155,210.3763338999997,210.36085599999933,,,,,,,,,,,,,,,,,,,,,,,,,,,,,,,,,,,210.36434310000183,210.3763338999997,210.3763338999997,210.894089100002,r,1.0,0.5017683999976725,,,,,sub-108,1,stroop_test,59.990485509007286,
,,,,24.0,0.0,2.0,,,,,,,,,,,,,rot,blue,b,0.0,b,1.0,0.980734400000074,,,,,,,,,,2.0,0.0,24.0,2.0,210.90911590000175,,,,,,,,,,,,,,,,,210.8944202999992,211.00928150000252,211.8088850999993,211.79322980000143,,,,,,,,,,,,,,,,,,,,,,,,,,,,,,,,,,,211.79378359999828,211.8088850999993,211.8088850999993,212.79554980000103,b,1.0,0.980734400000074,,,,,sub-108,1,stroop_test,59.990485509007286,
,,,,25.0,1.0,2.0,,,,,,,,,,,,,blau,blue,b,1.0,b,1.0,0.5749923999974271,,,,,,,,,,2.0,1.0,25.0,6.0,212.80816129999585,,,,,,,,,,,,,,,,,212.79628260000027,213.60775920000012,214.4068543999965,214.39270979999856,,,,,,,,,,,,,,,,,,,,,,,,,,,,,,,,,,,214.39668459999663,214.4068543999965,214.4068543999965,214.9924557999984,b,1.0,0.5749923999974271,,,,,sub-108,1,stroop_test,59.990485509007286,
,,,,26.0,2.0,2.0,,,,,,,,,,,,,gelb,yellow,g,1.0,g,1.0,0.3902253999985987,,,,,,,,,,2.0,2.0,26.0,10.0,215.00650360000145,,,,,,,,,,,,,,,,,214.99285509999757,216.2058905000013,217.0055552999984,216.98999619999813,,,,,,,,,,,,,,,,,,,,,,,,,,,,,,,,,,,216.9952695999964,217.0055552999984,217.0055552999984,217.40751559999623,g,1.0,0.3902253999985987,,,,,sub-108,1,stroop_test,59.990485509007286,
,,,,27.0,3.0,2.0,,,,,,,,,,,,,gelb,red,r,0.0,r,1.0,0.5550608999983524,,,,,,,,,,2.0,3.0,27.0,8.0,217.42203780000276,,,,,,,,,,,,,,,,,217.40800070000117,218.6210318000012,219.42048200000136,219.40600489999636,,,,,,,,,,,,,,,,,,,,,,,,,,,,,,,,,,,219.4065116999991,219.42048200000136,219.42048200000136,219.9898281999995,r,1.0,0.5550608999983524,,,,,sub-108,1,stroop_test,59.990485509007286,
,,,,28.0,4.0,2.0,,,,,,,,,,,,,blau,blue,b,1.0,b,1.0,0.6081651999993483,,,,,,,,,,2.0,4.0,28.0,5.0,220.0034040000028,,,,,,,,,,,,,,,,,219.9906846000013,220.35322469999664,221.15265949999596,221.13898589999732,,,,,,,,,,,,,,,,,,,,,,,,,,,,,,,,,,,221.14283050000083,221.15265949999596,221.15265949999596,221.77164900000207,b,1.0,0.6081651999993483,,,,,sub-108,1,stroop_test,59.990485509007286,
,,,,29.0,5.0,2.0,,,,,,,,,,,,,blau,red,r,0.0,r,1.0,0.8736672999948496,,,,,,,,,,2.0,5.0,29.0,4.0,221.78575350000028,,,,,,,,,,,,,,,,,221.77216490000137,221.88559549999627,222.68520329999592,222.6697028999988,,,,,,,,,,,,,,,,,,,,,,,,,,,,,,,,,,,222.6703718999997,222.68520329999592,222.68520329999592,223.570558499996,r,1.0,0.8736672999948496,,,,,sub-108,1,stroop_test,59.990485509007286,
,,,,30.0,6.0,2.0,,,,,,,,,,,,,gelb,yellow,g,1.0,g,1.0,0.3098432999977376,,,,,,,,,,2.0,6.0,30.0,11.0,223.58456779999688,,,,,,,,,,,,,,,,,223.5712005999958,224.78392639999947,225.58318439999857,225.5686107000001,,,,,,,,,,,,,,,,,,,,,,,,,,,,,,,,,,,225.57550159999664,225.58318439999857,225.58318439999857,225.90207409999857,g,1.0,0.3098432999977376,,,,,sub-108,1,stroop_test,59.990485509007286,
,,,,31.0,7.0,2.0,,,,,,,,,,,,,rot,red,r,1.0,r,1.0,0.3072431000036886,,,,,,,,,,2.0,7.0,31.0,0.0,225.9166710999998,,,,,,,,,,,,,,,,,225.9027633000005,227.1157106000028,227.91526069999964,227.8993870999984,,,,,,,,,,,,,,,,,,,,,,,,,,,,,,,,,,,227.90211499999717,227.91526069999964,227.91526069999964,228.23366169999645,r,1.0,0.3072431000036886,,,,,sub-108,1,stroop_test,59.990485509007286,
,,,,32.0,8.0,2.0,,,,,,,,,,,,,gelb,blue,b,0.0,b,1.0,0.3392462999981944,,,,,,,,,,2.0,8.0,32.0,9.0,228.248099299999,,,,,,,,,,,,,,,,,228.2341067000016,229.04766720000043,229.84741570000187,229.8315844000026,,,,,,,,,,,,,,,,,,,,,,,,,,,,,,,,,,,229.8350263999964,229.84741570000187,229.84741570000187,230.198927999998,b,1.0,0.3392462999981944,,,,,sub-108,1,stroop_test,59.990485509007286,
,,,,33.0,9.0,2.0,,,,,,,,,,,,,blau,yellow,g,0.0,g,1.0,0.7665807000012137,,,,,,,,,,2.0,9.0,33.0,7.0,230.2140967000014,,,,,,,,,,,,,,,,,230.19929930000217,230.31348559999608,231.1131014999992,231.09783900000184,,,,,,,,,,,,,,,,,,,,,,,,,,,,,,,,,,,231.10067120000167,231.1131014999992,231.1131014999992,231.88481019999745,g,1.0,0.7665807000012137,,,,,sub-108,1,stroop_test,59.990485509007286,
,,,,34.0,10.0,2.0,,,,,,,,,,,,,rot,red,r,1.0,r,1.0,0.3037277000039466,,,,,,,,,,2.0,10.0,34.0,1.0,231.89590869999665,,,,,,,,,,,,,,,,,231.8856029000017,233.0950257000004,233.89456770000103,233.8799519000022,,,,,,,,,,,,,,,,,,,,,,,,,,,,,,,,,,,233.8854934999981,233.89456770000103,233.89456770000103,234.21367589999863,r,1.0,0.3037277000039466,,,,,sub-108,1,stroop_test,59.990485509007286,
,,,,35.0,11.0,2.0,,,,,,,,,,,,,rot,yellow,g,0.0,g,1.0,0.6293580000055954,,,,,,,,,,2.0,11.0,35.0,3.0,234.2276224000016,,,,,,,,,,,,,,,,,234.2140752999985,234.5778587999957,235.37722419999773,235.36153969999577,,,,,,,,,,,,,,,,,,,,,,,,,,,,,,,,,,,235.3621534999984,235.37722419999773,235.37722419999773,236.0116007999968,g,1.0,0.6293580000055954,,,,,sub-108,1,stroop_test,59.990485509007286,
,,,,36.0,0.0,3.0,,,,,,,,,,,,,rot,blue,b,0.0,b,1.0,0.3442154000003938,,,,,,,,,,3.0,0.0,36.0,2.0,236.0267501999988,,,,,,,,,,,,,,,,,236.01197179999872,237.22643999999852,238.0417910999968,238.02671910000208,,,,,,,,,,,,,,,,,,,,,,,,,,,,,,,,,,,238.02726309999707,238.0417910999968,238.0417910999968,238.3960206999982,b,1.0,0.3442154000003938,,,,,sub-108,1,stroop_test,59.990485509007286,
,,,,37.0,1.0,3.0,,,,,,,,,,,,,blau,yellow,g,0.0,g,1.0,0.3679779000012786,,,,,,,,,,3.0,1.0,37.0,7.0,238.40843299999688,,,,,,,,,,,,,,,,,238.396665399996,238.7582964999965,239.55781040000147,239.542726300002,,,,,,,,,,,,,,,,,,,,,,,,,,,,,,,,,,,239.5481851000004,239.55781040000147,239.55781040000147,239.94298130000243,g,1.0,0.3679779000012786,,,,,sub-108,1,stroop_test,59.990485509007286,
,,,,38.0,2.0,3.0,,,,,,,,,,,,,rot,red,r,1.0,r,1.0,0.3179309999977704,,,,,,,,,,3.0,2.0,38.0,0.0,239.95781680000076,,,,,,,,,,,,,,,,,239.94381260000227,240.75727870000264,241.5567587999976,241.540889099997,,,,,,,,,,,,,,,,,,,,,,,,,,,,,,,,,,,241.54440990000148,241.5567587999976,241.5567587999976,241.89165669999784,r,1.0,0.3179309999977704,,,,,sub-108,1,stroop_test,59.990485509007286,
,,,,39.0,3.0,3.0,,,,,,,,,,,,,gelb,red,r,0.0,r,1.0,0.3485931999966851,,,,,,,,,,3.0,3.0,39.0,8.0,241.9064395999958,,,,,,,,,,,,,,,,,241.89203679999628,242.7060567000008,243.50512770000205,243.48992110000108,,,,,,,,,,,,,,,,,,,,,,,,,,,,,,,,,,,243.49311209999723,243.50512770000205,243.50512770000205,243.85815739999816,r,1.0,0.3485931999966851,,,,,sub-108,1,stroop_test,59.990485509007286,
,,,,40.0,4.0,3.0,,,,,,,,,,,,,rot,yellow,g,0.0,g,1.0,0.5086262999975588,,,,,,,,,,3.0,4.0,40.0,3.0,243.87197860000012,,,,,,,,,,,,,,,,,243.85866649999664,244.2214236,245.02100169999903,245.0059878999964,,,,,,,,,,,,,,,,,,,,,,,,,,,,,,,,,,,245.00935239999671,245.02100169999903,245.02100169999903,245.5390449999977,g,1.0,0.5086262999975588,,,,,sub-108,1,stroop_test,59.990485509007286,
,,,,41.0,5.0,3.0,,,,,,,,,,,,,blau,blue,b,1.0,b,1.0,0.3290435000017169,,,,,,,,,,3.0,5.0,41.0,5.0,245.55398229999992,,,,,,,,,,,,,,,,,245.53941739999573,246.7538671000002,247.55266100000156,247.5377879000007,,,,,,,,,,,,,,,,,,,,,,,,,,,,,,,,,,,247.54160849999607,247.55266100000156,247.55266100000156,247.88818889999675,b,1.0,0.3290435000017169,,,,,sub-108,1,stroop_test,59.990485509007286,
,,,,42.0,6.0,3.0,,,,,,,,,,,,,blau,red,r,0.0,r,1.0,0.5709028999990551,,,,,,,,,,3.0,6.0,42.0,4.0,247.90239909999943,,,,,,,,,,,,,,,,,247.88877720000164,248.2523491999964,249.0518041999967,249.0370987999995,,,,,,,,,,,,,,,,,,,,,,,,,,,,,,,,,,,249.03790280000248,249.0518041999967,249.0518041999967,249.6370448000016,r,1.0,0.5709028999990551,,,,,sub-108,1,stroop_test,59.990485509007286,
,,,,43.0,7.0,3.0,,,,,,,,,,,,,gelb,blue,b,0.0,b,1.0,0.5241544000018621,,,,,,,,,,3.0,7.0,43.0,9.0,249.6514509999979,,,,,,,,,,,,,,,,,249.6373403999969,250.45086199999787,251.2502889000025,251.23487529999693,,,,,,,,,,,,,,,,,,,,,,,,,,,,,,,,,,,251.2378847,251.2502889000025,251.2502889000025,251.78401769999616,b,1.0,0.5241544000018621,,,,,sub-108,1,stroop_test,59.990485509007286,
,,,,44.0,8.0,3.0,,,,,,,,,,,,,gelb,yellow,g,1.0,g,1.0,0.3607363000046462,,,,,,,,,,3.0,8.0,44.0,10.0,251.7995408999996,,,,,,,,,,,,,,,,,251.78429360000155,252.59916720000183,253.3986833000017,253.3827287000022,,,,,,,,,,,,,,,,,,,,,,,,,,,,,,,,,,,253.383110099996,253.3986833000017,253.3986833000017,253.7674847000017,g,1.0,0.3607363000046462,,,,,sub-108,1,stroop_test,59.990485509007286,
,,,,45.0,9.0,3.0,,,,,,,,,,,,,rot,red,r,1.0,r,1.0,0.3201125999985379,,,,,,,,,,3.0,9.0,45.0,1.0,253.7816926000014,,,,,,,,,,,,,,,,,253.76791679999587,254.98140279999643,255.78043179999804,255.7653419999988,,,,,,,,,,,,,,,,,,,,,,,,,,,,,,,,,,,255.77062319999823,255.78043179999804,255.78043179999804,256.11547569999675,r,1.0,0.3201125999985379,,,,,sub-108,1,stroop_test,59.990485509007286,
,,,,46.0,10.0,3.0,,,,,,,,,,,,,blau,blue,b,1.0,b,1.0,0.6058288000058383,,,,,,,,,,3.0,10.0,46.0,6.0,256.13034340000013,,,,,,,,,,,,,,,,,256.1158185000022,256.2302220999991,257.0297509000011,257.0148790000021,,,,,,,,,,,,,,,,,,,,,,,,,,,,,,,,,,,257.0190698000006,257.0297509000011,257.0297509000011,257.6486022999961,b,1.0,0.6058288000058383,,,,,sub-108,1,stroop_test,59.990485509007286,
,,,,47.0,11.0,3.0,,,,,,,,,,,,,gelb,yellow,g,1.0,g,1.0,0.3211823999954504,,,,,,,,,,3.0,11.0,47.0,11.0,257.66297420000046,,,,,,,,,,,,,,,,,257.649096299996,258.46204430000216,259.26199110000016,259.2466373999996,,,,,,,,,,,,,,,,,,,,,,,,,,,,,,,,,,,259.25055789999897,259.26199110000016,259.26199110000016,259.5975228000025,g,1.0,0.3211823999954504,,,,,sub-108,1,stroop_test,59.990485509007286,
,,,,48.0,0.0,4.0,,,,,,,,,,,,,blau,blue,b,1.0,b,1.0,0.5324554999970132,,,,,,,,,,4.0,0.0,48.0,6.0,259.61155499999586,,,,,,,,,,,,,,,,,259.5981654999996,259.9614681000021,260.7610094999982,260.74614139999903,,,,,,,,,,,,,,,,,,,,,,,,,,,,,,,,,,,260.7502555999963,260.7610094999982,260.7610094999982,261.2974688999966,b,1.0,0.5324554999970132,,,,,sub-108,1,stroop_test,59.990485509007286,
,,,,49.0,1.0,4.0,,,,,,,,,,,,,gelb,blue,b,0.0,b,1.0,0.7730620000002091,,,,,,,,,,4.0,1.0,49.0,9.0,261.3106692000001,,,,,,,,,,,,,,,,,261.2979086999985,261.4104394000024,262.2098069999993,262.1939601999984,,,,,,,,,,,,,,,,,,,,,,,,,,,,,,,,,,,262.19849409999733,262.2098069999993,262.2098069999993,262.99372669999866,b,1.0,0.7730620000002091,,,,,sub-108,1,stroop_test,59.990485509007286,
,,,,50.0,2.0,4.0,,,,,,,,,,,,,gelb,red,r,0.0,r,1.0,0.5461457000055816,,,,,,,,,,4.0,2.0,50.0,8.0,263.00942219999706,,,,,,,,,,,,,,,,,262.99399899999844,263.09282549999625,263.892302799999,263.8772200999956,,,,,,,,,,,,,,,,,,,,,,,,,,,,,,,,,,,263.87795650000044,263.892302799999,263.892302799999,264.44298600000184,r,1.0,0.5461457000055816,,,,,sub-108,1,stroop_test,59.990485509007286,
,,,,51.0,3.0,4.0,,,,,,,,,,,,,blau,yellow,g,0.0,g,1.0,0.357756800003699,,,,,,,,,,4.0,3.0,51.0,7.0,264.4584958999985,,,,,,,,,,,,,,,,,264.44330369999807,264.80852479999885,265.6076396999997,265.5924149999992,,,,,,,,,,,,,,,,,,,,,,,,,,,,,,,,,,,265.5951914999969,265.6076396999997,265.6076396999997,265.9764528000014,g,1.0,0.357756800003699,,,,,sub-108,1,stroop_test,59.990485509007286,
,,,,52.0,4.0,4.0,,,,,,,,,,,,,rot,red,r,1.0,r,1.0,0.4868661000000429,,,,,,,,,,4.0,4.0,52.0,0.0,265.9907811000012,,,,,,,,,,,,,,,,,265.9768067999976,266.0908574999994,266.8904057999971,266.87474959999963,,,,,,,,,,,,,,,,,,,,,,,,,,,,,,,,,,,266.87736700000096,266.8904057999971,266.8904057999971,267.3939362000019,r,1.0,0.4868661000000429,,,,,sub-108,1,stroop_test,59.990485509007286,
,,,,53.0,5.0,4.0,,,,,,,,,,,,,rot,yellow,g,0.0,g,1.0,1.5038809000034234,,,,,,,,,,4.0,5.0,53.0,3.0,267.4066711999985,,,,,,,,,,,,,,,,,267.3945137999981,267.75651279999875,268.5558572000009,268.5402594999978,,,,,,,,,,,,,,,,,,,,,,,,,,,,,,,,,,,268.54076050000003,268.5558572000009,268.5558572000009,270.0731664999985,g,1.0,1.5038809000034234,,,,,sub-108,1,stroop_test,59.990485509007286,
,,,,54.0,6.0,4.0,,,,,,,,,,,,,gelb,yellow,g,1.0,g,1.0,0.3119043999977293,,,,,,,,,,4.0,6.0,54.0,11.0,270.08839779999835,,,,,,,,,,,,,,,,,270.0735151999979,270.8877014000027,271.687459599998,271.67167999999947,,,,,,,,,,,,,,,,,,,,,,,,,,,,,,,,,,,271.67511569999624,271.687459599998,271.687459599998,272.00620199999685,g,1.0,0.3119043999977293,,,,,sub-108,1,stroop_test,59.990485509007286,
,,,,55.0,7.0,4.0,,,,,,,,,,,,,blau,blue,b,1.0,b,1.0,0.3074889999988954,,,,,,,,,,4.0,7.0,55.0,5.0,272.02062699999806,,,,,,,,,,,,,,,,,272.0066201000009,273.21967759999825,274.0190537000017,274.0036254000006,,,,,,,,,,,,,,,,,,,,,,,,,,,,,,,,,,,274.0074237000008,274.0190537000017,274.0190537000017,274.33793909999804,b,1.0,0.3074889999988954,,,,,sub-108,1,stroop_test,59.990485509007286,
,,,,56.0,8.0,4.0,,,,,,,,,,,,,blau,red,r,0.0,r,1.0,0.3285576999987825,,,,,,,,,,4.0,8.0,56.0,4.0,274.35215459999745,,,,,,,,,,,,,,,,,274.33835369999724,274.70208560000174,275.5017602000007,275.48575100000016,,,,,,,,,,,,,,,,,,,,,,,,,,,,,,,,,,,275.4862914999976,275.5017602000007,275.5017602000007,275.8364167999971,r,1.0,0.3285576999987825,,,,,sub-108,1,stroop_test,59.990485509007286,
,,,,57.0,9.0,4.0,,,,,,,,,,,,,gelb,yellow,g,1.0,g,1.0,0.3395059999966179,,,,,,,,,,4.0,9.0,57.0,10.0,275.85118469999725,,,,,,,,,,,,,,,,,275.83672690000094,276.2010728999958,277.000895899997,276.98632709999947,,,,,,,,,,,,,,,,,,,,,,,,,,,,,,,,,,,276.9935848000023,277.000895899997,277.000895899997,277.352205999996,g,1.0,0.3395059999966179,,,,,sub-108,1,stroop_test,59.990485509007286,
,,,,58.0,10.0,4.0,,,,,,,,,,,,,rot,blue,b,0.0,b,1.0,0.531802700003027,,,,,,,,,,4.0,10.0,58.0,2.0,277.3668544999964,,,,,,,,,,,,,,,,,277.35248839999986,277.46674489999714,278.266415099999,278.2514452999967,,,,,,,,,,,,,,,,,,,,,,,,,,,,,,,,,,,278.254895500002,278.266415099999,278.266415099999,278.80179130000033,b,1.0,0.531802700003027,,,,,sub-108,1,stroop_test,59.990485509007286,
,,,,59.0,11.0,4.0,,,,,,,,,,,,,rot,red,r,1.0,r,1.0,0.4792273999992176,,,,,,,,,,4.0,11.0,59.0,1.0,278.81628620000265,,,,,,,,,,,,,,,,,278.8022007999971,279.16601359999913,279.9657531999983,279.94990130000224,,,,,,,,,,,,,,,,,,,,,,,,,,,,,,,,,,,279.950430799996,279.9657531999983,279.9657531999983,280.4498992000008,r,1.0,0.4792273999992176,,,,,sub-108,1,stroop_test,59.990485509007286,
,,,,60.0,0.0,5.0,,,,,,,,,,,,,blau,blue,b,1.0,b,1.0,0.4976059999971767,,,,,,,,,,5.0,0.0,60.0,5.0,280.4648238000009,,,,,,,,,,,,,,,,,280.45027789999585,281.6646562000024,282.4804170999996,282.4646314999991,,,,,,,,,,,,,,,,,,,,,,,,,,,,,,,,,,,282.46849230000225,282.4804170999996,282.4804170999996,282.98150180000084,b,1.0,0.4976059999971767,,,,,sub-108,1,stroop_test,59.990485509007286,
,,,,61.0,1.0,5.0,,,,,,,,,,,,,rot,yellow,g,0.0,g,1.0,0.3794558000008692,,,,,,,,,,5.0,1.0,61.0,3.0,282.99662810000154,,,,,,,,,,,,,,,,,282.981804199997,284.1958818999992,284.99544289999903,284.9804654999971,,,,,,,,,,,,,,,,,,,,,,,,,,,,,,,,,,,284.9850299999962,284.99544289999903,284.99544289999903,285.3800416000013,g,1.0,0.3794558000008692,,,,,sub-108,1,stroop_test,59.990485509007286,
,,,,62.0,2.0,5.0,,,,,,,,,,,,,blau,blue,b,1.0,b,1.0,0.4774195999998483,,,,,,,,,,5.0,2.0,62.0,6.0,285.3949270000012,,,,,,,,,,,,,,,,,285.38039690000005,286.59491960000014,287.39426919999823,287.378249100002,,,,,,,,,,,,,,,,,,,,,,,,,,,,,,,,,,,287.3805864000024,287.39426919999823,287.39426919999823,287.87854789999983,b,1.0,0.4774195999998483,,,,,sub-108,1,stroop_test,59.990485509007286,
,,,,63.0,3.0,5.0,,,,,,,,,,,,,gelb,yellow,g,1.0,g,1.0,1.01830119999795,,,,,,,,,,5.0,3.0,63.0,11.0,287.89388869999675,,,,,,,,,,,,,,,,,287.8788706999985,288.24353919999703,289.04306240000005,289.02814170000056,,,,,,,,,,,,,,,,,,,,,,,,,,,,,,,,,,,289.03573699999833,289.04306240000005,289.04306240000005,290.0782113999958,g,1.0,1.01830119999795,,,,,sub-108,1,stroop_test,59.990485509007286,
,,,,64.0,4.0,5.0,,,,,,,,,,,,,rot,blue,b,0.0,b,1.0,0.3191495999999461,,,,,,,,,,5.0,4.0,64.0,2.0,290.09212449999904,,,,,,,,,,,,,,,,,290.0786012999961,291.29187549999915,292.0910570999986,292.0770016000024,,,,,,,,,,,,,,,,,,,,,,,,,,,,,,,,,,,292.0815184999956,292.0910570999986,292.0910570999986,292.42691059999925,b,1.0,0.3191495999999461,,,,,sub-108,1,stroop_test,59.990485509007286,
,,,,65.0,5.0,5.0,,,,,,,,,,,,,blau,yellow,g,0.0,g,1.0,0.5269388000015169,,,,,,,,,,5.0,5.0,65.0,7.0,292.4413563999988,,,,,,,,,,,,,,,,,292.4273240999973,293.640562200002,294.4394248000026,294.42481430000043,,,,,,,,,,,,,,,,,,,,,,,,,,,,,,,,,,,294.42925419999665,294.4394248000026,294.4394248000026,294.97455980000086,g,1.0,0.5269388000015169,,,,,sub-108,1,stroop_test,59.990485509007286,
,,,,66.0,6.0,5.0,,,,,,,,,,,,,rot,red,r,1.0,r,1.0,0.3575090000013006,,,,,,,,,,5.0,6.0,66.0,1.0,294.9893632999956,,,,,,,,,,,,,,,,,294.9749515000003,295.08948280000186,295.88850439999806,295.8737353999968,,,,,,,,,,,,,,,,,,,,,,,,,,,,,,,,,,,295.87683000000106,295.88850439999806,295.88850439999806,296.25858029999654,r,1.0,0.3575090000013006,,,,,sub-108,1,stroop_test,59.990485509007286,
,,,,67.0,7.0,5.0,,,,,,,,,,,,,blau,red,r,0.0,r,1.0,0.4312351999979,,,,,,,,,,5.0,7.0,67.0,4.0,296.2717437999964,,,,,,,,,,,,,,,,,296.25895599999785,297.4709819999989,298.2704419000001,298.25484300000244,,,,,,,,,,,,,,,,,,,,,,,,,,,,,,,,,,,298.2575036999988,298.2704419000001,298.2704419000001,298.7048616999964,r,1.0,0.4312351999979,,,,,sub-108,1,stroop_test,59.990485509007286,
,,,,68.0,8.0,5.0,,,,,,,,,,,,,gelb,red,r,0.0,r,1.0,0.5546394999983022,,,,,,,,,,5.0,8.0,68.0,8.0,298.71999979999964,,,,,,,,,,,,,,,,,298.7051038999998,299.5199477999995,300.3192870999992,300.3041568999979,,,,,,,,,,,,,,,,,,,,,,,,,,,,,,,,,,,300.3094600999975,300.3192870999992,300.3192870999992,300.88756869999634,r,1.0,0.5546394999983022,,,,,sub-108,1,stroop_test,59.990485509007286,
,,,,69.0,9.0,5.0,,,,,,,,,,,,,gelb,yellow,g,1.0,g,1.0,0.3152011999991373,,,,,,,,,,5.0,9.0,69.0,10.0,300.9021483999968,,,,,,,,,,,,,,,,,300.887950999997,301.2516132000019,302.0513385000013,302.03556260000187,,,,,,,,,,,,,,,,,,,,,,,,,,,,,,,,,,,302.0360406999971,302.0513385000013,302.0513385000013,302.3698835999967,g,1.0,0.3152011999991373,,,,,sub-108,1,stroop_test,59.990485509007286,
,,,,70.0,10.0,5.0,,,,,,,,,,,,,rot,red,r,1.0,r,1.0,0.3314928000036161,,,,,,,,,,5.0,10.0,70.0,0.0,302.3843734999973,,,,,,,,,,,,,,,,,302.3702940000003,302.4845448999986,303.2838875000016,303.2683739999993,,,,,,,,,,,,,,,,,,,,,,,,,,,,,,,,,,,303.2711995999998,303.2838875000016,303.2838875000016,303.61972129999776,r,1.0,0.3314928000036161,,,,,sub-108,1,stroop_test,59.990485509007286,
,,,,71.0,11.0,5.0,,,,,,,,,,,,,gelb,blue,b,0.0,b,1.0,0.3484140000000479,,,,,,,,,,5.0,11.0,71.0,9.0,303.63351749999856,,,,,,,,,,,,,,,,,303.6200935000016,304.433546399996,305.2326071999996,305.2169367000024,,,,,,,,,,,,,,,,,,,,,,,,,,,,,,,,,,,305.22022509999806,305.2326071999996,305.2326071999996,305.58466359999875,b,1.0,0.3484140000000479,,,,,sub-108,1,stroop_test,59.990485509007286,
,,,,72.0,0.0,6.0,,,,,,,,,,,,,blau,blue,b,1.0,b,1.0,0.452995200001169,,,,,,,,,,6.0,0.0,72.0,6.0,305.5991746,,,,,,,,,,,,,,,,,305.58506510000007,306.7982019999981,307.59779629999684,307.58345420000114,,,,,,,,,,,,,,,,,,,,,,,,,,,,,,,,,,,307.5878733999998,307.59779629999684,307.59779629999684,308.0662703999988,b,1.0,0.452995200001169,,,,,sub-108,1,stroop_test,59.990485509007286,
,,,,73.0,1.0,6.0,,,,,,,,,,,,,gelb,red,r,0.0,r,1.0,0.3111663999952725,,,,,,,,,,6.0,1.0,73.0,8.0,308.0810724999974,,,,,,,,,,,,,,,,,308.0666760999957,308.880382299998,309.6800672999961,309.66516319999937,,,,,,,,,,,,,,,,,,,,,,,,,,,,,,,,,,,309.6710244999995,309.6800672999961,309.6800672999961,309.99780839999585,r,1.0,0.3111663999952725,,,,,sub-108,1,stroop_test,59.990485509007286,
,,,,74.0,2.0,6.0,,,,,,,,,,,,,gelb,yellow,g,1.0,g,1.0,0.3151769999967655,,,,,,,,,,6.0,2.0,74.0,10.0,310.0129142000005,,,,,,,,,,,,,,,,,309.9981345999986,310.8126282000012,311.61214499999915,311.59614780000265,,,,,,,,,,,,,,,,,,,,,,,,,,,,,,,,,,,311.5966163999983,311.61214499999915,311.61214499999915,311.9310800000021,g,1.0,0.3151769999967655,,,,,sub-108,1,stroop_test,59.990485509007286,
,,,,75.0,3.0,6.0,,,,,,,,,,,,,blau,red,r,0.0,r,1.0,0.3190063000001828,,,,,,,,,,6.0,3.0,75.0,4.0,311.9450873999958,,,,,,,,,,,,,,,,,311.9317252999972,312.29515459999675,313.0943974999973,313.0790543999974,,,,,,,,,,,,,,,,,,,,,,,,,,,,,,,,,,,313.0832902999973,313.0943974999973,313.0943974999973,313.43061869999656,r,1.0,0.3190063000001828,,,,,sub-108,1,stroop_test,59.990485509007286,
,,,,76.0,4.0,6.0,,,,,,,,,,,,,rot,yellow,g,0.0,g,1.0,0.6481140999967465,,,,,,,,,,6.0,4.0,76.0,3.0,313.44430029999785,,,,,,,,,,,,,,,,,313.4313043000002,314.2436627999996,315.0431028000021,315.0286399999968,,,,,,,,,,,,,,,,,,,,,,,,,,,,,,,,,,,315.03297380000004,315.0431028000021,315.0431028000021,315.69442909999634,g,1.0,0.6481140999967465,,,,,sub-108,1,stroop_test,59.990485509007286,
,,,,77.0,5.0,6.0,,,,,,,,,,,,,rot,blue,b,0.0,b,1.0,0.3616163000042434,,,,,,,,,,6.0,5.0,77.0,2.0,315.70917349999945,,,,,,,,,,,,,,,,,315.6947590999989,316.90878659999726,317.708552600001,317.6941741999981,,,,,,,,,,,,,,,,,,,,,,,,,,,,,,,,,,,317.6955037000007,317.708552600001,317.708552600001,318.07650029999786,b,1.0,0.3616163000042434,,,,,sub-108,1,stroop_test,59.990485509007286,
,,,,78.0,6.0,6.0,,,,,,,,,,,,,gelb,blue,b,0.0,b,1.0,0.5280622000063886,,,,,,,,,,6.0,6.0,78.0,9.0,318.09135389999574,,,,,,,,,,,,,,,,,318.0768360000002,318.4409235999992,319.2401671999978,319.22466110000096,,,,,,,,,,,,,,,,,,,,,,,,,,,,,,,,,,,319.22755589999724,319.2401671999978,319.2401671999978,319.77661570000055,b,1.0,0.5280622000063886,,,,,sub-108,1,stroop_test,59.990485509007286,
,,,,79.0,7.0,6.0,,,,,,,,,,,,,blau,yellow,g,0.0,g,1.0,0.6578878000000259,,,,,,,,,,6.0,7.0,79.0,7.0,319.7899260999984,,,,,,,,,,,,,,,,,319.7770425999988,320.5895507000023,321.3890404999984,321.3737592999969,,,,,,,,,,,,,,,,,,,,,,,,,,,,,,,,,,,321.3766007000013,321.3890404999984,321.3890404999984,322.0578314000013,g,1.0,0.6578878000000259,,,,,sub-108,1,stroop_test,59.990485509007286,
,,,,80.0,8.0,6.0,,,,,,,,,,,,,blau,blue,b,1.0,b,1.0,1.5118388999981107,,,,,,,,,,6.0,8.0,80.0,5.0,322.0717439,,,,,,,,,,,,,,,,,322.05841900000087,322.1721724000017,322.97144970000227,322.9559674999982,,,,,,,,,,,,,,,,,,,,,,,,,,,,,,,,,,,322.9566631999988,322.97144970000227,322.97144970000227,324.48876949999976,b,1.0,1.5118388999981107,,,,,sub-108,1,stroop_test,59.990485509007286,
,,,,81.0,9.0,6.0,,,,,,,,,,,,,gelb,yellow,g,1.0,g,1.0,0.6716556000028504,,,,,,,,,,6.0,9.0,81.0,11.0,324.5037682999973,,,,,,,,,,,,,,,,,324.48919269999897,324.6037099000023,325.4031774999967,325.38764639999863,,,,,,,,,,,,,,,,,,,,,,,,,,,,,,,,,,,325.39084300000104,325.4031774999967,325.4031774999967,326.0878731999983,g,1.0,0.6716556000028504,,,,,sub-108,1,stroop_test,59.990485509007286,
,,,,82.0,10.0,6.0,,,,,,,,,,,,,rot,red,r,1.0,r,1.0,0.3652505999998539,,,,,,,,,,6.0,10.0,82.0,0.0,326.1026662000004,,,,,,,,,,,,,,,,,326.088261799996,326.4523685000022,327.2519956999968,327.2368834000008,,,,,,,,,,,,,,,,,,,,,,,,,,,,,,,,,,,327.2401897000018,327.2519956999968,327.2519956999968,327.62055809999583,r,1.0,0.3652505999998539,,,,,sub-108,1,stroop_test,59.990485509007286,
,,,,83.0,11.0,6.0,,,,,,,,,,,,,rot,red,r,1.0,r,1.0,0.7313878999993904,,,,,,,,,,6.0,11.0,83.0,1.0,327.6352456999957,,,,,,,,,,,,,,,,,327.6209411000018,328.4344824,329.2342187999966,329.21835409999767,,,,,,,,,,,,,,,,,,,,,,,,,,,,,,,,,,,329.21885810000094,329.2342187999966,329.2342187999966,329.96846240000013,r,1.0,0.7313878999993904,,,,,sub-108,1,stroop_test,59.990485509007286,
,,,,84.0,0.0,7.0,,,,,,,,,,,,,gelb,yellow,g,1.0,g,1.0,0.4376001999989967,,,,,,,,,,7.0,0.0,84.0,11.0,329.9835235999999,,,,,,,,,,,,,,,,,329.96876930000144,331.18299670000124,331.98258429999987,331.9671076000013,,,,,,,,,,,,,,,,,,,,,,,,,,,,,,,,,,,331.9717802000014,331.98258429999987,331.98258429999987,332.4358485999983,g,1.0,0.4376001999989967,,,,,sub-108,1,stroop_test,59.990485509007286,
,,,,85.0,1.0,7.0,,,,,,,,,,,,,rot,blue,b,0.0,b,1.0,0.3957620000001043,,,,,,,,,,7.0,1.0,85.0,2.0,332.44870490000176,,,,,,,,,,,,,,,,,332.4362803999975,333.24832420000166,334.04790079999657,334.03260279999813,,,,,,,,,,,,,,,,,,,,,,,,,,,,,,,,,,,334.0367690999992,334.04790079999657,334.04790079999657,334.44980529999884,b,1.0,0.3957620000001043,,,,,sub-108,1,stroop_test,59.990485509007286,
,,,,86.0,2.0,7.0,,,,,,,,,,,,,blau,blue,b,1.0,b,1.0,0.4316650000037043,,,,,,,,,,7.0,2.0,86.0,6.0,334.46429089999583,,,,,,,,,,,,,,,,,334.4502257999993,335.26386430000275,336.0631033999962,336.0477255000005,,,,,,,,,,,,,,,,,,,,,,,,,,,,,,,,,,,336.05104140000185,336.0631033999962,336.0631033999962,336.49909459999617,b,1.0,0.4316650000037043,,,,,sub-108,1,stroop_test,59.990485509007286,
,,,,87.0,3.0,7.0,,,,,,,,,,,,,gelb,red,r,0.0,r,1.0,0.6839640000034706,,,,,,,,,,7.0,3.0,87.0,8.0,336.5131027000025,,,,,,,,,,,,,,,,,336.4998443000004,336.61271499999566,337.41227269999945,337.3968909999967,,,,,,,,,,,,,,,,,,,,,,,,,,,,,,,,,,,337.40093949999573,337.41227269999945,337.41227269999945,338.1133087999988,r,1.0,0.6839640000034706,,,,,sub-108,1,stroop_test,59.990485509007286,
,,,,88.0,4.0,7.0,,,,,,,,,,,,,blau,red,r,0.0,r,1.0,0.3213627000004635,,,,,,,,,,7.0,4.0,88.0,4.0,338.12850849999813,,,,,,,,,,,,,,,,,338.1136795999992,338.9278764999981,339.7274061999997,339.71284139999625,,,,,,,,,,,,,,,,,,,,,,,,,,,,,,,,,,,339.7163121999984,339.7274061999997,339.7274061999997,340.06201619999774,r,1.0,0.3213627000004635,,,,,sub-108,1,stroop_test,59.990485509007286,
,,,,89.0,5.0,7.0,,,,,,,,,,,,,rot,red,r,1.0,r,1.0,0.3659541000015451,,,,,,,,,,7.0,5.0,89.0,0.0,340.0772634999957,,,,,,,,,,,,,,,,,340.06232309999905,340.8767413000023,341.6759904999999,341.6601085000002,,,,,,,,,,,,,,,,,,,,,,,,,,,,,,,,,,,341.66319600000134,341.6759904999999,341.6759904999999,342.0453173999995,r,1.0,0.3659541000015451,,,,,sub-108,1,stroop_test,59.990485509007286,
,,,,90.0,6.0,7.0,,,,,,,,,,,,,rot,yellow,g,0.0,g,1.0,0.4785159999955795,,,,,,,,,,7.0,6.0,90.0,3.0,342.05920109999715,,,,,,,,,,,,,,,,,342.04567790000146,343.25884380000207,344.0581493999998,344.0435313999988,,,,,,,,,,,,,,,,,,,,,,,,,,,,,,,,,,,344.0442477999968,344.0581493999998,344.0581493999998,344.5423729999966,g,1.0,0.4785159999955795,,,,,sub-108,1,stroop_test,59.990485509007286,
,,,,91.0,7.0,7.0,,,,,,,,,,,,,blau,yellow,g,0.0,g,1.0,0.6015143999975407,,,,,,,,,,7.0,7.0,91.0,7.0,344.5576289000019,,,,,,,,,,,,,,,,,344.54269699999713,344.65769909999653,345.4570175999979,345.44275729999936,,,,,,,,,,,,,,,,,,,,,,,,,,,,,,,,,,,345.449958600002,345.4570175999979,345.4570175999979,346.07493350000004,g,1.0,0.6015143999975407,,,,,sub-108,1,stroop_test,59.990485509007286,
,,,,92.0,8.0,7.0,,,,,,,,,,,,,rot,red,r,1.0,r,1.0,0.8005223000000115,,,,,,,,,,7.0,8.0,92.0,1.0,346.0899983999989,,,,,,,,,,,,,,,,,346.07529760000034,346.4398459000004,347.23939670000254,347.2241925999988,,,,,,,,,,,,,,,,,,,,,,,,,,,,,,,,,,,347.2279350000026,347.23939670000254,347.23939670000254,348.0584144000022,r,1.0,0.8005223000000115,,,,,sub-108,1,stroop_test,59.990485509007286,
,,,,93.0,9.0,7.0,,,,,,,,,,,,,blau,blue,b,1.0,b,1.0,0.3676508999997168,,,,,,,,,,7.0,9.0,93.0,5.0,348.0720825000026,,,,,,,,,,,,,,,,,348.05874739999854,349.27138489999925,350.0707876000015,350.0559338999956,,,,,,,,,,,,,,,,,,,,,,,,,,,,,,,,,,,350.060272900002,350.0707876000015,350.0707876000015,350.45515180000075,b,1.0,0.3676508999997168,,,,,sub-108,1,stroop_test,59.990485509007286,
,,,,94.0,10.0,7.0,,,,,,,,,,,,,gelb,blue,b,0.0,b,1.0,0.7874321999988751,,,,,,,,,,7.0,10.0,94.0,9.0,350.470659300001,,,,,,,,,,,,,,,,,350.4554755999998,351.6697024000023,352.4691086999956,352.45447830000194,,,,,,,,,,,,,,,,,,,,,,,,,,,,,,,,,,,352.4583469999998,352.4691086999956,352.4691086999956,353.270090799997,b,1.0,0.7874321999988751,,,,,sub-108,1,stroop_test,59.990485509007286,
,,,,95.0,11.0,7.0,,,,,,,,,,,,,gelb,yellow,g,1.0,g,1.0,0.5661220000038156,,,,,,,,,,7.0,11.0,95.0,10.0,353.28548220000084,,,,,,,,,,,,,,,,,353.270400100002,353.6355734999961,354.43509880000056,354.41946749999624,,,,,,,,,,,,,,,,,,,,,,,,,,,,,,,,,,,354.420037099997,354.43509880000056,354.43509880000056,355.00351450000016,g,1.0,0.5661220000038156,,,,,sub-108,1,stroop_test,59.990485509007286,
,,,,96.0,0.0,8.0,,,,,,,,,,,,,blau,blue,b,1.0,b,1.0,0.6188756999981706,,,,,,,,,,8.0,0.0,96.0,5.0,355.0176307000001,,,,,,,,,,,,,,,,,355.00385169999936,355.3674551000004,356.1669385999994,356.15232919999835,,,,,,,,,,,,,,,,,,,,,,,,,,,,,,,,,,,356.1559419999976,356.1669385999994,356.1669385999994,356.8024177999978,b,1.0,0.6188756999981706,,,,,sub-108,1,stroop_test,59.990485509007286,
,,,,97.0,1.0,8.0,,,,,,,,,,,,,gelb,yellow,g,1.0,g,1.0,1.4206823999993503,,,,,,,,,,8.0,1.0,97.0,11.0,356.81650329999684,,,,,,,,,,,,,,,,,356.80280389999825,357.1661727999963,357.9655988000013,357.95070660000056,,,,,,,,,,,,,,,,,,,,,,,,,,,,,,,,,,,357.9576947000023,357.9655988000013,357.9655988000013,359.4007930000007,g,1.0,1.4206823999993503,,,,,sub-108,1,stroop_test,59.990485509007286,
,,,,98.0,2.0,8.0,,,,,,,,,,,,,rot,blue,b,0.0,b,1.0,0.5973479999956908,,,,,,,,,,8.0,2.0,98.0,2.0,359.414906500002,,,,,,,,,,,,,,,,,359.4011701999989,360.6140917000012,361.4137002999996,361.3987957999998,,,,,,,,,,,,,,,,,,,,,,,,,,,,,,,,,,,361.4028158000001,361.4137002999996,361.4137002999996,362.01549359999626,b,1.0,0.5973479999956908,,,,,sub-108,1,stroop_test,59.990485509007286,
,,,,99.0,3.0,8.0,,,,,,,,,,,,,rot,red,r,1.0,r,1.0,0.5351568999976735,,,,,,,,,,8.0,3.0,99.0,0.0,362.0298647000018,,,,,,,,,,,,,,,,,362.01586349999707,362.3798689999967,363.1791951999985,363.16464409999753,,,,,,,,,,,,,,,,,,,,,,,,,,,,,,,,,,,363.1652090999996,363.1791951999985,363.1791951999985,363.731231400001,r,1.0,0.5351568999976735,,,,,sub-108,1,stroop_test,59.990485509007286,
,,,,100.0,4.0,8.0,,,,,,,,,,,,,rot,yellow,g,0.0,g,1.0,0.5519017999977223,,,,,,,,,,8.0,4.0,100.0,3.0,363.7462080999976,,,,,,,,,,,,,,,,,363.73165719999815,364.9449725000013,365.7442131999997,365.7286768999984,,,,,,,,,,,,,,,,,,,,,,,,,,,,,,,,,,,365.7292354000019,365.7442131999997,365.7442131999997,366.3120382999987,g,1.0,0.5519017999977223,,,,,sub-108,1,stroop_test,59.990485509007286,
,,,,101.0,5.0,8.0,,,,,,,,,,,,,blau,blue,b,1.0,b,1.0,0.3948960999987321,,,,,,,,,,8.0,5.0,101.0,6.0,366.3272567000022,,,,,,,,,,,,,,,,,366.31234330000007,367.1270366999961,367.9265512999991,367.9108471,,,,,,,,,,,,,,,,,,,,,,,,,,,,,,,,,,,367.9139374000006,367.9265512999991,367.9265512999991,368.327071300002,b,1.0,0.3948960999987321,,,,,sub-108,1,stroop_test,59.990485509007286,
,,,,102.0,6.0,8.0,,,,,,,,,,,,,rot,red,r,1.0,r,1.0,0.4626395000013872,,,,,,,,,,8.0,6.0,102.0,1.0,368.34224710000126,,,,,,,,,,,,,,,,,368.3273272000006,368.6925496999975,369.4916968999969,369.476647800002,,,,,,,,,,,,,,,,,,,,,,,,,,,,,,,,,,,369.4801365000021,369.4916968999969,369.4916968999969,369.95969519999926,r,1.0,0.4626395000013872,,,,,sub-108,1,stroop_test,59.990485509007286,
,,,,103.0,7.0,8.0,,,,,,,,,,,,,gelb,blue,b,0.0,g,0.0,1.3580950999967172,,,,,,,,,,8.0,7.0,103.0,9.0,369.9748854999998,,,,,,,,,,,,,,,,,369.9600281000021,371.1743637999971,371.973651399996,371.9580607000025,,,,,,,,,,,,,,,,,,,,,,,,,,,,,,,,,,,371.9651056000002,371.973651399996,371.973651399996,373.34137499999633,g,0.0,1.3580950999967172,,,,,sub-108,1,stroop_test,59.990485509007286,
,,,,104.0,8.0,8.0,,,,,,,,,,,,,blau,red,r,0.0,r,1.0,0.793243000000075,,,,,,,,,,8.0,8.0,104.0,4.0,373.356002499997,,,,,,,,,,,,,,,,,373.3417611999976,374.5552966999967,375.3546989999959,375.3397659999973,,,,,,,,,,,,,,,,,,,,,,,,,,,,,,,,,,,375.3428795,375.3546989999959,375.3546989999959,376.1559678999984,r,1.0,0.793243000000075,,,,,sub-108,1,stroop_test,59.990485509007286,
,,,,105.0,9.0,8.0,,,,,,,,,,,,,blau,yellow,g,0.0,g,1.0,0.7967751999967732,,,,,,,,,,8.0,9.0,105.0,7.0,376.1709574999986,,,,,,,,,,,,,,,,,376.1563423999978,377.3700143000024,378.1696030000021,378.1535694999984,,,,,,,,,,,,,,,,,,,,,,,,,,,,,,,,,,,378.1541133999999,378.1696030000021,378.1696030000021,378.9705510999993,g,1.0,0.7967751999967732,,,,,sub-108,1,stroop_test,59.990485509007286,
,,,,106.0,10.0,8.0,,,,,,,,,,,,,gelb,red,r,0.0,r,1.0,0.9817021999988356,,,,,,,,,,8.0,10.0,106.0,8.0,378.98587589999806,,,,,,,,,,,,,,,,,378.9708728999976,379.7863161999994,380.6013220999957,380.5859037999981,,,,,,,,,,,,,,,,,,,,,,,,,,,,,,,,,,,380.5895519999976,380.6013220999957,380.6013220999957,381.5867930000022,r,1.0,0.9817021999988356,,,,,sub-108,1,stroop_test,59.990485509007286,
,,,,107.0,11.0,8.0,,,,,,,,,,,,,gelb,yellow,g,1.0,g,1.0,0.5474477999960072,,,,,,,,,,8.0,11.0,107.0,10.0,381.6012358000007,,,,,,,,,,,,,,,,,381.5872330999992,382.8001566999956,383.5997596000016,383.58368869999686,,,,,,,,,,,,,,,,,,,,,,,,,,,,,,,,,,,383.5842255000025,383.5997596000016,383.5997596000016,384.1504101000028,g,1.0,0.5474477999960072,,,,,sub-108,1,stroop_test,59.990485509007286,
,,,,108.0,0.0,9.0,,,,,,,,,,,,,gelb,yellow,g,1.0,g,1.0,1.2948217000011937,,,,,,,,,,9.0,0.0,108.0,10.0,384.1657558000006,,,,,,,,,,,,,,,,,384.1506436999989,384.2658456999998,385.0652501000004,385.04988199999934,,,,,,,,,,,,,,,,,,,,,,,,,,,,,,,,,,,385.0504093999989,385.0652501000004,385.0652501000004,386.3662258999975,g,1.0,1.2948217000011937,,,,,sub-108,1,stroop_test,59.990485509007286,
,,,,109.0,1.0,9.0,,,,,,,,,,,,,blau,red,r,0.0,r,1.0,1.4334774000017203,,,,,,,,,,9.0,1.0,109.0,4.0,386.3812284000014,,,,,,,,,,,,,,,,,386.3665545999975,386.48130529999617,387.2805411000009,387.2646755000024,,,,,,,,,,,,,,,,,,,,,,,,,,,,,,,,,,,387.2676627999972,387.2805411000009,387.2805411000009,388.7171376999977,r,1.0,1.4334774000017203,,,,,sub-108,1,stroop_test,59.990485509007286,
,,,,110.0,2.0,9.0,,,,,,,,,,,,,rot,blue,b,0.0,b,1.0,2.199929400005203,,,,,,,,,,9.0,2.0,110.0,2.0,388.7297902999999,,,,,,,,,,,,,,,,,388.7179197000005,388.82962039999984,389.6290136000025,389.6146330999982,,,,,,,,,,,,,,,,,,,,,,,,,,,,,,,,,,,389.6192398999992,389.6290136000025,389.6290136000025,391.8310354999994,b,1.0,2.199929400005203,,,,,sub-108,1,stroop_test,59.990485509007286,
,,,,111.0,3.0,9.0,,,,,,,,,,,,,blau,blue,b,1.0,b,1.0,0.5972719999990659,,,,,,,,,,9.0,3.0,111.0,6.0,391.8444572000008,,,,,,,,,,,,,,,,,391.8313722999956,391.9441566000023,392.7436557999972,392.72860789999686,,,,,,,,,,,,,,,,,,,,,,,,,,,,,,,,,,,392.7316687999992,392.7436557999972,392.7436557999972,393.3455603999973,b,1.0,0.5972719999990659,,,,,sub-108,1,stroop_test,59.990485509007286,
,,,,112.0,4.0,9.0,,,,,,,,,,,,,gelb,blue,b,0.0,b,1.0,0.5727398000017274,,,,,,,,,,9.0,4.0,112.0,9.0,393.35986520000006,,,,,,,,,,,,,,,,,393.3459368999975,393.46030210000026,394.2596245999957,394.2438260999989,,,,,,,,,,,,,,,,,,,,,,,,,,,,,,,,,,,394.2493936999963,394.2596245999957,394.2596245999957,394.8447312999997,b,1.0,0.5727398000017274,,,,,sub-108,1,stroop_test,59.990485509007286,
,,,,113.0,5.0,9.0,,,,,,,,,,,,,gelb,red,r,0.0,r,1.0,0.6445802000016556,,,,,,,,,,9.0,5.0,113.0,8.0,394.8592645000026,,,,,,,,,,,,,,,,,394.8452303000013,395.2087911999988,396.0084602999996,395.9936557999972,,,,,,,,,,,,,,,,,,,,,,,,,,,,,,,,,,,395.9944299999988,396.0084602999996,396.0084602999996,396.660558399999,r,1.0,0.6445802000016556,,,,,sub-108,1,stroop_test,59.990485509007286,
,,,,114.0,6.0,9.0,,,,,,,,,,,,,rot,yellow,g,0.0,g,1.0,0.4501931999984663,,,,,,,,,,9.0,6.0,114.0,3.0,396.6746913000025,,,,,,,,,,,,,,,,,396.66097889999946,397.4744320999962,398.27369709999766,398.2580264999997,,,,,,,,,,,,,,,,,,,,,,,,,,,,,,,,,,,398.2607149999967,398.27369709999766,398.27369709999766,398.725572299998,g,1.0,0.4501931999984663,,,,,sub-108,1,stroop_test,59.990485509007286,
,,,,115.0,7.0,9.0,,,,,,,,,,,,,gelb,yellow,g,1.0,g,1.0,0.799112700005935,,,,,,,,,,9.0,7.0,115.0,11.0,398.7397534999982,,,,,,,,,,,,,,,,,398.72590130000026,399.0897660999981,399.8892513999963,399.8739898999993,,,,,,,,,,,,,,,,,,,,,,,,,,,,,,,,,,,399.878850699999,399.8892513999963,399.8892513999963,400.6905870999981,g,1.0,0.799112700005935,,,,,sub-108,1,stroop_test,59.990485509007286,
,,,,116.0,8.0,9.0,,,,,,,,,,,,,rot,red,r,1.0,r,1.0,0.5854567999995197,,,,,,,,,,9.0,8.0,116.0,0.0,400.7051903999964,,,,,,,,,,,,,,,,,400.69092100000125,400.80538869999873,401.604791699996,401.58987440000055,,,,,,,,,,,,,,,,,,,,,,,,,,,,,,,,,,,401.5929671999984,401.604791699996,401.604791699996,402.2066179999965,r,1.0,0.5854567999995197,,,,,sub-108,1,stroop_test,59.990485509007286,
,,,,117.0,9.0,9.0,,,,,,,,,,,,,blau,yellow,g,0.0,g,1.0,0.8266443999964395,,,,,,,,,,9.0,9.0,117.0,7.0,402.2210933000024,,,,,,,,,,,,,,,,,402.2069644000003,402.5709344999996,403.3704781999986,403.3548437999998,,,,,,,,,,,,,,,,,,,,,,,,,,,,,,,,,,,403.3580574000007,403.3704781999986,403.3704781999986,404.2051432000008,g,1.0,0.8266443999964395,,,,,sub-108,1,stroop_test,59.990485509007286,
,,,,118.0,10.0,9.0,,,,,,,,,,,,,rot,red,r,1.0,r,1.0,0.5580039999986184,,,,,,,,,,9.0,10.0,118.0,1.0,404.2199839000023,,,,,,,,,,,,,,,,,404.2055345999979,404.3197101999976,405.11923869999737,405.10403080000106,,,,,,,,,,,,,,,,,,,,,,,,,,,,,,,,,,,405.1073305999962,405.11923869999737,405.11923869999737,405.68831469999714,r,1.0,0.5580039999986184,,,,,sub-108,1,stroop_test,59.990485509007286,
,,,,119.0,11.0,9.0,,,,,,,,,,,,,blau,blue,b,1.0,b,1.0,0.6232545000020764,,,,,,,,,,9.0,11.0,119.0,5.0,405.7021650000024,,,,,,,,,,,,,,,,,405.6891340000002,406.9014795999974,407.7010358999978,407.6857433999976,,,,,,,,,,,,,,,,,,,,,,,,,,,,,,,,,,,407.6895629999999,407.7010358999978,407.7010358999978,408.3359203,b,1.0,0.6232545000020764,,,,,sub-108,1,stroop_test,59.990485509007286,
,,,,,,,,,,,,,,,,,,,,,,,,,,,,,,,,,,,,,,,,,,,,,,,,,,,,,,,,,,,,,,,,,,,,,,,,,,,,,,,,,,,,,,,,,,,,,,,,,,,,,,408.3360963000014,408.3504811999956,413.3477518,sub-108,1,stroop_test,59.990485509007286,
