wordCTK,colorCTK,corrAnsCTK,congruentCTK,thisN,thisTrialN,thisRepN,keyResp_CTK.keys,keyResp_CTK.corr,keyResp_CTK.rt,keyResp_CTK.duration,wordPractice,colorPractice,corrAnsPractice,congruentPractice,respPractice.keys,respPractice.corr,respPractice.rt,respPractice.duration,word,color,corrAns,congruent,keyResp_test_run.keys,keyResp_test_run.corr,keyResp_test_run.rt,keyResp_test_run.duration,trials_CTK.thisRepN,trials_CTK.thisTrialN,trials_CTK.thisN,trials_CTK.thisIndex,trials_practice.thisRepN,trials_practice.thisTrialN,trials_practice.thisN,trials_practice.thisIndex,trials_test.thisRepN,trials_test.thisTrialN,trials_test.thisN,trials_test.thisIndex,thisRow.t,notes,instruction.started,instr_text.started,instr_image.started,instr_resp.started,instruction.stopped,instr_resp.keys,instr_resp.rt,instr_resp.duration,instr_color_to_key.started,instr_ctk.started,resp_ctk.started,instr_color_to_key.stopped,resp_ctk.keys,resp_ctk.rt,resp_ctk.duration,ITI.started,fixcross.started,fixcross.stopped,ITI.stopped,color_to_key_run.started,stimulus_CTK.started,keyResp_CTK.started,color_to_key_run.stopped,trials_CTK.keyResp_CTK.keys,trials_CTK.keyResp_CTK.corr,trials_CTK.keyResp_CTK.rt,trials_CTK.keyResp_CTK.duration,instr_practice.started,instr_practice_text.started,instr_practice_resp.started,instr_practice.stopped,instr_practice_resp.keys,instr_practice_resp.rt,instr_practice_resp.duration,practice_run.started,stimulus_practice.started,respPractice.started,practice_run.stopped,trials_practice.respPractice.keys,trials_practice.respPractice.corr,trials_practice.respPractice.rt,trials_practice.respPractice.duration,feedback.started,textFeedback.started,feedback.stopped,textFeedback.stopped,instr_test.started,instr_test_text.started,instr_test_resp.started,instr_test.stopped,instr_test_resp.keys,instr_test_resp.rt,instr_test_resp.duration,test_run.started,stimulus_test_run.started,keyResp_test_run.started,test_run.stopped,trials_test.keyResp_test_run.keys,trials_test.keyResp_test_run.corr,trials_test.keyResp_test_run.rt,trials_test.keyResp_test_run.duration,goodbye.started,textGoodbye.started,goodbye.stopped,participant,session,expName,frameRate,Unnamed: 112
,,,,,,,,,,,,,,,,,,,,,,,,,,,,,,,,,,,,,,,,,0.003382800030522,0.0129074000287801,0.0129074000287801,0.0129074000287801,18.547016800032,space,18.521445099962875,,,,,,,,,,,,,,,,,,,,,,,,,,,,,,,,,,,,,,,,,,,,,,,,,,,,,,,,,,sub-190,1,stroop_test,60.17093357276027,
,,,,,,,,,,,,,,,,,,,,,,,,,,,,,,,,,,,,,,,,,,,,,,,,,18.547099499963224,18.55814870004542,18.55814870004542,20.27769489993807,space,1.7180705000646412,,,,,,,,,,,,,,,,,,,,,,,,,,,,,,,,,,,,,,,,,,,,,,,,,,,sub-190,1,stroop_test,60.17093357276027,
test,yellow,g,1.0,0.0,0.0,0.0,g,1.0,0.7997665000148118,,,,,,,,,,,,,,,,,,0.0,0.0,0.0,1.0,,,,,,,,,20.30804020003416,,,,,,,,,,,,,,,,,20.30436579999514,21.078396099968813,21.87932369997725,21.86364690004848,21.86988669994753,21.87932369997725,21.87932369997725,22.68133319995832,g,1.0,0.7997665000148118,,,,,,,,,,,,,,,,,,,,,,,,,,,,,,,,,,,,,,,sub-190,1,stroop_test,60.17093357276027,
test,blue,b,1.0,1.0,1.0,0.0,b,1.0,0.7117141000926495,,,,,,,,,,,,,,,,,,0.0,1.0,1.0,2.0,,,,,,,,,22.697350300033577,,,,,,,,,,,,,,,,,22.681561699952,23.882835699943826,24.683357600006275,24.667154900031164,24.66755400004331,24.683357600006275,24.683357600006275,25.40198339999188,b,1.0,0.7117141000926495,,,,,,,,,,,,,,,,,,,,,,,,,,,,,,,,,,,,,,,sub-190,1,stroop_test,60.17093357276027,
test,red,r,1.0,2.0,2.0,0.0,r,1.0,0.9793824999360368,,,,,,,,,,,,,,,,,,0.0,2.0,2.0,0.0,,,,,,,,,25.41792399995029,,,,,,,,,,,,,,,,,25.402208099956624,25.50189119996503,26.30339829996228,26.28708939999342,26.287754100048915,26.30339829996228,26.30339829996228,27.288392600021325,r,1.0,0.9793824999360368,,,,,,,,,,,,,,,,,,,,,,,,,,,,,,,,,,,,,,,sub-190,1,stroop_test,60.17093357276027,
test,blue,b,1.0,3.0,0.0,1.0,b,1.0,1.5505034000379965,,,,,,,,,,,,,,,,,,1.0,0.0,3.0,2.0,,,,,,,,,27.30446130002383,,,,,,,,,,,,,,,,,27.28861889999825,28.489886299939823,29.29040639998857,29.27407259994652,29.274440999957733,29.29040639998857,29.29040639998857,30.84417419997044,b,1.0,1.5505034000379965,,,,,,,,,,,,,,,,,,,,,,,,,,,,,,,,,,,,,,,sub-190,1,stroop_test,60.17093357276027,
test,yellow,g,1.0,4.0,1.0,1.0,g,1.0,0.6758371000178158,,,,,,,,,,,,,,,,,,1.0,1.0,4.0,1.0,,,,,,,,,30.860195599962022,,,,,,,,,,,,,,,,,30.844454400008544,32.04479800001718,32.84645319997799,32.83023810002487,32.830855699954554,32.84645319997799,32.84645319997799,33.5313363999594,g,1.0,0.6758371000178158,,,,,,,,,,,,,,,,,,,,,,,,,,,,,,,,,,,,,,,sub-190,1,stroop_test,60.17093357276027,
test,red,r,1.0,5.0,2.0,1.0,r,1.0,0.6969336000038311,,,,,,,,,,,,,,,,,,1.0,2.0,5.0,0.0,,,,,,,,,33.54722700000275,,,,,,,,,,,,,,,,,33.53161760000512,34.73279279994313,35.53372349997517,35.5171722000232,35.517744299955666,35.53372349997517,35.53372349997517,36.23533809999935,r,1.0,0.6969336000038311,,,,,,,,,,,,,,,,,,,,,,,,,,,,,,,,,,,,,,,sub-190,1,stroop_test,60.17093357276027,
test,red,r,1.0,6.0,0.0,2.0,r,1.0,0.5219791999552399,,,,,,,,,,,,,,,,,,2.0,0.0,6.0,0.0,,,,,,,,,36.25110240001232,,,,,,,,,,,,,,,,,36.23562279995531,36.33491330000106,37.136627099942416,37.120275099994615,37.12062039994635,37.136627099942416,37.136627099942416,37.67129720002413,r,1.0,0.5219791999552399,,,,,,,,,,,,,,,,,,,,,,,,,,,,,,,,,,,,,,,sub-190,1,stroop_test,60.17093357276027,
test,blue,b,1.0,7.0,1.0,2.0,b,1.0,0.62148570001591,,,,,,,,,,,,,,,,,,2.0,1.0,7.0,2.0,,,,,,,,,37.687400899943896,,,,,,,,,,,,,,,,,37.67155349999666,38.87201549997553,39.6736557999393,39.65721510001458,39.65762559999712,39.6736557999393,39.6736557999393,40.308056300040334,b,1.0,0.62148570001591,,,,,,,,,,,,,,,,,,,,,,,,,,,,,,,,,,,,,,,sub-190,1,stroop_test,60.17093357276027,
test,yellow,g,1.0,8.0,2.0,2.0,g,1.0,0.5431915000081062,,,,,,,,,,,,,,,,,,2.0,2.0,8.0,1.0,,,,,,,,,40.324164999998175,,,,,,,,,,,,,,,,,40.30837310000789,41.10899249999784,41.91043629997876,41.894210499944165,41.89473099994939,41.91043629997876,41.91043629997876,42.462009500013664,g,1.0,0.5431915000081062,,,,,,,,,,,,,,,,,,,,,,,,,,,,,,,,,,,,,,,sub-190,1,stroop_test,60.17093357276027,
test,blue,b,1.0,9.0,0.0,3.0,b,1.0,0.5831599000375718,,,,,,,,,,,,,,,,,,3.0,0.0,9.0,2.0,,,,,,,,,42.47725430002902,,,,,,,,,,,,,,,,,42.46234039997216,42.81175710004754,43.6122602999676,43.59589610004332,43.596243800013326,43.6122602999676,43.6122602999676,44.19767789996695,b,1.0,0.5831599000375718,,,,,,,,,,,,,,,,,,,,,,,,,,,,,,,,,,,,,,,sub-190,1,stroop_test,60.17093357276027,
test,red,r,1.0,10.0,1.0,3.0,r,1.0,0.4106174999615177,,,,,,,,,,,,,,,,,,3.0,1.0,10.0,0.0,,,,,,,,,44.21360080002341,,,,,,,,,,,,,,,,,44.19790759996977,44.54720210004598,45.348936500027776,45.33288909995463,45.33348280005157,45.348936500027776,45.348936500027776,45.76754729996901,r,1.0,0.4106174999615177,,,,,,,,,,,,,,,,,,,,,,,,,,,,,,,,,,,,,,,sub-190,1,stroop_test,60.17093357276027,
test,yellow,g,1.0,11.0,2.0,3.0,g,1.0,0.5008428000146523,,,,,,,,,,,,,,,,,,3.0,2.0,11.0,1.0,,,,,,,,,45.783257300034165,,,,,,,,,,,,,,,,,45.76785559998825,46.56706769997254,47.36854900000617,47.35224909998942,47.35265979997348,47.36854900000617,47.36854900000617,47.88645859993994,g,1.0,0.5008428000146523,,,,,,,,,,,,,,,,,,,,,,,,,,,,,,,,,,,,,,,sub-190,1,stroop_test,60.17093357276027,
,,,,,,,,,,,,,,,,,,,,,,,,,,,,,,,,,,,,,,,,,,,,,,,,,,,,,,,,,,,,,,,,,,,,47.88659540005028,47.90263599995524,47.90263599995524,49.27192189998459,space,1.3675347999669611,,,,,,,,,,,,,,,,,,,,,,,,,,,,,,,,sub-190,1,stroop_test,60.17093357276027,
,,,,0.0,0.0,0.0,,,,,gelb,blue,b,0.0,b,1.0,1.207068599993363,,,,,,,,,,,,,,0.0,0.0,0.0,9.0,,,,,49.295945000019856,,,,,,,,,,,,,,,,,49.292280399939045,50.47316910000518,51.2737128000008,51.258341099950485,,,,,,,,,,,,,,,,51.26325059996452,51.2737128000008,51.2737128000008,52.49378969997633,b,1.0,1.207068599993363,,52.499902999959886,52.508953299955465,53.49400119995698,,,,,,,,,,,,,,,,,,,,sub-190,1,stroop_test,60.17093357276027,
,,,,1.0,1.0,0.0,,,,,rot,yellow,g,0.0,g,1.0,0.8106378000229597,,,,,,,,,,,,,,0.0,1.0,1.0,3.0,,,,,53.51055300002918,,,,,,,,,,,,,,,,,53.494276299956255,54.69635670003481,55.496890099952,55.48173180001322,,,,,,,,,,,,,,,,55.48767279996537,55.496890099952,55.496890099952,56.32365239993669,g,1.0,0.8106378000229597,,56.32466819998808,56.33903689996805,57.33414459996857,,,,,,,,,,,,,,,,,,,,sub-190,1,stroop_test,60.17093357276027,
,,,,2.0,2.0,0.0,,,,,blau,red,r,0.0,r,1.0,1.0303392999339849,,,,,,,,,,,,,,0.0,2.0,2.0,4.0,,,,,57.34989740001038,,,,,,,,,,,,,,,,,57.33459939993918,58.53534499998205,59.336010099970736,59.32038739998825,,,,,,,,,,,,,,,,59.32437389995903,59.336010099970736,59.336010099970736,60.3721174999373,r,1.0,1.0303392999339849,,60.37252890004311,60.38822950003669,61.3733862999361,,,,,,,,,,,,,,,,,,,,sub-190,1,stroop_test,60.17093357276027,
,,,,3.0,3.0,0.0,,,,,gelb,yellow,g,1.0,g,1.0,0.4618048000847921,,,,,,,,,,,,,,0.0,3.0,3.0,11.0,,,,,61.38929580000695,,,,,,,,,,,,,,,,,61.37367130001076,62.57479770004284,63.37639520002995,63.3600398999406,,,,,,,,,,,,,,,,63.362345200032,63.37639520002995,63.37639520002995,63.844012500019744,g,1.0,0.4618048000847921,,63.84449960000347,63.86007449997123,64.84551919996738,,,,,,,,,,,,,,,,,,,,sub-190,1,stroop_test,60.17093357276027,
,,,,4.0,4.0,0.0,,,,,blau,blue,b,1.0,b,1.0,0.4793031000299379,,,,,,,,,,,,,,0.0,4.0,4.0,6.0,,,,,64.86214320000727,,,,,,,,,,,,,,,,,64.84576069994364,65.19577560003381,65.9966368000023,65.98005130002275,,,,,,,,,,,,,,,,65.98195859999396,65.9966368000023,65.9966368000023,66.48173799994402,b,1.0,0.4793031000299379,,66.48214680003002,66.49782819999382,67.4820519000059,,,,,,,,,,,,,,,,,,,,sub-190,1,stroop_test,60.17093357276027,
,,,,5.0,5.0,0.0,,,,,rot,blue,b,0.0,b,1.0,0.6017164000077173,,,,,,,,,,,,,,0.0,5.0,5.0,2.0,,,,,67.49883109994698,,,,,,,,,,,,,,,,,67.48235189996194,67.58275389997289,68.38333530002274,68.36695990001317,,,,,,,,,,,,,,,,68.36922430002596,68.38333530002274,68.38333530002274,69.00163169996813,b,1.0,0.6017164000077173,,69.00200350000523,69.01809879997745,70.00349000003189,,,,,,,,,,,,,,,,,,,,sub-190,1,stroop_test,60.17093357276027,
,,,,6.0,6.0,0.0,,,,,rot,red,r,1.0,r,1.0,0.7343287999974564,,,,,,,,,,,,,,0.0,6.0,6.0,1.0,,,,,70.02013469999656,,,,,,,,,,,,,,,,,70.00399040000048,70.80382309993729,71.60541349998675,71.58930799993686,,,,,,,,,,,,,,,,71.58968269999605,71.60541349998675,71.60541349998675,72.34090209996793,r,1.0,0.7343287999974564,,72.3412956999382,72.35672789998353,73.34140220005065,73.35775299998932,,,,,,,,,,,,,,,,,,,sub-190,1,stroop_test,60.17093357276027,
,,,,7.0,7.0,0.0,,,,,rot,red,r,1.0,r,1.0,0.5204940000548959,,,,,,,,,,,,,,0.0,7.0,7.0,0.0,,,,,73.35775299998932,,,,,,,,,,,,,,,,,73.3416832999792,73.69227809994482,74.49291080003604,74.47662229998969,,,,,,,,,,,,,,,,74.47702150000259,74.49291080003604,74.49291080003604,75.02775180002209,r,1.0,0.5204940000548959,,75.0281884999713,75.04381639999337,76.03084080002736,,,,,,,,,,,,,,,,,,,,sub-190,1,stroop_test,60.17093357276027,
,,,,8.0,8.0,0.0,,,,,blau,yellow,g,0.0,b,0.0,0.4848868000553921,,,,,,,,,,,,,,0.0,8.0,8.0,7.0,,,,,76.04783469997346,,,,,,,,,,,,,,,,,76.03150919999462,76.83320170000661,77.63367679994553,77.61949099996127,,,,,,,,,,,,,,,,77.62376049999148,77.63367679994553,77.63367679994553,78.13782940001693,b,0.0,0.4848868000553921,,78.14743280003313,78.15648629993666,79.15304240002297,,,,,,,,,,,,,,,,,,,,sub-190,1,stroop_test,60.17093357276027,
,,,,9.0,9.0,0.0,,,,,blau,blue,b,1.0,g,0.0,0.5805814999621361,,,,,,,,,,,,,,0.0,9.0,9.0,5.0,,,,,79.16944570001215,,,,,,,,,,,,,,,,,79.15336120000575,80.35177579999436,81.15329930000007,81.13688100001309,,,,,,,,,,,,,,,,81.13727880001534,81.15329930000007,81.15329930000007,81.73827440000605,g,0.0,0.5805814999621361,,81.73871489998419,81.75449299998581,82.73884020000696,,,,,,,,,,,,,,,,,,,,sub-190,1,stroop_test,60.17093357276027,
,,,,10.0,10.0,0.0,,,,,gelb,red,r,0.0,r,1.0,0.8837127999868244,,,,,,,,,,,,,,0.0,10.0,10.0,8.0,,,,,82.75550550001208,,,,,,,,,,,,,,,,,82.73911690001842,83.08958290005103,83.89067150000483,83.87424190004822,,,,,,,,,,,,,,,,83.87634670000989,83.89067150000483,83.89067150000483,84.77583059994504,r,1.0,0.8837127999868244,,84.77816660003737,84.79201790003572,85.77718890004326,,,,,,,,,,,,,,,,,,,,sub-190,1,stroop_test,60.17093357276027,
,,,,11.0,11.0,0.0,,,,,gelb,yellow,g,1.0,g,1.0,0.9624261999269949,,,,,,,,,,,,,,0.0,11.0,11.0,10.0,,,,,85.79385060002096,,,,,,,,,,,,,,,,,85.7774712999817,86.12757520005107,86.92815079994034,86.91189640003722,,,,,,,,,,,,,,,,86.91224500001408,86.92815079994034,86.92815079994034,87.89740549994167,g,1.0,0.9624261999269949,,87.89777589996811,87.91359450004529,88.89865430002101,,,,,,,,,,,,,,,,,,,,sub-190,1,stroop_test,60.17093357276027,
,,,,12.0,0.0,1.0,,,,,rot,yellow,g,0.0,r,0.0,0.7114213000750169,,,,,,,,,,,,,,1.0,0.0,12.0,3.0,,,,,88.91536610003095,,,,,,,,,,,,,,,,,88.8989833999658,90.10006650001742,90.90152900002433,90.88537299993914,,,,,,,,,,,,,,,,90.88883179996628,90.90152900002433,90.90152900002433,91.62047359999268,r,0.0,0.7114213000750169,,91.62364899995735,91.636069900007,92.62049590004608,92.6370607999852,,,,,,,,,,,,,,,,,,,sub-190,1,stroop_test,60.17093357276027,
,,,,13.0,1.0,1.0,,,,,rot,red,r,1.0,r,1.0,0.6558791999705136,,,,,,,,,,,,,,1.0,1.0,13.0,1.0,,,,,92.6370607999852,,,,,,,,,,,,,,,,,92.62078009999824,93.42196619999596,94.22350029996596,94.2070464999415,,,,,,,,,,,,,,,,94.20750629995018,94.22350029996596,94.22350029996596,94.89140580000822,r,1.0,0.6558791999705136,,94.89418529998512,94.90750500001012,95.89284039998893,,,,,,,,,,,,,,,,,,,,sub-190,1,stroop_test,60.17093357276027,
,,,,14.0,2.0,1.0,,,,,gelb,yellow,g,1.0,g,1.0,0.7110039999242872,,,,,,,,,,,,,,1.0,2.0,14.0,11.0,,,,,95.908782399958,,,,,,,,,,,,,,,,,95.89313860004768,96.69329740002286,97.49481780000497,97.4784361999482,,,,,,,,,,,,,,,,97.48038670001552,97.49481780000497,97.49481780000497,98.21312119998038,g,1.0,0.7110039999242872,,98.21358999994118,98.229200999951,99.21368090005126,,,,,,,,,,,,,,,,,,,,sub-190,1,stroop_test,60.17093357276027,
,,,,15.0,3.0,1.0,,,,,rot,blue,b,0.0,b,1.0,0.7007371999789029,,,,,,,,,,,,,,1.0,3.0,15.0,2.0,,,,,99.2302809000248,,,,,,,,,,,,,,,,,99.2139940999914,100.01523140002972,100.81662419997156,100.80019209999593,,,,,,,,,,,,,,,,100.80264589993747,100.81662419997156,100.81662419997156,101.5184970999835,b,1.0,0.7007371999789029,,101.51892389997374,101.53432219999377,102.5188697000267,,,,,,,,,,,,,,,,,,,,sub-190,1,stroop_test,60.17093357276027,
,,,,16.0,4.0,1.0,,,,,gelb,red,r,0.0,r,1.0,0.5527685000561178,,,,,,,,,,,,,,1.0,4.0,16.0,8.0,,,,,102.5354529999895,,,,,,,,,,,,,,,,,102.51919919997454,103.32023519999348,104.1216284999391,104.10519240004942,,,,,,,,,,,,,,,,104.10804780002218,104.1216284999391,104.1216284999391,104.68993370002136,r,1.0,0.5527685000561178,,104.69035079993772,104.70612149999944,105.69040720001794,,,,,,,,,,,,,,,,,,,,sub-190,1,stroop_test,60.17093357276027,
,,,,17.0,5.0,1.0,,,,,rot,red,r,1.0,r,1.0,0.9069461000617594,,,,,,,,,,,,,,1.0,5.0,17.0,0.0,,,,,105.70717259997036,,,,,,,,,,,,,,,,,105.69074009999169,106.89256099995691,107.69313190004324,107.67687990004195,,,,,,,,,,,,,,,,107.67908170004377,107.69313190004324,107.69313190004324,108.61232039995956,r,1.0,0.9069461000617594,,108.61276920000093,108.62803350004832,109.61333469999954,,,,,,,,,,,,,,,,,,,,sub-190,1,stroop_test,60.17093357276027,
,,,,18.0,6.0,1.0,,,,,blau,red,r,0.0,r,1.0,0.3503544999985024,,,,,,,,,,,,,,1.0,6.0,18.0,4.0,,,,,109.62994460004847,,,,,,,,,,,,,,,,,109.61363859998528,109.71290529996622,110.5145527999848,110.49805769999512,,,,,,,,,,,,,,,,110.5004195999354,110.5145527999848,110.5145527999848,110.86634319997393,r,1.0,0.3503544999985024,,110.86681010003667,110.88175449997652,111.86705390003044,,,,,,,,,,,,,,,,,,,,sub-190,1,stroop_test,60.17093357276027,
,,,,19.0,7.0,1.0,,,,,blau,yellow,g,0.0,b,0.0,0.5036911000497639,,,,,,,,,,,,,,1.0,7.0,19.0,7.0,,,,,111.88294899999164,,,,,,,,,,,,,,,,,111.86730419995727,111.96673929993996,112.76824290002696,112.75156799994876,,,,,,,,,,,,,,,,112.7519207999576,112.76824290002696,112.76824290002696,113.28654809994624,b,0.0,0.5036911000497639,,113.28896289994007,113.30221130000427,114.28672550001647,,,,,,,,,,,,,,,,,,,,sub-190,1,stroop_test,60.17093357276027,
,,,,20.0,8.0,1.0,,,,,blau,blue,b,1.0,b,1.0,0.8262277999892831,,,,,,,,,,,,,,1.0,8.0,20.0,5.0,,,,,114.30318599997554,,,,,,,,,,,,,,,,,114.2872628000332,115.4887929999968,116.289441299974,116.27381439995952,,,,,,,,,,,,,,,,116.27424069994596,116.289441299974,116.289441299974,117.12525549996644,b,1.0,0.8262277999892831,,117.12750229996163,117.14141579996794,118.12582750001457,,,,,,,,,,,,,,,,,,,,sub-190,1,stroop_test,60.17093357276027,
,,,,21.0,9.0,1.0,,,,,gelb,yellow,g,1.0,g,1.0,0.4570096000097692,,,,,,,,,,,,,,1.0,9.0,21.0,10.0,,,,,118.14231819997076,,,,,,,,,,,,,,,,,118.12609529995824,118.2262722000014,119.02783899998758,119.0114765999606,,,,,,,,,,,,,,,,119.01384919998236,119.02783899998758,119.02783899998758,119.49560300004669,g,1.0,0.4570096000097692,,119.49607160000596,119.51157079997938,120.49682110000867,,,,,,,,,,,,,,,,,,,,sub-190,1,stroop_test,60.17093357276027,
,,,,22.0,10.0,1.0,,,,,gelb,blue,b,0.0,b,1.0,0.7596838000463322,,,,,,,,,,,,,,1.0,10.0,22.0,9.0,,,,,120.51253720000386,,,,,,,,,,,,,,,,,120.49715940002352,121.29724510002416,122.09888800000772,122.08256250002889,,,,,,,,,,,,,,,,122.08306239999364,122.09888800000772,122.09888800000772,122.86766300001182,b,1.0,0.7596838000463322,,122.86807419999968,122.88368159998208,123.86803619994316,,,,,,,,,,,,,,,,,,,,sub-190,1,stroop_test,60.17093357276027,
,,,,23.0,11.0,1.0,,,,,blau,blue,b,1.0,b,1.0,0.5219472999451682,,,,,,,,,,,,,,1.0,11.0,23.0,6.0,,,,,123.8848021000158,,,,,,,,,,,,,,,,,123.86831599997822,124.21827630000188,125.01997699995992,125.0034442000324,,,,,,,,,,,,,,,,125.00540589995217,125.01997699995992,125.01997699995992,125.55506040004548,b,1.0,0.5219472999451682,,125.55542480002624,125.5707311000442,126.5563166999491,,,,,,,,,,,,,,,,,,,,sub-190,1,stroop_test,60.17093357276027,
,,,,,,,,,,,,,,,,,,,,,,,,,,,,,,,,,,,,,,,,,,,,,,,,,,,,,,,,,,,,,,,,,,,,,,,,,,,,,,,,,,,,,,,126.55650439998136,126.57198320003226,126.57198320003226,128.44222399999853,space,1.8589601999847216,,,,,,,,,,,,,sub-190,1,stroop_test,60.17093357276027,
,,,,0.0,0.0,0.0,,,,,,,,,,,,,rot,blue,b,0.0,b,1.0,0.825489200069569,,,,,,,,,,0.0,0.0,0.0,2.0,128.47976410004776,,,,,,,,,,,,,,,,,128.47578969993629,129.2490541000152,130.0506084000226,130.03447029995732,,,,,,,,,,,,,,,,,,,,,,,,,,,,,,,,,,,130.03741320001427,130.0506084000226,130.0506084000226,130.88545399997383,b,1.0,0.825489200069569,,,,,sub-190,1,stroop_test,60.17093357276027,
,,,,1.0,1.0,0.0,,,,,,,,,,,,,rot,yellow,g,0.0,g,1.0,0.8820981000317261,,,,,,,,,,0.0,1.0,1.0,3.0,130.9015769000398,,,,,,,,,,,,,,,,,130.8857188000111,131.23523180000484,132.03677480004262,132.02043819997925,,,,,,,,,,,,,,,,,,,,,,,,,,,,,,,,,,,132.0208058999851,132.03677480004262,132.03677480004262,132.92237879999448,g,1.0,0.8820981000317261,,,,,sub-190,1,stroop_test,60.17093357276027,
,,,,2.0,2.0,0.0,,,,,,,,,,,,,gelb,red,r,0.0,r,1.0,0.8909745999844745,,,,,,,,,,0.0,2.0,2.0,8.0,132.93811049999204,,,,,,,,,,,,,,,,,132.9226566000143,133.27175850002095,134.0733082999941,134.05689989996608,,,,,,,,,,,,,,,,,,,,,,,,,,,,,,,,,,,134.05977029993664,134.0733082999941,134.0733082999941,134.97519919998012,r,1.0,0.8909745999844745,,,,,sub-190,1,stroop_test,60.17093357276027,
,,,,3.0,3.0,0.0,,,,,,,,,,,,,blau,yellow,g,0.0,g,1.0,0.8060407000593841,,,,,,,,,,0.0,3.0,3.0,7.0,134.99119650002103,,,,,,,,,,,,,,,,,134.97557559993584,135.0744181999471,135.87579680001363,135.85942240001168,,,,,,,,,,,,,,,,,,,,,,,,,,,,,,,,,,,135.86184130003676,135.87579680001363,135.87579680001363,136.69383649993688,g,1.0,0.8060407000593841,,,,,sub-190,1,stroop_test,60.17093357276027,
,,,,4.0,4.0,0.0,,,,,,,,,,,,,rot,red,r,1.0,r,1.0,0.4963547000661492,,,,,,,,,,0.0,4.0,4.0,0.0,136.70997279998846,,,,,,,,,,,,,,,,,136.6941044999985,137.0438418999547,137.8453580000205,137.8290364999557,,,,,,,,,,,,,,,,,,,,,,,,,,,,,,,,,,,137.83170520002022,137.8453580000205,137.8453580000205,138.34652809996624,r,1.0,0.4963547000661492,,,,,sub-190,1,stroop_test,60.17093357276027,
,,,,5.0,5.0,0.0,,,,,,,,,,,,,blau,blue,b,1.0,b,1.0,0.4534545000642538,,,,,,,,,,0.0,5.0,5.0,5.0,138.36243750003632,,,,,,,,,,,,,,,,,138.34683469997253,139.5482446999522,140.3489833000349,140.33330349996686,,,,,,,,,,,,,,,,,,,,,,,,,,,,,,,,,,,140.33563159999903,140.3489833000349,140.3489833000349,140.81722520000767,b,1.0,0.4534545000642538,,,,,sub-190,1,stroop_test,60.17093357276027,
,,,,6.0,6.0,0.0,,,,,,,,,,,,,rot,red,r,1.0,r,1.0,0.5520793000468984,,,,,,,,,,0.0,6.0,6.0,1.0,140.83348389994353,,,,,,,,,,,,,,,,,140.81749409995973,142.018076700042,142.8196653999621,142.80341579997912,,,,,,,,,,,,,,,,,,,,,,,,,,,,,,,,,,,142.8054004999576,142.8196653999621,142.8196653999621,143.38819339999463,r,1.0,0.5520793000468984,,,,,sub-190,1,stroop_test,60.17093357276027,
,,,,7.0,7.0,0.0,,,,,,,,,,,,,gelb,yellow,g,1.0,g,1.0,0.5432854999089614,,,,,,,,,,0.0,7.0,7.0,10.0,143.4040890999604,,,,,,,,,,,,,,,,,143.3885833999375,144.588582700002,145.3902215999551,145.373798500048,,,,,,,,,,,,,,,,,,,,,,,,,,,,,,,,,,,145.37655139993876,145.3902215999551,145.3902215999551,145.94182219996583,g,1.0,0.5432854999089614,,,,,sub-190,1,stroop_test,60.17093357276027,
,,,,8.0,8.0,0.0,,,,,,,,,,,,,blau,blue,b,1.0,b,1.0,0.6707219000672922,,,,,,,,,,0.0,8.0,8.0,6.0,145.95776459993797,,,,,,,,,,,,,,,,,145.942196900025,146.29150920000393,147.09298409998885,147.07658909994643,,,,,,,,,,,,,,,,,,,,,,,,,,,,,,,,,,,147.0789577999385,147.09298409998885,147.09298409998885,147.77801510004792,b,1.0,0.6707219000672922,,,,,sub-190,1,stroop_test,60.17093357276027,
,,,,9.0,9.0,0.0,,,,,,,,,,,,,blau,red,r,0.0,r,1.0,0.611361899995245,,,,,,,,,,0.0,9.0,9.0,4.0,147.7939076999901,,,,,,,,,,,,,,,,,147.77838010003325,148.57870650000405,149.37920189998113,149.36286009999458,,,,,,,,,,,,,,,,,,,,,,,,,,,,,,,,,,,149.36321199999657,149.37920189998113,149.37920189998113,149.99796259996947,r,1.0,0.611361899995245,,,,,sub-190,1,stroop_test,60.17093357276027,
,,,,10.0,10.0,0.0,,,,,,,,,,,,,gelb,yellow,g,1.0,g,1.0,0.4847914000274613,,,,,,,,,,0.0,10.0,10.0,11.0,150.01402829994913,,,,,,,,,,,,,,,,,149.99832789995708,150.79803039995022,151.59984629997052,151.58348459994886,,,,,,,,,,,,,,,,,,,,,,,,,,,,,,,,,,,151.5854995000409,151.59984629997052,151.59984629997052,152.10087550000753,g,1.0,0.4847914000274613,,,,,sub-190,1,stroop_test,60.17093357276027,
,,,,11.0,11.0,0.0,,,,,,,,,,,,,gelb,blue,b,0.0,b,1.0,0.8663542999420315,,,,,,,,,,0.0,11.0,11.0,9.0,152.11687849997543,,,,,,,,,,,,,,,,,152.10128299996722,152.45134090003558,153.2519253999926,153.23550619999878,,,,,,,,,,,,,,,,,,,,,,,,,,,,,,,,,,,153.23594659997616,153.2519253999926,153.2519253999926,154.12056339997798,b,1.0,0.8663542999420315,,,,,sub-190,1,stroop_test,60.17093357276027,
,,,,12.0,0.0,1.0,,,,,,,,,,,,,rot,red,r,1.0,r,1.0,0.4547643000259995,,,,,,,,,,1.0,0.0,12.0,1.0,154.1364564000396,,,,,,,,,,,,,,,,,154.12082549999468,154.4712347999448,155.27162859996315,155.25505249993876,,,,,,,,,,,,,,,,,,,,,,,,,,,,,,,,,,,155.25703900004737,155.27162859996315,155.27162859996315,155.74039419996552,r,1.0,0.4547643000259995,,,,,sub-190,1,stroop_test,60.17093357276027,
,,,,13.0,1.0,1.0,,,,,,,,,,,,,gelb,blue,b,0.0,b,1.0,0.4143545000115409,,,,,,,,,,1.0,1.0,13.0,9.0,155.75643329997547,,,,,,,,,,,,,,,,,155.74076670000795,156.09008839994203,156.89051409997046,156.874137399951,,,,,,,,,,,,,,,,,,,,,,,,,,,,,,,,,,,156.87623039993923,156.89051409997046,156.89051409997046,157.30887519998942,b,1.0,0.4143545000115409,,,,,sub-190,1,stroop_test,60.17093357276027,
,,,,14.0,2.0,1.0,,,,,,,,,,,,,blau,blue,b,1.0,b,1.0,0.5285382999572903,,,,,,,,,,1.0,2.0,14.0,6.0,157.32495309994556,,,,,,,,,,,,,,,,,157.3091344999848,157.40897200000472,158.2090510999551,158.193470899947,,,,,,,,,,,,,,,,,,,,,,,,,,,,,,,,,,,158.19595590000972,158.2090510999551,158.2090510999551,158.74445460003335,b,1.0,0.5285382999572903,,,,,sub-190,1,stroop_test,60.17093357276027,
,,,,15.0,3.0,1.0,,,,,,,,,,,,,gelb,yellow,g,1.0,g,1.0,0.466820300091058,,,,,,,,,,1.0,3.0,15.0,11.0,158.7603716000449,,,,,,,,,,,,,,,,,158.74476270005107,159.54503529996146,160.34672889998183,160.33029369998258,,,,,,,,,,,,,,,,,,,,,,,,,,,,,,,,,,,160.33274650003295,160.34672889998183,160.34672889998183,160.8145401000511,g,1.0,0.466820300091058,,,,,sub-190,1,stroop_test,60.17093357276027,
,,,,16.0,4.0,1.0,,,,,,,,,,,,,rot,yellow,g,0.0,g,1.0,0.3355169999413192,,,,,,,,,,1.0,4.0,16.0,3.0,160.83044849999715,,,,,,,,,,,,,,,,,160.81481190002523,161.16417500004172,161.9656471000053,161.94927580002695,,,,,,,,,,,,,,,,,,,,,,,,,,,,,,,,,,,161.95130039996002,161.9656471000053,161.9656471000053,162.3167687000241,g,1.0,0.3355169999413192,,,,,sub-190,1,stroop_test,60.17093357276027,
,,,,17.0,5.0,1.0,,,,,,,,,,,,,gelb,red,r,0.0,r,1.0,0.4421560000628233,,,,,,,,,,1.0,5.0,17.0,8.0,162.33289940003306,,,,,,,,,,,,,,,,,162.3171372000361,162.4326216999907,163.23410330002662,163.21774889994413,,,,,,,,,,,,,,,,,,,,,,,,,,,,,,,,,,,163.2197082999628,163.23410330002662,163.23410330002662,163.68519079999533,r,1.0,0.4421560000628233,,,,,sub-190,1,stroop_test,60.17093357276027,
,,,,18.0,6.0,1.0,,,,,,,,,,,,,rot,blue,b,0.0,b,1.0,0.639935199986212,,,,,,,,,,1.0,6.0,18.0,2.0,163.7009758000495,,,,,,,,,,,,,,,,,163.68545160000212,164.88664169993717,165.68760069995187,165.67101179994643,,,,,,,,,,,,,,,,,,,,,,,,,,,,,,,,,,,165.67304459994193,165.68760069995187,165.68760069995187,166.3394504999742,b,1.0,0.639935199986212,,,,,sub-190,1,stroop_test,60.17093357276027,
,,,,19.0,7.0,1.0,,,,,,,,,,,,,blau,blue,b,1.0,b,1.0,0.4579875000054016,,,,,,,,,,1.0,7.0,19.0,5.0,166.35559089994058,,,,,,,,,,,,,,,,,166.3397139000008,166.45544849999715,167.25678179995157,167.2406863999786,,,,,,,,,,,,,,,,,,,,,,,,,,,,,,,,,,,167.24252039997373,167.25678179995157,167.25678179995157,167.72469910001382,b,1.0,0.4579875000054016,,,,,sub-190,1,stroop_test,60.17093357276027,
,,,,20.0,8.0,1.0,,,,,,,,,,,,,blau,red,r,0.0,r,1.0,0.5539864000165835,,,,,,,,,,1.0,8.0,20.0,4.0,167.74064490001183,,,,,,,,,,,,,,,,,167.7249697999796,167.82438430003822,168.62544440000784,168.60961779998615,,,,,,,,,,,,,,,,,,,,,,,,,,,,,,,,,,,168.61000470002182,168.62544440000784,168.62544440000784,169.19337839994114,r,1.0,0.5539864000165835,,,,,sub-190,1,stroop_test,60.17093357276027,
,,,,21.0,9.0,1.0,,,,,,,,,,,,,gelb,yellow,g,1.0,g,1.0,0.5229311999864876,,,,,,,,,,1.0,9.0,21.0,10.0,169.2095805000281,,,,,,,,,,,,,,,,,169.19364610000048,169.54331500001717,170.34474520001095,170.32833970000502,,,,,,,,,,,,,,,,,,,,,,,,,,,,,,,,,,,170.33031790005043,170.34474520001095,170.34474520001095,170.87951570004225,g,1.0,0.5229311999864876,,,,,sub-190,1,stroop_test,60.17093357276027,
,,,,22.0,10.0,1.0,,,,,,,,,,,,,rot,red,r,1.0,r,1.0,0.4978466000175103,,,,,,,,,,1.0,10.0,22.0,0.0,170.8955738999648,,,,,,,,,,,,,,,,,170.87978529999964,171.22939949994907,172.0307517000474,172.01444589998573,,,,,,,,,,,,,,,,,,,,,,,,,,,,,,,,,,,172.017959699966,172.0307517000474,172.0307517000474,172.5320303000044,r,1.0,0.4978466000175103,,,,,sub-190,1,stroop_test,60.17093357276027,
,,,,23.0,11.0,1.0,,,,,,,,,,,,,blau,yellow,g,0.0,g,1.0,1.0904066000366583,,,,,,,,,,1.0,11.0,23.0,7.0,172.5480411000317,,,,,,,,,,,,,,,,,172.5323125999421,173.7336325000506,174.53426850005053,174.51777180004865,,,,,,,,,,,,,,,,,,,,,,,,,,,,,,,,,,,174.519682400045,174.53426850005053,174.53426850005053,175.6365970999468,g,1.0,1.0904066000366583,,,,,sub-190,1,stroop_test,60.17093357276027,
,,,,24.0,0.0,2.0,,,,,,,,,,,,,gelb,blue,b,0.0,b,1.0,0.4695526999421417,,,,,,,,,,2.0,0.0,24.0,9.0,175.65271359996404,,,,,,,,,,,,,,,,,175.6368620999856,175.98676310002338,176.78795759996865,176.77157800004352,,,,,,,,,,,,,,,,,,,,,,,,,,,,,,,,,,,176.77428390004206,176.78795759996865,176.78795759996865,177.27224419999402,b,1.0,0.4695526999421417,,,,,sub-190,1,stroop_test,60.17093357276027,
,,,,25.0,1.0,2.0,,,,,,,,,,,,,rot,yellow,g,0.0,g,1.0,0.5242575999582186,,,,,,,,,,2.0,1.0,25.0,3.0,177.28863229998387,,,,,,,,,,,,,,,,,177.2726184000494,177.62212279997766,178.42387870000675,178.40729340002872,,,,,,,,,,,,,,,,,,,,,,,,,,,,,,,,,,,178.4105643000221,178.42387870000675,178.42387870000675,178.95838910003658,g,1.0,0.5242575999582186,,,,,sub-190,1,stroop_test,60.17093357276027,
,,,,26.0,2.0,2.0,,,,,,,,,,,,,blau,blue,b,1.0,b,1.0,0.5936816000612453,,,,,,,,,,2.0,2.0,26.0,6.0,178.97453470004257,,,,,,,,,,,,,,,,,178.9586475000251,179.3082683000248,180.1096879999386,180.09348879999015,,,,,,,,,,,,,,,,,,,,,,,,,,,,,,,,,,,180.09542699996382,180.1096879999386,180.1096879999386,180.7116918000393,b,1.0,0.5936816000612453,,,,,sub-190,1,stroop_test,60.17093357276027,
,,,,27.0,3.0,2.0,,,,,,,,,,,,,rot,blue,b,0.0,b,1.0,0.5731039999518543,,,,,,,,,,2.0,3.0,27.0,2.0,180.7277203999693,,,,,,,,,,,,,,,,,180.7120578000322,181.9126413000049,182.71390319999773,182.69738200004213,,,,,,,,,,,,,,,,,,,,,,,,,,,,,,,,,,,182.69950730004348,182.71390319999773,182.71390319999773,183.298989300034,b,1.0,0.5731039999518543,,,,,sub-190,1,stroop_test,60.17093357276027,
,,,,28.0,4.0,2.0,,,,,,,,,,,,,rot,red,r,1.0,r,1.0,0.4843205000506714,,,,,,,,,,2.0,4.0,28.0,0.0,183.31424610002432,,,,,,,,,,,,,,,,,183.2992554999655,183.6486585999373,184.4496286000358,184.43313919997308,,,,,,,,,,,,,,,,,,,,,,,,,,,,,,,,,,,184.43364329996984,184.4496286000358,184.4496286000358,184.93532369995955,r,1.0,0.4843205000506714,,,,,sub-190,1,stroop_test,60.17093357276027,
,,,,29.0,5.0,2.0,,,,,,,,,,,,,gelb,yellow,g,1.0,g,1.0,0.4983009999850765,,,,,,,,,,2.0,5.0,29.0,11.0,184.94999789993744,,,,,,,,,,,,,,,,,184.93568590004,185.7348753999686,186.5361133000115,186.51983540004585,,,,,,,,,,,,,,,,,,,,,,,,,,,,,,,,,,,186.5227719999384,186.5361133000115,186.5361133000115,187.03761400002983,g,1.0,0.4983009999850765,,,,,sub-190,1,stroop_test,60.17093357276027,
,,,,30.0,6.0,2.0,,,,,,,,,,,,,blau,red,r,0.0,r,1.0,0.8383014999562874,,,,,,,,,,2.0,6.0,30.0,4.0,187.05353889998517,,,,,,,,,,,,,,,,,187.03788850002456,187.8380805000197,188.63873659993988,188.62245689996053,,,,,,,,,,,,,,,,,,,,,,,,,,,,,,,,,,,188.62495359999596,188.63873659993988,188.63873659993988,189.49138469994068,r,1.0,0.8383014999562874,,,,,sub-190,1,stroop_test,60.17093357276027,
,,,,31.0,7.0,2.0,,,,,,,,,,,,,rot,red,r,1.0,r,1.0,0.4264271000865847,,,,,,,,,,2.0,7.0,31.0,1.0,189.50751150003637,,,,,,,,,,,,,,,,,189.4916482999688,190.2913300000364,191.09294050000608,191.0766575000016,,,,,,,,,,,,,,,,,,,,,,,,,,,,,,,,,,,191.07950779993556,191.09294050000608,191.09294050000608,191.528131900006,r,1.0,0.4264271000865847,,,,,sub-190,1,stroop_test,60.17093357276027,
,,,,32.0,8.0,2.0,,,,,,,,,,,,,gelb,red,r,0.0,r,1.0,0.5242553000571206,,,,,,,,,,2.0,8.0,32.0,8.0,191.5438689000439,,,,,,,,,,,,,,,,,191.5285830999492,192.7286260999972,193.53011399996467,193.51376170001456,,,,,,,,,,,,,,,,,,,,,,,,,,,,,,,,,,,193.51574109995272,193.53011399996467,193.53011399996467,194.06500790000428,r,1.0,0.5242553000571206,,,,,sub-190,1,stroop_test,60.17093357276027,
,,,,33.0,9.0,2.0,,,,,,,,,,,,,blau,blue,b,1.0,b,1.0,0.530983499949798,,,,,,,,,,2.0,9.0,33.0,5.0,194.08104439999445,,,,,,,,,,,,,,,,,194.06540009996388,195.26544690004084,196.0672326999484,196.05092209996656,,,,,,,,,,,,,,,,,,,,,,,,,,,,,,,,,,,196.0529613000108,196.0672326999484,196.0672326999484,196.60193440003783,b,1.0,0.530983499949798,,,,,sub-190,1,stroop_test,60.17093357276027,
,,,,34.0,10.0,2.0,,,,,,,,,,,,,blau,yellow,g,0.0,g,1.0,0.5070405000587925,,,,,,,,,,2.0,10.0,34.0,7.0,196.61817240004893,,,,,,,,,,,,,,,,,196.6021918000188,196.70197349996303,197.50261740002315,197.48606100003235,,,,,,,,,,,,,,,,,,,,,,,,,,,,,,,,,,,197.48639910004567,197.50261740002315,197.50261740002315,198.02051139995456,g,1.0,0.5070405000587925,,,,,sub-190,1,stroop_test,60.17093357276027,
,,,,35.0,11.0,2.0,,,,,,,,,,,,,gelb,yellow,g,1.0,g,1.0,0.3560574000002816,,,,,,,,,,2.0,11.0,35.0,10.0,198.03670489997603,,,,,,,,,,,,,,,,,198.02076290000696,198.82138940005095,199.62216060003263,199.60648720001336,,,,,,,,,,,,,,,,,,,,,,,,,,,,,,,,,,,199.60915369994476,199.62216060003263,199.62216060003263,199.99081670003943,g,1.0,0.3560574000002816,,,,,sub-190,1,stroop_test,60.17093357276027,
,,,,36.0,0.0,3.0,,,,,,,,,,,,,rot,blue,b,0.0,r,0.0,0.4172864999854937,,,,,,,,,,3.0,0.0,36.0,2.0,200.00684010004625,,,,,,,,,,,,,,,,,199.9910729000112,201.19149700005076,201.9944153999677,201.97696909995284,,,,,,,,,,,,,,,,,,,,,,,,,,,,,,,,,,,201.9793269999791,201.9944153999677,201.9944153999677,202.427584100049,r,0.0,0.4172864999854937,,,,,sub-190,1,stroop_test,60.17093357276027,
,,,,37.0,1.0,3.0,,,,,,,,,,,,,rot,red,r,1.0,r,1.0,0.5203730000648648,,,,,,,,,,3.0,1.0,37.0,0.0,202.4431291000219,,,,,,,,,,,,,,,,,202.42794980003964,203.6288995000068,204.43056040001105,204.41411979997065,,,,,,,,,,,,,,,,,,,,,,,,,,,,,,,,,,,204.4145254000323,204.43056040001105,204.43056040001105,204.9641673000297,r,1.0,0.5203730000648648,,,,,sub-190,1,stroop_test,60.17093357276027,
,,,,38.0,2.0,3.0,,,,,,,,,,,,,blau,blue,b,1.0,b,1.0,0.4874598999740556,,,,,,,,,,3.0,2.0,38.0,5.0,204.9801583000226,,,,,,,,,,,,,,,,,204.96451019996312,206.16539089998696,206.96740079997107,206.95090970001183,,,,,,,,,,,,,,,,,,,,,,,,,,,,,,,,,,,206.95296909997705,206.96740079997107,206.96740079997107,207.4685644999845,b,1.0,0.4874598999740556,,,,,sub-190,1,stroop_test,60.17093357276027,
,,,,39.0,3.0,3.0,,,,,,,,,,,,,gelb,yellow,g,1.0,g,1.0,0.6167290000012144,,,,,,,,,,3.0,3.0,39.0,10.0,207.48451149999164,,,,,,,,,,,,,,,,,207.4688834999688,207.8183149000397,208.6199746000348,208.6036402999889,,,,,,,,,,,,,,,,,,,,,,,,,,,,,,,,,,,208.6066149999388,208.6199746000348,208.6199746000348,209.23766620003155,g,1.0,0.6167290000012144,,,,,sub-190,1,stroop_test,60.17093357276027,
,,,,40.0,4.0,3.0,,,,,,,,,,,,,blau,red,r,0.0,r,1.0,0.7644101999467239,,,,,,,,,,3.0,4.0,40.0,4.0,209.2536853000056,,,,,,,,,,,,,,,,,209.23801930004265,209.587534399936,210.38902739994228,210.37265090004075,,,,,,,,,,,,,,,,,,,,,,,,,,,,,,,,,,,210.37469409999903,210.38902739994228,210.38902739994228,211.1577070000349,r,1.0,0.7644101999467239,,,,,sub-190,1,stroop_test,60.17093357276027,
,,,,41.0,5.0,3.0,,,,,,,,,,,,,rot,yellow,g,0.0,g,1.0,0.4921828000806272,,,,,,,,,,3.0,5.0,41.0,3.0,211.17372900003105,,,,,,,,,,,,,,,,,211.1580241000047,211.27357570000456,212.07500730000905,212.05860190000385,,,,,,,,,,,,,,,,,,,,,,,,,,,,,,,,,,,212.0609919000417,212.07500730000905,212.07500730000905,212.5764367999509,g,1.0,0.4921828000806272,,,,,sub-190,1,stroop_test,60.17093357276027,
,,,,42.0,6.0,3.0,,,,,,,,,,,,,blau,blue,b,1.0,b,1.0,0.5008898000232875,,,,,,,,,,3.0,6.0,42.0,6.0,212.59236589993816,,,,,,,,,,,,,,,,,212.5767883999506,212.6762135999743,213.4768519999925,213.4606961000245,,,,,,,,,,,,,,,,,,,,,,,,,,,,,,,,,,,213.4639385000337,213.4768519999925,213.4768519999925,213.9950269999681,b,1.0,0.5008898000232875,,,,,sub-190,1,stroop_test,60.17093357276027,
,,,,43.0,7.0,3.0,,,,,,,,,,,,,rot,red,r,1.0,r,1.0,0.5909290999406949,,,,,,,,,,3.0,7.0,43.0,1.0,214.0104982999619,,,,,,,,,,,,,,,,,213.99553079996255,214.09481419995427,214.8954453000333,214.88000210002065,,,,,,,,,,,,,,,,,,,,,,,,,,,,,,,,,,,214.88354349997823,214.8954453000333,214.8954453000333,215.4977151999483,r,1.0,0.5909290999406949,,,,,sub-190,1,stroop_test,60.17093357276027,
,,,,44.0,8.0,3.0,,,,,,,,,,,,,gelb,yellow,g,1.0,g,1.0,0.5901611000299454,,,,,,,,,,3.0,8.0,44.0,11.0,215.51329779997468,,,,,,,,,,,,,,,,,215.4982540999772,215.597246899968,216.39753640000708,216.38157179998237,,,,,,,,,,,,,,,,,,,,,,,,,,,,,,,,,,,216.38464159995783,216.39753640000708,216.39753640000708,217.00012460001744,g,1.0,0.5901611000299454,,,,,sub-190,1,stroop_test,60.17093357276027,
,,,,45.0,9.0,3.0,,,,,,,,,,,,,blau,yellow,g,0.0,g,1.0,0.4624625999713316,,,,,,,,,,3.0,9.0,45.0,7.0,217.0157509000273,,,,,,,,,,,,,,,,,217.00065599998925,217.0986099999864,217.8997669999953,217.88355799997225,,,,,,,,,,,,,,,,,,,,,,,,,,,,,,,,,,,217.8865071999608,217.8997669999953,217.8997669999953,218.36940780002624,g,1.0,0.4624625999713316,,,,,sub-190,1,stroop_test,60.17093357276027,
,,,,46.0,10.0,3.0,,,,,,,,,,,,,gelb,blue,b,0.0,b,1.0,0.5793659000191838,,,,,,,,,,3.0,10.0,46.0,9.0,218.3840399000328,,,,,,,,,,,,,,,,,218.36992600001395,219.56965489999857,220.3712057999801,220.35490569996185,,,,,,,,,,,,,,,,,,,,,,,,,,,,,,,,,,,220.35738950001544,220.3712057999801,220.3712057999801,220.9552182999905,b,1.0,0.5793659000191838,,,,,sub-190,1,stroop_test,60.17093357276027,
,,,,47.0,11.0,3.0,,,,,,,,,,,,,gelb,red,r,0.0,r,1.0,0.7827374000335112,,,,,,,,,,3.0,11.0,47.0,8.0,220.97131469997112,,,,,,,,,,,,,,,,,220.95549409999512,221.7561899999855,222.5576393000083,222.541609399952,,,,,,,,,,,,,,,,,,,,,,,,,,,,,,,,,,,222.5423583999509,222.5576393000083,222.5576393000083,223.34273519995625,r,1.0,0.7827374000335112,,,,,sub-190,1,stroop_test,60.17093357276027,
,,,,48.0,0.0,4.0,,,,,,,,,,,,,gelb,red,r,0.0,r,1.0,0.400519699905999,,,,,,,,,,4.0,0.0,48.0,8.0,223.35824730002787,,,,,,,,,,,,,,,,,223.34323839994613,223.69289199996277,224.49370420002376,224.4769047000445,,,,,,,,,,,,,,,,,,,,,,,,,,,,,,,,,,,224.47739619994536,224.49370420002376,224.49370420002376,224.8961202000501,r,1.0,0.400519699905999,,,,,sub-190,1,stroop_test,60.17093357276027,
,,,,49.0,1.0,4.0,,,,,,,,,,,,,blau,red,r,0.0,r,1.0,0.4938519999850541,,,,,,,,,,4.0,1.0,49.0,4.0,224.9110879999353,,,,,,,,,,,,,,,,,224.89657250000164,226.0958241999615,226.89732560003176,226.88110470003448,,,,,,,,,,,,,,,,,,,,,,,,,,,,,,,,,,,226.88419320003595,226.89732560003176,226.89732560003176,227.39893649995795,r,1.0,0.4938519999850541,,,,,sub-190,1,stroop_test,60.17093357276027,
,,,,50.0,2.0,4.0,,,,,,,,,,,,,rot,blue,b,0.0,b,1.0,0.6886303999926895,,,,,,,,,,4.0,2.0,50.0,2.0,227.41440939996392,,,,,,,,,,,,,,,,,227.399378299946,228.59999729995616,229.4018043000251,229.3844258999452,,,,,,,,,,,,,,,,,,,,,,,,,,,,,,,,,,,229.3877860000357,229.4018043000251,229.4018043000251,230.1037235000404,b,1.0,0.6886303999926895,,,,,sub-190,1,stroop_test,60.17093357276027,
,,,,51.0,3.0,4.0,,,,,,,,,,,,,rot,yellow,g,0.0,g,1.0,0.7719528999878094,,,,,,,,,,4.0,3.0,51.0,3.0,230.11933410004715,,,,,,,,,,,,,,,,,230.1042174999602,230.2191174000036,231.02053530002013,231.00428750005085,,,,,,,,,,,,,,,,,,,,,,,,,,,,,,,,,,,231.00480899994727,231.02053530002013,231.02053530002013,231.8051585999783,g,1.0,0.7719528999878094,,,,,sub-190,1,stroop_test,60.17093357276027,
,,,,52.0,4.0,4.0,,,,,,,,,,,,,blau,yellow,g,0.0,g,1.0,0.3754226999590173,,,,,,,,,,4.0,4.0,52.0,7.0,231.82132810004987,,,,,,,,,,,,,,,,,231.8054783999687,231.90514970000368,232.70603340002708,232.69031640002504,,,,,,,,,,,,,,,,,,,,,,,,,,,,,,,,,,,232.6928291999502,232.70603340002708,232.70603340002708,233.09086720005143,g,1.0,0.3754226999590173,,,,,sub-190,1,stroop_test,60.17093357276027,
,,,,53.0,5.0,4.0,,,,,,,,,,,,,gelb,yellow,g,1.0,g,1.0,0.369234099984169,,,,,,,,,,4.0,5.0,53.0,10.0,233.1062114000088,,,,,,,,,,,,,,,,,233.0914318000432,233.19044040003791,233.99107150000052,233.97559269994963,,,,,,,,,,,,,,,,,,,,,,,,,,,,,,,,,,,233.97816099994816,233.99107150000052,233.99107150000052,234.37567640002817,g,1.0,0.369234099984169,,,,,sub-190,1,stroop_test,60.17093357276027,
,,,,54.0,6.0,4.0,,,,,,,,,,,,,blau,blue,b,1.0,b,1.0,0.4723044000566005,,,,,,,,,,4.0,6.0,54.0,5.0,234.3917250999948,,,,,,,,,,,,,,,,,234.3759522000328,235.57743980002124,236.3781597999623,236.3626265999628,,,,,,,,,,,,,,,,,,,,,,,,,,,,,,,,,,,236.36593029997312,236.3781597999623,236.3781597999623,236.8639398999512,b,1.0,0.4723044000566005,,,,,sub-190,1,stroop_test,60.17093357276027,
,,,,55.0,7.0,4.0,,,,,,,,,,,,,rot,red,r,1.0,r,1.0,0.5052656000480056,,,,,,,,,,4.0,7.0,55.0,1.0,236.8795231999829,,,,,,,,,,,,,,,,,236.8645171000389,237.23021940002215,238.03057019994597,238.0151788999792,,,,,,,,,,,,,,,,,,,,,,,,,,,,,,,,,,,238.01792080001903,238.03057019994597,238.03057019994597,238.54966659995264,r,1.0,0.5052656000480056,,,,,sub-190,1,stroop_test,60.17093357276027,
,,,,56.0,8.0,4.0,,,,,,,,,,,,,rot,red,r,1.0,r,1.0,0.4863743999740109,,,,,,,,,,4.0,8.0,56.0,0.0,238.56546409998555,,,,,,,,,,,,,,,,,238.55013069999404,239.75017480005044,240.5517661999911,240.53550410002936,,,,,,,,,,,,,,,,,,,,,,,,,,,,,,,,,,,240.5359689999605,240.5517661999911,240.5517661999911,241.0533720999956,r,1.0,0.4863743999740109,,,,,sub-190,1,stroop_test,60.17093357276027,
,,,,57.0,9.0,4.0,,,,,,,,,,,,,blau,blue,b,1.0,b,1.0,0.5841335000004619,,,,,,,,,,4.0,9.0,57.0,6.0,241.0690918000182,,,,,,,,,,,,,,,,,241.05367079994176,241.4027791999979,242.20430440001653,242.188003999996,,,,,,,,,,,,,,,,,,,,,,,,,,,,,,,,,,,242.19086690002587,242.20430440001653,242.20430440001653,242.8054623999633,b,1.0,0.5841335000004619,,,,,sub-190,1,stroop_test,60.17093357276027,
,,,,58.0,10.0,4.0,,,,,,,,,,,,,gelb,yellow,g,1.0,g,1.0,0.4659633999690413,,,,,,,,,,4.0,10.0,58.0,11.0,242.82128140004352,,,,,,,,,,,,,,,,,242.80585220002104,243.60610149998683,244.4076625000453,244.3914487999864,,,,,,,,,,,,,,,,,,,,,,,,,,,,,,,,,,,244.39349249994848,244.4076625000453,244.4076625000453,244.8755133999512,g,1.0,0.4659633999690413,,,,,sub-190,1,stroop_test,60.17093357276027,
,,,,59.0,11.0,4.0,,,,,,,,,,,,,gelb,blue,b,0.0,b,1.0,0.9080998999997972,,,,,,,,,,4.0,11.0,59.0,9.0,244.89150549995247,,,,,,,,,,,,,,,,,244.87583549995907,246.07682369998656,246.8771629999392,246.8611280999612,,,,,,,,,,,,,,,,,,,,,,,,,,,,,,,,,,,246.8615669000428,246.8771629999392,246.8771629999392,247.79649820004124,b,1.0,0.9080998999997972,,,,,sub-190,1,stroop_test,60.17093357276027,
,,,,60.0,0.0,5.0,,,,,,,,,,,,,gelb,red,r,0.0,r,1.0,0.457687099929899,,,,,,,,,,5.0,0.0,60.0,8.0,247.8124239000026,,,,,,,,,,,,,,,,,247.7967611999484,247.89625780005008,248.69697000004817,248.68059959996023,,,,,,,,,,,,,,,,,,,,,,,,,,,,,,,,,,,248.6810871999478,248.69697000004817,248.69697000004817,249.1658830000088,r,1.0,0.457687099929899,,,,,sub-190,1,stroop_test,60.17093357276027,
,,,,61.0,1.0,5.0,,,,,,,,,,,,,blau,yellow,g,0.0,g,1.0,0.3702783000189811,,,,,,,,,,5.0,1.0,61.0,7.0,249.1815042999806,,,,,,,,,,,,,,,,,249.16626880003605,249.96556309994776,250.767018100014,250.7509092999389,,,,,,,,,,,,,,,,,,,,,,,,,,,,,,,,,,,250.75401679996867,250.767018100014,250.767018100014,251.15208359993997,g,1.0,0.3702783000189811,,,,,sub-190,1,stroop_test,60.17093357276027,
,,,,62.0,2.0,5.0,,,,,,,,,,,,,rot,red,r,1.0,r,1.0,0.5579081999603659,,,,,,,,,,5.0,2.0,62.0,0.0,251.16774219996296,,,,,,,,,,,,,,,,,251.15258879994508,251.25059549999423,252.0523434999632,252.03650789998937,,,,,,,,,,,,,,,,,,,,,,,,,,,,,,,,,,,252.0392735999776,252.0523434999632,252.0523434999632,252.6206668999512,r,1.0,0.5579081999603659,,,,,sub-190,1,stroop_test,60.17093357276027,
,,,,63.0,3.0,5.0,,,,,,,,,,,,,blau,red,r,0.0,r,1.0,0.556072499952279,,,,,,,,,,5.0,3.0,63.0,4.0,252.63661199994385,,,,,,,,,,,,,,,,,252.6209460999817,252.9703567000106,253.7719245000044,253.75580359995365,,,,,,,,,,,,,,,,,,,,,,,,,,,,,,,,,,,253.7579449999612,253.7719245000044,253.7719245000044,254.34046249999665,r,1.0,0.556072499952279,,,,,sub-190,1,stroop_test,60.17093357276027,
,,,,64.0,4.0,5.0,,,,,,,,,,,,,rot,blue,b,0.0,b,1.0,1.0212494001025334,,,,,,,,,,5.0,4.0,64.0,2.0,254.35625289997552,,,,,,,,,,,,,,,,,254.34079729998484,254.4560610000044,255.25758650002533,255.24153570004276,,,,,,,,,,,,,,,,,,,,,,,,,,,,,,,,,,,255.24408610002135,255.25758650002533,255.25758650002533,256.2955806000391,b,1.0,1.0212494001025334,,,,,sub-190,1,stroop_test,60.17093357276027,
,,,,65.0,5.0,5.0,,,,,,,,,,,,,rot,yellow,g,0.0,g,1.0,0.7226882999530062,,,,,,,,,,5.0,5.0,65.0,3.0,256.31134899996687,,,,,,,,,,,,,,,,,256.29595659999177,257.49595290003344,258.297514099977,258.2813658999512,,,,,,,,,,,,,,,,,,,,,,,,,,,,,,,,,,,258.2818237999454,258.297514099977,258.297514099977,259.0333891999908,g,1.0,0.7226882999530062,,,,,sub-190,1,stroop_test,60.17093357276027,
,,,,66.0,6.0,5.0,,,,,,,,,,,,,rot,red,r,1.0,r,1.0,0.4496276000281796,,,,,,,,,,5.0,6.0,66.0,1.0,259.0486550000496,,,,,,,,,,,,,,,,,259.03380870004185,259.8335159999551,260.63415850000456,260.6174316999968,,,,,,,,,,,,,,,,,,,,,,,,,,,,,,,,,,,260.617847800022,260.63415850000456,260.63415850000456,261.08670109999366,r,1.0,0.4496276000281796,,,,,sub-190,1,stroop_test,60.17093357276027,
,,,,67.0,7.0,5.0,,,,,,,,,,,,,gelb,blue,b,0.0,b,1.0,1.3368428000248969,,,,,,,,,,5.0,7.0,67.0,9.0,261.1019279999892,,,,,,,,,,,,,,,,,261.0870694000041,261.2017364000203,262.0181588999694,262.00927519996185,,,,,,,,,,,,,,,,,,,,,,,,,,,,,,,,,,,262.0128692999715,262.0181588999694,262.0181588999694,263.3567011000123,b,1.0,1.3368428000248969,,,,,sub-190,1,stroop_test,60.17093357276027,
,,,,68.0,8.0,5.0,,,,,,,,,,,,,gelb,yellow,g,1.0,g,1.0,0.5570258001098409,,,,,,,,,,5.0,8.0,68.0,10.0,263.37149389996193,,,,,,,,,,,,,,,,,263.35715499997605,264.55710229999386,265.35866230004467,265.3426275999518,,,,,,,,,,,,,,,,,,,,,,,,,,,,,,,,,,,265.34300190000795,265.35866230004467,265.35866230004467,265.9278275000397,g,1.0,0.5570258001098409,,,,,sub-190,1,stroop_test,60.17093357276027,
,,,,69.0,9.0,5.0,,,,,,,,,,,,,gelb,yellow,g,1.0,g,1.0,0.3998372000642121,,,,,,,,,,5.0,9.0,69.0,11.0,265.94317870005034,,,,,,,,,,,,,,,,,265.9282287999522,267.12773199996445,267.9291327999672,267.9130463999463,,,,,,,,,,,,,,,,,,,,,,,,,,,,,,,,,,,267.9136514000129,267.9291327999672,267.9291327999672,268.33057939994615,g,1.0,0.3998372000642121,,,,,sub-190,1,stroop_test,60.17093357276027,
,,,,70.0,10.0,5.0,,,,,,,,,,,,,blau,blue,b,1.0,b,1.0,0.5298707999754697,,,,,,,,,,5.0,10.0,70.0,6.0,268.34579799999483,,,,,,,,,,,,,,,,,268.33107850002125,269.1306562999962,269.9321482999949,269.9159405999817,,,,,,,,,,,,,,,,,,,,,,,,,,,,,,,,,,,269.91872539999895,269.9321482999949,269.9321482999949,270.46698689996265,b,1.0,0.5298707999754697,,,,,sub-190,1,stroop_test,60.17093357276027,
,,,,71.0,11.0,5.0,,,,,,,,,,,,,blau,blue,b,1.0,b,1.0,0.4263952999608591,,,,,,,,,,5.0,11.0,71.0,5.0,270.4829893000424,,,,,,,,,,,,,,,,,270.4673030000413,270.8166914000176,271.6182728999993,271.6019467000151,,,,,,,,,,,,,,,,,,,,,,,,,,,,,,,,,,,271.6024262999417,271.6182728999993,271.6182728999993,272.0529153000098,b,1.0,0.4263952999608591,,,,,sub-190,1,stroop_test,60.17093357276027,
,,,,72.0,0.0,6.0,,,,,,,,,,,,,rot,blue,b,0.0,b,1.0,0.5841617000987753,,,,,,,,,,6.0,0.0,72.0,2.0,272.0681291000219,,,,,,,,,,,,,,,,,272.0532005999703,272.1522962000454,272.95280900003854,272.9367701000301,,,,,,,,,,,,,,,,,,,,,,,,,,,,,,,,,,,272.93885020003654,272.95280900003854,272.95280900003854,273.5381693999516,b,1.0,0.5841617000987753,,,,,sub-190,1,stroop_test,60.17093357276027,
,,,,73.0,1.0,6.0,,,,,,,,,,,,,gelb,blue,b,0.0,b,1.0,0.4232882000505924,,,,,,,,,,6.0,1.0,73.0,9.0,273.5543037999887,,,,,,,,,,,,,,,,,273.53851949993987,273.8877858000342,274.6894146000268,274.6730355999898,,,,,,,,,,,,,,,,,,,,,,,,,,,,,,,,,,,274.6760737999575,274.6894146000268,274.6894146000268,275.1236391999992,b,1.0,0.4232882000505924,,,,,sub-190,1,stroop_test,60.17093357276027,
,,,,74.0,2.0,6.0,,,,,,,,,,,,,blau,blue,b,1.0,b,1.0,0.3854707999853417,,,,,,,,,,6.0,2.0,74.0,6.0,275.1394868999487,,,,,,,,,,,,,,,,,275.1240327999694,275.2234427999938,276.02498300001025,276.0087430999847,,,,,,,,,,,,,,,,,,,,,,,,,,,,,,,,,,,276.0121954999631,276.02498300001025,276.02498300001025,276.4254953999771,b,1.0,0.3854707999853417,,,,,sub-190,1,stroop_test,60.17093357276027,
,,,,75.0,3.0,6.0,,,,,,,,,,,,,gelb,red,r,0.0,r,1.0,0.5156620000489056,,,,,,,,,,6.0,3.0,75.0,8.0,276.4414850999601,,,,,,,,,,,,,,,,,276.42576919996645,277.22636940004304,278.02860900003,278.01252949994523,,,,,,,,,,,,,,,,,,,,,,,,,,,,,,,,,,,278.0156164999353,278.02860900003,278.02860900003,278.5461593000218,r,1.0,0.5156620000489056,,,,,sub-190,1,stroop_test,60.17093357276027,
,,,,76.0,4.0,6.0,,,,,,,,,,,,,rot,red,r,1.0,r,1.0,0.3421442999970168,,,,,,,,,,6.0,4.0,76.0,1.0,278.5620846999809,,,,,,,,,,,,,,,,,278.54643170000054,278.89572719996795,279.6972370999865,279.6806607999606,,,,,,,,,,,,,,,,,,,,,,,,,,,,,,,,,,,279.6833783000475,279.6972370999865,279.6972370999865,280.04859879997093,r,1.0,0.3421442999970168,,,,,sub-190,1,stroop_test,60.17093357276027,
,,,,77.0,5.0,6.0,,,,,,,,,,,,,gelb,yellow,g,1.0,g,1.0,0.4448961000889539,,,,,,,,,,6.0,5.0,77.0,11.0,280.06438700004946,,,,,,,,,,,,,,,,,280.0489558000117,281.24913320003543,282.0507193999365,282.0343281000387,,,,,,,,,,,,,,,,,,,,,,,,,,,,,,,,,,,282.0366710999515,282.0507193999365,282.0507193999365,282.5017822999507,g,1.0,0.4448961000889539,,,,,sub-190,1,stroop_test,60.17093357276027,
,,,,78.0,6.0,6.0,,,,,,,,,,,,,blau,yellow,g,0.0,g,1.0,0.3363611999666318,,,,,,,,,,6.0,6.0,78.0,7.0,282.5172272999771,,,,,,,,,,,,,,,,,282.50223500002176,283.3023699000478,284.1038223999785,284.08783490001224,,,,,,,,,,,,,,,,,,,,,,,,,,,,,,,,,,,284.0912023000419,284.1038223999785,284.1038223999785,284.45519699994475,g,1.0,0.3363611999666318,,,,,sub-190,1,stroop_test,60.17093357276027,
,,,,79.0,7.0,6.0,,,,,,,,,,,,,rot,red,r,1.0,b,0.0,0.5059205000288785,,,,,,,,,,6.0,7.0,79.0,0.0,284.4710890999995,,,,,,,,,,,,,,,,,284.45566870004404,284.5709591000341,285.37240849994123,285.35625930002425,,,,,,,,,,,,,,,,,,,,,,,,,,,,,,,,,,,285.3601731000236,285.37240849994123,285.37240849994123,285.89065069996286,b,0.0,0.5059205000288785,,,,,sub-190,1,stroop_test,60.17093357276027,
,,,,80.0,8.0,6.0,,,,,,,,,,,,,blau,red,r,0.0,r,1.0,1.0974036999978125,,,,,,,,,,6.0,8.0,80.0,4.0,285.90646049997304,,,,,,,,,,,,,,,,,285.8911369999405,287.09119810000993,287.8926627000328,287.8766886999365,,,,,,,,,,,,,,,,,,,,,,,,,,,,,,,,,,,287.8807781999931,287.8926627000328,287.8926627000328,288.99515109998174,r,1.0,1.0974036999978125,,,,,sub-190,1,stroop_test,60.17093357276027,
,,,,81.0,9.0,6.0,,,,,,,,,,,,,rot,yellow,g,0.0,g,1.0,0.6128061000490561,,,,,,,,,,6.0,9.0,81.0,3.0,289.0111328000203,,,,,,,,,,,,,,,,,288.99550159997307,289.7960115999449,290.5962462000316,290.57992849999573,,,,,,,,,,,,,,,,,,,,,,,,,,,,,,,,,,,290.5821919000009,290.5962462000316,290.5962462000316,291.2156978000421,g,1.0,0.6128061000490561,,,,,sub-190,1,stroop_test,60.17093357276027,
,,,,82.0,10.0,6.0,,,,,,,,,,,,,gelb,yellow,g,1.0,g,1.0,0.4624682000139728,,,,,,,,,,6.0,10.0,82.0,10.0,291.23121889994945,,,,,,,,,,,,,,,,,291.21612490003463,291.56496450002305,292.3664320999524,292.3503967999713,,,,,,,,,,,,,,,,,,,,,,,,,,,,,,,,,,,292.353327000048,292.3664320999524,292.3664320999524,292.8344600000419,g,1.0,0.4624682000139728,,,,,sub-190,1,stroop_test,60.17093357276027,
,,,,83.0,11.0,6.0,,,,,,,,,,,,,blau,blue,b,1.0,b,1.0,0.5731708999956027,,,,,,,,,,6.0,11.0,83.0,5.0,292.85021159995813,,,,,,,,,,,,,,,,,292.834806400002,293.63481570000295,294.4355380999623,294.4193612999516,,,,,,,,,,,,,,,,,,,,,,,,,,,,,,,,,,,294.4225000999868,294.4355380999623,294.4355380999623,295.0210920999525,b,1.0,0.5731708999956027,,,,,sub-190,1,stroop_test,60.17093357276027,
,,,,84.0,0.0,7.0,,,,,,,,,,,,,rot,red,r,1.0,r,1.0,0.5635837001027539,,,,,,,,,,7.0,0.0,84.0,1.0,295.03679589997046,,,,,,,,,,,,,,,,,295.0215597000206,295.3704945000354,296.1720968999434,296.1559910000069,,,,,,,,,,,,,,,,,,,,,,,,,,,,,,,,,,,296.1594806000357,296.1720968999434,296.1720968999434,296.740983900032,r,1.0,0.5635837001027539,,,,,sub-190,1,stroop_test,60.17093357276027,
,,,,85.0,1.0,7.0,,,,,,,,,,,,,gelb,yellow,g,1.0,g,1.0,0.5324519999558106,,,,,,,,,,7.0,1.0,85.0,10.0,296.7567971999524,,,,,,,,,,,,,,,,,296.7413775000023,296.8558320000302,297.6576687999768,297.6416964000091,,,,,,,,,,,,,,,,,,,,,,,,,,,,,,,,,,,297.64460719993804,297.6576687999768,297.6576687999768,298.19272279995494,g,1.0,0.5324519999558106,,,,,sub-190,1,stroop_test,60.17093357276027,
,,,,86.0,2.0,7.0,,,,,,,,,,,,,rot,blue,b,0.0,b,1.0,0.8653817999875173,,,,,,,,,,7.0,2.0,86.0,2.0,298.2083656999748,,,,,,,,,,,,,,,,,298.1930802999996,298.30782180000097,299.10970499995165,299.09349060000386,,,,,,,,,,,,,,,,,,,,,,,,,,,,,,,,,,,299.0964797999477,299.10970499995165,299.10970499995165,299.9787063000258,b,1.0,0.8653817999875173,,,,,sub-190,1,stroop_test,60.17093357276027,
,,,,87.0,3.0,7.0,,,,,,,,,,,,,gelb,red,r,0.0,r,1.0,1.0436890999553723,,,,,,,,,,7.0,3.0,87.0,8.0,299.9943631000351,,,,,,,,,,,,,,,,,299.97910700005013,300.7790650000097,301.5795269999653,301.56312049995176,,,,,,,,,,,,,,,,,,,,,,,,,,,,,,,,,,,301.56565480004065,301.5795269999653,301.5795269999653,302.63290810002945,r,1.0,1.0436890999553723,,,,,sub-190,1,stroop_test,60.17093357276027,
,,,,88.0,4.0,7.0,,,,,,,,,,,,,blau,blue,b,1.0,b,1.0,0.6571992000099272,,,,,,,,,,7.0,4.0,88.0,5.0,302.6487907000119,,,,,,,,,,,,,,,,,302.63337279995903,302.98248639993835,303.7828911000397,303.7665801999392,,,,,,,,,,,,,,,,,,,,,,,,,,,,,,,,,,,303.7687992999563,303.7828911000397,303.7828911000397,304.452129399986,b,1.0,0.6571992000099272,,,,,sub-190,1,stroop_test,60.17093357276027,
,,,,89.0,5.0,7.0,,,,,,,,,,,,,blau,blue,b,1.0,b,1.0,0.4217922000680119,,,,,,,,,,7.0,5.0,89.0,6.0,304.4681827999884,,,,,,,,,,,,,,,,,304.4525341000408,305.6528043999569,306.454282599967,306.4379487000406,,,,,,,,,,,,,,,,,,,,,,,,,,,,,,,,,,,306.438286999939,306.454282599967,306.454282599967,306.8884806999704,b,1.0,0.4217922000680119,,,,,sub-190,1,stroop_test,60.17093357276027,
,,,,90.0,6.0,7.0,,,,,,,,,,,,,gelb,yellow,g,1.0,g,1.0,0.666564500075765,,,,,,,,,,7.0,6.0,90.0,11.0,306.90455830004066,,,,,,,,,,,,,,,,,306.88873999996576,306.9883716000477,307.7898347999435,307.77370899997186,,,,,,,,,,,,,,,,,,,,,,,,,,,,,,,,,,,307.77588960004505,307.7898347999435,307.7898347999435,308.4586097999709,g,1.0,0.666564500075765,,,,,sub-190,1,stroop_test,60.17093357276027,
,,,,91.0,7.0,7.0,,,,,,,,,,,,,gelb,blue,b,0.0,b,1.0,0.7092998999869451,,,,,,,,,,7.0,7.0,91.0,9.0,308.4740140000358,,,,,,,,,,,,,,,,,308.45914469996933,308.8244535999838,309.6261351000285,309.60978369996883,,,,,,,,,,,,,,,,,,,,,,,,,,,,,,,,,,,309.6101969999727,309.6261351000285,309.6261351000285,310.3447189000435,b,1.0,0.7092998999869451,,,,,sub-190,1,stroop_test,60.17093357276027,
,,,,92.0,8.0,7.0,,,,,,,,,,,,,rot,red,r,1.0,r,1.0,0.6484931000741199,,,,,,,,,,7.0,8.0,92.0,0.0,310.3605258000316,,,,,,,,,,,,,,,,,310.34519280004315,310.6941514000064,311.4947503999574,311.4786210999591,,,,,,,,,,,,,,,,,,,,,,,,,,,,,,,,,,,311.4816772999475,311.4947503999574,311.4947503999574,312.1471736000385,r,1.0,0.6484931000741199,,,,,sub-190,1,stroop_test,60.17093357276027,
,,,,93.0,9.0,7.0,,,,,,,,,,,,,rot,yellow,g,0.0,g,1.0,0.6590600999770686,,,,,,,,,,7.0,9.0,93.0,3.0,312.1630847000052,,,,,,,,,,,,,,,,,312.14751709997654,312.2628366999561,313.06453530001454,313.0482431999408,,,,,,,,,,,,,,,,,,,,,,,,,,,,,,,,,,,313.0486191000091,313.06453530001454,313.06453530001454,313.73344270000234,g,1.0,0.6590600999770686,,,,,sub-190,1,stroop_test,60.17093357276027,
,,,,94.0,10.0,7.0,,,,,,,,,,,,,blau,yellow,g,0.0,g,1.0,1.0106946000596508,,,,,,,,,,7.0,10.0,94.0,7.0,313.7482267000014,,,,,,,,,,,,,,,,,313.733842000016,314.93396019993816,315.7346261000493,315.71809300000314,,,,,,,,,,,,,,,,,,,,,,,,,,,,,,,,,,,315.7211454999633,315.7346261000493,315.7346261000493,316.75409890001174,g,1.0,1.0106946000596508,,,,,sub-190,1,stroop_test,60.17093357276027,
,,,,95.0,11.0,7.0,,,,,,,,,,,,,blau,red,r,0.0,r,1.0,0.5974663000088185,,,,,,,,,,7.0,11.0,95.0,4.0,316.7701761999633,,,,,,,,,,,,,,,,,316.7544435999589,316.8699941999512,317.6714156999951,317.65501959994435,,,,,,,,,,,,,,,,,,,,,,,,,,,,,,,,,,,317.65536790003534,317.6714156999951,317.6714156999951,318.27290620002896,r,1.0,0.5974663000088185,,,,,sub-190,1,stroop_test,60.17093357276027,
,,,,96.0,0.0,8.0,,,,,,,,,,,,,rot,blue,b,0.0,b,1.0,0.9736370000755414,,,,,,,,,,8.0,0.0,96.0,2.0,318.2883532999549,,,,,,,,,,,,,,,,,318.2733782000141,319.4740082999924,320.27554619999137,320.259051800007,,,,,,,,,,,,,,,,,,,,,,,,,,,,,,,,,,,320.2614861000329,320.27554619999137,320.27554619999137,321.26075050001964,b,1.0,0.9736370000755414,,,,,sub-190,1,stroop_test,60.17093357276027,
,,,,97.0,1.0,8.0,,,,,,,,,,,,,gelb,blue,b,0.0,b,1.0,0.5599261000752449,,,,,,,,,,8.0,1.0,97.0,9.0,321.276699500042,,,,,,,,,,,,,,,,,321.2611165000126,321.3606062999461,322.1616046000272,322.1453577999491,,,,,,,,,,,,,,,,,,,,,,,,,,,,,,,,,,,322.1477645999985,322.1616046000272,322.1616046000272,322.7295514999423,b,1.0,0.5599261000752449,,,,,sub-190,1,stroop_test,60.17093357276027,
,,,,98.0,2.0,8.0,,,,,,,,,,,,,gelb,yellow,g,1.0,g,1.0,0.5384658001130447,,,,,,,,,,8.0,2.0,98.0,10.0,322.74560639995616,,,,,,,,,,,,,,,,,322.72981069993693,323.07922730001155,323.88070270000026,323.86439500004053,,,,,,,,,,,,,,,,,,,,,,,,,,,,,,,,,,,323.864727600012,323.88070270000026,323.88070270000026,324.4327025000239,g,1.0,0.5384658001130447,,,,,sub-190,1,stroop_test,60.17093357276027,
,,,,99.0,3.0,8.0,,,,,,,,,,,,,rot,red,r,1.0,r,1.0,0.5092613999731839,,,,,,,,,,8.0,3.0,99.0,0.0,324.44858890003525,,,,,,,,,,,,,,,,,324.4331655999413,324.7820617000107,325.5836425999878,325.5672181999544,,,,,,,,,,,,,,,,,,,,,,,,,,,,,,,,,,,325.5694653999526,325.5836425999878,325.5836425999878,326.1017125999788,r,1.0,0.5092613999731839,,,,,sub-190,1,stroop_test,60.17093357276027,
,,,,100.0,4.0,8.0,,,,,,,,,,,,,blau,red,r,0.0,r,1.0,1.1445800999645144,,,,,,,,,,8.0,4.0,100.0,4.0,326.1174868999515,,,,,,,,,,,,,,,,,326.1020760999527,327.3018738999963,328.10385730001144,328.0874267000472,,,,,,,,,,,,,,,,,,,,,,,,,,,,,,,,,,,328.08917970000766,328.10385730001144,328.10385730001144,329.2563784000231,r,1.0,1.1445800999645144,,,,,sub-190,1,stroop_test,60.17093357276027,
,,,,101.0,5.0,8.0,,,,,,,,,,,,,rot,red,r,1.0,r,1.0,0.6330633000470698,,,,,,,,,,8.0,5.0,101.0,1.0,329.2724777000258,,,,,,,,,,,,,,,,,329.2566356000025,330.0559976999648,330.85794260003604,330.84163399995305,,,,,,,,,,,,,,,,,,,,,,,,,,,,,,,,,,,330.8443838999374,330.85794260003604,330.85794260003604,331.492945499951,r,1.0,0.6330633000470698,,,,,sub-190,1,stroop_test,60.17093357276027,
,,,,102.0,6.0,8.0,,,,,,,,,,,,,gelb,yellow,g,1.0,b,0.0,0.5631026999326423,,,,,,,,,,8.0,6.0,102.0,11.0,331.5095210999716,,,,,,,,,,,,,,,,,331.4934307000367,332.6941361000063,333.49571169994306,333.4794772999594,,,,,,,,,,,,,,,,,,,,,,,,,,,,,,,,,,,333.4822656000033,333.49571169994306,333.49571169994306,334.06306830001995,b,0.0,0.5631026999326423,,,,,sub-190,1,stroop_test,60.17093357276027,
,,,,103.0,7.0,8.0,,,,,,,,,,,,,gelb,red,r,0.0,r,1.0,0.8898479000199586,,,,,,,,,,8.0,7.0,103.0,8.0,334.07904750003945,,,,,,,,,,,,,,,,,334.0633901000256,334.8639265999664,335.66537469998,335.6491454000352,,,,,,,,,,,,,,,,,,,,,,,,,,,,,,,,,,,335.64947800000664,335.66537469998,335.66537469998,336.56747719994746,r,1.0,0.8898479000199586,,,,,sub-190,1,stroop_test,60.17093357276027,
,,,,104.0,8.0,8.0,,,,,,,,,,,,,blau,blue,b,1.0,b,1.0,0.7241429999703541,,,,,,,,,,8.0,8.0,104.0,5.0,336.5834415999707,,,,,,,,,,,,,,,,,336.5677283999976,336.9172311000293,337.7188328000484,337.7024320999626,,,,,,,,,,,,,,,,,,,,,,,,,,,,,,,,,,,337.704322500038,337.7188328000484,337.7188328000484,338.45401929994114,b,1.0,0.7241429999703541,,,,,sub-190,1,stroop_test,60.17093357276027,
,,,,105.0,9.0,8.0,,,,,,,,,,,,,blau,blue,b,1.0,b,1.0,0.6641598000423983,,,,,,,,,,8.0,9.0,105.0,6.0,338.4691172000021,,,,,,,,,,,,,,,,,338.454391199979,338.8036435999675,339.60441819997504,339.58783179998863,,,,,,,,,,,,,,,,,,,,,,,,,,,,,,,,,,,339.58829929993954,339.60441819997504,339.60441819997504,340.2735976999393,b,1.0,0.6641598000423983,,,,,sub-190,1,stroop_test,60.17093357276027,
,,,,106.0,10.0,8.0,,,,,,,,,,,,,rot,yellow,g,0.0,g,1.0,0.6304981999564916,,,,,,,,,,8.0,10.0,106.0,3.0,340.289445500006,,,,,,,,,,,,,,,,,340.2740896999603,340.6230551999761,341.423549399944,341.4073441999499,,,,,,,,,,,,,,,,,,,,,,,,,,,,,,,,,,,341.4105162000051,341.423549399944,341.423549399944,342.0590443999972,g,1.0,0.6304981999564916,,,,,sub-190,1,stroop_test,60.17093357276027,
,,,,107.0,11.0,8.0,,,,,,,,,,,,,blau,yellow,g,0.0,g,1.0,0.4792797000845894,,,,,,,,,,8.0,11.0,107.0,7.0,342.0750875000376,,,,,,,,,,,,,,,,,342.05938120000064,342.4088307999773,343.21040260000154,343.1943169999868,,,,,,,,,,,,,,,,,,,,,,,,,,,,,,,,,,,343.1970011999365,343.21040260000154,343.21040260000154,343.6948433000361,g,1.0,0.4792797000845894,,,,,sub-190,1,stroop_test,60.17093357276027,
,,,,108.0,0.0,9.0,,,,,,,,,,,,,gelb,yellow,g,1.0,g,1.0,0.4186510000145063,,,,,,,,,,9.0,0.0,108.0,10.0,343.71087609999813,,,,,,,,,,,,,,,,,343.6950963999843,343.79385090002324,344.5955419000238,344.5790880999993,,,,,,,,,,,,,,,,,,,,,,,,,,,,,,,,,,,344.5827275000047,344.5955419000238,344.5955419000238,345.0305015000049,g,1.0,0.4186510000145063,,,,,sub-190,1,stroop_test,60.17093357276027,
,,,,109.0,1.0,9.0,,,,,,,,,,,,,rot,blue,b,0.0,b,1.0,0.847568399971351,,,,,,,,,,9.0,1.0,109.0,2.0,345.0466741999844,,,,,,,,,,,,,,,,,345.0307675000513,346.23161140002776,347.0329265999608,347.01641579996794,,,,,,,,,,,,,,,,,,,,,,,,,,,,,,,,,,,347.0190082000336,347.0329265999608,347.0329265999608,347.88447239995,b,1.0,0.847568399971351,,,,,sub-190,1,stroop_test,60.17093357276027,
,,,,110.0,2.0,9.0,,,,,,,,,,,,,blau,red,r,0.0,r,1.0,0.7219292999943718,,,,,,,,,,9.0,2.0,110.0,4.0,347.9005569999572,,,,,,,,,,,,,,,,,347.8848212000448,348.2342573000351,349.0357925000135,349.01930449996144,,,,,,,,,,,,,,,,,,,,,,,,,,,,,,,,,,,349.02172429999337,349.0357925000135,349.0357925000135,349.7709181000246,r,1.0,0.7219292999943718,,,,,sub-190,1,stroop_test,60.17093357276027,
,,,,111.0,3.0,9.0,,,,,,,,,,,,,rot,yellow,g,0.0,g,1.0,0.6968557999935001,,,,,,,,,,9.0,3.0,111.0,3.0,349.7872665999457,,,,,,,,,,,,,,,,,349.77128610003274,350.1207922999747,350.92220449994784,350.906068900018,,,,,,,,,,,,,,,,,,,,,,,,,,,,,,,,,,,350.90841489995364,350.92220449994784,350.92220449994784,351.6237199000316,g,1.0,0.6968557999935001,,,,,sub-190,1,stroop_test,60.17093357276027,
,,,,112.0,4.0,9.0,,,,,,,,,,,,,rot,red,r,1.0,r,1.0,0.5812006000196561,,,,,,,,,,9.0,4.0,112.0,1.0,351.6398557999637,,,,,,,,,,,,,,,,,351.62412119994406,352.4237680999795,353.2253947999561,353.20893600001,,,,,,,,,,,,,,,,,,,,,,,,,,,,,,,,,,,353.2093124999665,353.2253947999561,353.2253947999561,353.8106699000345,r,1.0,0.5812006000196561,,,,,sub-190,1,stroop_test,60.17093357276027,
,,,,113.0,5.0,9.0,,,,,,,,,,,,,gelb,blue,b,0.0,b,1.0,0.8516234999988228,,,,,,,,,,9.0,5.0,113.0,9.0,353.8263677000068,,,,,,,,,,,,,,,,,353.8110298999818,353.92605360003654,354.7277841999894,354.71127710002474,,,,,,,,,,,,,,,,,,,,,,,,,,,,,,,,,,,354.7137436999474,354.7277841999894,354.7277841999894,355.59662169998046,b,1.0,0.8516234999988228,,,,,sub-190,1,stroop_test,60.17093357276027,
,,,,114.0,6.0,9.0,,,,,,,,,,,,,blau,blue,b,1.0,b,1.0,0.4510797000257298,,,,,,,,,,9.0,6.0,114.0,6.0,355.61230599996634,,,,,,,,,,,,,,,,,355.5968836999964,356.3973535000114,357.19777159998193,357.1813003999414,,,,,,,,,,,,,,,,,,,,,,,,,,,,,,,,,,,357.1837978999829,357.19777159998193,357.19777159998193,357.65002439997625,b,1.0,0.4510797000257298,,,,,sub-190,1,stroop_test,60.17093357276027,
,,,,115.0,7.0,9.0,,,,,,,,,,,,,blau,yellow,g,0.0,g,1.0,0.8408276999834925,,,,,,,,,,9.0,7.0,115.0,7.0,357.66550400003325,,,,,,,,,,,,,,,,,357.65043779998086,357.74874840001576,358.5502365999855,358.53359729994554,,,,,,,,,,,,,,,,,,,,,,,,,,,,,,,,,,,358.5341510999715,358.5502365999855,358.5502365999855,359.40183760004584,g,1.0,0.8408276999834925,,,,,sub-190,1,stroop_test,60.17093357276027,
,,,,116.0,8.0,9.0,,,,,,,,,,,,,gelb,red,r,0.0,r,1.0,0.5484241000376642,,,,,,,,,,9.0,8.0,116.0,8.0,359.4179428999778,,,,,,,,,,,,,,,,,359.4022513999371,360.60333149996586,361.4049145999597,361.3884738000343,,,,,,,,,,,,,,,,,,,,,,,,,,,,,,,,,,,361.3905494000064,361.4049145999597,361.4049145999597,361.9566234999802,r,1.0,0.5484241000376642,,,,,sub-190,1,stroop_test,60.17093357276027,
,,,,117.0,9.0,9.0,,,,,,,,,,,,,blau,blue,b,1.0,b,1.0,0.9459612999344243,,,,,,,,,,9.0,9.0,117.0,5.0,361.97173350001685,,,,,,,,,,,,,,,,,361.9570365999825,362.3056772999698,363.1068371000001,363.0906691999408,,,,,,,,,,,,,,,,,,,,,,,,,,,,,,,,,,,363.0926093000453,363.1068371000001,363.1068371000001,364.05927540000994,b,1.0,0.9459612999344243,,,,,sub-190,1,stroop_test,60.17093357276027,
,,,,118.0,10.0,9.0,,,,,,,,,,,,,rot,red,r,1.0,r,1.0,0.4913854000624269,,,,,,,,,,9.0,10.0,118.0,0.0,364.07523640000727,,,,,,,,,,,,,,,,,364.05972939997446,364.8599908000324,365.6606847000076,365.6446819000412,,,,,,,,,,,,,,,,,,,,,,,,,,,,,,,,,,,365.6471025999636,365.6606847000076,365.6606847000076,366.16265049995854,r,1.0,0.4913854000624269,,,,,sub-190,1,stroop_test,60.17093357276027,
,,,,119.0,11.0,9.0,,,,,,,,,,,,,gelb,yellow,g,1.0,g,1.0,0.492520899977535,,,,,,,,,,9.0,11.0,119.0,11.0,366.1788903999841,,,,,,,,,,,,,,,,,366.1630758999381,366.5124684999464,367.3131919000298,367.2967840000056,,,,,,,,,,,,,,,,,,,,,,,,,,,,,,,,,,,367.298782799975,367.3131919000298,367.3131919000298,367.8154407000402,g,1.0,0.492520899977535,,,,,sub-190,1,stroop_test,60.17093357276027,
,,,,,,,,,,,,,,,,,,,,,,,,,,,,,,,,,,,,,,,,,,,,,,,,,,,,,,,,,,,,,,,,,,,,,,,,,,,,,,,,,,,,,,,,,,,,,,,,,,,,,,367.815576300025,367.8306924999925,372.8220224999823,sub-190,1,stroop_test,60.17093357276027,
