wordCTK,colorCTK,corrAnsCTK,congruentCTK,thisN,thisTrialN,thisRepN,keyResp_CTK.keys,keyResp_CTK.corr,keyResp_CTK.rt,keyResp_CTK.duration,wordPractice,colorPractice,corrAnsPractice,congruentPractice,respPractice.keys,respPractice.corr,respPractice.rt,respPractice.duration,word,color,corrAns,congruent,keyResp_test_run.keys,keyResp_test_run.corr,keyResp_test_run.rt,keyResp_test_run.duration,trials_CTK.thisRepN,trials_CTK.thisTrialN,trials_CTK.thisN,trials_CTK.thisIndex,trials_practice.thisRepN,trials_practice.thisTrialN,trials_practice.thisN,trials_practice.thisIndex,trials_test.thisRepN,trials_test.thisTrialN,trials_test.thisN,trials_test.thisIndex,thisRow.t,notes,instruction.started,instr_text.started,instr_image.started,instr_resp.started,instruction.stopped,instr_resp.keys,instr_resp.rt,instr_resp.duration,instr_color_to_key.started,instr_ctk.started,resp_ctk.started,instr_color_to_key.stopped,resp_ctk.keys,resp_ctk.rt,resp_ctk.duration,ITI.started,fixcross.started,fixcross.stopped,ITI.stopped,color_to_key_run.started,stimulus_CTK.started,keyResp_CTK.started,color_to_key_run.stopped,trials_CTK.keyResp_CTK.keys,trials_CTK.keyResp_CTK.corr,trials_CTK.keyResp_CTK.rt,trials_CTK.keyResp_CTK.duration,instr_practice.started,instr_practice_text.started,instr_practice_resp.started,instr_practice.stopped,instr_practice_resp.keys,instr_practice_resp.rt,instr_practice_resp.duration,practice_run.started,stimulus_practice.started,respPractice.started,practice_run.stopped,trials_practice.respPractice.keys,trials_practice.respPractice.corr,trials_practice.respPractice.rt,trials_practice.respPractice.duration,feedback.started,textFeedback.started,textFeedback.stopped,feedback.stopped,instr_test.started,instr_test_text.started,instr_test_resp.started,instr_test.stopped,instr_test_resp.keys,instr_test_resp.rt,instr_test_resp.duration,test_run.started,stimulus_test_run.started,keyResp_test_run.started,test_run.stopped,trials_test.keyResp_test_run.keys,trials_test.keyResp_test_run.corr,trials_test.keyResp_test_run.rt,trials_test.keyResp_test_run.duration,goodbye.started,textGoodbye.started,goodbye.stopped,participant,session,expName,frameRate,Unnamed: 112
,,,,,,,,,,,,,,,,,,,,,,,,,,,,,,,,,,,,,,,,,0.0334460829999443,0.0503197499999714,0.0503197499999714,0.0503197499999714,36.61568154199995,space,36.54567045800013,,,,,,,,,,,,,,,,,,,,,,,,,,,,,,,,,,,,,,,,,,,,,,,,,,,,,,,,,,sub-057,1,stroop_test,59.86401888111119,
,,,,,,,,,,,,,,,,,,,,,,,,,,,,,,,,,,,,,,,,,,,,,,,,,36.61572020800008,36.6220390420001,36.6220390420001,53.22619679200011,space,16.596259959000008,,,,,,,,,,,,,,,,,,,,,,,,,,,,,,,,,,,,,,,,,,,,,,,,,,,sub-057,1,stroop_test,59.86401888111119,
test,yellow,g,1.0,0.0,0.0,0.0,g,1.0,1.3422250830001303,,,,,,,,,,,,,,,,,,0.0,0.0,0.0,1.0,,,,,,,,,53.24873862499999,,,,,,,,,,,,,,,,,53.235628292,54.03992170800007,54.83927041700008,54.82465879200004,54.82756333299994,54.83927041700008,54.83927041700008,56.19253337500004,g,1.0,1.3422250830001303,,,,,,,,,,,,,,,,,,,,,,,,,,,,,,,,,,,,,,,sub-057,1,stroop_test,59.86401888111119,
test,red,r,1.0,1.0,1.0,0.0,r,1.0,1.394298875000004,,,,,,,,,,,,,,,,,,0.0,1.0,1.0,0.0,,,,,,,,,56.20654874999991,,,,,,,,,,,,,,,,,56.192710499999976,56.55612458299993,57.35620079199998,57.34125700000004,57.34146258300007,57.35620079199998,57.35620079199998,58.75970470800007,r,1.0,1.394298875000004,,,,,,,,,,,,,,,,,,,,,,,,,,,,,,,,,,,,,,,sub-057,1,stroop_test,59.86401888111119,
test,blue,b,1.0,2.0,2.0,0.0,b,1.0,1.15592566600003,,,,,,,,,,,,,,,,,,0.0,2.0,2.0,2.0,,,,,,,,,58.77326783300009,,,,,,,,,,,,,,,,,58.75992558300004,59.97306108299995,60.772897291999925,60.758025792000126,60.758182457999965,60.772897291999925,60.772897291999925,61.94312916700005,b,1.0,1.15592566600003,,,,,,,,,,,,,,,,,,,,,,,,,,,,,,,,,,,,,,,sub-057,1,stroop_test,59.86401888111119,
test,blue,b,1.0,3.0,0.0,1.0,b,1.0,0.7477110419999917,,,,,,,,,,,,,,,,,,1.0,0.0,3.0,2.0,,,,,,,,,61.95662783300008,,,,,,,,,,,,,,,,,61.94335574999991,62.05730266699993,62.85662858299997,62.84164433299998,62.84181508300003,62.85662858299997,62.85662858299997,63.60914987499996,b,1.0,0.7477110419999917,,,,,,,,,,,,,,,,,,,,,,,,,,,,,,,,,,,,,,,sub-057,1,stroop_test,59.86401888111119,
test,red,r,1.0,4.0,1.0,1.0,r,1.0,0.8572355000001153,,,,,,,,,,,,,,,,,,1.0,1.0,4.0,0.0,,,,,,,,,63.62361716700002,,,,,,,,,,,,,,,,,63.609358208,64.42373129199996,65.22331037499998,65.20845566699995,65.20863366699996,65.22331037499998,65.22331037499998,66.09290862500006,r,1.0,0.8572355000001153,,,,,,,,,,,,,,,,,,,,,,,,,,,,,,,,,,,,,,,sub-057,1,stroop_test,59.86401888111119,
test,yellow,g,1.0,5.0,2.0,1.0,g,1.0,0.871766333000096,,,,,,,,,,,,,,,,,,1.0,2.0,5.0,1.0,,,,,,,,,66.10684337499993,,,,,,,,,,,,,,,,,66.09312408300002,67.30720450000013,68.10684845800006,68.09209466700008,68.09226279199993,68.10684845800006,68.10684845800006,68.99338204200012,g,1.0,0.871766333000096,,,,,,,,,,,,,,,,,,,,,,,,,,,,,,,,,,,,,,,sub-057,1,stroop_test,59.86401888111119,
test,yellow,g,1.0,6.0,0.0,2.0,g,1.0,0.8124821249998604,,,,,,,,,,,,,,,,,,2.0,0.0,6.0,1.0,,,,,,,,,69.00701962500011,,,,,,,,,,,,,,,,,68.99359666700002,69.10659595800007,69.90648041700001,69.89194495800007,69.89212433300008,69.90648041700001,69.90648041700001,70.726386542,g,1.0,0.8124821249998604,,,,,,,,,,,,,,,,,,,,,,,,,,,,,,,,,,,,,,,sub-057,1,stroop_test,59.86401888111119,
test,red,r,1.0,7.0,1.0,2.0,r,1.0,0.9964807499998188,,,,,,,,,,,,,,,,,,2.0,1.0,7.0,0.0,,,,,,,,,70.74051716700001,,,,,,,,,,,,,,,,,70.72661483299999,71.09012125000004,71.88967504199991,71.87539716700007,71.87556341699997,71.88967504199991,71.88967504199991,72.89306329200008,r,1.0,0.9964807499998188,,,,,,,,,,,,,,,,,,,,,,,,,,,,,,,,,,,,,,,sub-057,1,stroop_test,59.86401888111119,
test,blue,b,1.0,8.0,2.0,2.0,b,1.0,0.787793375000092,,,,,,,,,,,,,,,,,,2.0,2.0,8.0,2.0,,,,,,,,,72.90732279200006,,,,,,,,,,,,,,,,,72.89331949999996,74.10722691699993,74.90721725000003,74.89211741700001,74.89228883300007,74.90721725000003,74.90721725000003,75.71069816699992,b,1.0,0.787793375000092,,,,,,,,,,,,,,,,,,,,,,,,,,,,,,,,,,,,,,,sub-057,1,stroop_test,59.86401888111119,
test,blue,b,1.0,9.0,0.0,3.0,b,1.0,0.7200096669998857,,,,,,,,,,,,,,,,,,3.0,0.0,9.0,2.0,,,,,,,,,75.72423016700009,,,,,,,,,,,,,,,,,75.71092162500008,75.82342945799996,76.62339716700012,76.60865883299994,76.60881695800003,76.62339716700012,76.62339716700012,77.36124395799993,b,1.0,0.7200096669998857,,,,,,,,,,,,,,,,,,,,,,,,,,,,,,,,,,,,,,,sub-057,1,stroop_test,59.86401888111119,
test,red,r,1.0,10.0,1.0,3.0,r,1.0,0.7783090420000462,,,,,,,,,,,,,,,,,,3.0,1.0,10.0,0.0,,,,,,,,,77.37355787499996,,,,,,,,,,,,,,,,,77.361430208,78.17348575000005,78.97351066700003,78.95879445800006,78.95897437500003,78.97351066700003,78.97351066700003,79.76046524999992,r,1.0,0.7783090420000462,,,,,,,,,,,,,,,,,,,,,,,,,,,,,,,,,,,,,,,sub-057,1,stroop_test,59.86401888111119,
test,yellow,g,1.0,11.0,2.0,3.0,g,1.0,0.683644250000043,,,,,,,,,,,,,,,,,,3.0,2.0,11.0,1.0,,,,,,,,,79.77389291700001,,,,,,,,,,,,,,,,,79.760677042,80.12407287499991,80.923691083,80.908733042,80.90889375000006,80.923691083,80.923691083,81.61031779199993,g,1.0,0.683644250000043,,,,,,,,,,,,,,,,,,,,,,,,,,,,,,,,,,,,,,,sub-057,1,stroop_test,59.86401888111119,
,,,,,,,,,,,,,,,,,,,,,,,,,,,,,,,,,,,,,,,,,,,,,,,,,,,,,,,,,,,,,,,,,,,,81.61041720799994,81.62391295800012,81.62391295800012,88.92809741700012,space,7.296571333999964,,,,,,,,,,,,,,,,,,,,,,,,,,,,,,,,sub-057,1,stroop_test,59.86401888111119,
,,,,0.0,0.0,0.0,,,,,blau,yellow,g,0.0,g,1.0,1.8469558750000488,,,,,,,,,,,,,,0.0,0.0,0.0,7.0,,,,,88.94654454200008,,,,,,,,,,,,,,,,,88.934646208,89.04118258299991,89.84088658299993,89.82610199999999,,,,,,,,,,,,,,,,89.82916666699998,89.84088658299993,89.84088658299993,91.693366125,g,1.0,1.8469558750000488,,91.69662500000004,91.7079423749999,92.70724570800007,92.69260395800006,,,,,,,,,,,,,,,,,,,sub-057,1,stroop_test,59.86401888111119,
,,,,1.0,1.0,0.0,,,,,gelb,yellow,g,1.0,g,1.0,0.8689372919998277,,,,,,,,,,,,,,0.0,1.0,1.0,10.0,,,,,92.70724570800007,,,,,,,,,,,,,,,,,92.69278233299995,93.05783058299994,93.85747329200012,93.84350925000012,,,,,,,,,,,,,,,,93.84502108300012,93.85747329200012,93.85747329200012,94.72763125000006,g,1.0,0.8689372919998277,,94.72784708299992,94.74087175,95.741066542,95.72666216700009,,,,,,,,,,,,,,,,,,,sub-057,1,stroop_test,59.86401888111119,
,,,,2.0,2.0,0.0,,,,,blau,red,r,0.0,r,1.0,1.4296307920001254,,,,,,,,,,,,,,0.0,2.0,2.0,4.0,,,,,95.741066542,,,,,,,,,,,,,,,,,95.72687291700004,95.84134041700008,96.64137212500007,96.62592762500005,,,,,,,,,,,,,,,,96.62747091699998,96.64137212500007,96.64137212500007,98.07719933299995,r,1.0,1.4296307920001254,,98.0773912919999,98.09137737500008,99.09104625000008,99.076326333,,,,,,,,,,,,,,,,,,,sub-057,1,stroop_test,59.86401888111119,
,,,,3.0,3.0,0.0,,,,,rot,yellow,g,0.0,g,1.0,1.2499014580000676,,,,,,,,,,,,,,0.0,3.0,3.0,3.0,,,,,99.09104625000008,,,,,,,,,,,,,,,,,99.076549958,99.89136816700012,100.69116979199998,100.67612770799995,,,,,,,,,,,,,,,,100.67825054200011,100.69116979199998,100.69116979199998,101.9441912499999,g,1.0,1.2499014580000676,,101.944415833,101.95881395800006,102.959085125,102.9438685,,,,,,,,,,,,,,,,,,,sub-057,1,stroop_test,59.86401888111119,
,,,,4.0,4.0,0.0,,,,,gelb,red,r,0.0,r,1.0,1.132908999999927,,,,,,,,,,,,,,0.0,4.0,4.0,8.0,,,,,102.959085125,,,,,,,,,,,,,,,,,102.94409075,103.75777845800008,104.557934917,104.54292254200004,,,,,,,,,,,,,,,,104.54428899999994,104.557934917,104.557934917,105.69447545799994,r,1.0,1.132908999999927,,105.69469345800007,105.70838912499994,106.70803225000007,106.69320749999996,,,,,,,,,,,,,,,,,,,sub-057,1,stroop_test,59.86401888111119,
,,,,5.0,5.0,0.0,,,,,rot,blue,b,0.0,b,1.0,1.016420749999952,,,,,,,,,,,,,,0.0,5.0,5.0,2.0,,,,,106.70803225000007,,,,,,,,,,,,,,,,,106.69339479199994,107.50808629199992,108.308498375,108.29445024999995,,,,,,,,,,,,,,,,108.29582295799992,108.308498375,108.308498375,109.32818254199992,b,1.0,1.016420749999952,,109.32840541700013,109.34210870800008,110.3414177919999,110.32679004200008,,,,,,,,,,,,,,,,,,,sub-057,1,stroop_test,59.86401888111119,
,,,,6.0,6.0,0.0,,,,,rot,red,r,1.0,r,1.0,1.066759707999836,,,,,,,,,,,,,,0.0,6.0,6.0,0.0,,,,,110.3414177919999,,,,,,,,,,,,,,,,,110.32699716699994,111.14180529200009,111.94149658300012,111.92706266699996,,,,,,,,,,,,,,,,111.9272431249999,111.94149658300012,111.94149658300012,113.01107041699991,r,1.0,1.066759707999836,,113.01128741699996,113.02550225000005,114.02498912500003,114.009891875,,,,,,,,,,,,,,,,,,,sub-057,1,stroop_test,59.86401888111119,
,,,,7.0,7.0,0.0,,,,,rot,red,r,1.0,r,1.0,0.7972199999999248,,,,,,,,,,,,,,0.0,7.0,7.0,1.0,,,,,114.02498912500003,,,,,,,,,,,,,,,,,114.01006862500005,115.22503716699998,116.02550466699996,116.01021304200005,,,,,,,,,,,,,,,,116.01040975,116.02550466699996,116.02550466699996,116.82797766699991,r,1.0,0.7972199999999248,,116.82819129199991,116.84265849999996,117.84246325000004,117.82730175000006,,,,,,,,,,,,,,,,,,,sub-057,1,stroop_test,59.86401888111119,
,,,,8.0,8.0,0.0,,,,,blau,blue,b,1.0,b,1.0,1.0068785829998887,,,,,,,,,,,,,,0.0,8.0,8.0,5.0,,,,,117.84246325000004,,,,,,,,,,,,,,,,,117.8274852080001,119.04281237500004,119.84175950000008,119.82710845800013,,,,,,,,,,,,,,,,119.82873737499996,119.84175950000008,119.84175950000008,120.86180616699994,b,1.0,1.0068785829998887,,120.862019292,120.87547529199992,121.87574874999996,121.86047558299992,,,,,,,,,,,,,,,,,,,sub-057,1,stroop_test,59.86401888111119,
,,,,9.0,9.0,0.0,,,,,blau,blue,b,1.0,b,1.0,0.7143336669998916,,,,,,,,,,,,,,0.0,9.0,9.0,6.0,,,,,121.87574874999996,,,,,,,,,,,,,,,,,121.86065258300005,121.9752907080001,122.77555754200012,122.76038683299998,,,,,,,,,,,,,,,,122.760547375,122.77555754200012,122.77555754200012,123.49496358300009,b,1.0,0.7143336669998916,,123.495185708,123.50912504200004,124.50854045799996,124.49407775000007,,,,,,,,,,,,,,,,,,,sub-057,1,stroop_test,59.86401888111119,
,,,,10.0,10.0,0.0,,,,,gelb,blue,b,0.0,b,1.0,1.1836134999998649,,,,,,,,,,,,,,0.0,10.0,10.0,9.0,,,,,124.50854045799996,,,,,,,,,,,,,,,,,124.49426591700012,124.60873733299992,125.40850649999992,125.3946517920001,,,,,,,,,,,,,,,,125.39606854199997,125.40850649999992,125.40850649999992,126.59502687500004,b,1.0,1.1836134999998649,,126.59525029199996,126.609078792,127.60878483300009,127.59423604199992,,,,,,,,,,,,,,,,,,,sub-057,1,stroop_test,59.86401888111119,
,,,,11.0,11.0,0.0,,,,,gelb,yellow,g,1.0,g,1.0,0.879394209000111,,,,,,,,,,,,,,0.0,11.0,11.0,11.0,,,,,127.60878483300009,,,,,,,,,,,,,,,,,127.59441125000012,127.70881966699994,128.5088525829999,128.4939313330001,,,,,,,,,,,,,,,,128.49410179200004,128.5088525829999,128.5088525829999,129.395385542,g,1.0,0.879394209000111,,129.39560000000006,129.4092905,130.41007725000009,130.39433233299997,,,,,,,,,,,,,,,,,,,sub-057,1,stroop_test,59.86401888111119,
,,,,12.0,0.0,1.0,,,,,rot,red,r,1.0,r,1.0,0.7731103749999875,,,,,,,,,,,,,,1.0,0.0,12.0,0.0,,,,,130.41007725000009,,,,,,,,,,,,,,,,,130.39451170799998,131.60944895800003,132.40896124999995,132.394135625,,,,,,,,,,,,,,,,132.39551433299994,132.40896124999995,132.40896124999995,133.19593429199995,r,1.0,0.7731103749999875,,133.19614750000005,133.209788958,134.20906262500012,134.19405420800013,,,,,,,,,,,,,,,,,,,sub-057,1,stroop_test,59.86401888111119,
,,,,13.0,1.0,1.0,,,,,blau,red,r,0.0,r,1.0,0.994335541999817,,,,,,,,,,,,,,1.0,1.0,13.0,4.0,,,,,134.20906262500012,,,,,,,,,,,,,,,,,134.19423875000007,134.30917616700003,135.10943466699996,135.09455141700005,,,,,,,,,,,,,,,,135.09604570800002,135.10943466699996,135.10943466699996,136.11248049999995,r,1.0,0.994335541999817,,136.11268300000006,136.12664862499992,137.12604558299995,137.11080245800008,,,,,,,,,,,,,,,,,,,sub-057,1,stroop_test,59.86401888111119,
,,,,14.0,2.0,1.0,,,,,blau,blue,b,1.0,b,1.0,1.1675653750000947,,,,,,,,,,,,,,1.0,2.0,14.0,5.0,,,,,137.12604558299995,,,,,,,,,,,,,,,,,137.11097545799998,137.22585525,138.02610720799998,138.01100987500013,,,,,,,,,,,,,,,,138.011176083,138.02610720799998,138.02610720799998,139.19496000000004,b,1.0,1.1675653750000947,,139.19517333299996,139.20971624999993,140.2093943750001,140.1943496250001,,,,,,,,,,,,,,,,,,,sub-057,1,stroop_test,59.86401888111119,
,,,,15.0,3.0,1.0,,,,,gelb,blue,b,0.0,b,1.0,0.7809523329999593,,,,,,,,,,,,,,1.0,3.0,15.0,9.0,,,,,140.2093943750001,,,,,,,,,,,,,,,,,140.19452579199992,140.30937829200002,141.109123833,141.09501775000012,,,,,,,,,,,,,,,,141.09643666700003,141.109123833,141.109123833,141.89632633299993,b,1.0,0.7809523329999593,,141.89655325000012,141.90952070799997,142.909534333,142.89457012499997,,,,,,,,,,,,,,,,,,,sub-057,1,stroop_test,59.86401888111119,
,,,,16.0,4.0,1.0,,,,,blau,blue,b,1.0,b,1.0,0.7003832089999378,,,,,,,,,,,,,,1.0,4.0,16.0,6.0,,,,,142.909534333,,,,,,,,,,,,,,,,,142.8947545420001,143.2592743749999,144.05945691700003,144.04524583300008,,,,,,,,,,,,,,,,144.0465743750001,144.05945691700003,144.05945691700003,144.76231016700012,b,1.0,0.7003832089999378,,144.76251779199993,144.7769672500001,,145.7781195,,,,,,,,,,,,,,,,,,,sub-057,1,stroop_test,59.86401888111119,
,,,,17.0,5.0,1.0,,,,,rot,red,r,1.0,r,1.0,0.9056090000001404,,,,,,,,,,,,,,1.0,5.0,17.0,1.0,,,,,145.79283695799995,,,,,,,,,,,,,,,,,145.7782863750001,146.57619083300006,147.37631391700006,147.3613714170001,,,,,,,,,,,,,,,,147.36271633299998,147.37631391700006,147.37631391700006,148.29597450000006,r,1.0,0.9056090000001404,,148.29618570799994,148.30950337500008,149.31102954199991,149.29584466699998,,,,,,,,,,,,,,,,,,,sub-057,1,stroop_test,59.86401888111119,
,,,,18.0,6.0,1.0,,,,,rot,blue,b,0.0,b,1.0,1.4848414999999022,,,,,,,,,,,,,,1.0,6.0,18.0,2.0,,,,,149.31102954199991,,,,,,,,,,,,,,,,,149.29603466699996,150.5096780419999,151.30945462499994,151.29543545799993,,,,,,,,,,,,,,,,151.2956032080001,151.30945462499994,151.30945462499994,152.7960055000001,b,1.0,1.4848414999999022,,152.7962259169999,152.80999716700012,153.80970945800004,153.7949490000001,,,,,,,,,,,,,,,,,,,sub-057,1,stroop_test,59.86401888111119,
,,,,19.0,7.0,1.0,,,,,blau,yellow,g,0.0,g,1.0,0.8269747080000798,,,,,,,,,,,,,,1.0,7.0,19.0,7.0,,,,,153.80970945800004,,,,,,,,,,,,,,,,,153.79514029200004,153.90989674999992,154.70981675000007,154.6948487080001,,,,,,,,,,,,,,,,154.69622075000007,154.70981675000007,154.70981675000007,155.54626629199993,g,1.0,0.8269747080000798,,155.54649020800002,155.55954662499994,156.56083829199997,156.54505300000005,,,,,,,,,,,,,,,,,,,sub-057,1,stroop_test,59.86401888111119,
,,,,20.0,8.0,1.0,,,,,gelb,red,r,0.0,r,1.0,0.8933080839999548,,,,,,,,,,,,,,1.0,8.0,20.0,8.0,,,,,156.56083829199997,,,,,,,,,,,,,,,,,156.5452439579999,156.9103660830001,157.70958270799997,157.69583983300004,,,,,,,,,,,,,,,,157.69723708300012,157.70958270799997,157.70958270799997,158.61326566699995,r,1.0,0.8933080839999548,,158.61348883300002,158.6269923330001,159.62679754200008,159.61171654200007,,,,,,,,,,,,,,,,,,,sub-057,1,stroop_test,59.86401888111119,
,,,,21.0,9.0,1.0,,,,,gelb,yellow,g,1.0,g,1.0,0.6685376670000096,,,,,,,,,,,,,,1.0,9.0,21.0,11.0,,,,,159.62679754200008,,,,,,,,,,,,,,,,,159.61188500000003,160.42664654200007,161.22639299999992,161.21157500000004,,,,,,,,,,,,,,,,161.2117452079999,161.22639299999992,161.22639299999992,161.89622491699993,g,1.0,0.6685376670000096,,161.89643108299992,161.91029720799995,162.90985425000008,162.8950830000001,,,,,,,,,,,,,,,,,,,sub-057,1,stroop_test,59.86401888111119,
,,,,22.0,10.0,1.0,,,,,rot,yellow,g,0.0,g,1.0,0.979377832999944,,,,,,,,,,,,,,1.0,10.0,22.0,3.0,,,,,162.90985425000008,,,,,,,,,,,,,,,,,162.895267417,163.70996179200006,164.51010233300008,164.49525404199994,,,,,,,,,,,,,,,,164.49660808299996,164.51010233300008,164.51010233300008,165.49680583300005,g,1.0,0.979377832999944,,165.497019917,165.51096904199994,166.51021345799995,166.49523212500003,,,,,,,,,,,,,,,,,,,sub-057,1,stroop_test,59.86401888111119,
,,,,23.0,11.0,1.0,,,,,gelb,yellow,g,1.0,g,1.0,0.7495874589999403,,,,,,,,,,,,,,1.0,11.0,23.0,10.0,,,,,166.51021345799995,,,,,,,,,,,,,,,,,166.4954104169999,166.86025599999994,167.66019574999996,167.64575758299998,,,,,,,,,,,,,,,,167.647265458,167.66019574999996,167.66019574999996,168.41352070800008,g,1.0,0.7495874589999403,,168.41372837500012,168.42711299999996,169.4267641250001,169.41281637499992,,,,,,,,,,,,,,,,,,,sub-057,1,stroop_test,59.86401888111119,
,,,,,,,,,,,,,,,,,,,,,,,,,,,,,,,,,,,,,,,,,,,,,,,,,,,,,,,,,,,,,,,,,,,,,,,,,,,,,,,,,,,,,,,169.412904583,169.4267641250001,169.4267641250001,191.93142995800008,space,22.501653209000096,,,,,,,,,,,,,sub-057,1,stroop_test,59.86401888111119,
,,,,0.0,0.0,0.0,,,,,,,,,,,,,blau,yellow,g,0.0,g,1.0,1.1825236249999307,,,,,,,,,,0.0,0.0,0.0,7.0,191.9441783750001,,,,,,,,,,,,,,,,,191.9375688330001,192.7443257079999,193.54448037499992,193.52968062500008,,,,,,,,,,,,,,,,,,,,,,,,,,,,,,,,,,,193.5310582500001,193.54448037499992,193.54448037499992,194.730821375,g,1.0,1.1825236249999307,,,,,sub-057,1,stroop_test,59.86401888111119,
,,,,1.0,1.0,0.0,,,,,,,,,,,,,gelb,yellow,g,1.0,g,1.0,0.6216439590000391,,,,,,,,,,0.0,1.0,1.0,10.0,194.74492758299996,,,,,,,,,,,,,,,,,194.73106195800003,195.94531229199995,196.744325292,196.72968279199995,,,,,,,,,,,,,,,,,,,,,,,,,,,,,,,,,,,196.73168987500003,196.744325292,196.744325292,197.3815911250001,g,1.0,0.6216439590000391,,,,,sub-057,1,stroop_test,59.86401888111119,
,,,,2.0,2.0,0.0,,,,,,,,,,,,,blau,red,r,0.0,r,1.0,0.7890184159998626,,,,,,,,,,0.0,2.0,2.0,4.0,197.39478187500004,,,,,,,,,,,,,,,,,197.38183341700005,198.59458962500003,199.39431508300004,199.37965895799996,,,,,,,,,,,,,,,,,,,,,,,,,,,,,,,,,,,199.38116004199992,199.39431508300004,199.39431508300004,200.1981598750001,r,1.0,0.7890184159998626,,,,,sub-057,1,stroop_test,59.86401888111119,
,,,,3.0,3.0,0.0,,,,,,,,,,,,,blau,blue,b,1.0,b,1.0,0.7728258330000699,,,,,,,,,,0.0,3.0,3.0,6.0,200.21155229200008,,,,,,,,,,,,,,,,,200.198419458,200.561383125,201.36169720800007,201.34693504200004,,,,,,,,,,,,,,,,,,,,,,,,,,,,,,,,,,,201.3471252920001,201.36169720800007,201.36169720800007,202.14755474999995,b,1.0,0.7728258330000699,,,,,sub-057,1,stroop_test,59.86401888111119,
,,,,4.0,4.0,0.0,,,,,,,,,,,,,rot,red,r,1.0,r,1.0,0.8141592500001025,,,,,,,,,,0.0,4.0,4.0,0.0,202.16115775000003,,,,,,,,,,,,,,,,,202.14776808300007,202.511598458,203.31116183299991,203.296486167,,,,,,,,,,,,,,,,,,,,,,,,,,,,,,,,,,,203.29777887499995,203.31116183299991,203.31116183299991,204.13078020800003,r,1.0,0.8141592500001025,,,,,sub-057,1,stroop_test,59.86401888111119,
,,,,5.0,5.0,0.0,,,,,,,,,,,,,gelb,red,r,0.0,r,1.0,0.8828136669999367,,,,,,,,,,0.0,5.0,5.0,8.0,204.1459555419999,,,,,,,,,,,,,,,,,204.131029208,204.94483545799997,205.7448635000001,205.73100900000009,,,,,,,,,,,,,,,,,,,,,,,,,,,,,,,,,,,205.73236758300004,205.7448635000001,205.7448635000001,206.63100224999997,r,1.0,0.8828136669999367,,,,,sub-057,1,stroop_test,59.86401888111119,
,,,,6.0,6.0,0.0,,,,,,,,,,,,,blau,blue,b,1.0,b,1.0,0.9473578329998418,,,,,,,,,,0.0,6.0,6.0,5.0,206.6461240000001,,,,,,,,,,,,,,,,,206.63124637500005,206.99479120799992,207.79506745799995,207.780007375,,,,,,,,,,,,,,,,,,,,,,,,,,,,,,,,,,,207.78154333299997,207.79506745799995,207.79506745799995,208.74803762500005,b,1.0,0.9473578329998418,,,,,sub-057,1,stroop_test,59.86401888111119,
,,,,7.0,7.0,0.0,,,,,,,,,,,,,rot,red,r,1.0,r,1.0,0.6675361659999908,,,,,,,,,,0.0,7.0,7.0,1.0,208.762662333,,,,,,,,,,,,,,,,,208.7482835830001,209.96519525000008,210.778000667,210.76346145799997,,,,,,,,,,,,,,,,,,,,,,,,,,,,,,,,,,,210.764821083,210.778000667,210.778000667,211.44805999999997,r,1.0,0.6675361659999908,,,,,sub-057,1,stroop_test,59.86401888111119,
,,,,8.0,8.0,0.0,,,,,,,,,,,,,gelb,yellow,g,1.0,g,1.0,0.7783000419999553,,,,,,,,,,0.0,8.0,8.0,11.0,211.4622098750001,,,,,,,,,,,,,,,,,211.448298625,211.56209670800013,212.3620935419999,212.3469142920001,,,,,,,,,,,,,,,,,,,,,,,,,,,,,,,,,,,212.34841266700005,212.3620935419999,212.3620935419999,213.148676542,g,1.0,0.7783000419999553,,,,,sub-057,1,stroop_test,59.86401888111119,
,,,,9.0,9.0,0.0,,,,,,,,,,,,,gelb,blue,b,0.0,b,1.0,0.968658375000132,,,,,,,,,,0.0,9.0,9.0,9.0,213.16239229200005,,,,,,,,,,,,,,,,,213.1488985420001,213.5119924999999,214.311757917,214.29714645800004,,,,,,,,,,,,,,,,,,,,,,,,,,,,,,,,,,,214.29730908300007,214.311757917,214.311757917,215.28179008300003,b,1.0,0.968658375000132,,,,,sub-057,1,stroop_test,59.86401888111119,
,,,,10.0,10.0,0.0,,,,,,,,,,,,,rot,blue,b,0.0,b,1.0,1.151696291999997,,,,,,,,,,0.0,10.0,10.0,2.0,215.296287958,,,,,,,,,,,,,,,,,215.28200141699995,215.64516308299997,216.445281625,216.4306375000001,,,,,,,,,,,,,,,,,,,,,,,,,,,,,,,,,,,216.43198270800008,216.445281625,216.445281625,217.5982670420001,b,1.0,1.151696291999997,,,,,sub-057,1,stroop_test,59.86401888111119,
,,,,11.0,11.0,0.0,,,,,,,,,,,,,rot,yellow,g,0.0,g,1.0,1.3623795840001094,,,,,,,,,,0.0,11.0,11.0,3.0,217.6125011670001,,,,,,,,,,,,,,,,,217.598480333,217.71206125000003,218.5126795000001,218.4973527080001,,,,,,,,,,,,,,,,,,,,,,,,,,,,,,,,,,,218.49754375,218.5126795000001,218.5126795000001,219.881985708,g,1.0,1.3623795840001094,,,,,sub-057,1,stroop_test,59.86401888111119,
,,,,12.0,0.0,1.0,,,,,,,,,,,,,blau,red,r,0.0,r,1.0,0.8378972919999796,,,,,,,,,,1.0,0.0,12.0,4.0,219.89518633300008,,,,,,,,,,,,,,,,,219.88217287499992,221.095872333,221.89498037499996,221.8814950830001,,,,,,,,,,,,,,,,,,,,,,,,,,,,,,,,,,,221.88286537499997,221.89498037499996,221.89498037499996,222.74907333300007,r,1.0,0.8378972919999796,,,,,sub-057,1,stroop_test,59.86401888111119,
,,,,13.0,1.0,1.0,,,,,,,,,,,,,rot,red,r,1.0,r,1.0,0.8396401670001978,,,,,,,,,,1.0,1.0,13.0,0.0,222.762231292,,,,,,,,,,,,,,,,,222.74932187500008,222.86248350000005,223.66242216699996,223.647223833,,,,,,,,,,,,,,,,,,,,,,,,,,,,,,,,,,,223.64857358299992,223.66242216699996,223.66242216699996,224.51579270799996,r,1.0,0.8396401670001978,,,,,sub-057,1,stroop_test,59.86401888111119,
,,,,14.0,2.0,1.0,,,,,,,,,,,,,blau,blue,b,1.0,b,1.0,0.8438543329998538,,,,,,,,,,1.0,2.0,14.0,5.0,224.529498375,,,,,,,,,,,,,,,,,224.5160390000001,224.87883583300004,225.6786716250001,225.6642966249999,,,,,,,,,,,,,,,,,,,,,,,,,,,,,,,,,,,225.665806125,225.6786716250001,225.6786716250001,226.53233187499995,b,1.0,0.8438543329998538,,,,,sub-057,1,stroop_test,59.86401888111119,
,,,,15.0,3.0,1.0,,,,,,,,,,,,,rot,red,r,1.0,r,1.0,2.2549460420000287,,,,,,,,,,1.0,3.0,15.0,1.0,226.546568,,,,,,,,,,,,,,,,,226.532576458,226.6456679580001,227.44536270799995,227.4307221670001,,,,,,,,,,,,,,,,,,,,,,,,,,,,,,,,,,,227.432445292,227.44536270799995,227.44536270799995,229.715998292,r,1.0,2.2549460420000287,,,,,sub-057,1,stroop_test,59.86401888111119,
,,,,16.0,4.0,1.0,,,,,,,,,,,,,blau,yellow,g,0.0,g,1.0,0.8471326249998583,,,,,,,,,,1.0,4.0,16.0,7.0,229.72929883300003,,,,,,,,,,,,,,,,,229.716228,230.529676292,231.329065208,231.31418862500004,,,,,,,,,,,,,,,,,,,,,,,,,,,,,,,,,,,231.315555833,231.329065208,231.329065208,232.18212704200005,g,1.0,0.8471326249998583,,,,,sub-057,1,stroop_test,59.86401888111119,
,,,,17.0,5.0,1.0,,,,,,,,,,,,,gelb,yellow,g,1.0,g,1.0,0.737680667000177,,,,,,,,,,1.0,5.0,17.0,11.0,232.196313292,,,,,,,,,,,,,,,,,232.18238354200005,232.5458287920001,233.34588187500003,233.3315029580001,,,,,,,,,,,,,,,,,,,,,,,,,,,,,,,,,,,233.33307274999996,233.34588187500003,233.34588187500003,234.09964720800008,g,1.0,0.737680667000177,,,,,sub-057,1,stroop_test,59.86401888111119,
,,,,18.0,6.0,1.0,,,,,,,,,,,,,gelb,red,r,0.0,r,1.0,1.4502119170001606,,,,,,,,,,1.0,6.0,18.0,8.0,234.11299699999995,,,,,,,,,,,,,,,,,234.099885417,235.31260720799992,236.11258687500003,236.0977524580001,,,,,,,,,,,,,,,,,,,,,,,,,,,,,,,,,,,236.09792608299995,236.11258687500003,236.11258687500003,237.565403375,r,1.0,1.4502119170001606,,,,,sub-057,1,stroop_test,59.86401888111119,
,,,,19.0,7.0,1.0,,,,,,,,,,,,,rot,yellow,g,0.0,g,1.0,1.1130912920000355,,,,,,,,,,1.0,7.0,19.0,3.0,237.580577083,,,,,,,,,,,,,,,,,237.56563725,237.929425542,238.72998224999992,238.7149614580001,,,,,,,,,,,,,,,,,,,,,,,,,,,,,,,,,,,238.716485208,238.72998224999992,238.72998224999992,239.849227792,g,1.0,1.1130912920000355,,,,,sub-057,1,stroop_test,59.86401888111119,
,,,,20.0,8.0,1.0,,,,,,,,,,,,,gelb,yellow,g,1.0,g,1.0,0.750944249999975,,,,,,,,,,1.0,8.0,20.0,10.0,239.86379595800008,,,,,,,,,,,,,,,,,239.84946137499992,239.962686333,240.76259279200008,240.747905833,,,,,,,,,,,,,,,,,,,,,,,,,,,,,,,,,,,240.74945950000009,240.76259279200008,240.76259279200008,241.51543737499992,g,1.0,0.750944249999975,,,,,sub-057,1,stroop_test,59.86401888111119,
,,,,21.0,9.0,1.0,,,,,,,,,,,,,rot,blue,b,0.0,b,1.0,0.9340366250000898,,,,,,,,,,1.0,9.0,21.0,2.0,241.53078095799992,,,,,,,,,,,,,,,,,241.51564695799996,242.72947591699997,243.52931749999996,243.51459991699997,,,,,,,,,,,,,,,,,,,,,,,,,,,,,,,,,,,243.5161134580001,243.52931749999996,243.52931749999996,244.46649774999992,b,1.0,0.9340366250000898,,,,,sub-057,1,stroop_test,59.86401888111119,
,,,,22.0,10.0,1.0,,,,,,,,,,,,,blau,blue,b,1.0,b,1.0,0.6334327920001215,,,,,,,,,,1.0,10.0,22.0,6.0,244.48030562500003,,,,,,,,,,,,,,,,,244.46674899999996,245.6795024170001,246.47984083300005,246.46469979199992,,,,,,,,,,,,,,,,,,,,,,,,,,,,,,,,,,,246.46623249999996,246.47984083300005,246.47984083300005,247.11605575,b,1.0,0.6334327920001215,,,,,sub-057,1,stroop_test,59.86401888111119,
,,,,23.0,11.0,1.0,,,,,,,,,,,,,gelb,blue,b,0.0,b,1.0,1.217703249999886,,,,,,,,,,1.0,11.0,23.0,9.0,247.13085675,,,,,,,,,,,,,,,,,247.1162885420001,247.929876167,248.7303837080001,248.714682583,,,,,,,,,,,,,,,,,,,,,,,,,,,,,,,,,,,248.71603066700004,248.7303837080001,248.7303837080001,249.96624487500003,b,1.0,1.217703249999886,,,,,sub-057,1,stroop_test,59.86401888111119,
,,,,24.0,0.0,2.0,,,,,,,,,,,,,gelb,blue,b,0.0,b,1.0,0.6506872089998978,,,,,,,,,,2.0,0.0,24.0,9.0,249.97986575000004,,,,,,,,,,,,,,,,,249.966493333,250.7797431250001,251.579688625,251.56490054200003,,,,,,,,,,,,,,,,,,,,,,,,,,,,,,,,,,,251.56506654200007,251.579688625,251.579688625,252.232877167,b,1.0,0.6506872089998978,,,,,sub-057,1,stroop_test,59.86401888111119,
,,,,25.0,1.0,2.0,,,,,,,,,,,,,rot,blue,b,0.0,b,1.0,0.600359792000063,,,,,,,,,,2.0,1.0,25.0,2.0,252.246927125,,,,,,,,,,,,,,,,,252.2330856250001,252.346568125,253.1461724170001,253.1328880000001,,,,,,,,,,,,,,,,,,,,,,,,,,,,,,,,,,,253.1343837080001,253.1461724170001,253.1461724170001,253.7502823330001,b,1.0,0.600359792000063,,,,,sub-057,1,stroop_test,59.86401888111119,
,,,,26.0,2.0,2.0,,,,,,,,,,,,,blau,yellow,g,0.0,g,1.0,0.7883074590001797,,,,,,,,,,2.0,2.0,26.0,7.0,253.763544958,,,,,,,,,,,,,,,,,253.7505280830001,254.11342183300007,254.91354987499997,254.89832012500003,,,,,,,,,,,,,,,,,,,,,,,,,,,,,,,,,,,254.89970233300005,254.91354987499997,254.91354987499997,255.716817625,g,1.0,0.7883074590001797,,,,,sub-057,1,stroop_test,59.86401888111119,
,,,,27.0,3.0,2.0,,,,,,,,,,,,,blau,red,r,0.0,r,1.0,0.7998253329999443,,,,,,,,,,2.0,3.0,27.0,4.0,255.730034208,,,,,,,,,,,,,,,,,255.7170650420001,256.930091167,257.73030541699995,257.715377792,,,,,,,,,,,,,,,,,,,,,,,,,,,,,,,,,,,257.715540292,257.73030541699995,257.73030541699995,258.5331645420001,r,1.0,0.7998253329999443,,,,,sub-057,1,stroop_test,59.86401888111119,
,,,,28.0,4.0,2.0,,,,,,,,,,,,,gelb,yellow,g,1.0,g,1.0,0.6805968329999814,,,,,,,,,,2.0,4.0,28.0,11.0,258.546972375,,,,,,,,,,,,,,,,,258.5334068750001,259.74667487500005,260.547416208,260.532041167,,,,,,,,,,,,,,,,,,,,,,,,,,,,,,,,,,,260.5334164579999,260.547416208,260.547416208,261.233095458,g,1.0,0.6805968329999814,,,,,sub-057,1,stroop_test,59.86401888111119,
,,,,29.0,5.0,2.0,,,,,,,,,,,,,blau,blue,b,1.0,b,1.0,0.8730367499999829,,,,,,,,,,2.0,5.0,29.0,6.0,261.2483346250001,,,,,,,,,,,,,,,,,261.23333345800006,261.59699825000007,262.396612583,262.38173466700005,,,,,,,,,,,,,,,,,,,,,,,,,,,,,,,,,,,262.3831170000001,262.396612583,262.396612583,263.28344575000006,b,1.0,0.8730367499999829,,,,,sub-057,1,stroop_test,59.86401888111119,
,,,,30.0,6.0,2.0,,,,,,,,,,,,,blau,blue,b,1.0,b,1.0,0.6724557079999158,,,,,,,,,,2.0,6.0,30.0,5.0,263.29695074999995,,,,,,,,,,,,,,,,,263.28367883300007,264.497292542,265.2967302080001,265.28207558300005,,,,,,,,,,,,,,,,,,,,,,,,,,,,,,,,,,,265.28224816700003,265.2967302080001,265.2967302080001,265.983484958,b,1.0,0.6724557079999158,,,,,sub-057,1,stroop_test,59.86401888111119,
,,,,31.0,7.0,2.0,,,,,,,,,,,,,gelb,red,r,0.0,r,1.0,0.8851584999999886,,,,,,,,,,2.0,7.0,31.0,8.0,265.996915208,,,,,,,,,,,,,,,,,265.9837152079999,266.3474430420001,267.1467674580001,267.1324301249999,,,,,,,,,,,,,,,,,,,,,,,,,,,,,,,,,,,267.13390574999994,267.1467674580001,267.1467674580001,268.03316625,r,1.0,0.8851584999999886,,,,,sub-057,1,stroop_test,59.86401888111119,
,,,,32.0,8.0,2.0,,,,,,,,,,,,,rot,red,r,1.0,r,1.0,0.6940051669998866,,,,,,,,,,2.0,8.0,32.0,0.0,268.0473039169999,,,,,,,,,,,,,,,,,268.03336450000006,268.397130458,269.19700183300006,269.1823307080001,,,,,,,,,,,,,,,,,,,,,,,,,,,,,,,,,,,269.18367987500005,269.19700183300006,269.19700183300006,269.90061033300003,r,1.0,0.6940051669998866,,,,,sub-057,1,stroop_test,59.86401888111119,
,,,,33.0,9.0,2.0,,,,,,,,,,,,,rot,yellow,g,0.0,g,1.0,0.7455245829999058,,,,,,,,,,2.0,9.0,33.0,3.0,269.91474874999994,,,,,,,,,,,,,,,,,269.90085012500003,270.26402533300006,271.0634339999999,271.0502508750001,,,,,,,,,,,,,,,,,,,,,,,,,,,,,,,,,,,271.0504437080001,271.0634339999999,271.0634339999999,271.81676233300004,g,1.0,0.7455245829999058,,,,,sub-057,1,stroop_test,59.86401888111119,
,,,,34.0,10.0,2.0,,,,,,,,,,,,,rot,red,r,1.0,r,1.0,0.7718930830001227,,,,,,,,,,2.0,10.0,34.0,1.0,271.831032417,,,,,,,,,,,,,,,,,271.81699979199993,272.63054487499994,273.430756708,273.41578237499994,,,,,,,,,,,,,,,,,,,,,,,,,,,,,,,,,,,273.41597,273.430756708,273.430756708,274.217670583,r,1.0,0.7718930830001227,,,,,sub-057,1,stroop_test,59.86401888111119,
,,,,35.0,11.0,2.0,,,,,,,,,,,,,gelb,yellow,g,1.0,g,1.0,0.8917569170000661,,,,,,,,,,2.0,11.0,35.0,10.0,274.23067908300004,,,,,,,,,,,,,,,,,274.21790791700005,275.430553833,276.230282083,276.215910958,,,,,,,,,,,,,,,,,,,,,,,,,,,,,,,,,,,276.21732675,276.230282083,276.230282083,277.1338163329999,g,1.0,0.8917569170000661,,,,,sub-057,1,stroop_test,59.86401888111119,
,,,,36.0,0.0,3.0,,,,,,,,,,,,,rot,red,r,1.0,r,1.0,0.7301860000000033,,,,,,,,,,3.0,0.0,36.0,1.0,277.1475566670001,,,,,,,,,,,,,,,,,277.13405783300004,277.24807054200005,278.047944833,278.03316770800006,,,,,,,,,,,,,,,,,,,,,,,,,,,,,,,,,,,278.03454654200004,278.047944833,278.047944833,278.783485792,r,1.0,0.7301860000000033,,,,,sub-057,1,stroop_test,59.86401888111119,
,,,,37.0,1.0,3.0,,,,,,,,,,,,,gelb,blue,b,0.0,b,1.0,0.7713635000000068,,,,,,,,,,3.0,1.0,37.0,9.0,278.79815904199995,,,,,,,,,,,,,,,,,278.783677917,279.5975994580001,280.3978890830001,280.382395292,,,,,,,,,,,,,,,,,,,,,,,,,,,,,,,,,,,280.38395775000004,280.3978890830001,280.3978890830001,281.1844074999999,b,1.0,0.7713635000000068,,,,,sub-057,1,stroop_test,59.86401888111119,
,,,,38.0,2.0,3.0,,,,,,,,,,,,,rot,blue,b,0.0,b,1.0,1.182893083000181,,,,,,,,,,3.0,2.0,38.0,2.0,281.1977501670001,,,,,,,,,,,,,,,,,281.184646917,282.398115833,283.197313375,283.1827760420001,,,,,,,,,,,,,,,,,,,,,,,,,,,,,,,,,,,283.18430308300003,283.197313375,283.197313375,284.3838424999999,b,1.0,1.182893083000181,,,,,sub-057,1,stroop_test,59.86401888111119,
,,,,39.0,3.0,3.0,,,,,,,,,,,,,rot,yellow,g,0.0,g,1.0,0.8289237079998202,,,,,,,,,,3.0,3.0,39.0,3.0,284.3979505,,,,,,,,,,,,,,,,,284.3840903329999,284.498547875,285.2985165,285.283201833,,,,,,,,,,,,,,,,,,,,,,,,,,,,,,,,,,,285.283370167,285.2985165,285.2985165,286.134335708,g,1.0,0.8289237079998202,,,,,sub-057,1,stroop_test,59.86401888111119,
,,,,40.0,4.0,3.0,,,,,,,,,,,,,blau,red,r,0.0,r,1.0,0.7440047079999204,,,,,,,,,,3.0,4.0,40.0,4.0,286.1488293750001,,,,,,,,,,,,,,,,,286.1345744580001,286.94793541700005,287.747555833,287.733300375,,,,,,,,,,,,,,,,,,,,,,,,,,,,,,,,,,,287.734803375,287.747555833,287.747555833,288.50081216700005,r,1.0,0.7440047079999204,,,,,sub-057,1,stroop_test,59.86401888111119,
,,,,41.0,5.0,3.0,,,,,,,,,,,,,gelb,yellow,g,1.0,g,1.0,0.8731321249999837,,,,,,,,,,3.0,5.0,41.0,11.0,288.51459220800007,,,,,,,,,,,,,,,,,288.50104854200004,288.86456358300006,289.66451633299994,289.649512792,,,,,,,,,,,,,,,,,,,,,,,,,,,,,,,,,,,289.6510390830001,289.66451633299994,289.66451633299994,290.550986042,g,1.0,0.8731321249999837,,,,,sub-057,1,stroop_test,59.86401888111119,
,,,,42.0,6.0,3.0,,,,,,,,,,,,,blau,blue,b,1.0,b,1.0,0.802670457999966,,,,,,,,,,3.0,6.0,42.0,5.0,290.56558275,,,,,,,,,,,,,,,,,290.55122970799994,291.36454337500004,292.16456341699995,292.1496460420001,,,,,,,,,,,,,,,,,,,,,,,,,,,,,,,,,,,292.1510264169999,292.16456341699995,292.16456341699995,292.98506425000005,b,1.0,0.802670457999966,,,,,sub-057,1,stroop_test,59.86401888111119,
,,,,43.0,7.0,3.0,,,,,,,,,,,,,blau,yellow,g,0.0,g,1.0,1.1641978750001272,,,,,,,,,,3.0,7.0,43.0,7.0,292.998013333,,,,,,,,,,,,,,,,,292.985294375,293.7990614580001,294.5979614170001,294.58366008300004,,,,,,,,,,,,,,,,,,,,,,,,,,,,,,,,,,,294.583837917,294.5979614170001,294.5979614170001,295.7673,g,1.0,1.1641978750001272,,,,,sub-057,1,stroop_test,59.86401888111119,
,,,,44.0,8.0,3.0,,,,,,,,,,,,,rot,red,r,1.0,r,1.0,0.6876304170000367,,,,,,,,,,3.0,8.0,44.0,0.0,295.7816351670001,,,,,,,,,,,,,,,,,295.767505667,296.98137825000003,297.7816064169999,297.7664802500001,,,,,,,,,,,,,,,,,,,,,,,,,,,,,,,,,,,297.7679760830001,297.7816064169999,297.7816064169999,298.485100375,r,1.0,0.6876304170000367,,,,,sub-057,1,stroop_test,59.86401888111119,
,,,,45.0,9.0,3.0,,,,,,,,,,,,,blau,blue,b,1.0,b,1.0,0.8728595000000041,,,,,,,,,,3.0,9.0,45.0,6.0,298.4984167079999,,,,,,,,,,,,,,,,,298.48533658299993,298.599164792,299.398116542,299.383476167,,,,,,,,,,,,,,,,,,,,,,,,,,,,,,,,,,,299.3848418750001,299.398116542,299.398116542,300.2850310419999,b,1.0,0.8728595000000041,,,,,sub-057,1,stroop_test,59.86401888111119,
,,,,46.0,10.0,3.0,,,,,,,,,,,,,gelb,yellow,g,1.0,g,1.0,0.7524672909999026,,,,,,,,,,3.0,10.0,46.0,10.0,300.2980164999999,,,,,,,,,,,,,,,,,300.28527800000006,301.498281167,302.298120958,302.2835500829999,,,,,,,,,,,,,,,,,,,,,,,,,,,,,,,,,,,302.2851015829999,302.298120958,302.298120958,303.068284833,g,1.0,0.7524672909999026,,,,,sub-057,1,stroop_test,59.86401888111119,
,,,,47.0,11.0,3.0,,,,,,,,,,,,,gelb,red,r,0.0,r,1.0,0.8768172909999521,,,,,,,,,,3.0,11.0,47.0,8.0,303.08217208299993,,,,,,,,,,,,,,,,,303.0685268330001,303.18218045799995,303.98178866700005,303.9670207500001,,,,,,,,,,,,,,,,,,,,,,,,,,,,,,,,,,,303.9671847500001,303.98178866700005,303.98178866700005,304.8683402920001,r,1.0,0.8768172909999521,,,,,sub-057,1,stroop_test,59.86401888111119,
,,,,48.0,0.0,4.0,,,,,,,,,,,,,blau,blue,b,1.0,b,1.0,0.7349599579999904,,,,,,,,,,4.0,0.0,48.0,6.0,304.881942708,,,,,,,,,,,,,,,,,304.86857175,304.98186429199995,305.7815873750001,305.76688579200004,,,,,,,,,,,,,,,,,,,,,,,,,,,,,,,,,,,305.76839429200004,305.7815873750001,305.7815873750001,306.51779116700004,b,1.0,0.7349599579999904,,,,,sub-057,1,stroop_test,59.86401888111119,
,,,,49.0,1.0,4.0,,,,,,,,,,,,,gelb,yellow,g,1.0,g,1.0,0.6748483750000105,,,,,,,,,,4.0,1.0,49.0,11.0,306.53239833299995,,,,,,,,,,,,,,,,,306.5179982500001,306.88243983300003,307.68211129199995,307.667153958,,,,,,,,,,,,,,,,,,,,,,,,,,,,,,,,,,,307.6686098749999,307.68211129199995,307.68211129199995,308.36843416700003,g,1.0,0.6748483750000105,,,,,sub-057,1,stroop_test,59.86401888111119,
,,,,50.0,2.0,4.0,,,,,,,,,,,,,gelb,yellow,g,1.0,g,1.0,0.7077654170000187,,,,,,,,,,4.0,2.0,50.0,10.0,308.38224408299993,,,,,,,,,,,,,,,,,308.36867129200004,309.1819365829999,309.9820837919999,309.9671384170001,,,,,,,,,,,,,,,,,,,,,,,,,,,,,,,,,,,309.967313375,309.9820837919999,309.9820837919999,310.7020761250001,g,1.0,0.7077654170000187,,,,,sub-057,1,stroop_test,59.86401888111119,
,,,,51.0,3.0,4.0,,,,,,,,,,,,,rot,red,r,1.0,r,1.0,0.7464131670001279,,,,,,,,,,4.0,3.0,51.0,1.0,310.716391,,,,,,,,,,,,,,,,,310.702316917,311.515921917,312.3154132080001,312.30069445799995,,,,,,,,,,,,,,,,,,,,,,,,,,,,,,,,,,,312.302539667,312.3154132080001,312.3154132080001,313.068378792,r,1.0,0.7464131670001279,,,,,sub-057,1,stroop_test,59.86401888111119,
,,,,52.0,4.0,4.0,,,,,,,,,,,,,blau,blue,b,1.0,b,1.0,0.6330500000001393,,,,,,,,,,4.0,4.0,52.0,5.0,313.0827261249999,,,,,,,,,,,,,,,,,313.06861604200003,313.882081792,314.6819640420001,314.6671820419999,,,,,,,,,,,,,,,,,,,,,,,,,,,,,,,,,,,314.6687031250001,314.6819640420001,314.6819640420001,315.31870712499995,b,1.0,0.6330500000001393,,,,,sub-057,1,stroop_test,59.86401888111119,
,,,,53.0,5.0,4.0,,,,,,,,,,,,,gelb,blue,b,0.0,b,1.0,1.112567375000026,,,,,,,,,,4.0,5.0,53.0,9.0,315.332627,,,,,,,,,,,,,,,,,315.31893645800005,316.532667875,317.33221412500006,317.317425167,,,,,,,,,,,,,,,,,,,,,,,,,,,,,,,,,,,317.31879916699995,317.33221412500006,317.33221412500006,318.4515986250001,b,1.0,1.112567375000026,,,,,sub-057,1,stroop_test,59.86401888111119,
,,,,54.0,6.0,4.0,,,,,,,,,,,,,rot,yellow,g,0.0,g,1.0,0.9932520000002114,,,,,,,,,,4.0,6.0,54.0,3.0,318.4663130000001,,,,,,,,,,,,,,,,,318.45184066699994,319.66540995800005,320.46587287500006,320.45080229199993,,,,,,,,,,,,,,,,,,,,,,,,,,,,,,,,,,,320.45217712499993,320.46587287500006,320.46587287500006,321.4689363750001,g,1.0,0.9932520000002114,,,,,sub-057,1,stroop_test,59.86401888111119,
,,,,55.0,7.0,4.0,,,,,,,,,,,,,rot,blue,b,0.0,b,1.0,0.8542980420002095,,,,,,,,,,4.0,7.0,55.0,2.0,321.4828291250001,,,,,,,,,,,,,,,,,321.4691700830001,322.283371042,323.099110375,323.08437870800003,,,,,,,,,,,,,,,,,,,,,,,,,,,,,,,,,,,323.0845655830001,323.099110375,323.099110375,323.9692030420001,b,1.0,0.8542980420002095,,,,,sub-057,1,stroop_test,59.86401888111119,
,,,,56.0,8.0,4.0,,,,,,,,,,,,,gelb,red,r,0.0,r,1.0,1.1633336249999502,,,,,,,,,,4.0,8.0,56.0,8.0,323.982880542,,,,,,,,,,,,,,,,,323.969406875,324.0824513750001,324.8821204999999,324.86750333300006,,,,,,,,,,,,,,,,,,,,,,,,,,,,,,,,,,,324.8690356249999,324.8821204999999,324.8821204999999,326.0533814170001,r,1.0,1.1633336249999502,,,,,sub-057,1,stroop_test,59.86401888111119,
,,,,57.0,9.0,4.0,,,,,,,,,,,,,rot,red,r,1.0,r,1.0,0.772205374999885,,,,,,,,,,4.0,9.0,57.0,0.0,326.065860917,,,,,,,,,,,,,,,,,326.0536199170001,326.16569037499994,326.9660261670001,326.9523812919999,,,,,,,,,,,,,,,,,,,,,,,,,,,,,,,,,,,326.9541201249999,326.9660261670001,326.9660261670001,327.7526418750001,r,1.0,0.772205374999885,,,,,sub-057,1,stroop_test,59.86401888111119,
,,,,58.0,10.0,4.0,,,,,,,,,,,,,blau,red,r,0.0,r,1.0,0.8705615000001217,,,,,,,,,,4.0,10.0,58.0,4.0,327.766566583,,,,,,,,,,,,,,,,,327.7528742500001,328.5660077079999,329.36625916699995,329.351282417,,,,,,,,,,,,,,,,,,,,,,,,,,,,,,,,,,,329.3528161250001,329.36625916699995,329.36625916699995,330.2530830830001,r,1.0,0.8705615000001217,,,,,sub-057,1,stroop_test,59.86401888111119,
,,,,59.0,11.0,4.0,,,,,,,,,,,,,blau,yellow,g,0.0,g,1.0,0.7224416660001225,,,,,,,,,,4.0,11.0,59.0,7.0,330.26621687500005,,,,,,,,,,,,,,,,,330.253323833,330.616233083,331.41608429200005,331.401046042,,,,,,,,,,,,,,,,,,,,,,,,,,,,,,,,,,,331.401465833,331.41608429200005,331.41608429200005,332.152494083,g,1.0,0.7224416660001225,,,,,sub-057,1,stroop_test,59.86401888111119,
,,,,60.0,0.0,5.0,,,,,,,,,,,,,gelb,blue,b,0.0,b,1.0,1.263061916999959,,,,,,,,,,5.0,0.0,60.0,9.0,332.1662638329999,,,,,,,,,,,,,,,,,332.152722458,333.3660280419999,334.1656600000001,334.15128137500005,,,,,,,,,,,,,,,,,,,,,,,,,,,,,,,,,,,334.1530399579999,334.1656600000001,334.1656600000001,335.4361551249999,b,1.0,1.263061916999959,,,,,sub-057,1,stroop_test,59.86401888111119,
,,,,61.0,1.0,5.0,,,,,,,,,,,,,gelb,red,r,0.0,r,1.0,0.7499495829999887,,,,,,,,,,5.0,1.0,61.0,8.0,335.4497905830001,,,,,,,,,,,,,,,,,335.4363929169999,336.249591042,337.0499620830001,337.03502379199995,,,,,,,,,,,,,,,,,,,,,,,,,,,,,,,,,,,337.03522724999993,337.0499620830001,337.0499620830001,337.8029040419999,r,1.0,0.7499495829999887,,,,,sub-057,1,stroop_test,59.86401888111119,
,,,,62.0,2.0,5.0,,,,,,,,,,,,,rot,yellow,g,0.0,g,1.0,0.8682047499999044,,,,,,,,,,5.0,2.0,62.0,3.0,337.8165966250001,,,,,,,,,,,,,,,,,337.8031550830001,338.167325917,338.9663566250001,338.951691708,,,,,,,,,,,,,,,,,,,,,,,,,,,,,,,,,,,338.953178792,338.9663566250001,338.9663566250001,339.836105333,g,1.0,0.8682047499999044,,,,,sub-057,1,stroop_test,59.86401888111119,
,,,,63.0,3.0,5.0,,,,,,,,,,,,,rot,red,r,1.0,r,1.0,0.7024099580000893,,,,,,,,,,5.0,3.0,63.0,0.0,339.8503450420001,,,,,,,,,,,,,,,,,339.836315667,341.05066291699995,341.866703167,341.851547583,,,,,,,,,,,,,,,,,,,,,,,,,,,,,,,,,,,341.85175075000006,341.866703167,341.866703167,342.587098083,r,1.0,0.7024099580000893,,,,,sub-057,1,stroop_test,59.86401888111119,
,,,,64.0,4.0,5.0,,,,,,,,,,,,,blau,blue,b,1.0,b,1.0,1.127351417,,,,,,,,,,5.0,4.0,64.0,5.0,342.60002562499994,,,,,,,,,,,,,,,,,342.587321042,343.39972349999994,344.2000976250001,344.184992125,,,,,,,,,,,,,,,,,,,,,,,,,,,,,,,,,,,344.1863780829999,344.2000976250001,344.2000976250001,345.33658179200006,b,1.0,1.127351417,,,,,sub-057,1,stroop_test,59.86401888111119,
,,,,65.0,5.0,5.0,,,,,,,,,,,,,gelb,yellow,g,1.0,g,1.0,1.7895960410000953,,,,,,,,,,5.0,5.0,65.0,11.0,345.35020254200003,,,,,,,,,,,,,,,,,345.3368176670001,345.700044667,346.500036167,346.48496416700004,,,,,,,,,,,,,,,,,,,,,,,,,,,,,,,,,,,346.486352333,346.500036167,346.500036167,348.303436292,g,1.0,1.7895960410000953,,,,,sub-057,1,stroop_test,59.86401888111119,
,,,,66.0,6.0,5.0,,,,,,,,,,,,,blau,red,r,0.0,r,1.0,0.7406755419999627,,,,,,,,,,5.0,6.0,66.0,4.0,348.3167504170001,,,,,,,,,,,,,,,,,348.3036831249999,348.66692483299994,349.46728699999994,349.4518465829999,,,,,,,,,,,,,,,,,,,,,,,,,,,,,,,,,,,349.453294833,349.46728699999994,349.46728699999994,350.22006391700006,r,1.0,0.7406755419999627,,,,,sub-057,1,stroop_test,59.86401888111119,
,,,,67.0,7.0,5.0,,,,,,,,,,,,,blau,blue,b,1.0,b,1.0,0.6685538750000433,,,,,,,,,,5.0,7.0,67.0,6.0,350.233504542,,,,,,,,,,,,,,,,,350.22030695800004,350.583346292,351.3840794580001,351.369436083,,,,,,,,,,,,,,,,,,,,,,,,,,,,,,,,,,,351.36959812500004,351.3840794580001,351.3840794580001,352.054068833,b,1.0,0.6685538750000433,,,,,sub-057,1,stroop_test,59.86401888111119,
,,,,68.0,8.0,5.0,,,,,,,,,,,,,blau,yellow,g,0.0,g,1.0,0.8020728750000217,,,,,,,,,,5.0,8.0,68.0,7.0,352.0673933329999,,,,,,,,,,,,,,,,,352.0542754999999,352.866916042,353.666671792,353.65205841700003,,,,,,,,,,,,,,,,,,,,,,,,,,,,,,,,,,,353.6522238330001,353.666671792,353.666671792,354.4875912079999,g,1.0,0.8020728750000217,,,,,sub-057,1,stroop_test,59.86401888111119,
,,,,69.0,9.0,5.0,,,,,,,,,,,,,gelb,yellow,g,1.0,g,1.0,0.6470532089999779,,,,,,,,,,5.0,9.0,69.0,10.0,354.500367375,,,,,,,,,,,,,,,,,354.487827792,355.70049770800006,356.50090316699993,356.4856150830001,,,,,,,,,,,,,,,,,,,,,,,,,,,,,,,,,,,356.487194417,356.50090316699993,356.50090316699993,357.15295850000007,g,1.0,0.6470532089999779,,,,,sub-057,1,stroop_test,59.86401888111119,
,,,,70.0,10.0,5.0,,,,,,,,,,,,,rot,red,r,1.0,r,1.0,0.7499975000000632,,,,,,,,,,5.0,10.0,70.0,1.0,357.166908958,,,,,,,,,,,,,,,,,357.1531762920001,357.267015958,358.067407708,358.05309287499995,,,,,,,,,,,,,,,,,,,,,,,,,,,,,,,,,,,358.054540292,358.067407708,358.067407708,358.820211792,r,1.0,0.7499975000000632,,,,,sub-057,1,stroop_test,59.86401888111119,
,,,,71.0,11.0,5.0,,,,,,,,,,,,,rot,blue,b,0.0,b,1.0,1.2998494580001534,,,,,,,,,,5.0,11.0,71.0,2.0,358.8344669580001,,,,,,,,,,,,,,,,,358.8204565420001,360.034283708,360.8346825000001,360.819568333,,,,,,,,,,,,,,,,,,,,,,,,,,,,,,,,,,,360.8200018330001,360.8346825000001,360.8346825000001,362.136606,b,1.0,1.2998494580001534,,,,,sub-057,1,stroop_test,59.86401888111119,
,,,,72.0,0.0,6.0,,,,,,,,,,,,,rot,red,r,1.0,r,1.0,1.1625109579999844,,,,,,,,,,6.0,0.0,72.0,0.0,362.1511410830001,,,,,,,,,,,,,,,,,362.1368425830001,362.950666667,363.750554208,363.7357005000001,,,,,,,,,,,,,,,,,,,,,,,,,,,,,,,,,,,363.735881542,363.750554208,363.750554208,364.92060425,r,1.0,1.1625109579999844,,,,,sub-057,1,stroop_test,59.86401888111119,
,,,,73.0,1.0,6.0,,,,,,,,,,,,,gelb,blue,b,0.0,b,1.0,1.1691754169999058,,,,,,,,,,6.0,1.0,73.0,9.0,364.9344972500001,,,,,,,,,,,,,,,,,364.9208457500001,366.1341797079999,366.93398545800005,366.9194505,,,,,,,,,,,,,,,,,,,,,,,,,,,,,,,,,,,366.9208417499999,366.93398545800005,366.93398545800005,368.12146266700006,b,1.0,1.1691754169999058,,,,,sub-057,1,stroop_test,59.86401888111119,
,,,,74.0,2.0,6.0,,,,,,,,,,,,,rot,red,r,1.0,r,1.0,1.6691880830001082,,,,,,,,,,6.0,2.0,74.0,1.0,368.134412875,,,,,,,,,,,,,,,,,368.1216875,368.2341214170001,369.034550417,369.0195980830001,,,,,,,,,,,,,,,,,,,,,,,,,,,,,,,,,,,369.0209520830001,369.034550417,369.034550417,370.72132729200007,r,1.0,1.6691880830001082,,,,,sub-057,1,stroop_test,59.86401888111119,
,,,,75.0,3.0,6.0,,,,,,,,,,,,,rot,blue,b,0.0,b,1.0,1.049945708999985,,,,,,,,,,6.0,3.0,75.0,2.0,370.7343914580001,,,,,,,,,,,,,,,,,370.721581625,371.9346714999999,372.734373,372.720030875,,,,,,,,,,,,,,,,,,,,,,,,,,,,,,,,,,,372.720214042,372.734373,372.734373,373.787378083,b,1.0,1.049945708999985,,,,,sub-057,1,stroop_test,59.86401888111119,
,,,,76.0,4.0,6.0,,,,,,,,,,,,,gelb,yellow,g,1.0,g,1.0,0.7244372079999266,,,,,,,,,,6.0,4.0,76.0,11.0,373.8018660830001,,,,,,,,,,,,,,,,,373.7876141250001,375.001343875,375.801182292,375.7863327079999,,,,,,,,,,,,,,,,,,,,,,,,,,,,,,,,,,,375.787748042,375.801182292,375.801182292,376.53764216700006,g,1.0,0.7244372079999266,,,,,sub-057,1,stroop_test,59.86401888111119,
,,,,77.0,5.0,6.0,,,,,,,,,,,,,blau,red,r,0.0,r,1.0,0.7220482499999434,,,,,,,,,,6.0,5.0,77.0,4.0,376.5507997919999,,,,,,,,,,,,,,,,,376.5378882499999,377.3510538329999,378.1511842079999,378.136920958,,,,,,,,,,,,,,,,,,,,,,,,,,,,,,,,,,,378.138497125,378.1511842079999,378.1511842079999,378.8879770000001,r,1.0,0.7220482499999434,,,,,sub-057,1,stroop_test,59.86401888111119,
,,,,78.0,6.0,6.0,,,,,,,,,,,,,rot,yellow,g,0.0,g,1.0,0.7372847079998337,,,,,,,,,,6.0,6.0,78.0,3.0,378.90191270800005,,,,,,,,,,,,,,,,,378.8881831670001,380.101453542,380.9021265829999,380.886444,,,,,,,,,,,,,,,,,,,,,,,,,,,,,,,,,,,380.88788787499993,380.9021265829999,380.9021265829999,381.654738708,g,1.0,0.7372847079998337,,,,,sub-057,1,stroop_test,59.86401888111119,
,,,,79.0,7.0,6.0,,,,,,,,,,,,,gelb,yellow,g,1.0,g,1.0,0.6271515000000818,,,,,,,,,,6.0,7.0,79.0,10.0,381.6677035,,,,,,,,,,,,,,,,,381.6549876670001,381.767744042,382.56759320800006,382.5526950000001,,,,,,,,,,,,,,,,,,,,,,,,,,,,,,,,,,,382.5541531250001,382.56759320800006,382.56759320800006,383.20416420800007,g,1.0,0.6271515000000818,,,,,sub-057,1,stroop_test,59.86401888111119,
,,,,80.0,8.0,6.0,,,,,,,,,,,,,gelb,red,r,0.0,r,1.0,0.758185874999981,,,,,,,,,,6.0,8.0,80.0,8.0,383.217637125,,,,,,,,,,,,,,,,,383.20437308300006,384.4181718750001,385.21807383300006,385.2032811670001,,,,,,,,,,,,,,,,,,,,,,,,,,,,,,,,,,,385.203466708,385.21807383300006,385.21807383300006,385.987772042,r,1.0,0.758185874999981,,,,,sub-057,1,stroop_test,59.86401888111119,
,,,,81.0,9.0,6.0,,,,,,,,,,,,,blau,blue,b,1.0,b,1.0,0.5936182499999632,,,,,,,,,,6.0,9.0,81.0,5.0,386.001483583,,,,,,,,,,,,,,,,,385.98801175,387.20125266700006,388.001242625,387.986450333,,,,,,,,,,,,,,,,,,,,,,,,,,,,,,,,,,,387.9879865,388.001242625,388.001242625,388.604542625,b,1.0,0.5936182499999632,,,,,sub-057,1,stroop_test,59.86401888111119,
,,,,82.0,10.0,6.0,,,,,,,,,,,,,blau,blue,b,1.0,b,1.0,0.6218653329999597,,,,,,,,,,6.0,10.0,82.0,6.0,388.6185378749999,,,,,,,,,,,,,,,,,388.604780958,388.9685716670001,389.768215458,389.7530865000001,,,,,,,,,,,,,,,,,,,,,,,,,,,,,,,,,,,389.753260083,389.768215458,389.768215458,390.405298333,b,1.0,0.6218653329999597,,,,,sub-057,1,stroop_test,59.86401888111119,
,,,,83.0,11.0,6.0,,,,,,,,,,,,,blau,yellow,g,0.0,g,1.0,0.9665664579999884,,,,,,,,,,6.0,11.0,83.0,7.0,390.418606083,,,,,,,,,,,,,,,,,390.405537417,391.2182223330001,392.0181835000001,392.00319745799993,,,,,,,,,,,,,,,,,,,,,,,,,,,,,,,,,,,392.003370917,392.0181835000001,392.0181835000001,392.9874433750001,g,1.0,0.9665664579999884,,,,,sub-057,1,stroop_test,59.86401888111119,
,,,,84.0,0.0,7.0,,,,,,,,,,,,,gelb,red,r,0.0,r,1.0,0.8396955410000828,,,,,,,,,,7.0,0.0,84.0,8.0,393.00243783299993,,,,,,,,,,,,,,,,,392.9876650829999,393.101547083,393.901514875,393.88716420800006,,,,,,,,,,,,,,,,,,,,,,,,,,,,,,,,,,,393.888628708,393.901514875,393.901514875,394.7550421250001,r,1.0,0.8396955410000828,,,,,sub-057,1,stroop_test,59.86401888111119,
,,,,85.0,1.0,7.0,,,,,,,,,,,,,gelb,yellow,g,1.0,g,1.0,0.7656431670000075,,,,,,,,,,7.0,1.0,85.0,11.0,394.7685269169999,,,,,,,,,,,,,,,,,394.75524833300005,395.5683476670001,396.3684205,396.353541708,,,,,,,,,,,,,,,,,,,,,,,,,,,,,,,,,,,396.35371758299993,396.3684205,396.3684205,397.137994125,g,1.0,0.7656431670000075,,,,,sub-057,1,stroop_test,59.86401888111119,
,,,,86.0,2.0,7.0,,,,,,,,,,,,,rot,blue,b,0.0,b,1.0,1.107179750000114,,,,,,,,,,7.0,2.0,86.0,2.0,397.152069583,,,,,,,,,,,,,,,,,397.138230583,398.3517184580001,399.1514863330001,399.1368452920001,,,,,,,,,,,,,,,,,,,,,,,,,,,,,,,,,,,399.138379583,399.1514863330001,399.1514863330001,400.2716908330001,b,1.0,1.107179750000114,,,,,sub-057,1,stroop_test,59.86401888111119,
,,,,87.0,3.0,7.0,,,,,,,,,,,,,blau,blue,b,1.0,b,1.0,0.7463407500001722,,,,,,,,,,7.0,3.0,87.0,5.0,400.285248167,,,,,,,,,,,,,,,,,400.271936208,401.4854150000001,402.2856299170001,402.2706311669999,,,,,,,,,,,,,,,,,,,,,,,,,,,,,,,,,,,402.27224483300006,402.2856299170001,402.2856299170001,403.038186125,b,1.0,0.7463407500001722,,,,,sub-057,1,stroop_test,59.86401888111119,
,,,,88.0,4.0,7.0,,,,,,,,,,,,,blau,yellow,g,0.0,g,1.0,0.9906190839999454,,,,,,,,,,7.0,4.0,88.0,7.0,403.05255591700006,,,,,,,,,,,,,,,,,403.0384193750001,403.851968958,404.6518196669999,404.6370278330001,,,,,,,,,,,,,,,,,,,,,,,,,,,,,,,,,,,404.63722000000007,404.6518196669999,404.6518196669999,405.655349167,g,1.0,0.9906190839999454,,,,,sub-057,1,stroop_test,59.86401888111119,
,,,,89.0,5.0,7.0,,,,,,,,,,,,,blau,red,r,0.0,r,1.0,1.0916194589999575,,,,,,,,,,7.0,5.0,89.0,4.0,405.669056792,,,,,,,,,,,,,,,,,405.6555948330001,406.4685246250001,407.2697445420001,407.2539435000001,,,,,,,,,,,,,,,,,,,,,,,,,,,,,,,,,,,407.2541321670001,407.2697445420001,407.2697445420001,408.3721994170001,r,1.0,1.0916194589999575,,,,,sub-057,1,stroop_test,59.86401888111119,
,,,,90.0,6.0,7.0,,,,,,,,,,,,,rot,red,r,1.0,r,1.0,0.6405404170000111,,,,,,,,,,7.0,6.0,90.0,1.0,408.38560375,,,,,,,,,,,,,,,,,408.372447667,408.7353378749999,409.535329417,409.521186667,,,,,,,,,,,,,,,,,,,,,,,,,,,,,,,,,,,409.522866667,409.535329417,409.535329417,410.18884779199993,r,1.0,0.6405404170000111,,,,,sub-057,1,stroop_test,59.86401888111119,
,,,,91.0,7.0,7.0,,,,,,,,,,,,,rot,yellow,g,0.0,g,1.0,0.6164418329999535,,,,,,,,,,7.0,7.0,91.0,3.0,410.2025684580001,,,,,,,,,,,,,,,,,410.189096958,410.5522041670001,411.3521745830001,411.337402333,,,,,,,,,,,,,,,,,,,,,,,,,,,,,,,,,,,411.337593833,411.3521745830001,411.3521745830001,411.971540042,g,1.0,0.6164418329999535,,,,,sub-057,1,stroop_test,59.86401888111119,
,,,,92.0,8.0,7.0,,,,,,,,,,,,,gelb,yellow,g,1.0,g,1.0,0.5164184160000787,,,,,,,,,,7.0,8.0,92.0,10.0,411.9858078750001,,,,,,,,,,,,,,,,,411.971775667,412.3362614580001,413.13545525,413.1204748750001,,,,,,,,,,,,,,,,,,,,,,,,,,,,,,,,,,,413.121841083,413.13545525,413.13545525,413.655483,g,1.0,0.5164184160000787,,,,,sub-057,1,stroop_test,59.86401888111119,
,,,,93.0,9.0,7.0,,,,,,,,,,,,,rot,red,r,1.0,r,1.0,0.5783081670001593,,,,,,,,,,7.0,9.0,93.0,0.0,413.6702786670001,,,,,,,,,,,,,,,,,413.655736833,414.868995583,415.6693439999999,415.65426125,,,,,,,,,,,,,,,,,,,,,,,,,,,,,,,,,,,415.655863042,415.6693439999999,415.6693439999999,416.255497958,r,1.0,0.5783081670001593,,,,,sub-057,1,stroop_test,59.86401888111119,
,,,,94.0,10.0,7.0,,,,,,,,,,,,,blau,blue,b,1.0,b,1.0,0.4972445419998621,,,,,,,,,,7.0,10.0,94.0,6.0,416.269041583,,,,,,,,,,,,,,,,,416.2557469579999,417.069104208,417.869176917,417.8546464169999,,,,,,,,,,,,,,,,,,,,,,,,,,,,,,,,,,,417.8561542919999,417.869176917,417.869176917,418.372087917,b,1.0,0.4972445419998621,,,,,sub-057,1,stroop_test,59.86401888111119,
,,,,95.0,11.0,7.0,,,,,,,,,,,,,gelb,blue,b,0.0,b,1.0,0.7190248330000486,,,,,,,,,,7.0,11.0,95.0,9.0,418.3867277920001,,,,,,,,,,,,,,,,,418.372318667,418.48603479200005,419.285959667,419.27105675000007,,,,,,,,,,,,,,,,,,,,,,,,,,,,,,,,,,,419.272425458,419.285959667,419.285959667,420.006042125,b,1.0,0.7190248330000486,,,,,sub-057,1,stroop_test,59.86401888111119,
,,,,96.0,0.0,8.0,,,,,,,,,,,,,gelb,yellow,g,1.0,g,1.0,0.8420016669999768,,,,,,,,,,8.0,0.0,96.0,10.0,420.019653958,,,,,,,,,,,,,,,,,420.00625450000007,420.8191449169999,421.619651625,421.604061583,,,,,,,,,,,,,,,,,,,,,,,,,,,,,,,,,,,421.60423425,421.619651625,421.619651625,422.4726734999999,g,1.0,0.8420016669999768,,,,,sub-057,1,stroop_test,59.86401888111119,
,,,,97.0,1.0,8.0,,,,,,,,,,,,,blau,red,r,0.0,r,1.0,0.6683342920000541,,,,,,,,,,8.0,1.0,97.0,4.0,422.48611670800005,,,,,,,,,,,,,,,,,422.4729171670001,422.5861223330001,423.385699125,423.3709140420001,,,,,,,,,,,,,,,,,,,,,,,,,,,,,,,,,,,423.372287875,423.385699125,423.385699125,424.0567384579999,r,1.0,0.6683342920000541,,,,,sub-057,1,stroop_test,59.86401888111119,
,,,,98.0,2.0,8.0,,,,,,,,,,,,,blau,yellow,g,0.0,g,1.0,0.8000037080000766,,,,,,,,,,8.0,2.0,98.0,7.0,424.070440583,,,,,,,,,,,,,,,,,424.0569814170001,425.26940250000007,426.070370875,426.054388625,,,,,,,,,,,,,,,,,,,,,,,,,,,,,,,,,,,426.054562042,426.070370875,426.070370875,426.872298542,g,1.0,0.8000037080000766,,,,,sub-057,1,stroop_test,59.86401888111119,
,,,,99.0,3.0,8.0,,,,,,,,,,,,,gelb,red,r,0.0,r,1.0,0.6671010000000024,,,,,,,,,,8.0,3.0,99.0,8.0,426.887157167,,,,,,,,,,,,,,,,,426.87250433300005,428.0860822919999,428.885913958,428.871249625,,,,,,,,,,,,,,,,,,,,,,,,,,,,,,,,,,,428.8726321250001,428.885913958,428.885913958,429.5555374999999,r,1.0,0.6671010000000024,,,,,sub-057,1,stroop_test,59.86401888111119,
,,,,100.0,4.0,8.0,,,,,,,,,,,,,gelb,blue,b,0.0,b,1.0,0.8133239159999448,,,,,,,,,,8.0,4.0,100.0,9.0,429.570776458,,,,,,,,,,,,,,,,,429.555779583,429.669711625,430.4694105420001,430.454551542,,,,,,,,,,,,,,,,,,,,,,,,,,,,,,,,,,,430.454736083,430.4694105420001,430.4694105420001,431.289482083,b,1.0,0.8133239159999448,,,,,sub-057,1,stroop_test,59.86401888111119,
,,,,101.0,5.0,8.0,,,,,,,,,,,,,rot,red,r,1.0,r,1.0,0.629288249999945,,,,,,,,,,8.0,5.0,101.0,1.0,431.3032780000001,,,,,,,,,,,,,,,,,431.28971916699993,431.6526262499999,432.4531885000001,432.4383063749999,,,,,,,,,,,,,,,,,,,,,,,,,,,,,,,,,,,432.4396609580001,432.4531885000001,432.4531885000001,433.089899458,r,1.0,0.629288249999945,,,,,sub-057,1,stroop_test,59.86401888111119,
,,,,102.0,6.0,8.0,,,,,,,,,,,,,blau,blue,b,1.0,b,1.0,0.8426694580000458,,,,,,,,,,8.0,6.0,102.0,5.0,433.10427033299993,,,,,,,,,,,,,,,,,433.0900906249999,433.452938333,434.2529684169999,434.2381762079999,,,,,,,,,,,,,,,,,,,,,,,,,,,,,,,,,,,434.239880958,434.2529684169999,434.2529684169999,435.106678417,b,1.0,0.8426694580000458,,,,,sub-057,1,stroop_test,59.86401888111119,
,,,,103.0,7.0,8.0,,,,,,,,,,,,,rot,yellow,g,0.0,g,1.0,0.8129613329999756,,,,,,,,,,8.0,7.0,103.0,3.0,435.11996825000006,,,,,,,,,,,,,,,,,435.106914083,436.3196627499999,437.119689292,437.10580925,,,,,,,,,,,,,,,,,,,,,,,,,,,,,,,,,,,437.107329875,437.119689292,437.119689292,437.939491333,g,1.0,0.8129613329999756,,,,,sub-057,1,stroop_test,59.86401888111119,
,,,,104.0,8.0,8.0,,,,,,,,,,,,,blau,blue,b,1.0,b,1.0,0.733939583999927,,,,,,,,,,8.0,8.0,104.0,6.0,437.95364395799993,,,,,,,,,,,,,,,,,437.939709708,438.30307375000007,439.1031741250001,439.08834150000007,,,,,,,,,,,,,,,,,,,,,,,,,,,,,,,,,,,439.08970420800006,439.1031741250001,439.1031741250001,439.8393750830001,b,1.0,0.733939583999927,,,,,sub-057,1,stroop_test,59.86401888111119,
,,,,105.0,9.0,8.0,,,,,,,,,,,,,rot,blue,b,0.0,b,1.0,1.446326999999883,,,,,,,,,,8.0,9.0,105.0,2.0,439.853620208,,,,,,,,,,,,,,,,,439.8396203750001,440.20361725,441.003815042,440.98865354200007,,,,,,,,,,,,,,,,,,,,,,,,,,,,,,,,,,,440.9899889999999,441.003815042,441.003815042,442.4557575419999,b,1.0,1.446326999999883,,,,,sub-057,1,stroop_test,59.86401888111119,
,,,,106.0,10.0,8.0,,,,,,,,,,,,,rot,red,r,1.0,r,1.0,0.864697834000026,,,,,,,,,,8.0,10.0,106.0,0.0,442.470429583,,,,,,,,,,,,,,,,,442.4559917920001,443.270329208,444.0697211250001,444.055291917,,,,,,,,,,,,,,,,,,,,,,,,,,,,,,,,,,,444.055465833,444.0697211250001,444.0697211250001,444.93964433299993,r,1.0,0.864697834000026,,,,,sub-057,1,stroop_test,59.86401888111119,
,,,,107.0,11.0,8.0,,,,,,,,,,,,,gelb,yellow,g,1.0,g,1.0,0.6005279170001359,,,,,,,,,,8.0,11.0,107.0,11.0,444.9543537500001,,,,,,,,,,,,,,,,,444.9398545419999,445.7533571250001,446.5534239169999,446.538385417,,,,,,,,,,,,,,,,,,,,,,,,,,,,,,,,,,,446.5397619170001,446.5534239169999,446.5534239169999,447.156058667,g,1.0,0.6005279170001359,,,,,sub-057,1,stroop_test,59.86401888111119,
,,,,108.0,0.0,9.0,,,,,,,,,,,,,gelb,red,r,0.0,r,1.0,0.7684800839999752,,,,,,,,,,9.0,0.0,108.0,8.0,447.1711130829999,,,,,,,,,,,,,,,,,447.156305083,447.520384208,448.3199569579999,448.30519525,,,,,,,,,,,,,,,,,,,,,,,,,,,,,,,,,,,448.305365083,448.3199569579999,448.3199569579999,449.0896050419999,r,1.0,0.7684800839999752,,,,,sub-057,1,stroop_test,59.86401888111119,
,,,,109.0,1.0,9.0,,,,,,,,,,,,,rot,yellow,g,0.0,g,1.0,0.7070987499998864,,,,,,,,,,9.0,1.0,109.0,3.0,449.10391841699993,,,,,,,,,,,,,,,,,449.0897969580001,449.453497667,450.2534187920001,450.239185833,,,,,,,,,,,,,,,,,,,,,,,,,,,,,,,,,,,450.2407672080001,450.2534187920001,450.2534187920001,450.973524708,g,1.0,0.7070987499998864,,,,,sub-057,1,stroop_test,59.86401888111119,
,,,,110.0,2.0,9.0,,,,,,,,,,,,,blau,blue,b,1.0,b,1.0,0.6900255410000682,,,,,,,,,,9.0,2.0,110.0,6.0,450.9869887080001,,,,,,,,,,,,,,,,,450.9737607080001,451.78743666700007,452.587237917,452.57197166700007,,,,,,,,,,,,,,,,,,,,,,,,,,,,,,,,,,,452.57335416699993,452.587237917,452.587237917,453.290243208,b,1.0,0.6900255410000682,,,,,sub-057,1,stroop_test,59.86401888111119,
,,,,111.0,3.0,9.0,,,,,,,,,,,,,rot,blue,b,0.0,b,1.0,0.635337791999973,,,,,,,,,,9.0,3.0,111.0,2.0,453.30384175,,,,,,,,,,,,,,,,,453.2904825830001,453.65364425000007,454.453540667,454.4392607499999,,,,,,,,,,,,,,,,,,,,,,,,,,,,,,,,,,,454.4407945,454.453540667,454.453540667,455.107020208,b,1.0,0.635337791999973,,,,,sub-057,1,stroop_test,59.86401888111119,
,,,,112.0,4.0,9.0,,,,,,,,,,,,,gelb,blue,b,0.0,b,1.0,0.7067467920001036,,,,,,,,,,9.0,4.0,112.0,9.0,455.1207341669999,,,,,,,,,,,,,,,,,455.107246667,455.22154216700005,456.0376384169999,456.0226022080001,,,,,,,,,,,,,,,,,,,,,,,,,,,,,,,,,,,456.024050583,456.0376384169999,456.0376384169999,456.75666016700006,b,1.0,0.7067467920001036,,,,,sub-057,1,stroop_test,59.86401888111119,
,,,,113.0,5.0,9.0,,,,,,,,,,,,,blau,yellow,g,0.0,g,1.0,1.145038875000182,,,,,,,,,,9.0,5.0,113.0,7.0,456.771304458,,,,,,,,,,,,,,,,,456.756911917,456.871037333,457.6707509170001,457.655394417,,,,,,,,,,,,,,,,,,,,,,,,,,,,,,,,,,,457.6568038749999,457.6707509170001,457.6707509170001,458.8241927920001,g,1.0,1.145038875000182,,,,,sub-057,1,stroop_test,59.86401888111119,
,,,,114.0,6.0,9.0,,,,,,,,,,,,,gelb,yellow,g,1.0,g,1.0,0.5724369580000257,,,,,,,,,,9.0,6.0,114.0,11.0,458.8380115,,,,,,,,,,,,,,,,,458.8244051250001,459.187943083,459.9870505000001,459.972452875,,,,,,,,,,,,,,,,,,,,,,,,,,,,,,,,,,,459.9740112080001,459.9870505000001,459.9870505000001,460.5737013329999,g,1.0,0.5724369580000257,,,,,sub-057,1,stroop_test,59.86401888111119,
,,,,115.0,7.0,9.0,,,,,,,,,,,,,blau,red,r,0.0,r,1.0,0.6304011249999348,,,,,,,,,,9.0,7.0,115.0,4.0,460.587298292,,,,,,,,,,,,,,,,,460.573946833,460.6872623750001,461.4871350830001,461.4722810420001,,,,,,,,,,,,,,,,,,,,,,,,,,,,,,,,,,,461.47387675,461.4871350830001,461.4871350830001,462.1235018330001,r,1.0,0.6304011249999348,,,,,sub-057,1,stroop_test,59.86401888111119,
,,,,116.0,8.0,9.0,,,,,,,,,,,,,rot,red,r,1.0,r,1.0,0.6002105000000029,,,,,,,,,,9.0,8.0,116.0,0.0,462.1376969170001,,,,,,,,,,,,,,,,,462.123746708,462.487429,463.287279958,463.27248225,,,,,,,,,,,,,,,,,,,,,,,,,,,,,,,,,,,463.2738300830001,463.287279958,463.287279958,463.8901786670001,r,1.0,0.6002105000000029,,,,,sub-057,1,stroop_test,59.86401888111119,
,,,,117.0,9.0,9.0,,,,,,,,,,,,,gelb,yellow,g,1.0,g,1.0,0.6348095839998678,,,,,,,,,,9.0,9.0,117.0,10.0,463.905193417,,,,,,,,,,,,,,,,,463.89041875,464.7043885000001,465.504008208,465.48913579200007,,,,,,,,,,,,,,,,,,,,,,,,,,,,,,,,,,,465.490650708,465.504008208,465.504008208,466.140235417,g,1.0,0.6348095839998678,,,,,sub-057,1,stroop_test,59.86401888111119,
,,,,118.0,10.0,9.0,,,,,,,,,,,,,blau,blue,b,1.0,b,1.0,0.5721880420001071,,,,,,,,,,9.0,10.0,118.0,5.0,466.1544396250001,,,,,,,,,,,,,,,,,466.140445125,467.3538987920001,468.15449854200006,468.1401371669999,,,,,,,,,,,,,,,,,,,,,,,,,,,,,,,,,,,468.14153375,468.15449854200006,468.15449854200006,468.7411649170001,b,1.0,0.5721880420001071,,,,,sub-057,1,stroop_test,59.86401888111119,
,,,,119.0,11.0,9.0,,,,,,,,,,,,,rot,red,r,1.0,r,1.0,0.700138958000025,,,,,,,,,,9.0,11.0,119.0,1.0,468.754338917,,,,,,,,,,,,,,,,,468.741370125,469.954663792,470.754500667,470.739410833,,,,,,,,,,,,,,,,,,,,,,,,,,,,,,,,,,,470.740923583,470.754500667,470.754500667,471.4570254580001,r,1.0,0.700138958000025,,,,,sub-057,1,stroop_test,59.86401888111119,
,,,,,,,,,,,,,,,,,,,,,,,,,,,,,,,,,,,,,,,,,,,,,,,,,,,,,,,,,,,,,,,,,,,,,,,,,,,,,,,,,,,,,,,,,,,,,,,,,,,,,,471.457134042,471.4723032920001,476.4730884999999,sub-057,1,stroop_test,59.86401888111119,
