wordCTK,colorCTK,corrAnsCTK,congruentCTK,thisN,thisTrialN,thisRepN,keyResp_CTK.keys,keyResp_CTK.corr,keyResp_CTK.rt,keyResp_CTK.duration,wordPractice,colorPractice,corrAnsPractice,congruentPractice,respPractice.keys,respPractice.corr,respPractice.rt,respPractice.duration,word,color,corrAns,congruent,keyResp_test_run.keys,keyResp_test_run.corr,keyResp_test_run.rt,keyResp_test_run.duration,trials_CTK.thisRepN,trials_CTK.thisTrialN,trials_CTK.thisN,trials_CTK.thisIndex,trials_practice.thisRepN,trials_practice.thisTrialN,trials_practice.thisN,trials_practice.thisIndex,trials_test.thisRepN,trials_test.thisTrialN,trials_test.thisN,trials_test.thisIndex,thisRow.t,notes,instruction.started,instr_text.started,instr_image.started,instr_resp.started,instruction.stopped,instr_resp.keys,instr_resp.rt,instr_resp.duration,instr_color_to_key.started,instr_ctk.started,resp_ctk.started,instr_color_to_key.stopped,resp_ctk.keys,resp_ctk.rt,resp_ctk.duration,ITI.started,fixcross.started,fixcross.stopped,ITI.stopped,color_to_key_run.started,stimulus_CTK.started,keyResp_CTK.started,color_to_key_run.stopped,trials_CTK.keyResp_CTK.keys,trials_CTK.keyResp_CTK.corr,trials_CTK.keyResp_CTK.rt,trials_CTK.keyResp_CTK.duration,instr_practice.started,instr_practice_text.started,instr_practice_resp.started,instr_practice.stopped,instr_practice_resp.keys,instr_practice_resp.rt,instr_practice_resp.duration,practice_run.started,stimulus_practice.started,respPractice.started,practice_run.stopped,trials_practice.respPractice.keys,trials_practice.respPractice.corr,trials_practice.respPractice.rt,trials_practice.respPractice.duration,feedback.started,textFeedback.started,feedback.stopped,textFeedback.stopped,instr_test.started,instr_test_text.started,instr_test_resp.started,instr_test.stopped,instr_test_resp.keys,instr_test_resp.rt,instr_test_resp.duration,test_run.started,stimulus_test_run.started,keyResp_test_run.started,test_run.stopped,trials_test.keyResp_test_run.keys,trials_test.keyResp_test_run.corr,trials_test.keyResp_test_run.rt,trials_test.keyResp_test_run.duration,goodbye.started,textGoodbye.started,textGoodbye.stopped,goodbye.stopped,participant,session,expName,frameRate,Unnamed: 113
,,,,,,,,,,,,,,,,,,,,,,,,,,,,,,,,,,,,,,,,,0.0041872999863699,0.0841443999670445,0.0841443999670445,0.0841443999670445,58.86577500001295,space,58.74740719998954,,,,,,,,,,,,,,,,,,,,,,,,,,,,,,,,,,,,,,,,,,,,,,,,,,,,,,,,,,,sub-234,1,stroop_test,120.60442114225108,
,,,,,,,,,,,,,,,,,,,,,,,,,,,,,,,,,,,,,,,,,,,,,,,,,58.8659958000062,58.8760556000052,58.8760556000052,63.302225599996746,space,4.41678009997122,,,,,,,,,,,,,,,,,,,,,,,,,,,,,,,,,,,,,,,,,,,,,,,,,,,,sub-234,1,stroop_test,120.60442114225108,
test,blue,b,1.0,0.0,0.0,0.0,b,1.0,3.682944799948018,,,,,,,,,,,,,,,,,,0.0,0.0,0.0,2.0,,,,,,,,,63.38910480000777,,,,,,,,,,,,,,,,,63.3837698000134,64.49939969996922,65.31047909997869,65.28318869997747,65.301144499972,65.31047909997869,65.31047909997869,69.00030730001163,b,1.0,3.682944799948018,,,,,,,,,,,,,,,,,,,,,,,,,,,,,,,,,,,,,,,,sub-234,1,stroop_test,120.60442114225108,
test,yellow,g,1.0,1.0,1.0,0.0,g,1.0,2.2418454000144266,,,,,,,,,,,,,,,,,,0.0,1.0,1.0,1.0,,,,,,,,,69.00778779998654,,,,,,,,,,,,,,,,,69.00109350000275,69.79722900001798,70.59128300001612,70.58204309997382,70.58338899997761,70.59128300001612,70.59128300001612,72.84338400000706,g,1.0,2.2418454000144266,,,,,,,,,,,,,,,,,,,,,,,,,,,,,,,,,,,,,,,,sub-234,1,stroop_test,120.60442114225108,
test,red,r,1.0,2.0,2.0,0.0,r,1.0,1.394430399988778,,,,,,,,,,,,,,,,,,0.0,2.0,2.0,0.0,,,,,,,,,72.85390919999918,,,,,,,,,,,,,,,,,72.84466699999757,72.93776589998743,73.73116470000241,73.722661399981,73.7237984999665,73.73116470000241,73.73116470000241,75.13334759999998,r,1.0,1.394430399988778,,,,,,,,,,,,,,,,,,,,,,,,,,,,,,,,,,,,,,,,sub-234,1,stroop_test,120.60442114225108,
test,blue,b,1.0,3.0,0.0,1.0,b,1.0,1.0758144000428729,,,,,,,,,,,,,,,,,,1.0,0.0,3.0,2.0,,,,,,,,,75.14157779997913,,,,,,,,,,,,,,,,,75.134322399972,75.92884369997773,76.72389979998115,76.71338909998303,76.71517889999086,76.72389979998115,76.72389979998115,77.80703169998014,b,1.0,1.0758144000428729,,,,,,,,,,,,,,,,,,,,,,,,,,,,,,,,,,,,,,,,sub-234,1,stroop_test,120.60442114225108,
test,yellow,g,1.0,4.0,1.0,1.0,g,1.0,1.0519550999742933,,,,,,,,,,,,,,,,,,1.0,1.0,4.0,1.0,,,,,,,,,77.81453049997799,,,,,,,,,,,,,,,,,77.8078242999618,78.60314779996406,79.39967710000928,79.38827519997722,79.3897152999998,79.39967710000928,79.39967710000928,80.45663739996962,g,1.0,1.0519550999742933,,,,,,,,,,,,,,,,,,,,,,,,,,,,,,,,,,,,,,,,sub-234,1,stroop_test,120.60442114225108,
test,red,r,1.0,5.0,2.0,1.0,r,1.0,1.0728323999792335,,,,,,,,,,,,,,,,,,1.0,2.0,5.0,0.0,,,,,,,,,80.46339709998574,,,,,,,,,,,,,,,,,80.45735479996074,80.80250210000668,81.60098300001118,81.58795640000608,81.58982429996831,81.60098300001118,81.60098300001118,82.68079469999066,r,1.0,1.0728323999792335,,,,,,,,,,,,,,,,,,,,,,,,,,,,,,,,,,,,,,,,sub-234,1,stroop_test,120.60442114225108,
test,blue,b,1.0,6.0,0.0,2.0,b,1.0,0.6523211000021547,,,,,,,,,,,,,,,,,,2.0,0.0,6.0,2.0,,,,,,,,,82.68795089999912,,,,,,,,,,,,,,,,,82.68160159996478,83.47672699997202,84.2685961999814,84.260563799995,84.26152000000002,84.2685961999814,84.2685961999814,84.92832110001473,b,1.0,0.6523211000021547,,,,,,,,,,,,,,,,,,,,,,,,,,,,,,,,,,,,,,,,sub-234,1,stroop_test,120.60442114225108,
test,yellow,g,1.0,7.0,1.0,2.0,g,1.0,1.6870078000356443,,,,,,,,,,,,,,,,,,2.0,1.0,7.0,1.0,,,,,,,,,84.93439389998093,,,,,,,,,,,,,,,,,84.92876899999101,85.27626539999619,86.0674734999775,86.05982670001686,86.06072660000063,86.0674734999775,86.0674734999775,87.7615246999776,g,1.0,1.6870078000356443,,,,,,,,,,,,,,,,,,,,,,,,,,,,,,,,,,,,,,,,sub-234,1,stroop_test,120.60442114225108,
test,red,r,1.0,8.0,2.0,2.0,r,1.0,1.5387670999625698,,,,,,,,,,,,,,,,,,2.0,2.0,8.0,0.0,,,,,,,,,87.76943459996255,,,,,,,,,,,,,,,,,87.76226419996237,88.95865799998865,89.75353320001159,89.74343289999524,89.74465140001848,89.75353320001159,89.75353320001159,91.30344629997852,r,1.0,1.5387670999625698,,,,,,,,,,,,,,,,,,,,,,,,,,,,,,,,,,,,,,,,sub-234,1,stroop_test,120.60442114225108,
test,blue,b,1.0,9.0,0.0,3.0,b,1.0,1.3490349000203423,,,,,,,,,,,,,,,,,,3.0,0.0,9.0,2.0,,,,,,,,,91.30934049998176,,,,,,,,,,,,,,,,,91.30420660000529,92.49895529996138,93.29044229997088,93.2833470000187,93.28403889999026,93.29044229997088,93.29044229997088,94.644459299976,b,1.0,1.3490349000203423,,,,,,,,,,,,,,,,,,,,,,,,,,,,,,,,,,,,,,,,sub-234,1,stroop_test,120.60442114225108,
test,yellow,g,1.0,10.0,1.0,3.0,g,1.0,1.017812700010836,,,,,,,,,,,,,,,,,,3.0,1.0,10.0,1.0,,,,,,,,,94.65105659997788,,,,,,,,,,,,,,,,,94.645509199996,94.99146419996396,95.7939628000022,95.78349349997006,95.78489090001676,95.7939628000022,95.7939628000022,96.8183485000045,g,1.0,1.017812700010836,,,,,,,,,,,,,,,,,,,,,,,,,,,,,,,,,,,,,,,,sub-234,1,stroop_test,120.60442114225108,
test,red,r,1.0,11.0,2.0,3.0,r,1.0,0.6607302000047639,,,,,,,,,,,,,,,,,,3.0,2.0,11.0,0.0,,,,,,,,,96.825315199967,,,,,,,,,,,,,,,,,96.81912589998684,96.91483829997014,97.7059022000176,97.69834999996236,97.69904129998758,97.7059022000176,97.7059022000176,98.37512579996836,r,1.0,0.6607302000047639,,,,,,,,,,,,,,,,,,,,,,,,,,,,,,,,,,,,,,,,sub-234,1,stroop_test,120.60442114225108,
,,,,,,,,,,,,,,,,,,,,,,,,,,,,,,,,,,,,,,,,,,,,,,,,,,,,,,,,,,,,,,,,,,,,98.37550429999828,98.38603990001138,98.38603990001138,102.04129719996126,space,3.6502035000012256,,,,,,,,,,,,,,,,,,,,,,,,,,,,,,,,,sub-234,1,stroop_test,120.60442114225108,
,,,,0.0,0.0,0.0,,,,,rot,blue,b,0.0,b,1.0,2.321743800013792,,,,,,,,,,,,,,0.0,0.0,0.0,2.0,,,,,102.13349229999584,,,,,,,,,,,,,,,,,102.12226769997504,102.38810420001391,103.19533329998376,103.17283870000392,,,,,,,,,,,,,,,,103.18632269999944,103.19533329998376,103.19533329998376,105.52203679998638,b,1.0,2.321743800013792,,105.53510280000046,105.5431120999856,106.52872569998726,,,,,,,,,,,,,,,,,,,,,sub-234,1,stroop_test,120.60442114225108,
,,,,1.0,1.0,0.0,,,,,gelb,yellow,g,1.0,g,1.0,1.7859520000056364,,,,,,,,,,,,,,0.0,1.0,1.0,11.0,,,,,106.53681239997968,,,,,,,,,,,,,,,,,106.52922119997676,107.72006839996902,108.53066170000238,108.50523999996948,,,,,,,,,,,,,,,,108.52009329997236,108.53066170000238,108.53066170000238,110.32228720001876,g,1.0,1.7859520000056364,,110.32355600001756,110.3347726999782,111.32050380000146,111.32736709999152,,,,,,,,,,,,,,,,,,,,sub-234,1,stroop_test,120.60442114225108,
,,,,2.0,2.0,0.0,,,,,blau,yellow,g,0.0,b,0.0,1.6089149999897927,,,,,,,,,,,,,,0.0,2.0,2.0,7.0,,,,,111.32736709999152,,,,,,,,,,,,,,,,,111.32136900001206,112.11879199999385,112.92512600001646,112.90335099998627,,,,,,,,,,,,,,,,112.91680929996072,112.92512600001646,112.92512600001646,114.5399510000134,b,0.0,1.6089149999897927,,114.5562602999853,114.56911749998108,115.54329599998891,,,,,,,,,,,,,,,,,,,,,sub-234,1,stroop_test,120.60442114225108,
,,,,3.0,3.0,0.0,,,,,blau,blue,b,1.0,b,1.0,2.327743100002408,,,,,,,,,,,,,,0.0,3.0,3.0,6.0,,,,,115.55136039998617,,,,,,,,,,,,,,,,,115.54409139999188,115.8846104000113,116.67861210001864,116.66892869997535,,,,,,,,,,,,,,,,116.67001409997464,116.67861210001864,116.67861210001864,119.01074299996252,b,1.0,2.327743100002408,,119.01818099996308,119.02735039999244,120.01698660000692,,,,,,,,,,,,,,,,,,,,,sub-234,1,stroop_test,120.60442114225108,
,,,,4.0,4.0,0.0,,,,,rot,red,r,1.0,r,1.0,1.42889149999246,,,,,,,,,,,,,,0.0,4.0,4.0,0.0,,,,,120.02496070001509,,,,,,,,,,,,,,,,,120.01785180001752,121.2080421000137,122.0092690999736,121.99244020000332,,,,,,,,,,,,,,,,122.0005230999668,122.0092690999736,122.0092690999736,123.44381269998848,r,1.0,1.42889149999246,,123.44500830001198,123.4543193000136,124.44197139999596,124.44888360000914,,,,,,,,,,,,,,,,,,,,sub-234,1,stroop_test,120.60442114225108,
,,,,5.0,5.0,0.0,,,,,gelb,red,r,0.0,g,0.0,1.4525791999767534,,,,,,,,,,,,,,0.0,5.0,5.0,8.0,,,,,124.44888360000914,,,,,,,,,,,,,,,,,124.44266359996982,125.6400816999958,126.44274059997406,126.4245290000108,,,,,,,,,,,,,,,,126.43356869998388,126.44274059997406,126.44274059997406,127.90071449999232,g,0.0,1.4525791999767534,,127.9098656999995,127.92094209999776,128.9060949999839,,,,,,,,,,,,,,,,,,,,,sub-234,1,stroop_test,120.60442114225108,
,,,,6.0,6.0,0.0,,,,,blau,red,r,0.0,b,0.0,1.8582496999879368,,,,,,,,,,,,,,0.0,6.0,6.0,4.0,,,,,128.9140456999885,,,,,,,,,,,,,,,,,128.90690229996108,128.99743960000342,129.79791199998,129.78208109998377,,,,,,,,,,,,,,,,129.7896837000153,129.79791199998,129.79791199998,131.66989710001508,b,0.0,1.8582496999879368,,131.67111569998087,131.68169719999423,132.67171969998162,,,,,,,,,,,,,,,,,,,,,sub-234,1,stroop_test,120.60442114225108,
,,,,7.0,7.0,0.0,,,,,rot,red,r,1.0,r,1.0,2.1703243000083603,,,,,,,,,,,,,,0.0,7.0,7.0,1.0,,,,,132.67975489998935,,,,,,,,,,,,,,,,,132.67244659998687,132.7630591999623,133.56864299997687,133.54770769999595,,,,,,,,,,,,,,,,133.55705259996466,133.56864299997687,133.56864299997687,135.74316770001315,r,1.0,2.1703243000083603,,135.75371369998902,135.7646878999658,136.7455916000181,,,,,,,,,,,,,,,,,,,,,sub-234,1,stroop_test,120.60442114225108,
,,,,8.0,8.0,0.0,,,,,gelb,blue,b,0.0,b,1.0,2.352517999999691,,,,,,,,,,,,,,0.0,8.0,8.0,9.0,,,,,136.75370379997185,,,,,,,,,,,,,,,,,136.74626519996673,136.83703789999709,137.6409696000046,137.62188459996833,,,,,,,,,,,,,,,,137.63063329999568,137.6409696000046,137.6409696000046,140.00034089997644,b,1.0,2.352517999999691,,140.00267319998238,140.01499090000289,141.00288619997443,,,,,,,,,,,,,,,,,,,,,sub-234,1,stroop_test,120.60442114225108,
,,,,9.0,9.0,0.0,,,,,gelb,yellow,g,1.0,g,1.0,2.1710342000005767,,,,,,,,,,,,,,0.0,9.0,9.0,10.0,,,,,141.0107673999737,,,,,,,,,,,,,,,,,141.00358069996582,141.79404589999467,142.58988699998008,142.57874450000236,,,,,,,,,,,,,,,,142.5802871999913,142.58988699998008,142.58988699998008,144.774731100013,g,1.0,2.1710342000005767,,144.77665750001324,144.78770320001058,145.77652600000147,,,,,,,,,,,,,,,,,,,,,sub-234,1,stroop_test,120.60442114225108,
,,,,10.0,10.0,0.0,,,,,blau,blue,b,1.0,b,1.0,1.915110400004778,,,,,,,,,,,,,,0.0,10.0,10.0,5.0,,,,,145.78452429996105,,,,,,,,,,,,,,,,,145.77733199996874,146.56776050000917,147.37345499999356,147.35210259997984,,,,,,,,,,,,,,,,147.36255600000732,147.37345499999356,147.37345499999356,149.29572579998057,b,1.0,1.915110400004778,,149.29776380001567,149.3089552000165,150.29298389999894,150.300065599964,,,,,,,,,,,,,,,,,,,,sub-234,1,stroop_test,120.60442114225108,
,,,,11.0,11.0,0.0,,,,,rot,yellow,g,0.0,g,1.0,2.160941999987699,,,,,,,,,,,,,,0.0,11.0,11.0,3.0,,,,,150.300065599964,,,,,,,,,,,,,,,,,150.29386480001267,150.39158649998717,151.19358570000622,151.17633869999554,,,,,,,,,,,,,,,,151.18380469997646,151.19358570000622,151.19358570000622,153.36138720001327,g,1.0,2.160941999987699,,153.36344719998306,153.37596689997008,154.36572299996624,,,,,,,,,,,,,,,,,,,,,sub-234,1,stroop_test,120.60442114225108,
,,,,12.0,0.0,1.0,,,,,blau,red,r,0.0,r,1.0,2.3283755999873392,,,,,,,,,,,,,,1.0,0.0,12.0,4.0,,,,,154.3737671999843,,,,,,,,,,,,,,,,,154.36672489997,155.55679750000127,156.35860279999906,156.34136439999563,,,,,,,,,,,,,,,,156.34872469998663,156.35860279999906,156.35860279999906,158.69342009996762,r,1.0,2.3283755999873392,,158.69461770000635,158.70413600001484,159.69125819997862,159.6982898999704,,,,,,,,,,,,,,,,,,,,sub-234,1,stroop_test,120.60442114225108,
,,,,13.0,1.0,1.0,,,,,gelb,red,r,0.0,r,1.0,2.333596500044223,,,,,,,,,,,,,,1.0,1.0,13.0,8.0,,,,,159.6982898999704,,,,,,,,,,,,,,,,,159.69250419997843,160.03892389999237,160.84451289998833,160.82411250000587,,,,,,,,,,,,,,,,160.8339368000161,160.84451289998833,160.84451289998833,163.1839817999862,r,1.0,2.333596500044223,,163.18531410000287,163.19793299998855,164.18817589996615,,,,,,,,,,,,,,,,,,,,,sub-234,1,stroop_test,120.60442114225108,
,,,,14.0,2.0,1.0,,,,,gelb,yellow,g,1.0,g,1.0,1.797313800023403,,,,,,,,,,,,,,1.0,2.0,14.0,11.0,,,,,164.19616880000103,,,,,,,,,,,,,,,,,164.1889961999841,164.27931849996094,165.07601540000178,165.06459729996277,,,,,,,,,,,,,,,,165.06599219999043,165.07601540000178,165.07601540000178,166.8817820000113,g,1.0,1.797313800023403,,166.8830520999618,166.89176739996765,167.87904739996884,167.88643269997556,,,,,,,,,,,,,,,,,,,,sub-234,1,stroop_test,120.60442114225108,
,,,,15.0,3.0,1.0,,,,,rot,red,r,1.0,r,1.0,2.190013900049962,,,,,,,,,,,,,,1.0,3.0,15.0,1.0,,,,,167.88643269997556,,,,,,,,,,,,,,,,,167.879523599986,168.67841359996237,169.48035249998793,169.46279239997966,,,,,,,,,,,,,,,,169.47044269996695,169.48035249998793,169.48035249998793,171.67933529999573,r,1.0,2.190013900049962,,171.6806765999645,171.68851700000232,172.6786864000023,172.68527409998933,,,,,,,,,,,,,,,,,,,,sub-234,1,stroop_test,120.60442114225108,
,,,,16.0,4.0,1.0,,,,,rot,blue,b,0.0,b,1.0,1.8735090999980455,,,,,,,,,,,,,,1.0,4.0,16.0,2.0,,,,,172.68527409998933,,,,,,,,,,,,,,,,,172.679575200018,172.777125899971,173.57238640001742,173.56165739998687,,,,,,,,,,,,,,,,173.5630243999767,173.57238640001742,173.57238640001742,175.46095829998376,b,1.0,1.8735090999980455,,175.46258940000553,175.4731485999655,176.46080539998366,176.46770849998575,,,,,,,,,,,,,,,,,,,,sub-234,1,stroop_test,120.60442114225108,
,,,,17.0,5.0,1.0,,,,,blau,yellow,g,0.0,g,1.0,1.776455499988515,,,,,,,,,,,,,,1.0,5.0,17.0,7.0,,,,,176.46770849998575,,,,,,,,,,,,,,,,,176.46150729997316,176.559348699986,177.36156930000288,177.34440140001243,,,,,,,,,,,,,,,,177.35311450000154,177.36156930000288,177.36156930000288,179.1457342999638,g,1.0,1.776455499988515,,179.1469994999934,179.15768950001802,180.1432750999811,180.1499174999772,,,,,,,,,,,,,,,,,,,,sub-234,1,stroop_test,120.60442114225108,
,,,,18.0,6.0,1.0,,,,,blau,blue,b,1.0,b,1.0,3.1803911000024527,,,,,,,,,,,,,,1.0,6.0,18.0,5.0,,,,,180.1499174999772,,,,,,,,,,,,,,,,,180.14397919998737,180.24160670000128,181.03875890001652,181.026280399994,,,,,,,,,,,,,,,,181.02743209997425,181.03875890001652,181.03875890001652,184.2269757000031,b,1.0,3.1803911000024527,,184.2290537999943,184.24078250001185,185.22431610000783,185.231604599976,,,,,,,,,,,,,,,,,,,,sub-234,1,stroop_test,120.60442114225108,
,,,,19.0,7.0,1.0,,,,,gelb,blue,b,0.0,b,1.0,2.151321899960749,,,,,,,,,,,,,,1.0,7.0,19.0,9.0,,,,,185.231604599976,,,,,,,,,,,,,,,,,185.2247839999618,185.5734725999646,186.38186909997603,186.35750039998675,,,,,,,,,,,,,,,,186.36547439999413,186.38186909997603,186.38186909997603,188.544498400006,b,1.0,2.151321899960749,,188.546273200016,188.5561095000012,189.5407643999788,189.5473245999892,,,,,,,,,,,,,,,,,,,,sub-234,1,stroop_test,120.60442114225108,
,,,,20.0,8.0,1.0,,,,,blau,blue,b,1.0,b,1.0,1.0102003999636509,,,,,,,,,,,,,,1.0,8.0,20.0,6.0,,,,,189.5473245999892,,,,,,,,,,,,,,,,,189.54144489998,190.73870929999973,191.54282480000984,191.52383809996536,,,,,,,,,,,,,,,,191.5330643999623,191.54282480000984,191.54282480000984,192.5580583999981,b,1.0,1.0102003999636509,,192.5592619999661,192.57213270000648,193.55616629996803,193.56289020000256,,,,,,,,,,,,,,,,,,,,sub-234,1,stroop_test,120.60442114225108,
,,,,21.0,9.0,1.0,,,,,rot,red,r,1.0,r,1.0,1.9785678000189364,,,,,,,,,,,,,,1.0,9.0,21.0,0.0,,,,,193.56289020000256,,,,,,,,,,,,,,,,,193.55688029999143,194.35429819999263,195.1588165999856,195.1388522000052,,,,,,,,,,,,,,,,195.14862890000225,195.1588165999856,195.1588165999856,197.1410778000136,r,1.0,1.9785678000189364,,197.1422564999666,197.15253490000032,198.13739849999547,198.14490790001585,,,,,,,,,,,,,,,,,,,,sub-234,1,stroop_test,120.60442114225108,
,,,,22.0,10.0,1.0,,,,,rot,yellow,g,0.0,g,1.0,1.58118929999182,,,,,,,,,,,,,,1.0,10.0,22.0,3.0,,,,,198.14490790001585,,,,,,,,,,,,,,,,,198.1377910000156,199.33648890000768,200.1330441000173,200.12092000001576,,,,,,,,,,,,,,,,200.1220253999927,200.1330441000173,200.1330441000173,201.72332499996992,g,1.0,1.58118929999182,,201.72471599996788,201.7388860000065,202.72741220000896,,,,,,,,,,,,,,,,,,,,,sub-234,1,stroop_test,120.60442114225108,
,,,,23.0,11.0,1.0,,,,,gelb,yellow,g,1.0,g,1.0,1.6488057000096887,,,,,,,,,,,,,,1.0,11.0,23.0,10.0,,,,,202.7354003000073,,,,,,,,,,,,,,,,,202.72826200001876,202.81881669996076,203.6222880000132,203.6033779999707,,,,,,,,,,,,,,,,203.61195829999636,203.6222880000132,203.6222880000132,205.2799697999726,g,1.0,1.6488057000096887,,205.28123079997025,205.29066589998547,206.27798479999183,206.28733409999404,,,,,,,,,,,,,,,,,,,,sub-234,1,stroop_test,120.60442114225108,
,,,,,,,,,,,,,,,,,,,,,,,,,,,,,,,,,,,,,,,,,,,,,,,,,,,,,,,,,,,,,,,,,,,,,,,,,,,,,,,,,,,,,,,206.2784837000072,206.28733409999404,206.28733409999404,210.07793699996543,space,3.784373299975414,,,,,,,,,,,,,,sub-234,1,stroop_test,120.60442114225108,
,,,,0.0,0.0,0.0,,,,,,,,,,,,,blau,blue,b,1.0,b,1.0,1.3468464999459684,,,,,,,,,,0.0,0.0,0.0,5.0,210.1627634000033,,,,,,,,,,,,,,,,,210.1567673999816,211.27472739998484,212.083452699997,212.0602746999939,,,,,,,,,,,,,,,,,,,,,,,,,,,,,,,,,,,212.07032170001185,212.083452699997,212.083452699997,213.43679040001007,b,1.0,1.3468464999459684,,,,,,sub-234,1,stroop_test,120.60442114225108,
,,,,1.0,1.0,0.0,,,,,,,,,,,,,blau,blue,b,1.0,b,1.0,1.0248529000091366,,,,,,,,,,0.0,1.0,1.0,6.0,213.44807220000075,,,,,,,,,,,,,,,,,213.4377638999722,214.6321920999908,215.42590679996647,215.4168500999804,,,,,,,,,,,,,,,,,,,,,,,,,,,,,,,,,,,215.4180769000086,215.42590679996647,215.42590679996647,216.46030839998275,b,1.0,1.0248529000091366,,,,,,sub-234,1,stroop_test,120.60442114225108,
,,,,2.0,2.0,0.0,,,,,,,,,,,,,blau,yellow,g,0.0,g,1.0,1.4992010000278242,,,,,,,,,,0.0,2.0,2.0,7.0,216.4659926000168,,,,,,,,,,,,,,,,,216.4612436000025,216.55661610001695,217.35344999999504,217.34145110001555,,,,,,,,,,,,,,,,,,,,,,,,,,,,,,,,,,,217.34345769998615,217.35344999999504,217.35344999999504,218.85862710000947,g,1.0,1.4992010000278242,,,,,,sub-234,1,stroop_test,120.60442114225108,
,,,,3.0,3.0,0.0,,,,,,,,,,,,,gelb,yellow,g,1.0,g,1.0,0.9613836000207812,,,,,,,,,,0.0,3.0,3.0,11.0,218.86800109996693,,,,,,,,,,,,,,,,,218.8594960999908,219.6556712000165,220.46387779997892,220.4405581000028,,,,,,,,,,,,,,,,,,,,,,,,,,,,,,,,,,,220.45159680000503,220.46387779997892,220.46387779997892,221.43587200000184,g,1.0,0.9613836000207812,,,,,,sub-234,1,stroop_test,120.60442114225108,
,,,,4.0,4.0,0.0,,,,,,,,,,,,,gelb,yellow,g,1.0,g,1.0,1.0954541999963112,,,,,,,,,,0.0,4.0,4.0,10.0,221.44355379999612,,,,,,,,,,,,,,,,,221.43709570000647,222.62995729997056,223.42442769999616,223.41484659997516,,,,,,,,,,,,,,,,,,,,,,,,,,,,,,,,,,,223.41609000001336,223.42442769999616,223.42442769999616,224.52499000000532,g,1.0,1.0954541999963112,,,,,,sub-234,1,stroop_test,120.60442114225108,
,,,,5.0,5.0,0.0,,,,,,,,,,,,,rot,red,r,1.0,r,1.0,1.1978315000305884,,,,,,,,,,0.0,5.0,5.0,0.0,224.53201460000128,,,,,,,,,,,,,,,,,224.5258918000036,224.87067579996076,225.6708351999987,225.65556139999532,,,,,,,,,,,,,,,,,,,,,,,,,,,,,,,,,,,225.6625297999708,225.6708351999987,225.6708351999987,226.87191330001224,r,1.0,1.1978315000305884,,,,,,sub-234,1,stroop_test,120.60442114225108,
,,,,6.0,6.0,0.0,,,,,,,,,,,,,blau,red,r,0.0,r,1.0,1.0618599000154063,,,,,,,,,,0.0,6.0,6.0,4.0,226.8783615999855,,,,,,,,,,,,,,,,,226.87238750001416,227.6701987999841,228.4741844999953,228.4552910999628,,,,,,,,,,,,,,,,,,,,,,,,,,,,,,,,,,,228.4637795999879,228.4741844999953,228.4741844999953,229.54035269998712,r,1.0,1.0618599000154063,,,,,,sub-234,1,stroop_test,120.60442114225108,
,,,,7.0,7.0,0.0,,,,,,,,,,,,,rot,yellow,g,0.0,g,1.0,1.4864153999951668,,,,,,,,,,0.0,7.0,7.0,3.0,229.5485064999666,,,,,,,,,,,,,,,,,229.5412888000137,229.63634379999712,230.44942809996428,230.42402119998587,,,,,,,,,,,,,,,,,,,,,,,,,,,,,,,,,,,230.4376210999908,230.44942809996428,230.44942809996428,231.9410311999964,g,1.0,1.4864153999951668,,,,,,sub-234,1,stroop_test,120.60442114225108,
,,,,8.0,8.0,0.0,,,,,,,,,,,,,gelb,blue,b,0.0,b,1.0,1.282608200039249,,,,,,,,,,0.0,8.0,8.0,9.0,231.94854929996652,,,,,,,,,,,,,,,,,231.9421798000112,232.28574099997056,233.09284180001123,233.07037009997293,,,,,,,,,,,,,,,,,,,,,,,,,,,,,,,,,,,233.08334329997888,233.09284180001123,233.09284180001123,234.38109599996824,b,1.0,1.282608200039249,,,,,,sub-234,1,stroop_test,120.60442114225108,
,,,,9.0,9.0,0.0,,,,,,,,,,,,,rot,blue,b,0.0,b,1.0,1.1510564999771304,,,,,,,,,,0.0,9.0,9.0,2.0,234.3895017000032,,,,,,,,,,,,,,,,,234.38197099999525,234.476689299976,235.2784349999856,235.26134379999712,,,,,,,,,,,,,,,,,,,,,,,,,,,,,,,,,,,235.2688225000165,235.2784349999856,235.2784349999856,236.436979399994,b,1.0,1.1510564999771304,,,,,,sub-234,1,stroop_test,120.60442114225108,
,,,,10.0,10.0,0.0,,,,,,,,,,,,,rot,red,r,1.0,r,1.0,2.1185747000272386,,,,,,,,,,0.0,10.0,10.0,1.0,236.4459485000116,,,,,,,,,,,,,,,,,236.43796999996997,236.5345459000091,237.32925660000183,237.3190226000152,,,,,,,,,,,,,,,,,,,,,,,,,,,,,,,,,,,237.32061429996972,237.32925660000183,237.32925660000183,239.45272950001527,r,1.0,2.1185747000272386,,,,,,sub-234,1,stroop_test,120.60442114225108,
,,,,11.0,11.0,0.0,,,,,,,,,,,,,gelb,red,r,0.0,r,1.0,0.871275199984666,,,,,,,,,,0.0,11.0,11.0,8.0,239.4615534999757,,,,,,,,,,,,,,,,,239.453724699968,240.64998739998555,241.45244339999044,241.43434619996697,,,,,,,,,,,,,,,,,,,,,,,,,,,,,,,,,,,241.4431745999609,241.45244339999044,241.45244339999044,242.33075279998596,r,1.0,0.871275199984666,,,,,,sub-234,1,stroop_test,120.60442114225108,
,,,,12.0,0.0,1.0,,,,,,,,,,,,,blau,red,r,0.0,r,1.0,0.810520600003656,,,,,,,,,,1.0,0.0,12.0,4.0,242.3395204999833,,,,,,,,,,,,,,,,,242.33276179997483,242.4253778000129,243.2328475000104,243.21714829996927,,,,,,,,,,,,,,,,,,,,,,,,,,,,,,,,,,,243.2244298000005,243.2328475000104,243.2328475000104,244.0516503999825,r,1.0,0.810520600003656,,,,,,sub-234,1,stroop_test,120.60442114225108,
,,,,13.0,1.0,1.0,,,,,,,,,,,,,gelb,blue,b,0.0,b,1.0,1.7818412999622524,,,,,,,,,,1.0,1.0,13.0,9.0,244.05859689996575,,,,,,,,,,,,,,,,,244.0526369999861,244.39887669996824,245.206211599987,245.18357749999268,,,,,,,,,,,,,,,,,,,,,,,,,,,,,,,,,,,245.19506529998037,245.206211599987,245.206211599987,246.9951709000161,b,1.0,1.7818412999622524,,,,,,sub-234,1,stroop_test,120.60442114225108,
,,,,14.0,2.0,1.0,,,,,,,,,,,,,blau,yellow,g,0.0,g,1.0,1.5024222999927588,,,,,,,,,,1.0,2.0,14.0,7.0,247.00198299996555,,,,,,,,,,,,,,,,,246.9960567000089,247.08973469998452,247.8948897999944,247.8747869000072,,,,,,,,,,,,,,,,,,,,,,,,,,,,,,,,,,,247.88412719999903,247.8948897999944,247.8948897999944,249.3998925999622,g,1.0,1.5024222999927588,,,,,,sub-234,1,stroop_test,120.60442114225108,
,,,,15.0,3.0,1.0,,,,,,,,,,,,,gelb,yellow,g,1.0,g,1.0,1.1658357999986038,,,,,,,,,,1.0,3.0,15.0,10.0,249.40558749996129,,,,,,,,,,,,,,,,,249.40051259996835,250.19731999997748,251.00190649996512,250.9820238999673,,,,,,,,,,,,,,,,,,,,,,,,,,,,,,,,,,,250.9915186999715,251.00190649996512,251.00190649996512,252.17458069999705,g,1.0,1.1658357999986038,,,,,,sub-234,1,stroop_test,120.60442114225108,
,,,,16.0,4.0,1.0,,,,,,,,,,,,,rot,red,r,1.0,r,1.0,1.39826579997316,,,,,,,,,,1.0,4.0,16.0,0.0,252.18160269997315,,,,,,,,,,,,,,,,,252.1753796999692,253.37144339998488,254.1730945999734,254.1559920000145,,,,,,,,,,,,,,,,,,,,,,,,,,,,,,,,,,,254.1640868000104,254.1730945999734,254.1730945999734,255.57492769998495,r,1.0,1.39826579997316,,,,,,sub-234,1,stroop_test,120.60442114225108,
,,,,17.0,5.0,1.0,,,,,,,,,,,,,rot,yellow,g,0.0,r,0.0,0.8716190999839455,,,,,,,,,,1.0,5.0,17.0,3.0,255.58430320001207,,,,,,,,,,,,,,,,,255.5757329000044,255.92044979997445,256.71494350000285,256.70553310000105,,,,,,,,,,,,,,,,,,,,,,,,,,,,,,,,,,,256.7069814999704,256.71494350000285,256.71494350000285,257.5906259000185,r,0.0,0.8716190999839455,,,,,,sub-234,1,stroop_test,120.60442114225108,
,,,,18.0,6.0,1.0,,,,,,,,,,,,,gelb,yellow,g,1.0,g,1.0,6.331722599978093,,,,,,,,,,1.0,6.0,18.0,11.0,257.6006056999904,,,,,,,,,,,,,,,,,257.59158429998206,257.68680829997174,258.4903006000095,258.4718381999992,,,,,,,,,,,,,,,,,,,,,,,,,,,,,,,,,,,258.4813071999816,258.4903006000095,258.4903006000095,264.8267179999966,g,1.0,6.331722599978093,,,,,,sub-234,1,stroop_test,120.60442114225108,
,,,,19.0,7.0,1.0,,,,,,,,,,,,,rot,red,r,1.0,r,1.0,1.40449579997221,,,,,,,,,,1.0,7.0,19.0,1.0,264.8380983999814,,,,,,,,,,,,,,,,,264.8277221000171,265.16812980000395,265.96247029997176,265.95183929998893,,,,,,,,,,,,,,,,,,,,,,,,,,,,,,,,,,,265.9561347999843,265.96247029997176,265.96247029997176,267.37208120001014,r,1.0,1.40449579997221,,,,,,sub-234,1,stroop_test,120.60442114225108,
,,,,20.0,8.0,1.0,,,,,,,,,,,,,rot,blue,b,0.0,b,1.0,1.931771400035359,,,,,,,,,,1.0,8.0,20.0,2.0,267.3810080999974,,,,,,,,,,,,,,,,,267.3728874999797,268.5672137999791,269.36012849997496,269.35172540001804,,,,,,,,,,,,,,,,,,,,,,,,,,,,,,,,,,,269.35279989999253,269.36012849997496,269.36012849997496,271.30093249998754,b,1.0,1.931771400035359,,,,,,sub-234,1,stroop_test,120.60442114225108,
,,,,21.0,9.0,1.0,,,,,,,,,,,,,blau,blue,b,1.0,b,1.0,1.1996166000026278,,,,,,,,,,1.0,9.0,21.0,6.0,271.30786170001375,,,,,,,,,,,,,,,,,271.3018422999885,272.099562599964,272.90491789998487,272.8839485999779,,,,,,,,,,,,,,,,,,,,,,,,,,,,,,,,,,,272.8937230000156,272.90491789998487,272.90491789998487,274.10904529999243,b,1.0,1.1996166000026278,,,,,,sub-234,1,stroop_test,120.60442114225108,
,,,,22.0,10.0,1.0,,,,,,,,,,,,,gelb,red,r,0.0,r,1.0,2.4813262000097893,,,,,,,,,,1.0,10.0,22.0,8.0,274.1153071000008,,,,,,,,,,,,,,,,,274.1098497000057,275.30690259998664,276.1150561000104,276.0914335999987,,,,,,,,,,,,,,,,,,,,,,,,,,,,,,,,,,,276.1036695999792,276.1150561000104,276.1150561000104,278.60125649999827,r,1.0,2.4813262000097893,,,,,,sub-234,1,stroop_test,120.60442114225108,
,,,,23.0,11.0,1.0,,,,,,,,,,,,,blau,blue,b,1.0,b,1.0,1.2636624000151642,,,,,,,,,,1.0,11.0,23.0,5.0,278.6074420000077,,,,,,,,,,,,,,,,,278.6020868999767,279.39758250000887,280.19238490000134,280.181293200003,,,,,,,,,,,,,,,,,,,,,,,,,,,,,,,,,,,280.18592369998805,280.19238490000134,280.19238490000134,281.4644905999885,b,1.0,1.2636624000151642,,,,,,sub-234,1,stroop_test,120.60442114225108,
,,,,24.0,0.0,2.0,,,,,,,,,,,,,rot,yellow,g,0.0,g,1.0,1.659243200032506,,,,,,,,,,2.0,0.0,24.0,3.0,281.47155989997555,,,,,,,,,,,,,,,,,281.4649134000065,281.8135334000108,282.61901709996164,282.5983901,,,,,,,,,,,,,,,,,,,,,,,,,,,,,,,,,,,282.60796819999814,282.61901709996164,282.61901709996164,284.2826017999905,g,1.0,1.659243200032506,,,,,,sub-234,1,stroop_test,120.60442114225108,
,,,,25.0,1.0,2.0,,,,,,,,,,,,,blau,blue,b,1.0,b,1.0,1.499146000016481,,,,,,,,,,2.0,1.0,25.0,5.0,284.2912166999886,,,,,,,,,,,,,,,,,284.2834247999708,284.3795054999646,285.1726086999988,285.1630596999894,,,,,,,,,,,,,,,,,,,,,,,,,,,,,,,,,,,285.1672395999776,285.1726086999988,285.1726086999988,286.68351960001746,b,1.0,1.499146000016481,,,,,,sub-234,1,stroop_test,120.60442114225108,
,,,,26.0,2.0,2.0,,,,,,,,,,,,,gelb,blue,b,0.0,b,1.0,1.5043051000102423,,,,,,,,,,2.0,2.0,26.0,9.0,286.68911069998285,,,,,,,,,,,,,,,,,286.6843224999611,287.87832479999634,288.6828652999829,288.6632508999901,,,,,,,,,,,,,,,,,,,,,,,,,,,,,,,,,,,288.6734576000017,288.6828652999829,288.6828652999829,290.20087679999415,b,1.0,1.5043051000102423,,,,,,sub-234,1,stroop_test,120.60442114225108,
,,,,27.0,3.0,2.0,,,,,,,,,,,,,rot,red,r,1.0,r,1.0,1.4467718999949284,,,,,,,,,,2.0,3.0,27.0,1.0,290.20755369996186,,,,,,,,,,,,,,,,,290.2016899000155,290.2945391999674,291.09479850000935,291.0790874999948,,,,,,,,,,,,,,,,,,,,,,,,,,,,,,,,,,,291.0861542999628,291.09479850000935,291.09479850000935,292.546843899996,r,1.0,1.4467718999949284,,,,,,sub-234,1,stroop_test,120.60442114225108,
,,,,28.0,4.0,2.0,,,,,,,,,,,,,rot,red,r,1.0,r,1.0,0.9079886999679728,,,,,,,,,,2.0,4.0,28.0,0.0,292.5548087999923,,,,,,,,,,,,,,,,,292.54768979997607,292.8938013999723,293.68833089998225,293.67857280001044,,,,,,,,,,,,,,,,,,,,,,,,,,,,,,,,,,,293.6798002999858,293.68833089998225,293.68833089998225,294.6091195999761,r,1.0,0.9079886999679728,,,,,,sub-234,1,stroop_test,120.60442114225108,
,,,,29.0,5.0,2.0,,,,,,,,,,,,,blau,yellow,g,0.0,b,0.0,1.755340299976524,,,,,,,,,,2.0,5.0,29.0,7.0,294.6150120999664,,,,,,,,,,,,,,,,,294.6101647000178,294.9517699999851,295.75540029996773,295.7363178000087,,,,,,,,,,,,,,,,,,,,,,,,,,,,,,,,,,,295.74595929996576,295.75540029996773,295.75540029996773,297.52052769996226,b,0.0,1.755340299976524,,,,,,sub-234,1,stroop_test,120.60442114225108,
,,,,30.0,6.0,2.0,,,,,,,,,,,,,gelb,red,r,0.0,r,1.0,1.6687300999765284,,,,,,,,,,2.0,6.0,30.0,8.0,297.5259902999969,,,,,,,,,,,,,,,,,297.5213366000098,297.6176910999929,298.41481320001185,298.401511700009,,,,,,,,,,,,,,,,,,,,,,,,,,,,,,,,,,,298.4083707999671,298.41481320001185,298.41481320001185,300.0875175999827,r,1.0,1.6687300999765284,,,,,,sub-234,1,stroop_test,120.60442114225108,
,,,,31.0,7.0,2.0,,,,,,,,,,,,,blau,red,r,0.0,r,1.0,2.984698199958075,,,,,,,,,,2.0,7.0,31.0,4.0,300.0941828999785,,,,,,,,,,,,,,,,,300.088361800008,300.4333256999962,301.24289160000626,301.2180144999875,,,,,,,,,,,,,,,,,,,,,,,,,,,,,,,,,,,301.23433120001573,301.24289160000626,301.24289160000626,304.2353715999634,r,1.0,2.984698199958075,,,,,,sub-234,1,stroop_test,120.60442114225108,
,,,,32.0,8.0,2.0,,,,,,,,,,,,,gelb,yellow,g,1.0,g,1.0,2.4640032000024803,,,,,,,,,,2.0,8.0,32.0,11.0,304.2441884999862,,,,,,,,,,,,,,,,,304.2361816999619,304.33230169996386,305.14688269997714,305.1176254000165,,,,,,,,,,,,,,,,,,,,,,,,,,,,,,,,,,,305.1342835999676,305.14688269997714,305.14688269997714,307.6181220000144,g,1.0,2.4640032000024803,,,,,,sub-234,1,stroop_test,120.60442114225108,
,,,,33.0,9.0,2.0,,,,,,,,,,,,,blau,blue,b,1.0,b,1.0,1.4809967000037432,,,,,,,,,,2.0,9.0,33.0,6.0,307.6258165999898,,,,,,,,,,,,,,,,,307.6191057999968,307.9646664999891,308.76656199997524,308.7491508999956,,,,,,,,,,,,,,,,,,,,,,,,,,,,,,,,,,,308.75797019997844,308.76656199997524,308.76656199997524,310.25214910000795,b,1.0,1.4809967000037432,,,,,,sub-234,1,stroop_test,120.60442114225108,
,,,,34.0,10.0,2.0,,,,,,,,,,,,,rot,blue,b,0.0,b,1.0,1.5328155999886803,,,,,,,,,,2.0,10.0,34.0,2.0,310.26238430000376,,,,,,,,,,,,,,,,,310.25328339997213,310.34726519999094,311.1504273000173,311.13201469997875,,,,,,,,,,,,,,,,,,,,,,,,,,,,,,,,,,,311.14120099996217,311.1504273000173,311.1504273000173,312.6918269000016,b,1.0,1.5328155999886803,,,,,,sub-234,1,stroop_test,120.60442114225108,
,,,,35.0,11.0,2.0,,,,,,,,,,,,,gelb,yellow,g,1.0,g,1.0,2.0527218999923207,,,,,,,,,,2.0,11.0,35.0,10.0,312.69819149997784,,,,,,,,,,,,,,,,,312.69263219996355,313.48816780000925,314.29799569997704,314.27301429997897,,,,,,,,,,,,,,,,,,,,,,,,,,,,,,,,,,,314.2847707999754,314.29799569997704,314.29799569997704,316.3569341999828,g,1.0,2.0527218999923207,,,,,,sub-234,1,stroop_test,120.60442114225108,
,,,,36.0,0.0,3.0,,,,,,,,,,,,,rot,red,r,1.0,r,1.0,1.3503338000155054,,,,,,,,,,3.0,0.0,36.0,0.0,316.3659691999783,,,,,,,,,,,,,,,,,316.3578955999692,317.5536429999629,318.3511775999796,318.33827989996644,,,,,,,,,,,,,,,,,,,,,,,,,,,,,,,,,,,318.3443442999851,318.3511775999796,318.3511775999796,319.70690200000536,r,1.0,1.3503338000155054,,,,,,sub-234,1,stroop_test,120.60442114225108,
,,,,37.0,1.0,3.0,,,,,,,,,,,,,gelb,yellow,g,1.0,g,1.0,2.2996554999845102,,,,,,,,,,3.0,1.0,37.0,11.0,319.7155285999761,,,,,,,,,,,,,,,,,319.7082342999638,320.50273120001657,321.3148144999868,321.287217199977,,,,,,,,,,,,,,,,,,,,,,,,,,,,,,,,,,,321.30421129998285,321.3148144999868,321.3148144999868,323.6216284999973,g,1.0,2.2996554999845102,,,,,,sub-234,1,stroop_test,120.60442114225108,
,,,,38.0,2.0,3.0,,,,,,,,,,,,,rot,blue,b,0.0,b,1.0,1.2286840000306256,,,,,,,,,,3.0,2.0,38.0,2.0,323.6320613999851,,,,,,,,,,,,,,,,,323.62245399999665,323.7185779999709,324.5223179999739,324.5033709999989,,,,,,,,,,,,,,,,,,,,,,,,,,,,,,,,,,,324.51196360000176,324.5223179999739,324.5223179999739,325.75508979998995,b,1.0,1.2286840000306256,,,,,,sub-234,1,stroop_test,120.60442114225108,
,,,,39.0,3.0,3.0,,,,,,,,,,,,,blau,red,r,0.0,r,1.0,3.116396799974609,,,,,,,,,,3.0,3.0,39.0,4.0,325.76206139998976,,,,,,,,,,,,,,,,,325.75611279997975,325.8513371999725,326.65247430000454,326.6358742999728,,,,,,,,,,,,,,,,,,,,,,,,,,,,,,,,,,,326.6434145999956,326.65247430000454,326.65247430000454,329.7757691000006,r,1.0,3.116396799974609,,,,,,sub-234,1,stroop_test,120.60442114225108,
,,,,40.0,4.0,3.0,,,,,,,,,,,,,gelb,red,r,0.0,r,1.0,1.060689200006891,,,,,,,,,,3.0,4.0,40.0,8.0,329.7823551999754,,,,,,,,,,,,,,,,,329.7766188000096,329.8668803999899,330.6684952999931,330.6513390999753,,,,,,,,,,,,,,,,,,,,,,,,,,,,,,,,,,,330.6599659000058,330.6684952999931,330.6684952999931,331.7358130000066,r,1.0,1.060689200006891,,,,,,sub-234,1,stroop_test,120.60442114225108,
,,,,41.0,5.0,3.0,,,,,,,,,,,,,rot,yellow,g,0.0,g,1.0,1.7487856000079771,,,,,,,,,,3.0,5.0,41.0,3.0,331.74412909999955,,,,,,,,,,,,,,,,,331.73732929996913,332.08291100000497,332.897535600001,332.8677967999829,,,,,,,,,,,,,,,,,,,,,,,,,,,,,,,,,,,332.88396319997264,332.897535600001,332.897535600001,334.6519436999806,g,1.0,1.7487856000079771,,,,,,sub-234,1,stroop_test,120.60442114225108,
,,,,42.0,6.0,3.0,,,,,,,,,,,,,blau,blue,b,1.0,b,1.0,1.324750599975232,,,,,,,,,,3.0,6.0,42.0,5.0,334.6584330999758,,,,,,,,,,,,,,,,,334.6528534999816,335.44869679998374,336.24988969997503,336.23312940000324,,,,,,,,,,,,,,,,,,,,,,,,,,,,,,,,,,,336.24136250000447,336.24988969997503,336.24988969997503,337.59057920001214,b,1.0,1.324750599975232,,,,,,sub-234,1,stroop_test,120.60442114225108,
,,,,43.0,7.0,3.0,,,,,,,,,,,,,rot,red,r,1.0,r,1.0,1.7860951999900865,,,,,,,,,,3.0,7.0,43.0,1.0,337.59730789996684,,,,,,,,,,,,,,,,,337.59140659996774,338.7893653999781,339.58219639997697,339.5730788999936,,,,,,,,,,,,,,,,,,,,,,,,,,,,,,,,,,,339.5768515999662,339.58219639997697,339.58219639997697,341.37545549997594,r,1.0,1.7860951999900865,,,,,,sub-234,1,stroop_test,120.60442114225108,
,,,,44.0,8.0,3.0,,,,,,,,,,,,,gelb,blue,b,0.0,b,1.0,1.2420131000108086,,,,,,,,,,3.0,8.0,44.0,9.0,341.38413759996183,,,,,,,,,,,,,,,,,341.37634959997376,341.47202809999,342.2657859000028,342.2555247999844,,,,,,,,,,,,,,,,,,,,,,,,,,,,,,,,,,,342.25966949999565,342.2657859000028,342.2657859000028,343.51454369997373,b,1.0,1.2420131000108086,,,,,,sub-234,1,stroop_test,120.60442114225108,
,,,,45.0,9.0,3.0,,,,,,,,,,,,,gelb,yellow,g,1.0,g,1.0,1.0955916999955662,,,,,,,,,,3.0,9.0,45.0,10.0,343.5211573999841,,,,,,,,,,,,,,,,,343.51503989996854,343.61288319999585,344.408253600006,344.3975875999895,,,,,,,,,,,,,,,,,,,,,,,,,,,,,,,,,,,344.39939159998903,344.408253600006,344.408253600006,345.5078336999868,g,1.0,1.0955916999955662,,,,,,sub-234,1,stroop_test,120.60442114225108,
,,,,46.0,10.0,3.0,,,,,,,,,,,,,blau,yellow,g,0.0,g,1.0,0.9371703000506386,,,,,,,,,,3.0,10.0,46.0,7.0,345.5144349000184,,,,,,,,,,,,,,,,,345.50874590000603,346.3040262999712,347.1045503999921,347.0886429999955,,,,,,,,,,,,,,,,,,,,,,,,,,,,,,,,,,,347.09594849997666,347.1045503999921,347.1045503999921,348.0480162000167,g,1.0,0.9371703000506386,,,,,,sub-234,1,stroop_test,120.60442114225108,
,,,,47.0,11.0,3.0,,,,,,,,,,,,,blau,blue,b,1.0,b,1.0,1.44057310000062,,,,,,,,,,3.0,11.0,47.0,6.0,348.0570604999666,,,,,,,,,,,,,,,,,348.0488986999844,349.24462149996543,350.0387200000114,350.0292999999947,,,,,,,,,,,,,,,,,,,,,,,,,,,,,,,,,,,350.0305876999628,350.0387200000114,350.0387200000114,351.4874817999662,b,1.0,1.44057310000062,,,,,,sub-234,1,stroop_test,120.60442114225108,
,,,,48.0,0.0,4.0,,,,,,,,,,,,,gelb,red,r,0.0,r,1.0,1.813947399961762,,,,,,,,,,4.0,0.0,48.0,8.0,351.493914199993,,,,,,,,,,,,,,,,,351.48796860000584,351.83575029997155,352.63422939996235,352.62039250001544,,,,,,,,,,,,,,,,,,,,,,,,,,,,,,,,,,,352.6271698999917,352.63422939996235,352.63422939996235,354.45457369997166,r,1.0,1.813947399961762,,,,,,sub-234,1,stroop_test,120.60442114225108,
,,,,49.0,1.0,4.0,,,,,,,,,,,,,rot,blue,b,0.0,b,1.0,1.6944627999910151,,,,,,,,,,4.0,1.0,49.0,2.0,354.4636474999716,,,,,,,,,,,,,,,,,354.45563240000047,354.8016945999698,355.6015740999719,355.5861690000165,,,,,,,,,,,,,,,,,,,,,,,,,,,,,,,,,,,355.5932912999997,355.6015740999719,355.6015740999719,357.3041808999842,b,1.0,1.6944627999910151,,,,,,sub-234,1,stroop_test,120.60442114225108,
,,,,50.0,2.0,4.0,,,,,,,,,,,,,blau,yellow,g,0.0,g,1.0,2.2086714999750257,,,,,,,,,,4.0,2.0,50.0,7.0,357.310782000015,,,,,,,,,,,,,,,,,357.3050106000155,357.4008856000146,358.2050499999896,358.18572399998084,,,,,,,,,,,,,,,,,,,,,,,,,,,,,,,,,,,358.1952488999814,358.2050499999896,358.2050499999896,360.4196112999925,g,1.0,2.2086714999750257,,,,,,sub-234,1,stroop_test,120.60442114225108,
,,,,51.0,3.0,4.0,,,,,,,,,,,,,blau,red,r,0.0,r,1.0,1.8503128999727776,,,,,,,,,,4.0,3.0,51.0,4.0,360.42826620000415,,,,,,,,,,,,,,,,,360.42046609998215,360.7668806000147,361.5629241999704,361.5519189999905,,,,,,,,,,,,,,,,,,,,,,,,,,,,,,,,,,,361.5534856999875,361.5629241999704,361.5629241999704,363.4185221999651,r,1.0,1.8503128999727776,,,,,,sub-234,1,stroop_test,120.60442114225108,
,,,,52.0,4.0,4.0,,,,,,,,,,,,,rot,red,r,1.0,r,1.0,0.7619776999927126,,,,,,,,,,4.0,4.0,52.0,0.0,363.425411299977,,,,,,,,,,,,,,,,,363.419336299994,364.6156068000128,365.4193340999773,365.40033929998754,,,,,,,,,,,,,,,,,,,,,,,,,,,,,,,,,,,365.409172500018,365.4193340999773,365.4193340999773,366.1895769999828,r,1.0,0.7619776999927126,,,,,,sub-234,1,stroop_test,120.60442114225108,
,,,,53.0,5.0,4.0,,,,,,,,,,,,,rot,yellow,g,0.0,g,1.0,1.5880458999890834,,,,,,,,,,4.0,5.0,53.0,3.0,366.1961885999772,,,,,,,,,,,,,,,,,366.19059089996153,366.2817464999971,367.0755660000141,367.0664948999765,,,,,,,,,,,,,,,,,,,,,,,,,,,,,,,,,,,367.06772589997854,367.0755660000141,367.0755660000141,368.6681551999645,g,1.0,1.5880458999890834,,,,,,sub-234,1,stroop_test,120.60442114225108,
,,,,54.0,6.0,4.0,,,,,,,,,,,,,blau,blue,b,1.0,b,1.0,1.0716470000334084,,,,,,,,,,4.0,6.0,54.0,6.0,368.67590949998703,,,,,,,,,,,,,,,,,368.6689595999778,368.7643578000134,369.5647154999897,369.5490817999817,,,,,,,,,,,,,,,,,,,,,,,,,,,,,,,,,,,369.5562463999959,369.5647154999897,369.5647154999897,370.6414076999645,b,1.0,1.0716470000334084,,,,,,sub-234,1,stroop_test,120.60442114225108,
,,,,55.0,7.0,4.0,,,,,,,,,,,,,gelb,yellow,g,1.0,g,1.0,1.3844281999627128,,,,,,,,,,4.0,7.0,55.0,10.0,370.64856130001135,,,,,,,,,,,,,,,,,370.6422357999836,371.4388793999679,372.2449811999686,372.2237068999675,,,,,,,,,,,,,,,,,,,,,,,,,,,,,,,,,,,372.2339726999635,372.2449811999686,372.2449811999686,373.634082900011,g,1.0,1.3844281999627128,,,,,,sub-234,1,stroop_test,120.60442114225108,
,,,,56.0,8.0,4.0,,,,,,,,,,,,,blau,blue,b,1.0,b,1.0,1.7972799999988638,,,,,,,,,,4.0,8.0,56.0,5.0,373.64241400000174,,,,,,,,,,,,,,,,,373.6350403999677,374.8294333000085,375.6337664999882,375.6139870999614,,,,,,,,,,,,,,,,,,,,,,,,,,,,,,,,,,,375.6239865999669,375.6337664999882,375.6337664999882,377.4469144999748,b,1.0,1.7972799999988638,,,,,,sub-234,1,stroop_test,120.60442114225108,
,,,,57.0,9.0,4.0,,,,,,,,,,,,,rot,red,r,1.0,r,1.0,1.4564231000258587,,,,,,,,,,4.0,9.0,57.0,1.0,377.4527366000111,,,,,,,,,,,,,,,,,377.44773740001256,378.2451570999692,379.0475675999769,379.029638100008,,,,,,,,,,,,,,,,,,,,,,,,,,,,,,,,,,,379.0381564999698,379.0475675999769,379.0475675999769,380.50801310001407,r,1.0,1.4564231000258587,,,,,,sub-234,1,stroop_test,120.60442114225108,
,,,,58.0,10.0,4.0,,,,,,,,,,,,,gelb,blue,b,0.0,b,1.0,1.3624062000308186,,,,,,,,,,4.0,10.0,58.0,9.0,380.5146920999978,,,,,,,,,,,,,,,,,380.509032699978,380.852783099981,381.6606250000186,381.637473699986,,,,,,,,,,,,,,,,,,,,,,,,,,,,,,,,,,,381.64923629997065,381.6606250000186,381.6606250000186,383.0388072999776,b,1.0,1.3624062000308186,,,,,,sub-234,1,stroop_test,120.60442114225108,
,,,,59.0,11.0,4.0,,,,,,,,,,,,,gelb,yellow,g,1.0,g,1.0,1.3588425999623723,,,,,,,,,,4.0,11.0,59.0,11.0,383.047703899967,,,,,,,,,,,,,,,,,383.04047479998553,383.38542890001554,384.1820856999839,384.17014289996587,,,,,,,,,,,,,,,,,,,,,,,,,,,,,,,,,,,384.1716200999799,384.1820856999839,384.1820856999839,385.5449769999832,g,1.0,1.3588425999623723,,,,,,sub-234,1,stroop_test,120.60442114225108,
,,,,60.0,0.0,5.0,,,,,,,,,,,,,gelb,red,r,0.0,r,1.0,1.811155100003816,,,,,,,,,,5.0,0.0,60.0,8.0,385.5520853999769,,,,,,,,,,,,,,,,,385.5459037999972,386.7426769000013,387.5382797999773,387.5275853999774,,,,,,,,,,,,,,,,,,,,,,,,,,,,,,,,,,,387.52933759999,387.5382797999773,387.5382797999773,389.3522876999923,r,1.0,1.811155100003816,,,,,,sub-234,1,stroop_test,120.60442114225108,
,,,,61.0,1.0,5.0,,,,,,,,,,,,,blau,blue,b,1.0,b,1.0,0.8705333000398241,,,,,,,,,,5.0,1.0,61.0,5.0,389.3583956999937,,,,,,,,,,,,,,,,,389.3527876000153,389.7000779999653,390.50733499997295,390.4850961999618,,,,,,,,,,,,,,,,,,,,,,,,,,,,,,,,,,,390.4970594999613,390.50733499997295,390.50733499997295,391.3910479000188,b,1.0,0.8705333000398241,,,,,,sub-234,1,stroop_test,120.60442114225108,
,,,,62.0,2.0,5.0,,,,,,,,,,,,,rot,yellow,g,0.0,g,1.0,1.5204076999798417,,,,,,,,,,5.0,2.0,62.0,3.0,391.3977454999695,,,,,,,,,,,,,,,,,391.3919154999894,392.58295489999,393.3840135000064,393.3675218999852,,,,,,,,,,,,,,,,,,,,,,,,,,,,,,,,,,,393.3750482000178,393.3840135000064,393.3840135000064,394.9106303000008,g,1.0,1.5204076999798417,,,,,,sub-234,1,stroop_test,120.60442114225108,
,,,,63.0,3.0,5.0,,,,,,,,,,,,,rot,red,r,1.0,r,1.0,1.4948109000106342,,,,,,,,,,5.0,3.0,63.0,0.0,394.9170183999813,,,,,,,,,,,,,,,,,394.91147019999335,395.0071492000134,395.8022505000117,395.7919971999945,,,,,,,,,,,,,,,,,,,,,,,,,,,,,,,,,,,395.79323479998857,395.8022505000117,395.8022505000117,397.301937900018,r,1.0,1.4948109000106342,,,,,,sub-234,1,stroop_test,120.60442114225108,
,,,,64.0,4.0,5.0,,,,,,,,,,,,,gelb,yellow,g,1.0,g,1.0,0.9334602000308224,,,,,,,,,,5.0,4.0,64.0,11.0,397.3096652000095,,,,,,,,,,,,,,,,,397.3028473000159,397.3981170000043,398.211672800011,398.182938700018,,,,,,,,,,,,,,,,,,,,,,,,,,,,,,,,,,,398.19277269998565,398.211672800011,398.211672800011,399.15107849997,g,1.0,0.9334602000308224,,,,,,sub-234,1,stroop_test,120.60442114225108,
,,,,65.0,5.0,5.0,,,,,,,,,,,,,rot,red,r,1.0,r,1.0,0.7595481000025757,,,,,,,,,,5.0,5.0,65.0,1.0,399.15780459996313,,,,,,,,,,,,,,,,,399.1518983999849,399.4974826999824,400.301742599986,400.28228009998566,,,,,,,,,,,,,,,,,,,,,,,,,,,,,,,,,,,400.2931282999925,400.301742599986,400.301742599986,401.0689619000186,r,1.0,0.7595481000025757,,,,,,sub-234,1,stroop_test,120.60442114225108,
,,,,66.0,6.0,5.0,,,,,,,,,,,,,gelb,blue,b,0.0,b,1.0,1.819035500055179,,,,,,,,,,5.0,6.0,66.0,9.0,401.07932819996495,,,,,,,,,,,,,,,,,401.0708142999793,401.8635997999809,402.6592093000072,402.6475323999766,,,,,,,,,,,,,,,,,,,,,,,,,,,,,,,,,,,402.6523957999889,402.6592093000072,402.6592093000072,404.4831505999901,b,1.0,1.819035500055179,,,,,,sub-234,1,stroop_test,120.60442114225108,
,,,,67.0,7.0,5.0,,,,,,,,,,,,,rot,blue,b,0.0,b,1.0,1.787679200002458,,,,,,,,,,5.0,7.0,67.0,2.0,404.4922380999778,,,,,,,,,,,,,,,,,404.48404810001375,404.8295012000017,405.637461300008,405.6141429999843,,,,,,,,,,,,,,,,,,,,,,,,,,,,,,,,,,,405.62766990001546,405.637461300008,405.637461300008,407.4317479999736,b,1.0,1.787679200002458,,,,,,sub-234,1,stroop_test,120.60442114225108,
,,,,68.0,8.0,5.0,,,,,,,,,,,,,blau,red,r,0.0,r,1.0,1.9855652999831364,,,,,,,,,,5.0,8.0,68.0,4.0,407.43919010000536,,,,,,,,,,,,,,,,,407.4330478999764,407.5291139999754,408.3307504999684,408.3132588000153,,,,,,,,,,,,,,,,,,,,,,,,,,,,,,,,,,,408.3213550999644,408.3307504999684,408.3307504999684,410.32077340001706,r,1.0,1.9855652999831364,,,,,,sub-234,1,stroop_test,120.60442114225108,
,,,,69.0,9.0,5.0,,,,,,,,,,,,,blau,blue,b,1.0,b,1.0,1.1677481000078842,,,,,,,,,,5.0,9.0,69.0,6.0,410.3275917000137,,,,,,,,,,,,,,,,,410.3211961999768,411.119430599967,411.9136050000088,411.904323499999,,,,,,,,,,,,,,,,,,,,,,,,,,,,,,,,,,,411.9055944000138,411.9136050000088,411.9136050000088,413.08858649997273,b,1.0,1.1677481000078842,,,,,,sub-234,1,stroop_test,120.60442114225108,
,,,,70.0,10.0,5.0,,,,,,,,,,,,,blau,yellow,g,0.0,g,1.0,1.1812208999763243,,,,,,,,,,5.0,10.0,70.0,7.0,413.0956172000151,,,,,,,,,,,,,,,,,413.0893658999703,413.435384100012,414.2267392000067,414.2191792000085,,,,,,,,,,,,,,,,,,,,,,,,,,,,,,,,,,,414.21986060001655,414.2267392000067,414.2267392000067,415.4116133999778,g,1.0,1.1812208999763243,,,,,,sub-234,1,stroop_test,120.60442114225108,
,,,,71.0,11.0,5.0,,,,,,,,,,,,,gelb,yellow,g,1.0,g,1.0,1.0222145000007004,,,,,,,,,,5.0,11.0,71.0,10.0,415.4178349999711,,,,,,,,,,,,,,,,,415.4120452000061,415.5098442999879,416.3156047000084,416.2944044999895,,,,,,,,,,,,,,,,,,,,,,,,,,,,,,,,,,,416.3059765999788,416.3156047000084,416.3156047000084,417.3454015000025,g,1.0,1.0222145000007004,,,,,,sub-234,1,stroop_test,120.60442114225108,
,,,,72.0,0.0,6.0,,,,,,,,,,,,,rot,blue,b,0.0,b,1.0,1.170983400021214,,,,,,,,,,6.0,0.0,72.0,2.0,417.3547083999729,,,,,,,,,,,,,,,,,417.3461786999833,418.14244969998254,418.94800099998247,418.9269895000034,,,,,,,,,,,,,,,,,,,,,,,,,,,,,,,,,,,418.9354505999945,418.94800099998247,418.94800099998247,420.12805359996855,b,1.0,1.170983400021214,,,,,,sub-234,1,stroop_test,120.60442114225108,
,,,,73.0,1.0,6.0,,,,,,,,,,,,,rot,red,r,1.0,r,1.0,1.1644048999878578,,,,,,,,,,6.0,1.0,73.0,1.0,420.1489112999989,,,,,,,,,,,,,,,,,420.1295893999632,420.9249477999984,421.7162772999727,421.7088607000187,,,,,,,,,,,,,,,,,,,,,,,,,,,,,,,,,,,421.7097023999668,421.7162772999727,421.7162772999727,422.88596859999234,r,1.0,1.1644048999878578,,,,,,sub-234,1,stroop_test,120.60442114225108,
,,,,74.0,2.0,6.0,,,,,,,,,,,,,blau,blue,b,1.0,b,1.0,0.6743387000169605,,,,,,,,,,6.0,2.0,74.0,5.0,422.8924945999752,,,,,,,,,,,,,,,,,422.88671729998896,424.0826107999892,424.8859485000139,424.8672809000127,,,,,,,,,,,,,,,,,,,,,,,,,,,,,,,,,,,424.87624020001385,424.8859485000139,424.8859485000139,425.5666139000096,b,1.0,0.6743387000169605,,,,,,sub-234,1,stroop_test,120.60442114225108,
,,,,75.0,3.0,6.0,,,,,,,,,,,,,gelb,yellow,g,1.0,g,1.0,1.2262326000491155,,,,,,,,,,6.0,3.0,75.0,10.0,425.57332289998885,,,,,,,,,,,,,,,,,425.56712769996375,426.36521789996186,427.1709666000097,427.1497651999816,,,,,,,,,,,,,,,,,,,,,,,,,,,,,,,,,,,427.1595166000188,427.1709666000097,427.1709666000097,428.4020412999671,g,1.0,1.2262326000491155,,,,,,sub-234,1,stroop_test,120.60442114225108,
,,,,76.0,4.0,6.0,,,,,,,,,,,,,gelb,blue,b,0.0,b,1.0,0.8777067000046372,,,,,,,,,,6.0,4.0,76.0,9.0,428.40954319998855,,,,,,,,,,,,,,,,,428.4028731000144,429.5976457999786,430.3925980000058,430.3822339000181,,,,,,,,,,,,,,,,,,,,,,,,,,,,,,,,,,,430.3834473000024,430.3925980000058,430.3925980000058,431.2758218999952,b,1.0,0.8777067000046372,,,,,,sub-234,1,stroop_test,120.60442114225108,
,,,,77.0,5.0,6.0,,,,,,,,,,,,,blau,red,r,0.0,r,1.0,1.6004192999680529,,,,,,,,,,6.0,5.0,77.0,4.0,431.2828240999952,,,,,,,,,,,,,,,,,431.2766499000136,432.0719106000033,432.875635400007,432.8565981999855,,,,,,,,,,,,,,,,,,,,,,,,,,,,,,,,,,,432.8666003000108,432.875635400007,432.875635400007,434.4814478000044,r,1.0,1.6004192999680529,,,,,,sub-234,1,stroop_test,120.60442114225108,
,,,,78.0,6.0,6.0,,,,,,,,,,,,,rot,yellow,g,0.0,g,1.0,1.6341067000175826,,,,,,,,,,6.0,6.0,78.0,3.0,434.48767050000606,,,,,,,,,,,,,,,,,434.4819421999855,434.5797168000136,435.3823679999914,435.3641416999744,,,,,,,,,,,,,,,,,,,,,,,,,,,,,,,,,,,435.37267349998,435.3823679999914,435.3823679999914,437.022104499978,g,1.0,1.6341067000175826,,,,,,sub-234,1,stroop_test,120.60442114225108,
,,,,79.0,7.0,6.0,,,,,,,,,,,,,gelb,red,r,0.0,r,1.0,1.8938714999821968,,,,,,,,,,6.0,7.0,79.0,8.0,437.02865930000553,,,,,,,,,,,,,,,,,437.02281459997175,438.2203355999664,439.0262573999935,439.00502039998537,,,,,,,,,,,,,,,,,,,,,,,,,,,,,,,,,,,439.014592099993,439.0262573999935,439.0262573999935,440.9305772999651,r,1.0,1.8938714999821968,,,,,,sub-234,1,stroop_test,120.60442114225108,
,,,,80.0,8.0,6.0,,,,,,,,,,,,,blau,yellow,g,0.0,g,1.0,1.104173100029584,,,,,,,,,,6.0,8.0,80.0,7.0,440.9360932999989,,,,,,,,,,,,,,,,,440.9314010000089,441.7275738000171,442.5308346999809,442.51218899997184,,,,,,,,,,,,,,,,,,,,,,,,,,,,,,,,,,,442.5204051999608,442.5308346999809,442.5308346999809,443.6387874999782,g,1.0,1.104173100029584,,,,,,sub-234,1,stroop_test,120.60442114225108,
,,,,81.0,9.0,6.0,,,,,,,,,,,,,rot,red,r,1.0,r,1.0,1.5944439999875613,,,,,,,,,,6.0,9.0,81.0,0.0,443.6487063000095,,,,,,,,,,,,,,,,,443.63959199999226,443.9855498999823,444.78064469998935,444.7693792000064,,,,,,,,,,,,,,,,,,,,,,,,,,,,,,,,,,,444.77419979998376,444.78064469998935,444.78064469998935,446.380769499985,r,1.0,1.5944439999875613,,,,,,sub-234,1,stroop_test,120.60442114225108,
,,,,82.0,10.0,6.0,,,,,,,,,,,,,blau,blue,b,1.0,b,1.0,0.891229500004556,,,,,,,,,,6.0,10.0,82.0,6.0,446.3874884999823,,,,,,,,,,,,,,,,,446.3815984000103,447.5757431999664,448.37871909997193,448.3607174999779,,,,,,,,,,,,,,,,,,,,,,,,,,,,,,,,,,,448.370834100002,448.37871909997193,448.37871909997193,449.2784715999733,b,1.0,0.891229500004556,,,,,,sub-234,1,stroop_test,120.60442114225108,
,,,,83.0,11.0,6.0,,,,,,,,,,,,,gelb,yellow,g,1.0,g,1.0,1.512237599992659,,,,,,,,,,6.0,11.0,83.0,11.0,449.28400139999576,,,,,,,,,,,,,,,,,449.2792833999847,450.0752818000037,450.8817072999664,450.85998830001336,,,,,,,,,,,,,,,,,,,,,,,,,,,,,,,,,,,450.8698947000085,450.8817072999664,450.8817072999664,452.3982283999794,g,1.0,1.512237599992659,,,,,,sub-234,1,stroop_test,120.60442114225108,
,,,,84.0,0.0,7.0,,,,,,,,,,,,,blau,yellow,g,0.0,g,1.0,1.939649000007193,,,,,,,,,,7.0,0.0,84.0,7.0,452.40495930000907,,,,,,,,,,,,,,,,,452.3991626999923,452.4913748999825,453.2966376999975,453.2764547999832,,,,,,,,,,,,,,,,,,,,,,,,,,,,,,,,,,,453.2854884999688,453.2966376999975,453.2966376999975,455.2444898000104,g,1.0,1.939649000007193,,,,,,sub-234,1,stroop_test,120.60442114225108,
,,,,85.0,1.0,7.0,,,,,,,,,,,,,blau,blue,b,1.0,b,1.0,1.4745683000073768,,,,,,,,,,7.0,1.0,85.0,5.0,455.2518365000142,,,,,,,,,,,,,,,,,455.245451099996,456.0402774999966,456.83483489998616,456.8250063000014,,,,,,,,,,,,,,,,,,,,,,,,,,,,,,,,,,,456.8260651999735,456.83483489998616,456.83483489998616,458.3189786999719,b,1.0,1.4745683000073768,,,,,,sub-234,1,stroop_test,120.60442114225108,
,,,,86.0,2.0,7.0,,,,,,,,,,,,,rot,yellow,g,0.0,g,1.0,1.3132184999994934,,,,,,,,,,7.0,2.0,86.0,3.0,458.3259060999844,,,,,,,,,,,,,,,,,458.3197823999799,459.514248099993,460.31871159997536,460.29967949999264,,,,,,,,,,,,,,,,,,,,,,,,,,,,,,,,,,,460.3075426999712,460.31871159997536,460.31871159997536,461.6401394999703,g,1.0,1.3132184999994934,,,,,,sub-234,1,stroop_test,120.60442114225108,
,,,,87.0,3.0,7.0,,,,,,,,,,,,,rot,red,r,1.0,r,1.0,1.52549159998307,,,,,,,,,,7.0,3.0,87.0,1.0,461.6467534999829,,,,,,,,,,,,,,,,,461.6406633000006,462.4386198999709,463.23189190000994,463.22295129997656,,,,,,,,,,,,,,,,,,,,,,,,,,,,,,,,,,,463.22405509999953,463.23189190000994,463.23189190000994,464.7724453000119,r,1.0,1.52549159998307,,,,,,sub-234,1,stroop_test,120.60442114225108,
,,,,88.0,4.0,7.0,,,,,,,,,,,,,rot,red,r,1.0,r,1.0,0.9385972999734804,,,,,,,,,,7.0,4.0,88.0,0.0,464.7796592999948,,,,,,,,,,,,,,,,,464.7735171999666,465.1211248000036,465.915055999998,465.9056987999938,,,,,,,,,,,,,,,,,,,,,,,,,,,,,,,,,,,465.9068533999962,465.915055999998,465.915055999998,466.85605379997287,r,1.0,0.9385972999734804,,,,,,sub-234,1,stroop_test,120.60442114225108,
,,,,89.0,5.0,7.0,,,,,,,,,,,,,gelb,yellow,g,1.0,g,1.0,1.4160482000443153,,,,,,,,,,7.0,5.0,89.0,10.0,466.8620293000131,,,,,,,,,,,,,,,,,466.8565409000148,467.6536939999787,468.4582197999698,468.4383061999688,,,,,,,,,,,,,,,,,,,,,,,,,,,,,,,,,,,468.4488078000141,468.4582197999698,468.4582197999698,469.8822181000141,g,1.0,1.4160482000443153,,,,,,sub-234,1,stroop_test,120.60442114225108,
,,,,90.0,6.0,7.0,,,,,,,,,,,,,gelb,yellow,g,1.0,g,1.0,1.07070169999497,,,,,,,,,,7.0,6.0,90.0,11.0,469.8899155000108,,,,,,,,,,,,,,,,,469.8833140999777,471.07783949997975,471.87598479999,471.86407519999193,,,,,,,,,,,,,,,,,,,,,,,,,,,,,,,,,,,471.8655856999685,471.87598479999,471.87598479999,472.96123359998455,g,1.0,1.07070169999497,,,,,,sub-234,1,stroop_test,120.60442114225108,
,,,,91.0,7.0,7.0,,,,,,,,,,,,,gelb,blue,b,0.0,b,1.0,1.5330522999865934,,,,,,,,,,7.0,7.0,91.0,9.0,472.96710619999794,,,,,,,,,,,,,,,,,472.9620566999656,473.3024510999676,474.09699789999286,474.086920199974,,,,,,,,,,,,,,,,,,,,,,,,,,,,,,,,,,,474.0880991999875,474.09699789999286,474.09699789999286,475.6397125999793,b,1.0,1.5330522999865934,,,,,,sub-234,1,stroop_test,120.60442114225108,
,,,,92.0,8.0,7.0,,,,,,,,,,,,,blau,blue,b,1.0,b,1.0,1.064682700030971,,,,,,,,,,7.0,8.0,92.0,6.0,475.6468004999915,,,,,,,,,,,,,,,,,475.6409571999684,476.4346627999912,477.2362162999925,477.2194112999714,,,,,,,,,,,,,,,,,,,,,,,,,,,,,,,,,,,477.2275801000069,477.2362162999925,477.2362162999925,478.3034894000157,b,1.0,1.064682700030971,,,,,,sub-234,1,stroop_test,120.60442114225108,
,,,,93.0,9.0,7.0,,,,,,,,,,,,,rot,blue,b,0.0,b,1.0,2.2767431999673136,,,,,,,,,,7.0,9.0,93.0,2.0,478.3090009000152,,,,,,,,,,,,,,,,,478.30418929999,479.10056549997535,479.9026238999795,479.88510259997565,,,,,,,,,,,,,,,,,,,,,,,,,,,,,,,,,,,479.8943797000102,479.9026238999795,479.9026238999795,482.1843691999675,b,1.0,2.2767431999673136,,,,,,sub-234,1,stroop_test,120.60442114225108,
,,,,94.0,10.0,7.0,,,,,,,,,,,,,gelb,red,r,0.0,r,1.0,2.5402498000185005,,,,,,,,,,7.0,10.0,94.0,8.0,482.1909874000121,,,,,,,,,,,,,,,,,482.1848770999932,482.2829756999854,483.090838700009,483.0683103000047,,,,,,,,,,,,,,,,,,,,,,,,,,,,,,,,,,,483.07960970001295,483.090838700009,483.090838700009,485.6434603999951,r,1.0,2.5402498000185005,,,,,,sub-234,1,stroop_test,120.60442114225108,
,,,,95.0,11.0,7.0,,,,,,,,,,,,,blau,red,r,0.0,r,1.0,0.9520104000112042,,,,,,,,,,7.0,11.0,95.0,4.0,485.65319979999913,,,,,,,,,,,,,,,,,485.6448168999632,486.84061800001655,487.64305169996805,487.6249143999885,,,,,,,,,,,,,,,,,,,,,,,,,,,,,,,,,,,487.6337583999848,487.64305169996805,487.64305169996805,488.60168029996566,r,1.0,0.9520104000112042,,,,,,sub-234,1,stroop_test,120.60442114225108,
,,,,96.0,0.0,8.0,,,,,,,,,,,,,gelb,red,r,0.0,r,1.0,1.0985874999896623,,,,,,,,,,8.0,0.0,96.0,8.0,488.6079821999883,,,,,,,,,,,,,,,,,488.6024830999668,489.7974569000071,490.6045783999725,490.5827805000008,,,,,,,,,,,,,,,,,,,,,,,,,,,,,,,,,,,490.59338639996713,490.6045783999725,490.6045783999725,491.7092462999863,r,1.0,1.0985874999896623,,,,,,sub-234,1,stroop_test,120.60442114225108,
,,,,97.0,1.0,8.0,,,,,,,,,,,,,blau,blue,b,1.0,b,1.0,0.7774281000019982,,,,,,,,,,8.0,1.0,97.0,5.0,491.7159800999798,,,,,,,,,,,,,,,,,491.7100829000119,492.9051114000031,493.7147457000101,493.6901353999856,,,,,,,,,,,,,,,,,,,,,,,,,,,,,,,,,,,493.7023053999874,493.7147457000101,493.7147457000101,494.4981780999806,b,1.0,0.7774281000019982,,,,,,sub-234,1,stroop_test,120.60442114225108,
,,,,98.0,2.0,8.0,,,,,,,,,,,,,rot,red,r,1.0,r,1.0,0.8391158999875188,,,,,,,,,,8.0,2.0,98.0,1.0,494.5063257999718,,,,,,,,,,,,,,,,,494.49873749999097,495.6960415999638,496.4902706000139,496.4797626999789,,,,,,,,,,,,,,,,,,,,,,,,,,,,,,,,,,,496.4838534999872,496.4902706000139,496.4902706000139,497.3338326999801,r,1.0,0.8391158999875188,,,,,,sub-234,1,stroop_test,120.60442114225108,
,,,,99.0,3.0,8.0,,,,,,,,,,,,,blau,red,r,0.0,r,1.0,0.8944365000352263,,,,,,,,,,8.0,3.0,99.0,4.0,497.34165879996726,,,,,,,,,,,,,,,,,497.33548979996704,497.4289115999709,498.2428091999609,498.2144124999759,,,,,,,,,,,,,,,,,,,,,,,,,,,,,,,,,,,498.22763380000833,498.2428091999609,498.2428091999609,499.1412331999745,r,1.0,0.8944365000352263,,,,,,sub-234,1,stroop_test,120.60442114225108,
,,,,100.0,4.0,8.0,,,,,,,,,,,,,rot,yellow,g,0.0,g,1.0,1.5634729000157677,,,,,,,,,,8.0,4.0,100.0,3.0,499.1489821000141,,,,,,,,,,,,,,,,,499.1422932000132,499.48694119998254,500.2903639000142,500.27123089996167,,,,,,,,,,,,,,,,,,,,,,,,,,,,,,,,,,,500.2806915999972,500.2903639000142,500.2903639000142,501.8645488999901,g,1.0,1.5634729000157677,,,,,,sub-234,1,stroop_test,120.60442114225108,
,,,,101.0,5.0,8.0,,,,,,,,,,,,,rot,blue,b,0.0,b,1.0,1.034085099992808,,,,,,,,,,8.0,5.0,101.0,2.0,501.8705711999792,,,,,,,,,,,,,,,,,501.8653818999883,502.66041690000566,503.4554702999885,503.4455137999612,,,,,,,,,,,,,,,,,,,,,,,,,,,,,,,,,,,503.4466124000028,503.4554702999885,503.4554702999885,504.50012509996304,b,1.0,1.034085099992808,,,,,,sub-234,1,stroop_test,120.60442114225108,
,,,,102.0,6.0,8.0,,,,,,,,,,,,,blau,yellow,g,0.0,g,1.0,3.360898700018879,,,,,,,,,,8.0,6.0,102.0,7.0,504.50821240001824,,,,,,,,,,,,,,,,,504.5015356999938,504.8435002999613,505.6469142999849,505.6283618999878,,,,,,,,,,,,,,,,,,,,,,,,,,,,,,,,,,,505.6378244999796,505.6469142999849,505.6469142999849,509.0120484000072,g,1.0,3.360898700018879,,,,,,sub-234,1,stroop_test,120.60442114225108,
,,,,103.0,7.0,8.0,,,,,,,,,,,,,rot,red,r,1.0,r,1.0,1.4977148000034504,,,,,,,,,,8.0,7.0,103.0,0.0,509.0244640000165,,,,,,,,,,,,,,,,,509.0128517000121,509.1087387999869,509.9133884999901,509.8940901000169,,,,,,,,,,,,,,,,,,,,,,,,,,,,,,,,,,,509.903513199999,509.9133884999901,509.9133884999901,511.4193584999885,r,1.0,1.4977148000034504,,,,,,sub-234,1,stroop_test,120.60442114225108,
,,,,104.0,8.0,8.0,,,,,,,,,,,,,gelb,yellow,g,1.0,g,1.0,1.3631385000189766,,,,,,,,,,8.0,8.0,104.0,10.0,511.4285688999808,,,,,,,,,,,,,,,,,511.42023270000936,511.5166290999623,512.3208689999883,512.301446700003,,,,,,,,,,,,,,,,,,,,,,,,,,,,,,,,,,,512.3110954000149,512.3208689999883,512.3208689999883,513.6878167999675,g,1.0,1.3631385000189766,,,,,,sub-234,1,stroop_test,120.60442114225108,
,,,,105.0,9.0,8.0,,,,,,,,,,,,,gelb,yellow,g,1.0,g,1.0,0.9506000999826938,,,,,,,,,,8.0,9.0,105.0,11.0,513.6954771999735,,,,,,,,,,,,,,,,,513.6891944999807,514.8824007000076,515.6793460999615,515.6671860999777,,,,,,,,,,,,,,,,,,,,,,,,,,,,,,,,,,,515.668473800004,515.6793460999615,515.6793460999615,516.6350030999747,g,1.0,0.9506000999826938,,,,,,sub-234,1,stroop_test,120.60442114225108,
,,,,106.0,10.0,8.0,,,,,,,,,,,,,gelb,blue,b,0.0,b,1.0,1.3112670999835243,,,,,,,,,,8.0,10.0,106.0,9.0,516.6425294000073,,,,,,,,,,,,,,,,,516.6358377999859,517.8315533999703,518.6249188999645,518.6162898999755,,,,,,,,,,,,,,,,,,,,,,,,,,,,,,,,,,,518.6173279999639,518.6249188999645,518.6249188999645,519.9428919999627,b,1.0,1.3112670999835243,,,,,,sub-234,1,stroop_test,120.60442114225108,
,,,,107.0,11.0,8.0,,,,,,,,,,,,,blau,blue,b,1.0,b,1.0,0.8188129999907687,,,,,,,,,,8.0,11.0,107.0,6.0,519.949924000015,,,,,,,,,,,,,,,,,519.9437315000105,520.739061100001,521.5493912000093,521.5237130000023,,,,,,,,,,,,,,,,,,,,,,,,,,,,,,,,,,,521.5406447999994,521.5493912000093,521.5493912000093,522.3729645999847,b,1.0,0.8188129999907687,,,,,,sub-234,1,stroop_test,120.60442114225108,
,,,,108.0,0.0,9.0,,,,,,,,,,,,,rot,red,r,1.0,r,1.0,1.363972500024829,,,,,,,,,,9.0,0.0,108.0,0.0,522.3799683999969,,,,,,,,,,,,,,,,,522.3733520999667,523.5715747000067,524.3749135999824,524.3565350999706,,,,,,,,,,,,,,,,,,,,,,,,,,,,,,,,,,,524.364796800015,524.3749135999824,524.3749135999824,525.7503283999977,r,1.0,1.363972500024829,,,,,,sub-234,1,stroop_test,120.60442114225108,
,,,,109.0,1.0,9.0,,,,,,,,,,,,,gelb,yellow,g,1.0,g,1.0,1.2692428000154905,,,,,,,,,,9.0,1.0,109.0,11.0,525.7564577999874,,,,,,,,,,,,,,,,,525.7512387000024,526.5457957999897,527.3543090000167,527.3307860000059,,,,,,,,,,,,,,,,,,,,,,,,,,,,,,,,,,,527.3410266999854,527.3543090000167,527.3543090000167,528.6284912999836,g,1.0,1.2692428000154905,,,,,,sub-234,1,stroop_test,120.60442114225108,
,,,,110.0,2.0,9.0,,,,,,,,,,,,,gelb,blue,b,0.0,b,1.0,1.176807399955578,,,,,,,,,,9.0,2.0,110.0,9.0,528.6400976000004,,,,,,,,,,,,,,,,,528.6298472000053,528.7198160999687,529.5148603999987,529.5056499000057,,,,,,,,,,,,,,,,,,,,,,,,,,,,,,,,,,,529.5067551999819,529.5148603999987,529.5148603999987,530.7067352000158,b,1.0,1.176807399955578,,,,,,sub-234,1,stroop_test,120.60442114225108,
,,,,111.0,3.0,9.0,,,,,,,,,,,,,rot,blue,b,0.0,b,1.0,0.9341476999688894,,,,,,,,,,9.0,3.0,111.0,2.0,530.7143035999616,,,,,,,,,,,,,,,,,530.7082748999819,531.5028730999911,532.3054671999998,532.2871363000013,,,,,,,,,,,,,,,,,,,,,,,,,,,,,,,,,,,532.2962963000173,532.3054671999998,532.3054671999998,533.2468731999979,b,1.0,0.9341476999688894,,,,,,sub-234,1,stroop_test,120.60442114225108,
,,,,112.0,4.0,9.0,,,,,,,,,,,,,gelb,yellow,g,1.0,g,1.0,1.1449928000220098,,,,,,,,,,9.0,4.0,112.0,10.0,533.2575426999829,,,,,,,,,,,,,,,,,533.2478093999671,534.4437209999887,535.2395656000008,535.227407999977,,,,,,,,,,,,,,,,,,,,,,,,,,,,,,,,,,,535.2323285000166,535.2395656000008,535.2395656000008,536.4104186000186,g,1.0,1.1449928000220098,,,,,,sub-234,1,stroop_test,120.60442114225108,
,,,,113.0,5.0,9.0,,,,,,,,,,,,,blau,red,r,0.0,r,1.0,1.4236137000261806,,,,,,,,,,9.0,5.0,113.0,4.0,536.4189357999712,,,,,,,,,,,,,,,,,536.4119260999723,536.5016552999732,537.3081381999655,537.2864966999623,,,,,,,,,,,,,,,,,,,,,,,,,,,,,,,,,,,537.2957282999996,537.3081381999655,537.3081381999655,538.7383296999615,r,1.0,1.4236137000261806,,,,,,sub-234,1,stroop_test,120.60442114225108,
,,,,114.0,6.0,9.0,,,,,,,,,,,,,rot,yellow,g,0.0,g,1.0,1.1183694999781435,,,,,,,,,,9.0,6.0,114.0,3.0,538.7447797000059,,,,,,,,,,,,,,,,,538.7391319000162,539.5339663999621,540.3414547999855,540.3186983999913,,,,,,,,,,,,,,,,,,,,,,,,,,,,,,,,,,,540.3289716999861,540.3414547999855,540.3414547999855,541.474287799967,g,1.0,1.1183694999781435,,,,,,sub-234,1,stroop_test,120.60442114225108,
,,,,115.0,7.0,9.0,,,,,,,,,,,,,blau,blue,b,1.0,b,1.0,0.9649291000096129,,,,,,,,,,9.0,7.0,115.0,5.0,541.4820804999908,,,,,,,,,,,,,,,,,541.4759010999696,541.8165874999831,542.61744609999,542.6010831000167,,,,,,,,,,,,,,,,,,,,,,,,,,,,,,,,,,,542.6089318000013,542.61744609999,542.61744609999,543.5901122000068,b,1.0,0.9649291000096129,,,,,,sub-234,1,stroop_test,120.60442114225108,
,,,,116.0,8.0,9.0,,,,,,,,,,,,,blau,yellow,g,0.0,g,1.0,1.3502644000109283,,,,,,,,,,9.0,8.0,116.0,7.0,543.5971473999671,,,,,,,,,,,,,,,,,543.591065399989,544.7824365000124,545.5745676999795,545.56625969999,,,,,,,,,,,,,,,,,,,,,,,,,,,,,,,,,,,545.5671661999659,545.5745676999795,545.5745676999795,546.9330241999705,g,1.0,1.3502644000109283,,,,,,sub-234,1,stroop_test,120.60442114225108,
,,,,117.0,9.0,9.0,,,,,,,,,,,,,rot,red,r,1.0,r,1.0,0.7655547999893315,,,,,,,,,,9.0,9.0,117.0,1.0,546.9399256000179,,,,,,,,,,,,,,,,,546.9335258000065,547.2818416999653,548.0851708999835,548.0666961999959,,,,,,,,,,,,,,,,,,,,,,,,,,,,,,,,,,,548.0768533999799,548.0851708999835,548.0851708999835,548.8597329999902,r,1.0,0.7655547999893315,,,,,,sub-234,1,stroop_test,120.60442114225108,
,,,,118.0,10.0,9.0,,,,,,,,,,,,,gelb,red,r,0.0,r,1.0,1.7865896000294017,,,,,,,,,,9.0,10.0,118.0,8.0,548.8687816999736,,,,,,,,,,,,,,,,,548.860786699981,550.0559857999906,550.8596283000079,550.8403783999966,,,,,,,,,,,,,,,,,,,,,,,,,,,,,,,,,,,550.8496100999764,550.8596283000079,550.8596283000079,552.6493910999852,r,1.0,1.7865896000294017,,,,,,sub-234,1,stroop_test,120.60442114225108,
,,,,119.0,11.0,9.0,,,,,,,,,,,,,blau,blue,b,1.0,b,1.0,0.8581521000014618,,,,,,,,,,9.0,11.0,119.0,6.0,552.6551251999917,,,,,,,,,,,,,,,,,552.6500501999981,552.7467660999973,553.5508509000065,553.5314444999676,,,,,,,,,,,,,,,,,,,,,,,,,,,,,,,,,,,553.5409112999914,553.5508509000065,553.5508509000065,554.4185830999631,b,1.0,0.8581521000014618,,,,,,sub-234,1,stroop_test,120.60442114225108,
,,,,,,,,,,,,,,,,,,,,,,,,,,,,,,,,,,,,,,,,,,,,,,,,,,,,,,,,,,,,,,,,,,,,,,,,,,,,,,,,,,,,,,,,,,,,,,,,,,,,,,554.4189086999977,554.4265861000167,559.4200646000099,559.4139098000014,sub-234,1,stroop_test,120.60442114225108,
