wordCTK,colorCTK,corrAnsCTK,congruentCTK,thisN,thisTrialN,thisRepN,keyResp_CTK.keys,keyResp_CTK.corr,keyResp_CTK.rt,keyResp_CTK.duration,wordPractice,colorPractice,corrAnsPractice,congruentPractice,respPractice.keys,respPractice.corr,respPractice.rt,respPractice.duration,word,color,corrAns,congruent,keyResp_test_run.keys,keyResp_test_run.corr,keyResp_test_run.rt,keyResp_test_run.duration,trials_CTK.thisRepN,trials_CTK.thisTrialN,trials_CTK.thisN,trials_CTK.thisIndex,trials_practice.thisRepN,trials_practice.thisTrialN,trials_practice.thisN,trials_practice.thisIndex,trials_test.thisRepN,trials_test.thisTrialN,trials_test.thisN,trials_test.thisIndex,thisRow.t,notes,instruction.started,instr_text.started,instr_image.started,instr_resp.started,instruction.stopped,instr_resp.keys,instr_resp.rt,instr_resp.duration,instr_color_to_key.started,instr_ctk.started,resp_ctk.started,instr_color_to_key.stopped,resp_ctk.keys,resp_ctk.rt,resp_ctk.duration,ITI.started,fixcross.started,fixcross.stopped,ITI.stopped,color_to_key_run.started,stimulus_CTK.started,keyResp_CTK.started,color_to_key_run.stopped,trials_CTK.keyResp_CTK.keys,trials_CTK.keyResp_CTK.corr,trials_CTK.keyResp_CTK.rt,trials_CTK.keyResp_CTK.duration,instr_practice.started,instr_practice_text.started,instr_practice_resp.started,instr_practice.stopped,instr_practice_resp.keys,instr_practice_resp.rt,instr_practice_resp.duration,practice_run.started,stimulus_practice.started,respPractice.started,practice_run.stopped,trials_practice.respPractice.keys,trials_practice.respPractice.corr,trials_practice.respPractice.rt,trials_practice.respPractice.duration,feedback.started,textFeedback.started,feedback.stopped,textFeedback.stopped,instr_test.started,instr_test_text.started,instr_test_resp.started,instr_test.stopped,instr_test_resp.keys,instr_test_resp.rt,instr_test_resp.duration,test_run.started,stimulus_test_run.started,keyResp_test_run.started,test_run.stopped,trials_test.keyResp_test_run.keys,trials_test.keyResp_test_run.corr,trials_test.keyResp_test_run.rt,trials_test.keyResp_test_run.duration,goodbye.started,textGoodbye.started,goodbye.stopped,participant,session,expName,frameRate,Unnamed: 112
,,,,,,,,,,,,,,,,,,,,,,,,,,,,,,,,,,,,,,,,,0.0032663000001775,0.0257754000003842,0.0257754000003842,0.0257754000003842,16.229420100000425,space,16.18065100000058,,,,,,,,,,,,,,,,,,,,,,,,,,,,,,,,,,,,,,,,,,,,,,,,,,,,,,,,,,sub-052,1,stroop_test,60.13814935662947,
,,,,,,,,,,,,,,,,,,,,,,,,,,,,,,,,,,,,,,,,,,,,,,,,,16.22951869999997,16.237554000000273,16.237554000000273,25.3353659000004,space,9.09447309999996,,,,,,,,,,,,,,,,,,,,,,,,,,,,,,,,,,,,,,,,,,,,,,,,,,,sub-052,1,stroop_test,60.13814935662947,
test,red,r,1.0,0.0,0.0,0.0,r,1.0,0.8634560999998939,,,,,,,,,,,,,,,,,,0.0,0.0,0.0,0.0,,,,,,,,,25.35160869999981,,,,,,,,,,,,,,,,,25.34799759999987,25.69938809999985,26.498043800000232,26.48383269999977,26.493032200000016,26.498043800000232,26.498043800000232,27.366556500000115,r,1.0,0.8634560999998939,,,,,,,,,,,,,,,,,,,,,,,,,,,,,,,,,,,,,,,sub-052,1,stroop_test,60.13814935662947,
test,yellow,g,1.0,1.0,1.0,0.0,g,1.0,0.5318672000003062,,,,,,,,,,,,,,,,,,0.0,1.0,1.0,1.0,,,,,,,,,27.381235200000447,,,,,,,,,,,,,,,,,27.36708120000003,27.48111979999976,28.280990600000223,28.265037699999997,28.265632100000403,28.280990600000223,28.280990600000223,28.81609709999975,g,1.0,0.5318672000003062,,,,,,,,,,,,,,,,,,,,,,,,,,,,,,,,,,,,,,,sub-052,1,stroop_test,60.13814935662947,
test,blue,b,1.0,2.0,2.0,0.0,b,1.0,0.4048505000000659,,,,,,,,,,,,,,,,,,0.0,2.0,2.0,2.0,,,,,,,,,28.830226500000208,,,,,,,,,,,,,,,,,28.81661780000013,30.03001089999998,30.829954499999985,30.81597959999999,30.81704830000035,30.829954499999985,30.829954499999985,31.247533900000235,b,1.0,0.4048505000000659,,,,,,,,,,,,,,,,,,,,,,,,,,,,,,,,,,,,,,,sub-052,1,stroop_test,60.13814935662947,
test,yellow,g,1.0,3.0,0.0,1.0,g,1.0,0.7095730999999432,,,,,,,,,,,,,,,,,,1.0,0.0,3.0,1.0,,,,,,,,,31.2624878000006,,,,,,,,,,,,,,,,,31.247982100000627,31.61215009999978,32.41172809999989,32.39717720000044,32.39811809999992,32.41172809999989,32.41172809999989,33.13094960000035,g,1.0,0.7095730999999432,,,,,,,,,,,,,,,,,,,,,,,,,,,,,,,,,,,,,,,sub-052,1,stroop_test,60.13814935662947,
test,red,r,1.0,4.0,1.0,1.0,r,1.0,0.477341100000558,,,,,,,,,,,,,,,,,,1.0,1.0,4.0,0.0,,,,,,,,,33.14462370000001,,,,,,,,,,,,,,,,,33.1316080000006,33.49460850000014,34.294306400000096,34.2795342999998,34.28029940000033,34.294306400000096,34.294306400000096,34.779092100000526,r,1.0,0.477341100000558,,,,,,,,,,,,,,,,,,,,,,,,,,,,,,,,,,,,,,,sub-052,1,stroop_test,60.13814935662947,
test,blue,b,1.0,5.0,2.0,1.0,b,1.0,0.4818309000002045,,,,,,,,,,,,,,,,,,1.0,2.0,5.0,2.0,,,,,,,,,34.79370520000066,,,,,,,,,,,,,,,,,34.77960919999987,34.89385469999979,35.693510199999764,35.67893670000012,35.67988250000053,35.693510199999764,35.693510199999764,36.17867710000064,b,1.0,0.4818309000002045,,,,,,,,,,,,,,,,,,,,,,,,,,,,,,,,,,,,,,,sub-052,1,stroop_test,60.13814935662947,
test,red,r,1.0,6.0,0.0,2.0,r,1.0,0.6246589999991556,,,,,,,,,,,,,,,,,,2.0,0.0,6.0,0.0,,,,,,,,,36.19306930000039,,,,,,,,,,,,,,,,,36.17924279999989,37.392212599999766,38.19214860000011,38.17718460000015,38.17792819999977,38.19214860000011,38.19214860000011,38.827604600000086,r,1.0,0.6246589999991556,,,,,,,,,,,,,,,,,,,,,,,,,,,,,,,,,,,,,,,sub-052,1,stroop_test,60.13814935662947,
test,blue,b,1.0,7.0,1.0,2.0,b,1.0,0.7196069000001444,,,,,,,,,,,,,,,,,,2.0,1.0,7.0,2.0,,,,,,,,,38.84179170000061,,,,,,,,,,,,,,,,,38.82818870000028,38.94140719999996,39.74126429999978,39.726663700000245,39.7275596999998,39.74126429999978,39.74126429999978,40.47651640000004,b,1.0,0.7196069000001444,,,,,,,,,,,,,,,,,,,,,,,,,,,,,,,,,,,,,,,sub-052,1,stroop_test,60.13814935662947,
test,yellow,g,1.0,8.0,2.0,2.0,g,1.0,0.6944868999999017,,,,,,,,,,,,,,,,,,2.0,2.0,8.0,1.0,,,,,,,,,40.49056449999989,,,,,,,,,,,,,,,,,40.47712150000007,40.590834800000266,41.39028169999983,41.37482650000038,41.375731500000256,41.39028169999983,41.39028169999983,42.092071200000646,g,1.0,0.6944868999999017,,,,,,,,,,,,,,,,,,,,,,,,,,,,,,,,,,,,,,,sub-052,1,stroop_test,60.13814935662947,
test,blue,b,1.0,9.0,0.0,3.0,b,1.0,0.494425400000182,,,,,,,,,,,,,,,,,,3.0,0.0,9.0,2.0,,,,,,,,,42.10641080000005,,,,,,,,,,,,,,,,,42.09263120000014,42.90595140000005,43.705383900000015,43.690451100000246,43.69155420000061,43.705383900000015,43.705383900000015,44.20766720000029,b,1.0,0.494425400000182,,,,,,,,,,,,,,,,,,,,,,,,,,,,,,,,,,,,,,,sub-052,1,stroop_test,60.13814935662947,
test,yellow,g,1.0,10.0,1.0,3.0,g,1.0,0.8837529000002178,,,,,,,,,,,,,,,,,,3.0,1.0,10.0,1.0,,,,,,,,,44.221926500000336,,,,,,,,,,,,,,,,,44.208216600000014,45.4211092000005,46.220833200000015,46.205386000000544,46.206274799999846,46.220833200000015,46.220833200000015,47.10735870000008,g,1.0,0.8837529000002178,,,,,,,,,,,,,,,,,,,,,,,,,,,,,,,,,,,,,,,sub-052,1,stroop_test,60.13814935662947,
test,red,r,1.0,11.0,2.0,3.0,r,1.0,0.8142344999996567,,,,,,,,,,,,,,,,,,3.0,2.0,11.0,0.0,,,,,,,,,47.12027980000039,,,,,,,,,,,,,,,,,47.10798870000053,48.31969240000035,49.11948180000036,49.104754400000274,49.10569810000016,49.11948180000036,49.11948180000036,49.93784670000059,r,1.0,0.8142344999996567,,,,,,,,,,,,,,,,,,,,,,,,,,,,,,,,,,,,,,,sub-052,1,stroop_test,60.13814935662947,
,,,,,,,,,,,,,,,,,,,,,,,,,,,,,,,,,,,,,,,,,,,,,,,,,,,,,,,,,,,,,,,,,,,,49.938065899999856,49.95199010000033,49.95199010000033,82.48757160000059,space,32.53179319999981,,,,,,,,,,,,,,,,,,,,,,,,,,,,,,,,sub-052,1,stroop_test,60.13814935662947,
,,,,0.0,0.0,0.0,,,,,rot,red,r,1.0,r,1.0,0.7019319000000905,,,,,,,,,,,,,,0.0,0.0,0.0,0.0,,,,,82.50143690000004,,,,,,,,,,,,,,,,,82.49792880000041,82.60095379999984,83.39996419999989,83.38495109999985,,,,,,,,,,,,,,,,83.39490399999977,83.39996419999989,83.39996419999989,84.11921990000064,r,1.0,0.7019319000000905,,84.12921740000002,84.13490199999978,85.13308010000037,,,,,,,,,,,,,,,,,,,,sub-052,1,stroop_test,60.13814935662947,
,,,,1.0,1.0,0.0,,,,,gelb,yellow,g,1.0,g,1.0,0.6021211999996012,,,,,,,,,,,,,,0.0,1.0,1.0,11.0,,,,,85.1495945000006,,,,,,,,,,,,,,,,,85.13366120000046,85.93209320000005,86.73132410000017,86.71695760000057,,,,,,,,,,,,,,,,86.72515850000036,86.73132410000017,86.73132410000017,87.35089530000005,g,1.0,0.6021211999996012,,87.35177639999984,87.3649378,88.3493540999998,88.3643630000006,,,,,,,,,,,,,,,,,,,sub-052,1,stroop_test,60.13814935662947,
,,,,2.0,2.0,0.0,,,,,gelb,blue,b,0.0,b,1.0,0.2492194999995263,,,,,,,,,,,,,,0.0,2.0,2.0,9.0,,,,,88.3643630000006,,,,,,,,,,,,,,,,,88.34987530000035,88.71436530000028,89.51384340000004,89.49914200000057,,,,,,,,,,,,,,,,89.50005920000058,89.51384340000004,89.51384340000004,89.76764280000043,b,1.0,0.2492194999995263,,89.76844100000017,89.78021600000011,90.7645518999998,90.77932740000053,,,,,,,,,,,,,,,,,,,sub-052,1,stroop_test,60.13814935662947,
,,,,3.0,3.0,0.0,,,,,rot,yellow,g,0.0,g,1.0,0.6463056000002325,,,,,,,,,,,,,,0.0,3.0,3.0,3.0,,,,,90.77932740000053,,,,,,,,,,,,,,,,,90.76523410000028,91.1292868999999,91.92873570000027,91.91388000000006,,,,,,,,,,,,,,,,91.91971290000038,91.92873570000027,91.92873570000027,92.58045870000024,g,1.0,0.6463056000002325,,92.58127280000008,92.59539200000016,93.5794259000004,93.59449099999983,,,,,,,,,,,,,,,,,,,sub-052,1,stroop_test,60.13814935662947,
,,,,4.0,4.0,0.0,,,,,blau,red,r,0.0,r,1.0,0.3156531000004179,,,,,,,,,,,,,,0.0,4.0,4.0,4.0,,,,,93.59449099999983,,,,,,,,,,,,,,,,,93.58001330000025,94.79412930000036,95.59345310000026,95.57787150000058,,,,,,,,,,,,,,,,95.58613440000045,95.59345310000026,95.59345310000026,95.91239480000058,r,1.0,0.3156531000004179,,95.91319790000034,95.92636089999996,96.9113871999998,96.9258088000006,,,,,,,,,,,,,,,,,,,sub-052,1,stroop_test,60.13814935662947,
,,,,5.0,5.0,0.0,,,,,rot,red,r,1.0,r,1.0,0.5663151999997353,,,,,,,,,,,,,,0.0,5.0,5.0,1.0,,,,,96.9258088000006,,,,,,,,,,,,,,,,,96.91203250000036,97.72564140000031,98.52493649999997,98.50990989999993,,,,,,,,,,,,,,,,98.51544079999984,98.52493649999997,98.52493649999997,99.09454730000016,r,1.0,0.5663151999997353,,99.09554610000032,99.10832050000045,100.09265510000024,100.10789019999991,,,,,,,,,,,,,,,,,,,sub-052,1,stroop_test,60.13814935662947,
,,,,6.0,6.0,0.0,,,,,gelb,yellow,g,1.0,g,1.0,0.3836944000004223,,,,,,,,,,,,,,0.0,6.0,6.0,10.0,,,,,100.10789019999991,,,,,,,,,,,,,,,,,100.09335890000057,101.3072557000005,102.1067751999999,102.09142020000036,,,,,,,,,,,,,,,,102.09669500000018,102.1067751999999,102.1067751999999,102.49348790000022,g,1.0,0.3836944000004223,,102.49447300000064,102.50652790000004,103.4908516000005,103.50601619999998,,,,,,,,,,,,,,,,,,,sub-052,1,stroop_test,60.13814935662947,
,,,,7.0,7.0,0.0,,,,,rot,blue,b,0.0,b,1.0,0.5452470000000176,,,,,,,,,,,,,,0.0,7.0,7.0,2.0,,,,,103.50601619999998,,,,,,,,,,,,,,,,,103.49155119999978,104.30582109999978,105.10481249999977,105.08976170000004,,,,,,,,,,,,,,,,105.09506690000036,105.10481249999977,105.10481249999977,105.65702630000033,b,1.0,0.5452470000000176,,105.6578427000004,105.6711260000002,106.65553220000038,106.67076799999997,,,,,,,,,,,,,,,,,,,sub-052,1,stroop_test,60.13814935662947,
,,,,8.0,8.0,0.0,,,,,blau,blue,b,1.0,b,1.0,0.3616967999996632,,,,,,,,,,,,,,0.0,8.0,8.0,5.0,,,,,106.67076799999997,,,,,,,,,,,,,,,,,106.65625350000028,107.8702486000002,108.66930070000036,108.6550089000002,,,,,,,,,,,,,,,,108.6600653000005,108.66930070000036,108.66930070000036,109.03861599999982,b,1.0,0.3616967999996632,,109.03936720000002,109.0531305000004,110.03703070000029,110.0522834000003,,,,,,,,,,,,,,,,,,,sub-052,1,stroop_test,60.13814935662947,
,,,,9.0,9.0,0.0,,,,,blau,blue,b,1.0,b,1.0,0.5020537999998851,,,,,,,,,,,,,,0.0,9.0,9.0,6.0,,,,,110.0522834000003,,,,,,,,,,,,,,,,,110.03768690000015,110.85170879999988,111.6517113,111.63664190000054,,,,,,,,,,,,,,,,111.63748320000012,111.6517113,111.6517113,112.17076189999987,b,1.0,0.5020537999998851,,112.17182890000004,112.18452500000058,113.16922500000057,113.18408910000016,,,,,,,,,,,,,,,,,,,sub-052,1,stroop_test,60.13814935662947,
,,,,10.0,10.0,0.0,,,,,gelb,red,r,0.0,r,1.0,0.639336899999762,,,,,,,,,,,,,,0.0,10.0,10.0,8.0,,,,,113.18408910000016,,,,,,,,,,,,,,,,,113.1699279000004,113.98363979999976,114.78294180000012,114.76753830000052,,,,,,,,,,,,,,,,114.77263810000022,114.78294180000012,114.78294180000012,115.43594160000066,r,1.0,0.639336899999762,,115.43686440000056,115.44922700000006,116.43356159999983,116.4490192000003,,,,,,,,,,,,,,,,,,,sub-052,1,stroop_test,60.13814935662947,
,,,,11.0,11.0,0.0,,,,,blau,yellow,g,0.0,g,1.0,0.4401154000006499,,,,,,,,,,,,,,0.0,11.0,11.0,7.0,,,,,116.4490192000003,,,,,,,,,,,,,,,,,116.43418610000026,116.7989180000004,117.59794450000028,117.58303580000027,,,,,,,,,,,,,,,,117.58922940000048,117.59794450000028,117.59794450000028,118.05022960000042,g,1.0,0.4401154000006499,,118.05112910000024,118.06410779999987,119.04853150000054,119.06385769999996,,,,,,,,,,,,,,,,,,,sub-052,1,stroop_test,60.13814935662947,
,,,,12.0,0.0,1.0,,,,,gelb,red,r,0.0,r,1.0,0.6284765000000334,,,,,,,,,,,,,,1.0,0.0,12.0,8.0,,,,,119.06385769999996,,,,,,,,,,,,,,,,,119.04918100000032,119.86332080000012,120.66299470000013,120.6477402999999,,,,,,,,,,,,,,,,120.65283220000038,120.66299470000013,120.66299470000013,121.29833260000032,r,1.0,0.6284765000000334,,121.29909430000043,121.31233410000004,122.29685190000056,122.31204919999982,,,,,,,,,,,,,,,,,,,sub-052,1,stroop_test,60.13814935662947,
,,,,13.0,1.0,1.0,,,,,blau,blue,b,1.0,b,1.0,0.3487655000008089,,,,,,,,,,,,,,1.0,1.0,13.0,5.0,,,,,122.31204919999982,,,,,,,,,,,,,,,,,122.2974774000004,123.51167780000014,124.31100760000028,124.29566370000066,,,,,,,,,,,,,,,,124.30223509999996,124.31100760000028,124.31100760000028,124.66357770000012,b,1.0,0.3487655000008089,,124.66442030000051,124.67740680000044,125.66185700000004,125.6768243000006,,,,,,,,,,,,,,,,,,,sub-052,1,stroop_test,60.13814935662947,
,,,,14.0,2.0,1.0,,,,,rot,red,r,1.0,r,1.0,0.5662771999996039,,,,,,,,,,,,,,1.0,2.0,14.0,1.0,,,,,125.6768243000006,,,,,,,,,,,,,,,,,125.66259249999985,126.47646729999995,127.27603199999976,127.26111610000044,,,,,,,,,,,,,,,,127.2661834999999,127.27603199999976,127.27603199999976,127.84556310000062,r,1.0,0.5662771999996039,,127.8464598999999,127.85886889999983,128.8435825000006,128.85838270000022,,,,,,,,,,,,,,,,,,,sub-052,1,stroop_test,60.13814935662947,
,,,,15.0,3.0,1.0,,,,,blau,red,r,0.0,r,1.0,0.4116541000003053,,,,,,,,,,,,,,1.0,3.0,15.0,4.0,,,,,128.85838270000022,,,,,,,,,,,,,,,,,128.8442524000002,129.20826190000025,130.00754270000016,129.9925985,,,,,,,,,,,,,,,,129.9974333,130.00754270000016,130.00754270000016,130.42651139999998,r,1.0,0.4116541000003053,,130.42744050000056,130.4409985000002,131.42505820000042,131.4405609000005,,,,,,,,,,,,,,,,,,,sub-052,1,stroop_test,60.13814935662947,
,,,,16.0,4.0,1.0,,,,,rot,red,r,1.0,r,1.0,0.543316500000401,,,,,,,,,,,,,,1.0,4.0,16.0,0.0,,,,,131.4405609000005,,,,,,,,,,,,,,,,,131.42578779999985,132.2398672999998,133.0396283,133.02459830000043,,,,,,,,,,,,,,,,133.03186430000005,133.0396283,133.0396283,133.59153109999988,r,1.0,0.543316500000401,,133.59232049999991,133.6057977999999,134.59008580000045,134.60539010000048,,,,,,,,,,,,,,,,,,,sub-052,1,stroop_test,60.13814935662947,
,,,,17.0,5.0,1.0,,,,,gelb,yellow,g,1.0,g,1.0,0.3698013999992326,,,,,,,,,,,,,,1.0,5.0,17.0,10.0,,,,,134.60539010000048,,,,,,,,,,,,,,,,,134.59069499999987,135.40492410000024,136.2048018000005,136.1896759000001,,,,,,,,,,,,,,,,136.19478609999987,136.2048018000005,136.2048018000005,136.59087850000014,g,1.0,0.3698013999992326,,136.5918300000003,136.6038139000002,137.58925929999987,137.60342170000058,,,,,,,,,,,,,,,,,,,sub-052,1,stroop_test,60.13814935662947,
,,,,18.0,6.0,1.0,,,,,blau,blue,b,1.0,b,1.0,0.5264468999994278,,,,,,,,,,,,,,1.0,6.0,18.0,6.0,,,,,137.60342170000058,,,,,,,,,,,,,,,,,137.5899427000004,137.95333540000047,138.75272719999975,138.73846709999998,,,,,,,,,,,,,,,,138.74396119999983,138.75272719999975,138.75272719999975,139.28880579999986,b,1.0,0.5264468999994278,,139.290035,139.3024763000003,140.2878437999998,140.30251270000008,,,,,,,,,,,,,,,,,,,sub-052,1,stroop_test,60.13814935662947,
,,,,19.0,7.0,1.0,,,,,rot,blue,b,0.0,b,1.0,0.5183208999997078,,,,,,,,,,,,,,1.0,7.0,19.0,2.0,,,,,140.30251270000008,,,,,,,,,,,,,,,,,140.2885464000001,141.50168889999986,142.30077990000063,142.28594470000007,,,,,,,,,,,,,,,,142.29108989999986,142.30077990000063,142.30077990000063,142.83623129999978,b,1.0,0.5183208999997078,,142.8372070000005,142.85047730000042,143.83487520000017,143.85020690000056,,,,,,,,,,,,,,,,,,,sub-052,1,stroop_test,60.13814935662947,
,,,,20.0,8.0,1.0,,,,,gelb,blue,b,0.0,b,1.0,0.4401219999999739,,,,,,,,,,,,,,1.0,8.0,20.0,9.0,,,,,143.85020690000056,,,,,,,,,,,,,,,,,143.8354874000006,143.95013460000064,144.74953490000007,144.73451260000002,,,,,,,,,,,,,,,,144.74006090000057,144.74953490000007,144.74953490000007,145.20140340000034,b,1.0,0.4401219999999739,,145.2022175000002,145.21643800000038,146.20159150000018,146.2156505000003,,,,,,,,,,,,,,,,,,,sub-052,1,stroop_test,60.13814935662947,
,,,,21.0,9.0,1.0,,,,,rot,yellow,g,0.0,r,0.0,0.5754054999997607,,,,,,,,,,,,,,1.0,9.0,21.0,3.0,,,,,146.2156505000003,,,,,,,,,,,,,,,,,146.2022409000001,146.31540310000037,147.1150320000006,147.09970650000014,,,,,,,,,,,,,,,,147.10493450000013,147.1150320000006,147.1150320000006,147.7003027000001,r,0.0,0.5754054999997607,,147.7081087000006,147.71446819999983,148.69911779999984,148.71433270000034,,,,,,,,,,,,,,,,,,,sub-052,1,stroop_test,60.13814935662947,
,,,,22.0,10.0,1.0,,,,,blau,yellow,g,0.0,g,1.0,0.60348889999932,,,,,,,,,,,,,,1.0,10.0,22.0,7.0,,,,,148.71433270000034,,,,,,,,,,,,,,,,,148.69986940000035,149.0645568,149.86361430000034,149.84851359999993,,,,,,,,,,,,,,,,149.85322140000062,149.86361430000034,149.86361430000034,150.48249080000005,g,1.0,0.60348889999932,,150.4880119999998,150.4962774000005,151.4810435999998,151.49626590000025,,,,,,,,,,,,,,,,,,,sub-052,1,stroop_test,60.13814935662947,
,,,,23.0,11.0,1.0,,,,,gelb,yellow,g,1.0,g,1.0,0.5001548000000184,,,,,,,,,,,,,,1.0,11.0,23.0,11.0,,,,,151.49626590000025,,,,,,,,,,,,,,,,,151.4817512999998,151.59596409999995,152.39533240000037,152.37915370000064,,,,,,,,,,,,,,,,152.38245780000034,152.39533240000037,152.39533240000037,152.89804040000035,g,1.0,0.5001548000000184,,152.89889810000022,152.91198189999977,153.89675480000005,153.91152650000004,,,,,,,,,,,,,,,,,,,sub-052,1,stroop_test,60.13814935662947,
,,,,,,,,,,,,,,,,,,,,,,,,,,,,,,,,,,,,,,,,,,,,,,,,,,,,,,,,,,,,,,,,,,,,,,,,,,,,,,,,,,,,,,,153.89707090000047,153.91152650000004,153.91152650000004,167.9391956999998,space,14.02119330000005,,,,,,,,,,,,,sub-052,1,stroop_test,60.13814935662947,
,,,,0.0,0.0,0.0,,,,,,,,,,,,,gelb,yellow,g,1.0,g,1.0,0.6650972000006732,,,,,,,,,,0.0,0.0,0.0,10.0,167.95444790000056,,,,,,,,,,,,,,,,,167.95085870000003,168.30383090000032,169.10282460000053,169.08840990000044,,,,,,,,,,,,,,,,,,,,,,,,,,,,,,,,,,,169.0944186000006,169.10282460000053,169.10282460000053,169.77191779999976,g,1.0,0.6650972000006732,,,,,sub-052,1,stroop_test,60.13814935662947,
,,,,1.0,1.0,0.0,,,,,,,,,,,,,blau,yellow,g,0.0,b,0.0,0.7248027000005095,,,,,,,,,,0.0,1.0,1.0,7.0,169.7858544999999,,,,,,,,,,,,,,,,,169.77247090000037,170.58534789999976,171.3847784999998,171.37062359999982,,,,,,,,,,,,,,,,,,,,,,,,,,,,,,,,,,,171.3750525000005,171.3847784999998,171.3847784999998,172.12020940000002,b,0.0,0.7248027000005095,,,,,sub-052,1,stroop_test,60.13814935662947,
,,,,2.0,2.0,0.0,,,,,,,,,,,,,rot,red,r,1.0,r,1.0,0.6205321999996158,,,,,,,,,,0.0,2.0,2.0,0.0,172.13452400000006,,,,,,,,,,,,,,,,,172.1211854000003,173.33404659999997,174.13324480000028,174.11889810000048,,,,,,,,,,,,,,,,,,,,,,,,,,,,,,,,,,,174.12420650000058,174.13324480000028,174.13324480000028,174.76918690000002,r,1.0,0.6205321999996158,,,,,sub-052,1,stroop_test,60.13814935662947,
,,,,3.0,3.0,0.0,,,,,,,,,,,,,gelb,red,r,0.0,r,1.0,1.2823064000003797,,,,,,,,,,0.0,3.0,3.0,8.0,174.78342599999996,,,,,,,,,,,,,,,,,174.76985220000006,175.5824401,176.38195160000032,176.36619710000014,,,,,,,,,,,,,,,,,,,,,,,,,,,,,,,,,,,176.36934180000026,176.38195160000032,176.38195160000032,177.66827749999993,r,1.0,1.2823064000003797,,,,,sub-052,1,stroop_test,60.13814935662947,
,,,,4.0,4.0,0.0,,,,,,,,,,,,,blau,blue,b,1.0,b,1.0,0.5017365999992762,,,,,,,,,,0.0,4.0,4.0,5.0,177.68150500000047,,,,,,,,,,,,,,,,,177.6688509000005,178.88072340000053,179.6801013000004,179.66473000000042,,,,,,,,,,,,,,,,,,,,,,,,,,,,,,,,,,,179.6699964999998,179.6801013000004,179.6801013000004,180.1987432000005,b,1.0,0.5017365999992762,,,,,sub-052,1,stroop_test,60.13814935662947,
,,,,5.0,5.0,0.0,,,,,,,,,,,,,rot,red,r,1.0,r,1.0,0.4883265999997093,,,,,,,,,,0.0,5.0,5.0,1.0,180.21345530000053,,,,,,,,,,,,,,,,,180.1993510000002,181.01299670000023,181.81272400000037,181.7980693999998,,,,,,,,,,,,,,,,,,,,,,,,,,,,,,,,,,,181.80299920000016,181.81272400000037,181.81272400000037,182.31467539999997,r,1.0,0.4883265999997093,,,,,sub-052,1,stroop_test,60.13814935662947,
,,,,6.0,6.0,0.0,,,,,,,,,,,,,rot,yellow,g,0.0,g,1.0,0.5420361000005869,,,,,,,,,,0.0,6.0,6.0,3.0,182.3288663000003,,,,,,,,,,,,,,,,,182.3153585,183.52812510000055,184.3280068000004,184.31203640000055,,,,,,,,,,,,,,,,,,,,,,,,,,,,,,,,,,,184.3128536000004,184.3280068000004,184.3280068000004,184.88106830000012,g,1.0,0.5420361000005869,,,,,sub-052,1,stroop_test,60.13814935662947,
,,,,7.0,7.0,0.0,,,,,,,,,,,,,gelb,blue,b,0.0,b,1.0,0.6386271999999735,,,,,,,,,,0.0,7.0,7.0,9.0,184.8945429000005,,,,,,,,,,,,,,,,,184.8817743,184.9942458000005,185.7935812000005,185.7775787999999,,,,,,,,,,,,,,,,,,,,,,,,,,,,,,,,,,,185.78137590000009,185.7935812000005,185.7935812000005,186.44554119999972,b,1.0,0.6386271999999735,,,,,sub-052,1,stroop_test,60.13814935662947,
,,,,8.0,8.0,0.0,,,,,,,,,,,,,gelb,yellow,g,1.0,g,1.0,0.4727379999994809,,,,,,,,,,0.0,8.0,8.0,11.0,186.4600799,,,,,,,,,,,,,,,,,186.4461777000006,187.25975569999991,188.0596986999999,188.0439707000005,,,,,,,,,,,,,,,,,,,,,,,,,,,,,,,,,,,188.04496610000024,188.0596986999999,188.0596986999999,188.5447251000005,g,1.0,0.4727379999994809,,,,,sub-052,1,stroop_test,60.13814935662947,
,,,,9.0,9.0,0.0,,,,,,,,,,,,,blau,red,r,0.0,r,1.0,0.3546640000004117,,,,,,,,,,0.0,9.0,9.0,4.0,188.55875819999983,,,,,,,,,,,,,,,,,188.54545980000057,188.90924690000065,189.7081328000004,189.69350639999996,,,,,,,,,,,,,,,,,,,,,,,,,,,,,,,,,,,189.69890750000013,189.7081328000004,189.7081328000004,190.07789390000016,r,1.0,0.3546640000004117,,,,,sub-052,1,stroop_test,60.13814935662947,
,,,,10.0,10.0,0.0,,,,,,,,,,,,,rot,blue,b,0.0,b,1.0,0.5192336999998588,,,,,,,,,,0.0,10.0,10.0,2.0,190.09150300000056,,,,,,,,,,,,,,,,,190.07857330000024,190.89083720000053,191.69024630000055,191.67516560000055,,,,,,,,,,,,,,,,,,,,,,,,,,,,,,,,,,,191.67990869999997,191.69024630000055,191.69024630000055,192.2263669000004,b,1.0,0.5192336999998588,,,,,sub-052,1,stroop_test,60.13814935662947,
,,,,11.0,11.0,0.0,,,,,,,,,,,,,blau,blue,b,1.0,b,1.0,0.4800930999999764,,,,,,,,,,0.0,11.0,11.0,6.0,192.2401329000004,,,,,,,,,,,,,,,,,192.2270427000003,192.59013200000027,193.3892818000004,193.3750811,,,,,,,,,,,,,,,,,,,,,,,,,,,,,,,,,,,193.37984229999984,193.3892818000004,193.3892818000004,193.87464230000023,b,1.0,0.4800930999999764,,,,,sub-052,1,stroop_test,60.13814935662947,
,,,,12.0,0.0,1.0,,,,,,,,,,,,,gelb,yellow,g,1.0,g,1.0,0.4973431000007622,,,,,,,,,,1.0,0.0,12.0,10.0,193.8893437000006,,,,,,,,,,,,,,,,,193.87524589999973,194.23928870000051,195.0382473,195.02407240000048,,,,,,,,,,,,,,,,,,,,,,,,,,,,,,,,,,,195.02974080000055,195.0382473,195.0382473,195.54055119999973,g,1.0,0.4973431000007622,,,,,sub-052,1,stroop_test,60.13814935662947,
,,,,13.0,1.0,1.0,,,,,,,,,,,,,blau,red,r,0.0,r,1.0,0.5242401000004975,,,,,,,,,,1.0,1.0,13.0,4.0,195.5550559000003,,,,,,,,,,,,,,,,,195.5411193,195.6550341000002,196.45436979999977,196.43860140000012,,,,,,,,,,,,,,,,,,,,,,,,,,,,,,,,,,,196.4426190000004,196.45436979999977,196.45436979999977,196.98999139999975,r,1.0,0.5242401000004975,,,,,sub-052,1,stroop_test,60.13814935662947,
,,,,14.0,2.0,1.0,,,,,,,,,,,,,rot,yellow,g,0.0,g,1.0,0.531272700000045,,,,,,,,,,1.0,2.0,14.0,3.0,197.0041385000004,,,,,,,,,,,,,,,,,196.9906895000004,197.10434070000065,197.90344210000055,197.88895420000063,,,,,,,,,,,,,,,,,,,,,,,,,,,,,,,,,,,197.8938137000005,197.90344210000055,197.90344210000055,198.4394171000004,g,1.0,0.531272700000045,,,,,sub-052,1,stroop_test,60.13814935662947,
,,,,15.0,3.0,1.0,,,,,,,,,,,,,blau,yellow,g,0.0,g,1.0,0.4827752000001055,,,,,,,,,,1.0,3.0,15.0,7.0,198.4533812,,,,,,,,,,,,,,,,,198.44014680000052,199.25322360000064,200.0522256000004,200.03784069999983,,,,,,,,,,,,,,,,,,,,,,,,,,,,,,,,,,,200.0430580000002,200.0522256000004,200.0522256000004,200.5386656999999,g,1.0,0.4827752000001055,,,,,sub-052,1,stroop_test,60.13814935662947,
,,,,16.0,4.0,1.0,,,,,,,,,,,,,blau,blue,b,1.0,b,1.0,0.4061511999998402,,,,,,,,,,1.0,4.0,16.0,5.0,200.5524718000006,,,,,,,,,,,,,,,,,200.5392201000004,200.65247510000063,201.4517839,201.43689429999995,,,,,,,,,,,,,,,,,,,,,,,,,,,,,,,,,,,201.4379619000001,201.4517839,201.4517839,201.87081899999976,b,1.0,0.4061511999998402,,,,,sub-052,1,stroop_test,60.13814935662947,
,,,,17.0,5.0,1.0,,,,,,,,,,,,,rot,red,r,1.0,r,1.0,0.4695390000006227,,,,,,,,,,1.0,5.0,17.0,1.0,201.88455320000048,,,,,,,,,,,,,,,,,201.8715530999998,203.08433419999983,203.8836637000004,203.86841540000023,,,,,,,,,,,,,,,,,,,,,,,,,,,,,,,,,,,203.87359110000037,203.8836637000004,203.8836637000004,204.3695462000005,r,1.0,0.4695390000006227,,,,,sub-052,1,stroop_test,60.13814935662947,
,,,,18.0,6.0,1.0,,,,,,,,,,,,,rot,red,r,1.0,r,1.0,0.3784488999999666,,,,,,,,,,1.0,6.0,18.0,0.0,204.38338160000055,,,,,,,,,,,,,,,,,204.3704572000006,205.58326730000044,206.38256420000016,206.3670256000005,,,,,,,,,,,,,,,,,,,,,,,,,,,,,,,,,,,206.36803510000027,206.38256420000016,206.38256420000016,206.7680956000004,r,1.0,0.3784488999999666,,,,,sub-052,1,stroop_test,60.13814935662947,
,,,,19.0,7.0,1.0,,,,,,,,,,,,,gelb,yellow,g,1.0,g,1.0,0.5034225999997943,,,,,,,,,,1.0,7.0,19.0,11.0,206.78220820000024,,,,,,,,,,,,,,,,,206.7686795999998,207.13200770000003,207.9317701,207.91532330000064,,,,,,,,,,,,,,,,,,,,,,,,,,,,,,,,,,,207.919621,207.9317701,207.9317701,208.4511717000005,g,1.0,0.5034225999997943,,,,,sub-052,1,stroop_test,60.13814935662947,
,,,,20.0,8.0,1.0,,,,,,,,,,,,,blau,blue,b,1.0,b,1.0,0.4621046000002025,,,,,,,,,,1.0,8.0,20.0,6.0,208.46454379999977,,,,,,,,,,,,,,,,,208.4517860000005,208.81481880000047,209.61365650000064,209.5992499000004,,,,,,,,,,,,,,,,,,,,,,,,,,,,,,,,,,,209.60514310000053,209.61365650000064,209.61365650000064,210.0817023999998,b,1.0,0.4621046000002025,,,,,sub-052,1,stroop_test,60.13814935662947,
,,,,21.0,9.0,1.0,,,,,,,,,,,,,gelb,blue,b,0.0,b,1.0,0.4910316000004968,,,,,,,,,,1.0,9.0,21.0,9.0,210.0970640000005,,,,,,,,,,,,,,,,,210.08225660000065,211.29644740000003,212.09582920000048,212.08066640000013,,,,,,,,,,,,,,,,,,,,,,,,,,,,,,,,,,,212.08635740000045,212.09582920000048,212.09582920000048,212.5982683000002,b,1.0,0.4910316000004968,,,,,sub-052,1,stroop_test,60.13814935662947,
,,,,22.0,10.0,1.0,,,,,,,,,,,,,rot,blue,b,0.0,b,1.0,0.4448098000002574,,,,,,,,,,1.0,10.0,22.0,2.0,212.61219620000065,,,,,,,,,,,,,,,,,212.59879550000005,212.71189850000064,213.51156210000045,213.49670849999984,,,,,,,,,,,,,,,,,,,,,,,,,,,,,,,,,,,213.5016598000002,213.51156210000045,213.51156210000045,213.9646404000005,b,1.0,0.4448098000002574,,,,,sub-052,1,stroop_test,60.13814935662947,
,,,,23.0,11.0,1.0,,,,,,,,,,,,,gelb,red,r,0.0,r,1.0,0.6313281999991887,,,,,,,,,,1.0,11.0,23.0,8.0,213.97849039999983,,,,,,,,,,,,,,,,,213.96531680000044,214.77815819999975,215.57709440000053,215.5623430000005,,,,,,,,,,,,,,,,,,,,,,,,,,,,,,,,,,,215.56815890000053,215.57709440000053,215.57709440000053,216.21267530000023,r,1.0,0.6313281999991887,,,,,sub-052,1,stroop_test,60.13814935662947,
,,,,24.0,0.0,2.0,,,,,,,,,,,,,rot,blue,b,0.0,b,1.0,0.7630158000001757,,,,,,,,,,2.0,0.0,24.0,2.0,216.2272442000003,,,,,,,,,,,,,,,,,216.2132594000004,216.32702020000036,217.1263041000002,217.1119365000004,,,,,,,,,,,,,,,,,,,,,,,,,,,,,,,,,,,217.11720940000032,217.1263041000002,217.1263041000002,217.89598800000024,b,1.0,0.7630158000001757,,,,,sub-052,1,stroop_test,60.13814935662947,
,,,,25.0,1.0,2.0,,,,,,,,,,,,,rot,red,r,1.0,r,1.0,0.5286920999997164,,,,,,,,,,2.0,1.0,25.0,1.0,217.9093566000001,,,,,,,,,,,,,,,,,217.89656040000045,218.0093207,218.80872230000023,218.79325299999985,,,,,,,,,,,,,,,,,,,,,,,,,,,,,,,,,,,218.7939434,218.80872230000023,218.80872230000023,219.34446930000013,r,1.0,0.5286920999997164,,,,,sub-052,1,stroop_test,60.13814935662947,
,,,,26.0,2.0,2.0,,,,,,,,,,,,,blau,blue,b,1.0,b,1.0,0.5802724000004673,,,,,,,,,,2.0,2.0,26.0,6.0,219.35843079999995,,,,,,,,,,,,,,,,,219.3451173000003,219.4589563999998,220.2578082,220.24313429999984,,,,,,,,,,,,,,,,,,,,,,,,,,,,,,,,,,,220.24903080000055,220.2578082,220.2578082,220.8425425000005,b,1.0,0.5802724000004673,,,,,sub-052,1,stroop_test,60.13814935662947,
,,,,27.0,3.0,2.0,,,,,,,,,,,,,blau,red,r,0.0,r,1.0,0.4148350999994363,,,,,,,,,,2.0,3.0,27.0,4.0,220.85743450000064,,,,,,,,,,,,,,,,,220.8431181000005,221.6572686999998,222.45709630000056,222.4410697000003,,,,,,,,,,,,,,,,,,,,,,,,,,,,,,,,,,,222.4417927000004,222.45709630000056,222.45709630000056,222.87606980000052,r,1.0,0.4148350999994363,,,,,sub-052,1,stroop_test,60.13814935662947,
,,,,28.0,4.0,2.0,,,,,,,,,,,,,rot,yellow,g,0.0,g,1.0,0.3731688000007125,,,,,,,,,,2.0,4.0,28.0,3.0,222.8899803000004,,,,,,,,,,,,,,,,,222.8766924000001,224.08957660000036,224.8888477999999,224.8740748,,,,,,,,,,,,,,,,,,,,,,,,,,,,,,,,,,,224.87957390000065,224.8888477999999,224.8888477999999,225.27430540000023,g,1.0,0.3731688000007125,,,,,sub-052,1,stroop_test,60.13814935662947,
,,,,29.0,5.0,2.0,,,,,,,,,,,,,gelb,yellow,g,1.0,g,1.0,0.3564926999997624,,,,,,,,,,2.0,5.0,29.0,11.0,225.2885040000001,,,,,,,,,,,,,,,,,225.27502319999985,226.4881716,227.2875401000001,227.2730628999998,,,,,,,,,,,,,,,,,,,,,,,,,,,,,,,,,,,227.2783502000002,227.2875401000001,227.2875401000001,227.6565062,g,1.0,0.3564926999997624,,,,,sub-052,1,stroop_test,60.13814935662947,
,,,,30.0,6.0,2.0,,,,,,,,,,,,,gelb,red,r,0.0,r,1.0,0.3029094000003169,,,,,,,,,,2.0,6.0,30.0,8.0,227.67072650000048,,,,,,,,,,,,,,,,,227.6572911000003,228.4701839999998,229.2697861000006,229.25445039999977,,,,,,,,,,,,,,,,,,,,,,,,,,,,,,,,,,,229.25530440000057,229.2697861000006,229.2697861000006,229.5876232999999,r,1.0,0.3029094000003169,,,,,sub-052,1,stroop_test,60.13814935662947,
,,,,31.0,7.0,2.0,,,,,,,,,,,,,blau,yellow,g,0.0,g,1.0,0.7251028999999107,,,,,,,,,,2.0,7.0,31.0,7.0,229.6028059,,,,,,,,,,,,,,,,,229.58814080000047,229.9530813000001,230.75183240000024,230.73702409999987,,,,,,,,,,,,,,,,,,,,,,,,,,,,,,,,,,,230.74231670000063,230.75183240000024,230.75183240000024,231.4875191000001,g,1.0,0.7251028999999107,,,,,sub-052,1,stroop_test,60.13814935662947,
,,,,32.0,8.0,2.0,,,,,,,,,,,,,blau,blue,b,1.0,b,1.0,0.3591341000001193,,,,,,,,,,2.0,8.0,32.0,5.0,231.5017439000003,,,,,,,,,,,,,,,,,231.48827580000037,231.8513112999999,232.65113770000065,232.6359644000004,,,,,,,,,,,,,,,,,,,,,,,,,,,,,,,,,,,232.63666749999996,232.65113770000065,232.65113770000065,233.0196163999999,b,1.0,0.3591341000001193,,,,,sub-052,1,stroop_test,60.13814935662947,
,,,,33.0,9.0,2.0,,,,,,,,,,,,,rot,red,r,1.0,r,1.0,0.5350638999998409,,,,,,,,,,2.0,9.0,33.0,0.0,233.03443609999977,,,,,,,,,,,,,,,,,233.0201802000001,233.1347861000004,233.93380140000045,233.9188109000006,,,,,,,,,,,,,,,,,,,,,,,,,,,,,,,,,,,233.92391640000005,233.93380140000045,233.93380140000045,234.48566219999972,r,1.0,0.5350638999998409,,,,,sub-052,1,stroop_test,60.13814935662947,
,,,,34.0,10.0,2.0,,,,,,,,,,,,,gelb,blue,b,0.0,b,1.0,0.5463932000002387,,,,,,,,,,2.0,10.0,34.0,9.0,234.49998250000044,,,,,,,,,,,,,,,,,234.4863221000005,235.2998994,236.0990227000002,236.08429280000016,,,,,,,,,,,,,,,,,,,,,,,,,,,,,,,,,,,236.09014860000025,236.0990227000002,236.0990227000002,236.6507099999999,b,1.0,0.5463932000002387,,,,,sub-052,1,stroop_test,60.13814935662947,
,,,,35.0,11.0,2.0,,,,,,,,,,,,,gelb,yellow,g,1.0,g,1.0,0.5480535000006057,,,,,,,,,,2.0,11.0,35.0,10.0,236.66574720000065,,,,,,,,,,,,,,,,,236.65117290000035,237.86499569999975,238.66477680000023,238.64926170000035,,,,,,,,,,,,,,,,,,,,,,,,,,,,,,,,,,,238.65002430000004,238.66477680000023,238.66477680000023,239.21663100000023,g,1.0,0.5480535000006057,,,,,sub-052,1,stroop_test,60.13814935662947,
,,,,36.0,0.0,3.0,,,,,,,,,,,,,blau,red,r,0.0,r,1.0,0.5095608000001448,,,,,,,,,,3.0,0.0,36.0,4.0,239.23103940000053,,,,,,,,,,,,,,,,,239.21734209999977,239.5807580999999,240.3802015000001,240.3650625,,,,,,,,,,,,,,,,,,,,,,,,,,,,,,,,,,,240.37041320000023,240.3802015000001,240.3802015000001,240.89908730000025,r,1.0,0.5095608000001448,,,,,sub-052,1,stroop_test,60.13814935662947,
,,,,37.0,1.0,3.0,,,,,,,,,,,,,gelb,blue,b,0.0,b,1.0,0.5312427999997453,,,,,,,,,,3.0,1.0,37.0,9.0,240.9133044,,,,,,,,,,,,,,,,,240.89977869999984,242.1126444000001,242.9121171000006,242.89646750000065,,,,,,,,,,,,,,,,,,,,,,,,,,,,,,,,,,,242.9020105,242.9121171000006,242.9121171000006,243.4480005000005,b,1.0,0.5312427999997453,,,,,sub-052,1,stroop_test,60.13814935662947,
,,,,38.0,2.0,3.0,,,,,,,,,,,,,blau,yellow,g,0.0,b,0.0,0.5576901000004,,,,,,,,,,3.0,2.0,38.0,7.0,243.46178210000016,,,,,,,,,,,,,,,,,243.44878150000025,243.5616555000006,244.3613793000004,244.34702110000035,,,,,,,,,,,,,,,,,,,,,,,,,,,,,,,,,,,244.35246090000052,244.3613793000004,244.3613793000004,244.92946329999995,b,0.0,0.5576901000004,,,,,sub-052,1,stroop_test,60.13814935662947,
,,,,39.0,3.0,3.0,,,,,,,,,,,,,rot,yellow,g,0.0,g,1.0,0.7101883999994243,,,,,,,,,,3.0,3.0,39.0,3.0,244.94461839999985,,,,,,,,,,,,,,,,,244.9300024000004,245.04425160000028,245.8435980000004,245.82915779999985,,,,,,,,,,,,,,,,,,,,,,,,,,,,,,,,,,,245.83470880000004,245.8435980000004,245.8435980000004,246.56200059999992,g,1.0,0.7101883999994243,,,,,sub-052,1,stroop_test,60.13814935662947,
,,,,40.0,4.0,3.0,,,,,,,,,,,,,rot,red,r,1.0,r,1.0,0.482050600000548,,,,,,,,,,3.0,4.0,40.0,0.0,246.57698170000003,,,,,,,,,,,,,,,,,246.5626275000004,247.77657240000008,248.57581500000012,248.56071640000027,,,,,,,,,,,,,,,,,,,,,,,,,,,,,,,,,,,248.5615486000006,248.57581500000012,248.57581500000012,249.0614827999998,r,1.0,0.482050600000548,,,,,sub-052,1,stroop_test,60.13814935662947,
,,,,41.0,5.0,3.0,,,,,,,,,,,,,rot,blue,b,0.0,b,1.0,0.6089612000005218,,,,,,,,,,3.0,5.0,41.0,2.0,249.07545350000052,,,,,,,,,,,,,,,,,249.06214720000025,249.4254780000001,250.22478390000012,250.209656,,,,,,,,,,,,,,,,,,,,,,,,,,,,,,,,,,,250.2109685000005,250.22478390000012,250.22478390000012,250.84310230000028,b,1.0,0.6089612000005218,,,,,sub-052,1,stroop_test,60.13814935662947,
,,,,42.0,6.0,3.0,,,,,,,,,,,,,gelb,yellow,g,1.0,g,1.0,0.5566688999997496,,,,,,,,,,3.0,6.0,42.0,11.0,250.85784520000016,,,,,,,,,,,,,,,,,250.84373779999987,252.05716649999977,252.8564823000006,252.84188690000065,,,,,,,,,,,,,,,,,,,,,,,,,,,,,,,,,,,252.8473137000001,252.8564823000006,252.8564823000006,253.42589360000056,g,1.0,0.5566688999997496,,,,,sub-052,1,stroop_test,60.13814935662947,
,,,,43.0,7.0,3.0,,,,,,,,,,,,,rot,red,r,1.0,r,1.0,0.4590462000005573,,,,,,,,,,3.0,7.0,43.0,1.0,253.43935280000005,,,,,,,,,,,,,,,,,253.4265234000004,253.78956930000004,254.5888798000005,254.57399590000023,,,,,,,,,,,,,,,,,,,,,,,,,,,,,,,,,,,254.57936390000032,254.5888798000005,254.5888798000005,255.0587913999998,r,1.0,0.4590462000005573,,,,,sub-052,1,stroop_test,60.13814935662947,
,,,,44.0,8.0,3.0,,,,,,,,,,,,,blau,blue,b,1.0,b,1.0,0.5457894000001033,,,,,,,,,,3.0,8.0,44.0,5.0,255.0719098,,,,,,,,,,,,,,,,,255.0594006000001,256.27148940000006,257.0709146999998,257.0562367000002,,,,,,,,,,,,,,,,,,,,,,,,,,,,,,,,,,,257.0619049000006,257.0709146999998,257.0709146999998,257.62320460000046,b,1.0,0.5457894000001033,,,,,sub-052,1,stroop_test,60.13814935662947,
,,,,45.0,9.0,3.0,,,,,,,,,,,,,gelb,yellow,g,1.0,g,1.0,0.6630854000004547,,,,,,,,,,3.0,9.0,45.0,10.0,257.6369322999999,,,,,,,,,,,,,,,,,257.6238422000006,258.83642430000054,259.63601410000047,259.6216838999999,,,,,,,,,,,,,,,,,,,,,,,,,,,,,,,,,,,259.62704510000003,259.63601410000047,259.63601410000047,260.3041585000001,g,1.0,0.6630854000004547,,,,,sub-052,1,stroop_test,60.13814935662947,
,,,,46.0,10.0,3.0,,,,,,,,,,,,,blau,blue,b,1.0,b,1.0,0.499486099999558,,,,,,,,,,3.0,10.0,46.0,6.0,260.31930079999984,,,,,,,,,,,,,,,,,260.3046619000006,261.51889780000056,262.31817540000065,262.3028367000006,,,,,,,,,,,,,,,,,,,,,,,,,,,,,,,,,,,262.3081392000004,262.31817540000065,262.31817540000065,262.82141800000045,b,1.0,0.499486099999558,,,,,sub-052,1,stroop_test,60.13814935662947,
,,,,47.0,11.0,3.0,,,,,,,,,,,,,gelb,red,r,0.0,r,1.0,0.5741743999997198,,,,,,,,,,3.0,11.0,47.0,8.0,262.83453050000026,,,,,,,,,,,,,,,,,262.82196269999986,262.9346095000001,263.7339184000002,263.7186330000004,,,,,,,,,,,,,,,,,,,,,,,,,,,,,,,,,,,263.7238317000001,263.7339184000002,263.7339184000002,264.3199931999998,r,1.0,0.5741743999997198,,,,,sub-052,1,stroop_test,60.13814935662947,
,,,,48.0,0.0,4.0,,,,,,,,,,,,,rot,red,r,1.0,r,1.0,0.4652168000002348,,,,,,,,,,4.0,0.0,48.0,1.0,264.33367520000047,,,,,,,,,,,,,,,,,264.32067499999994,265.1330920999999,265.9323712000005,265.91761660000066,,,,,,,,,,,,,,,,,,,,,,,,,,,,,,,,,,,265.92363699999987,265.9323712000005,265.9323712000005,266.4020952999999,r,1.0,0.4652168000002348,,,,,sub-052,1,stroop_test,60.13814935662947,
,,,,49.0,1.0,4.0,,,,,,,,,,,,,rot,red,r,1.0,r,1.0,0.442354300000261,,,,,,,,,,4.0,1.0,49.0,0.0,266.41591770000014,,,,,,,,,,,,,,,,,266.4027126000001,267.6155440000002,268.41474710000057,268.39960470000005,,,,,,,,,,,,,,,,,,,,,,,,,,,,,,,,,,,268.40058750000026,268.41474710000057,268.41474710000057,268.86709410000003,r,1.0,0.442354300000261,,,,,sub-052,1,stroop_test,60.13814935662947,
,,,,50.0,2.0,4.0,,,,,,,,,,,,,gelb,blue,b,0.0,b,1.0,0.6565612000003966,,,,,,,,,,4.0,2.0,50.0,9.0,268.8808976,,,,,,,,,,,,,,,,,268.86777710000024,269.6804323000006,270.48033900000064,270.4655102000006,,,,,,,,,,,,,,,,,,,,,,,,,,,,,,,,,,,270.4701925999998,270.48033900000064,270.48033900000064,271.1492035000001,b,1.0,0.6565612000003966,,,,,sub-052,1,stroop_test,60.13814935662947,
,,,,51.0,3.0,4.0,,,,,,,,,,,,,rot,yellow,g,0.0,r,0.0,0.6667360000001281,,,,,,,,,,4.0,3.0,51.0,3.0,271.1632362999999,,,,,,,,,,,,,,,,,271.1498634,271.96319649999987,272.76213590000043,272.74729540000044,,,,,,,,,,,,,,,,,,,,,,,,,,,,,,,,,,,272.7517122,272.76213590000043,272.76213590000043,273.43160760000046,r,0.0,0.6667360000001281,,,,,sub-052,1,stroop_test,60.13814935662947,
,,,,52.0,4.0,4.0,,,,,,,,,,,,,gelb,red,r,0.0,r,1.0,0.7257579000006444,,,,,,,,,,4.0,4.0,52.0,8.0,273.44557780000014,,,,,,,,,,,,,,,,,273.4321602,273.7952518000002,274.59451080000053,274.5792277999999,,,,,,,,,,,,,,,,,,,,,,,,,,,,,,,,,,,274.58456540000043,274.59451080000053,274.59451080000053,275.32988209999985,r,1.0,0.7257579000006444,,,,,sub-052,1,stroop_test,60.13814935662947,
,,,,53.0,5.0,4.0,,,,,,,,,,,,,blau,yellow,g,0.0,g,1.0,0.3967326000001776,,,,,,,,,,4.0,5.0,53.0,7.0,275.34429940000064,,,,,,,,,,,,,,,,,275.3305255000005,276.5437496000004,277.3430798999998,277.3285033000002,,,,,,,,,,,,,,,,,,,,,,,,,,,,,,,,,,,277.3341543000006,277.3430798999998,277.3430798999998,277.74500979999993,g,1.0,0.3967326000001776,,,,,sub-052,1,stroop_test,60.13814935662947,
,,,,54.0,6.0,4.0,,,,,,,,,,,,,gelb,yellow,g,1.0,g,1.0,0.4728647000001729,,,,,,,,,,4.0,6.0,54.0,11.0,277.7595613000003,,,,,,,,,,,,,,,,,277.7455958999999,277.85995580000053,278.6589259000002,278.6441853000006,,,,,,,,,,,,,,,,,,,,,,,,,,,,,,,,,,,278.6493476000005,278.6589259000002,278.6589259000002,279.14533500000016,g,1.0,0.4728647000001729,,,,,sub-052,1,stroop_test,60.13814935662947,
,,,,55.0,7.0,4.0,,,,,,,,,,,,,gelb,yellow,g,1.0,g,1.0,0.448421000000053,,,,,,,,,,4.0,7.0,55.0,10.0,279.1589408,,,,,,,,,,,,,,,,,279.14606470000035,279.9587054000003,280.7581323000004,280.7430426000001,,,,,,,,,,,,,,,,,,,,,,,,,,,,,,,,,,,280.7438659999998,280.7581323000004,280.7581323000004,281.21056450000015,g,1.0,0.448421000000053,,,,,sub-052,1,stroop_test,60.13814935662947,
,,,,56.0,8.0,4.0,,,,,,,,,,,,,rot,blue,b,0.0,b,1.0,0.7261284999995041,,,,,,,,,,4.0,8.0,56.0,2.0,281.2242127999998,,,,,,,,,,,,,,,,,281.2112560000005,281.32435780000014,282.12367540000014,282.1088475000006,,,,,,,,,,,,,,,,,,,,,,,,,,,,,,,,,,,282.1145311999999,282.12367540000014,282.12367540000014,282.8594297999998,b,1.0,0.7261284999995041,,,,,sub-052,1,stroop_test,60.13814935662947,
,,,,57.0,9.0,4.0,,,,,,,,,,,,,blau,red,r,0.0,r,1.0,0.6204978999994637,,,,,,,,,,4.0,9.0,57.0,4.0,282.8733705000004,,,,,,,,,,,,,,,,,282.8600696000003,283.6728758999998,284.47256449999986,284.4568423999999,,,,,,,,,,,,,,,,,,,,,,,,,,,,,,,,,,,284.4614194000005,284.47256449999986,284.47256449999986,285.1077792000005,r,1.0,0.6204978999994637,,,,,sub-052,1,stroop_test,60.13814935662947,
,,,,58.0,10.0,4.0,,,,,,,,,,,,,blau,blue,b,1.0,b,1.0,0.7145221999999194,,,,,,,,,,4.0,10.0,58.0,6.0,285.1220738000002,,,,,,,,,,,,,,,,,285.1085098000003,285.22209100000055,286.0213674000006,286.0068540000002,,,,,,,,,,,,,,,,,,,,,,,,,,,,,,,,,,,286.0079722999999,286.0213674000006,286.0213674000006,286.7401617000005,b,1.0,0.7145221999999194,,,,,sub-052,1,stroop_test,60.13814935662947,
,,,,59.0,11.0,4.0,,,,,,,,,,,,,blau,blue,b,1.0,b,1.0,0.5749541999994108,,,,,,,,,,4.0,11.0,59.0,5.0,286.75439600000027,,,,,,,,,,,,,,,,,286.7407110000004,287.1043862000006,287.9042158000002,287.88984979999987,,,,,,,,,,,,,,,,,,,,,,,,,,,,,,,,,,,287.89095369999995,287.9042158000002,287.9042158000002,288.48937490000026,b,1.0,0.5749541999994108,,,,,sub-052,1,stroop_test,60.13814935662947,
,,,,60.0,0.0,5.0,,,,,,,,,,,,,blau,blue,b,1.0,b,1.0,0.4685772000002544,,,,,,,,,,5.0,0.0,60.0,5.0,288.5035157000002,,,,,,,,,,,,,,,,,288.4900453999999,288.6033444000004,289.4032496,289.3878881999999,,,,,,,,,,,,,,,,,,,,,,,,,,,,,,,,,,,289.388806,289.4032496,289.4032496,289.8893469000004,b,1.0,0.4685772000002544,,,,,sub-052,1,stroop_test,60.13814935662947,
,,,,61.0,1.0,5.0,,,,,,,,,,,,,gelb,yellow,g,1.0,r,0.0,0.9148268999997526,,,,,,,,,,5.0,1.0,61.0,10.0,289.90313049999986,,,,,,,,,,,,,,,,,289.89041090000046,290.0029854000004,290.8024597000003,290.7868776000005,,,,,,,,,,,,,,,,,,,,,,,,,,,,,,,,,,,290.7912716999999,290.8024597000003,290.8024597000003,291.72116800000003,r,0.0,0.9148268999997526,,,,,sub-052,1,stroop_test,60.13814935662947,
,,,,62.0,2.0,5.0,,,,,,,,,,,,,rot,yellow,g,0.0,g,1.0,0.7587022000006982,,,,,,,,,,5.0,2.0,62.0,3.0,291.7352799,,,,,,,,,,,,,,,,,291.72179659999983,292.93464290000065,293.7339441000004,293.71954879999976,,,,,,,,,,,,,,,,,,,,,,,,,,,,,,,,,,,293.7248696000006,293.7339441000004,293.7339441000004,294.50284420000025,g,1.0,0.7587022000006982,,,,,sub-052,1,stroop_test,60.13814935662947,
,,,,63.0,3.0,5.0,,,,,,,,,,,,,rot,red,r,1.0,r,1.0,0.4517407999992429,,,,,,,,,,5.0,3.0,63.0,1.0,294.5169286999999,,,,,,,,,,,,,,,,,294.5035439000003,295.31656980000025,296.1161742000004,296.1006032000005,,,,,,,,,,,,,,,,,,,,,,,,,,,,,,,,,,,296.1013190000004,296.1161742000004,296.1161742000004,296.5846296,r,1.0,0.4517407999992429,,,,,sub-052,1,stroop_test,60.13814935662947,
,,,,64.0,4.0,5.0,,,,,,,,,,,,,gelb,red,r,0.0,r,1.0,0.5721982000004573,,,,,,,,,,5.0,4.0,64.0,8.0,296.59953940000014,,,,,,,,,,,,,,,,,296.5853453,296.9491459000001,297.74849540000014,297.73382610000044,,,,,,,,,,,,,,,,,,,,,,,,,,,,,,,,,,,297.73973380000007,297.74849540000014,297.74849540000014,298.33474750000005,r,1.0,0.5721982000004573,,,,,sub-052,1,stroop_test,60.13814935662947,
,,,,65.0,5.0,5.0,,,,,,,,,,,,,blau,blue,b,1.0,b,1.0,0.5209528000004866,,,,,,,,,,5.0,5.0,65.0,6.0,298.34837890000017,,,,,,,,,,,,,,,,,298.33544840000013,298.698265,299.49786120000044,299.48296889999983,,,,,,,,,,,,,,,,,,,,,,,,,,,,,,,,,,,299.48924309999984,299.49786120000044,299.49786120000044,300.0335697999999,b,1.0,0.5209528000004866,,,,,sub-052,1,stroop_test,60.13814935662947,
,,,,66.0,6.0,5.0,,,,,,,,,,,,,gelb,blue,b,0.0,b,1.0,0.5355501000003642,,,,,,,,,,5.0,6.0,66.0,9.0,300.0473866000002,,,,,,,,,,,,,,,,,300.0341718999998,300.14729460000035,300.9467298999998,300.9315581999999,,,,,,,,,,,,,,,,,,,,,,,,,,,,,,,,,,,300.9366208000001,300.9467298999998,300.9467298999998,301.4991471000003,b,1.0,0.5355501000003642,,,,,sub-052,1,stroop_test,60.13814935662947,
,,,,67.0,7.0,5.0,,,,,,,,,,,,,blau,yellow,g,0.0,g,1.0,1.0105981999995493,,,,,,,,,,5.0,7.0,67.0,7.0,301.5132757000001,,,,,,,,,,,,,,,,,301.4998188,302.3127387000004,303.1118805000005,303.0970791,,,,,,,,,,,,,,,,,,,,,,,,,,,,,,,,,,,303.10251750000043,303.1118805000005,303.1118805000005,304.1313858000003,g,1.0,1.0105981999995493,,,,,sub-052,1,stroop_test,60.13814935662947,
,,,,68.0,8.0,5.0,,,,,,,,,,,,,gelb,yellow,g,1.0,g,1.0,0.4548556999998254,,,,,,,,,,5.0,8.0,68.0,11.0,304.1449345000001,,,,,,,,,,,,,,,,,304.13207500000044,304.49490289999994,305.2943995000005,305.279689,,,,,,,,,,,,,,,,,,,,,,,,,,,,,,,,,,,305.28444930000023,305.2943995000005,305.2943995000005,305.7624615000004,g,1.0,0.4548556999998254,,,,,sub-052,1,stroop_test,60.13814935662947,
,,,,69.0,9.0,5.0,,,,,,,,,,,,,rot,blue,b,0.0,b,1.0,0.797383400000399,,,,,,,,,,5.0,9.0,69.0,2.0,305.77763010000035,,,,,,,,,,,,,,,,,305.76306360000035,305.8778161,306.6766908999998,306.66221490000044,,,,,,,,,,,,,,,,,,,,,,,,,,,,,,,,,,,306.66758740000023,306.6766908999998,306.6766908999998,307.479875,b,1.0,0.797383400000399,,,,,sub-052,1,stroop_test,60.13814935662947,
,,,,70.0,10.0,5.0,,,,,,,,,,,,,blau,red,r,0.0,r,1.0,0.661267499999667,,,,,,,,,,5.0,10.0,70.0,4.0,307.49343920000047,,,,,,,,,,,,,,,,,307.48045790000015,307.5932134000004,308.3925396000004,308.37814680000065,,,,,,,,,,,,,,,,,,,,,,,,,,,,,,,,,,,308.38299929999994,308.3925396000004,308.3925396000004,309.06102420000025,r,1.0,0.661267499999667,,,,,sub-052,1,stroop_test,60.13814935662947,
,,,,71.0,11.0,5.0,,,,,,,,,,,,,rot,red,r,1.0,r,1.0,0.5883053000006839,,,,,,,,,,5.0,11.0,71.0,0.0,309.07570600000054,,,,,,,,,,,,,,,,,309.0616613000002,309.87543319999986,310.67471340000066,310.6592424999999,,,,,,,,,,,,,,,,,,,,,,,,,,,,,,,,,,,310.66501920000064,310.67471340000066,310.67471340000066,311.27756240000053,r,1.0,0.5883053000006839,,,,,sub-052,1,stroop_test,60.13814935662947,
,,,,72.0,0.0,6.0,,,,,,,,,,,,,rot,yellow,g,0.0,g,1.0,0.7815887999995539,,,,,,,,,,6.0,0.0,72.0,3.0,311.29126760000054,,,,,,,,,,,,,,,,,311.2781998999999,312.49058650000006,313.28948990000026,313.2745608000005,,,,,,,,,,,,,,,,,,,,,,,,,,,,,,,,,,,313.2754380000006,313.28948990000026,313.28948990000026,314.0754241000004,g,1.0,0.7815887999995539,,,,,sub-052,1,stroop_test,60.13814935662947,
,,,,73.0,1.0,6.0,,,,,,,,,,,,,gelb,yellow,g,1.0,g,1.0,0.7263092999992296,,,,,,,,,,6.0,1.0,73.0,11.0,314.08972410000024,,,,,,,,,,,,,,,,,314.07593799999995,315.2889578000004,316.08850970000003,316.07398660000035,,,,,,,,,,,,,,,,,,,,,,,,,,,,,,,,,,,316.0788732000001,316.08850970000003,316.08850970000003,316.8231888,g,1.0,0.7263092999992296,,,,,sub-052,1,stroop_test,60.13814935662947,
,,,,74.0,2.0,6.0,,,,,,,,,,,,,gelb,red,r,0.0,r,1.0,0.5701387999997678,,,,,,,,,,6.0,2.0,74.0,8.0,316.83830170000056,,,,,,,,,,,,,,,,,316.8238731000001,317.18783880000046,317.98760889999994,317.97238410000045,,,,,,,,,,,,,,,,,,,,,,,,,,,,,,,,,,,317.97334779999983,317.98760889999994,317.98760889999994,318.5725360000006,r,1.0,0.5701387999997678,,,,,sub-052,1,stroop_test,60.13814935662947,
,,,,75.0,3.0,6.0,,,,,,,,,,,,,blau,blue,b,1.0,b,1.0,0.5096249000007447,,,,,,,,,,6.0,3.0,75.0,5.0,318.5870924999999,,,,,,,,,,,,,,,,,318.57326470000044,319.7869529,320.58589980000033,320.57142290000047,,,,,,,,,,,,,,,,,,,,,,,,,,,,,,,,,,,320.5767815999998,320.58589980000033,320.58589980000033,321.10458840000047,b,1.0,0.5096249000007447,,,,,sub-052,1,stroop_test,60.13814935662947,
,,,,76.0,4.0,6.0,,,,,,,,,,,,,rot,red,r,1.0,r,1.0,0.6124040000004243,,,,,,,,,,6.0,4.0,76.0,0.0,321.1188798000003,,,,,,,,,,,,,,,,,321.1052979000005,322.3184185,323.11766290000014,323.10362239999995,,,,,,,,,,,,,,,,,,,,,,,,,,,,,,,,,,,323.1085093000001,323.11766290000014,323.11766290000014,323.7365312000002,r,1.0,0.6124040000004243,,,,,sub-052,1,stroop_test,60.13814935662947,
,,,,77.0,5.0,6.0,,,,,,,,,,,,,rot,red,r,1.0,r,1.0,0.4992559000002075,,,,,,,,,,6.0,5.0,77.0,1.0,323.75087320000057,,,,,,,,,,,,,,,,,323.7372185000004,324.1005271000004,324.89992150000035,324.8854388999998,,,,,,,,,,,,,,,,,,,,,,,,,,,,,,,,,,,324.8863756999999,324.89992150000035,324.89992150000035,325.4025341000006,r,1.0,0.4992559000002075,,,,,sub-052,1,stroop_test,60.13814935662947,
,,,,78.0,6.0,6.0,,,,,,,,,,,,,blau,red,r,0.0,r,1.0,0.4989983999994365,,,,,,,,,,6.0,6.0,78.0,4.0,325.41661600000043,,,,,,,,,,,,,,,,,325.4032261000002,326.6163909000006,327.4156389,327.40062769999986,,,,,,,,,,,,,,,,,,,,,,,,,,,,,,,,,,,327.4059750000006,327.4156389,327.4156389,327.9181568000004,r,1.0,0.4989983999994365,,,,,sub-052,1,stroop_test,60.13814935662947,
,,,,79.0,7.0,6.0,,,,,,,,,,,,,rot,blue,b,0.0,b,1.0,0.6047270000008211,,,,,,,,,,6.0,7.0,79.0,2.0,327.932186,,,,,,,,,,,,,,,,,327.91879640000025,329.1311735999998,329.9306615000005,329.91565770000034,,,,,,,,,,,,,,,,,,,,,,,,,,,,,,,,,,,329.9225201,329.9306615000005,329.9306615000005,330.5500388999999,b,1.0,0.6047270000008211,,,,,sub-052,1,stroop_test,60.13814935662947,
,,,,80.0,8.0,6.0,,,,,,,,,,,,,gelb,yellow,g,1.0,g,1.0,0.8171280999995361,,,,,,,,,,6.0,8.0,80.0,10.0,330.5636082000001,,,,,,,,,,,,,,,,,330.55081169999994,331.7631679000005,332.5625895000003,332.54761300000064,,,,,,,,,,,,,,,,,,,,,,,,,,,,,,,,,,,332.5529243000001,332.5625895000003,332.5625895000003,333.3831817999999,g,1.0,0.8171280999995361,,,,,sub-052,1,stroop_test,60.13814935662947,
,,,,81.0,9.0,6.0,,,,,,,,,,,,,gelb,blue,b,0.0,b,1.0,0.8189245999992636,,,,,,,,,,6.0,9.0,81.0,9.0,333.39535799999976,,,,,,,,,,,,,,,,,333.3838673,333.4955054000002,334.2953466999997,334.2801006999998,,,,,,,,,,,,,,,,,,,,,,,,,,,,,,,,,,,334.2808849000003,334.2953466999997,334.2953466999997,335.1294970999997,b,1.0,0.8189245999992636,,,,,sub-052,1,stroop_test,60.13814935662947,
,,,,82.0,10.0,6.0,,,,,,,,,,,,,blau,blue,b,1.0,b,1.0,0.443999299999632,,,,,,,,,,6.0,10.0,82.0,6.0,335.1446749000006,,,,,,,,,,,,,,,,,335.1300030000002,335.24430010000015,336.0439483,336.0292397000003,,,,,,,,,,,,,,,,,,,,,,,,,,,,,,,,,,,336.03446799999983,336.0439483,336.0439483,336.49604510000063,b,1.0,0.443999299999632,,,,,sub-052,1,stroop_test,60.13814935662947,
,,,,83.0,11.0,6.0,,,,,,,,,,,,,blau,yellow,g,0.0,g,1.0,0.9425630000005184,,,,,,,,,,6.0,11.0,83.0,7.0,336.5107781000006,,,,,,,,,,,,,,,,,336.49668610000026,337.31002850000004,338.1100434,338.09530600000016,,,,,,,,,,,,,,,,,,,,,,,,,,,,,,,,,,,338.0961868000004,338.1100434,338.1100434,339.06169390000014,g,1.0,0.9425630000005184,,,,,sub-052,1,stroop_test,60.13814935662947,
,,,,84.0,0.0,7.0,,,,,,,,,,,,,rot,yellow,g,0.0,g,1.0,0.488330500000302,,,,,,,,,,7.0,0.0,84.0,3.0,339.0754057000004,,,,,,,,,,,,,,,,,339.06228610000016,339.87548010000046,340.6748515999998,340.66014150000046,,,,,,,,,,,,,,,,,,,,,,,,,,,,,,,,,,,340.66481190000013,340.6748515999998,340.6748515999998,341.17778760000056,g,1.0,0.488330500000302,,,,,sub-052,1,stroop_test,60.13814935662947,
,,,,85.0,1.0,7.0,,,,,,,,,,,,,rot,red,r,1.0,r,1.0,0.4170857000008254,,,,,,,,,,7.0,1.0,85.0,1.0,341.19121499999983,,,,,,,,,,,,,,,,,341.1783832000001,342.3906586000003,343.1902697000005,343.1746240000002,,,,,,,,,,,,,,,,,,,,,,,,,,,,,,,,,,,343.17542159999994,343.1902697000005,343.1902697000005,343.6096028000002,r,1.0,0.4170857000008254,,,,,sub-052,1,stroop_test,60.13814935662947,
,,,,86.0,2.0,7.0,,,,,,,,,,,,,gelb,yellow,g,1.0,g,1.0,0.5565274999999019,,,,,,,,,,7.0,2.0,86.0,11.0,343.62342590000026,,,,,,,,,,,,,,,,,343.6100935000004,343.9735037999999,344.7890177,344.77439120000054,,,,,,,,,,,,,,,,,,,,,,,,,,,,,,,,,,,344.7798655000006,344.7890177,344.7890177,345.3583219000002,g,1.0,0.5565274999999019,,,,,sub-052,1,stroop_test,60.13814935662947,
,,,,87.0,3.0,7.0,,,,,,,,,,,,,rot,blue,b,0.0,r,0.0,0.5428109000004042,,,,,,,,,,7.0,3.0,87.0,2.0,345.3722357000006,,,,,,,,,,,,,,,,,345.35896969999976,346.1718117999999,346.97126540000045,346.9563586000004,,,,,,,,,,,,,,,,,,,,,,,,,,,,,,,,,,,346.96298769999976,346.97126540000045,346.97126540000045,347.5239343000003,r,0.0,0.5428109000004042,,,,,sub-052,1,stroop_test,60.13814935662947,
,,,,88.0,4.0,7.0,,,,,,,,,,,,,gelb,blue,b,0.0,b,1.0,0.5563647999997556,,,,,,,,,,7.0,4.0,88.0,9.0,347.5377202,,,,,,,,,,,,,,,,,347.5246203000006,348.3372679000004,349.13667010000063,349.1222839000002,,,,,,,,,,,,,,,,,,,,,,,,,,,,,,,,,,,349.1279715999999,349.13667010000063,349.13667010000063,349.70534880000014,b,1.0,0.5563647999997556,,,,,sub-052,1,stroop_test,60.13814935662947,
,,,,89.0,5.0,7.0,,,,,,,,,,,,,rot,red,r,1.0,r,1.0,0.5687648999992234,,,,,,,,,,7.0,5.0,89.0,0.0,349.7201455000004,,,,,,,,,,,,,,,,,349.7058568000002,350.9193197000004,351.71890669999993,351.7035549000002,,,,,,,,,,,,,,,,,,,,,,,,,,,,,,,,,,,351.7088601000005,351.71890669999993,351.71890669999993,352.3051138999999,r,1.0,0.5687648999992234,,,,,sub-052,1,stroop_test,60.13814935662947,
,,,,90.0,6.0,7.0,,,,,,,,,,,,,blau,red,r,0.0,r,1.0,0.8445735000004788,,,,,,,,,,7.0,6.0,90.0,4.0,352.31830869999976,,,,,,,,,,,,,,,,,352.3058148,352.41834160000053,353.21786820000034,353.2024502000004,,,,,,,,,,,,,,,,,,,,,,,,,,,,,,,,,,,353.2081212000003,353.21786820000034,353.21786820000034,354.06987350000054,r,1.0,0.8445735000004788,,,,,sub-052,1,stroop_test,60.13814935662947,
,,,,91.0,7.0,7.0,,,,,,,,,,,,,gelb,yellow,g,1.0,g,1.0,0.5148368999998638,,,,,,,,,,7.0,7.0,91.0,10.0,354.0838653999999,,,,,,,,,,,,,,,,,354.0705388000006,354.1842407000004,354.98343190000014,354.9684004999999,,,,,,,,,,,,,,,,,,,,,,,,,,,,,,,,,,,354.9733409999999,354.98343190000014,354.98343190000014,355.50275860000056,g,1.0,0.5148368999998638,,,,,sub-052,1,stroop_test,60.13814935662947,
,,,,92.0,8.0,7.0,,,,,,,,,,,,,blau,yellow,g,0.0,g,1.0,0.8871062999996866,,,,,,,,,,7.0,8.0,92.0,7.0,355.51683950000006,,,,,,,,,,,,,,,,,355.50343150000026,356.7155921000003,357.5155795999999,357.50046310000016,,,,,,,,,,,,,,,,,,,,,,,,,,,,,,,,,,,357.5056000000004,357.5155795999999,357.5155795999999,358.4172312999999,g,1.0,0.8871062999996866,,,,,sub-052,1,stroop_test,60.13814935662947,
,,,,93.0,9.0,7.0,,,,,,,,,,,,,gelb,red,r,0.0,r,1.0,0.6053507000005993,,,,,,,,,,7.0,9.0,93.0,8.0,358.43164380000053,,,,,,,,,,,,,,,,,358.41787920000024,358.7814146999999,359.58106150000003,359.56653559999995,,,,,,,,,,,,,,,,,,,,,,,,,,,,,,,,,,,359.57300680000026,359.58106150000003,359.58106150000003,360.1998594000006,r,1.0,0.6053507000005993,,,,,sub-052,1,stroop_test,60.13814935662947,
,,,,94.0,10.0,7.0,,,,,,,,,,,,,blau,blue,b,1.0,b,1.0,0.4662151000002268,,,,,,,,,,7.0,10.0,94.0,6.0,360.2141078000004,,,,,,,,,,,,,,,,,360.20067030000064,361.0138241000004,361.8131444999999,361.7983233000005,,,,,,,,,,,,,,,,,,,,,,,,,,,,,,,,,,,361.80495000000064,361.8131444999999,361.8131444999999,362.2835025000004,b,1.0,0.4662151000002268,,,,,sub-052,1,stroop_test,60.13814935662947,
,,,,95.0,11.0,7.0,,,,,,,,,,,,,blau,blue,b,1.0,b,1.0,0.4591456999996808,,,,,,,,,,7.0,11.0,95.0,5.0,362.2963829,,,,,,,,,,,,,,,,,362.2841419000006,362.64613389999977,363.4456888000004,363.4300381000003,,,,,,,,,,,,,,,,,,,,,,,,,,,,,,,,,,,363.4309188000007,363.4456888000004,363.4456888000004,363.9151945000003,b,1.0,0.4591456999996808,,,,,sub-052,1,stroop_test,60.13814935662947,
,,,,96.0,0.0,8.0,,,,,,,,,,,,,gelb,yellow,g,1.0,g,1.0,0.8085345999998026,,,,,,,,,,8.0,0.0,96.0,11.0,363.9286348000005,,,,,,,,,,,,,,,,,363.91579360000014,364.2787662999999,365.0780885000004,365.06337040000017,,,,,,,,,,,,,,,,,,,,,,,,,,,,,,,,,,,365.0690568999999,365.0780885000004,365.0780885000004,365.89699180000025,g,1.0,0.8085345999998026,,,,,sub-052,1,stroop_test,60.13814935662947,
,,,,97.0,1.0,8.0,,,,,,,,,,,,,blau,yellow,g,0.0,g,1.0,0.4668606999994154,,,,,,,,,,8.0,1.0,97.0,7.0,365.91116450000027,,,,,,,,,,,,,,,,,365.89767649999976,366.2608418,367.0600146000006,367.0451598,,,,,,,,,,,,,,,,,,,,,,,,,,,,,,,,,,,367.0504811999999,367.0600146000006,367.0600146000006,367.5295580000002,g,1.0,0.4668606999994154,,,,,sub-052,1,stroop_test,60.13814935662947,
,,,,98.0,2.0,8.0,,,,,,,,,,,,,rot,red,r,1.0,r,1.0,0.3950039999999717,,,,,,,,,,8.0,2.0,98.0,0.0,367.5432828000002,,,,,,,,,,,,,,,,,367.53017480000017,368.74270870000055,369.5423238000003,369.5264747000001,,,,,,,,,,,,,,,,,,,,,,,,,,,,,,,,,,,369.5311270000002,369.5423238000003,369.5423238000003,369.9444977000003,r,1.0,0.3950039999999717,,,,,sub-052,1,stroop_test,60.13814935662947,
,,,,99.0,3.0,8.0,,,,,,,,,,,,,blau,red,r,0.0,r,1.0,0.4028077000002668,,,,,,,,,,8.0,3.0,99.0,4.0,369.9590646000006,,,,,,,,,,,,,,,,,369.94509149999976,370.05873710000014,370.8580772000005,370.8438399000006,,,,,,,,,,,,,,,,,,,,,,,,,,,,,,,,,,,370.8488978000005,370.8580772000005,370.8580772000005,371.2773705999998,r,1.0,0.4028077000002668,,,,,sub-052,1,stroop_test,60.13814935662947,
,,,,100.0,4.0,8.0,,,,,,,,,,,,,blau,blue,b,1.0,b,1.0,0.5242975999999544,,,,,,,,,,8.0,4.0,100.0,6.0,371.2916675000006,,,,,,,,,,,,,,,,,371.2779760000003,371.39127800000006,372.19101649999993,372.1754316000006,,,,,,,,,,,,,,,,,,,,,,,,,,,,,,,,,,,372.17609510000057,372.19101649999993,372.19101649999993,372.72603720000006,b,1.0,0.5242975999999544,,,,,sub-052,1,stroop_test,60.13814935662947,
,,,,101.0,5.0,8.0,,,,,,,,,,,,,rot,red,r,1.0,r,1.0,0.845655699999952,,,,,,,,,,8.0,5.0,101.0,1.0,372.7404778999999,,,,,,,,,,,,,,,,,372.7267231000005,373.93992739999976,374.7392411999999,374.7243073,,,,,,,,,,,,,,,,,,,,,,,,,,,,,,,,,,,374.7303772000005,374.7392411999999,374.7392411999999,375.5911596000005,r,1.0,0.845655699999952,,,,,sub-052,1,stroop_test,60.13814935662947,
,,,,102.0,6.0,8.0,,,,,,,,,,,,,rot,yellow,g,0.0,g,1.0,0.5380954000002021,,,,,,,,,,8.0,6.0,102.0,3.0,375.6057375,,,,,,,,,,,,,,,,,375.5917674000002,376.8048313999998,377.60438280000017,377.5892134000005,,,,,,,,,,,,,,,,,,,,,,,,,,,,,,,,,,,377.5902422999998,377.60438280000017,377.60438280000017,378.1571961,g,1.0,0.5380954000002021,,,,,sub-052,1,stroop_test,60.13814935662947,
,,,,103.0,7.0,8.0,,,,,,,,,,,,,gelb,blue,b,0.0,b,1.0,0.5954583000002458,,,,,,,,,,8.0,7.0,103.0,9.0,378.1707500000002,,,,,,,,,,,,,,,,,378.1580260999999,378.9704986000006,379.7697254000004,379.7545611000005,,,,,,,,,,,,,,,,,,,,,,,,,,,,,,,,,,,379.7598195000001,379.7697254000004,379.7697254000004,380.3716136000003,b,1.0,0.5954583000002458,,,,,sub-052,1,stroop_test,60.13814935662947,
,,,,104.0,8.0,8.0,,,,,,,,,,,,,gelb,yellow,g,1.0,g,1.0,0.8507712000000538,,,,,,,,,,8.0,8.0,104.0,10.0,380.3861453999998,,,,,,,,,,,,,,,,,380.3722078999999,380.7363638000006,381.5356419,381.520794,,,,,,,,,,,,,,,,,,,,,,,,,,,,,,,,,,,381.5217686000005,381.5356419,381.5356419,382.3892165000007,g,1.0,0.8507712000000538,,,,,sub-052,1,stroop_test,60.13814935662947,
,,,,105.0,9.0,8.0,,,,,,,,,,,,,gelb,red,r,0.0,r,1.0,0.6927246000004743,,,,,,,,,,8.0,9.0,105.0,8.0,382.4019896,,,,,,,,,,,,,,,,,382.3898703000005,383.6017345999999,384.4005979000003,384.38560730000063,,,,,,,,,,,,,,,,,,,,,,,,,,,,,,,,,,,384.3864972000001,384.4005979000003,384.4005979000003,385.10317870000017,r,1.0,0.6927246000004743,,,,,sub-052,1,stroop_test,60.13814935662947,
,,,,106.0,10.0,8.0,,,,,,,,,,,,,blau,blue,b,1.0,b,1.0,0.6362512999994578,,,,,,,,,,8.0,10.0,106.0,5.0,385.1169114000004,,,,,,,,,,,,,,,,,385.1041114999998,385.2167755,386.0164032000002,386.0019599000007,,,,,,,,,,,,,,,,,,,,,,,,,,,,,,,,,,,386.00735260000056,386.0164032000002,386.0164032000002,386.6685352000004,b,1.0,0.6362512999994578,,,,,sub-052,1,stroop_test,60.13814935662947,
,,,,107.0,11.0,8.0,,,,,,,,,,,,,rot,blue,b,0.0,b,1.0,0.6600695999995878,,,,,,,,,,8.0,11.0,107.0,2.0,386.6831407,,,,,,,,,,,,,,,,,386.6691977,387.8825130000005,388.6817136,388.6664926000003,,,,,,,,,,,,,,,,,,,,,,,,,,,,,,,,,,,388.6717021000004,388.6817136,388.6817136,389.3505638000006,b,1.0,0.6600695999995878,,,,,sub-052,1,stroop_test,60.13814935662947,
,,,,108.0,0.0,9.0,,,,,,,,,,,,,blau,yellow,g,0.0,g,1.0,0.7647722000001522,,,,,,,,,,9.0,0.0,108.0,7.0,389.36457190000056,,,,,,,,,,,,,,,,,389.3511889000001,390.1639605999999,390.9634701000005,390.9482216000006,,,,,,,,,,,,,,,,,,,,,,,,,,,,,,,,,,,390.9525893,390.9634701000005,390.9634701000005,391.7326929999999,g,1.0,0.7647722000001522,,,,,sub-052,1,stroop_test,60.13814935662947,
,,,,109.0,1.0,9.0,,,,,,,,,,,,,rot,blue,b,0.0,b,1.0,0.655920000000151,,,,,,,,,,9.0,1.0,109.0,2.0,391.7467917000004,,,,,,,,,,,,,,,,,391.733303,392.0963732,392.89589520000027,392.8814256000005,,,,,,,,,,,,,,,,,,,,,,,,,,,,,,,,,,,392.8877213000005,392.89589520000027,392.89589520000027,393.5650473000005,b,1.0,0.655920000000151,,,,,sub-052,1,stroop_test,60.13814935662947,
,,,,110.0,2.0,9.0,,,,,,,,,,,,,blau,blue,b,1.0,b,1.0,0.4696567000000868,,,,,,,,,,9.0,2.0,110.0,6.0,393.5791396000004,,,,,,,,,,,,,,,,,393.56585150000046,394.37904739999976,395.1943732999998,395.18016979999993,,,,,,,,,,,,,,,,,,,,,,,,,,,,,,,,,,,395.1852964999998,395.1943732999998,395.1943732999998,395.6815733000003,b,1.0,0.4696567000000868,,,,,sub-052,1,stroop_test,60.13814935662947,
,,,,111.0,3.0,9.0,,,,,,,,,,,,,rot,red,r,1.0,r,1.0,0.5754774000006364,,,,,,,,,,9.0,3.0,111.0,0.0,395.6943452000005,,,,,,,,,,,,,,,,,395.6822754000005,396.0440687999999,396.8436147000002,396.8288852000005,,,,,,,,,,,,,,,,,,,,,,,,,,,,,,,,,,,396.83381700000064,396.8436147000002,396.8436147000002,397.4290357,r,1.0,0.5754774000006364,,,,,sub-052,1,stroop_test,60.13814935662947,
,,,,112.0,4.0,9.0,,,,,,,,,,,,,gelb,blue,b,0.0,b,1.0,0.8276083000000654,,,,,,,,,,9.0,4.0,112.0,9.0,397.4436393000005,,,,,,,,,,,,,,,,,397.4296934000004,398.6429274000002,399.4423738000005,399.4267217000006,,,,,,,,,,,,,,,,,,,,,,,,,,,,,,,,,,,399.43122330000006,399.4423738000005,399.4423738000005,400.2777248000002,b,1.0,0.8276083000000654,,,,,sub-052,1,stroop_test,60.13814935662947,
,,,,113.0,5.0,9.0,,,,,,,,,,,,,rot,red,r,1.0,r,1.0,0.6491293999997652,,,,,,,,,,9.0,5.0,113.0,1.0,400.2921787000005,,,,,,,,,,,,,,,,,400.2782986000002,400.6419919999999,401.4413321000002,401.4261414000002,,,,,,,,,,,,,,,,,,,,,,,,,,,,,,,,,,,401.4302440000001,401.4413321000002,401.4413321000002,402.09389160000046,r,1.0,0.6491293999997652,,,,,sub-052,1,stroop_test,60.13814935662947,
,,,,114.0,6.0,9.0,,,,,,,,,,,,,rot,yellow,g,0.0,g,1.0,0.6737411000003704,,,,,,,,,,9.0,6.0,114.0,3.0,402.1077413000002,,,,,,,,,,,,,,,,,402.0945280000005,402.4574177000004,403.2569535000002,403.24187770000026,,,,,,,,,,,,,,,,,,,,,,,,,,,,,,,,,,,403.2427943000002,403.2569535000002,403.2569535000002,403.9430810000004,g,1.0,0.6737411000003704,,,,,sub-052,1,stroop_test,60.13814935662947,
,,,,115.0,7.0,9.0,,,,,,,,,,,,,blau,red,r,0.0,r,1.0,0.7747038000006796,,,,,,,,,,9.0,7.0,115.0,4.0,403.9564317000004,,,,,,,,,,,,,,,,,403.94386140000006,405.1556386000002,405.9552975000006,405.94035020000047,,,,,,,,,,,,,,,,,,,,,,,,,,,,,,,,,,,405.9454289000005,405.9552975000006,405.9552975000006,406.7404483,r,1.0,0.7747038000006796,,,,,sub-052,1,stroop_test,60.13814935662947,
,,,,116.0,8.0,9.0,,,,,,,,,,,,,gelb,red,r,0.0,r,1.0,0.6575622000000294,,,,,,,,,,9.0,8.0,116.0,8.0,406.75496889999977,,,,,,,,,,,,,,,,,406.74108680000063,407.1053646999999,407.9211179000004,407.9060545000002,,,,,,,,,,,,,,,,,,,,,,,,,,,,,,,,,,,407.9124599000006,407.9211179000004,407.9211179000004,408.590322,r,1.0,0.6575622000000294,,,,,sub-052,1,stroop_test,60.13814935662947,
,,,,117.0,9.0,9.0,,,,,,,,,,,,,blau,blue,b,1.0,b,1.0,0.5461955999999191,,,,,,,,,,9.0,9.0,117.0,5.0,408.6035118,,,,,,,,,,,,,,,,,408.5910036000005,408.7038853000004,409.5032928999999,409.48876420000033,,,,,,,,,,,,,,,,,,,,,,,,,,,,,,,,,,,409.4937236000005,409.5032928999999,409.5032928999999,410.0554840000004,b,1.0,0.5461955999999191,,,,,sub-052,1,stroop_test,60.13814935662947,
,,,,118.0,10.0,9.0,,,,,,,,,,,,,gelb,yellow,g,1.0,g,1.0,0.726267199999711,,,,,,,,,,9.0,10.0,118.0,10.0,410.0702783000006,,,,,,,,,,,,,,,,,410.0560832000001,411.2692698999999,412.0685744000002,412.0534564999998,,,,,,,,,,,,,,,,,,,,,,,,,,,,,,,,,,,412.05845990000034,412.0685744000002,412.0685744000002,412.80430650000017,g,1.0,0.726267199999711,,,,,sub-052,1,stroop_test,60.13814935662947,
,,,,119.0,11.0,9.0,,,,,,,,,,,,,gelb,yellow,g,1.0,g,1.0,0.560981300000094,,,,,,,,,,9.0,11.0,119.0,11.0,412.8182035,,,,,,,,,,,,,,,,,412.8049631000004,413.6175522000003,414.4174760000005,414.4019939,,,,,,,,,,,,,,,,,,,,,,,,,,,,,,,,,,,414.4029282000001,414.4174760000005,414.4174760000005,414.98549660000026,g,1.0,0.560981300000094,,,,,sub-052,1,stroop_test,60.13814935662947,
,,,,,,,,,,,,,,,,,,,,,,,,,,,,,,,,,,,,,,,,,,,,,,,,,,,,,,,,,,,,,,,,,,,,,,,,,,,,,,,,,,,,,,,,,,,,,,,,,,,,,,414.9857398000004,415.0007215000005,419.9981948000004,sub-052,1,stroop_test,60.13814935662947,
