wordCTK,colorCTK,corrAnsCTK,congruentCTK,thisN,thisTrialN,thisRepN,keyResp_CTK.keys,keyResp_CTK.corr,keyResp_CTK.rt,keyResp_CTK.duration,wordPractice,colorPractice,corrAnsPractice,congruentPractice,respPractice.keys,respPractice.corr,respPractice.rt,respPractice.duration,word,color,corrAns,congruent,keyResp_test_run.keys,keyResp_test_run.corr,keyResp_test_run.rt,keyResp_test_run.duration,trials_CTK.thisRepN,trials_CTK.thisTrialN,trials_CTK.thisN,trials_CTK.thisIndex,trials_practice.thisRepN,trials_practice.thisTrialN,trials_practice.thisN,trials_practice.thisIndex,trials_test.thisRepN,trials_test.thisTrialN,trials_test.thisN,trials_test.thisIndex,thisRow.t,notes,instruction.started,instr_text.started,instr_image.started,instr_resp.started,instruction.stopped,instr_resp.keys,instr_resp.rt,instr_resp.duration,instr_color_to_key.started,instr_ctk.started,resp_ctk.started,instr_color_to_key.stopped,resp_ctk.keys,resp_ctk.rt,resp_ctk.duration,ITI.started,fixcross.started,fixcross.stopped,ITI.stopped,color_to_key_run.started,stimulus_CTK.started,keyResp_CTK.started,color_to_key_run.stopped,trials_CTK.keyResp_CTK.keys,trials_CTK.keyResp_CTK.corr,trials_CTK.keyResp_CTK.rt,trials_CTK.keyResp_CTK.duration,instr_practice.started,instr_practice_text.started,instr_practice_resp.started,instr_practice.stopped,instr_practice_resp.keys,instr_practice_resp.rt,instr_practice_resp.duration,practice_run.started,stimulus_practice.started,respPractice.started,practice_run.stopped,trials_practice.respPractice.keys,trials_practice.respPractice.corr,trials_practice.respPractice.rt,trials_practice.respPractice.duration,feedback.started,textFeedback.started,textFeedback.stopped,feedback.stopped,instr_test.started,instr_test_text.started,instr_test_resp.started,instr_test.stopped,instr_test_resp.keys,instr_test_resp.rt,instr_test_resp.duration,test_run.started,stimulus_test_run.started,keyResp_test_run.started,test_run.stopped,trials_test.keyResp_test_run.keys,trials_test.keyResp_test_run.corr,trials_test.keyResp_test_run.rt,trials_test.keyResp_test_run.duration,goodbye.started,textGoodbye.started,goodbye.stopped,participant,session,expName,frameRate,Unnamed: 112
,,,,,,,,,,,,,,,,,,,,,,,,,,,,,,,,,,,,,,,,,0.0187971000559628,0.0343032000819221,0.0343032000819221,0.0343032000819221,31.82167620002292,space,31.770569499931295,,,,,,,,,,,,,,,,,,,,,,,,,,,,,,,,,,,,,,,,,,,,,,,,,,,,,,,,,,sub-203,1,stroop_test,59.29439667709075,
,,,,,,,,,,,,,,,,,,,,,,,,,,,,,,,,,,,,,,,,,,,,,,,,,31.82172820006963,31.83389920007903,31.83389920007903,38.79810200002976,space,6.960276499972679,,,,,,,,,,,,,,,,,,,,,,,,,,,,,,,,,,,,,,,,,,,,,,,,,,,sub-203,1,stroop_test,59.29439667709075,
test,yellow,g,1.0,0.0,0.0,0.0,g,1.0,1.855448600021191,,,,,,,,,,,,,,,,,,0.0,0.0,0.0,1.0,,,,,,,,,38.81348400004208,,,,,,,,,,,,,,,,,38.806551499990746,39.146845099981874,39.94667289999779,39.930707000079565,39.93568190000951,39.94667289999779,39.94667289999779,41.81314119999297,g,1.0,1.855448600021191,,,,,,,,,,,,,,,,,,,,,,,,,,,,,,,,,,,,,,,sub-203,1,stroop_test,59.29439667709075,
test,blue,b,1.0,1.0,1.0,0.0,b,1.0,1.1665611999342218,,,,,,,,,,,,,,,,,,0.0,1.0,1.0,2.0,,,,,,,,,41.828873399994336,,,,,,,,,,,,,,,,,41.813515400048345,41.91301140002906,42.71228169999085,42.6971773999976,42.697734800050966,42.71228169999085,42.71228169999085,43.895588600076735,b,1.0,1.1665611999342218,,,,,,,,,,,,,,,,,,,,,,,,,,,,,,,,,,,,,,,sub-203,1,stroop_test,59.29439667709075,
test,red,r,1.0,2.0,2.0,0.0,r,1.0,1.0057160999858752,,,,,,,,,,,,,,,,,,0.0,2.0,2.0,0.0,,,,,,,,,43.9117570000235,,,,,,,,,,,,,,,,,43.89587150001898,44.71005720004905,45.509856400080025,45.49383210006636,45.49425850005355,45.509856400080025,45.509856400080025,46.52750349999405,r,1.0,1.0057160999858752,,,,,,,,,,,,,,,,,,,,,,,,,,,,,,,,,,,,,,,sub-203,1,stroop_test,59.29439667709075,
test,yellow,g,1.0,3.0,0.0,1.0,g,1.0,0.9313989999936894,,,,,,,,,,,,,,,,,,1.0,0.0,3.0,1.0,,,,,,,,,46.54288670001552,,,,,,,,,,,,,,,,,46.52780100004748,46.89341630006675,47.692961500026286,47.67666930006817,47.67718760005664,47.692961500026286,47.692961500026286,48.62670859997161,g,1.0,0.9313989999936894,,,,,,,,,,,,,,,,,,,,,,,,,,,,,,,,,,,,,,,sub-203,1,stroop_test,59.29439667709075,
test,red,r,1.0,4.0,1.0,1.0,r,1.0,2.247678600018844,,,,,,,,,,,,,,,,,,1.0,1.0,4.0,0.0,,,,,,,,,48.64205150003545,,,,,,,,,,,,,,,,,48.62708170001861,49.44274089997634,50.25857760000508,50.24207390006632,50.24251949996688,50.25857760000508,50.25857760000508,52.50794569996651,r,1.0,2.247678600018844,,,,,,,,,,,,,,,,,,,,,,,,,,,,,,,,,,,,,,,sub-203,1,stroop_test,59.29439667709075,
test,blue,b,1.0,5.0,2.0,1.0,b,1.0,1.0931329999584705,,,,,,,,,,,,,,,,,,1.0,2.0,5.0,2.0,,,,,,,,,52.52279239997733,,,,,,,,,,,,,,,,,52.50820340006612,52.6226795000257,53.42259800003376,53.40697460004594,53.407557300059125,53.42259800003376,53.42259800003376,54.52327930007596,b,1.0,1.0931329999584705,,,,,,,,,,,,,,,,,,,,,,,,,,,,,,,,,,,,,,,sub-203,1,stroop_test,59.29439667709075,
test,blue,b,1.0,6.0,0.0,2.0,b,1.0,0.8920302999904379,,,,,,,,,,,,,,,,,,2.0,0.0,6.0,2.0,,,,,,,,,54.53914560005069,,,,,,,,,,,,,,,,,54.5236035999842,55.33837270003278,56.13880730001256,56.123040799982846,56.123588400078006,56.13880730001256,56.13880730001256,57.04031559999567,b,1.0,0.8920302999904379,,,,,,,,,,,,,,,,,,,,,,,,,,,,,,,,,,,,,,,sub-203,1,stroop_test,59.29439667709075,
test,red,r,1.0,7.0,1.0,2.0,r,1.0,1.4014519000193104,,,,,,,,,,,,,,,,,,2.0,1.0,7.0,0.0,,,,,,,,,57.05519940005615,,,,,,,,,,,,,,,,,57.04060439998284,57.40498560003471,58.20483940001577,58.18869950005319,58.18935750005767,58.20483940001577,58.20483940001577,59.62219120003283,r,1.0,1.4014519000193104,,,,,,,,,,,,,,,,,,,,,,,,,,,,,,,,,,,,,,,sub-203,1,stroop_test,59.29439667709075,
test,yellow,g,1.0,8.0,2.0,2.0,g,1.0,0.712247799965553,,,,,,,,,,,,,,,,,,2.0,2.0,8.0,1.0,,,,,,,,,59.637132100062445,,,,,,,,,,,,,,,,,59.6225082000019,59.73714940005448,60.53704850003123,60.52063000004273,60.52106619998813,60.53704850003123,60.53704850003123,61.254812699975446,g,1.0,0.712247799965553,,,,,,,,,,,,,,,,,,,,,,,,,,,,,,,,,,,,,,,sub-203,1,stroop_test,59.29439667709075,
test,red,r,1.0,9.0,0.0,3.0,r,1.0,1.43195250001736,,,,,,,,,,,,,,,,,,3.0,0.0,9.0,0.0,,,,,,,,,61.26961570000276,,,,,,,,,,,,,,,,,61.255084600066766,61.36985400004778,62.16925789997913,62.15405130002182,62.15462120005395,62.16925789997913,62.16925789997913,63.60324289998971,r,1.0,1.43195250001736,,,,,,,,,,,,,,,,,,,,,,,,,,,,,,,,,,,,,,,sub-203,1,stroop_test,59.29439667709075,
test,blue,b,1.0,10.0,1.0,3.0,b,1.0,0.9676454999716952,,,,,,,,,,,,,,,,,,3.0,1.0,10.0,2.0,,,,,,,,,63.61858410004061,,,,,,,,,,,,,,,,,63.60352670005523,63.96846010000445,64.76848590001464,64.75251660007052,64.75291000003926,64.76848590001464,64.76848590001464,65.75200510001741,b,1.0,0.9676454999716952,,,,,,,,,,,,,,,,,,,,,,,,,,,,,,,,,,,,,,,sub-203,1,stroop_test,59.29439667709075,
test,yellow,g,1.0,11.0,2.0,3.0,g,1.0,1.120321900001727,,,,,,,,,,,,,,,,,,3.0,2.0,11.0,1.0,,,,,,,,,65.76840509998146,,,,,,,,,,,,,,,,,65.75227689999156,66.11714490002487,66.9167437000433,66.9012195999967,66.90160420001484,66.9167437000433,66.9167437000433,68.05037229997106,g,1.0,1.120321900001727,,,,,,,,,,,,,,,,,,,,,,,,,,,,,,,,,,,,,,,sub-203,1,stroop_test,59.29439667709075,
,,,,,,,,,,,,,,,,,,,,,,,,,,,,,,,,,,,,,,,,,,,,,,,,,,,,,,,,,,,,,,,,,,,,68.05054490000475,68.0660205000313,68.0660205000313,72.81556400004774,space,4.739774500019848,,,,,,,,,,,,,,,,,,,,,,,,,,,,,,,,sub-203,1,stroop_test,59.29439667709075,
,,,,0.0,0.0,0.0,,,,,rot,red,r,1.0,r,1.0,2.271821100031957,,,,,,,,,,,,,,0.0,0.0,0.0,0.0,,,,,72.83013820007909,,,,,,,,,,,,,,,,,72.82296490005683,74.02958159998525,74.82946839998476,74.81309040007181,,,,,,,,,,,,,,,,74.81704640004318,74.82946839998476,74.82946839998476,77.11279110005125,r,1.0,2.271821100031957,,77.11943339998834,77.1280878999969,78.12744880001992,78.1115967000369,,,,,,,,,,,,,,,,,,,sub-203,1,stroop_test,59.29439667709075,
,,,,1.0,1.0,0.0,,,,,rot,yellow,g,0.0,g,1.0,1.2127632999327034,,,,,,,,,,,,,,0.0,1.0,1.0,3.0,,,,,78.12744880001992,,,,,,,,,,,,,,,,,78.11185290000867,79.3273641000269,80.12636640004348,80.11062839999795,,,,,,,,,,,,,,,,80.11116369999945,80.12636640004348,80.12636640004348,81.34376439999323,g,1.0,1.2127632999327034,,81.34416950005107,81.35989930003416,82.3591093000723,82.34294400003273,,,,,,,,,,,,,,,,,,,sub-203,1,stroop_test,59.29439667709075,
,,,,2.0,2.0,0.0,,,,,gelb,blue,b,0.0,b,1.0,0.927791399997659,,,,,,,,,,,,,,0.0,2.0,2.0,9.0,,,,,82.3591093000723,,,,,,,,,,,,,,,,,82.34319510008208,83.15916110004764,83.97444430005271,83.95841319998726,,,,,,,,,,,,,,,,83.96225810004398,83.97444430005271,83.97444430005271,84.90852910000831,b,1.0,0.927791399997659,,84.90912670001853,84.92449690005742,85.92348710005172,85.90847570006736,,,,,,,,,,,,,,,,,,,sub-203,1,stroop_test,59.29439667709075,
,,,,3.0,3.0,0.0,,,,,gelb,red,r,0.0,r,1.0,2.889391000033356,,,,,,,,,,,,,,0.0,3.0,3.0,8.0,,,,,85.92348710005172,,,,,,,,,,,,,,,,,85.90879650006536,86.72310499998275,87.52275000000373,87.50681210006587,,,,,,,,,,,,,,,,87.50726820004638,87.52275000000373,87.52275000000373,90.42201950005256,r,1.0,2.889391000033356,,90.42249280004762,90.437935700058,91.43723210005555,91.42124559998048,,,,,,,,,,,,,,,,,,,sub-203,1,stroop_test,59.29439667709075,
,,,,4.0,4.0,0.0,,,,,blau,blue,b,1.0,b,1.0,1.123821199988015,,,,,,,,,,,,,,0.0,4.0,4.0,5.0,,,,,91.43723210005555,,,,,,,,,,,,,,,,,91.42158429999836,91.53717340005096,92.33709809998982,92.32066760002635,,,,,,,,,,,,,,,,92.3244767000433,92.33709809998982,92.33709809998982,93.47105200006628,b,1.0,1.123821199988015,,93.4714718000032,93.48611369996796,94.48584790003952,94.46934700000564,,,,,,,,,,,,,,,,,,,sub-203,1,stroop_test,59.29439667709075,
,,,,5.0,5.0,0.0,,,,,rot,red,r,1.0,r,1.0,1.0026569999754429,,,,,,,,,,,,,,0.0,5.0,5.0,1.0,,,,,94.48584790003952,,,,,,,,,,,,,,,,,94.46959680004512,94.83664009999484,95.63504540000577,95.61973190004936,,,,,,,,,,,,,,,,95.62171550001948,95.63504540000577,95.63504540000577,96.65244500001428,r,1.0,1.0026569999754429,,96.65295190003236,96.66795200004708,97.6674614000367,97.6515448000282,,,,,,,,,,,,,,,,,,,sub-203,1,stroop_test,59.29439667709075,
,,,,6.0,6.0,0.0,,,,,blau,blue,b,1.0,b,1.0,1.5677300000097605,,,,,,,,,,,,,,0.0,6.0,6.0,6.0,,,,,97.6674614000367,,,,,,,,,,,,,,,,,97.6518253000686,98.46765260002576,99.26703240000644,99.25049740006216,,,,,,,,,,,,,,,,99.25318370002788,99.26703240000644,99.26703240000644,100.85000630002467,b,1.0,1.5677300000097605,,100.85039889998734,100.86663820000832,,101.86592620005833,,,,,,,,,,,,,,,,,,,sub-203,1,stroop_test,59.29439667709075,
,,,,7.0,7.0,0.0,,,,,blau,red,r,0.0,r,1.0,1.6049258999992162,,,,,,,,,,,,,,0.0,7.0,7.0,4.0,,,,,101.88226990005931,,,,,,,,,,,,,,,,,101.8663803000236,101.94852089998312,102.74814100004733,102.73178450006526,,,,,,,,,,,,,,,,102.7322153999703,102.74814100004733,102.74814100004733,104.36538970004769,r,1.0,1.6049258999992162,,104.36586760007776,104.38050239998849,105.37998900003733,105.36383789998943,,,,,,,,,,,,,,,,,,,sub-203,1,stroop_test,59.29439667709075,
,,,,8.0,8.0,0.0,,,,,blau,yellow,g,0.0,g,1.0,0.9624270000495015,,,,,,,,,,,,,,0.0,8.0,8.0,7.0,,,,,105.37998900003733,,,,,,,,,,,,,,,,,105.36417770001572,106.57967340003232,107.37942340003792,107.36376159999054,,,,,,,,,,,,,,,,107.3641585999867,107.37942340003792,107.37942340003792,108.34628930001054,g,1.0,0.9624270000495015,,108.34671980002896,108.36198370007332,109.36190600006375,109.34554600005504,,,,,,,,,,,,,,,,,,,sub-203,1,stroop_test,59.29439667709075,
,,,,9.0,9.0,0.0,,,,,rot,blue,b,0.0,b,1.0,0.7229009999427944,,,,,,,,,,,,,,0.0,9.0,9.0,2.0,,,,,109.36190600006375,,,,,,,,,,,,,,,,,109.34597380005287,110.1607966000447,110.96097520005424,110.94487410003784,,,,,,,,,,,,,,,,110.94690980005544,110.96097520005424,110.96097520005424,111.69497179996688,b,1.0,0.7229009999427944,,111.69538020004984,111.71015920001082,112.7094470000593,112.6934960000217,,,,,,,,,,,,,,,,,,,sub-203,1,stroop_test,59.29439667709075,
,,,,10.0,10.0,0.0,,,,,gelb,yellow,g,1.0,g,1.0,0.6559241999639198,,,,,,,,,,,,,,0.0,10.0,10.0,11.0,,,,,112.7094470000593,,,,,,,,,,,,,,,,,112.693740000017,113.50906120007858,114.30871910008136,114.29292829998305,,,,,,,,,,,,,,,,114.29520320007578,114.30871910008136,114.30871910008136,114.97620090004057,g,1.0,0.6559241999639198,,114.9766193999676,114.9918217000086,115.99113780003972,115.9754016000079,,,,,,,,,,,,,,,,,,,sub-203,1,stroop_test,59.29439667709075,
,,,,11.0,11.0,0.0,,,,,gelb,yellow,g,1.0,g,1.0,0.8587142000906169,,,,,,,,,,,,,,0.0,11.0,11.0,10.0,,,,,115.99113780003972,,,,,,,,,,,,,,,,,115.97565420006867,116.79124499997124,117.5909294000594,117.5747736999765,,,,,,,,,,,,,,,,117.57526309997776,117.5909294000594,117.5909294000594,118.45844680001028,g,1.0,0.8587142000906169,,118.45887790003326,118.47342170006596,119.47280650003812,119.45663370005786,,,,,,,,,,,,,,,,,,,sub-203,1,stroop_test,59.29439667709075,
,,,,12.0,0.0,1.0,,,,,blau,yellow,g,0.0,g,1.0,1.546944700065069,,,,,,,,,,,,,,1.0,0.0,12.0,7.0,,,,,119.47280650003812,,,,,,,,,,,,,,,,,119.45688040007371,119.5728619999718,120.3725126000354,120.3562641000608,,,,,,,,,,,,,,,,120.35830399999396,120.3725126000354,120.3725126000354,121.9222367000766,g,1.0,1.546944700065069,,121.9226326000644,121.93811079999432,122.93771389999893,122.92188919999172,,,,,,,,,,,,,,,,,,,sub-203,1,stroop_test,59.29439667709075,
,,,,13.0,1.0,1.0,,,,,blau,blue,b,1.0,b,1.0,1.269295800011605,,,,,,,,,,,,,,1.0,1.0,13.0,5.0,,,,,122.93771389999893,,,,,,,,,,,,,,,,,122.92215190001298,123.2876659000758,124.08731980004814,124.0715063000098,,,,,,,,,,,,,,,,124.07198940007947,124.08731980004814,124.08731980004814,125.37109460006468,b,1.0,1.269295800011605,,125.37154530000409,125.38643279997632,126.38581680005882,126.36942060000727,,,,,,,,,,,,,,,,,,,sub-203,1,stroop_test,59.29439667709075,
,,,,14.0,2.0,1.0,,,,,gelb,yellow,g,1.0,g,1.0,1.3352569999406114,,,,,,,,,,,,,,1.0,2.0,14.0,10.0,,,,,126.38581680005882,,,,,,,,,,,,,,,,,126.36978219996672,126.4852587999776,127.2851313999854,127.26941930002069,,,,,,,,,,,,,,,,127.27174240001476,127.2851313999854,127.2851313999854,128.6355809000088,g,1.0,1.3352569999406114,,128.63618949998636,128.6512558000395,129.65132170007564,129.6357588999672,,,,,,,,,,,,,,,,,,,sub-203,1,stroop_test,59.29439667709075,
,,,,15.0,3.0,1.0,,,,,gelb,yellow,g,1.0,g,1.0,0.7106047000270337,,,,,,,,,,,,,,1.0,3.0,15.0,11.0,,,,,129.65132170007564,,,,,,,,,,,,,,,,,129.63602570001967,130.4501849000808,131.2497765000444,131.2339917999925,,,,,,,,,,,,,,,,131.23444550007116,131.2497765000444,131.2497765000444,131.96804130007513,g,1.0,0.7106047000270337,,131.9685001000762,131.9828995000571,132.98207560006995,132.96604049997404,,,,,,,,,,,,,,,,,,,sub-203,1,stroop_test,59.29439667709075,
,,,,16.0,4.0,1.0,,,,,blau,red,r,0.0,r,1.0,0.561372600030154,,,,,,,,,,,,,,1.0,4.0,16.0,4.0,,,,,132.98207560006995,,,,,,,,,,,,,,,,,132.96628890000284,133.08213480003178,133.88173170003574,133.86610099999234,,,,,,,,,,,,,,,,133.86818500002846,133.88173170003574,133.88173170003574,134.44918400002643,r,1.0,0.561372600030154,,134.449599100044,134.46548680006526,,135.4645923000062,,,,,,,,,,,,,,,,,,,sub-203,1,stroop_test,59.29439667709075,
,,,,17.0,5.0,1.0,,,,,rot,blue,b,0.0,b,1.0,1.2889245999976993,,,,,,,,,,,,,,1.0,5.0,17.0,2.0,,,,,135.48099910002202,,,,,,,,,,,,,,,,,135.46496080001816,135.56445950001944,136.3637595999753,136.34807090007234,,,,,,,,,,,,,,,,136.3504116999684,136.3637595999753,136.3637595999753,137.6650617000414,b,1.0,1.2889245999976993,,137.66548770002555,137.67993370001204,138.67960659996606,138.66446210001595,,,,,,,,,,,,,,,,,,,sub-203,1,stroop_test,59.29439667709075,
,,,,18.0,6.0,1.0,,,,,gelb,blue,b,0.0,b,1.0,0.9830552999628708,,,,,,,,,,,,,,1.0,6.0,18.0,9.0,,,,,138.67960659996606,,,,,,,,,,,,,,,,,138.66477550007403,138.78016580000985,139.5956965000369,139.57962920004502,,,,,,,,,,,,,,,,139.58193049998954,139.5956965000369,139.5956965000369,140.59563700004946,b,1.0,0.9830552999628708,,140.59616660000756,140.6116257000249,141.61165470001288,141.5952514000237,,,,,,,,,,,,,,,,,,,sub-203,1,stroop_test,59.29439667709075,
,,,,19.0,7.0,1.0,,,,,rot,red,r,1.0,r,1.0,1.1149894000263885,,,,,,,,,,,,,,1.0,7.0,19.0,1.0,,,,,141.61165470001288,,,,,,,,,,,,,,,,,141.59555420000106,141.9445803000126,142.7439284999855,142.72863739996683,,,,,,,,,,,,,,,,142.7307287000585,142.7439284999855,142.7439284999855,143.86132000002544,r,1.0,1.1149894000263885,,143.86175410007127,143.87680219998583,144.87637890002225,144.8602829000447,,,,,,,,,,,,,,,,,,,sub-203,1,stroop_test,59.29439667709075,
,,,,20.0,8.0,1.0,,,,,rot,red,r,1.0,b,0.0,0.1674933999311179,,,,,,,,,,,,,,1.0,8.0,20.0,0.0,,,,,144.87637890002225,,,,,,,,,,,,,,,,,144.86055209999904,145.67564530007076,146.47522630007006,146.45958430005703,,,,,,,,,,,,,,,,146.46002590004355,146.47522630007006,146.47522630007006,146.64426329999696,b,0.0,0.1674933999311179,,146.6488719000481,146.65932229999453,,147.6579153999919,,,,,,,,,,,,,,,,,,,sub-203,1,stroop_test,59.29439667709075,
,,,,21.0,9.0,1.0,,,,,blau,blue,b,1.0,b,1.0,1.197641700040549,,,,,,,,,,,,,,1.0,9.0,21.0,6.0,,,,,147.67513660003897,,,,,,,,,,,,,,,,,147.6582567000296,148.45814370003063,149.2571997999912,149.2410908000311,,,,,,,,,,,,,,,,149.24363530008122,149.2571997999912,149.2571997999912,150.45740840001963,b,1.0,1.197641700040549,,150.45982049999293,150.47394559998065,151.4732384000672,151.45734750002157,,,,,,,,,,,,,,,,,,,sub-203,1,stroop_test,59.29439667709075,
,,,,22.0,10.0,1.0,,,,,rot,yellow,g,0.0,g,1.0,1.952136400039308,,,,,,,,,,,,,,1.0,10.0,22.0,3.0,,,,,151.4732384000672,,,,,,,,,,,,,,,,,151.45760159997735,151.55590929999016,152.35583010001574,152.3401096999878,,,,,,,,,,,,,,,,152.34229980001692,152.35583010001574,152.35583010001574,154.3224668999901,g,1.0,1.952136400039308,,154.32288210000843,154.33808690006845,155.33796630008146,155.32212809997145,,,,,,,,,,,,,,,,,,,sub-203,1,stroop_test,59.29439667709075,
,,,,23.0,11.0,1.0,,,,,gelb,red,r,0.0,r,1.0,0.8602011000039056,,,,,,,,,,,,,,1.0,11.0,23.0,8.0,,,,,155.33796630008146,,,,,,,,,,,,,,,,,155.32243910001125,155.67075879999902,156.47029870003462,156.45500660000835,,,,,,,,,,,,,,,,156.4587320999708,156.47029870003462,156.47029870003462,157.3374499999918,r,1.0,0.8602011000039056,,157.33787930000108,157.35304610000458,158.35290489997715,158.33624209999107,,,,,,,,,,,,,,,,,,,sub-203,1,stroop_test,59.29439667709075,
,,,,,,,,,,,,,,,,,,,,,,,,,,,,,,,,,,,,,,,,,,,,,,,,,,,,,,,,,,,,,,,,,,,,,,,,,,,,,,,,,,,,,,,158.33638029999565,158.35290489997715,158.35290489997715,163.03475700004492,space,4.675310699967668,,,,,,,,,,,,,sub-203,1,stroop_test,59.29439667709075,
,,,,0.0,0.0,0.0,,,,,,,,,,,,,rot,yellow,g,0.0,g,1.0,2.0393857000162825,,,,,,,,,,0.0,0.0,0.0,3.0,163.04943550005555,,,,,,,,,,,,,,,,,163.04322550003417,163.149620900047,163.9489277000539,163.9329859999707,,,,,,,,,,,,,,,,,,,,,,,,,,,,,,,,,,,163.93495939997956,163.9489277000539,163.9489277000539,165.9991077000741,g,1.0,2.0393857000162825,,,,,sub-203,1,stroop_test,59.29439667709075,
,,,,1.0,1.0,0.0,,,,,,,,,,,,,blau,red,r,0.0,r,1.0,1.0252088999841362,,,,,,,,,,0.0,1.0,1.0,4.0,166.0146130999783,,,,,,,,,,,,,,,,,165.99939260003157,166.81476920004934,167.61400319996756,167.59803160000592,,,,,,,,,,,,,,,,,,,,,,,,,,,,,,,,,,,167.60005430004094,167.61400319996756,167.61400319996756,168.64763809996657,r,1.0,1.0252088999841362,,,,,sub-203,1,stroop_test,59.29439667709075,
,,,,2.0,2.0,0.0,,,,,,,,,,,,,blau,yellow,g,0.0,g,1.0,0.86421769997105,,,,,,,,,,0.0,2.0,2.0,7.0,168.66304690006655,,,,,,,,,,,,,,,,,168.64792850008234,168.7472147999797,169.54678700002842,169.53062890004367,,,,,,,,,,,,,,,,,,,,,,,,,,,,,,,,,,,169.53102900006343,169.54678700002842,169.54678700002842,170.4146977000637,g,1.0,0.86421769997105,,,,,sub-203,1,stroop_test,59.29439667709075,
,,,,3.0,3.0,0.0,,,,,,,,,,,,,rot,blue,b,0.0,b,1.0,0.7784257000312209,,,,,,,,,,0.0,3.0,3.0,2.0,170.42949100001715,,,,,,,,,,,,,,,,,170.4150254999986,170.52956659998745,171.32912180002313,171.3135290000355,,,,,,,,,,,,,,,,,,,,,,,,,,,,,,,,,,,171.31553380005062,171.32912180002313,171.32912180002313,172.1121589000104,b,1.0,0.7784257000312209,,,,,sub-203,1,stroop_test,59.29439667709075,
,,,,4.0,4.0,0.0,,,,,,,,,,,,,gelb,yellow,g,1.0,g,1.0,0.6411780000198632,,,,,,,,,,0.0,4.0,4.0,11.0,172.12821200001054,,,,,,,,,,,,,,,,,172.11244439997245,172.46207530004904,173.26151860004757,173.2453158000717,,,,,,,,,,,,,,,,,,,,,,,,,,,,,,,,,,,173.24756110005546,173.26151860004757,173.26151860004757,173.91178810002748,g,1.0,0.6411780000198632,,,,,sub-203,1,stroop_test,59.29439667709075,
,,,,5.0,5.0,0.0,,,,,,,,,,,,,gelb,blue,b,0.0,b,1.0,0.9949408000102268,,,,,,,,,,0.0,5.0,5.0,9.0,173.92708399996627,,,,,,,,,,,,,,,,,173.9120954000391,174.2774845000822,175.07683829998132,175.06125420005992,,,,,,,,,,,,,,,,,,,,,,,,,,,,,,,,,,,175.0617461000802,175.07683829998132,175.07683829998132,176.07758769998327,b,1.0,0.9949408000102268,,,,,sub-203,1,stroop_test,59.29439667709075,
,,,,6.0,6.0,0.0,,,,,,,,,,,,,gelb,yellow,g,1.0,g,1.0,1.1119735999964178,,,,,,,,,,0.0,6.0,6.0,10.0,176.09297440003138,,,,,,,,,,,,,,,,,176.07787100004498,176.19315249996723,176.99296750000212,176.97612700005993,,,,,,,,,,,,,,,,,,,,,,,,,,,,,,,,,,,176.9766308000544,176.99296750000212,176.99296750000212,178.1097178000491,g,1.0,1.1119735999964178,,,,,sub-203,1,stroop_test,59.29439667709075,
,,,,7.0,7.0,0.0,,,,,,,,,,,,,blau,blue,b,1.0,b,1.0,0.8881385000422597,,,,,,,,,,0.0,7.0,7.0,6.0,178.12568990001455,,,,,,,,,,,,,,,,,178.11003650003113,178.22602010006085,179.02461880003102,179.00903269997798,,,,,,,,,,,,,,,,,,,,,,,,,,,,,,,,,,,179.01139940007124,179.02461880003102,179.02461880003102,179.92534239997622,b,1.0,0.8881385000422597,,,,,sub-203,1,stroop_test,59.29439667709075,
,,,,8.0,8.0,0.0,,,,,,,,,,,,,rot,red,r,1.0,r,1.0,0.6064206000883132,,,,,,,,,,0.0,8.0,8.0,0.0,179.94082480005454,,,,,,,,,,,,,,,,,179.92564450006466,180.04125590005424,180.84115570003632,180.8246105000144,,,,,,,,,,,,,,,,,,,,,,,,,,,,,,,,,,,180.8266088999808,180.84115570003632,180.84115570003632,181.458115400048,r,1.0,0.6064206000883132,,,,,sub-203,1,stroop_test,59.29439667709075,
,,,,9.0,9.0,0.0,,,,,,,,,,,,,rot,red,r,1.0,r,1.0,0.5723161000059918,,,,,,,,,,0.0,9.0,9.0,1.0,181.474171900074,,,,,,,,,,,,,,,,,181.45841610000932,181.5736913000001,182.37348650000055,182.35783590003848,,,,,,,,,,,,,,,,,,,,,,,,,,,,,,,,,,,182.358275400009,182.37348650000055,182.37348650000055,182.9568358999677,r,1.0,0.5723161000059918,,,,,sub-203,1,stroop_test,59.29439667709075,
,,,,10.0,10.0,0.0,,,,,,,,,,,,,gelb,red,r,0.0,r,1.0,0.6188560000155121,,,,,,,,,,0.0,10.0,10.0,8.0,182.97248140000735,,,,,,,,,,,,,,,,,182.957153400057,183.3061863000039,184.12183129996995,184.1055408000248,,,,,,,,,,,,,,,,,,,,,,,,,,,,,,,,,,,184.10772239998917,184.12183129996995,184.12183129996995,184.7557301999768,r,1.0,0.6188560000155121,,,,,sub-203,1,stroop_test,59.29439667709075,
,,,,11.0,11.0,0.0,,,,,,,,,,,,,blau,blue,b,1.0,b,1.0,0.6893200000049546,,,,,,,,,,0.0,11.0,11.0,5.0,184.7713351000566,,,,,,,,,,,,,,,,,184.7560041999677,185.10488630004693,185.9041329000611,185.8878380999668,,,,,,,,,,,,,,,,,,,,,,,,,,,,,,,,,,,185.89009040000383,185.9041329000611,185.9041329000611,186.60458200005812,b,1.0,0.6893200000049546,,,,,sub-203,1,stroop_test,59.29439667709075,
,,,,12.0,0.0,1.0,,,,,,,,,,,,,blau,blue,b,1.0,b,1.0,0.6546565999742597,,,,,,,,,,1.0,0.0,12.0,6.0,186.6209745000815,,,,,,,,,,,,,,,,,186.6049236999825,186.7040334000485,187.5033311999869,187.48762000002895,,,,,,,,,,,,,,,,,,,,,,,,,,,,,,,,,,,187.48805320006795,187.5033311999869,187.5033311999869,188.17073989997152,b,1.0,0.6546565999742597,,,,,sub-203,1,stroop_test,59.29439667709075,
,,,,13.0,1.0,1.0,,,,,,,,,,,,,gelb,yellow,g,1.0,g,1.0,0.5139622000278905,,,,,,,,,,1.0,1.0,13.0,10.0,188.1870954000624,,,,,,,,,,,,,,,,,188.17106399999463,189.38575600006152,190.18537970003672,190.16966999997385,,,,,,,,,,,,,,,,,,,,,,,,,,,,,,,,,,,190.1719309000764,190.18537970003672,190.18537970003672,190.7034399000695,g,1.0,0.5139622000278905,,,,,sub-203,1,stroop_test,59.29439667709075,
,,,,14.0,2.0,1.0,,,,,,,,,,,,,rot,red,r,1.0,r,1.0,0.6404993999749422,,,,,,,,,,1.0,2.0,14.0,1.0,190.7183596000541,,,,,,,,,,,,,,,,,190.7037505999906,191.5183825000422,192.31744880008048,192.3019396000309,,,,,,,,,,,,,,,,,,,,,,,,,,,,,,,,,,,192.3038853000617,192.31744880008048,192.31744880008048,192.96879620000252,r,1.0,0.6404993999749422,,,,,sub-203,1,stroop_test,59.29439667709075,
,,,,15.0,3.0,1.0,,,,,,,,,,,,,rot,red,r,1.0,r,1.0,0.4758792999200523,,,,,,,,,,1.0,3.0,15.0,0.0,192.98386260005643,,,,,,,,,,,,,,,,,192.96910019998904,193.33381470001768,194.1342157999752,194.11788729997352,,,,,,,,,,,,,,,,,,,,,,,,,,,,,,,,,,,194.1182741000084,194.1342157999752,194.1342157999752,194.61727360007356,r,1.0,0.4758792999200523,,,,,sub-203,1,stroop_test,59.29439667709075,
,,,,16.0,4.0,1.0,,,,,,,,,,,,,rot,yellow,g,0.0,g,1.0,2.000095700030215,,,,,,,,,,1.0,4.0,16.0,3.0,194.63297310005876,,,,,,,,,,,,,,,,,194.617608700064,195.43281460006256,196.23207640007604,196.21625449997373,,,,,,,,,,,,,,,,,,,,,,,,,,,,,,,,,,,196.2166772000492,196.23207640007604,196.23207640007604,198.23375550005585,g,1.0,2.000095700030215,,,,,sub-203,1,stroop_test,59.29439667709075,
,,,,17.0,5.0,1.0,,,,,,,,,,,,,rot,blue,b,0.0,b,1.0,1.2165742999641225,,,,,,,,,,1.0,5.0,17.0,2.0,198.24814809998497,,,,,,,,,,,,,,,,,198.2340561000165,199.44727070000957,200.24674560001583,200.23128700000237,,,,,,,,,,,,,,,,,,,,,,,,,,,,,,,,,,,200.23182260000613,200.24674560001583,200.24674560001583,201.46509329997932,b,1.0,1.2165742999641225,,,,,sub-203,1,stroop_test,59.29439667709075,
,,,,18.0,6.0,1.0,,,,,,,,,,,,,gelb,blue,b,0.0,b,1.0,0.727975600049831,,,,,,,,,,1.0,6.0,18.0,9.0,201.479621800012,,,,,,,,,,,,,,,,,201.46541990002152,201.82990910008084,202.62943580001595,202.61365660000592,,,,,,,,,,,,,,,,,,,,,,,,,,,,,,,,,,,202.61629530007485,202.62943580001595,202.62943580001595,203.3632245999761,b,1.0,0.727975600049831,,,,,sub-203,1,stroop_test,59.29439667709075,
,,,,19.0,7.0,1.0,,,,,,,,,,,,,blau,red,r,0.0,r,1.0,0.5812825999455526,,,,,,,,,,1.0,7.0,19.0,4.0,203.37876210000832,,,,,,,,,,,,,,,,,203.3635156999808,204.57833010004836,205.37802980002016,205.36219939996957,,,,,,,,,,,,,,,,,,,,,,,,,,,,,,,,,,,205.36427869996987,205.37802980002016,205.37802980002016,205.96228239999616,r,1.0,0.5812825999455526,,,,,sub-203,1,stroop_test,59.29439667709075,
,,,,20.0,8.0,1.0,,,,,,,,,,,,,gelb,red,r,0.0,r,1.0,0.5949342999374494,,,,,,,,,,1.0,8.0,20.0,8.0,205.97698430006855,,,,,,,,,,,,,,,,,205.96266670001205,206.3275911000092,207.12707350007256,207.11068679997695,,,,,,,,,,,,,,,,,,,,,,,,,,,,,,,,,,,207.1129348999821,207.12707350007256,207.12707350007256,207.7278391000582,r,1.0,0.5949342999374494,,,,,sub-203,1,stroop_test,59.29439667709075,
,,,,21.0,9.0,1.0,,,,,,,,,,,,,gelb,yellow,g,1.0,g,1.0,0.5937946999911219,,,,,,,,,,1.0,9.0,21.0,11.0,207.74273040005937,,,,,,,,,,,,,,,,,207.72812330001037,208.5432188999839,209.34242030000317,209.32639659999404,,,,,,,,,,,,,,,,,,,,,,,,,,,,,,,,,,,209.3268212999683,209.34242030000317,209.34242030000317,209.94337560003623,g,1.0,0.5937946999911219,,,,,sub-203,1,stroop_test,59.29439667709075,
,,,,22.0,10.0,1.0,,,,,,,,,,,,,blau,yellow,g,0.0,g,1.0,0.545296199969016,,,,,,,,,,1.0,10.0,22.0,7.0,209.95874899998307,,,,,,,,,,,,,,,,,209.9436712000752,210.3087927000597,211.12491820007563,211.10830399999395,,,,,,,,,,,,,,,,,,,,,,,,,,,,,,,,,,,211.11031680007,211.12491820007563,211.12491820007563,211.67547420004848,g,1.0,0.545296199969016,,,,,sub-203,1,stroop_test,59.29439667709075,
,,,,23.0,11.0,1.0,,,,,,,,,,,,,blau,blue,b,1.0,b,1.0,0.9497662000358104,,,,,,,,,,1.0,11.0,23.0,5.0,211.6907051000744,,,,,,,,,,,,,,,,,211.67578210006468,212.04171969997697,212.8406678000465,212.8247621000046,,,,,,,,,,,,,,,,,,,,,,,,,,,,,,,,,,,212.8251452000113,212.8406678000465,212.8406678000465,213.7922366000712,b,1.0,0.9497662000358104,,,,,sub-203,1,stroop_test,59.29439667709075,
,,,,24.0,0.0,2.0,,,,,,,,,,,,,rot,yellow,g,0.0,g,1.0,1.1936977000441402,,,,,,,,,,2.0,0.0,24.0,3.0,213.80630549998023,,,,,,,,,,,,,,,,,213.79255550005476,214.155972699984,214.95623200002592,214.93992260005325,,,,,,,,,,,,,,,,,,,,,,,,,,,,,,,,,,,214.9420274000149,214.95623200002592,214.95623200002592,216.15692049998324,g,1.0,1.1936977000441402,,,,,sub-203,1,stroop_test,59.29439667709075,
,,,,25.0,1.0,2.0,,,,,,,,,,,,,blau,blue,b,1.0,b,1.0,2.0048625000054017,,,,,,,,,,2.0,1.0,25.0,5.0,216.1724247999955,,,,,,,,,,,,,,,,,216.15726460004225,217.37172310007736,218.1872726000147,218.1724970000796,,,,,,,,,,,,,,,,,,,,,,,,,,,,,,,,,,,218.17474829999264,218.1872726000147,218.1872726000147,220.20401830004997,b,1.0,2.0048625000054017,,,,,sub-203,1,stroop_test,59.29439667709075,
,,,,26.0,2.0,2.0,,,,,,,,,,,,,blau,yellow,g,0.0,g,1.0,1.1718223999487236,,,,,,,,,,2.0,2.0,26.0,7.0,220.2201184000587,,,,,,,,,,,,,,,,,220.2043086000485,220.30289769999217,221.1027652000776,221.08752960001584,,,,,,,,,,,,,,,,,,,,,,,,,,,,,,,,,,,221.08792860002723,221.1027652000776,221.1027652000776,222.28686810005456,g,1.0,1.1718223999487236,,,,,sub-203,1,stroop_test,59.29439667709075,
,,,,27.0,3.0,2.0,,,,,,,,,,,,,blau,blue,b,1.0,b,1.0,1.5996191001031548,,,,,,,,,,2.0,3.0,27.0,6.0,222.30185529997107,,,,,,,,,,,,,,,,,222.28716880001596,223.10228320001625,223.90198219998277,223.88549430004787,,,,,,,,,,,,,,,,,,,,,,,,,,,,,,,,,,,223.88587030000053,223.90198219998277,223.90198219998277,225.5185173000209,b,1.0,1.5996191001031548,,,,,sub-203,1,stroop_test,59.29439667709075,
,,,,28.0,4.0,2.0,,,,,,,,,,,,,gelb,yellow,g,1.0,g,1.0,0.6606623999541625,,,,,,,,,,2.0,4.0,28.0,11.0,225.53342079999857,,,,,,,,,,,,,,,,,225.5188036999898,226.7328916999977,227.5330482000718,227.516910300008,,,,,,,,,,,,,,,,,,,,,,,,,,,,,,,,,,,227.51964890002276,227.5330482000718,227.5330482000718,228.20054650004025,g,1.0,0.6606623999541625,,,,,sub-203,1,stroop_test,59.29439667709075,
,,,,29.0,5.0,2.0,,,,,,,,,,,,,gelb,yellow,g,1.0,g,1.0,0.5146890000905842,,,,,,,,,,2.0,5.0,29.0,10.0,228.21545500005595,,,,,,,,,,,,,,,,,228.20086390001237,229.01512340002228,229.8151369000552,229.79901219997555,,,,,,,,,,,,,,,,,,,,,,,,,,,,,,,,,,,229.79940470005383,229.8151369000552,229.8151369000552,230.33283880003728,g,1.0,0.5146890000905842,,,,,sub-203,1,stroop_test,59.29439667709075,
,,,,30.0,6.0,2.0,,,,,,,,,,,,,rot,red,r,1.0,r,1.0,0.42502169997897,,,,,,,,,,2.0,6.0,30.0,0.0,230.3480350000318,,,,,,,,,,,,,,,,,230.3332971000345,231.1477298999671,231.9473147999961,231.9307377000805,,,,,,,,,,,,,,,,,,,,,,,,,,,,,,,,,,,231.9328136000549,231.9473147999961,231.9473147999961,232.3818622999825,r,1.0,0.42502169997897,,,,,sub-203,1,stroop_test,59.29439667709075,
,,,,31.0,7.0,2.0,,,,,,,,,,,,,gelb,blue,b,0.0,b,1.0,0.8945201999740675,,,,,,,,,,2.0,7.0,31.0,9.0,232.3966112000635,,,,,,,,,,,,,,,,,232.38216250005644,232.49691950005945,233.297070599976,233.2803175000008,,,,,,,,,,,,,,,,,,,,,,,,,,,,,,,,,,,233.28258070000447,233.297070599976,233.297070599976,234.19710200000557,b,1.0,0.8945201999740675,,,,,sub-203,1,stroop_test,59.29439667709075,
,,,,32.0,8.0,2.0,,,,,,,,,,,,,rot,red,r,1.0,r,1.0,1.228946499992162,,,,,,,,,,2.0,8.0,32.0,1.0,234.21270580007692,,,,,,,,,,,,,,,,,234.19748119998255,235.41212340001948,236.211954300059,236.19578429998364,,,,,,,,,,,,,,,,,,,,,,,,,,,,,,,,,,,236.19789750000928,236.211954300059,236.211954300059,237.4451615000144,r,1.0,1.228946499992162,,,,,sub-203,1,stroop_test,59.29439667709075,
,,,,33.0,9.0,2.0,,,,,,,,,,,,,blau,red,r,0.0,r,1.0,0.5099252999061719,,,,,,,,,,2.0,9.0,33.0,4.0,237.46102090005297,,,,,,,,,,,,,,,,,237.44546660000924,238.24365530000068,239.04375249997247,239.0280687999912,,,,,,,,,,,,,,,,,,,,,,,,,,,,,,,,,,,239.03017250006087,239.04375249997247,239.04375249997247,239.5604747000616,r,1.0,0.5099252999061719,,,,,sub-203,1,stroop_test,59.29439667709075,
,,,,34.0,10.0,2.0,,,,,,,,,,,,,gelb,red,r,0.0,r,1.0,0.4662238000892102,,,,,,,,,,2.0,10.0,34.0,8.0,239.57684680004604,,,,,,,,,,,,,,,,,239.56074750004336,239.90961069997863,240.7091642000014,240.6935263000196,,,,,,,,,,,,,,,,,,,,,,,,,,,,,,,,,,,240.69583630003035,240.7091642000014,240.7091642000014,241.17766360007224,r,1.0,0.4662238000892102,,,,,sub-203,1,stroop_test,59.29439667709075,
,,,,35.0,11.0,2.0,,,,,,,,,,,,,rot,blue,b,0.0,b,1.0,0.5172193000325933,,,,,,,,,,2.0,11.0,35.0,2.0,241.19249539996963,,,,,,,,,,,,,,,,,241.1779723999789,242.39260989998,243.20786710001997,243.19205730000976,,,,,,,,,,,,,,,,,,,,,,,,,,,,,,,,,,,243.19486290006896,243.20786710001997,243.20786710001997,243.7416037999792,b,1.0,0.5172193000325933,,,,,sub-203,1,stroop_test,59.29439667709075,
,,,,36.0,0.0,3.0,,,,,,,,,,,,,gelb,yellow,g,1.0,g,1.0,0.5712441001087427,,,,,,,,,,3.0,0.0,36.0,11.0,243.7579378000228,,,,,,,,,,,,,,,,,243.74189309997016,244.5409344000509,245.34018589998595,245.32423500006556,,,,,,,,,,,,,,,,,,,,,,,,,,,,,,,,,,,245.3268813000759,245.34018589998595,245.34018589998595,245.9246522000758,g,1.0,0.5712441001087427,,,,,sub-203,1,stroop_test,59.29439667709075,
,,,,37.0,1.0,3.0,,,,,,,,,,,,,gelb,red,r,0.0,r,1.0,0.6560631999745965,,,,,,,,,,3.0,1.0,37.0,8.0,245.94053520006128,,,,,,,,,,,,,,,,,245.92494489997625,246.04050820006523,246.85621270001863,246.84080930007624,,,,,,,,,,,,,,,,,,,,,,,,,,,,,,,,,,,246.8412238999736,246.85621270001863,246.85621270001863,247.5232565000188,r,1.0,0.6560631999745965,,,,,sub-203,1,stroop_test,59.29439667709075,
,,,,38.0,2.0,3.0,,,,,,,,,,,,,blau,red,r,0.0,r,1.0,0.5501927000004798,,,,,,,,,,3.0,2.0,38.0,4.0,247.53876690007743,,,,,,,,,,,,,,,,,247.52358380006623,248.3391308999853,249.1547251000302,249.13905360002536,,,,,,,,,,,,,,,,,,,,,,,,,,,,,,,,,,,249.14107060001697,249.1547251000302,249.1547251000302,249.72168349998535,r,1.0,0.5501927000004798,,,,,sub-203,1,stroop_test,59.29439667709075,
,,,,39.0,3.0,3.0,,,,,,,,,,,,,rot,red,r,1.0,r,1.0,0.5751691000768915,,,,,,,,,,3.0,3.0,39.0,0.0,249.7374546000501,,,,,,,,,,,,,,,,,249.72200000006703,250.08821980003268,250.9043807999697,250.88866519997828,,,,,,,,,,,,,,,,,,,,,,,,,,,,,,,,,,,250.8906810000772,250.9043807999697,250.9043807999697,251.4880557999713,r,1.0,0.5751691000768915,,,,,sub-203,1,stroop_test,59.29439667709075,
,,,,40.0,4.0,3.0,,,,,,,,,,,,,gelb,yellow,g,1.0,g,1.0,0.6479438999667764,,,,,,,,,,3.0,4.0,40.0,10.0,251.50344460003544,,,,,,,,,,,,,,,,,251.48834759998132,252.3032718000468,253.103053900064,253.08629180002023,,,,,,,,,,,,,,,,,,,,,,,,,,,,,,,,,,,253.0886606000131,253.103053900064,253.103053900064,253.75330019998364,g,1.0,0.6479438999667764,,,,,sub-203,1,stroop_test,59.29439667709075,
,,,,41.0,5.0,3.0,,,,,,,,,,,,,rot,blue,b,0.0,b,1.0,0.9889150999952108,,,,,,,,,,3.0,5.0,41.0,2.0,253.76980230002664,,,,,,,,,,,,,,,,,253.75357240007725,254.10236889997032,254.90147979999887,254.8854703999823,,,,,,,,,,,,,,,,,,,,,,,,,,,,,,,,,,,254.88737580005545,254.90147979999887,254.90147979999887,255.9033244000748,b,1.0,0.9889150999952108,,,,,sub-203,1,stroop_test,59.29439667709075,
,,,,42.0,6.0,3.0,,,,,,,,,,,,,rot,red,r,1.0,r,1.0,0.6310488000744954,,,,,,,,,,3.0,6.0,42.0,1.0,255.9187247999944,,,,,,,,,,,,,,,,,255.90364969999064,256.7176180999959,257.517399400007,257.5014661999885,,,,,,,,,,,,,,,,,,,,,,,,,,,,,,,,,,,257.5018442000728,257.517399400007,257.517399400007,258.15215970005374,r,1.0,0.6310488000744954,,,,,sub-203,1,stroop_test,59.29439667709075,
,,,,43.0,7.0,3.0,,,,,,,,,,,,,blau,yellow,g,0.0,g,1.0,1.0779131000163034,,,,,,,,,,3.0,7.0,43.0,7.0,258.1673434000695,,,,,,,,,,,,,,,,,258.1524480000371,258.9665351000149,259.7656598000321,259.7494012999814,,,,,,,,,,,,,,,,,,,,,,,,,,,,,,,,,,,259.7513389000669,259.7656598000321,259.7656598000321,260.84953840007074,g,1.0,1.0779131000163034,,,,,sub-203,1,stroop_test,59.29439667709075,
,,,,44.0,8.0,3.0,,,,,,,,,,,,,rot,yellow,g,0.0,g,1.0,0.5655836000805721,,,,,,,,,,3.0,8.0,44.0,3.0,260.8649615000468,,,,,,,,,,,,,,,,,260.8498523000162,260.9486890999833,261.7481299000792,261.7319397999672,,,,,,,,,,,,,,,,,,,,,,,,,,,,,,,,,,,261.73401070002,261.7481299000792,261.7481299000792,262.31580069998745,g,1.0,0.5655836000805721,,,,,sub-203,1,stroop_test,59.29439667709075,
,,,,45.0,9.0,3.0,,,,,,,,,,,,,gelb,blue,b,0.0,b,1.0,1.0485001999186352,,,,,,,,,,3.0,9.0,45.0,9.0,262.33110850001685,,,,,,,,,,,,,,,,,262.31608480005525,263.5308660999872,264.33051660005003,264.31447580002714,,,,,,,,,,,,,,,,,,,,,,,,,,,,,,,,,,,264.317286400008,264.33051660005003,264.33051660005003,265.38116480002645,b,1.0,1.0485001999186352,,,,,sub-203,1,stroop_test,59.29439667709075,
,,,,46.0,10.0,3.0,,,,,,,,,,,,,blau,blue,b,1.0,b,1.0,0.4800314999883994,,,,,,,,,,3.0,10.0,46.0,5.0,265.39590860006865,,,,,,,,,,,,,,,,,265.3814660999924,265.4960764000425,266.2966449999949,266.2796403999673,,,,,,,,,,,,,,,,,,,,,,,,,,,,,,,,,,,266.2816699000541,266.2966449999949,266.2966449999949,266.7802314000437,b,1.0,0.4800314999883994,,,,,sub-203,1,stroop_test,59.29439667709075,
,,,,47.0,11.0,3.0,,,,,,,,,,,,,blau,blue,b,1.0,b,1.0,0.4820744000608101,,,,,,,,,,3.0,11.0,47.0,6.0,266.79559810005594,,,,,,,,,,,,,,,,,266.78054150007665,267.5955379999941,268.39501109998673,268.37952840002254,,,,,,,,,,,,,,,,,,,,,,,,,,,,,,,,,,,268.3799970999826,268.39501109998673,268.39501109998673,268.8792166999774,b,1.0,0.4820744000608101,,,,,sub-203,1,stroop_test,59.29439667709075,
,,,,48.0,0.0,4.0,,,,,,,,,,,,,gelb,yellow,g,1.0,g,1.0,0.4926580999745056,,,,,,,,,,4.0,0.0,48.0,10.0,268.8946947000222,,,,,,,,,,,,,,,,,268.8795016000513,269.6938118999824,270.49337130005006,270.4781189999776,,,,,,,,,,,,,,,,,,,,,,,,,,,,,,,,,,,270.4803662999766,270.49337130005006,270.49337130005006,270.9946889000712,g,1.0,0.4926580999745056,,,,,sub-203,1,stroop_test,59.29439667709075,
,,,,49.0,1.0,4.0,,,,,,,,,,,,,rot,yellow,g,0.0,g,1.0,0.4560421999776736,,,,,,,,,,4.0,1.0,49.0,3.0,271.0099400000181,,,,,,,,,,,,,,,,,270.9949905000394,272.209166900022,273.00879110000096,272.99271730007604,,,,,,,,,,,,,,,,,,,,,,,,,,,,,,,,,,,272.9948340000119,273.00879110000096,273.00879110000096,273.4766398000065,g,1.0,0.4560421999776736,,,,,sub-203,1,stroop_test,59.29439667709075,
,,,,50.0,2.0,4.0,,,,,,,,,,,,,gelb,red,r,0.0,r,1.0,0.6182478000409901,,,,,,,,,,4.0,2.0,50.0,8.0,273.49208290001843,,,,,,,,,,,,,,,,,273.4769435999915,273.57527630007826,274.37495980004314,274.3593112999806,,,,,,,,,,,,,,,,,,,,,,,,,,,,,,,,,,,274.36157399998046,274.37495980004314,274.37495980004314,275.0090596000664,r,1.0,0.6182478000409901,,,,,sub-203,1,stroop_test,59.29439667709075,
,,,,51.0,3.0,4.0,,,,,,,,,,,,,rot,red,r,1.0,r,1.0,0.4632035000249743,,,,,,,,,,4.0,3.0,51.0,1.0,275.0243715000106,,,,,,,,,,,,,,,,,275.00933889998123,276.2242099000141,277.0233879999724,277.00742629996967,,,,,,,,,,,,,,,,,,,,,,,,,,,,,,,,,,,277.0093905000249,277.0233879999724,277.0233879999724,277.4911131999688,r,1.0,0.4632035000249743,,,,,sub-203,1,stroop_test,59.29439667709075,
,,,,52.0,4.0,4.0,,,,,,,,,,,,,gelb,blue,b,0.0,b,1.0,1.1405716999433937,,,,,,,,,,4.0,4.0,52.0,9.0,277.5064243000233,,,,,,,,,,,,,,,,,277.4914031000808,278.3066000000108,279.1056401999668,279.08958899998106,,,,,,,,,,,,,,,,,,,,,,,,,,,,,,,,,,,279.09282240003813,279.1056401999668,279.1056401999668,280.2563973000506,b,1.0,1.1405716999433937,,,,,sub-203,1,stroop_test,59.29439667709075,
,,,,53.0,5.0,4.0,,,,,,,,,,,,,blau,yellow,g,0.0,g,1.0,0.7886248999275267,,,,,,,,,,4.0,5.0,53.0,7.0,280.2716295999708,,,,,,,,,,,,,,,,,280.2567437000107,281.07127870002296,281.8713728999719,281.8555282000452,,,,,,,,,,,,,,,,,,,,,,,,,,,,,,,,,,,281.85757650004234,281.8713728999719,281.8713728999719,282.6717505999841,g,1.0,0.7886248999275267,,,,,sub-203,1,stroop_test,59.29439667709075,
,,,,54.0,6.0,4.0,,,,,,,,,,,,,blau,blue,b,1.0,b,1.0,0.7023344999179244,,,,,,,,,,4.0,6.0,54.0,5.0,282.687652099994,,,,,,,,,,,,,,,,,282.67212840006687,283.02085630001966,283.8197103000712,283.8042342000408,,,,,,,,,,,,,,,,,,,,,,,,,,,,,,,,,,,283.8046319000423,283.8197103000712,283.8197103000712,284.53690120007377,b,1.0,0.7023344999179244,,,,,sub-203,1,stroop_test,59.29439667709075,
,,,,55.0,7.0,4.0,,,,,,,,,,,,,blau,blue,b,1.0,b,1.0,0.6672995999688283,,,,,,,,,,4.0,7.0,55.0,6.0,284.552777600009,,,,,,,,,,,,,,,,,284.53717340005096,285.75220450002234,286.55239580001216,286.53636979998555,,,,,,,,,,,,,,,,,,,,,,,,,,,,,,,,,,,286.53680840006564,286.55239580001216,286.55239580001216,287.2357064000098,b,1.0,0.6672995999688283,,,,,sub-203,1,stroop_test,59.29439667709075,
,,,,56.0,8.0,4.0,,,,,,,,,,,,,rot,red,r,1.0,r,1.0,0.716756199952215,,,,,,,,,,4.0,8.0,56.0,0.0,287.25129949999973,,,,,,,,,,,,,,,,,287.2359719000524,287.5845760999946,288.38420219998807,288.3687152999919,,,,,,,,,,,,,,,,,,,,,,,,,,,,,,,,,,,288.37069260003045,288.38420219998807,288.38420219998807,289.1178401000798,r,1.0,0.716756199952215,,,,,sub-203,1,stroop_test,59.29439667709075,
,,,,57.0,9.0,4.0,,,,,,,,,,,,,rot,blue,b,0.0,b,1.0,1.2317643000278622,,,,,,,,,,4.0,9.0,57.0,2.0,289.13432229997125,,,,,,,,,,,,,,,,,289.1181101000402,289.4675529000815,290.2669911000412,290.25091160007287,,,,,,,,,,,,,,,,,,,,,,,,,,,,,,,,,,,290.25130590004846,290.2669911000412,290.2669911000412,291.50110800005496,b,1.0,1.2317643000278622,,,,,sub-203,1,stroop_test,59.29439667709075,
,,,,58.0,10.0,4.0,,,,,,,,,,,,,blau,red,r,0.0,r,1.0,0.7268350999802351,,,,,,,,,,4.0,10.0,58.0,4.0,291.5158586000325,,,,,,,,,,,,,,,,,291.50141050003003,292.7151388999773,293.515125200036,293.49935230007395,,,,,,,,,,,,,,,,,,,,,,,,,,,,,,,,,,,293.5013842000626,293.515125200036,293.515125200036,294.2491972000571,r,1.0,0.7268350999802351,,,,,sub-203,1,stroop_test,59.29439667709075,
,,,,59.0,11.0,4.0,,,,,,,,,,,,,gelb,yellow,g,1.0,g,1.0,0.6333156999899074,,,,,,,,,,4.0,11.0,59.0,11.0,294.2649433000479,,,,,,,,,,,,,,,,,294.24949770001695,295.0641747000627,295.8636476000538,295.84800520003773,,,,,,,,,,,,,,,,,,,,,,,,,,,,,,,,,,,295.8503366999794,295.8636476000538,295.8636476000538,296.4986795000732,g,1.0,0.6333156999899074,,,,,sub-203,1,stroop_test,59.29439667709075,
,,,,60.0,0.0,5.0,,,,,,,,,,,,,gelb,blue,b,0.0,b,1.0,0.7999978000298142,,,,,,,,,,5.0,0.0,60.0,9.0,296.51320140005555,,,,,,,,,,,,,,,,,296.4989628000185,296.6131977000041,297.41277190006804,297.3970474000089,,,,,,,,,,,,,,,,,,,,,,,,,,,,,,,,,,,297.39747079997323,297.41277190006804,297.41277190006804,298.21454169997014,b,1.0,0.7999978000298142,,,,,sub-203,1,stroop_test,59.29439667709075,
,,,,61.0,1.0,5.0,,,,,,,,,,,,,rot,red,r,1.0,r,1.0,1.5713384000118822,,,,,,,,,,5.0,1.0,61.0,1.0,298.2289172000019,,,,,,,,,,,,,,,,,298.21483980002813,298.5798896000488,299.3790592000587,299.36319629999343,,,,,,,,,,,,,,,,,,,,,,,,,,,,,,,,,,,299.36525290005375,299.3790592000587,299.3790592000587,300.9626779999817,r,1.0,1.5713384000118822,,,,,sub-203,1,stroop_test,59.29439667709075,
,,,,62.0,2.0,5.0,,,,,,,,,,,,,rot,yellow,g,0.0,g,1.0,0.8594525000080466,,,,,,,,,,5.0,2.0,62.0,3.0,300.9775864999974,,,,,,,,,,,,,,,,,300.962995100068,301.07742420001887,301.87791929999366,301.86106869997457,,,,,,,,,,,,,,,,,,,,,,,,,,,,,,,,,,,301.8614993999945,301.87791929999366,301.87791929999366,302.7447666000808,g,1.0,0.8594525000080466,,,,,sub-203,1,stroop_test,59.29439667709075,
,,,,63.0,3.0,5.0,,,,,,,,,,,,,gelb,yellow,g,1.0,g,1.0,0.6424145998898894,,,,,,,,,,5.0,3.0,63.0,11.0,302.7600008000154,,,,,,,,,,,,,,,,,302.7450595999835,303.1098286000779,303.90947650000453,303.8942570000654,,,,,,,,,,,,,,,,,,,,,,,,,,,,,,,,,,,303.89698820002377,303.90947650000453,303.90947650000453,304.5609832999762,g,1.0,0.6424145998898894,,,,,sub-203,1,stroop_test,59.29439667709075,
,,,,64.0,4.0,5.0,,,,,,,,,,,,,gelb,yellow,g,1.0,g,1.0,0.6295901000266895,,,,,,,,,,5.0,4.0,64.0,10.0,304.5759814999765,,,,,,,,,,,,,,,,,304.5612641000189,304.6756437000586,305.47600070002954,305.4593042000197,,,,,,,,,,,,,,,,,,,,,,,,,,,,,,,,,,,305.45970590005163,305.47600070002954,305.47600070002954,306.10986279998906,g,1.0,0.6295901000266895,,,,,sub-203,1,stroop_test,59.29439667709075,
,,,,65.0,5.0,5.0,,,,,,,,,,,,,rot,blue,b,0.0,b,1.0,0.8100798000814393,,,,,,,,,,5.0,5.0,65.0,2.0,306.1248704000609,,,,,,,,,,,,,,,,,306.1101465000538,306.4745007000165,307.2743016000604,307.25821050000377,,,,,,,,,,,,,,,,,,,,,,,,,,,,,,,,,,,307.26019090006594,307.2743016000604,307.2743016000604,308.0923229000764,b,1.0,0.8100798000814393,,,,,sub-203,1,stroop_test,59.29439667709075,
,,,,66.0,6.0,5.0,,,,,,,,,,,,,blau,red,r,0.0,r,1.0,0.5330593000398949,,,,,,,,,,5.0,6.0,66.0,4.0,308.10701170004904,,,,,,,,,,,,,,,,,308.0926706000464,308.2075901000062,309.0066410000436,308.9913467000006,,,,,,,,,,,,,,,,,,,,,,,,,,,,,,,,,,,308.9933577000629,309.0066410000436,309.0066410000436,309.54128720005974,r,1.0,0.5330593000398949,,,,,sub-203,1,stroop_test,59.29439667709075,
,,,,67.0,7.0,5.0,,,,,,,,,,,,,gelb,red,r,0.0,r,1.0,0.6701125000836328,,,,,,,,,,5.0,7.0,67.0,8.0,309.55634630005807,,,,,,,,,,,,,,,,,309.5415626000613,309.656514900038,310.45658220001496,310.4411540000001,,,,,,,,,,,,,,,,,,,,,,,,,,,,,,,,,,,310.4434178000083,310.45658220001496,310.45658220001496,311.1406289000297,r,1.0,0.6701125000836328,,,,,sub-203,1,stroop_test,59.29439667709075,
,,,,68.0,8.0,5.0,,,,,,,,,,,,,blau,yellow,g,0.0,g,1.0,0.9487141000572592,,,,,,,,,,5.0,8.0,68.0,7.0,311.1555393000599,,,,,,,,,,,,,,,,,311.1409225000534,311.506044400041,312.3223546000663,312.3065239000134,,,,,,,,,,,,,,,,,,,,,,,,,,,,,,,,,,,312.30855820002034,312.3223546000663,312.3223546000663,313.2728202000726,g,1.0,0.9487141000572592,,,,,sub-203,1,stroop_test,59.29439667709075,
,,,,69.0,9.0,5.0,,,,,,,,,,,,,rot,red,r,1.0,r,1.0,0.6904913999605924,,,,,,,,,,5.0,9.0,69.0,0.0,313.2881174000213,,,,,,,,,,,,,,,,,313.27311660000123,313.38776700000744,314.1872821999714,314.17109479999635,,,,,,,,,,,,,,,,,,,,,,,,,,,,,,,,,,,314.173470800044,314.1872821999714,314.1872821999714,314.88801230001263,r,1.0,0.6904913999605924,,,,,sub-203,1,stroop_test,59.29439667709075,
,,,,70.0,10.0,5.0,,,,,,,,,,,,,blau,blue,b,1.0,b,1.0,0.7654381000902504,,,,,,,,,,5.0,10.0,70.0,5.0,314.9036589000607,,,,,,,,,,,,,,,,,314.8883187000174,316.1041171000106,316.9196693999693,316.9038263000548,,,,,,,,,,,,,,,,,,,,,,,,,,,,,,,,,,,316.9059955000412,316.9196693999693,316.9196693999693,317.6875955000287,b,1.0,0.7654381000902504,,,,,sub-203,1,stroop_test,59.29439667709075,
,,,,71.0,11.0,5.0,,,,,,,,,,,,,blau,blue,b,1.0,b,1.0,0.45170989993494,,,,,,,,,,5.0,11.0,71.0,6.0,317.70287310006097,,,,,,,,,,,,,,,,,317.6878920000745,318.9020636000205,319.7011615000665,319.6857851999812,,,,,,,,,,,,,,,,,,,,,,,,,,,,,,,,,,,319.6861856000032,319.7011615000665,319.7011615000665,320.1687959000701,b,1.0,0.45170989993494,,,,,sub-203,1,stroop_test,59.29439667709075,
,,,,72.0,0.0,6.0,,,,,,,,,,,,,blau,blue,b,1.0,b,1.0,0.6149306000443175,,,,,,,,,,6.0,0.0,72.0,5.0,320.18456950003747,,,,,,,,,,,,,,,,,320.16909640003,321.3843744000187,322.2004629999865,322.1845906000817,,,,,,,,,,,,,,,,,,,,,,,,,,,,,,,,,,,322.18519490002654,322.2004629999865,322.2004629999865,322.8173560000723,b,1.0,0.6149306000443175,,,,,sub-203,1,stroop_test,59.29439667709075,
,,,,73.0,1.0,6.0,,,,,,,,,,,,,gelb,blue,b,0.0,b,1.0,0.6790309000061825,,,,,,,,,,6.0,1.0,73.0,9.0,322.8329823000822,,,,,,,,,,,,,,,,,322.81762029998936,324.0161942000268,324.815376500017,324.79989939997904,,,,,,,,,,,,,,,,,,,,,,,,,,,,,,,,,,,324.8026509999763,324.815376500017,324.815376500017,325.4996557000559,b,1.0,0.6790309000061825,,,,,sub-203,1,stroop_test,59.29439667709075,
,,,,74.0,2.0,6.0,,,,,,,,,,,,,rot,blue,b,0.0,b,1.0,0.4907866000430658,,,,,,,,,,6.0,2.0,74.0,2.0,325.5147696000058,,,,,,,,,,,,,,,,,325.5000284999842,325.59848819999024,326.3980469000526,326.3823424000293,,,,,,,,,,,,,,,,,,,,,,,,,,,,,,,,,,,326.3843707999913,326.3980469000526,326.3980469000526,326.8982745000394,b,1.0,0.4907866000430658,,,,,sub-203,1,stroop_test,59.29439667709075,
,,,,75.0,3.0,6.0,,,,,,,,,,,,,rot,yellow,g,0.0,g,1.0,0.6253198999911547,,,,,,,,,,6.0,3.0,75.0,3.0,326.91409860004205,,,,,,,,,,,,,,,,,326.8985702000791,327.69699379999656,328.49714280001353,328.4812576000113,,,,,,,,,,,,,,,,,,,,,,,,,,,,,,,,,,,328.48167970008217,328.49714280001353,328.49714280001353,329.130846300046,g,1.0,0.6253198999911547,,,,,sub-203,1,stroop_test,59.29439667709075,
,,,,76.0,4.0,6.0,,,,,,,,,,,,,rot,red,r,1.0,r,1.0,0.5284470999613404,,,,,,,,,,6.0,4.0,76.0,0.0,329.14627859997563,,,,,,,,,,,,,,,,,329.13126519997604,329.9465467999689,330.745913599967,330.7302499000216,,,,,,,,,,,,,,,,,,,,,,,,,,,,,,,,,,,330.7306297000032,330.745913599967,330.745913599967,331.2797437000554,r,1.0,0.5284470999613404,,,,,sub-203,1,stroop_test,59.29439667709075,
,,,,77.0,5.0,6.0,,,,,,,,,,,,,blau,blue,b,1.0,b,1.0,1.168225200031884,,,,,,,,,,6.0,5.0,77.0,6.0,331.29502499999944,,,,,,,,,,,,,,,,,331.2800270000007,331.3957681000465,332.2117496000137,332.19518170005176,,,,,,,,,,,,,,,,,,,,,,,,,,,,,,,,,,,332.1971510000294,332.2117496000137,332.2117496000137,333.3953957000049,b,1.0,1.168225200031884,,,,,sub-203,1,stroop_test,59.29439667709075,
,,,,78.0,6.0,6.0,,,,,,,,,,,,,gelb,yellow,g,1.0,g,1.0,0.5193847001064569,,,,,,,,,,6.0,6.0,78.0,11.0,333.41065620002337,,,,,,,,,,,,,,,,,333.3957031000173,334.2112372000702,335.0097813999746,334.9944573000539,,,,,,,,,,,,,,,,,,,,,,,,,,,,,,,,,,,334.9969083999749,335.0097813999746,335.0097813999746,335.54379090003204,g,1.0,0.5193847001064569,,,,,sub-203,1,stroop_test,59.29439667709075,
,,,,79.0,7.0,6.0,,,,,,,,,,,,,gelb,yellow,g,1.0,g,1.0,0.510042899986729,,,,,,,,,,6.0,7.0,79.0,10.0,335.5603282999946,,,,,,,,,,,,,,,,,335.5440557000693,336.34319180005696,337.1427377000218,337.12688990007155,,,,,,,,,,,,,,,,,,,,,,,,,,,,,,,,,,,337.1273944000713,337.1427377000218,337.1427377000218,337.660151100019,g,1.0,0.510042899986729,,,,,sub-203,1,stroop_test,59.29439667709075,
,,,,80.0,8.0,6.0,,,,,,,,,,,,,rot,red,r,1.0,r,1.0,0.5555786999175325,,,,,,,,,,6.0,8.0,80.0,1.0,337.6752047999762,,,,,,,,,,,,,,,,,337.6605501000304,338.8745246999897,339.67400890006684,339.65913050004747,,,,,,,,,,,,,,,,,,,,,,,,,,,,,,,,,,,339.6611972000683,339.67400890006684,339.67400890006684,340.2419184000464,r,1.0,0.5555786999175325,,,,,sub-203,1,stroop_test,59.29439667709075,
,,,,81.0,9.0,6.0,,,,,,,,,,,,,blau,yellow,g,0.0,g,1.0,1.276497400016524,,,,,,,,,,6.0,9.0,81.0,7.0,340.2570210000267,,,,,,,,,,,,,,,,,340.2422223000321,341.4569112000754,342.2565963000525,342.24069770006463,,,,,,,,,,,,,,,,,,,,,,,,,,,,,,,,,,,342.24267740000505,342.2565963000525,342.2565963000525,343.53953090007417,g,1.0,1.276497400016524,,,,,sub-203,1,stroop_test,59.29439667709075,
,,,,82.0,10.0,6.0,,,,,,,,,,,,,gelb,red,r,0.0,r,1.0,0.7222451999550685,,,,,,,,,,6.0,10.0,82.0,8.0,343.55538490007166,,,,,,,,,,,,,,,,,343.53985329996794,343.8888779999688,344.6886226000497,344.672591199982,,,,,,,,,,,,,,,,,,,,,,,,,,,,,,,,,,,344.6752998000011,344.6886226000497,344.6886226000497,345.42216000007465,r,1.0,0.7222451999550685,,,,,sub-203,1,stroop_test,59.29439667709075,
,,,,83.0,11.0,6.0,,,,,,,,,,,,,blau,red,r,0.0,r,1.0,1.071494699921459,,,,,,,,,,6.0,11.0,83.0,4.0,345.4376339999726,,,,,,,,,,,,,,,,,345.4224447000306,346.2374712000601,347.03735790005885,347.021196500049,,,,,,,,,,,,,,,,,,,,,,,,,,,,,,,,,,,347.0233074000571,347.03735790005885,347.03735790005885,348.1216329999734,r,1.0,1.071494699921459,,,,,sub-203,1,stroop_test,59.29439667709075,
,,,,84.0,0.0,7.0,,,,,,,,,,,,,blau,blue,b,1.0,b,1.0,0.8520546000218019,,,,,,,,,,7.0,0.0,84.0,5.0,348.13622159999795,,,,,,,,,,,,,,,,,348.1219302000245,348.2366375999991,349.03622570005246,349.01991150004324,,,,,,,,,,,,,,,,,,,,,,,,,,,,,,,,,,,349.02050470002,349.03622570005246,349.03622570005246,349.90310120000504,b,1.0,0.8520546000218019,,,,,sub-203,1,stroop_test,59.29439667709075,
,,,,85.0,1.0,7.0,,,,,,,,,,,,,gelb,yellow,g,1.0,g,1.0,0.5740047000581399,,,,,,,,,,7.0,1.0,85.0,10.0,349.9191252000164,,,,,,,,,,,,,,,,,349.90339430002496,351.1180151000153,351.918344900012,351.90247169998474,,,,,,,,,,,,,,,,,,,,,,,,,,,,,,,,,,,351.9048864999786,351.918344900012,351.918344900012,352.5018215000164,g,1.0,0.5740047000581399,,,,,sub-203,1,stroop_test,59.29439667709075,
,,,,86.0,2.0,7.0,,,,,,,,,,,,,blau,red,r,0.0,r,1.0,0.8629600999411196,,,,,,,,,,7.0,2.0,86.0,4.0,352.51723730005324,,,,,,,,,,,,,,,,,352.5021162000485,352.60050780000165,353.4010496999836,353.3855133000761,,,,,,,,,,,,,,,,,,,,,,,,,,,,,,,,,,,353.3875399000244,353.4010496999836,353.4010496999836,354.268180300016,r,1.0,0.8629600999411196,,,,,sub-203,1,stroop_test,59.29439667709075,
,,,,87.0,3.0,7.0,,,,,,,,,,,,,rot,yellow,g,0.0,g,1.0,0.9554688999196514,,,,,,,,,,7.0,3.0,87.0,3.0,354.2831362000434,,,,,,,,,,,,,,,,,354.26848149998114,355.48333040007856,356.28202779998537,356.2663711999776,,,,,,,,,,,,,,,,,,,,,,,,,,,,,,,,,,,356.2684029000811,356.28202779998537,356.28202779998537,357.2491056000581,g,1.0,0.9554688999196514,,,,,sub-203,1,stroop_test,59.29439667709075,
,,,,88.0,4.0,7.0,,,,,,,,,,,,,rot,red,r,1.0,r,1.0,0.6607414999743924,,,,,,,,,,7.0,4.0,88.0,0.0,357.26496890001,,,,,,,,,,,,,,,,,357.2494775999803,357.3481637000805,358.147996100015,358.13221010006964,,,,,,,,,,,,,,,,,,,,,,,,,,,,,,,,,,,358.1326922000153,358.147996100015,358.147996100015,358.8150699000107,r,1.0,0.6607414999743924,,,,,sub-203,1,stroop_test,59.29439667709075,
,,,,89.0,5.0,7.0,,,,,,,,,,,,,blau,yellow,g,0.0,g,1.0,0.9183337999274954,,,,,,,,,,7.0,5.0,89.0,7.0,358.83110309997573,,,,,,,,,,,,,,,,,358.8154989000177,359.1808461999753,359.9807580000488,359.96482890006155,,,,,,,,,,,,,,,,,,,,,,,,,,,,,,,,,,,359.96697680000216,359.9807580000488,359.9807580000488,360.9139702999965,g,1.0,0.9183337999274954,,,,,sub-203,1,stroop_test,59.29439667709075,
,,,,90.0,6.0,7.0,,,,,,,,,,,,,blau,blue,b,1.0,b,1.0,0.6554084999952465,,,,,,,,,,7.0,6.0,90.0,6.0,360.9296527999686,,,,,,,,,,,,,,,,,360.9142617000034,361.2627899000654,362.0622912000399,362.0460368000204,,,,,,,,,,,,,,,,,,,,,,,,,,,,,,,,,,,362.04639190004673,362.0622912000399,362.0622912000399,362.7304810000351,b,1.0,0.6554084999952465,,,,,sub-203,1,stroop_test,59.29439667709075,
,,,,91.0,7.0,7.0,,,,,,,,,,,,,gelb,yellow,g,1.0,g,1.0,0.7886067000217736,,,,,,,,,,7.0,7.0,91.0,11.0,362.74522100004833,,,,,,,,,,,,,,,,,362.73077190003823,363.0952115000691,363.8949771000771,363.87961760000326,,,,,,,,,,,,,,,,,,,,,,,,,,,,,,,,,,,363.8823384999996,363.8949771000771,363.8949771000771,364.6954113000538,g,1.0,0.7886067000217736,,,,,sub-203,1,stroop_test,59.29439667709075,
,,,,92.0,8.0,7.0,,,,,,,,,,,,,gelb,red,r,0.0,r,1.0,0.6301611999515444,,,,,,,,,,7.0,8.0,92.0,8.0,364.7109535000054,,,,,,,,,,,,,,,,,364.6956874000607,364.8115946999751,365.61091759998817,365.5949414999923,,,,,,,,,,,,,,,,,,,,,,,,,,,,,,,,,,,365.5953847999917,365.61091759998817,365.61091759998817,366.2450705000665,r,1.0,0.6301611999515444,,,,,sub-203,1,stroop_test,59.29439667709075,
,,,,93.0,9.0,7.0,,,,,,,,,,,,,rot,blue,b,0.0,b,1.0,0.8723663999699056,,,,,,,,,,7.0,9.0,93.0,2.0,366.2603754000738,,,,,,,,,,,,,,,,,366.24537130002864,366.3603577000322,367.1603443999775,367.1439633000409,,,,,,,,,,,,,,,,,,,,,,,,,,,,,,,,,,,367.1459742999869,367.1603443999775,367.1603443999775,368.0444603000069,b,1.0,0.8723663999699056,,,,,sub-203,1,stroop_test,59.29439667709075,
,,,,94.0,10.0,7.0,,,,,,,,,,,,,gelb,blue,b,0.0,b,1.0,0.6501512000104412,,,,,,,,,,7.0,10.0,94.0,9.0,368.0604247000301,,,,,,,,,,,,,,,,,368.0447757000802,368.16020040004514,368.9757113000378,368.9599095999729,,,,,,,,,,,,,,,,,,,,,,,,,,,,,,,,,,,368.962475300068,368.9757113000378,368.9757113000378,369.6276555000805,b,1.0,0.6501512000104412,,,,,sub-203,1,stroop_test,59.29439667709075,
,,,,95.0,11.0,7.0,,,,,,,,,,,,,rot,red,r,1.0,r,1.0,0.5319442000472918,,,,,,,,,,7.0,11.0,95.0,1.0,369.64271589997225,,,,,,,,,,,,,,,,,369.62794829998165,370.4414900999982,371.2417530000676,371.225506399991,,,,,,,,,,,,,,,,,,,,,,,,,,,,,,,,,,,371.2276561000617,371.2417530000676,371.2417530000676,371.7760139000602,r,1.0,0.5319442000472918,,,,,sub-203,1,stroop_test,59.29439667709075,
,,,,96.0,0.0,8.0,,,,,,,,,,,,,gelb,yellow,g,1.0,g,1.0,0.8111986999865621,,,,,,,,,,8.0,0.0,96.0,11.0,371.7905209000455,,,,,,,,,,,,,,,,,371.7763108999934,371.8908622000599,372.6903897000011,372.674737000023,,,,,,,,,,,,,,,,,,,,,,,,,,,,,,,,,,,372.6769527000142,372.6903897000011,372.6903897000011,373.507390200044,g,1.0,0.8111986999865621,,,,,sub-203,1,stroop_test,59.29439667709075,
,,,,97.0,1.0,8.0,,,,,,,,,,,,,blau,blue,b,1.0,b,1.0,0.771817300003022,,,,,,,,,,8.0,1.0,97.0,6.0,373.5230210999725,,,,,,,,,,,,,,,,,373.5076801000396,373.8566949000815,374.6560594000621,374.6403743000701,,,,,,,,,,,,,,,,,,,,,,,,,,,,,,,,,,,374.6423779000761,374.6560594000621,374.6560594000621,375.43959820002783,b,1.0,0.771817300003022,,,,,sub-203,1,stroop_test,59.29439667709075,
,,,,98.0,2.0,8.0,,,,,,,,,,,,,gelb,red,r,0.0,r,1.0,0.5698695000028238,,,,,,,,,,8.0,2.0,98.0,8.0,375.45641169999726,,,,,,,,,,,,,,,,,375.4398752000416,375.7885381000815,376.5891388000455,376.57271540001966,,,,,,,,,,,,,,,,,,,,,,,,,,,,,,,,,,,376.5763761000708,376.5891388000455,376.5891388000455,377.1728132000426,r,1.0,0.5698695000028238,,,,,sub-203,1,stroop_test,59.29439667709075,
,,,,99.0,3.0,8.0,,,,,,,,,,,,,gelb,yellow,g,1.0,g,1.0,0.9829375999979676,,,,,,,,,,8.0,3.0,99.0,10.0,377.1883091999917,,,,,,,,,,,,,,,,,377.173150000046,377.5376315000467,378.3379613000434,378.3217075000284,,,,,,,,,,,,,,,,,,,,,,,,,,,,,,,,,,,378.3222594000399,378.3379613000434,378.3379613000434,379.33864650002215,g,1.0,0.9829375999979676,,,,,sub-203,1,stroop_test,59.29439667709075,
,,,,100.0,4.0,8.0,,,,,,,,,,,,,gelb,blue,b,0.0,b,1.0,0.7019576999591663,,,,,,,,,,8.0,4.0,100.0,9.0,379.3533194999909,,,,,,,,,,,,,,,,,379.3389419000596,380.15361839998513,380.9531047000783,380.93769729998894,,,,,,,,,,,,,,,,,,,,,,,,,,,,,,,,,,,380.9381113999989,380.9531047000783,380.9531047000783,381.6699635999976,b,1.0,0.7019576999591663,,,,,sub-203,1,stroop_test,59.29439667709075,
,,,,101.0,5.0,8.0,,,,,,,,,,,,,blau,blue,b,1.0,b,1.0,0.5777125000022352,,,,,,,,,,8.0,5.0,101.0,5.0,381.6860644000117,,,,,,,,,,,,,,,,,381.6702648000792,381.7691585000139,382.56933019997086,382.5531489000423,,,,,,,,,,,,,,,,,,,,,,,,,,,,,,,,,,,382.5558831000235,382.56933019997086,382.56933019997086,383.15274210006464,b,1.0,0.5777125000022352,,,,,sub-203,1,stroop_test,59.29439667709075,
,,,,102.0,6.0,8.0,,,,,,,,,,,,,rot,blue,b,0.0,b,1.0,0.5608533000340685,,,,,,,,,,8.0,6.0,102.0,2.0,383.1679868000792,,,,,,,,,,,,,,,,,383.15302540000994,383.2521770000458,384.0510344000068,384.0355384000577,,,,,,,,,,,,,,,,,,,,,,,,,,,,,,,,,,,384.03751649998594,384.0510344000068,384.0510344000068,384.6182394999778,b,1.0,0.5608533000340685,,,,,sub-203,1,stroop_test,59.29439667709075,
,,,,103.0,7.0,8.0,,,,,,,,,,,,,blau,red,r,0.0,r,1.0,0.5614957000361755,,,,,,,,,,8.0,7.0,103.0,4.0,384.634095699992,,,,,,,,,,,,,,,,,384.6185086000478,384.9681029000785,385.76756629999727,385.7512480000733,,,,,,,,,,,,,,,,,,,,,,,,,,,,,,,,,,,385.7533251000568,385.76756629999727,385.76756629999727,386.3344703000039,r,1.0,0.5614957000361755,,,,,sub-203,1,stroop_test,59.29439667709075,
,,,,104.0,8.0,8.0,,,,,,,,,,,,,rot,yellow,g,0.0,g,1.0,0.7738745999522507,,,,,,,,,,8.0,8.0,104.0,3.0,386.3496736000525,,,,,,,,,,,,,,,,,386.33480000006966,386.4504880000604,387.2663827000652,387.2505165999755,,,,,,,,,,,,,,,,,,,,,,,,,,,,,,,,,,,387.2525582000381,387.2663827000652,387.2663827000652,388.0498270000098,g,1.0,0.7738745999522507,,,,,sub-203,1,stroop_test,59.29439667709075,
,,,,105.0,9.0,8.0,,,,,,,,,,,,,blau,yellow,g,0.0,g,1.0,0.516836200025864,,,,,,,,,,8.0,9.0,105.0,7.0,388.06546930002514,,,,,,,,,,,,,,,,,388.0501114000799,388.1663166000508,388.9651878000004,388.9493437000783,,,,,,,,,,,,,,,,,,,,,,,,,,,,,,,,,,,388.9513287000591,388.9651878000004,388.9651878000004,389.4836608000333,g,1.0,0.516836200025864,,,,,sub-203,1,stroop_test,59.29439667709075,
,,,,106.0,10.0,8.0,,,,,,,,,,,,,rot,red,r,1.0,r,1.0,0.5548670999705791,,,,,,,,,,8.0,10.0,106.0,0.0,389.49873910006136,,,,,,,,,,,,,,,,,389.48394200007897,390.6978814000031,391.4971960000694,391.4810059000738,,,,,,,,,,,,,,,,,,,,,,,,,,,,,,,,,,,391.4831312000752,391.4971960000694,391.4971960000694,392.0643563000485,r,1.0,0.5548670999705791,,,,,sub-203,1,stroop_test,59.29439667709075,
,,,,107.0,11.0,8.0,,,,,,,,,,,,,rot,red,r,1.0,r,1.0,0.4469874000642448,,,,,,,,,,8.0,11.0,107.0,1.0,392.0799320000224,,,,,,,,,,,,,,,,,392.0646283000242,392.8636395999929,393.6626338000642,393.6467565000057,,,,,,,,,,,,,,,,,,,,,,,,,,,,,,,,,,,393.647373600048,393.6626338000642,393.6626338000642,394.1139916999964,r,1.0,0.4469874000642448,,,,,sub-203,1,stroop_test,59.29439667709075,
,,,,108.0,0.0,9.0,,,,,,,,,,,,,blau,yellow,g,0.0,g,1.0,0.5374561999924481,,,,,,,,,,9.0,0.0,108.0,7.0,394.1296780999983,,,,,,,,,,,,,,,,,394.1144124000566,394.9285877000075,395.72893069998827,395.7131700000027,,,,,,,,,,,,,,,,,,,,,,,,,,,,,,,,,,,395.7156362000387,395.72893069998827,395.72893069998827,396.2793727000244,g,1.0,0.5374561999924481,,,,,sub-203,1,stroop_test,59.29439667709075,
,,,,109.0,1.0,9.0,,,,,,,,,,,,,rot,yellow,g,0.0,g,1.0,0.449781300034374,,,,,,,,,,9.0,1.0,109.0,3.0,396.2945160000818,,,,,,,,,,,,,,,,,396.2796586999903,396.6447020000778,397.4446215999778,397.4285811000736,,,,,,,,,,,,,,,,,,,,,,,,,,,,,,,,,,,397.430632899981,397.4446215999778,397.4446215999778,397.8960428000428,g,1.0,0.449781300034374,,,,,sub-203,1,stroop_test,59.29439667709075,
,,,,110.0,2.0,9.0,,,,,,,,,,,,,blau,red,r,0.0,r,1.0,0.7060601999983191,,,,,,,,,,9.0,2.0,110.0,4.0,397.9103643000126,,,,,,,,,,,,,,,,,397.8963742000051,398.7098730000434,399.5102926000254,399.4941341000376,,,,,,,,,,,,,,,,,,,,,,,,,,,,,,,,,,,399.496489000041,399.5102926000254,399.5102926000254,400.227326799999,r,1.0,0.7060601999983191,,,,,sub-203,1,stroop_test,59.29439667709075,
,,,,111.0,3.0,9.0,,,,,,,,,,,,,rot,red,r,1.0,r,1.0,0.4982134999008849,,,,,,,,,,9.0,3.0,111.0,0.0,400.24249219999183,,,,,,,,,,,,,,,,,400.22762929997407,400.3428882000735,401.1427016999805,401.1258150000358,,,,,,,,,,,,,,,,,,,,,,,,,,,,,,,,,,,401.1277154000709,401.1427016999805,401.1427016999805,401.64346310007386,r,1.0,0.4982134999008849,,,,,sub-203,1,stroop_test,59.29439667709075,
,,,,112.0,4.0,9.0,,,,,,,,,,,,,gelb,red,r,0.0,r,1.0,0.655579200014472,,,,,,,,,,9.0,4.0,112.0,8.0,401.65843449998647,,,,,,,,,,,,,,,,,401.6437497000443,401.75902480003424,402.575436300016,402.55939650000073,,,,,,,,,,,,,,,,,,,,,,,,,,,,,,,,,,,402.5618972000666,402.575436300016,402.575436300016,403.2427844000049,r,1.0,0.655579200014472,,,,,sub-203,1,stroop_test,59.29439667709075,
,,,,113.0,5.0,9.0,,,,,,,,,,,,,blau,blue,b,1.0,b,1.0,0.5146198999136686,,,,,,,,,,9.0,5.0,113.0,6.0,403.2580782000441,,,,,,,,,,,,,,,,,403.2432564999908,403.3576081000501,404.1575494999997,404.1418673000298,,,,,,,,,,,,,,,,,,,,,,,,,,,,,,,,,,,404.1445276000304,404.1575494999997,404.1575494999997,404.67555370007176,b,1.0,0.5146198999136686,,,,,sub-203,1,stroop_test,59.29439667709075,
,,,,114.0,6.0,9.0,,,,,,,,,,,,,gelb,blue,b,0.0,b,1.0,0.4789644000120461,,,,,,,,,,9.0,6.0,114.0,9.0,404.69092930003535,,,,,,,,,,,,,,,,,404.6758825000143,405.0409471000312,405.84109240002,405.82434390007984,,,,,,,,,,,,,,,,,,,,,,,,,,,,,,,,,,,405.82657949998975,405.84109240002,405.84109240002,406.3238040000433,b,1.0,0.4789644000120461,,,,,sub-203,1,stroop_test,59.29439667709075,
,,,,115.0,7.0,9.0,,,,,,,,,,,,,rot,blue,b,0.0,b,1.0,0.5433051999425516,,,,,,,,,,9.0,7.0,115.0,2.0,406.3394093000097,,,,,,,,,,,,,,,,,406.3241052000085,406.6730803999817,407.4732750999974,407.4561660999898,,,,,,,,,,,,,,,,,,,,,,,,,,,,,,,,,,,407.458544800058,407.4732750999974,407.4732750999974,408.02255640004296,b,1.0,0.5433051999425516,,,,,sub-203,1,stroop_test,59.29439667709075,
,,,,116.0,8.0,9.0,,,,,,,,,,,,,gelb,yellow,g,1.0,g,1.0,0.397107099997811,,,,,,,,,,9.0,8.0,116.0,10.0,408.0386324999854,,,,,,,,,,,,,,,,,408.0228567000013,408.3883584999712,409.188611999969,409.1716611000011,,,,,,,,,,,,,,,,,,,,,,,,,,,,,,,,,,,409.17384820000734,409.188611999969,409.188611999969,409.58951269998215,g,1.0,0.397107099997811,,,,,sub-203,1,stroop_test,59.29439667709075,
,,,,117.0,9.0,9.0,,,,,,,,,,,,,rot,red,r,1.0,r,1.0,0.5313643000554293,,,,,,,,,,9.0,9.0,117.0,1.0,409.6048727000598,,,,,,,,,,,,,,,,,409.5899111999897,409.7068201000802,410.5210080000106,410.5048587999772,,,,,,,,,,,,,,,,,,,,,,,,,,,,,,,,,,,410.5068210000172,410.5210080000106,410.5210080000106,411.05460969998967,r,1.0,0.5313643000554293,,,,,sub-203,1,stroop_test,59.29439667709075,
,,,,118.0,10.0,9.0,,,,,,,,,,,,,gelb,yellow,g,1.0,g,1.0,0.5757299000397325,,,,,,,,,,9.0,10.0,118.0,11.0,411.0708216000348,,,,,,,,,,,,,,,,,411.054902200005,412.2703604999697,413.0700166000752,413.053534100065,,,,,,,,,,,,,,,,,,,,,,,,,,,,,,,,,,,413.0557851999765,413.0700166000752,413.0700166000752,413.65355310007,g,1.0,0.5757299000397325,,,,,sub-203,1,stroop_test,59.29439667709075,
,,,,119.0,11.0,9.0,,,,,,,,,,,,,blau,blue,b,1.0,b,1.0,1.079505900037475,,,,,,,,,,9.0,11.0,119.0,5.0,413.6687691999832,,,,,,,,,,,,,,,,,413.6538426000625,414.4698405000381,415.2847247000318,415.26937640004326,,,,,,,,,,,,,,,,,,,,,,,,,,,,,,,,,,,415.27136290003546,415.2847247000318,415.2847247000318,416.3680854999693,b,1.0,1.079505900037475,,,,,sub-203,1,stroop_test,59.29439667709075,
,,,,,,,,,,,,,,,,,,,,,,,,,,,,,,,,,,,,,,,,,,,,,,,,,,,,,,,,,,,,,,,,,,,,,,,,,,,,,,,,,,,,,,,,,,,,,,,,,,,,,,416.3682773000328,416.384091700078,421.3817186000524,sub-203,1,stroop_test,59.29439667709075,
