wordCTK,colorCTK,corrAnsCTK,congruentCTK,thisN,thisTrialN,thisRepN,keyResp_CTK.keys,keyResp_CTK.corr,keyResp_CTK.rt,keyResp_CTK.duration,wordPractice,colorPractice,corrAnsPractice,congruentPractice,respPractice.keys,respPractice.corr,respPractice.rt,respPractice.duration,word,color,corrAns,congruent,keyResp_test_run.keys,keyResp_test_run.corr,keyResp_test_run.rt,keyResp_test_run.duration,trials_CTK.thisRepN,trials_CTK.thisTrialN,trials_CTK.thisN,trials_CTK.thisIndex,trials_practice.thisRepN,trials_practice.thisTrialN,trials_practice.thisN,trials_practice.thisIndex,trials_test.thisRepN,trials_test.thisTrialN,trials_test.thisN,trials_test.thisIndex,thisRow.t,notes,instruction.started,instr_text.started,instr_image.started,instr_resp.started,instruction.stopped,instr_resp.keys,instr_resp.rt,instr_resp.duration,instr_color_to_key.started,instr_ctk.started,resp_ctk.started,instr_color_to_key.stopped,resp_ctk.keys,resp_ctk.rt,resp_ctk.duration,ITI.started,fixcross.started,fixcross.stopped,ITI.stopped,color_to_key_run.started,stimulus_CTK.started,keyResp_CTK.started,color_to_key_run.stopped,trials_CTK.keyResp_CTK.keys,trials_CTK.keyResp_CTK.corr,trials_CTK.keyResp_CTK.rt,trials_CTK.keyResp_CTK.duration,instr_practice.started,instr_practice_text.started,instr_practice_resp.started,instr_practice.stopped,instr_practice_resp.keys,instr_practice_resp.rt,instr_practice_resp.duration,practice_run.started,stimulus_practice.started,respPractice.started,practice_run.stopped,trials_practice.respPractice.keys,trials_practice.respPractice.corr,trials_practice.respPractice.rt,trials_practice.respPractice.duration,feedback.started,textFeedback.started,feedback.stopped,textFeedback.stopped,instr_test.started,instr_test_text.started,instr_test_resp.started,instr_test.stopped,instr_test_resp.keys,instr_test_resp.rt,instr_test_resp.duration,test_run.started,stimulus_test_run.started,keyResp_test_run.started,test_run.stopped,trials_test.keyResp_test_run.keys,trials_test.keyResp_test_run.corr,trials_test.keyResp_test_run.rt,trials_test.keyResp_test_run.duration,goodbye.started,textGoodbye.started,goodbye.stopped,participant,session,expName,frameRate,Unnamed: 112
,,,,,,,,,,,,,,,,,,,,,,,,,,,,,,,,,,,,,,,,,0.0031625000410713,0.1181617000256665,0.1181617000256665,0.1181617000256665,62.6731218000059,space,62.51772390003316,,,,,,,,,,,,,,,,,,,,,,,,,,,,,,,,,,,,,,,,,,,,,,,,,,,,,,,,,,sub-042,1,stroop_test,59.9712737575632,
,,,,,,,,,,,,,,,,,,,,,,,,,,,,,,,,,,,,,,,,,,,,,,,,,62.67330780002521,62.69216390000656,62.69216390000656,70.8389002000331,space,8.143501700018533,,,,,,,,,,,,,,,,,,,,,,,,,,,,,,,,,,,,,,,,,,,,,,,,,,,sub-042,1,stroop_test,59.9712737575632,
test,red,r,1.0,0.0,0.0,0.0,r,1.0,0.9943101000390016,,,,,,,,,,,,,,,,,,0.0,0.0,0.0,0.0,,,,,,,,,70.88088520005113,,,,,,,,,,,,,,,,,70.86990590003552,70.95134280005004,71.76484240003629,71.73603620001813,71.75452940003015,71.76484240003629,71.76484240003629,72.77136010001414,r,1.0,0.9943101000390016,,,,,,,,,,,,,,,,,,,,,,,,,,,,,,,,,,,,,,,sub-042,1,stroop_test,59.9712737575632,
test,yellow,g,1.0,1.0,1.0,0.0,g,1.0,1.6851181999663822,,,,,,,,,,,,,,,,,,0.0,1.0,1.0,1.0,,,,,,,,,72.78407230001176,,,,,,,,,,,,,,,,,72.77228680002736,72.88406170002418,73.68381400004728,73.66884810000192,73.67019480001181,73.68381400004728,73.68381400004728,75.38602630002424,g,1.0,1.6851181999663822,,,,,,,,,,,,,,,,,,,,,,,,,,,,,,,,,,,,,,,sub-042,1,stroop_test,59.9712737575632,
test,blue,b,1.0,2.0,2.0,0.0,b,1.0,0.584272800013423,,,,,,,,,,,,,,,,,,0.0,2.0,2.0,2.0,,,,,,,,,75.39988660003291,,,,,,,,,,,,,,,,,75.38693340000464,75.74927760002902,76.54936010000529,76.5347291000071,76.53610520000802,76.54936010000529,76.54936010000529,77.13679330004379,b,1.0,0.584272800013423,,,,,,,,,,,,,,,,,,,,,,,,,,,,,,,,,,,,,,,sub-042,1,stroop_test,59.9712737575632,
test,blue,b,1.0,3.0,0.0,1.0,b,1.0,0.527587799995672,,,,,,,,,,,,,,,,,,1.0,0.0,3.0,2.0,,,,,,,,,77.14917520002928,,,,,,,,,,,,,,,,,77.13765210000565,78.34910859999945,79.1489189999993,79.13399270002265,79.13533140002983,79.1489189999993,79.1489189999993,79.68524120002985,b,1.0,0.527587799995672,,,,,,,,,,,,,,,,,,,,,,,,,,,,,,,,,,,,,,,sub-042,1,stroop_test,59.9712737575632,
test,yellow,g,1.0,4.0,1.0,1.0,g,1.0,0.7984266999992542,,,,,,,,,,,,,,,,,,1.0,1.0,4.0,1.0,,,,,,,,,79.69857629999751,,,,,,,,,,,,,,,,,79.68607049999991,79.79858310002601,80.5982164000161,80.58324120001635,80.58455319999484,80.5982164000161,80.5982164000161,81.40116790001048,g,1.0,0.7984266999992542,,,,,,,,,,,,,,,,,,,,,,,,,,,,,,,,,,,,,,,sub-042,1,stroop_test,59.9712737575632,
test,red,r,1.0,5.0,2.0,1.0,r,1.0,0.3380659999675117,,,,,,,,,,,,,,,,,,1.0,2.0,5.0,0.0,,,,,,,,,81.41447910002898,,,,,,,,,,,,,,,,,81.40202470001532,81.76479220000328,82.5643222000217,82.54882720002206,82.55022990005091,82.5643222000217,82.5643222000217,82.91774629999418,r,1.0,0.3380659999675117,,,,,,,,,,,,,,,,,,,,,,,,,,,,,,,,,,,,,,,sub-042,1,stroop_test,59.9712737575632,
test,blue,b,1.0,6.0,0.0,2.0,b,1.0,1.0295134999905713,,,,,,,,,,,,,,,,,,2.0,0.0,6.0,2.0,,,,,,,,,82.93090140004642,,,,,,,,,,,,,,,,,82.91856010002084,83.28078329999698,84.08056890004082,84.06538070004899,84.06665530003374,84.08056890004082,84.08056890004082,85.11692970001604,b,1.0,1.0295134999905713,,,,,,,,,,,,,,,,,,,,,,,,,,,,,,,,,,,,,,,sub-042,1,stroop_test,59.9712737575632,
test,yellow,g,1.0,7.0,1.0,2.0,g,1.0,0.4529185999999754,,,,,,,,,,,,,,,,,,2.0,1.0,7.0,1.0,,,,,,,,,85.13009670004249,,,,,,,,,,,,,,,,,85.1177999000065,85.9296624000417,86.7296592000057,86.71472620003624,86.71595320000779,86.7296592000057,86.7296592000057,87.1993877000059,g,1.0,0.4529185999999754,,,,,,,,,,,,,,,,,,,,,,,,,,,,,,,,,,,,,,,sub-042,1,stroop_test,59.9712737575632,
test,red,r,1.0,8.0,2.0,2.0,r,1.0,0.5279102000058629,,,,,,,,,,,,,,,,,,2.0,2.0,8.0,0.0,,,,,,,,,87.21296830003848,,,,,,,,,,,,,,,,,87.20030970004154,87.5627652000403,88.36260270001367,88.34785870002815,88.34915840002941,88.36260270001367,88.36260270001367,88.89896380004939,r,1.0,0.5279102000058629,,,,,,,,,,,,,,,,,,,,,,,,,,,,,,,,,,,,,,,sub-042,1,stroop_test,59.9712737575632,
test,red,r,1.0,9.0,0.0,3.0,r,1.0,0.8143896000110544,,,,,,,,,,,,,,,,,,3.0,0.0,9.0,0.0,,,,,,,,,88.91212650004309,,,,,,,,,,,,,,,,,88.89997610001592,90.1119791000383,90.91178760002369,90.89665740000784,90.89796880003996,90.91178760002369,90.91178760002369,91.73127320001367,r,1.0,0.8143896000110544,,,,,,,,,,,,,,,,,,,,,,,,,,,,,,,,,,,,,,,sub-042,1,stroop_test,59.9712737575632,
test,yellow,g,1.0,10.0,1.0,3.0,g,1.0,1.032978600007482,,,,,,,,,,,,,,,,,,3.0,1.0,10.0,1.0,,,,,,,,,91.74481600004948,,,,,,,,,,,,,,,,,91.73210540000582,92.54434650001348,93.3444558000192,93.32959239999764,93.33094660000644,93.3444558000192,93.3444558000192,94.3810915000504,g,1.0,1.032978600007482,,,,,,,,,,,,,,,,,,,,,,,,,,,,,,,,,,,,,,,sub-042,1,stroop_test,59.9712737575632,
test,blue,b,1.0,11.0,2.0,3.0,b,1.0,0.7596258000121452,,,,,,,,,,,,,,,,,,3.0,2.0,11.0,2.0,,,,,,,,,94.39391660003456,,,,,,,,,,,,,,,,,94.3819199000136,95.19373060000362,95.99352170003112,95.97834210004658,95.97960520000196,95.99352170003112,95.99352170003112,96.76289220002946,b,1.0,0.7596258000121452,,,,,,,,,,,,,,,,,,,,,,,,,,,,,,,,,,,,,,,sub-042,1,stroop_test,59.9712737575632,
,,,,,,,,,,,,,,,,,,,,,,,,,,,,,,,,,,,,,,,,,,,,,,,,,,,,,,,,,,,,,,,,,,,,96.76330290001351,96.77720970002702,96.77720970002702,99.5124737000442,space,2.7206729000317864,,,,,,,,,,,,,,,,,,,,,,,,,,,,,,,,sub-042,1,stroop_test,59.9712737575632,
,,,,0.0,0.0,0.0,,,,,blau,red,r,0.0,r,1.0,1.55335030000424,,,,,,,,,,,,,,0.0,0.0,0.0,4.0,,,,,99.55077000003077,,,,,,,,,,,,,,,,,99.54094460001215,99.87570590001997,100.68963209999492,100.66083890001757,,,,,,,,,,,,,,,,100.68054329999724,100.68963209999492,100.68963209999492,102.26137110003036,r,1.0,1.55335030000424,,102.28667900001165,102.29954530001852,103.27493920002598,,,,,,,,,,,,,,,,,,,,sub-042,1,stroop_test,59.9712737575632,
,,,,1.0,1.0,0.0,,,,,rot,blue,b,0.0,b,1.0,0.912393900041934,,,,,,,,,,,,,,0.0,1.0,1.0,2.0,,,,,103.2911882000044,,,,,,,,,,,,,,,,,103.27577320003184,103.37445110001136,104.18543310003588,104.15918220003368,,,,,,,,,,,,,,,,104.17478689999552,104.18543310003588,104.18543310003588,105.10864270001184,b,1.0,0.912393900041934,,105.10937070002548,105.12353939999592,106.10746970004402,106.12315560004208,,,,,,,,,,,,,,,,,,,sub-042,1,stroop_test,59.9712737575632,
,,,,2.0,2.0,0.0,,,,,blau,yellow,g,0.0,g,1.0,0.419958200014662,,,,,,,,,,,,,,0.0,2.0,2.0,7.0,,,,,106.12315560004208,,,,,,,,,,,,,,,,,106.10790160001488,107.32277540001088,108.12258800002746,108.1070180000388,,,,,,,,,,,,,,,,108.1116192000336,108.12258800002746,108.12258800002746,108.55897910002386,g,1.0,0.419958200014662,,108.56063940003514,108.57299620000413,109.55629510001744,109.57201020000502,,,,,,,,,,,,,,,,,,,sub-042,1,stroop_test,59.9712737575632,
,,,,3.0,3.0,0.0,,,,,blau,blue,b,1.0,b,1.0,1.2863833000301383,,,,,,,,,,,,,,0.0,3.0,3.0,5.0,,,,,109.57201020000502,,,,,,,,,,,,,,,,,109.55675740004516,109.9220204000012,110.72194360004504,110.70631219999632,,,,,,,,,,,,,,,,110.7071610999992,110.72194360004504,110.72194360004504,112.02292230003512,b,1.0,1.2863833000301383,,112.02378510002744,112.03813430003356,113.02202890004264,113.0377114000148,,,,,,,,,,,,,,,,,,,sub-042,1,stroop_test,59.9712737575632,
,,,,4.0,4.0,0.0,,,,,gelb,yellow,g,1.0,g,1.0,1.0032812000135891,,,,,,,,,,,,,,0.0,4.0,4.0,11.0,,,,,113.0377114000148,,,,,,,,,,,,,,,,,113.02248760004296,113.38750100001926,114.19199290004326,114.17286880000027,,,,,,,,,,,,,,,,114.18218480003998,114.19199290004326,114.19199290004326,115.20706560002871,g,1.0,1.0032812000135891,,115.20844810002018,115.2218674000469,116.22135450004134,,,,,,,,,,,,,,,,,,,,sub-042,1,stroop_test,59.9712737575632,
,,,,5.0,5.0,0.0,,,,,gelb,yellow,g,1.0,g,1.0,0.5878257999429479,,,,,,,,,,,,,,0.0,5.0,5.0,10.0,,,,,116.23726379999424,,,,,,,,,,,,,,,,,116.22220770001876,116.57048990001203,117.37026520003565,117.35505250003187,,,,,,,,,,,,,,,,117.35636000003431,117.37026520003565,117.37026520003565,117.97348360001342,g,1.0,0.5878257999429479,,117.97491250000894,117.98652380000568,118.97140840004433,118.98623969999608,,,,,,,,,,,,,,,,,,,sub-042,1,stroop_test,59.9712737575632,
,,,,6.0,6.0,0.0,,,,,rot,red,r,1.0,r,1.0,1.048548499995377,,,,,,,,,,,,,,0.0,6.0,6.0,1.0,,,,,118.98623969999608,,,,,,,,,,,,,,,,,118.9722314000246,119.78605600004084,120.5909731000429,120.57093899999744,,,,,,,,,,,,,,,,120.58080600004178,120.5909731000429,120.5909731000429,121.65564180002548,r,1.0,1.048548499995377,,121.65708120004274,121.6688409000053,122.65358390001349,122.66841400001432,,,,,,,,,,,,,,,,,,,sub-042,1,stroop_test,59.9712737575632,
,,,,7.0,7.0,0.0,,,,,gelb,red,r,0.0,r,1.0,1.2610905000474304,,,,,,,,,,,,,,0.0,7.0,7.0,8.0,,,,,122.66841400001432,,,,,,,,,,,,,,,,,122.6544228999992,122.76836520002688,123.57325860002312,123.55325410002844,,,,,,,,,,,,,,,,123.56361210002795,123.57325860002312,123.57325860002312,124.83849880000344,r,1.0,1.2610905000474304,,124.83991610002704,124.85370120004518,125.8498844000278,,,,,,,,,,,,,,,,,,,,sub-042,1,stroop_test,59.9712737575632,
,,,,8.0,8.0,0.0,,,,,rot,yellow,g,0.0,g,1.0,0.648954100033734,,,,,,,,,,,,,,0.0,8.0,8.0,3.0,,,,,125.86618850001832,,,,,,,,,,,,,,,,,125.85040330002084,126.199745000049,127.00282809999771,126.98433040000964,,,,,,,,,,,,,,,,126.99350139999297,127.00282809999771,127.00282809999771,127.66889670002274,g,1.0,0.648954100033734,,127.67031040001892,127.68279079999776,128.66753110004356,128.68253490002826,,,,,,,,,,,,,,,,,,,sub-042,1,stroop_test,59.9712737575632,
,,,,9.0,9.0,0.0,,,,,rot,red,r,1.0,r,1.0,0.8317688999813981,,,,,,,,,,,,,,0.0,9.0,9.0,0.0,,,,,128.68253490002826,,,,,,,,,,,,,,,,,128.66833700001007,129.03247700002976,129.83214160002535,129.8176541000139,,,,,,,,,,,,,,,,129.81921169999987,129.83214160002535,129.83214160002535,130.66815460001817,r,1.0,0.8317688999813981,,130.66965570003958,130.68165240000235,131.66770620003808,131.6817255000351,,,,,,,,,,,,,,,,,,,sub-042,1,stroop_test,59.9712737575632,
,,,,10.0,10.0,0.0,,,,,blau,blue,b,1.0,b,1.0,0.6961594999884255,,,,,,,,,,,,,,0.0,10.0,10.0,6.0,,,,,131.6817255000351,,,,,,,,,,,,,,,,,131.66863299999386,132.88113400002476,133.6833262,133.66577560000587,,,,,,,,,,,,,,,,133.6750905000372,133.6833262,133.6833262,134.38482870004373,b,1.0,0.6961594999884255,,134.3865943000419,134.39854220004054,135.39754790003644,,,,,,,,,,,,,,,,,,,,sub-042,1,stroop_test,59.9712737575632,
,,,,11.0,11.0,0.0,,,,,gelb,blue,b,0.0,b,1.0,1.051616899960209,,,,,,,,,,,,,,0.0,11.0,11.0,9.0,,,,,135.41381820000242,,,,,,,,,,,,,,,,,135.39849560003495,135.74646430002758,136.5507959999959,136.53192080004374,,,,,,,,,,,,,,,,136.5410555000417,136.5507959999959,136.5507959999959,137.6163456000504,b,1.0,1.051616899960209,,137.61783060000744,137.62944480002625,138.61520240001846,138.6294268000056,,,,,,,,,,,,,,,,,,,sub-042,1,stroop_test,59.9712737575632,
,,,,12.0,0.0,1.0,,,,,gelb,yellow,g,1.0,g,1.0,0.8171727999579161,,,,,,,,,,,,,,1.0,0.0,12.0,11.0,,,,,138.6294268000056,,,,,,,,,,,,,,,,,138.61610169999767,139.82909820001805,140.6286609999952,140.61392630002229,,,,,,,,,,,,,,,,140.6152696000063,140.6286609999952,140.6286609999952,141.4493664000183,g,1.0,0.8171727999579161,,141.45101570000406,141.46183060004842,142.44708150002407,142.4617235000478,,,,,,,,,,,,,,,,,,,sub-042,1,stroop_test,59.9712737575632,
,,,,13.0,1.0,1.0,,,,,blau,yellow,g,0.0,g,1.0,1.1667022000183351,,,,,,,,,,,,,,1.0,1.0,13.0,7.0,,,,,142.4617235000478,,,,,,,,,,,,,,,,,142.44804420002038,142.56186050001998,143.36652910005068,143.34687040001154,,,,,,,,,,,,,,,,143.35655220004264,143.36652910005068,143.36652910005068,144.5478526999941,g,1.0,1.1667022000183351,,144.54926600004546,144.56134320003912,145.56088000000454,,,,,,,,,,,,,,,,,,,,sub-042,1,stroop_test,59.9712737575632,
,,,,14.0,2.0,1.0,,,,,gelb,blue,b,0.0,b,1.0,0.6206097999820486,,,,,,,,,,,,,,1.0,2.0,14.0,9.0,,,,,145.5770037000184,,,,,,,,,,,,,,,,,145.5618977000122,146.75997810001718,147.56652740004938,147.5455651000375,,,,,,,,,,,,,,,,147.5574031000142,147.56652740004938,147.56652740004938,148.1975306000095,b,1.0,0.6206097999820486,,148.1991338999942,148.20969930000138,149.1945537000429,149.20923780003795,,,,,,,,,,,,,,,,,,,sub-042,1,stroop_test,59.9712737575632,
,,,,15.0,3.0,1.0,,,,,rot,red,r,1.0,r,1.0,0.470727399981115,,,,,,,,,,,,,,1.0,3.0,15.0,1.0,,,,,149.20923780003795,,,,,,,,,,,,,,,,,149.19539770000847,150.40911990002496,151.21634580002865,151.1948515000404,,,,,,,,,,,,,,,,151.2056142000365,151.21634580002865,151.21634580002865,151.69577010005014,r,1.0,0.470727399981115,,151.69758390000788,151.71185820002574,152.70895890000975,,,,,,,,,,,,,,,,,,,,sub-042,1,stroop_test,59.9712737575632,
,,,,16.0,4.0,1.0,,,,,rot,blue,b,0.0,b,1.0,0.98634410003433,,,,,,,,,,,,,,1.0,4.0,16.0,2.0,,,,,152.72523660003208,,,,,,,,,,,,,,,,,152.7099075000151,152.8083172000479,153.6081819999963,153.59357160003856,,,,,,,,,,,,,,,,153.5950307000312,153.6081819999963,153.6081819999963,154.61158750002505,b,1.0,0.98634410003433,,154.61322430003202,154.62451970000984,155.60798870003782,155.62365840002894,,,,,,,,,,,,,,,,,,,sub-042,1,stroop_test,59.9712737575632,
,,,,17.0,5.0,1.0,,,,,rot,yellow,g,0.0,g,1.0,0.8561318999854848,,,,,,,,,,,,,,1.0,5.0,17.0,3.0,,,,,155.62365840002894,,,,,,,,,,,,,,,,,155.60836589999963,156.82379180000862,157.6234443000285,157.6084022000432,,,,,,,,,,,,,,,,157.61044010001933,157.6234443000285,157.6234443000285,158.4935492000077,g,1.0,0.8561318999854848,,158.49629880004795,158.50766120001208,159.5068288000184,,,,,,,,,,,,,,,,,,,,sub-042,1,stroop_test,59.9712737575632,
,,,,18.0,6.0,1.0,,,,,rot,red,r,1.0,r,1.0,0.5872594999964349,,,,,,,,,,,,,,1.0,6.0,18.0,0.0,,,,,159.52322650002316,,,,,,,,,,,,,,,,,159.50783830002183,159.856234100007,160.65608139999676,160.64138580003055,,,,,,,,,,,,,,,,160.64286630001152,160.65608139999676,160.65608139999676,161.25933500000974,r,1.0,0.5872594999964349,,161.26103809999768,161.272260800004,162.25675520004006,162.2718404000043,,,,,,,,,,,,,,,,,,,sub-042,1,stroop_test,59.9712737575632,
,,,,19.0,7.0,1.0,,,,,blau,blue,b,1.0,b,1.0,0.5304034000146203,,,,,,,,,,,,,,1.0,7.0,19.0,5.0,,,,,162.2718404000043,,,,,,,,,,,,,,,,,162.25769650004804,163.47163189999992,164.27513610001188,164.25646619999316,,,,,,,,,,,,,,,,164.26445780001814,164.27513610001188,164.27513610001188,164.81018410000252,b,1.0,0.5304034000146203,,164.81164140003966,164.821427100047,165.80515950004337,165.82066399999894,,,,,,,,,,,,,,,,,,,sub-042,1,stroop_test,59.9712737575632,
,,,,20.0,8.0,1.0,,,,,blau,blue,b,1.0,b,1.0,0.4229416999733075,,,,,,,,,,,,,,1.0,8.0,20.0,6.0,,,,,165.82066399999894,,,,,,,,,,,,,,,,,165.80566260003252,166.62094950000755,167.42034549999516,167.40504450001754,,,,,,,,,,,,,,,,167.40634360001422,167.42034549999516,167.42034549999516,167.85507200000575,b,1.0,0.4229416999733075,,167.85579440003494,167.87024580000434,168.85416690004058,168.86984830000438,,,,,,,,,,,,,,,,,,,sub-042,1,stroop_test,59.9712737575632,
,,,,21.0,9.0,1.0,,,,,gelb,red,r,0.0,r,1.0,1.6561858000350185,,,,,,,,,,,,,,1.0,9.0,21.0,8.0,,,,,168.86984830000438,,,,,,,,,,,,,,,,,168.85461380000925,170.07032190001337,170.87736870005028,170.85502489999635,,,,,,,,,,,,,,,,170.86616560001858,170.87736870005028,170.87736870005028,172.5380108000245,r,1.0,1.6561858000350185,,172.53906830004416,172.5523252999992,173.5374715999933,173.5519409000408,,,,,,,,,,,,,,,,,,,sub-042,1,stroop_test,59.9712737575632,
,,,,22.0,10.0,1.0,,,,,blau,red,r,0.0,r,1.0,1.6537021999829449,,,,,,,,,,,,,,1.0,10.0,22.0,4.0,,,,,173.5519409000408,,,,,,,,,,,,,,,,,173.5382504000445,173.90207120002017,174.70187940000324,174.6861549000023,,,,,,,,,,,,,,,,174.69103430001996,174.70187940000324,174.70187940000324,176.37144000001717,r,1.0,1.6537021999829449,,176.3728482000297,176.38505250000162,177.37078650004696,177.38486610003747,,,,,,,,,,,,,,,,,,,sub-042,1,stroop_test,59.9712737575632,
,,,,23.0,11.0,1.0,,,,,gelb,yellow,g,1.0,g,1.0,0.4709940000320785,,,,,,,,,,,,,,1.0,11.0,23.0,10.0,,,,,177.38486610003747,,,,,,,,,,,,,,,,,177.37163670000157,178.18356680002762,178.98851250001462,178.96863550000126,,,,,,,,,,,,,,,,178.9791433000355,178.98851250001462,178.98851250001462,179.47014550003223,g,1.0,0.4709940000320785,,179.47153900004923,179.4831647000392,180.46787930000573,180.4831006000168,,,,,,,,,,,,,,,,,,,sub-042,1,stroop_test,59.9712737575632,
,,,,,,,,,,,,,,,,,,,,,,,,,,,,,,,,,,,,,,,,,,,,,,,,,,,,,,,,,,,,,,,,,,,,,,,,,,,,,,,,,,,,,,,180.4682412000257,180.4831006000168,180.4831006000168,183.68669709999813,space,3.186835400003474,,,,,,,,,,,,,sub-042,1,stroop_test,59.9712737575632,
,,,,0.0,0.0,0.0,,,,,,,,,,,,,gelb,blue,b,0.0,b,1.0,0.9497499999706632,,,,,,,,,,0.0,0.0,0.0,9.0,183.7268307000049,,,,,,,,,,,,,,,,,183.7219654000364,184.89839109999596,185.6975935000228,185.68188430002192,,,,,,,,,,,,,,,,,,,,,,,,,,,,,,,,,,,185.6866941000335,185.6975935000228,185.6975935000228,186.65171520004515,b,1.0,0.9497499999706632,,,,,sub-042,1,stroop_test,59.9712737575632,
,,,,1.0,1.0,0.0,,,,,,,,,,,,,blau,red,r,0.0,r,1.0,0.9682234000065364,,,,,,,,,,0.0,1.0,1.0,4.0,186.66460420005023,,,,,,,,,,,,,,,,,186.65285180002684,187.01440660003573,187.81590980000328,187.7991955000325,,,,,,,,,,,,,,,,,,,,,,,,,,,,,,,,,,,187.80732980003813,187.81590980000328,187.81590980000328,188.80067040002905,r,1.0,0.9682234000065364,,,,,sub-042,1,stroop_test,59.9712737575632,
,,,,2.0,2.0,0.0,,,,,,,,,,,,,rot,blue,b,0.0,b,1.0,1.5518506999942474,,,,,,,,,,0.0,2.0,2.0,2.0,188.8139000000083,,,,,,,,,,,,,,,,,188.8018277999945,188.9137641999987,189.72096100001363,189.69896609999705,,,,,,,,,,,,,,,,,,,,,,,,,,,,,,,,,,,189.71029540000015,189.72096100001363,189.72096100001363,191.2833023000276,b,1.0,1.5518506999942474,,,,,sub-042,1,stroop_test,59.9712737575632,
,,,,3.0,3.0,0.0,,,,,,,,,,,,,rot,yellow,g,0.0,g,1.0,0.6984148999908939,,,,,,,,,,0.0,3.0,3.0,3.0,191.29621540004155,,,,,,,,,,,,,,,,,191.2844711000216,191.6465452000266,192.44606260000728,192.43143739999505,,,,,,,,,,,,,,,,,,,,,,,,,,,,,,,,,,,192.43295440002112,192.44606260000728,192.44606260000728,193.14903220004635,g,1.0,0.6984148999908939,,,,,sub-042,1,stroop_test,59.9712737575632,
,,,,4.0,4.0,0.0,,,,,,,,,,,,,rot,red,r,1.0,r,1.0,0.7640034999931231,,,,,,,,,,0.0,4.0,4.0,1.0,193.1619800000335,,,,,,,,,,,,,,,,,193.14993130002404,193.2622737000347,194.06198650004808,194.0478695000056,,,,,,,,,,,,,,,,,,,,,,,,,,,,,,,,,,,194.04950130003272,194.06198650004808,194.06198650004808,194.83210620004684,r,1.0,0.7640034999931231,,,,,sub-042,1,stroop_test,59.9712737575632,
,,,,5.0,5.0,0.0,,,,,,,,,,,,,blau,blue,b,1.0,b,1.0,0.7250958000076935,,,,,,,,,,0.0,5.0,5.0,5.0,194.8450923000346,,,,,,,,,,,,,,,,,194.8333865000168,194.94497810001485,195.74751940002895,195.7298758000252,,,,,,,,,,,,,,,,,,,,,,,,,,,,,,,,,,,195.73887250002008,195.74751940002895,195.74751940002895,196.48108680004952,b,1.0,0.7250958000076935,,,,,sub-042,1,stroop_test,59.9712737575632,
,,,,6.0,6.0,0.0,,,,,,,,,,,,,blau,blue,b,1.0,b,1.0,0.6285903999814764,,,,,,,,,,0.0,6.0,6.0,6.0,196.4945727000013,,,,,,,,,,,,,,,,,196.48211179999635,197.6940914000152,198.49417260003972,198.47923220001397,,,,,,,,,,,,,,,,,,,,,,,,,,,,,,,,,,,198.48068100004457,198.49417260003972,198.49417260003972,199.1319569000043,b,1.0,0.6285903999814764,,,,,sub-042,1,stroop_test,59.9712737575632,
,,,,7.0,7.0,0.0,,,,,,,,,,,,,gelb,yellow,g,1.0,g,1.0,0.7033013999462128,,,,,,,,,,0.0,7.0,7.0,11.0,199.1437123000505,,,,,,,,,,,,,,,,,199.13294229999883,199.2438364000409,200.0554727000417,200.02897490002212,,,,,,,,,,,,,,,,,,,,,,,,,,,,,,,,,,,200.04429879999952,200.0554727000417,200.0554727000417,200.76377710001543,g,1.0,0.7033013999462128,,,,,sub-042,1,stroop_test,59.9712737575632,
,,,,8.0,8.0,0.0,,,,,,,,,,,,,gelb,red,r,0.0,r,1.0,0.6103674999903888,,,,,,,,,,0.0,8.0,8.0,8.0,200.7769185000216,,,,,,,,,,,,,,,,,200.76486530003604,201.57650260004448,202.3762151999981,202.3614462999976,,,,,,,,,,,,,,,,,,,,,,,,,,,,,,,,,,,202.36304780002683,202.3762151999981,202.3762151999981,202.9962172000087,r,1.0,0.6103674999903888,,,,,sub-042,1,stroop_test,59.9712737575632,
,,,,9.0,9.0,0.0,,,,,,,,,,,,,gelb,yellow,g,1.0,g,1.0,0.6650704999919981,,,,,,,,,,0.0,9.0,9.0,10.0,203.0090748000075,,,,,,,,,,,,,,,,,202.9972963000182,203.10904240002856,203.9092339000199,203.8947000000044,,,,,,,,,,,,,,,,,,,,,,,,,,,,,,,,,,,203.8962705000304,203.9092339000199,203.9092339000199,204.58040040003837,g,1.0,0.6650704999919981,,,,,sub-042,1,stroop_test,59.9712737575632,
,,,,10.0,10.0,0.0,,,,,,,,,,,,,blau,yellow,g,0.0,g,1.0,1.079628599982243,,,,,,,,,,0.0,10.0,10.0,7.0,204.59228110004915,,,,,,,,,,,,,,,,,204.58146210003176,205.7912425000104,206.5956920000026,206.5770715000108,,,,,,,,,,,,,,,,,,,,,,,,,,,,,,,,,,,206.58656590001192,206.5956920000026,206.5956920000026,207.6788705000072,g,1.0,1.079628599982243,,,,,sub-042,1,stroop_test,59.9712737575632,
,,,,11.0,11.0,0.0,,,,,,,,,,,,,rot,red,r,1.0,r,1.0,0.9075667999568396,,,,,,,,,,0.0,11.0,11.0,0.0,207.69210109999403,,,,,,,,,,,,,,,,,207.6800004999968,208.04096290003508,208.84700250002788,208.82627840002533,,,,,,,,,,,,,,,,,,,,,,,,,,,,,,,,,,,208.83761390001743,208.84700250002788,208.84700250002788,209.76139400003007,r,1.0,0.9075667999568396,,,,,sub-042,1,stroop_test,59.9712737575632,
,,,,12.0,0.0,1.0,,,,,,,,,,,,,rot,blue,b,0.0,b,1.0,0.6970475000562146,,,,,,,,,,1.0,0.0,12.0,2.0,209.77390540001213,,,,,,,,,,,,,,,,,209.762552900007,210.57366400002505,211.3733884000103,211.35851390002065,,,,,,,,,,,,,,,,,,,,,,,,,,,,,,,,,,,211.36003860004712,211.3733884000103,211.3733884000103,212.07620640000096,b,1.0,0.6970475000562146,,,,,sub-042,1,stroop_test,59.9712737575632,
,,,,13.0,1.0,1.0,,,,,,,,,,,,,gelb,yellow,g,1.0,g,1.0,0.8081766999675892,,,,,,,,,,1.0,1.0,13.0,10.0,212.08980460005117,,,,,,,,,,,,,,,,,212.0771953000221,212.8896780000068,213.69704460003413,213.67497910000384,,,,,,,,,,,,,,,,,,,,,,,,,,,,,,,,,,,213.68586610001512,213.69704460003413,213.69704460003413,214.51125179999508,g,1.0,0.8081766999675892,,,,,sub-042,1,stroop_test,59.9712737575632,
,,,,14.0,2.0,1.0,,,,,,,,,,,,,rot,red,r,1.0,r,1.0,1.021477699978277,,,,,,,,,,1.0,2.0,14.0,1.0,214.52243640000236,,,,,,,,,,,,,,,,,214.51242179999824,215.7218537000008,216.52643500000704,216.5069393000449,,,,,,,,,,,,,,,,,,,,,,,,,,,,,,,,,,,216.5161001000088,216.52643500000704,216.52643500000704,217.5578841000097,r,1.0,1.021477699978277,,,,,sub-042,1,stroop_test,59.9712737575632,
,,,,15.0,3.0,1.0,,,,,,,,,,,,,blau,blue,b,1.0,b,1.0,0.8507504000444897,,,,,,,,,,1.0,3.0,15.0,5.0,217.5713490000344,,,,,,,,,,,,,,,,,217.55887090001488,218.37127600004897,219.1744612000184,219.15604860003805,,,,,,,,,,,,,,,,,,,,,,,,,,,,,,,,,,,219.16564060002565,219.1744612000184,219.1744612000184,220.0425296000321,b,1.0,0.8507504000444897,,,,,sub-042,1,stroop_test,59.9712737575632,
,,,,16.0,4.0,1.0,,,,,,,,,,,,,gelb,yellow,g,1.0,g,1.0,1.2700262000435032,,,,,,,,,,1.0,4.0,16.0,11.0,220.0534322000458,,,,,,,,,,,,,,,,,220.04367189999903,220.8540390999988,221.66067380004097,221.6392870999989,,,,,,,,,,,,,,,,,,,,,,,,,,,,,,,,,,,221.6502592000179,221.66067380004097,221.66067380004097,222.94088660000125,g,1.0,1.2700262000435032,,,,,sub-042,1,stroop_test,59.9712737575632,
,,,,17.0,5.0,1.0,,,,,,,,,,,,,rot,yellow,g,0.0,g,1.0,0.7038728999905288,,,,,,,,,,1.0,5.0,17.0,3.0,222.95297330000903,,,,,,,,,,,,,,,,,222.94197800004625,223.75313460000325,224.5595984000247,224.53834590001497,,,,,,,,,,,,,,,,,,,,,,,,,,,,,,,,,,,224.54935290000867,224.5595984000247,224.5595984000247,225.27218309999444,g,1.0,0.7038728999905288,,,,,sub-042,1,stroop_test,59.9712737575632,
,,,,18.0,6.0,1.0,,,,,,,,,,,,,gelb,blue,b,0.0,b,1.0,0.675813100009691,,,,,,,,,,1.0,6.0,18.0,9.0,225.28570589999435,,,,,,,,,,,,,,,,,225.2731348000234,226.08474870002829,226.88475750002544,226.8692107000388,,,,,,,,,,,,,,,,,,,,,,,,,,,,,,,,,,,226.87734320003077,226.88475750002544,226.88475750002544,227.56969660002505,b,1.0,0.675813100009691,,,,,sub-042,1,stroop_test,59.9712737575632,
,,,,19.0,7.0,1.0,,,,,,,,,,,,,blau,yellow,g,0.0,g,1.0,0.7311726999469101,,,,,,,,,,1.0,7.0,19.0,7.0,227.58454750000965,,,,,,,,,,,,,,,,,227.57017500000077,228.7841821000329,229.58398500003383,229.5685574000236,,,,,,,,,,,,,,,,,,,,,,,,,,,,,,,,,,,229.57364890002648,229.58398500003383,229.58398500003383,230.32004479999887,g,1.0,0.7311726999469101,,,,,sub-042,1,stroop_test,59.9712737575632,
,,,,20.0,8.0,1.0,,,,,,,,,,,,,blau,red,r,0.0,r,1.0,0.70738070004154,,,,,,,,,,1.0,8.0,20.0,4.0,230.33403100003488,,,,,,,,,,,,,,,,,230.3207007000456,231.13404650002485,231.93339590000687,231.91752469999483,,,,,,,,,,,,,,,,,,,,,,,,,,,,,,,,,,,231.91845970001305,231.93339590000687,231.93339590000687,232.65135560004276,r,1.0,0.70738070004154,,,,,sub-042,1,stroop_test,59.9712737575632,
,,,,21.0,9.0,1.0,,,,,,,,,,,,,gelb,red,r,0.0,r,1.0,0.6746183999930508,,,,,,,,,,1.0,9.0,21.0,8.0,232.66646880004555,,,,,,,,,,,,,,,,,232.6518775000004,233.0164532000199,233.82544030004647,233.80243590002647,,,,,,,,,,,,,,,,,,,,,,,,,,,,,,,,,,,233.8143091000384,233.82544030004647,233.82544030004647,234.50533970003016,r,1.0,0.6746183999930508,,,,,sub-042,1,stroop_test,59.9712737575632,
,,,,22.0,10.0,1.0,,,,,,,,,,,,,rot,red,r,1.0,r,1.0,0.3718571999925188,,,,,,,,,,1.0,10.0,22.0,0.0,234.51683239999693,,,,,,,,,,,,,,,,,234.50634720001835,235.71608440001728,236.52435610000973,236.5012618000037,,,,,,,,,,,,,,,,,,,,,,,,,,,,,,,,,,,236.51323070004585,236.52435610000973,236.52435610000973,236.90452189999635,r,1.0,0.3718571999925188,,,,,sub-042,1,stroop_test,59.9712737575632,
,,,,23.0,11.0,1.0,,,,,,,,,,,,,blau,blue,b,1.0,b,1.0,0.3555399000179022,,,,,,,,,,1.0,11.0,23.0,6.0,236.9162133000209,,,,,,,,,,,,,,,,,236.90544679999584,237.71589849999876,238.5328870000085,238.51641430001476,,,,,,,,,,,,,,,,,,,,,,,,,,,,,,,,,,,238.52442590001735,238.5328870000085,238.5328870000085,238.901142799994,b,1.0,0.3555399000179022,,,,,sub-042,1,stroop_test,59.9712737575632,
,,,,24.0,0.0,2.0,,,,,,,,,,,,,rot,red,r,1.0,r,1.0,0.7041322999866679,,,,,,,,,,2.0,0.0,24.0,1.0,238.91466890001905,,,,,,,,,,,,,,,,,238.90211830002957,239.71482350002043,240.52154640003573,240.49987729999705,,,,,,,,,,,,,,,,,,,,,,,,,,,,,,,,,,,240.51217970001744,240.52154640003573,240.52154640003573,241.23418210004456,r,1.0,0.7041322999866679,,,,,sub-042,1,stroop_test,59.9712737575632,
,,,,25.0,1.0,2.0,,,,,,,,,,,,,gelb,yellow,g,1.0,g,1.0,0.5275968000059947,,,,,,,,,,2.0,1.0,25.0,11.0,241.2475071999943,,,,,,,,,,,,,,,,,241.2351830000407,241.347443000006,242.1545212000492,242.13235780003012,,,,,,,,,,,,,,,,,,,,,,,,,,,,,,,,,,,242.14299550000575,242.1545212000492,242.1545212000492,242.6997503000312,g,1.0,0.5275968000059947,,,,,sub-042,1,stroop_test,59.9712737575632,
,,,,26.0,2.0,2.0,,,,,,,,,,,,,rot,red,r,1.0,r,1.0,0.6194046000018716,,,,,,,,,,2.0,2.0,26.0,0.0,242.71353390003787,,,,,,,,,,,,,,,,,242.70073189999675,243.51341840001987,244.32164060004288,244.2988506000256,,,,,,,,,,,,,,,,,,,,,,,,,,,,,,,,,,,244.3096129000187,244.32164060004288,244.32164060004288,244.9499521999969,r,1.0,0.6194046000018716,,,,,sub-042,1,stroop_test,59.9712737575632,
,,,,27.0,3.0,2.0,,,,,,,,,,,,,blau,blue,b,1.0,b,1.0,0.5866453999769874,,,,,,,,,,2.0,3.0,27.0,6.0,244.9628552000504,,,,,,,,,,,,,,,,,244.95104000001447,246.1620856000227,246.96656570001505,246.94759300001897,,,,,,,,,,,,,,,,,,,,,,,,,,,,,,,,,,,246.9573076000088,246.96656570001505,246.96656570001505,247.56533500005025,b,1.0,0.5866453999769874,,,,,sub-042,1,stroop_test,59.9712737575632,
,,,,28.0,4.0,2.0,,,,,,,,,,,,,rot,blue,b,0.0,b,1.0,1.01282689999789,,,,,,,,,,2.0,4.0,28.0,2.0,247.5786032000324,,,,,,,,,,,,,,,,,247.5662795000244,247.9286513000261,248.73623570002383,248.7139607000281,,,,,,,,,,,,,,,,,,,,,,,,,,,,,,,,,,,248.7263494000072,248.73623570002383,248.73623570002383,249.76450670004124,b,1.0,1.01282689999789,,,,,sub-042,1,stroop_test,59.9712737575632,
,,,,29.0,5.0,2.0,,,,,,,,,,,,,gelb,red,r,0.0,r,1.0,1.5043460000306368,,,,,,,,,,2.0,5.0,29.0,8.0,249.7779983000364,,,,,,,,,,,,,,,,,249.76551460003247,249.87800180003975,250.68404800002463,250.66322820005007,,,,,,,,,,,,,,,,,,,,,,,,,,,,,,,,,,,250.6749008000479,250.68404800002463,250.68404800002463,252.19817129999865,r,1.0,1.5043460000306368,,,,,sub-042,1,stroop_test,59.9712737575632,
,,,,30.0,6.0,2.0,,,,,,,,,,,,,gelb,yellow,g,1.0,g,1.0,0.5083154999883845,,,,,,,,,,2.0,6.0,30.0,10.0,252.2104462000425,,,,,,,,,,,,,,,,,252.19912230002228,252.3108049000148,253.11026330001187,253.09643320000032,,,,,,,,,,,,,,,,,,,,,,,,,,,,,,,,,,,253.0979566000169,253.11026330001187,253.11026330001187,253.63166210002964,g,1.0,0.5083154999883845,,,,,sub-042,1,stroop_test,59.9712737575632,
,,,,31.0,7.0,2.0,,,,,,,,,,,,,gelb,blue,b,0.0,b,1.0,0.5827259999932721,,,,,,,,,,2.0,7.0,31.0,9.0,253.64382580004167,,,,,,,,,,,,,,,,,253.63292639999415,253.7435758000356,254.54314580000937,254.52856950002024,,,,,,,,,,,,,,,,,,,,,,,,,,,,,,,,,,,254.52984060003652,254.54314580000937,254.54314580000937,255.1316971000051,b,1.0,0.5827259999932721,,,,,sub-042,1,stroop_test,59.9712737575632,
,,,,32.0,8.0,2.0,,,,,,,,,,,,,rot,yellow,g,0.0,r,0.0,0.8926820000051521,,,,,,,,,,2.0,8.0,32.0,3.0,255.14300340000773,,,,,,,,,,,,,,,,,255.13269050000235,256.34275170002365,257.14701590000186,257.1277130999952,,,,,,,,,,,,,,,,,,,,,,,,,,,,,,,,,,,257.1369891000213,257.14701590000186,257.14701590000186,258.04727929999353,r,0.0,0.8926820000051521,,,,,sub-042,1,stroop_test,59.9712737575632,
,,,,33.0,9.0,2.0,,,,,,,,,,,,,blau,yellow,g,0.0,g,1.0,1.0062476000166498,,,,,,,,,,2.0,9.0,33.0,7.0,258.05826560000423,,,,,,,,,,,,,,,,,258.0483815000043,259.2584674000391,260.05820550001226,260.0434613000252,,,,,,,,,,,,,,,,,,,,,,,,,,,,,,,,,,,260.0519011000288,260.05820550001226,260.05820550001226,261.0782213000348,g,1.0,1.0062476000166498,,,,,sub-042,1,stroop_test,59.9712737575632,
,,,,34.0,10.0,2.0,,,,,,,,,,,,,blau,red,r,0.0,r,1.0,0.672573099960573,,,,,,,,,,2.0,10.0,34.0,4.0,261.0912881999975,,,,,,,,,,,,,,,,,261.0794975000317,261.1912904000492,261.99097060004715,261.97642810002435,,,,,,,,,,,,,,,,,,,,,,,,,,,,,,,,,,,261.977943600039,261.99097060004715,261.99097060004715,262.67759010003647,r,1.0,0.672573099960573,,,,,sub-042,1,stroop_test,59.9712737575632,
,,,,35.0,11.0,2.0,,,,,,,,,,,,,blau,blue,b,1.0,b,1.0,0.5847810999839567,,,,,,,,,,2.0,11.0,35.0,5.0,262.6908260000055,,,,,,,,,,,,,,,,,262.6787505000248,262.7907753000036,263.5905861000065,263.57581520004896,,,,,,,,,,,,,,,,,,,,,,,,,,,,,,,,,,,263.57731200003764,263.5905861000065,263.5905861000065,264.1930249000434,b,1.0,0.5847810999839567,,,,,sub-042,1,stroop_test,59.9712737575632,
,,,,36.0,0.0,3.0,,,,,,,,,,,,,blau,blue,b,1.0,b,1.0,0.648094600008335,,,,,,,,,,3.0,0.0,36.0,6.0,264.20684300002176,,,,,,,,,,,,,,,,,264.1940986000118,264.30696620000526,265.1065785000101,265.0915726000094,,,,,,,,,,,,,,,,,,,,,,,,,,,,,,,,,,,265.09304639999755,265.1065785000101,265.1065785000101,265.75959530001273,b,1.0,0.648094600008335,,,,,sub-042,1,stroop_test,59.9712737575632,
,,,,37.0,1.0,3.0,,,,,,,,,,,,,rot,yellow,g,0.0,g,1.0,0.7432636999874376,,,,,,,,,,3.0,1.0,37.0,3.0,265.7729474999942,,,,,,,,,,,,,,,,,265.7605564999976,266.9727085000486,267.7807330000214,267.75872129999334,,,,,,,,,,,,,,,,,,,,,,,,,,,,,,,,,,,267.7699414000381,267.7807330000214,267.7807330000214,268.5415049000294,g,1.0,0.7432636999874376,,,,,sub-042,1,stroop_test,59.9712737575632,
,,,,38.0,2.0,3.0,,,,,,,,,,,,,gelb,red,r,0.0,r,1.0,1.4473779000109062,,,,,,,,,,3.0,2.0,38.0,8.0,268.5555312000215,,,,,,,,,,,,,,,,,268.5424058000208,268.9057100000209,269.716758900031,269.69078860001173,,,,,,,,,,,,,,,,,,,,,,,,,,,,,,,,,,,269.70432740001706,269.716758900031,269.716758900031,271.17532760003814,r,1.0,1.4473779000109062,,,,,sub-042,1,stroop_test,59.9712737575632,
,,,,39.0,3.0,3.0,,,,,,,,,,,,,gelb,yellow,g,1.0,g,1.0,0.7741431000176817,,,,,,,,,,3.0,3.0,39.0,10.0,271.1879324000329,,,,,,,,,,,,,,,,,271.17642460000934,272.38782910001464,273.18765380000696,273.1729568000301,,,,,,,,,,,,,,,,,,,,,,,,,,,,,,,,,,,273.1744529000134,273.18765380000696,273.18765380000696,273.9745936000254,g,1.0,0.7741431000176817,,,,,sub-042,1,stroop_test,59.9712737575632,
,,,,40.0,4.0,3.0,,,,,,,,,,,,,rot,red,r,1.0,r,1.0,0.929332300031092,,,,,,,,,,3.0,4.0,40.0,1.0,273.9872942000511,,,,,,,,,,,,,,,,,273.9756216999958,274.3370736000361,275.1399590999936,275.1218342000502,,,,,,,,,,,,,,,,,,,,,,,,,,,,,,,,,,,275.1312117000343,275.1399590999936,275.1399590999936,276.0718987000291,r,1.0,0.929332300031092,,,,,sub-042,1,stroop_test,59.9712737575632,
,,,,41.0,5.0,3.0,,,,,,,,,,,,,rot,red,r,1.0,r,1.0,0.5750584999914281,,,,,,,,,,3.0,5.0,41.0,0.0,276.0861256000353,,,,,,,,,,,,,,,,,276.07241740002064,276.1861845999956,276.98662760003936,276.9719748000498,,,,,,,,,,,,,,,,,,,,,,,,,,,,,,,,,,,276.97358160000294,276.98662760003936,276.98662760003936,277.57255500002066,r,1.0,0.5750584999914281,,,,,sub-042,1,stroop_test,59.9712737575632,
,,,,42.0,6.0,3.0,,,,,,,,,,,,,rot,blue,b,0.0,b,1.0,0.4063347000046633,,,,,,,,,,3.0,6.0,42.0,2.0,277.58581499999855,,,,,,,,,,,,,,,,,277.5735253000166,278.38584340002853,279.1854462000192,279.17034370003967,,,,,,,,,,,,,,,,,,,,,,,,,,,,,,,,,,,279.17169770004693,279.1854462000192,279.1854462000192,279.6053696000017,b,1.0,0.4063347000046633,,,,,sub-042,1,stroop_test,59.9712737575632,
,,,,43.0,7.0,3.0,,,,,,,,,,,,,blau,yellow,g,0.0,g,1.0,0.4624389999662526,,,,,,,,,,3.0,7.0,43.0,7.0,279.61871410004096,,,,,,,,,,,,,,,,,279.6064644000144,279.9686452000169,280.7760071000084,280.7550915000029,,,,,,,,,,,,,,,,,,,,,,,,,,,,,,,,,,,280.7647469000076,280.7760071000084,280.7760071000084,281.2544678000268,g,1.0,0.4624389999662526,,,,,sub-042,1,stroop_test,59.9712737575632,
,,,,44.0,8.0,3.0,,,,,,,,,,,,,blau,red,r,0.0,r,1.0,0.336578999995254,,,,,,,,,,3.0,8.0,44.0,4.0,281.2681784000015,,,,,,,,,,,,,,,,,281.2555244000396,282.0677978000021,282.86778120003873,282.8530597000499,,,,,,,,,,,,,,,,,,,,,,,,,,,,,,,,,,,282.8544088000199,282.86778120003873,282.86778120003873,283.22068570001284,r,1.0,0.336578999995254,,,,,sub-042,1,stroop_test,59.9712737575632,
,,,,45.0,9.0,3.0,,,,,,,,,,,,,gelb,yellow,g,1.0,g,1.0,0.4526297999545932,,,,,,,,,,3.0,9.0,45.0,11.0,283.234433500038,,,,,,,,,,,,,,,,,283.22165120003046,284.4342422000482,285.2412512000301,285.2195093000191,,,,,,,,,,,,,,,,,,,,,,,,,,,,,,,,,,,285.2300704999943,285.2412512000301,285.2412512000301,285.70516100001987,g,1.0,0.4526297999545932,,,,,sub-042,1,stroop_test,59.9712737575632,
,,,,46.0,10.0,3.0,,,,,,,,,,,,,gelb,blue,b,0.0,b,1.0,0.9240404999582096,,,,,,,,,,3.0,10.0,46.0,9.0,285.71711470000446,,,,,,,,,,,,,,,,,285.7061611000099,286.9173132000142,287.7164478000486,287.700862800004,,,,,,,,,,,,,,,,,,,,,,,,,,,,,,,,,,,287.70154150004964,287.7164478000486,287.7164478000486,288.6514255000511,b,1.0,0.9240404999582096,,,,,sub-042,1,stroop_test,59.9712737575632,
,,,,47.0,11.0,3.0,,,,,,,,,,,,,blau,blue,b,1.0,b,1.0,0.5986624999786727,,,,,,,,,,3.0,11.0,47.0,5.0,288.66612030001124,,,,,,,,,,,,,,,,,288.6519362000399,288.7663068000111,289.56598390004365,289.5503787000198,,,,,,,,,,,,,,,,,,,,,,,,,,,,,,,,,,,289.55563950003125,289.56598390004365,289.56598390004365,290.1669358999934,b,1.0,0.5986624999786727,,,,,sub-042,1,stroop_test,59.9712737575632,
,,,,48.0,0.0,4.0,,,,,,,,,,,,,gelb,red,r,0.0,r,1.0,1.8917677999706937,,,,,,,,,,4.0,0.0,48.0,8.0,290.1812692999956,,,,,,,,,,,,,,,,,290.1676698999945,290.28151840000646,291.0878932000487,291.06665090000024,,,,,,,,,,,,,,,,,,,,,,,,,,,,,,,,,,,291.07803590002004,291.0878932000487,291.0878932000487,292.9831310000154,r,1.0,1.8917677999706937,,,,,sub-042,1,stroop_test,59.9712737575632,
,,,,49.0,1.0,4.0,,,,,,,,,,,,,rot,red,r,1.0,r,1.0,0.8888887000503018,,,,,,,,,,4.0,1.0,49.0,0.0,292.9973972000298,,,,,,,,,,,,,,,,,292.9836193000083,294.1970737000229,294.9968572999933,294.9812538000406,,,,,,,,,,,,,,,,,,,,,,,,,,,,,,,,,,,294.9871162000345,294.9968572999933,294.9968572999933,295.89797560003353,r,1.0,0.8888887000503018,,,,,sub-042,1,stroop_test,59.9712737575632,
,,,,50.0,2.0,4.0,,,,,,,,,,,,,gelb,yellow,g,1.0,g,1.0,1.1918627000413835,,,,,,,,,,4.0,2.0,50.0,10.0,295.91334100003587,,,,,,,,,,,,,,,,,295.898375400051,296.0132717000088,296.82114569999976,296.799233000027,,,,,,,,,,,,,,,,,,,,,,,,,,,,,,,,,,,296.81035430001793,296.82114569999976,296.82114569999976,298.0189462000272,g,1.0,1.1918627000413835,,,,,sub-042,1,stroop_test,59.9712737575632,
,,,,51.0,3.0,4.0,,,,,,,,,,,,,blau,blue,b,1.0,b,1.0,0.763184099982027,,,,,,,,,,4.0,3.0,51.0,5.0,298.0302173999953,,,,,,,,,,,,,,,,,298.0201206000056,298.1292626000359,298.9334145000321,298.914643600001,,,,,,,,,,,,,,,,,,,,,,,,,,,,,,,,,,,298.92396850005025,298.9334145000321,298.9334145000321,299.7000138000003,b,1.0,0.763184099982027,,,,,sub-042,1,stroop_test,59.9712737575632,
,,,,52.0,4.0,4.0,,,,,,,,,,,,,rot,yellow,g,0.0,g,1.0,1.3249864999670535,,,,,,,,,,4.0,4.0,52.0,3.0,299.71236430003773,,,,,,,,,,,,,,,,,299.7018936999957,300.51226170000155,301.31924700003583,301.2973428000114,,,,,,,,,,,,,,,,,,,,,,,,,,,,,,,,,,,301.3082758000237,301.31924700003583,301.31924700003583,302.6485795000335,g,1.0,1.3249864999670535,,,,,sub-042,1,stroop_test,59.9712737575632,
,,,,53.0,5.0,4.0,,,,,,,,,,,,,rot,blue,b,0.0,b,1.0,1.0878961000125855,,,,,,,,,,4.0,5.0,53.0,2.0,302.6612518000184,,,,,,,,,,,,,,,,,302.6497747999965,303.86130240000784,304.661175700021,304.6463450000156,,,,,,,,,,,,,,,,,,,,,,,,,,,,,,,,,,,304.64778310002293,304.661175700021,304.661175700021,305.7617788000498,b,1.0,1.0878961000125855,,,,,sub-042,1,stroop_test,59.9712737575632,
,,,,54.0,6.0,4.0,,,,,,,,,,,,,gelb,blue,b,0.0,b,1.0,0.9082255999674088,,,,,,,,,,4.0,6.0,54.0,9.0,305.7768113000202,,,,,,,,,,,,,,,,,305.762328300043,306.97695929999463,307.7840877000126,307.7619972000248,,,,,,,,,,,,,,,,,,,,,,,,,,,,,,,,,,,307.77339859999483,307.7840877000126,307.7840877000126,308.6971658000257,b,1.0,0.9082255999674088,,,,,sub-042,1,stroop_test,59.9712737575632,
,,,,55.0,7.0,4.0,,,,,,,,,,,,,blau,red,r,0.0,r,1.0,0.9424011000082828,,,,,,,,,,4.0,7.0,55.0,4.0,308.70983500004513,,,,,,,,,,,,,,,,,308.6982596000307,309.05913850001525,309.8653043000377,309.84485520003363,,,,,,,,,,,,,,,,,,,,,,,,,,,,,,,,,,,309.8560894000111,309.8653043000377,309.8653043000377,310.8130800999934,r,1.0,0.9424011000082828,,,,,sub-042,1,stroop_test,59.9712737575632,
,,,,56.0,8.0,4.0,,,,,,,,,,,,,gelb,yellow,g,1.0,g,1.0,0.6996070999884978,,,,,,,,,,4.0,8.0,56.0,11.0,310.82568280003034,,,,,,,,,,,,,,,,,310.81422480003675,310.9257080000243,311.7335257999948,311.7111239000224,,,,,,,,,,,,,,,,,,,,,,,,,,,,,,,,,,,311.7230152999982,311.7335257999948,311.7335257999948,312.4466318000341,g,1.0,0.6996070999884978,,,,,sub-042,1,stroop_test,59.9712737575632,
,,,,57.0,9.0,4.0,,,,,,,,,,,,,rot,red,r,1.0,r,1.0,1.5568911000154912,,,,,,,,,,4.0,9.0,57.0,1.0,312.45857030001935,,,,,,,,,,,,,,,,,312.4477147000144,312.55870390002383,313.3654491000343,313.34405670000706,,,,,,,,,,,,,,,,,,,,,,,,,,,,,,,,,,,313.35440680000465,313.3654491000343,313.3654491000343,314.92871150001884,r,1.0,1.5568911000154912,,,,,sub-042,1,stroop_test,59.9712737575632,
,,,,58.0,10.0,4.0,,,,,,,,,,,,,blau,blue,b,1.0,b,1.0,0.4627836999716237,,,,,,,,,,4.0,10.0,58.0,6.0,314.94096600002376,,,,,,,,,,,,,,,,,314.9297926000436,316.14035990001867,316.9433925000485,316.9258426000015,,,,,,,,,,,,,,,,,,,,,,,,,,,,,,,,,,,316.93443040002603,316.9433925000485,316.9433925000485,317.41066430002684,b,1.0,0.4627836999716237,,,,,sub-042,1,stroop_test,59.9712737575632,
,,,,59.0,11.0,4.0,,,,,,,,,,,,,blau,yellow,g,0.0,g,1.0,0.4121040999889374,,,,,,,,,,4.0,11.0,59.0,7.0,317.42360520001967,,,,,,,,,,,,,,,,,317.4116396000027,318.62343150004745,319.423058000044,319.40855769999325,,,,,,,,,,,,,,,,,,,,,,,,,,,,,,,,,,,319.4100608000299,319.423058000044,319.423058000044,319.8435984000098,g,1.0,0.4121040999889374,,,,,sub-042,1,stroop_test,59.9712737575632,
,,,,60.0,0.0,5.0,,,,,,,,,,,,,gelb,yellow,g,1.0,g,1.0,0.5002092000213452,,,,,,,,,,5.0,0.0,60.0,11.0,319.8563332000049,,,,,,,,,,,,,,,,,319.844697499997,320.65615049999906,321.46357850002823,321.44148249999853,,,,,,,,,,,,,,,,,,,,,,,,,,,,,,,,,,,321.4520546999993,321.46357850002823,321.46357850002823,321.97609180002473,g,1.0,0.5002092000213452,,,,,sub-042,1,stroop_test,59.9712737575632,
,,,,61.0,1.0,5.0,,,,,,,,,,,,,blau,red,r,0.0,r,1.0,1.6150823999778368,,,,,,,,,,5.0,1.0,61.0,4.0,321.9890562000219,,,,,,,,,,,,,,,,,321.9771976000048,322.0889608000289,322.8945851000026,322.8742864000378,,,,,,,,,,,,,,,,,,,,,,,,,,,,,,,,,,,322.8837880000356,322.8945851000026,322.8945851000026,324.5250149000203,r,1.0,1.6150823999778368,,,,,sub-042,1,stroop_test,59.9712737575632,
,,,,62.0,2.0,5.0,,,,,,,,,,,,,blau,blue,b,1.0,b,1.0,1.279956599988509,,,,,,,,,,5.0,2.0,62.0,5.0,324.5390482000075,,,,,,,,,,,,,,,,,324.52602819999447,324.8881712000002,325.68821960000787,325.67326370003866,,,,,,,,,,,,,,,,,,,,,,,,,,,,,,,,,,,325.6746688000276,325.68821960000787,325.68821960000787,326.9753230000497,b,1.0,1.279956599988509,,,,,sub-042,1,stroop_test,59.9712737575632,
,,,,63.0,3.0,5.0,,,,,,,,,,,,,blau,blue,b,1.0,b,1.0,0.5524736999650486,,,,,,,,,,5.0,3.0,63.0,6.0,326.98717269999906,,,,,,,,,,,,,,,,,326.9764486000058,327.33714150002925,328.1370823000325,328.1219187999959,,,,,,,,,,,,,,,,,,,,,,,,,,,,,,,,,,,328.12328480003634,328.1370823000325,328.1370823000325,328.7070952000213,b,1.0,0.5524736999650486,,,,,sub-042,1,stroop_test,59.9712737575632,
,,,,64.0,4.0,5.0,,,,,,,,,,,,,gelb,red,r,0.0,r,1.0,0.9252639000187628,,,,,,,,,,5.0,4.0,64.0,8.0,328.7202402999974,,,,,,,,,,,,,,,,,328.7082473000046,329.5199786000303,330.3267991000321,330.3048784999992,,,,,,,,,,,,,,,,,,,,,,,,,,,,,,,,,,,330.3174039000296,330.3267991000321,330.3267991000321,331.25627529999474,r,1.0,0.9252639000187628,,,,,sub-042,1,stroop_test,59.9712737575632,
,,,,65.0,5.0,5.0,,,,,,,,,,,,,rot,red,r,1.0,r,1.0,0.6628459999919869,,,,,,,,,,5.0,5.0,65.0,1.0,331.26920929999324,,,,,,,,,,,,,,,,,331.2580640999949,332.4691578000202,333.27758370002266,333.2550772000104,,,,,,,,,,,,,,,,,,,,,,,,,,,,,,,,,,,333.2659899000428,333.27758370002266,333.27758370002266,333.95519470004365,r,1.0,0.6628459999919869,,,,,sub-042,1,stroop_test,59.9712737575632,
,,,,66.0,6.0,5.0,,,,,,,,,,,,,rot,yellow,g,0.0,g,1.0,0.8917256999993697,,,,,,,,,,5.0,6.0,66.0,3.0,333.9686023000395,,,,,,,,,,,,,,,,,333.95616180001525,334.068754500011,334.86824120004894,334.85276420001173,,,,,,,,,,,,,,,,,,,,,,,,,,,,,,,,,,,334.8540443000384,334.86824120004894,334.86824120004894,335.7687669000006,g,1.0,0.8917256999993697,,,,,sub-042,1,stroop_test,59.9712737575632,
,,,,67.0,7.0,5.0,,,,,,,,,,,,,rot,blue,b,0.0,b,1.0,0.7530228000250645,,,,,,,,,,5.0,7.0,67.0,2.0,335.784005500027,,,,,,,,,,,,,,,,,335.76924860000145,336.9843323000241,337.7838988000294,337.76966440002434,,,,,,,,,,,,,,,,,,,,,,,,,,,,,,,,,,,337.7713980000117,337.7838988000294,337.7838988000294,338.55381569999736,b,1.0,0.7530228000250645,,,,,sub-042,1,stroop_test,59.9712737575632,
,,,,68.0,8.0,5.0,,,,,,,,,,,,,gelb,yellow,g,1.0,g,1.0,0.6163797000190243,,,,,,,,,,5.0,8.0,68.0,10.0,338.5669584000134,,,,,,,,,,,,,,,,,338.5548118000152,339.76683440001216,340.57147690001875,340.55094129999634,,,,,,,,,,,,,,,,,,,,,,,,,,,,,,,,,,,340.562193699996,340.57147690001875,340.57147690001875,341.2027465000283,g,1.0,0.6163797000190243,,,,,sub-042,1,stroop_test,59.9712737575632,
,,,,69.0,9.0,5.0,,,,,,,,,,,,,gelb,blue,b,0.0,b,1.0,0.5615328999701887,,,,,,,,,,5.0,9.0,69.0,9.0,341.21615799999563,,,,,,,,,,,,,,,,,341.2037738999934,341.56609199999366,342.3658775000368,342.35068319999846,,,,,,,,,,,,,,,,,,,,,,,,,,,,,,,,,,,342.35196940001333,342.3658775000368,342.3658775000368,342.93674850004027,b,1.0,0.5615328999701887,,,,,sub-042,1,stroop_test,59.9712737575632,
,,,,70.0,10.0,5.0,,,,,,,,,,,,,rot,red,r,1.0,r,1.0,0.6606021000188775,,,,,,,,,,5.0,10.0,70.0,0.0,342.94905870000366,,,,,,,,,,,,,,,,,342.93793200002983,343.7487894000369,344.55746020004153,344.53425730002346,,,,,,,,,,,,,,,,,,,,,,,,,,,,,,,,,,,344.54692170000635,344.55746020004153,344.55746020004153,345.23599580000155,r,1.0,0.6606021000188775,,,,,sub-042,1,stroop_test,59.9712737575632,
,,,,71.0,11.0,5.0,,,,,,,,,,,,,blau,yellow,g,0.0,g,1.0,0.9311702999984846,,,,,,,,,,5.0,11.0,71.0,7.0,345.24852540000575,,,,,,,,,,,,,,,,,345.23712390003493,346.44782150001265,347.2488702000119,347.2327365000383,,,,,,,,,,,,,,,,,,,,,,,,,,,,,,,,,,,347.24076800001785,347.2488702000119,347.2488702000119,348.1839462000062,g,1.0,0.9311702999984846,,,,,sub-042,1,stroop_test,59.9712737575632,
,,,,72.0,0.0,6.0,,,,,,,,,,,,,rot,red,r,1.0,r,1.0,0.6402350999996997,,,,,,,,,,6.0,0.0,72.0,0.0,348.19713480002247,,,,,,,,,,,,,,,,,348.1848954000161,348.9967330000364,349.7993759000092,349.7815825000289,,,,,,,,,,,,,,,,,,,,,,,,,,,,,,,,,,,349.7912270000088,349.7993759000092,349.7993759000092,350.4477526000119,r,1.0,0.6402350999996997,,,,,sub-042,1,stroop_test,59.9712737575632,
,,,,73.0,1.0,6.0,,,,,,,,,,,,,gelb,yellow,g,1.0,g,1.0,1.4265888999798335,,,,,,,,,,6.0,1.0,73.0,10.0,350.4628089000471,,,,,,,,,,,,,,,,,350.4481800000067,350.8126426000381,351.61235460004536,351.59692320000613,,,,,,,,,,,,,,,,,,,,,,,,,,,,,,,,,,,351.6023284000112,351.61235460004536,351.61235460004536,353.0511173999985,g,1.0,1.4265888999798335,,,,,sub-042,1,stroop_test,59.9712737575632,
,,,,74.0,2.0,6.0,,,,,,,,,,,,,rot,red,r,1.0,r,1.0,0.9856690999586136,,,,,,,,,,6.0,2.0,74.0,1.0,353.06211640004767,,,,,,,,,,,,,,,,,353.05204270000104,353.1626387000433,353.96171100001084,353.94634470000165,,,,,,,,,,,,,,,,,,,,,,,,,,,,,,,,,,,353.95372099999804,353.96171100001084,353.96171100001084,354.9632202000357,r,1.0,0.9856690999586136,,,,,sub-042,1,stroop_test,59.9712737575632,
,,,,75.0,3.0,6.0,,,,,,,,,,,,,gelb,red,r,0.0,r,1.0,1.0087399000185542,,,,,,,,,,6.0,3.0,75.0,8.0,354.9781675999984,,,,,,,,,,,,,,,,,354.9638188999961,355.3281011999934,356.13184859999456,356.1131825000048,,,,,,,,,,,,,,,,,,,,,,,,,,,,,,,,,,,356.12241490004817,356.13184859999456,356.13184859999456,357.14801260002423,r,1.0,1.0087399000185542,,,,,sub-042,1,stroop_test,59.9712737575632,
,,,,76.0,4.0,6.0,,,,,,,,,,,,,blau,blue,b,1.0,b,1.0,0.4788398999953642,,,,,,,,,,6.0,4.0,76.0,6.0,357.1612865000497,,,,,,,,,,,,,,,,,357.1490386000369,358.3603747000452,359.1646328000352,359.14641980000306,,,,,,,,,,,,,,,,,,,,,,,,,,,,,,,,,,,359.15563330001896,359.1646328000352,359.1646328000352,359.6496086000116,b,1.0,0.4788398999953642,,,,,sub-042,1,stroop_test,59.9712737575632,
,,,,77.0,5.0,6.0,,,,,,,,,,,,,rot,yellow,g,0.0,g,1.0,0.8001237999997102,,,,,,,,,,6.0,5.0,77.0,3.0,359.66001280001365,,,,,,,,,,,,,,,,,359.6507290000445,359.7606989000342,360.5665663999971,360.5454212000477,,,,,,,,,,,,,,,,,,,,,,,,,,,,,,,,,,,360.5567151000141,360.5665663999971,360.5665663999971,361.3803451000131,g,1.0,0.8001237999997102,,,,,sub-042,1,stroop_test,59.9712737575632,
,,,,78.0,6.0,6.0,,,,,,,,,,,,,rot,blue,b,0.0,b,1.0,0.6646168999723159,,,,,,,,,,6.0,6.0,78.0,2.0,361.393405800045,,,,,,,,,,,,,,,,,361.3814782000263,361.7434327999945,362.54268690000754,362.5282439000439,,,,,,,,,,,,,,,,,,,,,,,,,,,,,,,,,,,362.5297838000115,362.54268690000754,362.54268690000754,363.21228199999314,b,1.0,0.6646168999723159,,,,,sub-042,1,stroop_test,59.9712737575632,
,,,,79.0,7.0,6.0,,,,,,,,,,,,,blau,yellow,g,0.0,g,1.0,1.1985629000118934,,,,,,,,,,6.0,7.0,79.0,7.0,363.22589070000686,,,,,,,,,,,,,,,,,363.2132823000429,363.5759395000059,364.3823101000162,364.3613978000358,,,,,,,,,,,,,,,,,,,,,,,,,,,,,,,,,,,364.372517700016,364.3823101000162,364.3823101000162,365.5954111000174,g,1.0,1.1985629000118934,,,,,sub-042,1,stroop_test,59.9712737575632,
,,,,80.0,8.0,6.0,,,,,,,,,,,,,gelb,blue,b,0.0,b,1.0,0.5418254999676719,,,,,,,,,,6.0,8.0,80.0,9.0,365.60859590000473,,,,,,,,,,,,,,,,,365.5964733000146,366.408282599994,367.21251949999714,367.1926824999973,,,,,,,,,,,,,,,,,,,,,,,,,,,,,,,,,,,367.20223590004025,367.21251949999714,367.21251949999714,367.7608829000383,b,1.0,0.5418254999676719,,,,,sub-042,1,stroop_test,59.9712737575632,
,,,,81.0,9.0,6.0,,,,,,,,,,,,,blau,blue,b,1.0,b,1.0,0.4782685000100173,,,,,,,,,,6.0,9.0,81.0,5.0,367.7745406000176,,,,,,,,,,,,,,,,,367.76178170001367,367.8744634000468,368.6776629000087,368.6595797000337,,,,,,,,,,,,,,,,,,,,,,,,,,,,,,,,,,,368.6692524999962,368.6776629000087,368.6776629000087,369.1607825999963,b,1.0,0.4782685000100173,,,,,sub-042,1,stroop_test,59.9712737575632,
,,,,82.0,10.0,6.0,,,,,,,,,,,,,gelb,yellow,g,1.0,g,1.0,0.6160145000321791,,,,,,,,,,6.0,10.0,82.0,11.0,369.1741275000386,,,,,,,,,,,,,,,,,369.16173260001233,370.373956400028,371.1773187000072,371.1583606000058,,,,,,,,,,,,,,,,,,,,,,,,,,,,,,,,,,,371.1679561000201,371.1773187000072,371.1773187000072,371.81014050001977,g,1.0,0.6160145000321791,,,,,sub-042,1,stroop_test,59.9712737575632,
,,,,83.0,11.0,6.0,,,,,,,,,,,,,blau,red,r,0.0,r,1.0,0.5987433000118472,,,,,,,,,,6.0,11.0,83.0,4.0,371.8233073000447,,,,,,,,,,,,,,,,,371.811242100026,372.1732798000448,372.9785249000415,372.95877160003874,,,,,,,,,,,,,,,,,,,,,,,,,,,,,,,,,,,372.968337600003,372.9785249000415,372.9785249000415,373.592294400034,r,1.0,0.5987433000118472,,,,,sub-042,1,stroop_test,59.9712737575632,
,,,,84.0,0.0,7.0,,,,,,,,,,,,,gelb,blue,b,0.0,b,1.0,0.5902229000348598,,,,,,,,,,7.0,0.0,84.0,9.0,373.60616330005,,,,,,,,,,,,,,,,,373.5933032000321,373.7063965999987,374.5116331000463,374.49201089999406,,,,,,,,,,,,,,,,,,,,,,,,,,,,,,,,,,,374.5025409000227,374.5116331000463,374.5116331000463,375.109414400009,b,1.0,0.5902229000348598,,,,,sub-042,1,stroop_test,59.9712737575632,
,,,,85.0,1.0,7.0,,,,,,,,,,,,,rot,blue,b,0.0,b,1.0,0.534699100011494,,,,,,,,,,7.0,1.0,85.0,2.0,375.1223857000005,,,,,,,,,,,,,,,,,375.1103497000295,375.92179230001057,376.7307829000056,376.7084816000424,,,,,,,,,,,,,,,,,,,,,,,,,,,,,,,,,,,376.72045620001154,376.7307829000056,376.7307829000056,377.2766065000324,b,1.0,0.534699100011494,,,,,sub-042,1,stroop_test,59.9712737575632,
,,,,86.0,2.0,7.0,,,,,,,,,,,,,rot,yellow,g,0.0,g,1.0,0.6058732999954373,,,,,,,,,,7.0,2.0,86.0,3.0,377.2886251000455,,,,,,,,,,,,,,,,,377.2775618000305,377.63850120001007,378.43759660003707,378.4230249000248,,,,,,,,,,,,,,,,,,,,,,,,,,,,,,,,,,,378.4243492000387,378.43759660003707,378.43759660003707,379.05697890004376,g,1.0,0.6058732999954373,,,,,sub-042,1,stroop_test,59.9712737575632,
,,,,87.0,3.0,7.0,,,,,,,,,,,,,gelb,red,r,0.0,r,1.0,0.7050191000453196,,,,,,,,,,7.0,3.0,87.0,8.0,379.0709071000456,,,,,,,,,,,,,,,,,379.05794990004506,379.4208961999975,380.2269666000502,380.206524600042,,,,,,,,,,,,,,,,,,,,,,,,,,,,,,,,,,,380.2173781000311,380.2269666000502,380.2269666000502,380.941395300033,r,1.0,0.7050191000453196,,,,,sub-042,1,stroop_test,59.9712737575632,
,,,,88.0,4.0,7.0,,,,,,,,,,,,,rot,red,r,1.0,r,1.0,0.6217269999906421,,,,,,,,,,7.0,4.0,88.0,1.0,380.9539191999938,,,,,,,,,,,,,,,,,380.9423574000248,381.3038218000438,382.1083035000484,382.0888659000048,,,,,,,,,,,,,,,,,,,,,,,,,,,,,,,,,,,382.09835879999446,382.1083035000484,382.1083035000484,382.7396594000165,r,1.0,0.6217269999906421,,,,,sub-042,1,stroop_test,59.9712737575632,
,,,,89.0,5.0,7.0,,,,,,,,,,,,,blau,yellow,g,0.0,g,1.0,0.7835914000170305,,,,,,,,,,7.0,5.0,89.0,7.0,382.75327970000217,,,,,,,,,,,,,,,,,382.7406932000304,383.1034752000123,383.9071071000071,383.8884404000128,,,,,,,,,,,,,,,,,,,,,,,,,,,,,,,,,,,383.89773290004814,383.9071071000071,383.9071071000071,384.70600629999535,g,1.0,0.7835914000170305,,,,,sub-042,1,stroop_test,59.9712737575632,
,,,,90.0,6.0,7.0,,,,,,,,,,,,,blau,blue,b,1.0,b,1.0,0.4729339000186883,,,,,,,,,,7.0,6.0,90.0,5.0,384.7194002000033,,,,,,,,,,,,,,,,,384.7069337000139,385.069241499994,385.869187000033,385.85424250003416,,,,,,,,,,,,,,,,,,,,,,,,,,,,,,,,,,,385.855670000019,385.869187000033,385.869187000033,386.3556771000149,b,1.0,0.4729339000186883,,,,,sub-042,1,stroop_test,59.9712737575632,
,,,,91.0,7.0,7.0,,,,,,,,,,,,,gelb,yellow,g,1.0,g,1.0,0.6884594000293873,,,,,,,,,,7.0,7.0,91.0,11.0,386.3693143000128,,,,,,,,,,,,,,,,,386.356596800033,387.5681650000042,388.37492670002393,388.3531828999985,,,,,,,,,,,,,,,,,,,,,,,,,,,,,,,,,,,388.3655938000302,388.37492670002393,388.37492670002393,389.0709964000271,g,1.0,0.6884594000293873,,,,,sub-042,1,stroop_test,59.9712737575632,
,,,,92.0,8.0,7.0,,,,,,,,,,,,,gelb,yellow,g,1.0,g,1.0,0.5375374999712221,,,,,,,,,,7.0,8.0,92.0,10.0,389.08455240004696,,,,,,,,,,,,,,,,,389.0720879000146,389.8846859000041,390.6842295000097,390.6698062000214,,,,,,,,,,,,,,,,,,,,,,,,,,,,,,,,,,,390.67139130004216,390.6842295000097,390.6842295000097,391.23726510000415,g,1.0,0.5375374999712221,,,,,sub-042,1,stroop_test,59.9712737575632,
,,,,93.0,9.0,7.0,,,,,,,,,,,,,blau,red,r,0.0,r,1.0,0.5975611999747343,,,,,,,,,,7.0,9.0,93.0,4.0,391.2504608000163,,,,,,,,,,,,,,,,,391.238230100018,392.4503386000288,393.2546208000276,393.235354000004,,,,,,,,,,,,,,,,,,,,,,,,,,,,,,,,,,,393.24472370004514,393.2546208000276,393.2546208000276,393.8692289000028,r,1.0,0.5975611999747343,,,,,sub-042,1,stroop_test,59.9712737575632,
,,,,94.0,10.0,7.0,,,,,,,,,,,,,blau,blue,b,1.0,b,1.0,0.5340107000083663,,,,,,,,,,7.0,10.0,94.0,6.0,393.8832430000184,,,,,,,,,,,,,,,,,393.8702019000193,394.2330245000194,395.0328645000118,395.0180728000123,,,,,,,,,,,,,,,,,,,,,,,,,,,,,,,,,,,395.0195103000151,395.0328645000118,395.0328645000118,395.5713592999964,b,1.0,0.5340107000083663,,,,,sub-042,1,stroop_test,59.9712737575632,
,,,,95.0,11.0,7.0,,,,,,,,,,,,,rot,red,r,1.0,r,1.0,0.5602536000078544,,,,,,,,,,7.0,11.0,95.0,0.0,395.5834131000447,,,,,,,,,,,,,,,,,395.5724290000508,395.6824801000184,396.492758300039,396.4677436000202,,,,,,,,,,,,,,,,,,,,,,,,,,,,,,,,,,,396.48191880004015,396.492758300039,396.492758300039,397.0683147000382,r,1.0,0.5602536000078544,,,,,sub-042,1,stroop_test,59.9712737575632,
,,,,96.0,0.0,8.0,,,,,,,,,,,,,gelb,blue,b,0.0,b,1.0,0.4958580000093207,,,,,,,,,,8.0,0.0,96.0,9.0,397.08226290001767,,,,,,,,,,,,,,,,,397.0693608000293,397.8819511000184,398.6880420999951,398.66734430001816,,,,,,,,,,,,,,,,,,,,,,,,,,,,,,,,,,,398.67816060001496,398.6880420999951,398.6880420999951,399.2014614000218,b,1.0,0.4958580000093207,,,,,sub-042,1,stroop_test,59.9712737575632,
,,,,97.0,1.0,8.0,,,,,,,,,,,,,blau,yellow,g,0.0,g,1.0,0.4984769999864511,,,,,,,,,,8.0,1.0,97.0,7.0,399.21473190002143,,,,,,,,,,,,,,,,,399.2024647000362,400.4145688000135,401.2184315000195,401.1997419000254,,,,,,,,,,,,,,,,,,,,,,,,,,,,,,,,,,,401.20973689999664,401.2184315000195,401.2184315000195,401.7347540000337,g,1.0,0.4984769999864511,,,,,sub-042,1,stroop_test,59.9712737575632,
,,,,98.0,2.0,8.0,,,,,,,,,,,,,rot,red,r,1.0,r,1.0,0.5262570000486448,,,,,,,,,,8.0,2.0,98.0,1.0,401.7475670000422,,,,,,,,,,,,,,,,,401.73587680002674,402.0973033000482,402.9051843000343,402.8821778999991,,,,,,,,,,,,,,,,,,,,,,,,,,,,,,,,,,,402.8932994000497,402.9051843000343,402.9051843000343,403.4498716000234,r,1.0,0.5262570000486448,,,,,sub-042,1,stroop_test,59.9712737575632,
,,,,99.0,3.0,8.0,,,,,,,,,,,,,rot,red,r,1.0,r,1.0,0.8931879999581724,,,,,,,,,,8.0,3.0,99.0,0.0,403.4634233000106,,,,,,,,,,,,,,,,,403.45095359999686,404.6632305000094,405.46287260000827,405.4491035999963,,,,,,,,,,,,,,,,,,,,,,,,,,,,,,,,,,,405.4507524000365,405.46287260000827,405.46287260000827,406.3663705000072,r,1.0,0.8931879999581724,,,,,sub-042,1,stroop_test,59.9712737575632,
,,,,100.0,4.0,8.0,,,,,,,,,,,,,gelb,yellow,g,1.0,g,1.0,0.6895427000126801,,,,,,,,,,8.0,4.0,100.0,11.0,406.3793852000381,,,,,,,,,,,,,,,,,406.3674719000119,406.7291862000129,407.5331614000024,407.5144155000453,,,,,,,,,,,,,,,,,,,,,,,,,,,,,,,,,,,407.5240240000421,407.5331614000024,407.5331614000024,408.2328946000198,g,1.0,0.6895427000126801,,,,,sub-042,1,stroop_test,59.9712737575632,
,,,,101.0,5.0,8.0,,,,,,,,,,,,,rot,yellow,g,0.0,g,1.0,0.9702380999806336,,,,,,,,,,8.0,5.0,101.0,3.0,408.24540800001705,,,,,,,,,,,,,,,,,408.233958900033,409.444787400018,410.2446767000365,410.2288135000272,,,,,,,,,,,,,,,,,,,,,,,,,,,,,,,,,,,410.23341500002425,410.2446767000365,410.2446767000365,411.229688899999,g,1.0,0.9702380999806336,,,,,sub-042,1,stroop_test,59.9712737575632,
,,,,102.0,6.0,8.0,,,,,,,,,,,,,blau,red,r,0.0,r,1.0,0.8045354000059888,,,,,,,,,,8.0,6.0,102.0,4.0,411.2440001000068,,,,,,,,,,,,,,,,,411.2304479000159,411.5938383000321,412.3936086000176,412.37805960001424,,,,,,,,,,,,,,,,,,,,,,,,,,,,,,,,,,,412.38468580000335,412.3936086000176,412.3936086000176,413.2118391999975,r,1.0,0.8045354000059888,,,,,sub-042,1,stroop_test,59.9712737575632,
,,,,103.0,7.0,8.0,,,,,,,,,,,,,blau,blue,b,1.0,b,1.0,0.6889941000263207,,,,,,,,,,8.0,7.0,103.0,5.0,413.2266574000241,,,,,,,,,,,,,,,,,413.2123422000441,413.576554600033,414.3766711000353,414.36231039999984,,,,,,,,,,,,,,,,,,,,,,,,,,,,,,,,,,,414.3636642000056,414.3766711000353,414.3766711000353,415.0797752000508,b,1.0,0.6889941000263207,,,,,sub-042,1,stroop_test,59.9712737575632,
,,,,104.0,8.0,8.0,,,,,,,,,,,,,gelb,red,r,0.0,r,1.0,0.8423584999982268,,,,,,,,,,8.0,8.0,104.0,8.0,415.0928101000027,,,,,,,,,,,,,,,,,415.0810144999996,416.29244340001605,417.0965520000318,417.0776943000383,,,,,,,,,,,,,,,,,,,,,,,,,,,,,,,,,,,417.0868086999981,417.0965520000318,417.0965520000318,417.9458530000411,r,1.0,0.8423584999982268,,,,,sub-042,1,stroop_test,59.9712737575632,
,,,,105.0,9.0,8.0,,,,,,,,,,,,,blau,blue,b,1.0,b,1.0,0.6132551999762654,,,,,,,,,,8.0,9.0,105.0,6.0,417.9592656000168,,,,,,,,,,,,,,,,,417.9468775000423,418.0590463000117,418.8601820000331,418.8436168000335,,,,,,,,,,,,,,,,,,,,,,,,,,,,,,,,,,,418.8516337000183,418.8601820000331,418.8601820000331,419.4781668000505,b,1.0,0.6132551999762654,,,,,sub-042,1,stroop_test,59.9712737575632,
,,,,106.0,10.0,8.0,,,,,,,,,,,,,gelb,yellow,g,1.0,g,1.0,0.5038772000116296,,,,,,,,,,8.0,10.0,106.0,10.0,419.49175070005,,,,,,,,,,,,,,,,,419.4790978000383,420.2915731000248,421.09569810004905,421.0762988000061,,,,,,,,,,,,,,,,,,,,,,,,,,,,,,,,,,,421.08592470001895,421.09569810004905,421.09569810004905,421.6109056000132,g,1.0,0.5038772000116296,,,,,sub-042,1,stroop_test,59.9712737575632,
,,,,107.0,11.0,8.0,,,,,,,,,,,,,rot,blue,b,0.0,b,1.0,0.9779819000395946,,,,,,,,,,8.0,11.0,107.0,2.0,421.62435330002336,,,,,,,,,,,,,,,,,421.6118535000133,422.8242879000027,423.6276212999946,423.6085875999997,,,,,,,,,,,,,,,,,,,,,,,,,,,,,,,,,,,423.6183813000098,423.6276212999946,423.6276212999946,424.6102316000033,b,1.0,0.9779819000395946,,,,,sub-042,1,stroop_test,59.9712737575632,
,,,,108.0,0.0,9.0,,,,,,,,,,,,,blau,blue,b,1.0,b,1.0,0.4056293000467121,,,,,,,,,,9.0,0.0,108.0,6.0,424.6234867000021,,,,,,,,,,,,,,,,,424.6111862999969,425.8230468000402,426.6257535000332,426.6082216000068,,,,,,,,,,,,,,,,,,,,,,,,,,,,,,,,,,,426.61637340002926,426.6257535000332,426.6257535000332,427.0431967000477,b,1.0,0.4056293000467121,,,,,sub-042,1,stroop_test,59.9712737575632,
,,,,109.0,1.0,9.0,,,,,,,,,,,,,rot,yellow,g,0.0,g,1.0,0.6770301000215113,,,,,,,,,,9.0,1.0,109.0,3.0,427.05558360001305,,,,,,,,,,,,,,,,,427.0441741000395,427.1560776000261,427.9653767000418,427.9410867000115,,,,,,,,,,,,,,,,,,,,,,,,,,,,,,,,,,,427.95417370001087,427.9653767000418,427.9653767000418,428.6583781000227,g,1.0,0.6770301000215113,,,,,sub-042,1,stroop_test,59.9712737575632,
,,,,110.0,2.0,9.0,,,,,,,,,,,,,rot,blue,b,0.0,b,1.0,0.4466136000119149,,,,,,,,,,9.0,2.0,110.0,2.0,428.6722731000045,,,,,,,,,,,,,,,,,428.6593425000319,429.47237650002353,430.271913100034,430.2573954000254,,,,,,,,,,,,,,,,,,,,,,,,,,,,,,,,,,,430.2590841000201,430.271913100034,430.271913100034,430.726569200051,b,1.0,0.4466136000119149,,,,,sub-042,1,stroop_test,59.9712737575632,
,,,,111.0,3.0,9.0,,,,,,,,,,,,,blau,red,r,0.0,r,1.0,0.5580666000023484,,,,,,,,,,9.0,3.0,111.0,4.0,430.7384624000406,,,,,,,,,,,,,,,,,430.72768710000673,431.9377038000384,432.7372551000444,432.72175060003065,,,,,,,,,,,,,,,,,,,,,,,,,,,,,,,,,,,432.727953900001,432.7372551000444,432.7372551000444,433.3072220000322,r,1.0,0.5580666000023484,,,,,sub-042,1,stroop_test,59.9712737575632,
,,,,112.0,4.0,9.0,,,,,,,,,,,,,rot,red,r,1.0,r,1.0,0.5845563000184484,,,,,,,,,,9.0,4.0,112.0,0.0,433.3206460000365,,,,,,,,,,,,,,,,,433.3081582000013,433.4206326000276,434.2245004000142,434.20524020004086,,,,,,,,,,,,,,,,,,,,,,,,,,,,,,,,,,,434.2151891000103,434.2245004000142,434.2245004000142,434.82356350001646,r,1.0,0.5845563000184484,,,,,sub-042,1,stroop_test,59.9712737575632,
,,,,113.0,5.0,9.0,,,,,,,,,,,,,blau,yellow,g,0.0,g,1.0,0.735257400025148,,,,,,,,,,9.0,5.0,113.0,7.0,434.8367952000117,,,,,,,,,,,,,,,,,434.8245003000484,435.63661830005,436.4392374000163,436.4218230000115,,,,,,,,,,,,,,,,,,,,,,,,,,,,,,,,,,,436.4301035000244,436.4392374000163,436.4392374000163,437.1902756000054,g,1.0,0.735257400025148,,,,,sub-042,1,stroop_test,59.9712737575632,
,,,,114.0,6.0,9.0,,,,,,,,,,,,,gelb,blue,b,0.0,b,1.0,0.7257601000019349,,,,,,,,,,9.0,6.0,114.0,9.0,437.2033261000179,,,,,,,,,,,,,,,,,437.1914383000112,438.0032799000037,438.8076559000183,438.78791650000494,,,,,,,,,,,,,,,,,,,,,,,,,,,,,,,,,,,438.7980282000499,438.8076559000183,438.8076559000183,439.5361879999982,b,1.0,0.7257601000019349,,,,,sub-042,1,stroop_test,59.9712737575632,
,,,,115.0,7.0,9.0,,,,,,,,,,,,,rot,red,r,1.0,r,1.0,0.5723268000292592,,,,,,,,,,9.0,7.0,115.0,1.0,439.5514074999956,,,,,,,,,,,,,,,,,439.536692099995,439.6517088999972,440.45734470000025,440.4366461000173,,,,,,,,,,,,,,,,,,,,,,,,,,,,,,,,,,,440.4465385000221,440.45734470000025,440.45734470000025,441.03776620002463,r,1.0,0.5723268000292592,,,,,sub-042,1,stroop_test,59.9712737575632,
,,,,116.0,8.0,9.0,,,,,,,,,,,,,blau,blue,b,1.0,b,1.0,0.5388381999800913,,,,,,,,,,9.0,8.0,116.0,5.0,441.0511344000115,,,,,,,,,,,,,,,,,441.0383189000422,442.2509281000239,443.0576221999945,443.0367813000339,,,,,,,,,,,,,,,,,,,,,,,,,,,,,,,,,,,443.0484982000198,443.0576221999945,443.0576221999945,443.6043498000363,b,1.0,0.5388381999800913,,,,,sub-042,1,stroop_test,59.9712737575632,
,,,,117.0,9.0,9.0,,,,,,,,,,,,,gelb,yellow,g,1.0,g,1.0,1.5483072999631986,,,,,,,,,,9.0,9.0,117.0,10.0,443.6180682000122,,,,,,,,,,,,,,,,,443.60531490005087,443.7177734000143,444.5229036000092,444.5025629000156,,,,,,,,,,,,,,,,,,,,,,,,,,,,,,,,,,,444.513754900021,444.5229036000092,444.5229036000092,446.0845826000441,g,1.0,1.5483072999631986,,,,,sub-042,1,stroop_test,59.9712737575632,
,,,,118.0,10.0,9.0,,,,,,,,,,,,,gelb,yellow,g,1.0,g,1.0,0.509965099976398,,,,,,,,,,9.0,10.0,118.0,11.0,446.0999659000081,,,,,,,,,,,,,,,,,446.0849994000164,446.8998695000191,447.6995893000276,447.68450249999296,,,,,,,,,,,,,,,,,,,,,,,,,,,,,,,,,,,447.6857980000205,447.6995893000276,447.6995893000276,448.219391599996,g,1.0,0.509965099976398,,,,,sub-042,1,stroop_test,59.9712737575632,
,,,,119.0,11.0,9.0,,,,,,,,,,,,,gelb,red,r,0.0,r,1.0,0.6326197999878787,,,,,,,,,,9.0,11.0,119.0,8.0,448.2326822000323,,,,,,,,,,,,,,,,,448.2203303000424,448.5826538000256,449.38270170002943,449.3677887000376,,,,,,,,,,,,,,,,,,,,,,,,,,,,,,,,,,,449.36929110001074,449.38270170002943,449.38270170002943,450.02069070003927,r,1.0,0.6326197999878787,,,,,sub-042,1,stroop_test,59.9712737575632,
,,,,,,,,,,,,,,,,,,,,,,,,,,,,,,,,,,,,,,,,,,,,,,,,,,,,,,,,,,,,,,,,,,,,,,,,,,,,,,,,,,,,,,,,,,,,,,,,,,,,,,450.021206400008,450.0398765000282,455.0314826000249,sub-042,1,stroop_test,59.9712737575632,
