wordCTK,colorCTK,corrAnsCTK,congruentCTK,thisN,thisTrialN,thisRepN,keyResp_CTK.keys,keyResp_CTK.corr,keyResp_CTK.rt,keyResp_CTK.duration,wordPractice,colorPractice,corrAnsPractice,congruentPractice,respPractice.keys,respPractice.corr,respPractice.rt,respPractice.duration,word,color,corrAns,congruent,keyResp_test_run.keys,keyResp_test_run.corr,keyResp_test_run.rt,keyResp_test_run.duration,trials_CTK.thisRepN,trials_CTK.thisTrialN,trials_CTK.thisN,trials_CTK.thisIndex,trials_practice.thisRepN,trials_practice.thisTrialN,trials_practice.thisN,trials_practice.thisIndex,trials_test.thisRepN,trials_test.thisTrialN,trials_test.thisN,trials_test.thisIndex,thisRow.t,notes,instruction.started,instr_text.started,instr_image.started,instr_resp.started,instruction.stopped,instr_resp.keys,instr_resp.rt,instr_resp.duration,instr_color_to_key.started,instr_ctk.started,resp_ctk.started,instr_color_to_key.stopped,resp_ctk.keys,resp_ctk.rt,resp_ctk.duration,ITI.started,fixcross.started,fixcross.stopped,ITI.stopped,color_to_key_run.started,stimulus_CTK.started,keyResp_CTK.started,color_to_key_run.stopped,trials_CTK.keyResp_CTK.keys,trials_CTK.keyResp_CTK.corr,trials_CTK.keyResp_CTK.rt,trials_CTK.keyResp_CTK.duration,instr_practice.started,instr_practice_text.started,instr_practice_resp.started,instr_practice.stopped,instr_practice_resp.keys,instr_practice_resp.rt,instr_practice_resp.duration,practice_run.started,stimulus_practice.started,respPractice.started,practice_run.stopped,trials_practice.respPractice.keys,trials_practice.respPractice.corr,trials_practice.respPractice.rt,trials_practice.respPractice.duration,feedback.started,textFeedback.started,feedback.stopped,textFeedback.stopped,instr_test.started,instr_test_text.started,instr_test_resp.started,instr_test.stopped,instr_test_resp.keys,instr_test_resp.rt,instr_test_resp.duration,test_run.started,stimulus_test_run.started,keyResp_test_run.started,test_run.stopped,trials_test.keyResp_test_run.keys,trials_test.keyResp_test_run.corr,trials_test.keyResp_test_run.rt,trials_test.keyResp_test_run.duration,goodbye.started,textGoodbye.started,textGoodbye.stopped,goodbye.stopped,participant,session,expName,frameRate,Unnamed: 113
,,,,,,,,,,,,,,,,,,,,,,,,,,,,,,,,,,,,,,,,,0.0059426000225357,0.1027096000034362,0.1027096000034362,0.1027096000034362,68.62964560004184,space,68.43256800004747,,,,,,,,,,,,,,,,,,,,,,,,,,,,,,,,,,,,,,,,,,,,,,,,,,,,,,,,,,,sub-155,1,stroop_test,59.97451083430298,
,,,,,,,,,,,,,,,,,,,,,,,,,,,,,,,,,,,,,,,,,,,,,,,,,68.62977340002544,68.63559850002639,68.63559850002639,90.40428640000756,space,21.754814099986103,,,,,,,,,,,,,,,,,,,,,,,,,,,,,,,,,,,,,,,,,,,,,,,,,,,,sub-155,1,stroop_test,59.97451083430298,
test,red,r,1.0,0.0,0.0,0.0,r,1.0,1.701675099960994,,,,,,,,,,,,,,,,,,0.0,0.0,0.0,0.0,,,,,,,,,90.4265771000064,,,,,,,,,,,,,,,,,90.42284130002372,91.21994400001132,92.02459180000004,92.00517410004976,92.02045420004288,92.02459180000004,92.02459180000004,93.73825010005385,r,1.0,1.701675099960994,,,,,,,,,,,,,,,,,,,,,,,,,,,,,,,,,,,,,,,,sub-155,1,stroop_test,59.97451083430298,
test,blue,b,1.0,1.0,1.0,0.0,b,1.0,1.051499099994544,,,,,,,,,,,,,,,,,,0.0,1.0,1.0,2.0,,,,,,,,,93.75332770001842,,,,,,,,,,,,,,,,,93.7388445000397,94.10330260003684,94.90268690005178,94.88642290001737,94.88685550005177,94.90268690005178,94.90268690005178,95.9703262000112,b,1.0,1.051499099994544,,,,,,,,,,,,,,,,,,,,,,,,,,,,,,,,,,,,,,,,sub-155,1,stroop_test,59.97451083430298,
test,yellow,g,1.0,2.0,2.0,0.0,g,1.0,0.4808931999723427,,,,,,,,,,,,,,,,,,0.0,2.0,2.0,1.0,,,,,,,,,95.98627839999972,,,,,,,,,,,,,,,,,95.97075530001894,96.31978700001493,97.11961000005248,97.10458980000112,97.1054949000245,97.11961000005248,97.11961000005248,97.604859700019,g,1.0,0.4808931999723427,,,,,,,,,,,,,,,,,,,,,,,,,,,,,,,,,,,,,,,,sub-155,1,stroop_test,59.97451083430298,
test,blue,b,1.0,3.0,0.0,1.0,b,1.0,1.089290699979756,,,,,,,,,,,,,,,,,,1.0,0.0,3.0,2.0,,,,,,,,,97.61952500004554,,,,,,,,,,,,,,,,,97.60539260000223,97.71949450002283,98.51970350003104,98.50591200002236,98.50692370004252,98.51970350003104,98.51970350003104,99.62099710002076,b,1.0,1.089290699979756,,,,,,,,,,,,,,,,,,,,,,,,,,,,,,,,,,,,,,,,sub-155,1,stroop_test,59.97451083430298,
test,yellow,g,1.0,4.0,1.0,1.0,g,1.0,0.96425919997273,,,,,,,,,,,,,,,,,,1.0,1.0,4.0,1.0,,,,,,,,,99.6359622000018,,,,,,,,,,,,,,,,,99.62133110000286,100.4366827000049,101.23665640002582,101.22162460000254,101.2228296000394,101.23665640002582,101.23665640002582,102.2074183000368,g,1.0,0.96425919997273,,,,,,,,,,,,,,,,,,,,,,,,,,,,,,,,,,,,,,,,sub-155,1,stroop_test,59.97451083430298,
test,red,r,1.0,5.0,2.0,1.0,r,1.0,0.7492812999989837,,,,,,,,,,,,,,,,,,1.0,2.0,5.0,0.0,,,,,,,,,102.2197011000244,,,,,,,,,,,,,,,,,102.20804450003196,102.56997560005402,103.36977130000014,103.3550372000318,103.35610960004853,103.36977130000014,103.36977130000014,104.12412040005438,r,1.0,0.7492812999989837,,,,,,,,,,,,,,,,,,,,,,,,,,,,,,,,,,,,,,,,sub-155,1,stroop_test,59.97451083430298,
test,red,r,1.0,6.0,0.0,2.0,r,1.0,0.6379554999875836,,,,,,,,,,,,,,,,,,2.0,0.0,6.0,0.0,,,,,,,,,104.13699000002816,,,,,,,,,,,,,,,,,104.1245920000365,104.23645790002774,105.03593520005234,105.01987990003543,105.02071500004968,105.03593520005234,105.03593520005234,105.68887270003324,r,1.0,0.6379554999875836,,,,,,,,,,,,,,,,,,,,,,,,,,,,,,,,,,,,,,,,sub-155,1,stroop_test,59.97451083430298,
test,blue,b,1.0,7.0,1.0,2.0,b,1.0,0.6739714000141248,,,,,,,,,,,,,,,,,,2.0,1.0,7.0,2.0,,,,,,,,,105.7031804000144,,,,,,,,,,,,,,,,,105.68941360001918,106.05271070002344,106.85320470004808,106.8379649000126,106.83895240002312,106.85320470004808,106.85320470004808,107.53889580001125,b,1.0,0.6739714000141248,,,,,,,,,,,,,,,,,,,,,,,,,,,,,,,,,,,,,,,,sub-155,1,stroop_test,59.97451083430298,
test,yellow,g,1.0,8.0,2.0,2.0,g,1.0,0.5177159999730065,,,,,,,,,,,,,,,,,,2.0,2.0,8.0,1.0,,,,,,,,,107.55310070002452,,,,,,,,,,,,,,,,,107.53933630004758,108.35299890005264,109.15312530001393,109.1375120000448,109.1382962000207,109.15312530001393,109.15312530001393,109.68797980004456,g,1.0,0.5177159999730065,,,,,,,,,,,,,,,,,,,,,,,,,,,,,,,,,,,,,,,,sub-155,1,stroop_test,59.97451083430298,
test,blue,b,1.0,9.0,0.0,3.0,b,1.0,0.8670173999853432,,,,,,,,,,,,,,,,,,3.0,0.0,9.0,2.0,,,,,,,,,109.7028598000179,,,,,,,,,,,,,,,,,109.6884167000535,109.80293090001214,110.60308870003792,110.58752780000214,110.5882016000105,110.60308870003792,110.60308870003792,111.47450920002302,b,1.0,0.8670173999853432,,,,,,,,,,,,,,,,,,,,,,,,,,,,,,,,,,,,,,,,sub-155,1,stroop_test,59.97451083430298,
test,red,r,1.0,10.0,1.0,3.0,r,1.0,0.5189183999900706,,,,,,,,,,,,,,,,,,3.0,1.0,10.0,0.0,,,,,,,,,111.48635490000017,,,,,,,,,,,,,,,,,111.47489670000505,111.5864785000449,112.386361700017,112.3706922000274,112.37136300001292,112.386361700017,112.386361700017,112.922154400032,r,1.0,0.5189183999900706,,,,,,,,,,,,,,,,,,,,,,,,,,,,,,,,,,,,,,,,sub-155,1,stroop_test,59.97451083430298,
test,yellow,g,1.0,11.0,2.0,3.0,g,1.0,0.511908000044059,,,,,,,,,,,,,,,,,,3.0,2.0,11.0,1.0,,,,,,,,,112.93647870002314,,,,,,,,,,,,,,,,,112.92278230004013,113.73594820004656,114.5363151000347,114.52089380001416,114.52176940004574,114.5363151000347,114.5363151000347,115.05485330004012,g,1.0,0.511908000044059,,,,,,,,,,,,,,,,,,,,,,,,,,,,,,,,,,,,,,,,sub-155,1,stroop_test,59.97451083430298,
,,,,,,,,,,,,,,,,,,,,,,,,,,,,,,,,,,,,,,,,,,,,,,,,,,,,,,,,,,,,,,,,,,,,115.0550704000052,115.06954920000862,115.06954920000862,124.57353360002162,space,9.498910099966452,,,,,,,,,,,,,,,,,,,,,,,,,,,,,,,,,sub-155,1,stroop_test,59.97451083430298,
,,,,0.0,0.0,0.0,,,,,blau,blue,b,1.0,b,1.0,0.5308998000109568,,,,,,,,,,,,,,0.0,0.0,0.0,6.0,,,,,124.58692700002575,,,,,,,,,,,,,,,,,124.58378970000194,124.68622850003884,125.48841330001596,125.4716128000291,,,,,,,,,,,,,,,,125.4837789000012,125.48841330001596,125.48841330001596,126.02433240000391,b,1.0,0.5308998000109568,,126.03676550003,126.042080800049,127.03653090004808,,,,,,,,,,,,,,,,,,,,,sub-155,1,stroop_test,59.97451083430298,
,,,,1.0,1.0,0.0,,,,,rot,yellow,g,0.0,g,1.0,0.910137799975928,,,,,,,,,,,,,,0.0,1.0,1.0,3.0,,,,,127.0529623000184,,,,,,,,,,,,,,,,,127.03725510003278,128.2356433000532,129.03598750004312,129.02100360003533,,,,,,,,,,,,,,,,129.02816370001528,129.03598750004312,129.03598750004312,129.9536117000389,g,1.0,0.910137799975928,,129.95409140002448,129.96905690000858,130.95409490005113,130.96938450000016,,,,,,,,,,,,,,,,,,,,sub-155,1,stroop_test,59.97451083430298,
,,,,2.0,2.0,0.0,,,,,gelb,red,r,0.0,r,1.0,0.9354253000346944,,,,,,,,,,,,,,0.0,2.0,2.0,8.0,,,,,130.96938450000016,,,,,,,,,,,,,,,,,130.95455700001912,131.0526671000407,131.8525278000161,131.83790450001834,,,,,,,,,,,,,,,,131.84338820003904,131.8525278000161,131.8525278000161,132.80477500002598,r,1.0,0.9354253000346944,,132.80559790000552,132.81938700005412,133.80495230003726,133.81928880000487,,,,,,,,,,,,,,,,,,,,sub-155,1,stroop_test,59.97451083430298,
,,,,3.0,3.0,0.0,,,,,rot,red,r,1.0,r,1.0,0.7301426000194624,,,,,,,,,,,,,,0.0,3.0,3.0,1.0,,,,,133.81928880000487,,,,,,,,,,,,,,,,,133.8057493000524,133.91892610001378,134.71917360002408,134.70386880001752,,,,,,,,,,,,,,,,134.70897520001745,134.71917360002408,134.71917360002408,135.45423530001426,r,1.0,0.7301426000194624,,135.45480060001137,135.4694574000314,136.4544034000137,136.46930980001343,,,,,,,,,,,,,,,,,,,,sub-155,1,stroop_test,59.97451083430298,
,,,,4.0,4.0,0.0,,,,,blau,red,r,0.0,r,1.0,1.034092399990186,,,,,,,,,,,,,,0.0,4.0,4.0,4.0,,,,,136.46930980001343,,,,,,,,,,,,,,,,,136.45493680000072,136.81923630001256,137.6191104000318,137.6035374000203,,,,,,,,,,,,,,,,137.60725460003596,137.6191104000318,137.6191104000318,138.6578034000122,r,1.0,1.034092399990186,,138.65868350001983,138.66901520005194,139.65408330003265,139.66928150004242,,,,,,,,,,,,,,,,,,,,sub-155,1,stroop_test,59.97451083430298,
,,,,5.0,5.0,0.0,,,,,rot,red,r,1.0,r,1.0,0.6069831000058912,,,,,,,,,,,,,,0.0,5.0,5.0,0.0,,,,,139.66928150004242,,,,,,,,,,,,,,,,,139.6546482000267,140.4693345000269,141.26910269999644,141.25424219999695,,,,,,,,,,,,,,,,141.2591581000015,141.26910269999644,141.26910269999644,141.8876891999971,r,1.0,0.6069831000058912,,141.88836470001843,141.90267500001937,142.8878297000192,142.9027665000176,,,,,,,,,,,,,,,,,,,,sub-155,1,stroop_test,59.97451083430298,
,,,,6.0,6.0,0.0,,,,,gelb,yellow,g,1.0,g,1.0,0.7899379999726079,,,,,,,,,,,,,,0.0,6.0,6.0,11.0,,,,,142.9027665000176,,,,,,,,,,,,,,,,,142.8883379000472,144.10256320005283,144.90235610003583,144.8878894000081,,,,,,,,,,,,,,,,144.89333150000311,144.90235610003583,144.90235610003583,145.70416720001958,g,1.0,0.7899379999726079,,145.704895700037,145.71910460002255,146.70408580004005,146.7190889000194,,,,,,,,,,,,,,,,,,,,sub-155,1,stroop_test,59.97451083430298,
,,,,7.0,7.0,0.0,,,,,rot,blue,b,0.0,b,1.0,0.5185911000007764,,,,,,,,,,,,,,0.0,7.0,7.0,2.0,,,,,146.7190889000194,,,,,,,,,,,,,,,,,146.70461120002437,147.91896010003984,148.7188470000401,148.70431070000632,,,,,,,,,,,,,,,,148.7094915000489,148.7188470000401,148.7188470000401,149.2418690000195,b,1.0,0.5185911000007764,,149.24249470001087,149.25242750003235,150.23777090001386,150.25230210000882,,,,,,,,,,,,,,,,,,,,sub-155,1,stroop_test,59.97451083430298,
,,,,8.0,8.0,0.0,,,,,blau,yellow,g,0.0,g,1.0,1.0018730000010692,,,,,,,,,,,,,,0.0,8.0,8.0,7.0,,,,,150.25230210000882,,,,,,,,,,,,,,,,,150.2383516000118,150.35245260002557,151.15218790003564,151.13649920001626,,,,,,,,,,,,,,,,151.1408311999985,151.15218790003564,151.15218790003564,152.17125960002886,g,1.0,1.0018730000010692,,152.17208710004343,152.18576960003702,153.16967260005185,153.1856160000316,,,,,,,,,,,,,,,,,,,,sub-155,1,stroop_test,59.97451083430298,
,,,,9.0,9.0,0.0,,,,,blau,blue,b,1.0,b,1.0,0.760635300015565,,,,,,,,,,,,,,0.0,9.0,9.0,5.0,,,,,153.1856160000316,,,,,,,,,,,,,,,,,153.17019810003694,153.28527570003644,154.08563000004506,154.0698173000128,,,,,,,,,,,,,,,,154.07048490003217,154.08563000004506,154.08563000004506,154.8542825000477,b,1.0,0.760635300015565,,154.8551953000133,154.86864820000483,155.85359320003772,155.86883990000933,,,,,,,,,,,,,,,,,,,,sub-155,1,stroop_test,59.97451083430298,
,,,,10.0,10.0,0.0,,,,,gelb,yellow,g,1.0,g,1.0,0.661472900013905,,,,,,,,,,,,,,0.0,10.0,10.0,10.0,,,,,155.86883990000933,,,,,,,,,,,,,,,,,155.8540654000244,156.66909690003376,157.4684217000031,157.45270090003032,,,,,,,,,,,,,,,,157.45823710004333,157.4684217000031,157.4684217000031,158.13737609999953,g,1.0,0.661472900013905,,158.138056900003,158.151913800044,159.1371180000133,159.15187850000802,,,,,,,,,,,,,,,,,,,,sub-155,1,stroop_test,59.97451083430298,
,,,,11.0,11.0,0.0,,,,,gelb,blue,b,0.0,b,1.0,0.6855517000076361,,,,,,,,,,,,,,0.0,11.0,11.0,9.0,,,,,159.15187850000802,,,,,,,,,,,,,,,,,159.1376277000527,159.9519509000238,160.75240130000748,160.73691610002425,,,,,,,,,,,,,,,,160.7375789000071,160.75240130000748,160.75240130000748,161.45516720000887,b,1.0,0.6855517000076361,,161.45603840000695,161.46837740001502,162.4543573000119,162.46876180003164,,,,,,,,,,,,,,,,,,,,sub-155,1,stroop_test,59.97451083430298,
,,,,12.0,0.0,1.0,,,,,gelb,yellow,g,1.0,g,1.0,0.9243784000282176,,,,,,,,,,,,,,1.0,0.0,12.0,10.0,,,,,162.46876180003164,,,,,,,,,,,,,,,,,162.45496030000504,163.2688772000256,164.06911189999664,164.05370340001537,,,,,,,,,,,,,,,,164.05451139999786,164.06911189999664,164.06911189999664,165.00441170000704,g,1.0,0.9243784000282176,,165.00521690002645,165.01868850004394,166.00377599999774,166.01910600002157,,,,,,,,,,,,,,,,,,,,sub-155,1,stroop_test,59.97451083430298,
,,,,13.0,1.0,1.0,,,,,blau,blue,b,1.0,b,1.0,0.7199376999633387,,,,,,,,,,,,,,1.0,1.0,13.0,5.0,,,,,166.01910600002157,,,,,,,,,,,,,,,,,166.00445180002134,167.21839960000943,168.01846849999856,168.00466750003395,,,,,,,,,,,,,,,,168.01108660001773,168.01846849999856,168.01846849999856,168.75491740001598,b,1.0,0.7199376999633387,,168.75604190002196,168.76839430001564,169.75360160000855,169.7689846000285,,,,,,,,,,,,,,,,,,,,sub-155,1,stroop_test,59.97451083430298,
,,,,14.0,2.0,1.0,,,,,rot,red,r,1.0,r,1.0,0.8595263999886811,,,,,,,,,,,,,,1.0,2.0,14.0,0.0,,,,,169.7689846000285,,,,,,,,,,,,,,,,,169.75431330001447,170.5687528999988,171.3687140000402,171.35369920002995,,,,,,,,,,,,,,,,171.3584071000223,171.3687140000402,171.3687140000402,172.2381857000291,r,1.0,0.8595263999886811,,172.2391260000295,172.2519896000158,173.23695150000276,173.25210720003815,,,,,,,,,,,,,,,,,,,,sub-155,1,stroop_test,59.97451083430298,
,,,,15.0,3.0,1.0,,,,,blau,red,r,0.0,r,1.0,0.8206328999949619,,,,,,,,,,,,,,1.0,3.0,15.0,4.0,,,,,173.25210720003815,,,,,,,,,,,,,,,,,173.23752210004022,174.05199659999926,174.85220510000363,174.8373517,,,,,,,,,,,,,,,,174.8428869000054,174.85220510000363,174.85220510000363,175.6875,r,1.0,0.8206328999949619,,175.68836270004977,175.7017364000203,176.686729500012,176.70174270001007,,,,,,,,,,,,,,,,,,,,sub-155,1,stroop_test,59.97451083430298,
,,,,16.0,4.0,1.0,,,,,blau,blue,b,1.0,b,1.0,0.8807280999608338,,,,,,,,,,,,,,1.0,4.0,16.0,6.0,,,,,176.70174270001007,,,,,,,,,,,,,,,,,176.68725800001994,177.50213730003452,178.30194210004993,178.2867544000037,,,,,,,,,,,,,,,,178.2876279000193,178.30194210004993,178.30194210004993,179.18807150004432,b,1.0,0.8807280999608338,,179.18876640003873,179.20155390002765,180.18554550001863,180.20149440004025,,,,,,,,,,,,,,,,,,,,sub-155,1,stroop_test,59.97451083430298,
,,,,17.0,5.0,1.0,,,,,gelb,red,r,0.0,r,1.0,0.9536039999802596,,,,,,,,,,,,,,1.0,5.0,17.0,8.0,,,,,180.20149440004025,,,,,,,,,,,,,,,,,180.18591030000243,180.55188590002945,181.35175250004977,181.3365922000376,,,,,,,,,,,,,,,,181.3418908000458,181.35175250004977,181.35175250004977,182.3202263000421,r,1.0,0.9536039999802596,,182.320895700017,182.33511880005244,183.31941350002307,183.335235800012,,,,,,,,,,,,,,,,,,,,sub-155,1,stroop_test,59.97451083430298,
,,,,18.0,6.0,1.0,,,,,rot,red,r,1.0,r,1.0,0.7414337000227533,,,,,,,,,,,,,,1.0,6.0,18.0,1.0,,,,,183.335235800012,,,,,,,,,,,,,,,,,183.32010210002773,183.43555680004647,184.23530650004977,184.2197385000181,,,,,,,,,,,,,,,,184.224236500042,184.23530650004977,184.23530650004977,184.98798100004203,r,1.0,0.7414337000227533,,184.9888393000001,185.0017449000152,185.98710550001124,186.00220870005435,,,,,,,,,,,,,,,,,,,,sub-155,1,stroop_test,59.97451083430298,
,,,,19.0,7.0,1.0,,,,,rot,blue,b,0.0,b,1.0,0.7542443000129424,,,,,,,,,,,,,,1.0,7.0,19.0,2.0,,,,,186.00220870005435,,,,,,,,,,,,,,,,,185.98776400001952,186.8020037000533,187.6017904000473,187.5857098000124,,,,,,,,,,,,,,,,187.58621680003125,187.6017904000473,187.6017904000473,188.37033430003797,b,1.0,0.7542443000129424,,188.3709795000032,188.38487550005084,189.36938780004857,189.38500400003977,,,,,,,,,,,,,,,,,,,,sub-155,1,stroop_test,59.97451083430298,
,,,,20.0,8.0,1.0,,,,,gelb,blue,b,0.0,b,1.0,0.9160682000219822,,,,,,,,,,,,,,1.0,8.0,20.0,9.0,,,,,189.38500400003977,,,,,,,,,,,,,,,,,189.3699670000351,190.1848978000344,190.9848240000429,190.96891760005383,,,,,,,,,,,,,,,,190.9745129000512,190.9848240000429,190.9848240000429,191.91580030001933,b,1.0,0.9160682000219822,,191.91634090000295,191.92085750005208,192.91918260004604,,,,,,,,,,,,,,,,,,,,,sub-155,1,stroop_test,59.97451083430298,
,,,,21.0,9.0,1.0,,,,,blau,yellow,g,0.0,g,1.0,0.7585138999857008,,,,,,,,,,,,,,1.0,9.0,21.0,7.0,,,,,192.93547090003267,,,,,,,,,,,,,,,,,192.9199120000121,193.01883440004892,193.81829720002133,193.80407450004716,,,,,,,,,,,,,,,,193.80878710001707,193.81829720002133,193.81829720002133,194.5869348000269,g,1.0,0.7585138999857008,,194.58763360005105,194.6017121000332,195.5864886000054,195.601822800003,,,,,,,,,,,,,,,,,,,,sub-155,1,stroop_test,59.97451083430298,
,,,,22.0,10.0,1.0,,,,,gelb,yellow,g,1.0,g,1.0,0.5767930000438355,,,,,,,,,,,,,,1.0,10.0,22.0,11.0,,,,,195.601822800003,,,,,,,,,,,,,,,,,195.58708090003347,195.7019472999964,196.50164660002335,196.4869718000409,,,,,,,,,,,,,,,,196.4925004999968,196.50164660002335,196.50164660002335,197.0866053000209,g,1.0,0.5767930000438355,,197.0872046000441,197.10178960004123,198.0859349000384,198.1014344000141,,,,,,,,,,,,,,,,,,,,sub-155,1,stroop_test,59.97451083430298,
,,,,23.0,11.0,1.0,,,,,rot,yellow,g,0.0,g,1.0,0.9651945999939926,,,,,,,,,,,,,,1.0,11.0,23.0,3.0,,,,,198.1014344000141,,,,,,,,,,,,,,,,,198.0864780000411,198.4511227000039,199.2515513000544,199.2362720000092,,,,,,,,,,,,,,,,199.24068780004745,199.2515513000544,199.2515513000544,200.22225710004568,g,1.0,0.9651945999939926,,200.22291840001708,200.2347530000261,201.2203052000259,201.23519190005027,,,,,,,,,,,,,,,,,,,,sub-155,1,stroop_test,59.97451083430298,
,,,,,,,,,,,,,,,,,,,,,,,,,,,,,,,,,,,,,,,,,,,,,,,,,,,,,,,,,,,,,,,,,,,,,,,,,,,,,,,,,,,,,,,201.22055060003183,201.23519190005027,201.23519190005027,239.002337300044,space,37.75929169997107,,,,,,,,,,,,,,sub-155,1,stroop_test,59.97451083430298,
,,,,0.0,0.0,0.0,,,,,,,,,,,,,blau,blue,b,1.0,b,1.0,0.7324737000162713,,,,,,,,,,0.0,0.0,0.0,6.0,239.0171888000332,,,,,,,,,,,,,,,,,239.01364020002077,239.8171377000399,240.61707820004085,240.60105420002947,,,,,,,,,,,,,,,,,,,,,,,,,,,,,,,,,,,240.60501890000887,240.61707820004085,240.61707820004085,241.3516846999992,b,1.0,0.7324737000162713,,,,,,sub-155,1,stroop_test,59.97451083430298,
,,,,1.0,1.0,0.0,,,,,,,,,,,,,rot,blue,b,0.0,b,1.0,1.0556919000227936,,,,,,,,,,0.0,1.0,1.0,2.0,241.367037500022,,,,,,,,,,,,,,,,,241.352083100006,241.4670789000229,242.26711930002784,242.2511707000085,,,,,,,,,,,,,,,,,,,,,,,,,,,,,,,,,,,242.2554428000003,242.26711930002784,242.26711930002784,243.334960600012,b,1.0,1.0556919000227936,,,,,,sub-155,1,stroop_test,59.97451083430298,
,,,,2.0,2.0,0.0,,,,,,,,,,,,,blau,blue,b,1.0,b,1.0,0.8832969999639317,,,,,,,,,,0.0,2.0,2.0,5.0,243.3504466000013,,,,,,,,,,,,,,,,,243.33543279999867,244.55056330002844,245.3504964000313,245.33441860001767,,,,,,,,,,,,,,,,,,,,,,,,,,,,,,,,,,,245.339463900018,245.3504964000313,245.3504964000313,246.23631430004025,b,1.0,0.8832969999639317,,,,,,sub-155,1,stroop_test,59.97451083430298,
,,,,3.0,3.0,0.0,,,,,,,,,,,,,rot,yellow,g,0.0,g,1.0,0.6883160999859683,,,,,,,,,,0.0,3.0,3.0,3.0,246.250554200029,,,,,,,,,,,,,,,,,246.2366689000046,247.05068510002457,247.85042010003235,247.834425500012,,,,,,,,,,,,,,,,,,,,,,,,,,,,,,,,,,,247.83797560003583,247.85042010003235,247.85042010003235,248.5536571000121,g,1.0,0.6883160999859683,,,,,,sub-155,1,stroop_test,59.97451083430298,
,,,,4.0,4.0,0.0,,,,,,,,,,,,,gelb,yellow,g,1.0,g,1.0,0.5180930999922566,,,,,,,,,,0.0,4.0,4.0,10.0,248.56756750005297,,,,,,,,,,,,,,,,,248.55412290000825,248.9173236000352,249.71752840001136,249.70149150001816,,,,,,,,,,,,,,,,,,,,,,,,,,,,,,,,,,,249.70492570003265,249.71752840001136,249.71752840001136,250.25176750001265,g,1.0,0.5180930999922566,,,,,,sub-155,1,stroop_test,59.97451083430298,
,,,,5.0,5.0,0.0,,,,,,,,,,,,,blau,red,r,0.0,r,1.0,0.9067306999932044,,,,,,,,,,0.0,5.0,5.0,4.0,250.26703190000265,,,,,,,,,,,,,,,,,250.2521334000048,250.36688440002035,251.1670527000097,251.15087440004567,,,,,,,,,,,,,,,,,,,,,,,,,,,,,,,,,,,251.15354020003,251.1670527000097,251.1670527000097,252.08476009999868,r,1.0,0.9067306999932044,,,,,,sub-155,1,stroop_test,59.97451083430298,
,,,,6.0,6.0,0.0,,,,,,,,,,,,,gelb,red,r,0.0,r,1.0,0.7958340999903157,,,,,,,,,,0.0,6.0,6.0,8.0,252.1002803000156,,,,,,,,,,,,,,,,,252.0852567999973,252.2004209000152,253.0003804000444,252.9843300000066,,,,,,,,,,,,,,,,,,,,,,,,,,,,,,,,,,,252.98938820004696,253.0003804000444,253.0003804000444,253.80132080003384,r,1.0,0.7958340999903157,,,,,,sub-155,1,stroop_test,59.97451083430298,
,,,,7.0,7.0,0.0,,,,,,,,,,,,,gelb,yellow,g,1.0,g,1.0,0.6661868999945,,,,,,,,,,0.0,7.0,7.0,11.0,253.81685830000788,,,,,,,,,,,,,,,,,253.80175620003135,255.01691070001107,255.81684470002077,255.8008461000281,,,,,,,,,,,,,,,,,,,,,,,,,,,,,,,,,,,255.80144760000985,255.81684470002077,255.81684470002077,256.48511220002547,g,1.0,0.6661868999945,,,,,,sub-155,1,stroop_test,59.97451083430298,
,,,,8.0,8.0,0.0,,,,,,,,,,,,,gelb,blue,b,0.0,b,1.0,0.9242708999663592,,,,,,,,,,0.0,8.0,8.0,9.0,256.50025500002084,,,,,,,,,,,,,,,,,256.4854598000529,256.60015080001904,257.40042280004127,257.3840624000295,,,,,,,,,,,,,,,,,,,,,,,,,,,,,,,,,,,257.3846694000531,257.40042280004127,257.40042280004127,258.33453330001794,b,1.0,0.9242708999663592,,,,,,sub-155,1,stroop_test,59.97451083430298,
,,,,9.0,9.0,0.0,,,,,,,,,,,,,rot,red,r,1.0,r,1.0,0.8375823000096716,,,,,,,,,,0.0,9.0,9.0,0.0,258.3503548000008,,,,,,,,,,,,,,,,,258.3349662999972,259.5502835000516,260.3503300000448,260.3342801000108,,,,,,,,,,,,,,,,,,,,,,,,,,,,,,,,,,,260.3380326000042,260.3503300000448,260.3503300000448,261.2017250000499,r,1.0,0.8375823000096716,,,,,,sub-155,1,stroop_test,59.97451083430298,
,,,,10.0,10.0,0.0,,,,,,,,,,,,,rot,red,r,1.0,r,1.0,0.7160528999520466,,,,,,,,,,0.0,10.0,10.0,1.0,261.216794500011,,,,,,,,,,,,,,,,,261.2022099000169,262.01698160002707,262.81679470004747,262.8008032000507,,,,,,,,,,,,,,,,,,,,,,,,,,,,,,,,,,,262.8012646000134,262.81679470004747,262.81679470004747,263.5362763000303,r,1.0,0.7160528999520466,,,,,,sub-155,1,stroop_test,59.97451083430298,
,,,,11.0,11.0,0.0,,,,,,,,,,,,,blau,yellow,g,0.0,g,1.0,0.5427908999845386,,,,,,,,,,0.0,11.0,11.0,7.0,263.5501885000267,,,,,,,,,,,,,,,,,263.53678820002824,264.75017870002193,265.5507120999973,265.5356867000228,,,,,,,,,,,,,,,,,,,,,,,,,,,,,,,,,,,265.5402840000461,265.5507120999973,265.5507120999973,266.10319210001035,g,1.0,0.5427908999845386,,,,,,sub-155,1,stroop_test,59.97451083430298,
,,,,12.0,0.0,1.0,,,,,,,,,,,,,blau,red,r,0.0,r,1.0,1.0196045999764465,,,,,,,,,,1.0,0.0,12.0,4.0,266.1175787000102,,,,,,,,,,,,,,,,,266.1036377000273,266.4671239000163,267.2675261000404,267.25152510002954,,,,,,,,,,,,,,,,,,,,,,,,,,,,,,,,,,,267.2521764000412,267.2675261000404,267.2675261000404,268.3024161000503,r,1.0,1.0196045999764465,,,,,,sub-155,1,stroop_test,59.97451083430298,
,,,,13.0,1.0,1.0,,,,,,,,,,,,,gelb,red,r,0.0,r,1.0,0.7825048000086099,,,,,,,,,,1.0,1.0,13.0,8.0,268.3173711000127,,,,,,,,,,,,,,,,,268.3029170000227,269.5172573000309,270.31680150004104,270.3015042000334,,,,,,,,,,,,,,,,,,,,,,,,,,,,,,,,,,,270.3058239000384,270.31680150004104,270.31680150004104,271.10336550005013,r,1.0,0.7825048000086099,,,,,,sub-155,1,stroop_test,59.97451083430298,
,,,,14.0,2.0,1.0,,,,,,,,,,,,,rot,red,r,1.0,r,1.0,0.684673500014469,,,,,,,,,,1.0,2.0,14.0,0.0,271.11732680001296,,,,,,,,,,,,,,,,,271.103988900024,272.3172018000041,273.19240900001023,273.1021170000313,,,,,,,,,,,,,,,,,,,,,,,,,,,,,,,,,,,273.187843599997,273.19240900001023,273.19240900001023,273.88519240001915,r,1.0,0.684673500014469,,,,,,sub-155,1,stroop_test,59.97451083430298,
,,,,15.0,3.0,1.0,,,,,,,,,,,,,blau,blue,b,1.0,b,1.0,0.8191315000294708,,,,,,,,,,1.0,3.0,15.0,5.0,273.90042720001657,,,,,,,,,,,,,,,,,273.8857407000032,274.0006631000433,274.8003308000043,274.78593050001655,,,,,,,,,,,,,,,,,,,,,,,,,,,,,,,,,,,274.7913093000534,274.8003308000043,274.8003308000043,275.63545630004955,b,1.0,0.8191315000294708,,,,,,sub-155,1,stroop_test,59.97451083430298,
,,,,16.0,4.0,1.0,,,,,,,,,,,,,gelb,blue,b,0.0,b,1.0,0.625876399979461,,,,,,,,,,1.0,4.0,16.0,9.0,275.6505485000089,,,,,,,,,,,,,,,,,275.6360838999972,276.000333700038,276.80029890005244,276.7851669000229,,,,,,,,,,,,,,,,,,,,,,,,,,,,,,,,,,,276.7897945000441,276.80029890005244,276.80029890005244,277.43513100000564,b,1.0,0.625876399979461,,,,,,sub-155,1,stroop_test,59.97451083430298,
,,,,17.0,5.0,1.0,,,,,,,,,,,,,gelb,yellow,g,1.0,g,1.0,0.5872616999549791,,,,,,,,,,1.0,5.0,17.0,10.0,277.450373300002,,,,,,,,,,,,,,,,,277.43555430002743,277.5507210000069,278.3503710000077,278.3346322000143,,,,,,,,,,,,,,,,,,,,,,,,,,,,,,,,,,,278.33520830003545,278.3503710000077,278.3503710000077,278.9534901000443,g,1.0,0.5872616999549791,,,,,,sub-155,1,stroop_test,59.97451083430298,
,,,,18.0,6.0,1.0,,,,,,,,,,,,,rot,red,r,1.0,r,1.0,1.104275999998208,,,,,,,,,,1.0,6.0,18.0,1.0,278.96702910005115,,,,,,,,,,,,,,,,,278.954082900018,280.16735230002087,280.9667358000297,280.95214820001274,,,,,,,,,,,,,,,,,,,,,,,,,,,,,,,,,,,280.9568328000023,280.9667358000297,280.9667358000297,282.08536720002303,r,1.0,1.104275999998208,,,,,,sub-155,1,stroop_test,59.97451083430298,
,,,,19.0,7.0,1.0,,,,,,,,,,,,,blau,blue,b,1.0,b,1.0,0.73698929999955,,,,,,,,,,1.0,7.0,19.0,6.0,282.10026620002463,,,,,,,,,,,,,,,,,282.08583160000853,282.2006760000368,283.00086560001364,282.98510810005246,,,,,,,,,,,,,,,,,,,,,,,,,,,,,,,,,,,282.99038530001417,283.00086560001364,283.00086560001364,283.75215660000686,b,1.0,0.73698929999955,,,,,,sub-155,1,stroop_test,59.97451083430298,
,,,,20.0,8.0,1.0,,,,,,,,,,,,,rot,blue,b,0.0,b,1.0,0.7601082999608479,,,,,,,,,,1.0,8.0,20.0,2.0,283.7668488000054,,,,,,,,,,,,,,,,,283.75268440000946,284.96712460002163,285.76669060002314,285.75190820003627,,,,,,,,,,,,,,,,,,,,,,,,,,,,,,,,,,,285.7567265999969,285.76669060002314,285.76669060002314,286.53458950005006,b,1.0,0.7601082999608479,,,,,,sub-155,1,stroop_test,59.97451083430298,
,,,,21.0,9.0,1.0,,,,,,,,,,,,,gelb,yellow,g,1.0,g,1.0,0.6412561000324786,,,,,,,,,,1.0,9.0,21.0,11.0,286.54980130004697,,,,,,,,,,,,,,,,,286.5350390000385,287.3331715000095,288.1335468000034,288.1188827000442,,,,,,,,,,,,,,,,,,,,,,,,,,,,,,,,,,,288.1244523000205,288.1335468000034,288.1335468000034,288.7854411000153,g,1.0,0.6412561000324786,,,,,,sub-155,1,stroop_test,59.97451083430298,
,,,,22.0,10.0,1.0,,,,,,,,,,,,,blau,yellow,g,0.0,g,1.0,0.5680275000049733,,,,,,,,,,1.0,10.0,22.0,7.0,288.800453200005,,,,,,,,,,,,,,,,,288.7859576000483,289.59989410004346,290.40003530000104,290.38465240004007,,,,,,,,,,,,,,,,,,,,,,,,,,,,,,,,,,,290.3884913000511,290.40003530000104,290.40003530000104,290.98591840005247,g,1.0,0.5680275000049733,,,,,,sub-155,1,stroop_test,59.97451083430298,
,,,,23.0,11.0,1.0,,,,,,,,,,,,,rot,yellow,g,0.0,g,1.0,0.6480931999976747,,,,,,,,,,1.0,11.0,23.0,3.0,291.0005079000257,,,,,,,,,,,,,,,,,290.9864715000149,291.7997133000172,292.59994720004033,292.5855743000284,,,,,,,,,,,,,,,,,,,,,,,,,,,,,,,,,,,292.5909273000434,292.59994720004033,292.59994720004033,293.251216500008,g,1.0,0.6480931999976747,,,,,,sub-155,1,stroop_test,59.97451083430298,
,,,,24.0,0.0,2.0,,,,,,,,,,,,,gelb,yellow,g,1.0,g,1.0,0.6509086000151001,,,,,,,,,,2.0,0.0,24.0,10.0,293.26699660002487,,,,,,,,,,,,,,,,,293.2518356000073,294.06653500004904,294.8667774000205,294.85149900004035,,,,,,,,,,,,,,,,,,,,,,,,,,,,,,,,,,,294.8561329000513,294.8667774000205,294.8667774000205,295.52161019999767,g,1.0,0.6509086000151001,,,,,,sub-155,1,stroop_test,59.97451083430298,
,,,,25.0,1.0,2.0,,,,,,,,,,,,,blau,blue,b,1.0,b,1.0,1.2604984999634326,,,,,,,,,,2.0,1.0,25.0,6.0,295.53355620004004,,,,,,,,,,,,,,,,,295.5221812000382,295.8834593000356,296.6829829000053,296.6680567000294,,,,,,,,,,,,,,,,,,,,,,,,,,,,,,,,,,,296.6719346000464,296.6829829000053,296.6829829000053,297.95304079999914,b,1.0,1.2604984999634326,,,,,,sub-155,1,stroop_test,59.97451083430298,
,,,,26.0,2.0,2.0,,,,,,,,,,,,,blau,yellow,g,0.0,g,1.0,0.7155907999840565,,,,,,,,,,2.0,2.0,26.0,7.0,297.96691910002846,,,,,,,,,,,,,,,,,297.95356260001427,298.31663280003704,299.1167068000068,299.10131610004464,,,,,,,,,,,,,,,,,,,,,,,,,,,,,,,,,,,299.101968700008,299.1167068000068,299.1167068000068,299.83800460002385,g,1.0,0.7155907999840565,,,,,,sub-155,1,stroop_test,59.97451083430298,
,,,,27.0,3.0,2.0,,,,,,,,,,,,,rot,yellow,g,0.0,g,1.0,0.8340735000092536,,,,,,,,,,2.0,3.0,27.0,3.0,299.8503175000078,,,,,,,,,,,,,,,,,299.83845999999903,299.9496682000463,300.75010050000856,300.7350019000005,,,,,,,,,,,,,,,,,,,,,,,,,,,,,,,,,,,300.73925710003823,300.75010050000856,300.75010050000856,301.60114890005207,g,1.0,0.8340735000092536,,,,,,sub-155,1,stroop_test,59.97451083430298,
,,,,28.0,4.0,2.0,,,,,,,,,,,,,gelb,yellow,g,1.0,g,1.0,0.6137190000154078,,,,,,,,,,2.0,4.0,28.0,11.0,301.6162672000355,,,,,,,,,,,,,,,,,301.60153750004247,301.7162768000271,302.5167517000227,302.5013933000155,,,,,,,,,,,,,,,,,,,,,,,,,,,,,,,,,,,302.50547299999744,302.5167517000227,302.5167517000227,303.13506850000704,g,1.0,0.6137190000154078,,,,,,sub-155,1,stroop_test,59.97451083430298,
,,,,29.0,5.0,2.0,,,,,,,,,,,,,gelb,red,r,0.0,r,1.0,1.2693644000100903,,,,,,,,,,2.0,5.0,29.0,8.0,303.1502453000285,,,,,,,,,,,,,,,,,303.1355232000351,303.2501925000106,304.049928500026,304.0348248000373,,,,,,,,,,,,,,,,,,,,,,,,,,,,,,,,,,,304.03575200005434,304.049928500026,304.049928500026,305.33591770002386,r,1.0,1.2693644000100903,,,,,,sub-155,1,stroop_test,59.97451083430298,
,,,,30.0,6.0,2.0,,,,,,,,,,,,,rot,red,r,1.0,r,1.0,0.6172424000105821,,,,,,,,,,2.0,6.0,30.0,1.0,305.35025170003064,,,,,,,,,,,,,,,,,305.33650500001386,305.7003496000543,306.4999449000461,306.4849838000373,,,,,,,,,,,,,,,,,,,,,,,,,,,,,,,,,,,306.4898243000498,306.4999449000461,306.4999449000461,307.12143590004416,r,1.0,0.6172424000105821,,,,,,sub-155,1,stroop_test,59.97451083430298,
,,,,31.0,7.0,2.0,,,,,,,,,,,,,blau,red,r,0.0,r,1.0,0.6862820000387728,,,,,,,,,,2.0,7.0,31.0,4.0,307.13376240001526,,,,,,,,,,,,,,,,,307.1218769000261,307.9340720000328,308.74991450004745,308.7351706000045,,,,,,,,,,,,,,,,,,,,,,,,,,,,,,,,,,,308.74091860000044,308.74991450004745,308.74991450004745,309.4523426000378,r,1.0,0.6862820000387728,,,,,,sub-155,1,stroop_test,59.97451083430298,
,,,,32.0,8.0,2.0,,,,,,,,,,,,,blau,blue,b,1.0,b,1.0,0.606234599952586,,,,,,,,,,2.0,8.0,32.0,5.0,309.46680560003733,,,,,,,,,,,,,,,,,309.4529737000121,309.56631400005426,310.3665345000336,310.3519180000294,,,,,,,,,,,,,,,,,,,,,,,,,,,,,,,,,,,310.35293740005,310.3665345000336,310.3665345000336,310.9850090999971,b,1.0,0.606234599952586,,,,,,sub-155,1,stroop_test,59.97451083430298,
,,,,33.0,9.0,2.0,,,,,,,,,,,,,rot,red,r,1.0,r,1.0,0.7328271000296809,,,,,,,,,,2.0,9.0,33.0,0.0,311.00023330003023,,,,,,,,,,,,,,,,,310.9854687000043,311.10019730002386,311.89986790000694,311.8839709000313,,,,,,,,,,,,,,,,,,,,,,,,,,,,,,,,,,,311.8882023000042,311.89986790000694,311.89986790000694,312.6387373000034,r,1.0,0.7328271000296809,,,,,,sub-155,1,stroop_test,59.97451083430298,
,,,,34.0,10.0,2.0,,,,,,,,,,,,,gelb,blue,b,0.0,b,1.0,0.8996441000490449,,,,,,,,,,2.0,10.0,34.0,9.0,312.64983290003147,,,,,,,,,,,,,,,,,312.6393766000401,313.84973780001746,314.6499107000418,314.63506170001347,,,,,,,,,,,,,,,,,,,,,,,,,,,,,,,,,,,314.64010070002405,314.6499107000418,314.6499107000418,315.55356120003853,b,1.0,0.8996441000490449,,,,,,sub-155,1,stroop_test,59.97451083430298,
,,,,35.0,11.0,2.0,,,,,,,,,,,,,rot,blue,b,0.0,b,1.0,1.5659881999599747,,,,,,,,,,2.0,11.0,35.0,2.0,315.5667926000315,,,,,,,,,,,,,,,,,315.55405630002497,316.366673200042,317.16620620002504,317.1521362000494,,,,,,,,,,,,,,,,,,,,,,,,,,,,,,,,,,,317.15727160003735,317.16620620002504,317.16620620002504,318.73777010000776,b,1.0,1.5659881999599747,,,,,,sub-155,1,stroop_test,59.97451083430298,
,,,,36.0,0.0,3.0,,,,,,,,,,,,,blau,red,r,0.0,r,1.0,0.7943162000156008,,,,,,,,,,3.0,0.0,36.0,4.0,318.7498085999978,,,,,,,,,,,,,,,,,318.7383599000168,319.94988280005055,320.749869100051,320.73412290000124,,,,,,,,,,,,,,,,,,,,,,,,,,,,,,,,,,,320.73771090002265,320.749869100051,320.749869100051,321.55165180005133,r,1.0,0.7943162000156008,,,,,,sub-155,1,stroop_test,59.97451083430298,
,,,,37.0,1.0,3.0,,,,,,,,,,,,,gelb,red,r,0.0,r,1.0,0.7140445000259206,,,,,,,,,,3.0,1.0,37.0,8.0,321.5664645000361,,,,,,,,,,,,,,,,,321.5522198000108,322.7665406000451,323.5663550000172,323.5518270000466,,,,,,,,,,,,,,,,,,,,,,,,,,,,,,,,,,,323.55715300003067,323.5663550000172,323.5663550000172,324.28565440000966,r,1.0,0.7140445000259206,,,,,,sub-155,1,stroop_test,59.97451083430298,
,,,,38.0,2.0,3.0,,,,,,,,,,,,,blau,yellow,g,0.0,g,1.0,0.6780408999766223,,,,,,,,,,3.0,2.0,38.0,7.0,324.2994067000109,,,,,,,,,,,,,,,,,324.2861849000328,324.3995689000003,325.1994268000126,325.18329140002606,,,,,,,,,,,,,,,,,,,,,,,,,,,,,,,,,,,325.18624970002566,325.1994268000126,325.1994268000126,325.8845761000412,g,1.0,0.6780408999766223,,,,,,sub-155,1,stroop_test,59.97451083430298,
,,,,39.0,3.0,3.0,,,,,,,,,,,,,rot,blue,b,0.0,b,1.0,0.8604230000055395,,,,,,,,,,3.0,3.0,39.0,2.0,325.8996524999966,,,,,,,,,,,,,,,,,325.88500639999984,326.2499058000394,327.0498649000074,327.0345824000542,,,,,,,,,,,,,,,,,,,,,,,,,,,,,,,,,,,327.0394697000156,327.0498649000074,327.0498649000074,327.91819029999897,b,1.0,0.8604230000055395,,,,,,sub-155,1,stroop_test,59.97451083430298,
,,,,40.0,4.0,3.0,,,,,,,,,,,,,rot,yellow,g,0.0,g,1.0,0.6535952999838628,,,,,,,,,,3.0,4.0,40.0,3.0,327.93291910004336,,,,,,,,,,,,,,,,,327.91866770002525,329.1330413999967,329.9329381000134,329.9181673999992,,,,,,,,,,,,,,,,,,,,,,,,,,,,,,,,,,,329.91907240002183,329.9329381000134,329.9329381000134,330.60062790004304,g,1.0,0.6535952999838628,,,,,,sub-155,1,stroop_test,59.97451083430298,
,,,,41.0,5.0,3.0,,,,,,,,,,,,,rot,red,r,1.0,r,1.0,0.9185203000088222,,,,,,,,,,3.0,5.0,41.0,0.0,330.6161564000068,,,,,,,,,,,,,,,,,330.6010865000426,330.716292200028,331.5163495000452,331.5012779000099,,,,,,,,,,,,,,,,,,,,,,,,,,,,,,,,,,,331.5020802000072,331.5163495000452,331.5163495000452,332.4520238999976,r,1.0,0.9185203000088222,,,,,,sub-155,1,stroop_test,59.97451083430298,
,,,,42.0,6.0,3.0,,,,,,,,,,,,,gelb,blue,b,0.0,b,1.0,0.8166707999771461,,,,,,,,,,3.0,6.0,42.0,9.0,332.46644570003264,,,,,,,,,,,,,,,,,332.4526016000309,332.56634120002855,333.3668980000075,333.35149180004373,,,,,,,,,,,,,,,,,,,,,,,,,,,,,,,,,,,333.3564041000209,333.3668980000075,333.3668980000075,334.18924530001823,b,1.0,0.8166707999771461,,,,,,sub-155,1,stroop_test,59.97451083430298,
,,,,43.0,7.0,3.0,,,,,,,,,,,,,blau,blue,b,1.0,b,1.0,0.6622485000407323,,,,,,,,,,3.0,7.0,43.0,5.0,334.1996080000536,,,,,,,,,,,,,,,,,334.1897233000491,334.99956080003176,335.80033610004466,335.7852334000054,,,,,,,,,,,,,,,,,,,,,,,,,,,,,,,,,,,335.79088149999734,335.80033610004466,335.80033610004466,336.4689100999967,b,1.0,0.6622485000407323,,,,,,sub-155,1,stroop_test,59.97451083430298,
,,,,44.0,8.0,3.0,,,,,,,,,,,,,rot,red,r,1.0,r,1.0,0.7498656999669038,,,,,,,,,,3.0,8.0,44.0,1.0,336.4831011000206,,,,,,,,,,,,,,,,,336.46951930003706,337.2827617000439,338.08281710004667,338.06733680004254,,,,,,,,,,,,,,,,,,,,,,,,,,,,,,,,,,,338.0727378000156,338.08281710004667,338.08281710004667,338.83678940002574,r,1.0,0.7498656999669038,,,,,,sub-155,1,stroop_test,59.97451083430298,
,,,,45.0,9.0,3.0,,,,,,,,,,,,,blau,blue,b,1.0,b,1.0,0.8297971999854781,,,,,,,,,,3.0,9.0,45.0,6.0,338.84939270000905,,,,,,,,,,,,,,,,,338.8372250000248,340.0495952000492,340.8492880000267,340.8355078000459,,,,,,,,,,,,,,,,,,,,,,,,,,,,,,,,,,,340.8414428000105,340.8492880000267,340.8492880000267,341.6837538999971,b,1.0,0.8297971999854781,,,,,,sub-155,1,stroop_test,59.97451083430298,
,,,,46.0,10.0,3.0,,,,,,,,,,,,,gelb,yellow,g,1.0,g,1.0,0.5842583999619819,,,,,,,,,,3.0,10.0,46.0,10.0,341.69918600004166,,,,,,,,,,,,,,,,,341.6842982000089,342.8828247000347,343.6823525000364,343.6665352000273,,,,,,,,,,,,,,,,,,,,,,,,,,,,,,,,,,,343.6701160000521,343.6823525000364,343.6823525000364,344.2854212000384,g,1.0,0.5842583999619819,,,,,,sub-155,1,stroop_test,59.97451083430298,
,,,,47.0,11.0,3.0,,,,,,,,,,,,,gelb,yellow,g,1.0,g,1.0,0.5938099999912083,,,,,,,,,,3.0,11.0,47.0,11.0,344.2997150000301,,,,,,,,,,,,,,,,,344.2862233000342,345.4993838000228,346.29901970003266,346.28446920000715,,,,,,,,,,,,,,,,,,,,,,,,,,,,,,,,,,,346.2856854000129,346.29901970003266,346.29901970003266,346.900445700041,g,1.0,0.5938099999912083,,,,,,sub-155,1,stroop_test,59.97451083430298,
,,,,48.0,0.0,4.0,,,,,,,,,,,,,gelb,yellow,g,1.0,g,1.0,0.5944916000007652,,,,,,,,,,4.0,0.0,48.0,11.0,346.91585820005275,,,,,,,,,,,,,,,,,346.9009675999987,347.265614700038,348.06621260003885,348.0513373000431,,,,,,,,,,,,,,,,,,,,,,,,,,,,,,,,,,,348.0522560000536,348.06621260003885,348.06621260003885,348.66763199999696,g,1.0,0.5944916000007652,,,,,,sub-155,1,stroop_test,59.97451083430298,
,,,,49.0,1.0,4.0,,,,,,,,,,,,,rot,red,r,1.0,r,1.0,0.7348121000104584,,,,,,,,,,4.0,1.0,49.0,0.0,348.6827050000429,,,,,,,,,,,,,,,,,348.6680666000466,349.0324688000255,349.8327616000315,349.81631920003565,,,,,,,,,,,,,,,,,,,,,,,,,,,,,,,,,,,349.82002520002425,349.8327616000315,349.8327616000315,350.58432860003086,r,1.0,0.7348121000104584,,,,,,sub-155,1,stroop_test,59.97451083430298,
,,,,50.0,2.0,4.0,,,,,,,,,,,,,rot,yellow,g,0.0,g,1.0,0.8506208000471815,,,,,,,,,,4.0,2.0,50.0,3.0,350.59919420001097,,,,,,,,,,,,,,,,,350.5848501000437,351.79964250000194,352.5994999000104,352.5838283000048,,,,,,,,,,,,,,,,,,,,,,,,,,,,,,,,,,,352.5844997000532,352.5994999000104,352.5994999000104,353.45550570002524,g,1.0,0.8506208000471815,,,,,,sub-155,1,stroop_test,59.97451083430298,
,,,,51.0,3.0,4.0,,,,,,,,,,,,,blau,yellow,g,0.0,g,1.0,0.7215106000076048,,,,,,,,,,4.0,3.0,51.0,7.0,353.46595430001616,,,,,,,,,,,,,,,,,353.4559710000176,354.66595370002324,355.46569640003145,355.4508518000366,,,,,,,,,,,,,,,,,,,,,,,,,,,,,,,,,,,355.4553689000313,355.46569640003145,355.46569640003145,356.20063030003803,g,1.0,0.7215106000076048,,,,,,sub-155,1,stroop_test,59.97451083430298,
,,,,52.0,4.0,4.0,,,,,,,,,,,,,blau,blue,b,1.0,b,1.0,0.8155729999998584,,,,,,,,,,4.0,4.0,52.0,6.0,356.2156848000013,,,,,,,,,,,,,,,,,356.2012654000428,356.566078200005,357.3656535000191,357.3499701000401,,,,,,,,,,,,,,,,,,,,,,,,,,,,,,,,,,,357.3507109000348,357.3656535000191,357.3656535000191,358.1855376000167,b,1.0,0.8155729999998584,,,,,,sub-155,1,stroop_test,59.97451083430298,
,,,,53.0,5.0,4.0,,,,,,,,,,,,,gelb,red,r,0.0,r,1.0,0.7553503999952227,,,,,,,,,,4.0,5.0,53.0,8.0,358.199351200019,,,,,,,,,,,,,,,,,358.1860105000087,358.5492026000284,359.3489681000356,359.3338930000318,,,,,,,,,,,,,,,,,,,,,,,,,,,,,,,,,,,359.338097400032,359.3489681000356,359.3489681000356,360.11769790004473,r,1.0,0.7553503999952227,,,,,,sub-155,1,stroop_test,59.97451083430298,
,,,,54.0,6.0,4.0,,,,,,,,,,,,,blau,red,r,0.0,r,1.0,0.5099212999921292,,,,,,,,,,4.0,6.0,54.0,4.0,360.1324661000399,,,,,,,,,,,,,,,,,360.11820780002745,360.9324864000082,361.7325945000048,361.71739880001405,,,,,,,,,,,,,,,,,,,,,,,,,,,,,,,,,,,361.7220718000317,361.7325945000048,361.7325945000048,362.2500848000054,r,1.0,0.5099212999921292,,,,,,sub-155,1,stroop_test,59.97451083430298,
,,,,55.0,7.0,4.0,,,,,,,,,,,,,gelb,yellow,g,1.0,g,1.0,0.6814385000034235,,,,,,,,,,4.0,7.0,55.0,10.0,362.2654652000056,,,,,,,,,,,,,,,,,362.2504970000009,362.6154646000359,363.4155885000364,363.40123960003257,,,,,,,,,,,,,,,,,,,,,,,,,,,,,,,,,,,363.4064645000035,363.4155885000364,363.4155885000364,364.103634900006,g,1.0,0.6814385000034235,,,,,,sub-155,1,stroop_test,59.97451083430298,
,,,,56.0,8.0,4.0,,,,,,,,,,,,,rot,blue,b,0.0,b,1.0,0.7026046999963,,,,,,,,,,4.0,8.0,56.0,2.0,364.1157396000344,,,,,,,,,,,,,,,,,364.1042018000153,365.3160681000445,366.1153939000215,366.1000923000393,,,,,,,,,,,,,,,,,,,,,,,,,,,,,,,,,,,366.1051190000144,366.1153939000215,366.1153939000215,366.83536680002,b,1.0,0.7026046999963,,,,,,sub-155,1,stroop_test,59.97451083430298,
,,,,57.0,9.0,4.0,,,,,,,,,,,,,blau,blue,b,1.0,b,1.0,0.6608914000098594,,,,,,,,,,4.0,9.0,57.0,5.0,366.84931090002647,,,,,,,,,,,,,,,,,366.8359096000204,368.0486428000149,368.84931070002494,368.83376560005127,,,,,,,,,,,,,,,,,,,,,,,,,,,,,,,,,,,368.8382751000463,368.84931070002494,368.84931070002494,369.5177522000158,b,1.0,0.6608914000098594,,,,,,sub-155,1,stroop_test,59.97451083430298,
,,,,58.0,10.0,4.0,,,,,,,,,,,,,gelb,blue,b,0.0,b,1.0,0.6588024999946356,,,,,,,,,,4.0,10.0,58.0,9.0,369.53259340004297,,,,,,,,,,,,,,,,,369.5183590000379,370.7324981000274,371.5323375000153,371.5172212000471,,,,,,,,,,,,,,,,,,,,,,,,,,,,,,,,,,,371.5220495000249,371.5323375000153,371.5323375000153,372.2007230000454,b,1.0,0.6588024999946356,,,,,,sub-155,1,stroop_test,59.97451083430298,
,,,,59.0,11.0,4.0,,,,,,,,,,,,,rot,red,r,1.0,r,1.0,0.813228800019715,,,,,,,,,,4.0,11.0,59.0,1.0,372.2158580000396,,,,,,,,,,,,,,,,,372.2014410000411,373.41586860001553,374.2158370000543,374.19985350000206,,,,,,,,,,,,,,,,,,,,,,,,,,,,,,,,,,,374.2045602000435,374.2158370000543,374.2158370000543,375.0338856000453,r,1.0,0.813228800019715,,,,,,sub-155,1,stroop_test,59.97451083430298,
,,,,60.0,0.0,5.0,,,,,,,,,,,,,gelb,blue,b,0.0,b,1.0,0.8484598000068218,,,,,,,,,,5.0,0.0,60.0,9.0,375.04916640004376,,,,,,,,,,,,,,,,,375.0343519000453,375.39894790004473,376.1986042000353,376.18367749999743,,,,,,,,,,,,,,,,,,,,,,,,,,,,,,,,,,,376.187829100003,376.1986042000353,376.1986042000353,377.05259430001024,b,1.0,0.8484598000068218,,,,,,sub-155,1,stroop_test,59.97451083430298,
,,,,61.0,1.0,5.0,,,,,,,,,,,,,rot,red,r,1.0,r,1.0,0.810928699967917,,,,,,,,,,5.0,1.0,61.0,1.0,377.0659151000437,,,,,,,,,,,,,,,,,377.053052800009,377.8658174000448,378.6655842000037,378.6498202000512,,,,,,,,,,,,,,,,,,,,,,,,,,,,,,,,,,,378.654296600027,378.6655842000037,378.6655842000037,379.4842007000116,r,1.0,0.810928699967917,,,,,,sub-155,1,stroop_test,59.97451083430298,
,,,,62.0,2.0,5.0,,,,,,,,,,,,,blau,yellow,g,0.0,g,1.0,0.5909192999824882,,,,,,,,,,5.0,2.0,62.0,7.0,379.4991199000506,,,,,,,,,,,,,,,,,379.4846976000117,379.5987397000426,380.3990513000172,380.3834970000317,,,,,,,,,,,,,,,,,,,,,,,,,,,,,,,,,,,380.3887491000351,380.3990513000172,380.3990513000172,381.00047180004185,g,1.0,0.5909192999824882,,,,,,sub-155,1,stroop_test,59.97451083430298,
,,,,63.0,3.0,5.0,,,,,,,,,,,,,rot,blue,b,0.0,b,1.0,1.0641823000041768,,,,,,,,,,5.0,3.0,63.0,2.0,381.0153231000295,,,,,,,,,,,,,,,,,381.0009320000536,381.36521180003183,382.1653021000093,382.1507332000183,,,,,,,,,,,,,,,,,,,,,,,,,,,,,,,,,,,382.15528350003297,382.1653021000093,382.1653021000093,383.23405220004497,b,1.0,1.0641823000041768,,,,,,sub-155,1,stroop_test,59.97451083430298,
,,,,64.0,4.0,5.0,,,,,,,,,,,,,rot,red,r,1.0,r,1.0,0.7284521000110544,,,,,,,,,,5.0,4.0,64.0,0.0,383.2489746000501,,,,,,,,,,,,,,,,,383.2344871000387,383.5986773000332,384.3987847000244,384.3833253000048,,,,,,,,,,,,,,,,,,,,,,,,,,,,,,,,,,,384.384002100036,384.3987847000244,384.3987847000244,385.1341094000381,r,1.0,0.7284521000110544,,,,,,sub-155,1,stroop_test,59.97451083430298,
,,,,65.0,5.0,5.0,,,,,,,,,,,,,rot,yellow,g,0.0,g,1.0,0.8465926999924704,,,,,,,,,,5.0,5.0,65.0,3.0,385.14882000000216,,,,,,,,,,,,,,,,,385.13457140000537,385.4989740000456,386.29888940003,386.283197700046,,,,,,,,,,,,,,,,,,,,,,,,,,,,,,,,,,,386.2838239000412,386.29888940003,386.29888940003,387.151032600028,g,1.0,0.8465926999924704,,,,,,sub-155,1,stroop_test,59.97451083430298,
,,,,66.0,6.0,5.0,,,,,,,,,,,,,gelb,yellow,g,1.0,g,1.0,0.672142099996563,,,,,,,,,,5.0,6.0,66.0,10.0,387.1655565000256,,,,,,,,,,,,,,,,,387.1514500000048,388.3656917000189,389.1653568000184,389.1500841000234,,,,,,,,,,,,,,,,,,,,,,,,,,,,,,,,,,,389.1538641000516,389.1653568000184,389.1653568000184,389.8508257000358,g,1.0,0.672142099996563,,,,,,sub-155,1,stroop_test,59.97451083430298,
,,,,67.0,7.0,5.0,,,,,,,,,,,,,gelb,red,r,0.0,r,1.0,1.1694867999758571,,,,,,,,,,5.0,7.0,67.0,8.0,389.86524770001415,,,,,,,,,,,,,,,,,389.85131990001537,389.9651602000231,390.76568410004256,390.7501784000197,,,,,,,,,,,,,,,,,,,,,,,,,,,,,,,,,,,390.75093130004825,390.76568410004256,390.76568410004256,391.9515865000431,r,1.0,1.1694867999758571,,,,,,sub-155,1,stroop_test,59.97451083430298,
,,,,68.0,8.0,5.0,,,,,,,,,,,,,blau,blue,b,1.0,b,1.0,0.5342877000221051,,,,,,,,,,5.0,8.0,68.0,6.0,391.96516500000143,,,,,,,,,,,,,,,,,391.9520898000337,392.7651777000283,393.5653235000209,393.5501458000508,,,,,,,,,,,,,,,,,,,,,,,,,,,,,,,,,,,393.5543031000416,393.5653235000209,393.5653235000209,394.1162672000355,b,1.0,0.5342877000221051,,,,,,sub-155,1,stroop_test,59.97451083430298,
,,,,69.0,9.0,5.0,,,,,,,,,,,,,blau,blue,b,1.0,b,1.0,0.6268120000022464,,,,,,,,,,5.0,9.0,69.0,5.0,394.13201080000727,,,,,,,,,,,,,,,,,394.11689060000936,395.3149628000101,396.1154494000366,396.1003827000386,,,,,,,,,,,,,,,,,,,,,,,,,,,,,,,,,,,396.101148500049,396.1154494000366,396.1154494000366,396.7498181000119,b,1.0,0.6268120000022464,,,,,,sub-155,1,stroop_test,59.97451083430298,
,,,,70.0,10.0,5.0,,,,,,,,,,,,,blau,red,r,0.0,r,1.0,0.723993799998425,,,,,,,,,,5.0,10.0,70.0,4.0,396.7650436999975,,,,,,,,,,,,,,,,,396.7502473000204,397.96514580002986,398.76488990004873,398.7499671000405,,,,,,,,,,,,,,,,,,,,,,,,,,,,,,,,,,,398.7509589000256,398.76488990004873,398.76488990004873,399.4992821000051,r,1.0,0.723993799998425,,,,,,sub-155,1,stroop_test,59.97451083430298,
,,,,71.0,11.0,5.0,,,,,,,,,,,,,gelb,yellow,g,1.0,g,1.0,0.5192459999816492,,,,,,,,,,5.0,11.0,71.0,11.0,399.5151974000037,,,,,,,,,,,,,,,,,399.4996727000107,400.2990776000079,401.09849910001503,401.08374570001615,,,,,,,,,,,,,,,,,,,,,,,,,,,,,,,,,,,401.08974320004927,401.09849910001503,401.09849910001503,401.6345798000111,g,1.0,0.5192459999816492,,,,,,sub-155,1,stroop_test,59.97451083430298,
,,,,72.0,0.0,6.0,,,,,,,,,,,,,blau,yellow,g,0.0,g,1.0,0.5622481000027619,,,,,,,,,,6.0,0.0,72.0,7.0,401.6487294000108,,,,,,,,,,,,,,,,,401.63521720003337,401.9982064000215,402.79815760004567,402.7820948000299,,,,,,,,,,,,,,,,,,,,,,,,,,,,,,,,,,,402.7861719000503,402.79815760004567,402.79815760004567,403.3671159000369,g,1.0,0.5622481000027619,,,,,,sub-155,1,stroop_test,59.97451083430298,
,,,,73.0,1.0,6.0,,,,,,,,,,,,,gelb,red,r,0.0,r,1.0,0.8839531000121497,,,,,,,,,,6.0,1.0,73.0,8.0,403.3820066000335,,,,,,,,,,,,,,,,,403.36774470005184,404.1822435000213,404.9820138000068,404.9664079000359,,,,,,,,,,,,,,,,,,,,,,,,,,,,,,,,,,,404.9708573000389,404.9820138000068,404.9820138000068,405.8835684000514,r,1.0,0.8839531000121497,,,,,,sub-155,1,stroop_test,59.97451083430298,
,,,,74.0,2.0,6.0,,,,,,,,,,,,,gelb,yellow,g,1.0,g,1.0,0.6691601000493392,,,,,,,,,,6.0,2.0,74.0,10.0,405.8981519000372,,,,,,,,,,,,,,,,,405.8840448000119,407.09880850004265,407.8985356000485,407.882148500008,,,,,,,,,,,,,,,,,,,,,,,,,,,,,,,,,,,407.88264210004127,407.8985356000485,407.8985356000485,408.5839397000382,g,1.0,0.6691601000493392,,,,,,sub-155,1,stroop_test,59.97451083430298,
,,,,75.0,3.0,6.0,,,,,,,,,,,,,blau,blue,b,1.0,b,1.0,0.903450099984184,,,,,,,,,,6.0,3.0,75.0,5.0,408.5984788000351,,,,,,,,,,,,,,,,,408.5844348000246,408.6983394999989,409.49820870003896,409.48324630002026,,,,,,,,,,,,,,,,,,,,,,,,,,,,,,,,,,,409.4874997000443,409.49820870003896,409.49820870003896,410.4178525000461,b,1.0,0.903450099984184,,,,,,sub-155,1,stroop_test,59.97451083430298,
,,,,76.0,4.0,6.0,,,,,,,,,,,,,rot,yellow,g,0.0,g,1.0,1.381131500005722,,,,,,,,,,6.0,4.0,76.0,3.0,410.43188530002953,,,,,,,,,,,,,,,,,410.4187082000426,410.5316433000262,411.3316364000202,411.3171027000062,,,,,,,,,,,,,,,,,,,,,,,,,,,,,,,,,,,411.3233218000387,411.3316364000202,411.3316364000202,412.7179711000063,g,1.0,1.381131500005722,,,,,,sub-155,1,stroop_test,59.97451083430298,
,,,,77.0,5.0,6.0,,,,,,,,,,,,,rot,blue,b,0.0,b,1.0,0.7913776999921538,,,,,,,,,,6.0,5.0,77.0,2.0,412.731865400041,,,,,,,,,,,,,,,,,412.7184056999977,412.8312124000513,413.6318024000502,413.6170320000383,,,,,,,,,,,,,,,,,,,,,,,,,,,,,,,,,,,413.6180203999975,413.6318024000502,413.6318024000502,414.4343253000407,b,1.0,0.7913776999921538,,,,,,sub-155,1,stroop_test,59.97451083430298,
,,,,78.0,6.0,6.0,,,,,,,,,,,,,blau,blue,b,1.0,b,1.0,0.7396447000210173,,,,,,,,,,6.0,6.0,78.0,6.0,414.4483342000167,,,,,,,,,,,,,,,,,414.434888400021,415.2483540000394,416.0484095000429,416.0333417000365,,,,,,,,,,,,,,,,,,,,,,,,,,,,,,,,,,,416.039148300013,416.0484095000429,416.0484095000429,416.8008364000125,b,1.0,0.7396447000210173,,,,,,sub-155,1,stroop_test,59.97451083430298,
,,,,79.0,7.0,6.0,,,,,,,,,,,,,rot,red,r,1.0,r,1.0,0.5350616999785416,,,,,,,,,,6.0,7.0,79.0,0.0,416.8145711000543,,,,,,,,,,,,,,,,,416.8016057000496,417.1650723000057,417.9646574000362,417.9499285000493,,,,,,,,,,,,,,,,,,,,,,,,,,,,,,,,,,,417.9548293999978,417.9646574000362,417.9646574000362,418.5162674000021,r,1.0,0.5350616999785416,,,,,,sub-155,1,stroop_test,59.97451083430298,
,,,,80.0,8.0,6.0,,,,,,,,,,,,,gelb,blue,b,0.0,b,1.0,0.7098841000115499,,,,,,,,,,6.0,8.0,80.0,9.0,418.5313066000235,,,,,,,,,,,,,,,,,418.5167428000132,419.7315525000449,420.5315525000333,420.51699350000126,,,,,,,,,,,,,,,,,,,,,,,,,,,,,,,,,,,420.5220763999969,420.5315525000333,420.5315525000333,421.25037890003296,b,1.0,0.7098841000115499,,,,,,sub-155,1,stroop_test,59.97451083430298,
,,,,81.0,9.0,6.0,,,,,,,,,,,,,gelb,yellow,g,1.0,g,1.0,0.5767741000163369,,,,,,,,,,6.0,9.0,81.0,11.0,421.2650323000271,,,,,,,,,,,,,,,,,421.2509678000352,422.06522300001234,422.8645239000325,422.8502058000304,,,,,,,,,,,,,,,,,,,,,,,,,,,,,,,,,,,422.85116210003616,422.8645239000325,422.8645239000325,423.4505472000456,g,1.0,0.5767741000163369,,,,,,sub-155,1,stroop_test,59.97451083430298,
,,,,82.0,10.0,6.0,,,,,,,,,,,,,blau,red,r,0.0,r,1.0,0.9193933000206016,,,,,,,,,,6.0,10.0,82.0,4.0,423.4648479000316,,,,,,,,,,,,,,,,,423.4510522000492,423.56483440002194,424.36474350001663,424.3490714000072,,,,,,,,,,,,,,,,,,,,,,,,,,,,,,,,,,,424.3535220000194,424.36474350001663,424.36474350001663,425.29870510002365,r,1.0,0.9193933000206016,,,,,,sub-155,1,stroop_test,59.97451083430298,
,,,,83.0,11.0,6.0,,,,,,,,,,,,,rot,red,r,1.0,r,1.0,0.551495999970939,,,,,,,,,,6.0,11.0,83.0,1.0,425.3144386000349,,,,,,,,,,,,,,,,,425.29904890002217,425.3976516000112,426.1978321000352,426.1816807000432,,,,,,,,,,,,,,,,,,,,,,,,,,,,,,,,,,,426.1868586000055,426.1978321000352,426.1978321000352,426.7653865000466,r,1.0,0.551495999970939,,,,,,sub-155,1,stroop_test,59.97451083430298,
,,,,84.0,0.0,7.0,,,,,,,,,,,,,gelb,yellow,g,1.0,g,1.0,0.6263317999546416,,,,,,,,,,7.0,0.0,84.0,11.0,426.7809333000332,,,,,,,,,,,,,,,,,426.7657466000528,427.13100280001527,427.931029600033,427.9149634000496,,,,,,,,,,,,,,,,,,,,,,,,,,,,,,,,,,,427.91987290000543,427.931029600033,427.931029600033,428.5652249000268,g,1.0,0.6263317999546416,,,,,,sub-155,1,stroop_test,59.97451083430298,
,,,,85.0,1.0,7.0,,,,,,,,,,,,,rot,red,r,1.0,r,1.0,0.8034366000210866,,,,,,,,,,7.0,1.0,85.0,0.0,428.5808806000277,,,,,,,,,,,,,,,,,428.565671999997,428.6809769000392,429.480988299998,429.4647874000366,,,,,,,,,,,,,,,,,,,,,,,,,,,,,,,,,,,429.4688592000166,429.480988299998,429.480988299998,430.2987009000499,r,1.0,0.8034366000210866,,,,,,sub-155,1,stroop_test,59.97451083430298,
,,,,86.0,2.0,7.0,,,,,,,,,,,,,rot,red,r,1.0,r,1.0,0.6363826000015251,,,,,,,,,,7.0,2.0,86.0,1.0,430.3142431000015,,,,,,,,,,,,,,,,,430.2991848000093,431.514234000002,432.3142294000136,432.29833770002006,,,,,,,,,,,,,,,,,,,,,,,,,,,,,,,,,,,432.2988883000216,432.3142294000136,432.3142294000136,432.96543850004673,r,1.0,0.6363826000015251,,,,,,sub-155,1,stroop_test,59.97451083430298,
,,,,87.0,3.0,7.0,,,,,,,,,,,,,gelb,blue,b,0.0,b,1.0,0.6303742000018246,,,,,,,,,,7.0,3.0,87.0,9.0,432.9810768000316,,,,,,,,,,,,,,,,,432.9659028000315,433.7808492000331,434.5809166000108,434.5648867000127,,,,,,,,,,,,,,,,,,,,,,,,,,,,,,,,,,,434.5689640000346,434.5809166000108,434.5809166000108,435.21515130001353,b,1.0,0.6303742000018246,,,,,,sub-155,1,stroop_test,59.97451083430298,
,,,,88.0,4.0,7.0,,,,,,,,,,,,,rot,blue,b,0.0,b,1.0,0.6081999000161886,,,,,,,,,,7.0,4.0,88.0,2.0,435.2308451000136,,,,,,,,,,,,,,,,,435.2155840000487,435.5808067000471,436.3808974000276,436.3648711999994,,,,,,,,,,,,,,,,,,,,,,,,,,,,,,,,,,,436.3693261000444,436.3808974000276,436.3808974000276,436.998617300007,b,1.0,0.6081999000161886,,,,,,sub-155,1,stroop_test,59.97451083430298,
,,,,89.0,5.0,7.0,,,,,,,,,,,,,blau,blue,b,1.0,b,1.0,0.5804925000411458,,,,,,,,,,7.0,5.0,89.0,5.0,437.0140594000113,,,,,,,,,,,,,,,,,436.9990249000257,437.1140815000399,437.9144201000454,437.8990828000242,,,,,,,,,,,,,,,,,,,,,,,,,,,,,,,,,,,437.9053435000242,437.9144201000454,437.9144201000454,438.4993918000255,b,1.0,0.5804925000411458,,,,,,sub-155,1,stroop_test,59.97451083430298,
,,,,90.0,6.0,7.0,,,,,,,,,,,,,rot,yellow,g,0.0,g,1.0,0.5763578999903984,,,,,,,,,,7.0,6.0,90.0,3.0,438.5145159000531,,,,,,,,,,,,,,,,,438.499760900042,438.6143117000465,439.4146621000255,439.3982764999964,,,,,,,,,,,,,,,,,,,,,,,,,,,,,,,,,,,439.4024314000271,439.4146621000255,439.4146621000255,439.9997284000274,g,1.0,0.5763578999903984,,,,,,sub-155,1,stroop_test,59.97451083430298,
,,,,91.0,7.0,7.0,,,,,,,,,,,,,blau,blue,b,1.0,b,1.0,0.8650163999991491,,,,,,,,,,7.0,7.0,91.0,6.0,440.0144374000374,,,,,,,,,,,,,,,,,440.00009950000094,440.364406800014,441.1644541000133,441.14842700003646,,,,,,,,,,,,,,,,,,,,,,,,,,,,,,,,,,,441.1512238000287,441.1644541000133,441.1644541000133,442.0347581000533,b,1.0,0.8650163999991491,,,,,,sub-155,1,stroop_test,59.97451083430298,
,,,,92.0,8.0,7.0,,,,,,,,,,,,,gelb,yellow,g,1.0,g,1.0,0.6591415000148118,,,,,,,,,,7.0,8.0,92.0,10.0,442.047970900021,,,,,,,,,,,,,,,,,442.0352176000015,442.147791800031,442.9480061000213,442.93189150001854,,,,,,,,,,,,,,,,,,,,,,,,,,,,,,,,,,,442.9354659000528,442.9480061000213,442.9480061000213,443.61600910004927,g,1.0,0.6591415000148118,,,,,,sub-155,1,stroop_test,59.97451083430298,
,,,,93.0,9.0,7.0,,,,,,,,,,,,,gelb,red,r,0.0,r,1.0,0.7343426999868825,,,,,,,,,,7.0,9.0,93.0,8.0,443.631167500047,,,,,,,,,,,,,,,,,443.61651830002666,443.7311777000432,444.531134000048,444.51510509999935,,,,,,,,,,,,,,,,,,,,,,,,,,,,,,,,,,,444.51558680000016,444.531134000048,444.531134000048,445.2693356000236,r,1.0,0.7343426999868825,,,,,,sub-155,1,stroop_test,59.97451083430298,
,,,,94.0,10.0,7.0,,,,,,,,,,,,,blau,yellow,g,0.0,g,1.0,0.7960761000285856,,,,,,,,,,7.0,10.0,94.0,7.0,445.2810988000128,,,,,,,,,,,,,,,,,445.269713900052,445.3810460000532,446.1807592000114,446.1646092000301,,,,,,,,,,,,,,,,,,,,,,,,,,,,,,,,,,,446.168478000036,446.1807592000114,446.1807592000114,446.9820305000176,g,1.0,0.7960761000285856,,,,,,sub-155,1,stroop_test,59.97451083430298,
,,,,95.0,11.0,7.0,,,,,,,,,,,,,blau,red,r,0.0,r,1.0,1.2489816999877803,,,,,,,,,,7.0,11.0,95.0,4.0,446.997419900028,,,,,,,,,,,,,,,,,446.9823799000005,447.3474400000414,448.1474262000411,448.13147170003504,,,,,,,,,,,,,,,,,,,,,,,,,,,,,,,,,,,448.13207680004416,448.1474262000411,448.1474262000411,449.3986779000261,r,1.0,1.2489816999877803,,,,,,sub-155,1,stroop_test,59.97451083430298,
,,,,96.0,0.0,8.0,,,,,,,,,,,,,gelb,yellow,g,1.0,g,1.0,0.6316119999974035,,,,,,,,,,8.0,0.0,96.0,11.0,449.4139746000292,,,,,,,,,,,,,,,,,449.3991083000437,450.2138795000501,451.0140698000323,450.9980135000078,,,,,,,,,,,,,,,,,,,,,,,,,,,,,,,,,,,451.0014963000431,451.0140698000323,451.0140698000323,451.64874970004894,g,1.0,0.6316119999974035,,,,,,sub-155,1,stroop_test,59.97451083430298,
,,,,97.0,1.0,8.0,,,,,,,,,,,,,rot,yellow,g,0.0,g,1.0,0.9343234000261872,,,,,,,,,,8.0,1.0,97.0,3.0,451.664016900002,,,,,,,,,,,,,,,,,451.6491914000362,451.7638587999973,452.5638839000021,452.5476777000004,,,,,,,,,,,,,,,,,,,,,,,,,,,,,,,,,,,452.551207200042,452.5638839000021,452.5638839000021,453.5152766000247,g,1.0,0.9343234000261872,,,,,,sub-155,1,stroop_test,59.97451083430298,
,,,,98.0,2.0,8.0,,,,,,,,,,,,,rot,red,r,1.0,r,1.0,0.7219257999677211,,,,,,,,,,8.0,2.0,98.0,0.0,453.53079300001264,,,,,,,,,,,,,,,,,453.5156136000296,453.8805826000171,454.6806860000361,454.66451380000217,,,,,,,,,,,,,,,,,,,,,,,,,,,,,,,,,,,454.66511750000063,454.6806860000361,454.6806860000361,455.4149092000444,r,1.0,0.7219257999677211,,,,,,sub-155,1,stroop_test,59.97451083430298,
,,,,99.0,3.0,8.0,,,,,,,,,,,,,blau,red,r,0.0,r,1.0,0.7745560000184923,,,,,,,,,,8.0,3.0,99.0,4.0,455.4305666,,,,,,,,,,,,,,,,,455.4152299000416,456.6141495000338,457.4144728000392,457.39918950002175,,,,,,,,,,,,,,,,,,,,,,,,,,,,,,,,,,,457.40613940003095,457.4144728000392,457.4144728000392,458.2013623000239,r,1.0,0.7745560000184923,,,,,,sub-155,1,stroop_test,59.97451083430298,
,,,,100.0,4.0,8.0,,,,,,,,,,,,,blau,blue,b,1.0,b,1.0,0.6909751999774016,,,,,,,,,,8.0,4.0,100.0,6.0,458.2144820000394,,,,,,,,,,,,,,,,,458.2018296000315,458.3146397000528,459.11479260004126,459.10022040002514,,,,,,,,,,,,,,,,,,,,,,,,,,,,,,,,,,,459.1011099000461,459.11479260004126,459.11479260004126,459.8167344999965,b,1.0,0.6909751999774016,,,,,,sub-155,1,stroop_test,59.97451083430298,
,,,,101.0,5.0,8.0,,,,,,,,,,,,,blau,yellow,g,0.0,g,1.0,0.9675307999714278,,,,,,,,,,8.0,5.0,101.0,7.0,459.8312885000487,,,,,,,,,,,,,,,,,459.8173359000357,461.0306881000288,461.8311609000084,461.81601240002783,,,,,,,,,,,,,,,,,,,,,,,,,,,,,,,,,,,461.8168866000488,461.8311609000084,461.8311609000084,462.80311020003865,g,1.0,0.9675307999714278,,,,,,sub-155,1,stroop_test,59.97451083430298,
,,,,102.0,6.0,8.0,,,,,,,,,,,,,blau,blue,b,1.0,b,1.0,0.9324323000037112,,,,,,,,,,8.0,6.0,102.0,5.0,462.8143132000114,,,,,,,,,,,,,,,,,462.8035701000481,464.0144826000324,464.8145585000166,464.7995328000397,,,,,,,,,,,,,,,,,,,,,,,,,,,,,,,,,,,464.8005102000316,464.8145585000166,464.8145585000166,465.7522692000493,b,1.0,0.9324323000037112,,,,,,sub-155,1,stroop_test,59.97451083430298,
,,,,103.0,7.0,8.0,,,,,,,,,,,,,rot,red,r,1.0,r,1.0,0.6690259999595582,,,,,,,,,,8.0,7.0,103.0,1.0,465.7642467000405,,,,,,,,,,,,,,,,,465.752851199999,465.86424100003205,466.66429600003175,466.6486678000074,,,,,,,,,,,,,,,,,,,,,,,,,,,,,,,,,,,466.65332650003256,466.66429600003175,466.66429600003175,467.34941750002326,r,1.0,0.6690259999595582,,,,,,sub-155,1,stroop_test,59.97451083430298,
,,,,104.0,8.0,8.0,,,,,,,,,,,,,gelb,yellow,g,1.0,g,1.0,0.7009258000180125,,,,,,,,,,8.0,8.0,104.0,10.0,467.3639751000446,,,,,,,,,,,,,,,,,467.3499121000059,468.56396350002615,469.3638167000026,469.34765660000267,,,,,,,,,,,,,,,,,,,,,,,,,,,,,,,,,,,469.35213360004127,469.3638167000026,469.3638167000026,470.07091050001327,g,1.0,0.7009258000180125,,,,,,sub-155,1,stroop_test,59.97451083430298,
,,,,105.0,9.0,8.0,,,,,,,,,,,,,rot,blue,b,0.0,b,1.0,1.141373899998143,,,,,,,,,,8.0,9.0,105.0,2.0,470.081047100015,,,,,,,,,,,,,,,,,470.0713892000495,471.2808495000354,472.0809176000184,472.065734600008,,,,,,,,,,,,,,,,,,,,,,,,,,,,,,,,,,,472.0718412999995,472.0809176000184,472.0809176000184,473.2333336000447,b,1.0,1.141373899998143,,,,,,sub-155,1,stroop_test,59.97451083430298,
,,,,106.0,10.0,8.0,,,,,,,,,,,,,gelb,red,r,0.0,r,1.0,0.9064474999904631,,,,,,,,,,8.0,10.0,106.0,8.0,473.2469451000216,,,,,,,,,,,,,,,,,473.2338228000445,474.0475870000082,474.8473607000197,474.832799500029,,,,,,,,,,,,,,,,,,,,,,,,,,,,,,,,,,,474.8384111000341,474.8473607000197,474.8473607000197,475.7671135000419,r,1.0,0.9064474999904631,,,,,,sub-155,1,stroop_test,59.97451083430298,
,,,,107.0,11.0,8.0,,,,,,,,,,,,,gelb,blue,b,0.0,b,1.0,0.737347700051032,,,,,,,,,,8.0,11.0,107.0,9.0,475.7804278000258,,,,,,,,,,,,,,,,,475.7681287000305,476.5809353000368,477.3810871000169,477.36595870001474,,,,,,,,,,,,,,,,,,,,,,,,,,,,,,,,,,,477.3669637000421,477.3810871000169,477.3810871000169,478.1329177000444,b,1.0,0.737347700051032,,,,,,sub-155,1,stroop_test,59.97451083430298,
,,,,108.0,0.0,9.0,,,,,,,,,,,,,gelb,yellow,g,1.0,g,1.0,0.5235525000025518,,,,,,,,,,9.0,0.0,108.0,10.0,478.1474116000463,,,,,,,,,,,,,,,,,478.1333785000024,478.4969626000384,479.2971904000151,479.2820356000448,,,,,,,,,,,,,,,,,,,,,,,,,,,,,,,,,,,479.28278020001017,479.2971904000151,479.2971904000151,479.83263550000265,g,1.0,0.5235525000025518,,,,,,sub-155,1,stroop_test,59.97451083430298,
,,,,109.0,1.0,9.0,,,,,,,,,,,,,blau,blue,b,1.0,b,1.0,0.8357475000084378,,,,,,,,,,9.0,1.0,109.0,6.0,479.8475365000195,,,,,,,,,,,,,,,,,479.8331359000295,481.0476245000027,481.847472100053,481.8327095000423,,,,,,,,,,,,,,,,,,,,,,,,,,,,,,,,,,,481.836872600019,481.847472100053,481.847472100053,482.6993893000181,b,1.0,0.8357475000084378,,,,,,sub-155,1,stroop_test,59.97451083430298,
,,,,110.0,2.0,9.0,,,,,,,,,,,,,blau,red,r,0.0,r,1.0,0.8327412999933586,,,,,,,,,,9.0,2.0,110.0,4.0,482.71406690002186,,,,,,,,,,,,,,,,,482.69991280004615,483.06378950004,483.8636181000038,483.8475151000312,,,,,,,,,,,,,,,,,,,,,,,,,,,,,,,,,,,483.84801210003207,483.8636181000038,483.8636181000038,484.7012304000091,r,1.0,0.8327412999933586,,,,,,sub-155,1,stroop_test,59.97451083430298,
,,,,111.0,3.0,9.0,,,,,,,,,,,,,blau,yellow,g,0.0,g,1.0,1.0958126000477932,,,,,,,,,,9.0,3.0,111.0,7.0,484.71386790002,,,,,,,,,,,,,,,,,484.7016689000302,485.5140735000023,486.3135179000092,486.29894160002,,,,,,,,,,,,,,,,,,,,,,,,,,,,,,,,,,,486.2996840000269,486.3135179000092,486.3135179000092,487.4153942000121,g,1.0,1.0958126000477932,,,,,,sub-155,1,stroop_test,59.97451083430298,
,,,,112.0,4.0,9.0,,,,,,,,,,,,,gelb,red,r,0.0,r,1.0,1.5004928999696858,,,,,,,,,,9.0,4.0,112.0,8.0,487.4307510000072,,,,,,,,,,,,,,,,,487.4158025000361,488.2307086000219,489.0306423000293,489.0162270000437,,,,,,,,,,,,,,,,,,,,,,,,,,,,,,,,,,,489.02151990000857,489.0306423000293,489.0306423000293,490.53577860002406,r,1.0,1.5004928999696858,,,,,,sub-155,1,stroop_test,59.97451083430298,
,,,,113.0,5.0,9.0,,,,,,,,,,,,,rot,red,r,1.0,r,1.0,0.5335363000049256,,,,,,,,,,9.0,5.0,113.0,1.0,490.54721170000266,,,,,,,,,,,,,,,,,490.5361800999963,491.34751380002126,492.1473038000404,492.1319288000232,,,,,,,,,,,,,,,,,,,,,,,,,,,,,,,,,,,492.1371452000458,492.1473038000404,492.1473038000404,492.68600520002656,r,1.0,0.5335363000049256,,,,,,sub-155,1,stroop_test,59.97451083430298,
,,,,114.0,6.0,9.0,,,,,,,,,,,,,rot,blue,b,0.0,b,1.0,0.7565329999779351,,,,,,,,,,9.0,6.0,114.0,2.0,492.697060000035,,,,,,,,,,,,,,,,,492.68645720003406,493.0472851000377,493.8471026000334,493.8306147000403,,,,,,,,,,,,,,,,,,,,,,,,,,,,,,,,,,,493.83130020002136,493.8471026000334,493.8471026000334,494.6167891000514,b,1.0,0.7565329999779351,,,,,,sub-155,1,stroop_test,59.97451083430298,
,,,,115.0,7.0,9.0,,,,,,,,,,,,,gelb,yellow,g,1.0,g,1.0,0.7085947999730706,,,,,,,,,,9.0,7.0,115.0,11.0,494.6299771000049,,,,,,,,,,,,,,,,,494.6173518000287,494.9804869000218,495.7804305000464,495.7651146000135,,,,,,,,,,,,,,,,,,,,,,,,,,,,,,,,,,,495.7698204000481,495.7804305000464,495.7804305000464,496.4993465000298,g,1.0,0.7085947999730706,,,,,,sub-155,1,stroop_test,59.97451083430298,
,,,,116.0,8.0,9.0,,,,,,,,,,,,,gelb,blue,b,0.0,b,1.0,0.98618449998321,,,,,,,,,,9.0,8.0,116.0,9.0,496.51395970000885,,,,,,,,,,,,,,,,,496.4999065000448,496.6139330000151,497.4140371000394,497.39886250003474,,,,,,,,,,,,,,,,,,,,,,,,,,,,,,,,,,,497.3998818999971,497.4140371000394,497.4140371000394,498.4157502000453,b,1.0,0.98618449998321,,,,,,sub-155,1,stroop_test,59.97451083430298,
,,,,117.0,9.0,9.0,,,,,,,,,,,,,rot,yellow,g,0.0,g,1.0,0.8281477000564337,,,,,,,,,,9.0,9.0,117.0,3.0,498.4304778000224,,,,,,,,,,,,,,,,,498.4162139000255,498.5305039000232,499.3299948000349,499.31395940005314,,,,,,,,,,,,,,,,,,,,,,,,,,,,,,,,,,,499.3178082000232,499.3299948000349,499.3299948000349,500.1656333000283,g,1.0,0.8281477000564337,,,,,,sub-155,1,stroop_test,59.97451083430298,
,,,,118.0,10.0,9.0,,,,,,,,,,,,,rot,red,r,1.0,r,1.0,0.9858866999857128,,,,,,,,,,9.0,10.0,118.0,0.0,500.1801283000386,,,,,,,,,,,,,,,,,500.16610630002106,500.5302878000075,501.3302137000137,501.3159964000224,,,,,,,,,,,,,,,,,,,,,,,,,,,,,,,,,,,501.3167880999972,501.3302137000137,501.3302137000137,502.33342880004784,r,1.0,0.9858866999857128,,,,,,sub-155,1,stroop_test,59.97451083430298,
,,,,119.0,11.0,9.0,,,,,,,,,,,,,blau,blue,b,1.0,b,1.0,0.9136058000149204,,,,,,,,,,9.0,11.0,119.0,5.0,502.34706830000505,,,,,,,,,,,,,,,,,502.33436740003526,502.44740750000346,503.24659270001575,503.23163570003817,,,,,,,,,,,,,,,,,,,,,,,,,,,,,,,,,,,503.2371078000288,503.24659270001575,503.24659270001575,504.1656893000472,b,1.0,0.9136058000149204,,,,,,sub-155,1,stroop_test,59.97451083430298,
,,,,,,,,,,,,,,,,,,,,,,,,,,,,,,,,,,,,,,,,,,,,,,,,,,,,,,,,,,,,,,,,,,,,,,,,,,,,,,,,,,,,,,,,,,,,,,,,,,,,,,504.16590500000166,504.1802217000513,509.1799172000028,509.164173200028,sub-155,1,stroop_test,59.97451083430298,
