wordCTK,colorCTK,corrAnsCTK,congruentCTK,thisN,thisTrialN,thisRepN,keyResp_CTK.keys,keyResp_CTK.corr,keyResp_CTK.rt,keyResp_CTK.duration,wordPractice,colorPractice,corrAnsPractice,congruentPractice,respPractice.keys,respPractice.corr,respPractice.rt,respPractice.duration,word,color,corrAns,congruent,keyResp_test_run.keys,keyResp_test_run.corr,keyResp_test_run.rt,keyResp_test_run.duration,trials_CTK.thisRepN,trials_CTK.thisTrialN,trials_CTK.thisN,trials_CTK.thisIndex,trials_practice.thisRepN,trials_practice.thisTrialN,trials_practice.thisN,trials_practice.thisIndex,trials_test.thisRepN,trials_test.thisTrialN,trials_test.thisN,trials_test.thisIndex,thisRow.t,notes,instruction.started,instr_text.started,instr_image.started,instr_resp.started,instruction.stopped,instr_resp.keys,instr_resp.rt,instr_resp.duration,instr_color_to_key.started,instr_ctk.started,resp_ctk.started,instr_color_to_key.stopped,resp_ctk.keys,resp_ctk.rt,resp_ctk.duration,ITI.started,fixcross.started,fixcross.stopped,ITI.stopped,color_to_key_run.started,stimulus_CTK.started,keyResp_CTK.started,color_to_key_run.stopped,trials_CTK.keyResp_CTK.keys,trials_CTK.keyResp_CTK.corr,trials_CTK.keyResp_CTK.rt,trials_CTK.keyResp_CTK.duration,instr_practice.started,instr_practice_text.started,instr_practice_resp.started,instr_practice.stopped,instr_practice_resp.keys,instr_practice_resp.rt,instr_practice_resp.duration,practice_run.started,stimulus_practice.started,respPractice.started,practice_run.stopped,trials_practice.respPractice.keys,trials_practice.respPractice.corr,trials_practice.respPractice.rt,trials_practice.respPractice.duration,feedback.started,textFeedback.started,feedback.stopped,textFeedback.stopped,instr_test.started,instr_test_text.started,instr_test_resp.started,instr_test.stopped,instr_test_resp.keys,instr_test_resp.rt,instr_test_resp.duration,test_run.started,stimulus_test_run.started,keyResp_test_run.started,test_run.stopped,trials_test.keyResp_test_run.keys,trials_test.keyResp_test_run.corr,trials_test.keyResp_test_run.rt,trials_test.keyResp_test_run.duration,goodbye.started,textGoodbye.started,textGoodbye.stopped,goodbye.stopped,participant,session,expName,frameRate,Unnamed: 113
,,,,,,,,,,,,,,,,,,,,,,,,,,,,,,,,,,,,,,,,,0.0071006670000031,0.0139590839999925,0.0139590839999925,0.0139590839999925,16.513657292000005,space,16.460560708000003,,,,,,,,,,,,,,,,,,,,,,,,,,,,,,,,,,,,,,,,,,,,,,,,,,,,,,,,,,,sub-078,1,stroop_test,,
,,,,,,,,,,,,,,,,,,,,,,,,,,,,,,,,,,,,,,,,,,,,,,,,,16.513725959,16.519683458999992,16.519683458999992,28.252241999999995,space,11.72144474999999,,,,,,,,,,,,,,,,,,,,,,,,,,,,,,,,,,,,,,,,,,,,,,,,,,,,sub-078,1,stroop_test,,
test,blue,b,1.0,0.0,0.0,0.0,b,1.0,2.952716166000016,,,,,,,,,,,,,,,,,,0.0,0.0,0.0,2.0,,,,,,,,,28.289529458999997,,,,,,,,,,,,,,,,,28.272698292,29.056709959000017,29.85370499999999,29.84041091700001,29.847550791999996,29.85370499999999,29.85370499999999,32.808656334000005,b,1.0,2.952716166000016,,,,,,,,,,,,,,,,,,,,,,,,,,,,,,,,,,,,,,,,sub-078,1,stroop_test,,
test,yellow,g,1.0,1.0,1.0,0.0,g,1.0,1.0200572079999972,,,,,,,,,,,,,,,,,,0.0,1.0,1.0,1.0,,,,,,,,,32.81900141700001,,,,,,,,,,,,,,,,,32.809284875,34.007197042,34.808908417,34.801141375000014,34.801916500000004,34.808908417,34.808908417,35.83552850000001,g,1.0,1.0200572079999972,,,,,,,,,,,,,,,,,,,,,,,,,,,,,,,,,,,,,,,,sub-078,1,stroop_test,,
test,red,r,1.0,2.0,2.0,0.0,r,1.0,0.7374760419999973,,,,,,,,,,,,,,,,,,0.0,2.0,2.0,0.0,,,,,,,,,35.845767292000005,,,,,,,,,,,,,,,,,35.83608891700001,36.183455459000015,36.974747334,36.96752137500002,36.968125125,36.974747334,36.974747334,37.71890295900002,r,1.0,0.7374760419999973,,,,,,,,,,,,,,,,,,,,,,,,,,,,,,,,,,,,,,,,sub-078,1,stroop_test,,
test,yellow,g,1.0,3.0,0.0,1.0,g,1.0,1.4181170829999985,,,,,,,,,,,,,,,,,,1.0,0.0,3.0,1.0,,,,,,,,,37.72898037499999,,,,,,,,,,,,,,,,,37.71949608400001,38.516749542000014,39.308582417,39.30102550000001,39.301780334,39.308582417,39.308582417,40.73554362499999,g,1.0,1.4181170829999985,,,,,,,,,,,,,,,,,,,,,,,,,,,,,,,,,,,,,,,,sub-078,1,stroop_test,,
test,blue,b,1.0,4.0,1.0,1.0,b,1.0,0.6657497920000139,,,,,,,,,,,,,,,,,,1.0,1.0,4.0,2.0,,,,,,,,,40.74559587499999,,,,,,,,,,,,,,,,,40.736118542000014,41.933527709,42.724854959,42.717441167,42.718163084,42.724854959,42.724854959,43.402265,b,1.0,0.6657497920000139,,,,,,,,,,,,,,,,,,,,,,,,,,,,,,,,,,,,,,,,sub-078,1,stroop_test,,
test,red,r,1.0,5.0,2.0,1.0,r,1.0,2.4918082920000018,,,,,,,,,,,,,,,,,,1.0,2.0,5.0,0.0,,,,,,,,,43.412584459000016,,,,,,,,,,,,,,,,,43.40286012500002,44.20024120900001,44.99220729200002,44.98445304200001,44.985214334000005,44.99220729200002,44.99220729200002,47.48689754199998,r,1.0,2.4918082920000018,,,,,,,,,,,,,,,,,,,,,,,,,,,,,,,,,,,,,,,,sub-078,1,stroop_test,,
test,red,r,1.0,6.0,0.0,2.0,r,1.0,0.8179190840000388,,,,,,,,,,,,,,,,,,2.0,0.0,6.0,0.0,,,,,,,,,47.497102292,,,,,,,,,,,,,,,,,47.487538417000025,47.58349595900003,48.374574334000016,48.367463000000015,48.36805608400002,48.374574334000016,48.374574334000016,49.202198959000015,r,1.0,0.8179190840000388,,,,,,,,,,,,,,,,,,,,,,,,,,,,,,,,,,,,,,,,sub-078,1,stroop_test,,
test,blue,b,1.0,7.0,1.0,2.0,b,1.0,0.5589965419999885,,,,,,,,,,,,,,,,,,2.0,1.0,7.0,2.0,,,,,,,,,49.21244725,,,,,,,,,,,,,,,,,49.20279187500003,50.40024887500002,51.19147370900001,51.18410166700002,51.184695542000014,51.19147370900001,51.19147370900001,51.75360362500001,b,1.0,0.5589965419999885,,,,,,,,,,,,,,,,,,,,,,,,,,,,,,,,,,,,,,,,sub-078,1,stroop_test,,
test,yellow,g,1.0,8.0,2.0,2.0,g,1.0,0.5508245419999866,,,,,,,,,,,,,,,,,,2.0,2.0,8.0,1.0,,,,,,,,,51.763853125,,,,,,,,,,,,,,,,,51.75426295899999,52.950209,53.742374334,53.73450412500003,53.735419167,53.742374334,53.742374334,54.302103416999984,g,1.0,0.5508245419999866,,,,,,,,,,,,,,,,,,,,,,,,,,,,,,,,,,,,,,,,sub-078,1,stroop_test,,
test,blue,b,1.0,9.0,0.0,3.0,b,1.0,0.8004349170000182,,,,,,,,,,,,,,,,,,3.0,0.0,9.0,2.0,,,,,,,,,54.31213570899999,,,,,,,,,,,,,,,,,54.302648542000014,55.10022283399999,55.89160341700003,55.8841315,55.884721042,55.89160341700003,55.89160341700003,56.70211095900001,b,1.0,0.8004349170000182,,,,,,,,,,,,,,,,,,,,,,,,,,,,,,,,,,,,,,,,sub-078,1,stroop_test,,
test,yellow,g,1.0,10.0,1.0,3.0,g,1.0,1.2155139159999635,,,,,,,,,,,,,,,,,,3.0,1.0,10.0,1.0,,,,,,,,,56.71307683400002,,,,,,,,,,,,,,,,,56.702671959000014,57.50016554200002,58.29193491700002,58.284183249999984,58.284944959,58.29193491700002,58.29193491700002,59.51881745900002,g,1.0,1.2155139159999635,,,,,,,,,,,,,,,,,,,,,,,,,,,,,,,,,,,,,,,,sub-078,1,stroop_test,,
test,red,r,1.0,11.0,2.0,3.0,r,1.0,0.4324043330000222,,,,,,,,,,,,,,,,,,3.0,2.0,11.0,0.0,,,,,,,,,59.529874417,,,,,,,,,,,,,,,,,59.519466875000006,59.86652329199998,60.65828966699999,60.65089454200003,60.65150408399998,60.65828966699999,60.65828966699999,61.10288325000002,r,1.0,0.4324043330000222,,,,,,,,,,,,,,,,,,,,,,,,,,,,,,,,,,,,,,,,sub-078,1,stroop_test,,
,,,,,,,,,,,,,,,,,,,,,,,,,,,,,,,,,,,,,,,,,,,,,,,,,,,,,,,,,,,,,,,,,,,,61.10317749999999,61.114812,61.114812,64.27021325000001,space,3.152518334000036,,,,,,,,,,,,,,,,,,,,,,,,,,,,,,,,,sub-078,1,stroop_test,,
,,,,0.0,0.0,0.0,,,,,blau,yellow,g,0.0,b,0.0,0.786587666999992,,,,,,,,,,,,,,0.0,0.0,0.0,7.0,,,,,64.29302375,,,,,,,,,,,,,,,,,64.28611558399999,65.0670575,65.86551012499999,65.85087358400003,,,,,,,,,,,,,,,,65.8586645,65.86551012499999,65.86551012499999,66.65842241700003,b,0.0,0.786587666999992,,66.666824709,66.67549249999999,67.666982709,,,,,,,,,,,,,,,,,,,,,sub-078,1,stroop_test,,
,,,,1.0,1.0,0.0,,,,,blau,red,r,0.0,r,1.0,0.8364655830000061,,,,,,,,,,,,,,0.0,1.0,1.0,4.0,,,,,67.672417959,,,,,,,,,,,,,,,,,67.66742066700002,68.85683741699998,69.64863766700003,69.639841292,,,,,,,,,,,,,,,,69.640457709,69.64863766700003,69.64863766700003,70.49200179200002,r,1.0,0.8364655830000061,,70.49978387500002,70.50847508400003,71.500209334,,,,,,,,,,,,,,,,,,,,,sub-078,1,stroop_test,,
,,,,2.0,2.0,0.0,,,,,gelb,yellow,g,1.0,g,1.0,1.141844792000029,,,,,,,,,,,,,,0.0,2.0,2.0,11.0,,,,,71.50608704200002,,,,,,,,,,,,,,,,,71.500809584,72.68984637500003,73.48492608400002,73.473651375,,,,,,,,,,,,,,,,73.47733137499998,73.48492608400002,73.48492608400002,74.63554854200001,g,1.0,1.141844792000029,,74.63641099999998,74.64657387500003,75.63427387499999,75.63984729199998,,,,,,,,,,,,,,,,,,,,sub-078,1,stroop_test,,
,,,,3.0,3.0,0.0,,,,,gelb,red,r,0.0,r,1.0,0.644386499999996,,,,,,,,,,,,,,0.0,3.0,3.0,8.0,,,,,75.63984729199998,,,,,,,,,,,,,,,,,75.634790084,76.833491625,77.625270417,77.617551125,,,,,,,,,,,,,,,,77.618271625,77.625270417,77.625270417,78.274887167,r,1.0,0.644386499999996,,78.275594875,78.285779959,79.27250062499999,79.28339091699999,,,,,,,,,,,,,,,,,,,,sub-078,1,stroop_test,,
,,,,4.0,4.0,0.0,,,,,gelb,blue,b,0.0,b,1.0,0.6755159170000411,,,,,,,,,,,,,,0.0,4.0,4.0,9.0,,,,,79.28339091699999,,,,,,,,,,,,,,,,,79.27289662500002,80.47376212499998,81.27506304200003,81.26754958400002,,,,,,,,,,,,,,,,81.26832220899999,81.27506304200003,81.27506304200003,81.95375166699998,b,1.0,0.6755159170000411,,81.95463900000001,81.965294209,82.95097595900003,82.95666454200003,,,,,,,,,,,,,,,,,,,,sub-078,1,stroop_test,,
,,,,5.0,5.0,0.0,,,,,blau,blue,b,1.0,b,1.0,0.5005538750000369,,,,,,,,,,,,,,0.0,5.0,5.0,5.0,,,,,82.95666454200003,,,,,,,,,,,,,,,,,82.951489667,83.75007620900001,84.54571312499999,84.53407487500002,,,,,,,,,,,,,,,,84.538585375,84.54571312499999,84.54571312499999,85.05237041699999,b,1.0,0.5005538750000369,,85.0533465,85.06388137500002,86.05098612499998,86.05638404200002,,,,,,,,,,,,,,,,,,,,sub-078,1,stroop_test,,
,,,,6.0,6.0,0.0,,,,,rot,red,r,1.0,r,1.0,0.6440847910000116,,,,,,,,,,,,,,0.0,6.0,6.0,0.0,,,,,86.05638404200002,,,,,,,,,,,,,,,,,86.05139441700001,86.15012212500002,86.94803854199998,86.93399524999998,,,,,,,,,,,,,,,,86.94079050000002,86.94803854199998,86.94803854199998,87.60214275000001,r,1.0,0.6440847910000116,,87.60303320900002,87.61387833400002,88.60080391699998,88.60612979200002,,,,,,,,,,,,,,,,,,,,sub-078,1,stroop_test,,
,,,,7.0,7.0,0.0,,,,,rot,blue,b,0.0,b,1.0,0.6085717499999532,,,,,,,,,,,,,,0.0,7.0,7.0,2.0,,,,,88.60612979200002,,,,,,,,,,,,,,,,,88.60120754200003,89.80029537499999,90.59185195900002,90.58409754200002,,,,,,,,,,,,,,,,90.584822125,90.59185195900002,90.59185195900002,91.202909709,b,1.0,0.6085717499999532,,91.203841875,91.21451075000002,92.20092520900002,92.20676375000002,,,,,,,,,,,,,,,,,,,,sub-078,1,stroop_test,,
,,,,8.0,8.0,0.0,,,,,rot,yellow,g,0.0,g,1.0,0.3785092080000254,,,,,,,,,,,,,,0.0,8.0,8.0,3.0,,,,,92.20676375000002,,,,,,,,,,,,,,,,,92.201454375,93.40021737499998,94.19128758399998,94.1841125,,,,,,,,,,,,,,,,94.18469945900004,94.19128758399998,94.19128758399998,94.57465145900002,g,1.0,0.3785092080000254,,94.57537966700002,94.585852292,95.573252167,95.583402625,,,,,,,,,,,,,,,,,,,,sub-078,1,stroop_test,,
,,,,9.0,9.0,0.0,,,,,gelb,yellow,g,1.0,g,1.0,0.5289558750000083,,,,,,,,,,,,,,0.0,9.0,9.0,10.0,,,,,95.583402625,,,,,,,,,,,,,,,,,95.573690792,95.67268125,96.468089375,96.456802292,,,,,,,,,,,,,,,,96.460340125,96.468089375,96.468089375,97.00229516700004,g,1.0,0.5289558750000083,,97.003334084,97.01417966699998,98.000898459,98.00668854199998,,,,,,,,,,,,,,,,,,,,sub-078,1,stroop_test,,
,,,,10.0,10.0,0.0,,,,,blau,blue,b,1.0,b,1.0,0.4767608329999575,,,,,,,,,,,,,,0.0,10.0,10.0,6.0,,,,,98.00668854199998,,,,,,,,,,,,,,,,,98.001420917,98.10009875,98.895081959,98.884202,,,,,,,,,,,,,,,,98.888116834,98.895081959,98.895081959,99.37472466699998,b,1.0,0.4767608329999575,,99.3754445,99.38568729200004,100.372311042,100.383415042,,,,,,,,,,,,,,,,,,,,sub-078,1,stroop_test,,
,,,,11.0,11.0,0.0,,,,,rot,red,r,1.0,r,1.0,0.3889148750000117,,,,,,,,,,,,,,0.0,11.0,11.0,1.0,,,,,100.383415042,,,,,,,,,,,,,,,,,100.37271141699998,100.47321075,101.2785325,101.26745558400005,,,,,,,,,,,,,,,,101.271330125,101.2785325,101.2785325,101.679703542,r,1.0,0.3889148750000117,,101.680310084,101.686448292,102.67365370899998,102.68337108400002,,,,,,,,,,,,,,,,,,,,sub-078,1,stroop_test,,
,,,,12.0,0.0,1.0,,,,,blau,red,r,0.0,r,1.0,0.6159062080000126,,,,,,,,,,,,,,1.0,0.0,12.0,4.0,,,,,102.68337108400002,,,,,,,,,,,,,,,,,102.67406420900002,103.022967834,103.81801654199998,103.80648262500004,,,,,,,,,,,,,,,,103.810100667,103.81801654199998,103.81801654199998,104.43653600000002,r,1.0,0.6159062080000126,,104.43746762499998,104.448227,105.434045167,105.439466459,,,,,,,,,,,,,,,,,,,,sub-078,1,stroop_test,,
,,,,13.0,1.0,1.0,,,,,rot,red,r,1.0,r,1.0,0.5963208750000035,,,,,,,,,,,,,,1.0,1.0,13.0,1.0,,,,,105.439466459,,,,,,,,,,,,,,,,,105.434481917,106.233236167,107.029091625,107.017509042,,,,,,,,,,,,,,,,107.02193454200004,107.029091625,107.029091625,107.635497792,r,1.0,0.5963208750000035,,107.63642579199998,107.647358625,108.634126459,108.63990016699998,,,,,,,,,,,,,,,,,,,,sub-078,1,stroop_test,,
,,,,14.0,2.0,1.0,,,,,gelb,yellow,g,1.0,g,1.0,0.8183457499999918,,,,,,,,,,,,,,1.0,2.0,14.0,11.0,,,,,108.63990016699998,,,,,,,,,,,,,,,,,108.63466300000002,108.98344412499998,109.77914191700005,109.76745220900004,,,,,,,,,,,,,,,,109.77224500000004,109.77914191700005,109.77914191700005,110.601911167,g,1.0,0.8183457499999918,,110.602728709,110.613554375,111.60056445900004,111.605890167,,,,,,,,,,,,,,,,,,,,sub-078,1,stroop_test,,
,,,,15.0,3.0,1.0,,,,,rot,yellow,g,0.0,g,1.0,0.5385414589999868,,,,,,,,,,,,,,1.0,3.0,15.0,3.0,,,,,111.605890167,,,,,,,,,,,,,,,,,111.6009845,111.70000204200002,112.495183084,112.483914667,,,,,,,,,,,,,,,,112.48789645899998,112.495183084,112.495183084,113.036107042,g,1.0,0.5385414589999868,,113.03704120900002,113.048232834,114.03417766700002,114.039637042,,,,,,,,,,,,,,,,,,,,sub-078,1,stroop_test,,
,,,,16.0,4.0,1.0,,,,,gelb,red,r,0.0,r,1.0,0.4959774170000059,,,,,,,,,,,,,,1.0,4.0,16.0,8.0,,,,,114.039637042,,,,,,,,,,,,,,,,,114.03470237500002,114.383404667,115.17833379200002,115.167274042,,,,,,,,,,,,,,,,115.171174375,115.17833379200002,115.17833379200002,115.68538270899998,r,1.0,0.4959774170000059,,115.686300417,115.697175042,116.68410691699998,116.689680084,,,,,,,,,,,,,,,,,,,,sub-078,1,stroop_test,,
,,,,17.0,5.0,1.0,,,,,blau,yellow,g,0.0,g,1.0,0.7374895830000128,,,,,,,,,,,,,,1.0,5.0,17.0,7.0,,,,,116.689680084,,,,,,,,,,,,,,,,,116.6846255,117.883390084,118.67950750000004,118.66774275000004,,,,,,,,,,,,,,,,118.67250195900002,118.67950750000004,118.67950750000004,119.41940687500002,g,1.0,0.7374895830000128,,119.420342917,119.431422584,120.417553084,120.42307050000002,,,,,,,,,,,,,,,,,,,,sub-078,1,stroop_test,,
,,,,18.0,6.0,1.0,,,,,blau,blue,b,1.0,b,1.0,0.3609240410000325,,,,,,,,,,,,,,1.0,6.0,18.0,5.0,,,,,120.42307050000002,,,,,,,,,,,,,,,,,120.41798837500002,121.216686834,122.00862129200002,122.000705459,,,,,,,,,,,,,,,,122.00143291700002,122.00862129200002,122.00862129200002,122.37252212500002,b,1.0,0.3609240410000325,,122.37300270900002,122.381971042,123.367390417,123.37303008400002,,,,,,,,,,,,,,,,,,,,sub-078,1,stroop_test,,
,,,,19.0,7.0,1.0,,,,,gelb,blue,b,0.0,b,1.0,0.4658503329999917,,,,,,,,,,,,,,1.0,7.0,19.0,9.0,,,,,123.37303008400002,,,,,,,,,,,,,,,,,123.36790512500002,124.56666299999998,125.36187283400002,125.35074125000004,,,,,,,,,,,,,,,,125.354970459,125.36187283400002,125.36187283400002,125.835412542,b,1.0,0.4658503329999917,,125.836268,125.84693658400002,126.83401187500002,126.839386292,,,,,,,,,,,,,,,,,,,,sub-078,1,stroop_test,,
,,,,20.0,8.0,1.0,,,,,blau,blue,b,1.0,b,1.0,0.421326625000006,,,,,,,,,,,,,,1.0,8.0,20.0,6.0,,,,,126.839386292,,,,,,,,,,,,,,,,,126.83443275,128.033309709,128.82891416700002,128.81735245899998,,,,,,,,,,,,,,,,128.82188670899998,128.82891416700002,128.82891416700002,129.252805375,b,1.0,0.421326625000006,,129.25373883400002,129.26499737499998,130.25071162499998,130.25632612500002,,,,,,,,,,,,,,,,,,,,sub-078,1,stroop_test,,
,,,,21.0,9.0,1.0,,,,,rot,blue,b,0.0,b,1.0,0.3862564579999912,,,,,,,,,,,,,,1.0,9.0,21.0,2.0,,,,,130.25632612500002,,,,,,,,,,,,,,,,,130.25124087499998,131.04998316700002,131.847232084,131.83415712500002,,,,,,,,,,,,,,,,131.839963084,131.847232084,131.847232084,132.236188709,b,1.0,0.3862564579999912,,132.237157709,132.248642209,133.23387283399998,133.23938091699998,,,,,,,,,,,,,,,,,,,,sub-078,1,stroop_test,,
,,,,22.0,10.0,1.0,,,,,rot,red,r,1.0,r,1.0,0.4506177499999921,,,,,,,,,,,,,,1.0,10.0,22.0,0.0,,,,,133.23938091699998,,,,,,,,,,,,,,,,,133.234395875,133.58333341699998,134.37445141700002,134.367360917,,,,,,,,,,,,,,,,134.367985834,134.37445141700002,134.37445141700002,134.835052167,r,1.0,0.4506177499999921,,134.835771709,134.84436491699998,135.83388275,135.838982667,,,,,,,,,,,,,,,,,,,,sub-078,1,stroop_test,,
,,,,23.0,11.0,1.0,,,,,gelb,yellow,g,1.0,g,1.0,0.4711094159999902,,,,,,,,,,,,,,1.0,11.0,23.0,10.0,,,,,135.838982667,,,,,,,,,,,,,,,,,135.83430287500002,136.183379459,136.97903008400002,136.96737466700003,,,,,,,,,,,,,,,,136.97171695900002,136.97903008400002,136.97903008400002,137.452518417,g,1.0,0.4711094159999902,,137.45354095899998,137.466276334,138.45057683400003,138.45828724999998,,,,,,,,,,,,,,,,,,,,sub-078,1,stroop_test,,
,,,,,,,,,,,,,,,,,,,,,,,,,,,,,,,,,,,,,,,,,,,,,,,,,,,,,,,,,,,,,,,,,,,,,,,,,,,,,,,,,,,,,,,138.450747709,138.45828724999998,138.45828724999998,147.97462525,space,9.509283165999989,,,,,,,,,,,,,,sub-078,1,stroop_test,,
,,,,0.0,0.0,0.0,,,,,,,,,,,,,rot,red,r,1.0,r,1.0,0.5489193330000148,,,,,,,,,,0.0,0.0,0.0,1.0,147.99970145900002,,,,,,,,,,,,,,,,,147.992063834,148.772778417,149.56802487500002,149.55643899999998,,,,,,,,,,,,,,,,,,,,,,,,,,,,,,,,,,,149.5599875,149.56802487500002,149.56802487500002,150.11945950000003,r,1.0,0.5489193330000148,,,,,,sub-078,1,stroop_test,,
,,,,1.0,1.0,0.0,,,,,,,,,,,,,rot,blue,b,0.0,b,1.0,0.4016342499999723,,,,,,,,,,0.0,1.0,1.0,2.0,150.12971929200003,,,,,,,,,,,,,,,,,150.120187334,150.916510917,151.708491459,151.700767292,,,,,,,,,,,,,,,,,,,,,,,,,,,,,,,,,,,151.70150483400002,151.708491459,151.708491459,152.118805959,b,1.0,0.4016342499999723,,,,,,sub-078,1,stroop_test,,
,,,,2.0,2.0,0.0,,,,,,,,,,,,,blau,blue,b,1.0,b,1.0,0.5390392500000303,,,,,,,,,,0.0,2.0,2.0,5.0,152.12873429200002,,,,,,,,,,,,,,,,,152.119505375,152.466600875,153.26140645900003,153.25052695899998,,,,,,,,,,,,,,,,,,,,,,,,,,,,,,,,,,,153.25437458400003,153.26140645900003,153.26140645900003,153.812674542,b,1.0,0.5390392500000303,,,,,,sub-078,1,stroop_test,,
,,,,3.0,3.0,0.0,,,,,,,,,,,,,gelb,blue,b,0.0,b,1.0,0.4084676249999575,,,,,,,,,,0.0,3.0,3.0,9.0,153.817393792,,,,,,,,,,,,,,,,,153.81308420899998,154.156295959,154.951890625,154.93995925,,,,,,,,,,,,,,,,,,,,,,,,,,,,,,,,,,,154.944612959,154.951890625,154.951890625,155.36874550000002,b,1.0,0.4084676249999575,,,,,,sub-078,1,stroop_test,,
,,,,4.0,4.0,0.0,,,,,,,,,,,,,rot,yellow,g,0.0,g,1.0,0.3885822089999919,,,,,,,,,,0.0,4.0,4.0,3.0,155.379191792,,,,,,,,,,,,,,,,,155.36943266699998,155.71656483400002,156.51169762499998,156.50055849999998,,,,,,,,,,,,,,,,,,,,,,,,,,,,,,,,,,,156.50442154200002,156.51169762499998,156.51169762499998,156.90275416699998,g,1.0,0.3885822089999919,,,,,,sub-078,1,stroop_test,,
,,,,5.0,5.0,0.0,,,,,,,,,,,,,gelb,red,r,0.0,r,1.0,0.4158219999999915,,,,,,,,,,0.0,5.0,5.0,8.0,156.91317816699998,,,,,,,,,,,,,,,,,156.903449375,157.249831209,158.045212625,158.03402087499998,,,,,,,,,,,,,,,,,,,,,,,,,,,,,,,,,,,158.038120417,158.045212625,158.045212625,158.46834941699998,r,1.0,0.4158219999999915,,,,,,sub-078,1,stroop_test,,
,,,,6.0,6.0,0.0,,,,,,,,,,,,,gelb,yellow,g,1.0,g,1.0,0.3135057079999797,,,,,,,,,,0.0,6.0,6.0,10.0,158.476442,,,,,,,,,,,,,,,,,158.468900584,159.666451292,160.457429334,160.45056825000003,,,,,,,,,,,,,,,,,,,,,,,,,,,,,,,,,,,160.451081459,160.457429334,160.457429334,160.774055042,g,1.0,0.3135057079999797,,,,,,sub-078,1,stroop_test,,
,,,,7.0,7.0,0.0,,,,,,,,,,,,,blau,red,r,0.0,r,1.0,0.4670009170000071,,,,,,,,,,0.0,7.0,7.0,4.0,160.7846145,,,,,,,,,,,,,,,,,160.774610584,161.97256425000003,162.76831137500002,162.75633708400002,,,,,,,,,,,,,,,,,,,,,,,,,,,,,,,,,,,162.760314917,162.76831137500002,162.76831137500002,163.240344625,r,1.0,0.4670009170000071,,,,,,sub-078,1,stroop_test,,
,,,,8.0,8.0,0.0,,,,,,,,,,,,,blau,blue,b,1.0,b,1.0,0.4902942499999767,,,,,,,,,,0.0,8.0,8.0,6.0,163.24829216700002,,,,,,,,,,,,,,,,,163.24074075,163.58936025,164.381640542,164.37328129200003,,,,,,,,,,,,,,,,,,,,,,,,,,,,,,,,,,,164.37384445900005,164.381640542,164.381640542,164.87506670899998,b,1.0,0.4902942499999767,,,,,,sub-078,1,stroop_test,,
,,,,9.0,9.0,0.0,,,,,,,,,,,,,rot,red,r,1.0,r,1.0,0.505807582999978,,,,,,,,,,0.0,9.0,9.0,0.0,164.884911834,,,,,,,,,,,,,,,,,164.87562329200003,165.222572375,166.01773195900003,166.006271042,,,,,,,,,,,,,,,,,,,,,,,,,,,,,,,,,,,166.00985291700002,166.01773195900003,166.01773195900003,166.53541970900002,r,1.0,0.505807582999978,,,,,,sub-078,1,stroop_test,,
,,,,10.0,10.0,0.0,,,,,,,,,,,,,blau,yellow,g,0.0,g,1.0,0.3260395829999538,,,,,,,,,,0.0,10.0,10.0,7.0,166.54508675000002,,,,,,,,,,,,,,,,,166.536154917,167.333295375,168.12844550000003,168.11722291700002,,,,,,,,,,,,,,,,,,,,,,,,,,,,,,,,,,,168.12146533400002,168.12844550000003,168.12844550000003,168.45769179200002,g,1.0,0.3260395829999538,,,,,,sub-078,1,stroop_test,,
,,,,11.0,11.0,0.0,,,,,,,,,,,,,gelb,yellow,g,1.0,g,1.0,0.511182749999989,,,,,,,,,,0.0,11.0,11.0,11.0,168.46827566700003,,,,,,,,,,,,,,,,,168.458259792,169.655355334,170.45149575000002,170.43901591699998,,,,,,,,,,,,,,,,,,,,,,,,,,,,,,,,,,,170.44384091700002,170.45149575000002,170.45149575000002,170.968698167,g,1.0,0.511182749999989,,,,,,sub-078,1,stroop_test,,
,,,,12.0,0.0,1.0,,,,,,,,,,,,,blau,red,r,0.0,r,1.0,0.3056739999999536,,,,,,,,,,1.0,0.0,12.0,4.0,170.978762,,,,,,,,,,,,,,,,,170.969387,172.166548,172.961739209,172.95058066700005,,,,,,,,,,,,,,,,,,,,,,,,,,,,,,,,,,,172.95484237500003,172.961739209,172.961739209,173.27443200000002,r,1.0,0.3056739999999536,,,,,,sub-078,1,stroop_test,,
,,,,13.0,1.0,1.0,,,,,,,,,,,,,blau,yellow,g,0.0,g,1.0,0.3545339579999904,,,,,,,,,,1.0,1.0,13.0,7.0,173.284808292,,,,,,,,,,,,,,,,,173.27509775,174.073728584,174.87544916700003,174.86741537499998,,,,,,,,,,,,,,,,,,,,,,,,,,,,,,,,,,,174.86817345900002,174.87544916700003,174.87544916700003,175.235378542,g,1.0,0.3545339579999904,,,,,,sub-078,1,stroop_test,,
,,,,14.0,2.0,1.0,,,,,,,,,,,,,rot,yellow,g,0.0,g,1.0,0.4848410839999815,,,,,,,,,,1.0,2.0,14.0,3.0,175.2454645,,,,,,,,,,,,,,,,,175.236170417,175.333430709,176.12838845899998,176.1172635,,,,,,,,,,,,,,,,,,,,,,,,,,,,,,,,,,,176.12111975000002,176.12838845899998,176.12838845899998,176.61853295900002,g,1.0,0.4848410839999815,,,,,,sub-078,1,stroop_test,,
,,,,15.0,3.0,1.0,,,,,,,,,,,,,rot,red,r,1.0,r,1.0,0.4184462079999775,,,,,,,,,,1.0,3.0,15.0,0.0,176.628768,,,,,,,,,,,,,,,,,176.619197959,176.71651566699998,177.50780645900002,177.500596209,,,,,,,,,,,,,,,,,,,,,,,,,,,,,,,,,,,177.501203042,177.50780645900002,177.50780645900002,177.935140834,r,1.0,0.4184462079999775,,,,,,sub-078,1,stroop_test,,
,,,,16.0,4.0,1.0,,,,,,,,,,,,,blau,blue,b,1.0,b,1.0,0.5454446670000266,,,,,,,,,,1.0,4.0,16.0,6.0,177.94491275,,,,,,,,,,,,,,,,,177.93580562500003,178.03294254200003,178.828129667,178.816847084,,,,,,,,,,,,,,,,,,,,,,,,,,,,,,,,,,,178.82102725,178.828129667,178.828129667,179.38591279200003,b,1.0,0.5454446670000266,,,,,,sub-078,1,stroop_test,,
,,,,17.0,5.0,1.0,,,,,,,,,,,,,rot,blue,b,0.0,b,1.0,0.4105046249999873,,,,,,,,,,1.0,5.0,17.0,2.0,179.39980625,,,,,,,,,,,,,,,,,179.38630808399998,179.4831695,180.278513334,180.267247334,,,,,,,,,,,,,,,,,,,,,,,,,,,,,,,,,,,180.271151834,180.278513334,180.278513334,180.6912885,b,1.0,0.4105046249999873,,,,,,sub-078,1,stroop_test,,
,,,,18.0,6.0,1.0,,,,,,,,,,,,,gelb,yellow,g,1.0,g,1.0,0.4610570419999931,,,,,,,,,,1.0,6.0,18.0,10.0,180.70168854200003,,,,,,,,,,,,,,,,,180.691915417,180.79098225,181.59495191700003,181.58367308400005,,,,,,,,,,,,,,,,,,,,,,,,,,,,,,,,,,,181.587775875,181.59495191700003,181.59495191700003,182.058251917,g,1.0,0.4610570419999931,,,,,,sub-078,1,stroop_test,,
,,,,19.0,7.0,1.0,,,,,,,,,,,,,rot,red,r,1.0,r,1.0,0.3244827910000367,,,,,,,,,,1.0,7.0,19.0,1.0,182.068630292,,,,,,,,,,,,,,,,,182.058958917,182.15613275,182.95154,182.94009608400003,,,,,,,,,,,,,,,,,,,,,,,,,,,,,,,,,,,182.943638917,182.95154,182.95154,183.285160417,r,1.0,0.3244827910000367,,,,,,sub-078,1,stroop_test,,
,,,,20.0,8.0,1.0,,,,,,,,,,,,,gelb,yellow,g,1.0,g,1.0,0.3755772499999921,,,,,,,,,,1.0,8.0,20.0,11.0,183.294995042,,,,,,,,,,,,,,,,,183.285789084,183.381548209,184.181407625,184.16713725,,,,,,,,,,,,,,,,,,,,,,,,,,,,,,,,,,,184.17457175,184.181407625,184.181407625,184.568576959,g,1.0,0.3755772499999921,,,,,,sub-078,1,stroop_test,,
,,,,21.0,9.0,1.0,,,,,,,,,,,,,blau,blue,b,1.0,b,1.0,0.3563644999999837,,,,,,,,,,1.0,9.0,21.0,5.0,184.578647667,,,,,,,,,,,,,,,,,184.569255417,184.916469875,185.711207709,185.700390875,,,,,,,,,,,,,,,,,,,,,,,,,,,,,,,,,,,185.704183084,185.711207709,185.711207709,186.074489125,b,1.0,0.3563644999999837,,,,,,sub-078,1,stroop_test,,
,,,,22.0,10.0,1.0,,,,,,,,,,,,,gelb,red,r,0.0,r,1.0,0.4728440409999734,,,,,,,,,,1.0,10.0,22.0,8.0,186.084491959,,,,,,,,,,,,,,,,,186.07508466700003,186.174475167,186.978039042,186.967097042,,,,,,,,,,,,,,,,,,,,,,,,,,,,,,,,,,,186.970960917,186.978039042,186.978039042,187.457611125,r,1.0,0.4728440409999734,,,,,,sub-078,1,stroop_test,,
,,,,23.0,11.0,1.0,,,,,,,,,,,,,gelb,blue,b,0.0,b,1.0,0.4660036249999848,,,,,,,,,,1.0,11.0,23.0,9.0,187.468268875,,,,,,,,,,,,,,,,,187.4581885,187.556019625,188.34821575,188.339689209,,,,,,,,,,,,,,,,,,,,,,,,,,,,,,,,,,,188.340266042,188.34821575,188.34821575,188.818410834,b,1.0,0.4660036249999848,,,,,,sub-078,1,stroop_test,,
,,,,24.0,0.0,2.0,,,,,,,,,,,,,blau,red,r,0.0,g,0.0,0.3965526249999698,,,,,,,,,,2.0,0.0,24.0,4.0,188.828416959,,,,,,,,,,,,,,,,,188.819040417,188.916460667,189.712372417,189.700649417,,,,,,,,,,,,,,,,,,,,,,,,,,,,,,,,,,,189.705243875,189.712372417,189.712372417,190.118467709,g,0.0,0.3965526249999698,,,,,,sub-078,1,stroop_test,,
,,,,25.0,1.0,2.0,,,,,,,,,,,,,rot,red,r,1.0,r,1.0,0.6582370419999961,,,,,,,,,,2.0,1.0,25.0,1.0,190.128492875,,,,,,,,,,,,,,,,,190.11910875,190.216459667,191.012314875,191.000463875,,,,,,,,,,,,,,,,,,,,,,,,,,,,,,,,,,,191.004908209,191.012314875,191.012314875,191.67443295900003,r,1.0,0.6582370419999961,,,,,,sub-078,1,stroop_test,,
,,,,26.0,2.0,2.0,,,,,,,,,,,,,blau,blue,b,1.0,b,1.0,0.4729879999999866,,,,,,,,,,2.0,2.0,26.0,5.0,191.685093292,,,,,,,,,,,,,,,,,191.675021459,192.022443,192.817951625,192.80635250000003,,,,,,,,,,,,,,,,,,,,,,,,,,,,,,,,,,,192.809931084,192.817951625,192.817951625,193.301908417,b,1.0,0.4729879999999866,,,,,,sub-078,1,stroop_test,,
,,,,27.0,3.0,2.0,,,,,,,,,,,,,blau,yellow,g,0.0,g,1.0,0.6705926249999834,,,,,,,,,,2.0,3.0,27.0,7.0,193.31177179200003,,,,,,,,,,,,,,,,,193.302600042,193.399951625,194.191329334,194.183857917,,,,,,,,,,,,,,,,,,,,,,,,,,,,,,,,,,,194.184606459,194.191329334,194.191329334,194.868445792,g,1.0,0.6705926249999834,,,,,,sub-078,1,stroop_test,,
,,,,28.0,4.0,2.0,,,,,,,,,,,,,gelb,red,r,0.0,r,1.0,0.2998335839999981,,,,,,,,,,2.0,4.0,28.0,8.0,194.878487209,,,,,,,,,,,,,,,,,194.869097875,195.666422209,196.463123917,196.45031404200003,,,,,,,,,,,,,,,,,,,,,,,,,,,,,,,,,,,196.455858125,196.463123917,196.463123917,196.768212459,r,1.0,0.2998335839999981,,,,,,sub-078,1,stroop_test,,
,,,,29.0,5.0,2.0,,,,,,,,,,,,,gelb,yellow,g,1.0,g,1.0,0.5060462090000328,,,,,,,,,,2.0,5.0,29.0,11.0,196.777178917,,,,,,,,,,,,,,,,,196.768799584,197.566537417,198.357596709,198.35037125,,,,,,,,,,,,,,,,,,,,,,,,,,,,,,,,,,,198.350960625,198.357596709,198.357596709,198.868584209,g,1.0,0.5060462090000328,,,,,,sub-078,1,stroop_test,,
,,,,30.0,6.0,2.0,,,,,,,,,,,,,rot,blue,b,0.0,b,1.0,0.3576008750000028,,,,,,,,,,2.0,6.0,30.0,2.0,198.878444209,,,,,,,,,,,,,,,,,198.869288542,200.066439084,200.86140025,200.850379209,,,,,,,,,,,,,,,,,,,,,,,,,,,,,,,,,,,200.85412666700003,200.86140025,200.86140025,201.225027459,b,1.0,0.3576008750000028,,,,,,sub-078,1,stroop_test,,
,,,,31.0,7.0,2.0,,,,,,,,,,,,,rot,yellow,g,0.0,g,1.0,0.5098610420000114,,,,,,,,,,2.0,7.0,31.0,3.0,201.23516837500003,,,,,,,,,,,,,,,,,201.225591042,202.023328834,202.81484404200003,202.806489542,,,,,,,,,,,,,,,,,,,,,,,,,,,,,,,,,,,202.807072584,202.81484404200003,202.81484404200003,203.335080459,g,1.0,0.5098610420000114,,,,,,sub-078,1,stroop_test,,
,,,,32.0,8.0,2.0,,,,,,,,,,,,,gelb,yellow,g,1.0,g,1.0,0.4725435830000037,,,,,,,,,,2.0,8.0,32.0,10.0,203.344882459,,,,,,,,,,,,,,,,,203.335728917,203.683196792,204.477972334,204.467126875,,,,,,,,,,,,,,,,,,,,,,,,,,,,,,,,,,,204.470904417,204.477972334,204.477972334,204.96317741700005,g,1.0,0.4725435830000037,,,,,,sub-078,1,stroop_test,,
,,,,33.0,9.0,2.0,,,,,,,,,,,,,blau,blue,b,1.0,b,1.0,0.5742891250000071,,,,,,,,,,2.0,9.0,33.0,6.0,204.967318667,,,,,,,,,,,,,,,,,204.963589959,205.056141542,205.851258625,205.83979691700003,,,,,,,,,,,,,,,,,,,,,,,,,,,,,,,,,,,205.843464834,205.851258625,205.851258625,206.435099542,b,1.0,0.5742891250000071,,,,,,sub-078,1,stroop_test,,
,,,,34.0,10.0,2.0,,,,,,,,,,,,,gelb,blue,b,0.0,b,1.0,0.40085049999999,,,,,,,,,,2.0,10.0,34.0,9.0,206.444896375,,,,,,,,,,,,,,,,,206.435735875,206.53307225,207.328285834,207.31713425,,,,,,,,,,,,,,,,,,,,,,,,,,,,,,,,,,,207.32139016700003,207.328285834,207.328285834,207.735512917,b,1.0,0.40085049999999,,,,,,sub-078,1,stroop_test,,
,,,,35.0,11.0,2.0,,,,,,,,,,,,,rot,red,r,1.0,r,1.0,0.4313178749999906,,,,,,,,,,2.0,11.0,35.0,0.0,207.745579875,,,,,,,,,,,,,,,,,207.736259875,208.083226709,208.878861292,208.867255209,,,,,,,,,,,,,,,,,,,,,,,,,,,,,,,,,,,208.871580084,208.878861292,208.878861292,209.318325917,r,1.0,0.4313178749999906,,,,,,sub-078,1,stroop_test,,
,,,,36.0,0.0,3.0,,,,,,,,,,,,,rot,red,r,1.0,r,1.0,0.5469782920000057,,,,,,,,,,3.0,0.0,36.0,0.0,209.328084167,,,,,,,,,,,,,,,,,209.318984292,210.116453,210.907999709,210.900515542,,,,,,,,,,,,,,,,,,,,,,,,,,,,,,,,,,,210.90125300000005,210.907999709,210.907999709,211.45748245900003,r,1.0,0.5469782920000057,,,,,,sub-078,1,stroop_test,,
,,,,37.0,1.0,3.0,,,,,,,,,,,,,rot,red,r,1.0,g,0.0,0.3859640000000013,,,,,,,,,,3.0,1.0,37.0,1.0,211.46760570900005,,,,,,,,,,,,,,,,,211.458038292,212.656033167,213.44812750000003,213.439976209,,,,,,,,,,,,,,,,,,,,,,,,,,,,,,,,,,,213.44056425,213.44812750000003,213.44812750000003,213.847211584,g,0.0,0.3859640000000013,,,,,,sub-078,1,stroop_test,,
,,,,38.0,2.0,3.0,,,,,,,,,,,,,gelb,yellow,g,1.0,g,1.0,0.6338119580000239,,,,,,,,,,3.0,2.0,38.0,11.0,213.852338834,,,,,,,,,,,,,,,,,213.84771425,213.941034042,214.745922542,214.733677084,,,,,,,,,,,,,,,,,,,,,,,,,,,,,,,,,,,214.73886795900003,214.745922542,214.745922542,215.385167167,g,1.0,0.6338119580000239,,,,,,sub-078,1,stroop_test,,
,,,,39.0,3.0,3.0,,,,,,,,,,,,,blau,red,r,0.0,r,1.0,0.8218192500000328,,,,,,,,,,3.0,3.0,39.0,4.0,215.395544584,,,,,,,,,,,,,,,,,215.386009334,215.732947542,216.528817584,216.517205,,,,,,,,,,,,,,,,,,,,,,,,,,,,,,,,,,,216.521728667,216.528817584,216.528817584,217.357704167,r,1.0,0.8218192500000328,,,,,,sub-078,1,stroop_test,,
,,,,40.0,4.0,3.0,,,,,,,,,,,,,gelb,yellow,g,1.0,g,1.0,0.3866355000000112,,,,,,,,,,3.0,4.0,40.0,10.0,217.36766637500003,,,,,,,,,,,,,,,,,217.3583295,218.155850292,218.965915917,218.939244917,,,,,,,,,,,,,,,,,,,,,,,,,,,,,,,,,,,218.942821334,218.965915917,218.965915917,219.358215209,g,1.0,0.3866355000000112,,,,,,sub-078,1,stroop_test,,
,,,,41.0,5.0,3.0,,,,,,,,,,,,,blau,blue,b,1.0,b,1.0,0.3710745829999951,,,,,,,,,,3.0,5.0,41.0,5.0,219.367868334,,,,,,,,,,,,,,,,,219.358766209,220.556294334,221.362081084,221.35056445900003,,,,,,,,,,,,,,,,,,,,,,,,,,,,,,,,,,,221.355005542,221.362081084,221.362081084,221.736044917,b,1.0,0.3710745829999951,,,,,,sub-078,1,stroop_test,,
,,,,42.0,6.0,3.0,,,,,,,,,,,,,rot,yellow,g,0.0,g,1.0,0.471112957999992,,,,,,,,,,3.0,6.0,42.0,3.0,221.745985,,,,,,,,,,,,,,,,,221.736787667,222.933043042,223.728757584,223.717204167,,,,,,,,,,,,,,,,,,,,,,,,,,,,,,,,,,,223.721024167,223.728757584,223.728757584,224.202501167,g,1.0,0.471112957999992,,,,,,sub-078,1,stroop_test,,
,,,,43.0,7.0,3.0,,,,,,,,,,,,,gelb,red,r,0.0,r,1.0,0.3409943749999797,,,,,,,,,,3.0,7.0,43.0,8.0,224.21247508400003,,,,,,,,,,,,,,,,,224.203235125,224.999690167,225.794637042,225.78371208400003,,,,,,,,,,,,,,,,,,,,,,,,,,,,,,,,,,,225.787624292,225.794637042,225.794637042,226.140828292,r,1.0,0.3409943749999797,,,,,,sub-078,1,stroop_test,,
,,,,44.0,8.0,3.0,,,,,,,,,,,,,gelb,blue,b,0.0,b,1.0,0.4142729999999801,,,,,,,,,,3.0,8.0,44.0,9.0,226.151577292,,,,,,,,,,,,,,,,,226.141402625,227.33928975,228.131846959,228.122556125,,,,,,,,,,,,,,,,,,,,,,,,,,,,,,,,,,,228.12313150000003,228.131846959,228.131846959,228.55217137500003,b,1.0,0.4142729999999801,,,,,,sub-078,1,stroop_test,,
,,,,45.0,9.0,3.0,,,,,,,,,,,,,blau,yellow,g,0.0,g,1.0,0.3664397499999836,,,,,,,,,,3.0,9.0,45.0,7.0,228.562218917,,,,,,,,,,,,,,,,,228.552899417,229.349678042,230.145289125,230.133722875,,,,,,,,,,,,,,,,,,,,,,,,,,,,,,,,,,,230.138247334,230.145289125,230.145289125,230.51830166700003,g,1.0,0.3664397499999836,,,,,,sub-078,1,stroop_test,,
,,,,46.0,10.0,3.0,,,,,,,,,,,,,rot,blue,b,0.0,b,1.0,0.5081937080000216,,,,,,,,,,3.0,10.0,46.0,2.0,230.528271,,,,,,,,,,,,,,,,,230.518950417,231.316360959,232.11341825,232.100488292,,,,,,,,,,,,,,,,,,,,,,,,,,,,,,,,,,,232.10622925,232.11341825,232.11341825,232.624709834,b,1.0,0.5081937080000216,,,,,,sub-078,1,stroop_test,,
,,,,47.0,11.0,3.0,,,,,,,,,,,,,blau,blue,b,1.0,b,1.0,0.4324163750000025,,,,,,,,,,3.0,11.0,47.0,6.0,232.634724375,,,,,,,,,,,,,,,,,232.625265292,232.9724255,233.76774375,233.75646825,,,,,,,,,,,,,,,,,,,,,,,,,,,,,,,,,,,233.760075209,233.76774375,233.76774375,234.209914542,b,1.0,0.4324163750000025,,,,,,sub-078,1,stroop_test,,
,,,,48.0,0.0,4.0,,,,,,,,,,,,,rot,red,r,1.0,r,1.0,0.5668030840000142,,,,,,,,,,4.0,0.0,48.0,1.0,234.214753834,,,,,,,,,,,,,,,,,234.210269667,235.006540625,235.811693959,235.800425875,,,,,,,,,,,,,,,,,,,,,,,,,,,,,,,,,,,235.80421033400003,235.811693959,235.811693959,236.384909625,r,1.0,0.5668030840000142,,,,,,sub-078,1,stroop_test,,
,,,,49.0,1.0,4.0,,,,,,,,,,,,,blau,blue,b,1.0,b,1.0,0.4723633750000431,,,,,,,,,,4.0,1.0,49.0,6.0,236.39440062500003,,,,,,,,,,,,,,,,,236.3855165,237.583132709,238.37800845900003,238.367045,,,,,,,,,,,,,,,,,,,,,,,,,,,,,,,,,,,238.370841834,238.37800845900003,238.37800845900003,238.860446125,b,1.0,0.4723633750000431,,,,,,sub-078,1,stroop_test,,
,,,,50.0,2.0,4.0,,,,,,,,,,,,,gelb,blue,b,0.0,b,1.0,0.3836528749999957,,,,,,,,,,4.0,2.0,50.0,9.0,238.86437300000003,,,,,,,,,,,,,,,,,238.860786417,240.055981292,240.866477292,240.839024042,,,,,,,,,,,,,,,,,,,,,,,,,,,,,,,,,,,240.842642875,240.866477292,240.866477292,241.252710625,b,1.0,0.3836528749999957,,,,,,sub-078,1,stroop_test,,
,,,,51.0,3.0,4.0,,,,,,,,,,,,,rot,red,r,1.0,r,1.0,0.5423107089999917,,,,,,,,,,4.0,3.0,51.0,0.0,241.262455959,,,,,,,,,,,,,,,,,241.253345042,241.349389292,242.145264834,242.133735292,,,,,,,,,,,,,,,,,,,,,,,,,,,,,,,,,,,242.137744125,242.145264834,242.145264834,242.690701125,r,1.0,0.5423107089999917,,,,,,sub-078,1,stroop_test,,
,,,,52.0,4.0,4.0,,,,,,,,,,,,,rot,yellow,g,0.0,g,1.0,0.4803089160000127,,,,,,,,,,4.0,4.0,52.0,3.0,242.6991135,,,,,,,,,,,,,,,,,242.691179542,242.788797709,243.581483625,243.573109125,,,,,,,,,,,,,,,,,,,,,,,,,,,,,,,,,,,243.573679667,243.581483625,243.581483625,244.068175334,g,1.0,0.4803089160000127,,,,,,sub-078,1,stroop_test,,
,,,,53.0,5.0,4.0,,,,,,,,,,,,,blau,yellow,g,0.0,g,1.0,0.5716463750000003,,,,,,,,,,4.0,5.0,53.0,7.0,244.076512292,,,,,,,,,,,,,,,,,244.068751167,244.166261125,244.961884417,244.950542,,,,,,,,,,,,,,,,,,,,,,,,,,,,,,,,,,,244.954794584,244.961884417,244.961884417,245.545554792,g,1.0,0.5716463750000003,,,,,,sub-078,1,stroop_test,,
,,,,54.0,6.0,4.0,,,,,,,,,,,,,rot,blue,b,0.0,b,1.0,0.3448962499999766,,,,,,,,,,4.0,6.0,54.0,2.0,245.551332209,,,,,,,,,,,,,,,,,245.54599262500005,245.889138459,246.68488716700003,246.672414542,,,,,,,,,,,,,,,,,,,,,,,,,,,,,,,,,,,246.677049125,246.68488716700003,246.68488716700003,247.034903,b,1.0,0.3448962499999766,,,,,,sub-078,1,stroop_test,,
,,,,55.0,7.0,4.0,,,,,,,,,,,,,gelb,red,r,0.0,r,1.0,0.5106133330000375,,,,,,,,,,4.0,7.0,55.0,8.0,247.04307941700003,,,,,,,,,,,,,,,,,247.03542945900003,247.132925917,247.928986875,247.917309792,,,,,,,,,,,,,,,,,,,,,,,,,,,,,,,,,,,247.92194470900003,247.928986875,247.928986875,248.452040084,r,1.0,0.5106133330000375,,,,,,sub-078,1,stroop_test,,
,,,,56.0,8.0,4.0,,,,,,,,,,,,,gelb,yellow,g,1.0,g,1.0,0.4975865829999861,,,,,,,,,,4.0,8.0,56.0,10.0,248.466133042,,,,,,,,,,,,,,,,,248.452371334,248.549647167,249.34077516700003,249.333564,,,,,,,,,,,,,,,,,,,,,,,,,,,,,,,,,,,249.334179917,249.34077516700003,249.34077516700003,249.841397,g,1.0,0.4975865829999861,,,,,,sub-078,1,stroop_test,,
,,,,57.0,9.0,4.0,,,,,,,,,,,,,gelb,yellow,g,1.0,g,1.0,0.4160302500000057,,,,,,,,,,4.0,9.0,57.0,11.0,249.851349792,,,,,,,,,,,,,,,,,249.84192750000005,251.039630584,251.840881292,251.833572584,,,,,,,,,,,,,,,,,,,,,,,,,,,,,,,,,,,251.834193667,251.840881292,251.840881292,252.269115834,g,1.0,0.4160302500000057,,,,,,sub-078,1,stroop_test,,
,,,,58.0,10.0,4.0,,,,,,,,,,,,,blau,red,r,0.0,r,1.0,0.4132033340000021,,,,,,,,,,4.0,10.0,58.0,4.0,252.282918584,,,,,,,,,,,,,,,,,252.269507292,253.466397459,254.262331542,254.250725084,,,,,,,,,,,,,,,,,,,,,,,,,,,,,,,,,,,254.255396209,254.262331542,254.262331542,254.685142459,r,1.0,0.4132033340000021,,,,,,sub-078,1,stroop_test,,
,,,,59.0,11.0,4.0,,,,,,,,,,,,,blau,blue,b,1.0,g,0.0,0.4268134999999518,,,,,,,,,,4.0,11.0,59.0,5.0,254.69463920900003,,,,,,,,,,,,,,,,,254.685771917,254.783329292,255.573998834,255.566970542,,,,,,,,,,,,,,,,,,,,,,,,,,,,,,,,,,,255.567564334,255.573998834,255.573998834,256.008179209,g,0.0,0.4268134999999518,,,,,,sub-078,1,stroop_test,,
,,,,60.0,0.0,5.0,,,,,,,,,,,,,blau,yellow,g,0.0,g,1.0,0.6159834169999385,,,,,,,,,,5.0,0.0,60.0,7.0,256.01801691699995,,,,,,,,,,,,,,,,,256.00872479199995,256.105189292,256.898010709,256.88958225,,,,,,,,,,,,,,,,,,,,,,,,,,,,,,,,,,,256.890158792,256.898010709,256.898010709,257.51810783400003,g,1.0,0.6159834169999385,,,,,,sub-078,1,stroop_test,,
,,,,61.0,1.0,5.0,,,,,,,,,,,,,gelb,red,r,0.0,r,1.0,0.630655250000018,,,,,,,,,,5.0,1.0,61.0,8.0,257.527539417,,,,,,,,,,,,,,,,,257.51868954200006,257.616369042,258.41203675,258.400401792,,,,,,,,,,,,,,,,,,,,,,,,,,,,,,,,,,,258.404966792,258.41203675,258.41203675,259.051831917,r,1.0,0.630655250000018,,,,,,sub-078,1,stroop_test,,
,,,,62.0,2.0,5.0,,,,,,,,,,,,,rot,blue,b,0.0,b,1.0,0.32524183299995,,,,,,,,,,5.0,2.0,62.0,2.0,259.06139875,,,,,,,,,,,,,,,,,259.052502917,259.84960916700004,260.644758167,260.63358741700006,,,,,,,,,,,,,,,,,,,,,,,,,,,,,,,,,,,260.63741737500004,260.644758167,260.644758167,260.974827625,b,1.0,0.32524183299995,,,,,,sub-078,1,stroop_test,,
,,,,63.0,3.0,5.0,,,,,,,,,,,,,blau,red,r,0.0,r,1.0,0.3887033340000698,,,,,,,,,,5.0,3.0,63.0,4.0,260.985176292,,,,,,,,,,,,,,,,,260.975369709,261.77277741700004,262.578068834,262.56690445900006,,,,,,,,,,,,,,,,,,,,,,,,,,,,,,,,,,,262.57103775,262.578068834,262.578068834,262.96984895900005,r,1.0,0.3887033340000698,,,,,,sub-078,1,stroop_test,,
,,,,64.0,4.0,5.0,,,,,,,,,,,,,gelb,blue,b,0.0,g,0.0,0.5745544999999765,,,,,,,,,,5.0,4.0,64.0,9.0,262.97943795900005,,,,,,,,,,,,,,,,,262.97048175,263.06636645900005,263.863370209,263.85043804199995,,,,,,,,,,,,,,,,,,,,,,,,,,,,,,,,,,,263.85633058400003,263.863370209,263.863370209,264.44108937500005,g,0.0,0.5745544999999765,,,,,,sub-078,1,stroop_test,,
,,,,65.0,5.0,5.0,,,,,,,,,,,,,rot,red,r,1.0,r,1.0,0.5482681660000708,,,,,,,,,,5.0,5.0,65.0,0.0,264.45125429200004,,,,,,,,,,,,,,,,,264.441646625,264.7894815,265.584759084,265.573219,,,,,,,,,,,,,,,,,,,,,,,,,,,,,,,,,,,265.57681237500003,265.584759084,265.584759084,266.135667625,r,1.0,0.5482681660000708,,,,,,sub-078,1,stroop_test,,
,,,,66.0,6.0,5.0,,,,,,,,,,,,,blau,blue,b,1.0,b,1.0,0.5058942089999618,,,,,,,,,,5.0,6.0,66.0,5.0,266.145314125,,,,,,,,,,,,,,,,,266.13633704200004,266.93294204200004,267.728583875,267.71702133400004,,,,,,,,,,,,,,,,,,,,,,,,,,,,,,,,,,,267.72150550000003,267.728583875,267.728583875,268.2409305,b,1.0,0.5058942089999618,,,,,,sub-078,1,stroop_test,,
,,,,67.0,7.0,5.0,,,,,,,,,,,,,rot,red,r,1.0,r,1.0,0.5487349579999545,,,,,,,,,,5.0,7.0,67.0,1.0,268.251262292,,,,,,,,,,,,,,,,,268.241466125,269.43929545900005,270.234350375,270.222773209,,,,,,,,,,,,,,,,,,,,,,,,,,,,,,,,,,,270.226320417,270.234350375,270.234350375,270.786119959,r,1.0,0.5487349579999545,,,,,,sub-078,1,stroop_test,,
,,,,68.0,8.0,5.0,,,,,,,,,,,,,gelb,yellow,g,1.0,g,1.0,0.5248779160000367,,,,,,,,,,5.0,8.0,68.0,10.0,270.796738584,,,,,,,,,,,,,,,,,270.78689095900006,271.5830505,272.378008542,272.36689045900005,,,,,,,,,,,,,,,,,,,,,,,,,,,,,,,,,,,272.3708515,272.378008542,272.378008542,272.90764512500004,g,1.0,0.5248779160000367,,,,,,sub-078,1,stroop_test,,
,,,,69.0,9.0,5.0,,,,,,,,,,,,,blau,blue,b,1.0,b,1.0,0.6071678749999592,,,,,,,,,,5.0,9.0,69.0,6.0,272.917626875,,,,,,,,,,,,,,,,,272.908207375,273.25542425000003,274.05100875000005,274.039551834,,,,,,,,,,,,,,,,,,,,,,,,,,,,,,,,,,,274.043127875,274.05100875000005,274.05100875000005,274.6683375,b,1.0,0.6071678749999592,,,,,,sub-078,1,stroop_test,,
,,,,70.0,10.0,5.0,,,,,,,,,,,,,gelb,yellow,g,1.0,g,1.0,0.6817578339999955,,,,,,,,,,5.0,10.0,70.0,11.0,274.67815862500004,,,,,,,,,,,,,,,,,274.668995584,275.866300584,276.661742542,276.65036625000005,,,,,,,,,,,,,,,,,,,,,,,,,,,,,,,,,,,276.654820375,276.661742542,276.661742542,277.35174225000003,g,1.0,0.6817578339999955,,,,,,sub-078,1,stroop_test,,
,,,,71.0,11.0,5.0,,,,,,,,,,,,,rot,yellow,g,0.0,g,1.0,0.4328397079999604,,,,,,,,,,5.0,11.0,71.0,3.0,277.361642125,,,,,,,,,,,,,,,,,277.352397625,277.449226834,278.246685542,278.233680209,,,,,,,,,,,,,,,,,,,,,,,,,,,,,,,,,,,278.23950445900005,278.246685542,278.246685542,278.684918167,g,1.0,0.4328397079999604,,,,,,sub-078,1,stroop_test,,
,,,,72.0,0.0,6.0,,,,,,,,,,,,,blau,yellow,g,0.0,g,1.0,0.4211099160000913,,,,,,,,,,6.0,0.0,72.0,7.0,278.69497912500003,,,,,,,,,,,,,,,,,278.685700959,278.78290908400004,279.578753917,279.566933375,,,,,,,,,,,,,,,,,,,,,,,,,,,,,,,,,,,279.57158270900004,279.578753917,279.578753917,280.002344042,g,1.0,0.4211099160000913,,,,,,sub-078,1,stroop_test,,
,,,,73.0,1.0,6.0,,,,,,,,,,,,,gelb,red,r,0.0,r,1.0,0.5816162909999321,,,,,,,,,,6.0,1.0,73.0,8.0,280.0120795,,,,,,,,,,,,,,,,,280.00300741700005,280.349427959,281.145257209,281.133702792,,,,,,,,,,,,,,,,,,,,,,,,,,,,,,,,,,,281.13807866700006,281.145257209,281.145257209,281.734995167,r,1.0,0.5816162909999321,,,,,,sub-078,1,stroop_test,,
,,,,74.0,2.0,6.0,,,,,,,,,,,,,gelb,yellow,g,1.0,g,1.0,0.3921233329999722,,,,,,,,,,6.0,2.0,74.0,11.0,281.74462700000004,,,,,,,,,,,,,,,,,281.73561629200003,281.83286520900003,282.624830417,282.616952459,,,,,,,,,,,,,,,,,,,,,,,,,,,,,,,,,,,282.617717084,282.624830417,282.624830417,283.029226292,g,1.0,0.3921233329999722,,,,,,sub-078,1,stroop_test,,
,,,,75.0,3.0,6.0,,,,,,,,,,,,,rot,red,r,1.0,r,1.0,0.5401680000001079,,,,,,,,,,6.0,3.0,75.0,0.0,283.03421379200006,,,,,,,,,,,,,,,,,283.029684084,283.372580792,284.167832625,284.156227125,,,,,,,,,,,,,,,,,,,,,,,,,,,,,,,,,,,284.15977662499995,284.167832625,284.167832625,284.718319709,r,1.0,0.5401680000001079,,,,,,sub-078,1,stroop_test,,
,,,,76.0,4.0,6.0,,,,,,,,,,,,,rot,yellow,g,0.0,g,1.0,0.374999291999984,,,,,,,,,,6.0,4.0,76.0,3.0,284.728120917,,,,,,,,,,,,,,,,,284.71896879200006,285.0661875,285.857968125,285.850333834,,,,,,,,,,,,,,,,,,,,,,,,,,,,,,,,,,,285.851089584,285.857968125,285.857968125,286.235463125,g,1.0,0.374999291999984,,,,,,sub-078,1,stroop_test,,
,,,,77.0,5.0,6.0,,,,,,,,,,,,,blau,red,r,0.0,r,1.0,0.4400265420000551,,,,,,,,,,6.0,5.0,77.0,4.0,286.245444584,,,,,,,,,,,,,,,,,286.236139292,287.03294133400004,287.828540167,287.816980417,,,,,,,,,,,,,,,,,,,,,,,,,,,,,,,,,,,287.82142154200005,287.828540167,287.828540167,288.274336834,r,1.0,0.4400265420000551,,,,,,sub-078,1,stroop_test,,
,,,,78.0,6.0,6.0,,,,,,,,,,,,,blau,blue,b,1.0,b,1.0,0.4952603749999298,,,,,,,,,,6.0,6.0,78.0,6.0,288.28472458400006,,,,,,,,,,,,,,,,,288.274871167,288.372168042,289.164582959,289.15619825,,,,,,,,,,,,,,,,,,,,,,,,,,,,,,,,,,,289.156770792,289.164582959,289.164582959,289.66804512500005,b,1.0,0.4952603749999298,,,,,,sub-078,1,stroop_test,,
,,,,79.0,7.0,6.0,,,,,,,,,,,,,blau,blue,b,1.0,b,1.0,0.5619165840000733,,,,,,,,,,6.0,7.0,79.0,5.0,289.677695,,,,,,,,,,,,,,,,,289.668653584,289.76613191700005,290.558352959,290.55039775,,,,,,,,,,,,,,,,,,,,,,,,,,,,,,,,,,,290.551124709,290.558352959,290.558352959,291.12474799999995,b,1.0,0.5619165840000733,,,,,,sub-078,1,stroop_test,,
,,,,80.0,8.0,6.0,,,,,,,,,,,,,gelb,yellow,g,1.0,r,0.0,0.5222364579999521,,,,,,,,,,6.0,8.0,80.0,10.0,291.134827459,,,,,,,,,,,,,,,,,291.125280834,291.92254070900003,292.729193375,292.717321042,,,,,,,,,,,,,,,,,,,,,,,,,,,,,,,,,,,292.722073167,292.729193375,292.729193375,293.25759029200003,r,0.0,0.5222364579999521,,,,,,sub-078,1,stroop_test,,
,,,,81.0,9.0,6.0,,,,,,,,,,,,,gelb,blue,b,0.0,b,1.0,0.6189308750000464,,,,,,,,,,6.0,9.0,81.0,9.0,293.267683625,,,,,,,,,,,,,,,,,293.258137959,293.605563125,294.39797825000005,294.38938600000006,,,,,,,,,,,,,,,,,,,,,,,,,,,,,,,,,,,294.389979875,294.39797825000005,294.39797825000005,295.029145334,b,1.0,0.6189308750000464,,,,,,sub-078,1,stroop_test,,
,,,,82.0,10.0,6.0,,,,,,,,,,,,,rot,blue,b,0.0,b,1.0,1.190110875000073,,,,,,,,,,6.0,10.0,82.0,2.0,295.034208167,,,,,,,,,,,,,,,,,295.02959654200004,295.821695334,296.61801,296.606015875,,,,,,,,,,,,,,,,,,,,,,,,,,,,,,,,,,,296.610473084,296.61801,296.61801,297.818205209,b,1.0,1.190110875000073,,,,,,sub-078,1,stroop_test,,
,,,,83.0,11.0,6.0,,,,,,,,,,,,,rot,red,r,1.0,r,1.0,0.6304321249999703,,,,,,,,,,6.0,11.0,83.0,1.0,297.82805900000005,,,,,,,,,,,,,,,,,297.81880854200006,298.16617491700003,298.95783908400006,298.95036779199995,,,,,,,,,,,,,,,,,,,,,,,,,,,,,,,,,,,298.951072875,298.95783908400006,298.95783908400006,299.591535625,r,1.0,0.6304321249999703,,,,,,sub-078,1,stroop_test,,
,,,,84.0,0.0,7.0,,,,,,,,,,,,,blau,blue,b,1.0,b,1.0,0.651511916000004,,,,,,,,,,7.0,0.0,84.0,6.0,299.60172787500005,,,,,,,,,,,,,,,,,299.59210733400005,299.688527292,300.49908912499995,300.472447042,,,,,,,,,,,,,,,,,,,,,,,,,,,,,,,,,,,300.476065167,300.49908912499995,300.49908912499995,301.157904542,b,1.0,0.651511916000004,,,,,,sub-078,1,stroop_test,,
,,,,85.0,1.0,7.0,,,,,,,,,,,,,rot,blue,b,0.0,b,1.0,0.6030102080000006,,,,,,,,,,7.0,1.0,85.0,2.0,301.167774334,,,,,,,,,,,,,,,,,301.158485584,301.25439941700006,302.05136712500007,302.0397757090001,,,,,,,,,,,,,,,,,,,,,,,,,,,,,,,,,,,302.043372417,302.05136712500007,302.05136712500007,302.65699570900006,b,1.0,0.6030102080000006,,,,,,sub-078,1,stroop_test,,
,,,,86.0,2.0,7.0,,,,,,,,,,,,,gelb,blue,b,0.0,b,1.0,0.4168977089999544,,,,,,,,,,7.0,2.0,86.0,9.0,302.667596292,,,,,,,,,,,,,,,,,302.657539542,302.755125334,303.55083816700005,303.53940375,,,,,,,,,,,,,,,,,,,,,,,,,,,,,,,,,,,303.543006375,303.55083816700005,303.55083816700005,303.97398387500004,b,1.0,0.4168977089999544,,,,,,sub-078,1,stroop_test,,
,,,,87.0,3.0,7.0,,,,,,,,,,,,,rot,yellow,g,0.0,g,1.0,0.4791282919999275,,,,,,,,,,7.0,3.0,87.0,3.0,303.98446545900003,,,,,,,,,,,,,,,,,303.97454504200005,304.77162275,305.567460417,305.555976417,,,,,,,,,,,,,,,,,,,,,,,,,,,,,,,,,,,305.55945154200003,305.567460417,305.567460417,306.051344459,g,1.0,0.4791282919999275,,,,,,sub-078,1,stroop_test,,
,,,,88.0,4.0,7.0,,,,,,,,,,,,,blau,red,r,0.0,r,1.0,0.3592098750000332,,,,,,,,,,7.0,4.0,88.0,4.0,306.06137125,,,,,,,,,,,,,,,,,306.051938792,307.249444959,308.0448559590001,308.03351354200004,,,,,,,,,,,,,,,,,,,,,,,,,,,,,,,,,,,308.037813542,308.0448559590001,308.0448559590001,308.40723641700004,r,1.0,0.3592098750000332,,,,,,sub-078,1,stroop_test,,
,,,,89.0,5.0,7.0,,,,,,,,,,,,,blau,blue,b,1.0,b,1.0,0.437504874999945,,,,,,,,,,7.0,5.0,89.0,5.0,308.417795459,,,,,,,,,,,,,,,,,308.40778716700004,308.5044787500001,309.297906375,309.289297584,,,,,,,,,,,,,,,,,,,,,,,,,,,,,,,,,,,309.28986095900007,309.297906375,309.297906375,309.74092233400006,b,1.0,0.437504874999945,,,,,,sub-078,1,stroop_test,,
,,,,90.0,6.0,7.0,,,,,,,,,,,,,gelb,yellow,g,1.0,g,1.0,0.3508372500000405,,,,,,,,,,7.0,6.0,90.0,11.0,309.75072087500007,,,,,,,,,,,,,,,,,309.74145795900006,310.539726834,311.34646458400005,311.33346770900005,,,,,,,,,,,,,,,,,,,,,,,,,,,,,,,,,,,311.33955341700005,311.34646458400005,311.34646458400005,311.70136612500005,g,1.0,0.3508372500000405,,,,,,sub-078,1,stroop_test,,
,,,,91.0,7.0,7.0,,,,,,,,,,,,,blau,yellow,g,0.0,g,1.0,0.70955104199993,,,,,,,,,,7.0,7.0,91.0,7.0,311.71144270900004,,,,,,,,,,,,,,,,,311.701971209,312.049444625,312.84466420900003,312.833401459,,,,,,,,,,,,,,,,,,,,,,,,,,,,,,,,,,,312.8375517090001,312.84466420900003,312.84466420900003,313.5570411670001,g,1.0,0.70955104199993,,,,,,sub-078,1,stroop_test,,
,,,,92.0,8.0,7.0,,,,,,,,,,,,,rot,red,r,1.0,b,0.0,0.7157772499999737,,,,,,,,,,7.0,8.0,92.0,0.0,313.567567542,,,,,,,,,,,,,,,,,313.557573959,314.3549477920001,315.151246709,315.139606875,,,,,,,,,,,,,,,,,,,,,,,,,,,,,,,,,,,315.143202167,315.151246709,315.151246709,315.8738262090001,b,0.0,0.7157772499999737,,,,,,sub-078,1,stroop_test,,
,,,,93.0,9.0,7.0,,,,,,,,,,,,,rot,red,r,1.0,r,1.0,0.636802833000047,,,,,,,,,,7.0,9.0,93.0,1.0,315.884462709,,,,,,,,,,,,,,,,,315.8743836670001,315.971748875,316.76449208400004,316.75606200000004,,,,,,,,,,,,,,,,,,,,,,,,,,,,,,,,,,,316.75662045900003,316.76449208400004,316.76449208400004,317.4073107500001,r,1.0,0.636802833000047,,,,,,sub-078,1,stroop_test,,
,,,,94.0,10.0,7.0,,,,,,,,,,,,,gelb,red,r,0.0,r,1.0,0.6318120829999998,,,,,,,,,,7.0,10.0,94.0,8.0,317.417495334,,,,,,,,,,,,,,,,,317.407842459,318.60634675000006,319.40097979200004,319.38950816700003,,,,,,,,,,,,,,,,,,,,,,,,,,,,,,,,,,,319.3931160000001,319.40097979200004,319.40097979200004,320.035056792,r,1.0,0.6318120829999998,,,,,,sub-078,1,stroop_test,,
,,,,95.0,11.0,7.0,,,,,,,,,,,,,gelb,yellow,g,1.0,g,1.0,0.425063874999978,,,,,,,,,,7.0,11.0,95.0,10.0,320.045172375,,,,,,,,,,,,,,,,,320.035698917,321.23270620900007,322.024469834,322.01675691700007,,,,,,,,,,,,,,,,,,,,,,,,,,,,,,,,,,,322.0174885,322.024469834,322.024469834,322.452604459,g,1.0,0.425063874999978,,,,,,sub-078,1,stroop_test,,
,,,,96.0,0.0,8.0,,,,,,,,,,,,,gelb,yellow,g,1.0,g,1.0,0.3585789169999316,,,,,,,,,,8.0,0.0,96.0,11.0,322.46288741700005,,,,,,,,,,,,,,,,,322.45333641700006,322.549408375,323.34160758400003,323.333818875,,,,,,,,,,,,,,,,,,,,,,,,,,,,,,,,,,,323.334644959,323.34160758400003,323.34160758400003,323.71255187500003,g,1.0,0.3585789169999316,,,,,,sub-078,1,stroop_test,,
,,,,97.0,1.0,8.0,,,,,,,,,,,,,rot,red,r,1.0,r,1.0,0.5915771659999791,,,,,,,,,,8.0,1.0,97.0,1.0,323.7171415,,,,,,,,,,,,,,,,,323.71301770900004,323.80580966700006,324.601148125,324.58976700000005,,,,,,,,,,,,,,,,,,,,,,,,,,,,,,,,,,,324.59334858400007,324.601148125,324.601148125,325.201410042,r,1.0,0.5915771659999791,,,,,,sub-078,1,stroop_test,,
,,,,98.0,2.0,8.0,,,,,,,,,,,,,blau,blue,b,1.0,b,1.0,0.4137399999999616,,,,,,,,,,8.0,2.0,98.0,6.0,325.21115075,,,,,,,,,,,,,,,,,325.20202229200004,325.9995355,326.79429670900004,326.78322812500005,,,,,,,,,,,,,,,,,,,,,,,,,,,,,,,,,,,326.78711091700006,326.79429670900004,326.79429670900004,327.21806704200003,b,1.0,0.4137399999999616,,,,,,sub-078,1,stroop_test,,
,,,,99.0,3.0,8.0,,,,,,,,,,,,,gelb,red,r,0.0,r,1.0,0.4860917500000141,,,,,,,,,,8.0,3.0,99.0,8.0,327.22801308400005,,,,,,,,,,,,,,,,,327.218703,327.3161512500001,328.1137153750001,328.10043629200004,,,,,,,,,,,,,,,,,,,,,,,,,,,,,,,,,,,328.1065355420001,328.1137153750001,328.1137153750001,328.602778459,r,1.0,0.4860917500000141,,,,,,sub-078,1,stroop_test,,
,,,,100.0,4.0,8.0,,,,,,,,,,,,,gelb,blue,b,0.0,b,1.0,0.5872419999999465,,,,,,,,,,8.0,4.0,100.0,9.0,328.61293479200003,,,,,,,,,,,,,,,,,328.60346675000005,329.79930887500007,330.5912524170001,330.58366454200007,,,,,,,,,,,,,,,,,,,,,,,,,,,,,,,,,,,330.584421709,330.5912524170001,330.5912524170001,331.1847391250001,b,1.0,0.5872419999999465,,,,,,sub-078,1,stroop_test,,
,,,,101.0,5.0,8.0,,,,,,,,,,,,,blau,yellow,g,0.0,g,1.0,0.5061931670001059,,,,,,,,,,8.0,5.0,101.0,7.0,331.19475312500003,,,,,,,,,,,,,,,,,331.185345375,331.28273854200006,332.07839379200004,332.066774042,,,,,,,,,,,,,,,,,,,,,,,,,,,,,,,,,,,332.071274917,332.07839379200004,332.07839379200004,332.590718875,g,1.0,0.5061931670001059,,,,,,sub-078,1,stroop_test,,
,,,,102.0,6.0,8.0,,,,,,,,,,,,,blau,blue,b,1.0,b,1.0,0.5521309169999995,,,,,,,,,,8.0,6.0,102.0,5.0,332.60092591700004,,,,,,,,,,,,,,,,,332.59127141700003,332.938718709,333.731250917,333.72261237500004,,,,,,,,,,,,,,,,,,,,,,,,,,,,,,,,,,,333.7231937920001,333.731250917,333.731250917,334.2958600420001,b,1.0,0.5521309169999995,,,,,,sub-078,1,stroop_test,,
,,,,103.0,7.0,8.0,,,,,,,,,,,,,rot,red,r,1.0,r,1.0,0.5063003340000023,,,,,,,,,,8.0,7.0,103.0,0.0,334.3004789170001,,,,,,,,,,,,,,,,,334.29631770900005,334.63991091700007,335.44455300000004,335.43337733400006,,,,,,,,,,,,,,,,,,,,,,,,,,,,,,,,,,,335.43715591700004,335.44455300000004,335.44455300000004,335.957428542,r,1.0,0.5063003340000023,,,,,,sub-078,1,stroop_test,,
,,,,104.0,8.0,8.0,,,,,,,,,,,,,gelb,yellow,g,1.0,g,1.0,0.6295077080000056,,,,,,,,,,8.0,8.0,104.0,10.0,335.96805970900004,,,,,,,,,,,,,,,,,335.95797775000005,336.05489916700003,336.86567041700005,336.83921658400004,,,,,,,,,,,,,,,,,,,,,,,,,,,,,,,,,,,336.842716709,336.86567041700005,336.86567041700005,337.501566584,g,1.0,0.6295077080000056,,,,,,sub-078,1,stroop_test,,
,,,,105.0,9.0,8.0,,,,,,,,,,,,,blau,red,r,0.0,r,1.0,0.4411232909999398,,,,,,,,,,8.0,9.0,105.0,4.0,337.511464292,,,,,,,,,,,,,,,,,337.5022512500001,337.84949025000003,338.64519000000007,338.63360416700004,,,,,,,,,,,,,,,,,,,,,,,,,,,,,,,,,,,338.638138584,338.64519000000007,338.64519000000007,339.090398125,r,1.0,0.4411232909999398,,,,,,sub-078,1,stroop_test,,
,,,,106.0,10.0,8.0,,,,,,,,,,,,,rot,blue,b,0.0,b,1.0,0.5049192500000572,,,,,,,,,,8.0,10.0,106.0,2.0,339.1010805000001,,,,,,,,,,,,,,,,,339.09096416700004,340.2896628750001,341.095206209,341.08347275000006,,,,,,,,,,,,,,,,,,,,,,,,,,,,,,,,,,,341.08791129200006,341.095206209,341.095206209,341.61291641700006,b,1.0,0.5049192500000572,,,,,,sub-078,1,stroop_test,,
,,,,107.0,11.0,8.0,,,,,,,,,,,,,rot,yellow,g,0.0,g,1.0,0.7221365000000333,,,,,,,,,,8.0,11.0,107.0,3.0,341.61690454200004,,,,,,,,,,,,,,,,,341.613329667,342.805512334,343.59831054200004,343.5889560840001,,,,,,,,,,,,,,,,,,,,,,,,,,,,,,,,,,,343.5895320420001,343.59831054200004,343.59831054200004,344.324273834,g,1.0,0.7221365000000333,,,,,,sub-078,1,stroop_test,,
,,,,108.0,0.0,9.0,,,,,,,,,,,,,gelb,yellow,g,1.0,r,0.0,0.374931874999902,,,,,,,,,,9.0,0.0,108.0,11.0,344.334572792,,,,,,,,,,,,,,,,,344.324901459,344.6719306670001,345.468034792,345.456008709,,,,,,,,,,,,,,,,,,,,,,,,,,,,,,,,,,,345.46083491700006,345.468034792,345.468034792,345.851376792,r,0.0,0.374931874999902,,,,,,sub-078,1,stroop_test,,
,,,,109.0,1.0,9.0,,,,,,,,,,,,,gelb,red,r,0.0,r,1.0,0.3873600000000579,,,,,,,,,,9.0,1.0,109.0,8.0,345.86134783400007,,,,,,,,,,,,,,,,,345.8519875840001,346.649358709,347.44084858400004,347.4335625,,,,,,,,,,,,,,,,,,,,,,,,,,,,,,,,,,,347.434185125,347.44084858400004,347.44084858400004,347.834716125,r,1.0,0.3873600000000579,,,,,,sub-078,1,stroop_test,,
,,,,110.0,2.0,9.0,,,,,,,,,,,,,rot,red,r,1.0,r,1.0,0.5471503750000011,,,,,,,,,,9.0,2.0,110.0,0.0,347.844775917,,,,,,,,,,,,,,,,,347.83538216700003,347.932713542,348.7285655840001,348.71678662500005,,,,,,,,,,,,,,,,,,,,,,,,,,,,,,,,,,,348.721193459,348.7285655840001,348.7285655840001,349.28469800000005,r,1.0,0.5471503750000011,,,,,,sub-078,1,stroop_test,,
,,,,111.0,3.0,9.0,,,,,,,,,,,,,gelb,yellow,g,1.0,g,1.0,0.4664379999999255,,,,,,,,,,9.0,3.0,111.0,10.0,349.29470179200007,,,,,,,,,,,,,,,,,349.28534745900004,349.6327489590001,350.427536542,350.416671167,,,,,,,,,,,,,,,,,,,,,,,,,,,,,,,,,,,350.42046641700006,350.427536542,350.427536542,350.9013560420001,g,1.0,0.4664379999999255,,,,,,sub-078,1,stroop_test,,
,,,,112.0,4.0,9.0,,,,,,,,,,,,,blau,red,r,0.0,g,0.0,0.5214002500000561,,,,,,,,,,9.0,4.0,112.0,4.0,350.91130554200004,,,,,,,,,,,,,,,,,350.90198458400005,350.999265542,351.79491908400007,351.78363375000004,,,,,,,,,,,,,,,,,,,,,,,,,,,,,,,,,,,351.788026875,351.79491908400007,351.79491908400007,352.31909495900004,g,0.0,0.5214002500000561,,,,,,sub-078,1,stroop_test,,
,,,,113.0,5.0,9.0,,,,,,,,,,,,,blau,blue,b,1.0,b,1.0,0.5135915419999719,,,,,,,,,,9.0,5.0,113.0,5.0,352.32914633400003,,,,,,,,,,,,,,,,,352.3197710840001,353.5160605,354.3078531670001,354.3000925,,,,,,,,,,,,,,,,,,,,,,,,,,,,,,,,,,,354.3008540420001,354.3078531670001,354.3078531670001,354.82386762500005,b,1.0,0.5135915419999719,,,,,,sub-078,1,stroop_test,,
,,,,114.0,6.0,9.0,,,,,,,,,,,,,rot,yellow,g,0.0,g,1.0,0.6823385000000144,,,,,,,,,,9.0,6.0,114.0,3.0,354.83404462500005,,,,,,,,,,,,,,,,,354.8244124590001,354.9215834590001,355.717497084,355.70597154200004,,,,,,,,,,,,,,,,,,,,,,,,,,,,,,,,,,,355.70954875000007,355.717497084,355.717497084,356.4029085000001,g,1.0,0.6823385000000144,,,,,,sub-078,1,stroop_test,,
,,,,115.0,7.0,9.0,,,,,,,,,,,,,rot,red,r,1.0,r,1.0,0.505975583999998,,,,,,,,,,9.0,7.0,115.0,1.0,356.412857917,,,,,,,,,,,,,,,,,356.403587625,356.749359959,357.54110641700004,357.533422834,,,,,,,,,,,,,,,,,,,,,,,,,,,,,,,,,,,357.53418350000004,357.54110641700004,357.54110641700004,358.051279709,r,1.0,0.505975583999998,,,,,,sub-078,1,stroop_test,,
,,,,116.0,8.0,9.0,,,,,,,,,,,,,blau,blue,b,1.0,b,1.0,0.4549900420000767,,,,,,,,,,9.0,8.0,116.0,6.0,358.06113370900005,,,,,,,,,,,,,,,,,358.051881042,359.24929225000005,360.044245875,360.033220209,,,,,,,,,,,,,,,,,,,,,,,,,,,,,,,,,,,360.03706658400006,360.044245875,360.044245875,360.5014364590001,b,1.0,0.4549900420000767,,,,,,sub-078,1,stroop_test,,
,,,,117.0,9.0,9.0,,,,,,,,,,,,,blau,yellow,g,0.0,g,1.0,0.3818944170000122,,,,,,,,,,9.0,9.0,117.0,7.0,360.511378,,,,,,,,,,,,,,,,,360.502083875,361.29929945900005,362.09137275,362.0834950000001,,,,,,,,,,,,,,,,,,,,,,,,,,,,,,,,,,,362.084255834,362.09137275,362.09137275,362.4848883750001,g,1.0,0.3818944170000122,,,,,,sub-078,1,stroop_test,,
,,,,118.0,10.0,9.0,,,,,,,,,,,,,rot,blue,b,0.0,b,1.0,0.557366624999986,,,,,,,,,,9.0,10.0,118.0,2.0,362.494951667,,,,,,,,,,,,,,,,,362.4856025840001,362.832623667,363.6298435,363.6167031250001,,,,,,,,,,,,,,,,,,,,,,,,,,,,,,,,,,,363.622557209,363.6298435,363.6298435,364.1901955420001,b,1.0,0.557366624999986,,,,,,sub-078,1,stroop_test,,
,,,,119.0,11.0,9.0,,,,,,,,,,,,,gelb,blue,b,0.0,b,1.0,0.608947374999957,,,,,,,,,,9.0,11.0,119.0,9.0,364.200706792,,,,,,,,,,,,,,,,,364.190745125,364.5386768750001,365.3451227500001,365.333534084,,,,,,,,,,,,,,,,,,,,,,,,,,,,,,,,,,,365.33811920900007,365.3451227500001,365.3451227500001,365.95683075,b,1.0,0.608947374999957,,,,,,sub-078,1,stroop_test,,
,,,,,,,,,,,,,,,,,,,,,,,,,,,,,,,,,,,,,,,,,,,,,,,,,,,,,,,,,,,,,,,,,,,,,,,,,,,,,,,,,,,,,,,,,,,,,,,,,,,,,,365.95709158400007,365.9681511250001,370.965718959,370.9560868340001,sub-078,1,stroop_test,,
