wordCTK,colorCTK,corrAnsCTK,congruentCTK,thisN,thisTrialN,thisRepN,keyResp_CTK.keys,keyResp_CTK.corr,keyResp_CTK.rt,keyResp_CTK.duration,wordPractice,colorPractice,corrAnsPractice,congruentPractice,respPractice.keys,respPractice.corr,respPractice.rt,respPractice.duration,word,color,corrAns,congruent,keyResp_test_run.keys,keyResp_test_run.corr,keyResp_test_run.rt,keyResp_test_run.duration,trials_CTK.thisRepN,trials_CTK.thisTrialN,trials_CTK.thisN,trials_CTK.thisIndex,trials_practice.thisRepN,trials_practice.thisTrialN,trials_practice.thisN,trials_practice.thisIndex,trials_test.thisRepN,trials_test.thisTrialN,trials_test.thisN,trials_test.thisIndex,thisRow.t,notes,instruction.started,instr_text.started,instr_image.started,instr_resp.started,instruction.stopped,instr_resp.keys,instr_resp.rt,instr_resp.duration,instr_color_to_key.started,instr_ctk.started,resp_ctk.started,instr_color_to_key.stopped,resp_ctk.keys,resp_ctk.rt,resp_ctk.duration,ITI.started,fixcross.started,fixcross.stopped,ITI.stopped,color_to_key_run.started,stimulus_CTK.started,keyResp_CTK.started,color_to_key_run.stopped,trials_CTK.keyResp_CTK.keys,trials_CTK.keyResp_CTK.corr,trials_CTK.keyResp_CTK.rt,trials_CTK.keyResp_CTK.duration,instr_practice.started,instr_practice_text.started,instr_practice_resp.started,instr_practice.stopped,instr_practice_resp.keys,instr_practice_resp.rt,instr_practice_resp.duration,practice_run.started,stimulus_practice.started,respPractice.started,practice_run.stopped,trials_practice.respPractice.keys,trials_practice.respPractice.corr,trials_practice.respPractice.rt,trials_practice.respPractice.duration,feedback.started,textFeedback.started,feedback.stopped,textFeedback.stopped,instr_test.started,instr_test_text.started,instr_test_resp.started,instr_test.stopped,instr_test_resp.keys,instr_test_resp.rt,instr_test_resp.duration,test_run.started,stimulus_test_run.started,keyResp_test_run.started,test_run.stopped,trials_test.keyResp_test_run.keys,trials_test.keyResp_test_run.corr,trials_test.keyResp_test_run.rt,trials_test.keyResp_test_run.duration,goodbye.started,textGoodbye.started,textGoodbye.stopped,goodbye.stopped,participant,session,expName,frameRate,Unnamed: 113
,,,,,,,,,,,,,,,,,,,,,,,,,,,,,,,,,,,,,,,,,0.0131086660549044,0.0205829580081626,0.0205829580081626,0.0205829580081626,1.4137303330935538,space,1.387288250029087,,,,,,,,,,,,,,,,,,,,,,,,,,,,,,,,,,,,,,,,,,,,,,,,,,,,,,,,,,,sub-092,1,stroop_test,,
,,,,,,,,,,,,,,,,,,,,,,,,,,,,,,,,,,,,,,,,,,,,,,,,,1.4138170829974115,1.4261852910276502,1.4261852910276502,1.8883152500493448,space,0.437906541978009,,,,,,,,,,,,,,,,,,,,,,,,,,,,,,,,,,,,,,,,,,,,,,,,,,,,sub-092,1,stroop_test,,
test,yellow,g,1.0,0.0,0.0,0.0,g,1.0,,,,,,,,,,,,,,,,,,,0.0,0.0,0.0,1.0,,,,,,,,,1.907284458051436,,,,,,,,,,,,,,,,,1.9019302080851048,2.235308416071348,3.0378440000349656,3.024119207984768,3.030144958058372,3.0378440000349656,3.0378440000349656,3.1082085000816733,g,1.0,,,,,,,,,,,,,,,,,,,,,,,,,,,,,,,,,,,,,,,,,sub-092,1,stroop_test,,
test,blue,b,1.0,1.0,1.0,0.0,g,0.0,0.0873328750021755,,,,,,,,,,,,,,,,,,0.0,1.0,1.0,2.0,,,,,,,,,3.114970875089057,,,,,,,,,,,,,,,,,3.1086045000702143,3.2069399160100147,3.99807191605214,3.990688041085377,3.9912090830039233,3.99807191605214,3.99807191605214,4.091320916078985,g,0.0,0.0873328750021755,,,,,,,,,,,,,,,,,,,,,,,,,,,,,,,,,,,,,,,,sub-092,1,stroop_test,,
test,red,r,1.0,2.0,2.0,0.0,g,0.0,0.4059227079851553,,,,,,,,,,,,,,,,,,0.0,2.0,2.0,0.0,,,,,,,,,4.10000050009694,,,,,,,,,,,,,,,,,4.091732750064693,4.19035679101944,4.98666808300186,4.97505670809187,4.975800208048895,4.98666808300186,4.98666808300186,5.3980093750869855,g,0.0,0.4059227079851553,,,,,,,,,,,,,,,,,,,,,,,,,,,,,,,,,,,,,,,,sub-092,1,stroop_test,,
test,blue,b,1.0,3.0,0.0,1.0,b,1.0,0.052347999997437,,,,,,,,,,,,,,,,,,1.0,0.0,3.0,2.0,,,,,,,,,5.423151625087485,,,,,,,,,,,,,,,,,5.398511333041824,5.739200041047297,6.530661375029013,6.523596041020937,6.524122375063598,6.530661375029013,6.530661375029013,6.591219916008413,b,1.0,0.052347999997437,,,,,,,,,,,,,,,,,,,,,,,,,,,,,,,,,,,,,,,,sub-092,1,stroop_test,,
test,yellow,g,1.0,4.0,1.0,1.0,g,1.0,0.1029207920655608,,,,,,,,,,,,,,,,,,1.0,1.0,4.0,1.0,,,,,,,,,6.599935833015479,,,,,,,,,,,,,,,,,6.591600832995027,6.680752833024599,7.484654500032775,7.47378425009083,7.4744282910833135,7.484654500032775,7.484654500032775,7.5915820830268785,g,1.0,0.1029207920655608,,,,,,,,,,,,,,,,,,,,,,,,,,,,,,,,,,,,,,,,sub-092,1,stroop_test,,
test,red,r,1.0,5.0,2.0,1.0,b,0.0,0.0941507080569863,,,,,,,,,,,,,,,,,,1.0,2.0,5.0,0.0,,,,,,,,,7.60143858299125,,,,,,,,,,,,,,,,,7.591957000084221,7.689838833059184,8.487293250043876,8.475344750098884,8.476022541057318,8.487293250043876,8.487293250043876,8.583964625024237,b,0.0,0.0941507080569863,,,,,,,,,,,,,,,,,,,,,,,,,,,,,,,,,,,,,,,,sub-092,1,stroop_test,,
test,red,r,1.0,6.0,0.0,2.0,b,0.0,0.0023992080241441,,,,,,,,,,,,,,,,,,2.0,0.0,6.0,0.0,,,,,,,,,8.592940875096247,,,,,,,,,,,,,,,,,8.584346082992852,8.679274541093037,9.472834666026756,9.463548791012729,9.464137166040018,9.472834666026756,9.472834666026756,9.480000165989622,b,0.0,0.0023992080241441,,,,,,,,,,,,,,,,,,,,,,,,,,,,,,,,,,,,,,,,sub-092,1,stroop_test,,
test,yellow,g,1.0,7.0,1.0,2.0,b,0.0,0.1918774170335382,,,,,,,,,,,,,,,,,,2.0,1.0,7.0,1.0,,,,,,,,,9.48907654103823,,,,,,,,,,,,,,,,,9.480377790983766,9.578263583010994,10.372466500033624,10.36242925003171,10.362950499984436,10.372466500033624,10.372466500033624,10.575088541023431,b,0.0,0.1918774170335382,,,,,,,,,,,,,,,,,,,,,,,,,,,,,,,,,,,,,,,,sub-092,1,stroop_test,,
test,blue,b,1.0,8.0,2.0,2.0,r,0.0,0.0346722919493913,,,,,,,,,,,,,,,,,,2.0,2.0,8.0,2.0,,,,,,,,,10.58423512498848,,,,,,,,,,,,,,,,,10.575468583032489,10.92397595802322,11.7142096250318,11.70712849998381,11.707655708072709,11.7142096250318,11.7142096250318,11.758192875073291,r,0.0,0.0346722919493913,,,,,,,,,,,,,,,,,,,,,,,,,,,,,,,,,,,,,,,,sub-092,1,stroop_test,,
test,red,r,1.0,9.0,0.0,3.0,b,0.0,0.0308885839767754,,,,,,,,,,,,,,,,,,3.0,0.0,9.0,0.0,,,,,,,,,11.76593487500213,,,,,,,,,,,,,,,,,11.758497125003489,11.856821208028125,12.649025458027609,12.64129933307413,12.641941166017205,12.649025458027609,12.649025458027609,12.684697833028622,b,0.0,0.0308885839767754,,,,,,,,,,,,,,,,,,,,,,,,,,,,,,,,,,,,,,,,sub-092,1,stroop_test,,
test,blue,b,1.0,10.0,1.0,3.0,b,1.0,0.024609790998511,,,,,,,,,,,,,,,,,,3.0,1.0,10.0,2.0,,,,,,,,,12.696600541006774,,,,,,,,,,,,,,,,,12.685100208036602,13.479196625063196,14.272994458093308,14.26266333309468,14.263202041038312,14.272994458093308,14.272994458093308,14.30828520806972,b,1.0,0.024609790998511,,,,,,,,,,,,,,,,,,,,,,,,,,,,,,,,,,,,,,,,sub-092,1,stroop_test,,
test,yellow,g,1.0,11.0,2.0,3.0,r,0.0,0.0195714590372517,,,,,,,,,,,,,,,,,,3.0,2.0,11.0,1.0,,,,,,,,,14.317473125061952,,,,,,,,,,,,,,,,,14.308676375076177,15.5066925000865,16.298937916057184,16.290724333026446,16.29139029106591,16.298937916057184,16.298937916057184,16.325181041029282,r,0.0,0.0195714590372517,,,,,,,,,,,,,,,,,,,,,,,,,,,,,,,,,,,,,,,,sub-092,1,stroop_test,,
,,,,,,,,,,,,,,,,,,,,,,,,,,,,,,,,,,,,,,,,,,,,,,,,,,,,,,,,,,,,,,,,,,,,16.325354875065386,16.33769637509249,16.33769637509249,19.42567400005646,space,3.076510750106536,,,,,,,,,,,,,,,,,,,,,,,,,,,,,,,,,sub-092,1,stroop_test,,
,,,,0.0,0.0,0.0,,,,,blau,red,r,0.0,r,1.0,1.7448141250060871,,,,,,,,,,,,,,0.0,0.0,0.0,4.0,,,,,19.44725050008856,,,,,,,,,,,,,,,,,19.43880754103884,19.774334958055988,20.57294504099991,20.55782366602216,,,,,,,,,,,,,,,,20.56531516602263,20.57294504099991,20.57294504099991,22.32616520801093,r,1.0,1.7448141250060871,,22.33312879106961,22.34484587504994,23.330858000088483,,,,,,,,,,,,,,,,,,,,,sub-092,1,stroop_test,,
,,,,1.0,1.0,0.0,,,,,rot,yellow,g,0.0,r,0.0,0.0448561669327318,,,,,,,,,,,,,,0.0,1.0,1.0,3.0,,,,,23.34017787501216,,,,,,,,,,,,,,,,,23.33139733306598,24.12379033304751,24.92022537498269,24.908043375005946,,,,,,,,,,,,,,,,24.91265370801557,24.92022537498269,24.92022537498269,24.97537000000011,r,0.0,0.0448561669327318,,24.97937658301089,24.98921287502162,25.97437887499109,25.97962787502911,,,,,,,,,,,,,,,,,,,,sub-092,1,stroop_test,,
,,,,2.0,2.0,0.0,,,,,rot,red,r,1.0,g,0.0,0.0256994999945163,,,,,,,,,,,,,,0.0,2.0,2.0,1.0,,,,,25.97962787502911,,,,,,,,,,,,,,,,,25.97484762500972,26.773439250071533,27.56620512506925,27.55863979109563,,,,,,,,,,,,,,,,27.559282875037752,27.56620512506925,27.56620512506925,27.59765187499579,g,0.0,0.0256994999945163,,27.598224875051528,27.610461125033908,28.59751920809504,28.607018708018582,,,,,,,,,,,,,,,,,,,,sub-092,1,stroop_test,,
,,,,3.0,3.0,0.0,,,,,gelb,yellow,g,1.0,b,0.0,,,,,,,,,,,,,,,0.0,3.0,3.0,11.0,,,,,28.607018708018582,,,,,,,,,,,,,,,,,28.597989915986545,29.79658125003334,30.5905358750606,30.58021662500687,,,,,,,,,,,,,,,,30.583331291098148,30.5905358750606,30.5905358750606,30.66317179100588,b,0.0,,,30.663654166040946,30.67356562509667,31.657613791059703,31.66251458309125,,,,,,,,,,,,,,,,,,,,sub-092,1,stroop_test,,
,,,,4.0,4.0,0.0,,,,,blau,blue,b,1.0,b,1.0,,,,,,,,,,,,,,,0.0,4.0,4.0,6.0,,,,,31.66251458309125,,,,,,,,,,,,,,,,,31.658015500055622,32.45748566603288,33.25249679107219,33.24132216605358,,,,,,,,,,,,,,,,33.24510141601786,33.25249679107219,33.25249679107219,33.292209750041366,b,1.0,,,33.29524816607591,33.30327145801857,34.29175670805853,34.29665120807476,,,,,,,,,,,,,,,,,,,,sub-092,1,stroop_test,,
,,,,5.0,5.0,0.0,,,,,rot,blue,b,0.0,b,1.0,0.0091156249400228,,,,,,,,,,,,,,0.0,5.0,5.0,2.0,,,,,34.29665120807476,,,,,,,,,,,,,,,,,34.29212195798755,34.39134195807856,35.18522350001149,35.17473533307202,,,,,,,,,,,,,,,,35.17780825006776,35.18522350001149,35.18522350001149,35.20873929106165,b,1.0,0.0091156249400228,,35.20927108300384,35.22424450004473,36.20791087509133,36.21283225005027,,,,,,,,,,,,,,,,,,,,sub-092,1,stroop_test,,
,,,,6.0,6.0,0.0,,,,,gelb,yellow,g,1.0,r,0.0,0.0517534170066937,,,,,,,,,,,,,,0.0,6.0,6.0,10.0,,,,,36.21283225005027,,,,,,,,,,,,,,,,,36.20831541600637,36.30809687508736,37.10071137500927,37.0910846660845,,,,,,,,,,,,,,,,37.09376645798329,37.10071137500927,37.10071137500927,37.15862945804838,r,0.0,0.0517534170066937,,37.16156033298466,37.17119654105045,38.15879108302761,38.16473175003193,,,,,,,,,,,,,,,,,,,,sub-092,1,stroop_test,,
,,,,7.0,7.0,0.0,,,,,blau,blue,b,1.0,b,1.0,0.7714870410272852,,,,,,,,,,,,,,0.0,7.0,7.0,5.0,,,,,38.16473175003193,,,,,,,,,,,,,,,,,38.15925000002608,39.34698612499051,40.140828375006095,40.13004645798355,,,,,,,,,,,,,,,,40.133722083061,40.140828375006095,40.140828375006095,40.91499854100402,b,1.0,0.7714870410272852,,40.91863616602495,40.93102695804555,41.914280708064325,41.92456583306193,,,,,,,,,,,,,,,,,,,,sub-092,1,stroop_test,,
,,,,8.0,8.0,0.0,,,,,rot,red,r,1.0,r,1.0,0.567210957990028,,,,,,,,,,,,,,0.0,8.0,8.0,0.0,,,,,41.92456583306193,,,,,,,,,,,,,,,,,41.91479370801244,42.274933500099,43.07002283306792,43.05896008305717,,,,,,,,,,,,,,,,43.0627771250438,43.07002283306792,43.07002283306792,43.64316808304284,r,1.0,0.567210957990028,,43.64373741601594,43.65419520798605,44.64184979104903,44.64702091598883,,,,,,,,,,,,,,,,,,,,sub-092,1,stroop_test,,
,,,,9.0,9.0,0.0,,,,,blau,yellow,g,0.0,g,1.0,0.8231587499612942,,,,,,,,,,,,,,0.0,9.0,9.0,7.0,,,,,44.64702091598883,,,,,,,,,,,,,,,,,44.642311041010544,45.8420491249999,46.63644875003956,46.62528570799623,,,,,,,,,,,,,,,,46.62918854109012,46.63644875003956,46.63644875003956,47.465532916015945,g,1.0,0.8231587499612942,,47.46610241604503,47.47734045807738,48.46383737504948,48.475260208011605,,,,,,,,,,,,,,,,,,,,sub-092,1,stroop_test,,
,,,,10.0,10.0,0.0,,,,,gelb,red,r,0.0,r,1.0,0.6926286249654368,,,,,,,,,,,,,,0.0,10.0,10.0,8.0,,,,,48.475260208011605,,,,,,,,,,,,,,,,,48.46427254099399,48.81433404108975,49.61204783304129,49.59812845801935,,,,,,,,,,,,,,,,49.60285987507086,49.61204783304129,49.61204783304129,50.309870500001125,r,1.0,0.6926286249654368,,50.31043741607573,50.3210240410408,51.30912175006233,51.31495999998879,,,,,,,,,,,,,,,,,,,,sub-092,1,stroop_test,,
,,,,11.0,11.0,0.0,,,,,gelb,blue,b,0.0,g,0.0,0.8681417079642415,,,,,,,,,,,,,,0.0,11.0,11.0,9.0,,,,,51.31495999998879,,,,,,,,,,,,,,,,,51.30959275003988,52.51219354104251,53.30818570801057,53.29783412499819,,,,,,,,,,,,,,,,53.298495041090064,53.30818570801057,53.30818570801057,54.18226404103916,g,0.0,0.8681417079642415,,54.18587079108693,54.19760708301328,55.182486208039336,55.1912002080353,,,,,,,,,,,,,,,,,,,,sub-092,1,stroop_test,,
,,,,12.0,0.0,1.0,,,,,rot,yellow,g,0.0,b,0.0,0.9510481669567524,,,,,,,,,,,,,,1.0,0.0,12.0,3.0,,,,,55.1912002080353,,,,,,,,,,,,,,,,,55.1829674160108,55.28073254099581,56.075909250066616,56.06497958302498,,,,,,,,,,,,,,,,56.06844979105517,56.075909250066616,56.075909250066616,57.0323283750331,b,0.0,0.9510481669567524,,57.032896290998906,57.04497708298732,58.0309254580643,58.041712125064805,,,,,,,,,,,,,,,,,,,,sub-092,1,stroop_test,,
,,,,13.0,1.0,1.0,,,,,blau,blue,b,1.0,r,0.0,,,,,,,,,,,,,,,1.0,1.0,13.0,6.0,,,,,58.041712125064805,,,,,,,,,,,,,,,,,58.03134829108603,58.382597625022754,59.18601250008214,59.175583375035785,,,,,,,,,,,,,,,,59.17871900007594,59.18601250008214,59.18601250008214,59.22705937502906,r,0.0,,,59.22753925004508,59.23925595800392,60.2263158330461,60.235350291011855,,,,,,,,,,,,,,,,,,,,sub-092,1,stroop_test,,
,,,,14.0,2.0,1.0,,,,,rot,red,r,1.0,g,0.0,0.0943385410355404,,,,,,,,,,,,,,1.0,2.0,14.0,1.0,,,,,60.235350291011855,,,,,,,,,,,,,,,,,60.22669849998783,61.025684958091006,61.82475687505212,61.81339479109738,,,,,,,,,,,,,,,,61.81595566601027,61.82475687505212,61.82475687505212,61.92687175003812,g,0.0,0.0943385410355404,,61.92743570799939,61.93780045805033,62.9263014580356,62.931279791053385,,,,,,,,,,,,,,,,,,,,sub-092,1,stroop_test,,
,,,,15.0,3.0,1.0,,,,,gelb,yellow,g,1.0,b,0.0,0.0145261669531464,,,,,,,,,,,,,,1.0,3.0,15.0,10.0,,,,,62.931279791053385,,,,,,,,,,,,,,,,,62.92666341608856,63.7253150830511,64.52856945805252,64.515120041091,,,,,,,,,,,,,,,,64.51824108301662,64.52856945805252,64.52856945805252,64.55317700002342,b,0.0,0.0145261669531464,,64.55365954106674,64.57533133309335,65.55946675001178,,,,,,,,,,,,,,,,,,,,,sub-092,1,stroop_test,,
,,,,16.0,4.0,1.0,,,,,gelb,yellow,g,1.0,r,0.0,0.0605746250366792,,,,,,,,,,,,,,1.0,4.0,16.0,11.0,,,,,65.56840070802718,,,,,,,,,,,,,,,,,65.55991466599517,66.7467068330152,67.54983425000682,67.5425561250886,,,,,,,,,,,,,,,,67.54314441606402,67.54983425000682,67.54983425000682,67.61501470801886,r,0.0,0.0605746250366792,,67.61554595804773,67.62554383301176,68.6093933749944,68.61445100000128,,,,,,,,,,,,,,,,,,,,sub-092,1,stroop_test,,
,,,,17.0,5.0,1.0,,,,,blau,red,r,0.0,b,0.0,0.0103399159852415,,,,,,,,,,,,,,1.0,5.0,17.0,4.0,,,,,68.61445100000128,,,,,,,,,,,,,,,,,68.60987970803399,69.81348883302417,70.60816637508105,70.59788091608789,,,,,,,,,,,,,,,,70.60100829100702,70.60816637508105,70.60816637508105,70.62731879099738,b,0.0,0.0103399159852415,,70.62783375009894,70.6374447500566,71.62609270808753,71.63090562506113,,,,,,,,,,,,,,,,,,,,sub-092,1,stroop_test,,
,,,,18.0,6.0,1.0,,,,,gelb,blue,b,0.0,b,1.0,0.0756158330477774,,,,,,,,,,,,,,1.0,6.0,18.0,9.0,,,,,71.63090562506113,,,,,,,,,,,,,,,,,71.62640599999577,71.72596495808102,72.52553645800799,72.51317058305722,,,,,,,,,,,,,,,,72.51599491608795,72.52553645800799,72.52553645800799,72.61073770804796,b,1.0,0.0756158330477774,,72.61430579109583,72.62509066599887,73.60958720801864,73.61435000004712,,,,,,,,,,,,,,,,,,,,sub-092,1,stroop_test,,
,,,,19.0,7.0,1.0,,,,,blau,yellow,g,0.0,b,0.0,0.1198126249946653,,,,,,,,,,,,,,1.0,7.0,19.0,7.0,,,,,73.61435000004712,,,,,,,,,,,,,,,,,73.60996304103173,73.95929554104805,74.7568630410824,74.74328895809595,,,,,,,,,,,,,,,,74.74641154101118,74.7568630410824,74.7568630410824,74.88668945804238,b,0.0,0.1198126249946653,,74.89037725003436,74.8968031250406,75.88245116604958,75.8921084580943,,,,,,,,,,,,,,,,,,,,sub-092,1,stroop_test,,
,,,,20.0,8.0,1.0,,,,,rot,red,r,1.0,b,0.0,0.1065102090360596,,,,,,,,,,,,,,1.0,8.0,20.0,0.0,,,,,75.8921084580943,,,,,,,,,,,,,,,,,75.88281945802737,76.23041979107074,77.03869920806028,77.02716483303811,,,,,,,,,,,,,,,,77.03026458306704,77.03869920806028,77.03869920806028,77.14964575006161,b,0.0,0.1065102090360596,,77.15020274999551,77.1764516250696,78.15956320799887,,,,,,,,,,,,,,,,,,,,,sub-092,1,stroop_test,,
,,,,21.0,9.0,1.0,,,,,rot,blue,b,0.0,b,1.0,0.0390810420503839,,,,,,,,,,,,,,1.0,9.0,21.0,2.0,,,,,78.1644158330746,,,,,,,,,,,,,,,,,78.15994937508367,78.24830050009768,79.04268316598609,79.0315182080958,,,,,,,,,,,,,,,,79.03205804107711,79.04268316598609,79.04268316598609,79.09419675008394,b,1.0,0.0390810420503839,,79.09778787498362,79.10933420807123,80.09416916605551,80.10142225003801,,,,,,,,,,,,,,,,,,,,sub-092,1,stroop_test,,
,,,,22.0,10.0,1.0,,,,,blau,blue,b,1.0,b,1.0,0.0208042500307783,,,,,,,,,,,,,,1.0,10.0,22.0,5.0,,,,,80.10142225003801,,,,,,,,,,,,,,,,,80.09463041601703,80.44249079108704,81.23690666607581,81.22669704107102,,,,,,,,,,,,,,,,81.22980391606688,81.23690666607581,81.23690666607581,81.26437695801724,b,1.0,0.0208042500307783,,81.26485683303326,81.2754399580881,82.26396412507165,82.27645691600628,,,,,,,,,,,,,,,,,,,,sub-092,1,stroop_test,,
,,,,23.0,11.0,1.0,,,,,gelb,red,r,0.0,r,1.0,0.6506102919811383,,,,,,,,,,,,,,1.0,11.0,23.0,8.0,,,,,82.27645691600628,,,,,,,,,,,,,,,,,82.26432775007561,82.35931825009175,83.1555527910823,83.14403358299751,,,,,,,,,,,,,,,,83.14797591604292,83.1555527910823,83.1555527910823,83.81115437508561,r,1.0,0.6506102919811383,,83.81180200004019,83.82225395808928,84.81001862499397,84.8168785830494,,,,,,,,,,,,,,,,,,,,sub-092,1,stroop_test,,
,,,,,,,,,,,,,,,,,,,,,,,,,,,,,,,,,,,,,,,,,,,,,,,,,,,,,,,,,,,,,,,,,,,,,,,,,,,,,,,,,,,,,,,84.81023158307653,84.8168785830494,84.8168785830494,95.53384833305608,space,10.71128366701305,,,,,,,,,,,,,,sub-092,1,stroop_test,,
,,,,0.0,0.0,0.0,,,,,,,,,,,,,gelb,blue,b,0.0,b,1.0,0.999119915999472,,,,,,,,,,0.0,0.0,0.0,9.0,95.55668329098262,,,,,,,,,,,,,,,,,95.54797108308412,95.88248304103035,96.688481374993,96.6771150000859,,,,,,,,,,,,,,,,,,,,,,,,,,,,,,,,,,,96.6811170000583,96.688481374993,96.688481374993,97.69532941607758,b,1.0,0.999119915999472,,,,,,sub-092,1,stroop_test,,
,,,,1.0,1.0,0.0,,,,,,,,,,,,,gelb,yellow,g,1.0,g,1.0,1.1276536250952631,,,,,,,,,,0.0,1.0,1.0,10.0,97.70472074998544,,,,,,,,,,,,,,,,,97.6957725000102,98.04323033301624,98.83552795799916,98.827406458091,,,,,,,,,,,,,,,,,,,,,,,,,,,,,,,,,,,98.82809154107235,98.83552795799916,98.83552795799916,99.9671417500358,g,1.0,1.1276536250952631,,,,,,sub-092,1,stroop_test,,
,,,,2.0,2.0,0.0,,,,,,,,,,,,,blau,red,r,0.0,r,1.0,0.630278083961457,,,,,,,,,,0.0,2.0,2.0,4.0,99.97625412500928,,,,,,,,,,,,,,,,,99.96757016598713,100.06054958305322,100.85445850004908,100.84381991601548,,,,,,,,,,,,,,,,,,,,,,,,,,,,,,,,,,,100.84729920804966,100.85445850004908,100.85445850004908,101.4951500830939,r,1.0,0.630278083961457,,,,,,sub-092,1,stroop_test,,
,,,,3.0,3.0,0.0,,,,,,,,,,,,,blau,yellow,g,0.0,g,1.0,0.6825633749831468,,,,,,,,,,0.0,3.0,3.0,7.0,101.50450520799497,,,,,,,,,,,,,,,,,101.4955997080542,101.59426558308768,102.38553775008768,102.37785212509334,,,,,,,,,,,,,,,,,,,,,,,,,,,,,,,,,,,102.37851266609503,102.38553775008768,102.38553775008768,103.07863058301156,g,1.0,0.6825633749831468,,,,,,sub-092,1,stroop_test,,
,,,,4.0,4.0,0.0,,,,,,,,,,,,,blau,blue,b,1.0,b,1.0,0.5248313749907538,,,,,,,,,,0.0,4.0,4.0,5.0,103.0881588330958,,,,,,,,,,,,,,,,,103.0790660000639,103.17672529106494,103.97050191601738,103.96184908307625,,,,,,,,,,,,,,,,,,,,,,,,,,,,,,,,,,,103.96263920806814,103.97050191601738,103.97050191601738,104.50226233305877,b,1.0,0.5248313749907538,,,,,,sub-092,1,stroop_test,,
,,,,5.0,5.0,0.0,,,,,,,,,,,,,rot,red,r,1.0,r,1.0,0.3988570420769974,,,,,,,,,,0.0,5.0,5.0,0.0,104.51302054105328,,,,,,,,,,,,,,,,,104.50271045800764,104.6010544160381,105.4066979159834,105.39472625008784,,,,,,,,,,,,,,,,,,,,,,,,,,,,,,,,,,,105.39901475002988,105.4066979159834,105.4066979159834,105.81258762499785,r,1.0,0.3988570420769974,,,,,,sub-092,1,stroop_test,,
,,,,6.0,6.0,0.0,,,,,,,,,,,,,gelb,yellow,g,1.0,g,1.0,0.2987849588971585,,,,,,,,,,0.0,6.0,6.0,11.0,105.8218506249832,,,,,,,,,,,,,,,,,105.8130347080296,106.16035637503956,106.95621545799077,106.94413750001696,,,,,,,,,,,,,,,,,,,,,,,,,,,,,,,,,,,106.94863966607954,106.95621545799077,106.95621545799077,107.26309020805638,g,1.0,0.2987849588971585,,,,,,sub-092,1,stroop_test,,
,,,,7.0,7.0,0.0,,,,,,,,,,,,,rot,red,r,1.0,r,1.0,0.350616000010632,,,,,,,,,,0.0,7.0,7.0,1.0,107.27231354103424,,,,,,,,,,,,,,,,,107.26352670800406,107.35999429109506,108.1559982500039,108.14480754104444,,,,,,,,,,,,,,,,,,,,,,,,,,,,,,,,,,,108.14859004109168,108.1559982500039,108.1559982500039,108.51276425004473,r,1.0,0.350616000010632,,,,,,sub-092,1,stroop_test,,
,,,,8.0,8.0,0.0,,,,,,,,,,,,,blau,blue,b,1.0,b,1.0,0.4480685830349102,,,,,,,,,,0.0,8.0,8.0,6.0,108.52185158303472,,,,,,,,,,,,,,,,,108.5132063330384,108.8600497500738,109.65472212503664,109.64397733309306,,,,,,,,,,,,,,,,,,,,,,,,,,,,,,,,,,,109.64748145802878,109.65472212503664,109.65472212503664,110.11089170805644,b,1.0,0.4480685830349102,,,,,,sub-092,1,stroop_test,,
,,,,9.0,9.0,0.0,,,,,,,,,,,,,rot,yellow,g,0.0,g,1.0,0.9904887080192566,,,,,,,,,,0.0,9.0,9.0,3.0,110.11662804102524,,,,,,,,,,,,,,,,,110.11110141605604,110.44953099999113,111.2608505410608,111.23261908302084,,,,,,,,,,,,,,,,,,,,,,,,,,,,,,,,,,,111.23748895805328,111.2608505410608,111.2608505410608,112.26222645805684,g,1.0,0.9904887080192566,,,,,,sub-092,1,stroop_test,,
,,,,10.0,10.0,0.0,,,,,,,,,,,,,gelb,red,r,0.0,r,1.0,0.5006499589653686,,,,,,,,,,0.0,10.0,10.0,8.0,112.2715272080386,,,,,,,,,,,,,,,,,112.26268625003286,113.46029841608834,114.25600950000808,114.24504012509716,,,,,,,,,,,,,,,,,,,,,,,,,,,,,,,,,,,114.2487030409975,114.25600950000808,114.25600950000808,114.76303579099476,r,1.0,0.5006499589653686,,,,,,sub-092,1,stroop_test,,
,,,,11.0,11.0,0.0,,,,,,,,,,,,,rot,blue,b,0.0,b,1.0,0.4332369589246809,,,,,,,,,,0.0,11.0,11.0,2.0,114.77245104103348,,,,,,,,,,,,,,,,,114.76348958304152,115.56049850001,116.3565026660217,116.34514220803976,,,,,,,,,,,,,,,,,,,,,,,,,,,,,,,,,,,116.3489503330784,116.3565026660217,116.3565026660217,116.79588066600265,b,1.0,0.4332369589246809,,,,,,sub-092,1,stroop_test,,
,,,,12.0,0.0,1.0,,,,,,,,,,,,,blau,blue,b,1.0,b,1.0,0.6582869170233607,,,,,,,,,,1.0,0.0,12.0,5.0,116.80514204106294,,,,,,,,,,,,,,,,,116.79632958304136,117.994635708048,118.7890035409946,118.778427458019,,,,,,,,,,,,,,,,,,,,,,,,,,,,,,,,,,,118.78183733299376,118.7890035409946,118.7890035409946,119.45251187507527,b,1.0,0.6582869170233607,,,,,,sub-092,1,stroop_test,,
,,,,13.0,1.0,1.0,,,,,,,,,,,,,gelb,blue,b,0.0,b,1.0,0.5141763330902904,,,,,,,,,,1.0,1.0,13.0,9.0,119.47744020808022,,,,,,,,,,,,,,,,,119.45294379105326,120.65019745798782,121.4442152910633,121.43391687504482,,,,,,,,,,,,,,,,,,,,,,,,,,,,,,,,,,,121.43728016607928,121.4442152910633,121.4442152910633,121.96363491599914,b,1.0,0.5141763330902904,,,,,,sub-092,1,stroop_test,,
,,,,14.0,2.0,1.0,,,,,,,,,,,,,rot,yellow,g,0.0,g,1.0,0.4010158340679481,,,,,,,,,,1.0,2.0,14.0,3.0,121.97293925005944,,,,,,,,,,,,,,,,,121.96418912499212,123.16099970799404,123.95549112500156,123.94452741602436,,,,,,,,,,,,,,,,,,,,,,,,,,,,,,,,,,,123.94805591600016,123.95549112500156,123.95549112500156,124.36323804105632,g,1.0,0.4010158340679481,,,,,,sub-092,1,stroop_test,,
,,,,15.0,3.0,1.0,,,,,,,,,,,,,blau,blue,b,1.0,b,1.0,0.9576244580093772,,,,,,,,,,1.0,3.0,15.0,6.0,124.37248554104008,,,,,,,,,,,,,,,,,124.36368012509774,124.71153058309574,125.50577162508851,125.49479354103096,,,,,,,,,,,,,,,,,,,,,,,,,,,,,,,,,,,125.49861837504432,125.50577162508851,125.50577162508851,126.46810533304232,b,1.0,0.9576244580093772,,,,,,sub-092,1,stroop_test,,
,,,,16.0,4.0,1.0,,,,,,,,,,,,,gelb,yellow,g,1.0,g,1.0,0.3408121670363471,,,,,,,,,,1.0,4.0,16.0,11.0,126.47707670798992,,,,,,,,,,,,,,,,,126.46855791599955,126.5692636660533,127.37350487499498,127.36212462501136,,,,,,,,,,,,,,,,,,,,,,,,,,,,,,,,,,,127.36630049999803,127.37350487499498,127.37350487499498,127.71841887501068,g,1.0,0.3408121670363471,,,,,,sub-092,1,stroop_test,,
,,,,17.0,5.0,1.0,,,,,,,,,,,,,rot,blue,b,0.0,b,1.0,0.3481804999755695,,,,,,,,,,1.0,5.0,17.0,2.0,127.727485875017,,,,,,,,,,,,,,,,,127.71886483300476,128.06801658298355,128.87326404103078,128.86178470798768,,,,,,,,,,,,,,,,,,,,,,,,,,,,,,,,,,,128.86551937507463,128.87326404103078,128.87326404103078,129.2296135830693,b,1.0,0.3481804999755695,,,,,,sub-092,1,stroop_test,,
,,,,18.0,6.0,1.0,,,,,,,,,,,,,gelb,red,r,0.0,g,0.0,0.2453672090778127,,,,,,,,,,1.0,6.0,18.0,8.0,129.23903766600415,,,,,,,,,,,,,,,,,129.23015670804307,129.5780672080582,130.372742666048,130.36181945807766,,,,,,,,,,,,,,,,,,,,,,,,,,,,,,,,,,,130.36562420800328,130.372742666048,130.372742666048,130.62966941599734,g,0.0,0.2453672090778127,,,,,,sub-092,1,stroop_test,,
,,,,19.0,7.0,1.0,,,,,,,,,,,,,blau,yellow,g,0.0,g,1.0,0.6100825830362737,,,,,,,,,,1.0,7.0,19.0,7.0,130.63918233301956,,,,,,,,,,,,,,,,,130.6300992500037,130.7284755409928,131.52369645808358,131.51226491609123,,,,,,,,,,,,,,,,,,,,,,,,,,,,,,,,,,,131.51617891609203,131.52369645808358,131.52369645808358,132.13658991607372,g,1.0,0.6100825830362737,,,,,,sub-092,1,stroop_test,,
,,,,20.0,8.0,1.0,,,,,,,,,,,,,gelb,yellow,g,1.0,g,1.0,0.3184212499763816,,,,,,,,,,1.0,8.0,20.0,10.0,132.1615083750803,,,,,,,,,,,,,,,,,132.13703787501436,132.23421237501316,133.02762058307417,133.01706504100002,,,,,,,,,,,,,,,,,,,,,,,,,,,,,,,,,,,133.0206983750686,133.02762058307417,133.02762058307417,133.34906612499617,g,1.0,0.3184212499763816,,,,,,sub-092,1,stroop_test,,
,,,,21.0,9.0,1.0,,,,,,,,,,,,,rot,red,r,1.0,r,1.0,0.2924997500376776,,,,,,,,,,1.0,9.0,21.0,0.0,133.3587046250468,,,,,,,,,,,,,,,,,133.34964779100846,134.1447356250137,134.93950275005773,134.9285428749863,,,,,,,,,,,,,,,,,,,,,,,,,,,,,,,,,,,134.93202908302192,134.93950275005773,134.93950275005773,135.2357542080572,r,1.0,0.2924997500376776,,,,,,sub-092,1,stroop_test,,
,,,,22.0,10.0,1.0,,,,,,,,,,,,,rot,red,r,1.0,r,1.0,0.3184624590212479,,,,,,,,,,1.0,10.0,22.0,1.0,135.244933916023,,,,,,,,,,,,,,,,,135.23619916604366,136.43428854108788,137.22749908303376,137.21787933306769,,,,,,,,,,,,,,,,,,,,,,,,,,,,,,,,,,,137.21856975008268,137.22749908303376,137.22749908303376,137.55201750004198,r,1.0,0.3184624590212479,,,,,,sub-092,1,stroop_test,,
,,,,23.0,11.0,1.0,,,,,,,,,,,,,blau,red,r,0.0,r,1.0,1.075531292008236,,,,,,,,,,1.0,11.0,23.0,4.0,137.56113350007217,,,,,,,,,,,,,,,,,137.55244654102717,137.65232483309228,138.45676679105964,138.44585891603492,,,,,,,,,,,,,,,,,,,,,,,,,,,,,,,,,,,138.44953554100357,138.45676679105964,138.45676679105964,139.53598620800767,r,1.0,1.075531292008236,,,,,,sub-092,1,stroop_test,,
,,,,24.0,0.0,2.0,,,,,,,,,,,,,rot,red,r,1.0,r,1.0,0.6263207499869168,,,,,,,,,,2.0,0.0,24.0,1.0,139.54506054101512,,,,,,,,,,,,,,,,,139.53642608306836,140.3341988750035,141.1291207500035,141.11751650006045,,,,,,,,,,,,,,,,,,,,,,,,,,,,,,,,,,,141.12172699999064,141.1291207500035,141.1291207500035,141.76305675006006,r,1.0,0.6263207499869168,,,,,,sub-092,1,stroop_test,,
,,,,25.0,1.0,2.0,,,,,,,,,,,,,rot,blue,b,0.0,b,1.0,0.6700697080232203,,,,,,,,,,2.0,1.0,25.0,2.0,141.77237833302934,,,,,,,,,,,,,,,,,141.7634885830339,141.85108262498397,142.64438599999994,142.6345890830271,,,,,,,,,,,,,,,,,,,,,,,,,,,,,,,,,,,142.6352577500511,142.64438599999994,142.64438599999994,143.3196887500817,b,1.0,0.6700697080232203,,,,,,sub-092,1,stroop_test,,
,,,,26.0,2.0,2.0,,,,,,,,,,,,,gelb,yellow,g,1.0,g,1.0,0.4601213330170139,,,,,,,,,,2.0,2.0,26.0,11.0,143.3290899579879,,,,,,,,,,,,,,,,,143.32024954108056,144.11800379108172,144.91194233298302,144.90157308301423,,,,,,,,,,,,,,,,,,,,,,,,,,,,,,,,,,,144.90495458303485,144.91194233298302,144.91194233298302,145.38034466607496,g,1.0,0.4601213330170139,,,,,,sub-092,1,stroop_test,,
,,,,27.0,3.0,2.0,,,,,,,,,,,,,blau,blue,b,1.0,b,1.0,0.8049425829667598,,,,,,,,,,2.0,3.0,27.0,6.0,145.38960295799188,,,,,,,,,,,,,,,,,145.3808961660834,146.17858558299486,146.9747343750205,146.96256304101553,,,,,,,,,,,,,,,,,,,,,,,,,,,,,,,,,,,146.96721883304417,146.9747343750205,146.9747343750205,147.79180900007486,b,1.0,0.8049425829667598,,,,,,sub-092,1,stroop_test,,
,,,,28.0,4.0,2.0,,,,,,,,,,,,,blau,yellow,g,0.0,b,0.0,0.7221324170241132,,,,,,,,,,2.0,4.0,28.0,7.0,147.79851100000087,,,,,,,,,,,,,,,,,147.79228158306796,148.13478029100224,148.9285261250334,148.9182611660799,,,,,,,,,,,,,,,,,,,,,,,,,,,,,,,,,,,148.91891762509476,148.9285261250334,148.9285261250334,149.65350695804227,b,0.0,0.7221324170241132,,,,,,sub-092,1,stroop_test,,
,,,,29.0,5.0,2.0,,,,,,,,,,,,,blau,blue,b,1.0,b,1.0,0.5854002919513732,,,,,,,,,,2.0,5.0,29.0,5.0,149.67863341607153,,,,,,,,,,,,,,,,,149.65407762501854,150.00208037509583,150.79526545805857,150.7850679580588,,,,,,,,,,,,,,,,,,,,,,,,,,,,,,,,,,,150.7857630000217,150.79526545805857,150.79526545805857,151.38620891608298,b,1.0,0.5854002919513732,,,,,,sub-092,1,stroop_test,,
,,,,30.0,6.0,2.0,,,,,,,,,,,,,gelb,blue,b,0.0,b,1.0,0.4315915000624954,,,,,,,,,,2.0,6.0,30.0,9.0,151.3954241250176,,,,,,,,,,,,,,,,,151.3866430830676,152.58499345800374,153.38282858300954,153.36992354108952,,,,,,,,,,,,,,,,,,,,,,,,,,,,,,,,,,,153.37352925003506,153.38282858300954,153.38282858300954,153.82002262503374,b,1.0,0.4315915000624954,,,,,,sub-092,1,stroop_test,,
,,,,31.0,7.0,2.0,,,,,,,,,,,,,gelb,yellow,g,1.0,g,1.0,0.4145085000200197,,,,,,,,,,2.0,7.0,31.0,10.0,153.82904237508774,,,,,,,,,,,,,,,,,153.82045091607142,154.16915058309678,154.97119345807005,154.9627218330279,,,,,,,,,,,,,,,,,,,,,,,,,,,,,,,,,,,154.96344433305785,154.97119345807005,154.97119345807005,155.38812470808625,g,1.0,0.4145085000200197,,,,,,sub-092,1,stroop_test,,
,,,,32.0,8.0,2.0,,,,,,,,,,,,,rot,yellow,g,0.0,g,1.0,0.734246207983233,,,,,,,,,,2.0,8.0,32.0,3.0,155.39871575008146,,,,,,,,,,,,,,,,,155.38858345802873,155.73506470804568,156.529474375071,156.5186214580899,,,,,,,,,,,,,,,,,,,,,,,,,,,,,,,,,,,156.52196341601666,156.529474375071,156.529474375071,157.26961512502749,g,1.0,0.734246207983233,,,,,,sub-092,1,stroop_test,,
,,,,33.0,9.0,2.0,,,,,,,,,,,,,rot,red,r,1.0,r,1.0,0.5616929579991847,,,,,,,,,,2.0,9.0,33.0,0.0,157.27896012505516,,,,,,,,,,,,,,,,,157.27004283305723,157.37077245803084,158.1712365830317,158.16344354103785,,,,,,,,,,,,,,,,,,,,,,,,,,,,,,,,,,,158.16409887501504,158.1712365830317,158.1712365830317,158.7368084579939,r,1.0,0.5616929579991847,,,,,,sub-092,1,stroop_test,,
,,,,34.0,10.0,2.0,,,,,,,,,,,,,blau,red,r,0.0,r,1.0,0.9739365000277758,,,,,,,,,,2.0,10.0,34.0,4.0,158.74650391598698,,,,,,,,,,,,,,,,,158.7373443330871,159.085494708037,159.88263975002337,159.86900633305777,,,,,,,,,,,,,,,,,,,,,,,,,,,,,,,,,,,159.87321445799898,159.88263975002337,159.88263975002337,160.86421033309307,r,1.0,0.9739365000277758,,,,,,sub-092,1,stroop_test,,
,,,,35.0,11.0,2.0,,,,,,,,,,,,,gelb,red,r,0.0,r,1.0,0.6763469170546159,,,,,,,,,,2.0,11.0,35.0,8.0,160.8733281660825,,,,,,,,,,,,,,,,,160.86475204105955,161.2125293330755,162.00959095801227,161.9971915410133,,,,,,,,,,,,,,,,,,,,,,,,,,,,,,,,,,,162.00240387499798,162.00959095801227,162.00959095801227,162.68835195805875,r,1.0,0.6763469170546159,,,,,,sub-092,1,stroop_test,,
,,,,36.0,0.0,3.0,,,,,,,,,,,,,gelb,blue,b,0.0,b,1.0,0.6106125409714878,,,,,,,,,,3.0,0.0,36.0,9.0,162.6987778750481,,,,,,,,,,,,,,,,,162.6887907080818,163.48525683302432,164.2878015000606,164.2800390830962,,,,,,,,,,,,,,,,,,,,,,,,,,,,,,,,,,,164.28070070804097,164.2878015000606,164.2878015000606,164.90373641601764,b,1.0,0.6106125409714878,,,,,,sub-092,1,stroop_test,,
,,,,37.0,1.0,3.0,,,,,,,,,,,,,gelb,red,r,0.0,r,1.0,1.1610675419215113,,,,,,,,,,3.0,1.0,37.0,8.0,164.91270750004333,,,,,,,,,,,,,,,,,164.90416329109576,165.25294795806985,166.0552087080432,166.04725004103966,,,,,,,,,,,,,,,,,,,,,,,,,,,,,,,,,,,166.04786933306605,166.0552087080432,166.0552087080432,167.22072741598822,r,1.0,1.1610675419215113,,,,,,sub-092,1,stroop_test,,
,,,,38.0,2.0,3.0,,,,,,,,,,,,,rot,red,r,1.0,r,1.0,0.4426495420048013,,,,,,,,,,3.0,2.0,38.0,0.0,167.23018112499267,,,,,,,,,,,,,,,,,167.22114895808045,167.56907191604842,168.3752357910853,168.36395404103678,,,,,,,,,,,,,,,,,,,,,,,,,,,,,,,,,,,168.3677892080741,168.3752357910853,168.3752357910853,168.82061587506905,r,1.0,0.4426495420048013,,,,,,sub-092,1,stroop_test,,
,,,,39.0,3.0,3.0,,,,,,,,,,,,,rot,yellow,g,0.0,g,1.0,0.5571386660449207,,,,,,,,,,3.0,3.0,39.0,3.0,168.83021958300378,,,,,,,,,,,,,,,,,168.82105112506542,169.16873554105405,169.96226625004783,169.9524105830351,,,,,,,,,,,,,,,,,,,,,,,,,,,,,,,,,,,169.95306483306922,169.96226625004783,169.96226625004783,170.53108529106248,g,1.0,0.5571386660449207,,,,,,sub-092,1,stroop_test,,
,,,,40.0,4.0,3.0,,,,,,,,,,,,,gelb,yellow,g,1.0,g,1.0,1.444926582975313,,,,,,,,,,3.0,4.0,40.0,11.0,170.54002308298368,,,,,,,,,,,,,,,,,170.53151275007986,171.7296107080765,172.5249610830797,172.51336929108948,,,,,,,,,,,,,,,,,,,,,,,,,,,,,,,,,,,172.5176402500365,172.5249610830797,172.5249610830797,173.98171862505842,g,1.0,1.444926582975313,,,,,,sub-092,1,stroop_test,,
,,,,41.0,5.0,3.0,,,,,,,,,,,,,blau,blue,b,1.0,b,1.0,1.6098019590135664,,,,,,,,,,3.0,5.0,41.0,5.0,173.9910525410669,,,,,,,,,,,,,,,,,173.98218137503136,174.07960304105654,174.87625029101036,174.86456045799423,,,,,,,,,,,,,,,,,,,,,,,,,,,,,,,,,,,174.86865025002044,174.87625029101036,174.87625029101036,176.48857091600075,b,1.0,1.6098019590135664,,,,,,sub-092,1,stroop_test,,
,,,,42.0,6.0,3.0,,,,,,,,,,,,,blau,red,r,0.0,r,1.0,0.6689716250402853,,,,,,,,,,3.0,6.0,42.0,4.0,176.49955733306706,,,,,,,,,,,,,,,,,176.4890336249955,176.83569437509868,177.62904733303003,177.6208830830874,,,,,,,,,,,,,,,,,,,,,,,,,,,,,,,,,,,177.621557165985,177.62904733303003,177.62904733303003,178.30419087503105,r,1.0,0.6689716250402853,,,,,,sub-092,1,stroop_test,,
,,,,43.0,7.0,3.0,,,,,,,,,,,,,gelb,yellow,g,1.0,g,1.0,1.20054137497209,,,,,,,,,,3.0,7.0,43.0,10.0,178.31289804109838,,,,,,,,,,,,,,,,,178.30461987503804,178.65318016603123,179.45830845809542,179.44781250006054,,,,,,,,,,,,,,,,,,,,,,,,,,,,,,,,,,,179.45143374998588,179.45830845809542,179.45830845809542,180.66550304100383,g,1.0,1.20054137497209,,,,,,sub-092,1,stroop_test,,
,,,,44.0,8.0,3.0,,,,,,,,,,,,,rot,red,r,1.0,r,1.0,1.2463037500856444,,,,,,,,,,3.0,8.0,44.0,1.0,180.67488075001165,,,,,,,,,,,,,,,,,180.66595004103144,181.8632374580484,182.65941641607787,182.64759129099548,,,,,,,,,,,,,,,,,,,,,,,,,,,,,,,,,,,182.6518087910954,182.65941641607787,182.65941641607787,183.9153261249885,r,1.0,1.2463037500856444,,,,,,sub-092,1,stroop_test,,
,,,,45.0,9.0,3.0,,,,,,,,,,,,,rot,blue,b,0.0,b,1.0,1.477415957953781,,,,,,,,,,3.0,9.0,45.0,2.0,183.92443450004797,,,,,,,,,,,,,,,,,183.9157609579852,185.1132553750649,185.9057152500609,185.89789875003044,,,,,,,,,,,,,,,,,,,,,,,,,,,,,,,,,,,185.8985439580865,185.9057152500609,185.9057152500609,187.3884056659881,b,1.0,1.477415957953781,,,,,,sub-092,1,stroop_test,,
,,,,46.0,10.0,3.0,,,,,,,,,,,,,blau,yellow,g,0.0,g,1.0,0.9890034170821308,,,,,,,,,,3.0,10.0,46.0,7.0,187.4136102499906,,,,,,,,,,,,,,,,,187.3889502499951,187.48662575008348,188.29269616608508,188.28150558308695,,,,,,,,,,,,,,,,,,,,,,,,,,,,,,,,,,,188.28554108308165,188.29269616608508,188.29269616608508,189.28872058307752,g,1.0,0.9890034170821308,,,,,,sub-092,1,stroop_test,,
,,,,47.0,11.0,3.0,,,,,,,,,,,,,blau,blue,b,1.0,b,1.0,0.6827210841001943,,,,,,,,,,3.0,11.0,47.0,6.0,189.31361350009684,,,,,,,,,,,,,,,,,189.2891493330244,189.63714816607532,190.43949200003408,190.4310910410713,,,,,,,,,,,,,,,,,,,,,,,,,,,,,,,,,,,190.43179991608488,190.43949200003408,190.43949200003408,191.1322006250266,b,1.0,0.6827210841001943,,,,,,sub-092,1,stroop_test,,
,,,,48.0,0.0,4.0,,,,,,,,,,,,,rot,red,r,1.0,r,1.0,0.5751355839893222,,,,,,,,,,4.0,0.0,48.0,1.0,191.1417355830781,,,,,,,,,,,,,,,,,191.13266333309,191.2301173330052,192.02425504103303,192.01357000006828,,,,,,,,,,,,,,,,,,,,,,,,,,,,,,,,,,,192.0166562499944,192.02425504103303,192.02425504103303,192.60427662509028,r,1.0,0.5751355839893222,,,,,,sub-092,1,stroop_test,,
,,,,49.0,1.0,4.0,,,,,,,,,,,,,gelb,blue,b,0.0,b,1.0,1.4682347910711542,,,,,,,,,,4.0,1.0,49.0,9.0,192.61343800008763,,,,,,,,,,,,,,,,,192.6047175410204,192.9529177499935,193.74717483308632,193.7364717910532,,,,,,,,,,,,,,,,,,,,,,,,,,,,,,,,,,,193.7399742080597,193.74717483308632,193.74717483308632,195.22132379107643,b,1.0,1.4682347910711542,,,,,,sub-092,1,stroop_test,,
,,,,50.0,2.0,4.0,,,,,,,,,,,,,rot,red,r,1.0,r,1.0,0.7722772500710562,,,,,,,,,,4.0,2.0,50.0,0.0,195.23065975005736,,,,,,,,,,,,,,,,,195.22175291599703,195.5697064580163,196.36747066606767,196.3540997080272,,,,,,,,,,,,,,,,,,,,,,,,,,,,,,,,,,,196.35793566599023,196.36747066606767,196.36747066606767,197.1485103750601,r,1.0,0.7722772500710562,,,,,,sub-092,1,stroop_test,,
,,,,51.0,3.0,4.0,,,,,,,,,,,,,blau,yellow,g,0.0,g,1.0,0.4728974589379504,,,,,,,,,,4.0,3.0,51.0,7.0,197.1576012080768,,,,,,,,,,,,,,,,,197.14894983300476,198.33827691606712,199.14301558304575,199.13167979102585,,,,,,,,,,,,,,,,,,,,,,,,,,,,,,,,,,,199.13561145798303,199.14301558304575,199.14301558304575,199.6212632500101,g,1.0,0.4728974589379504,,,,,,sub-092,1,stroop_test,,
,,,,52.0,4.0,4.0,,,,,,,,,,,,,rot,yellow,g,0.0,r,0.0,0.5961491250200197,,,,,,,,,,4.0,4.0,52.0,3.0,199.63052700005937,,,,,,,,,,,,,,,,,199.6216898750281,200.82101449999027,201.63082337507512,201.60454966605172,,,,,,,,,,,,,,,,,,,,,,,,,,,,,,,,,,,201.60733579099175,201.63082337507512,201.63082337507512,202.23296208307147,r,0.0,0.5961491250200197,,,,,,sub-092,1,stroop_test,,
,,,,53.0,5.0,4.0,,,,,,,,,,,,,blau,red,r,0.0,r,1.0,0.5890515840146691,,,,,,,,,,4.0,5.0,53.0,4.0,202.24211904103868,,,,,,,,,,,,,,,,,202.23341529106256,203.4307352080941,204.2257484580623,204.21477154106836,,,,,,,,,,,,,,,,,,,,,,,,,,,,,,,,,,,204.2186300000176,204.2257484580623,204.2257484580623,204.82115487509876,r,1.0,0.5890515840146691,,,,,,sub-092,1,stroop_test,,
,,,,54.0,6.0,4.0,,,,,,,,,,,,,rot,blue,b,0.0,b,1.0,0.819602083065547,,,,,,,,,,4.0,6.0,54.0,2.0,204.8307516250061,,,,,,,,,,,,,,,,,204.8216994160321,205.62030704098288,206.43084145803005,206.4036683749873,,,,,,,,,,,,,,,,,,,,,,,,,,,,,,,,,,,206.40782366599888,206.43084145803005,206.43084145803005,207.25522250006907,b,1.0,0.819602083065547,,,,,,sub-092,1,stroop_test,,
,,,,55.0,7.0,4.0,,,,,,,,,,,,,gelb,yellow,g,1.0,g,1.0,1.5015930420486256,,,,,,,,,,4.0,7.0,55.0,10.0,207.2647872910602,,,,,,,,,,,,,,,,,207.25564766605385,207.6037656660192,208.3981828329852,208.38760279107373,,,,,,,,,,,,,,,,,,,,,,,,,,,,,,,,,,,208.3909836660605,208.3981828329852,208.3981828329852,209.9068603330525,g,1.0,1.5015930420486256,,,,,,sub-092,1,stroop_test,,
,,,,56.0,8.0,4.0,,,,,,,,,,,,,gelb,red,r,0.0,r,1.0,0.5755734590347856,,,,,,,,,,4.0,8.0,56.0,8.0,209.9176135000307,,,,,,,,,,,,,,,,,209.9073905830737,211.1049319159938,211.9076810410479,211.8993417910533,,,,,,,,,,,,,,,,,,,,,,,,,,,,,,,,,,,211.9001371250488,211.9076810410479,211.9076810410479,212.48881654103752,r,1.0,0.5755734590347856,,,,,,sub-092,1,stroop_test,,
,,,,57.0,9.0,4.0,,,,,,,,,,,,,blau,blue,b,1.0,b,1.0,1.2036852500168609,,,,,,,,,,4.0,9.0,57.0,6.0,212.49782279098872,,,,,,,,,,,,,,,,,212.48925558303017,213.2869749580277,214.08079725003336,214.07050279108807,,,,,,,,,,,,,,,,,,,,,,,,,,,,,,,,,,,214.07358450000172,214.08079725003336,214.08079725003336,215.28839320805852,b,1.0,1.2036852500168609,,,,,,sub-092,1,stroop_test,,
,,,,58.0,10.0,4.0,,,,,,,,,,,,,gelb,yellow,g,1.0,g,1.0,0.6003878329647705,,,,,,,,,,4.0,10.0,58.0,11.0,215.29748312500303,,,,,,,,,,,,,,,,,215.2888170410879,215.38892429100812,216.19297758303583,216.18205712502825,,,,,,,,,,,,,,,,,,,,,,,,,,,,,,,,,,,216.18586916604545,216.19297758303583,216.19297758303583,216.79966508306097,g,1.0,0.6003878329647705,,,,,,sub-092,1,stroop_test,,
,,,,59.0,11.0,4.0,,,,,,,,,,,,,blau,blue,b,1.0,b,1.0,0.558403291972354,,,,,,,,,,4.0,11.0,59.0,5.0,216.8084907500306,,,,,,,,,,,,,,,,,216.80009870801587,217.59800895804077,218.3944616250228,218.3822076250799,,,,,,,,,,,,,,,,,,,,,,,,,,,,,,,,,,,218.38693112507465,218.3944616250228,218.3944616250228,218.9554730000673,b,1.0,0.558403291972354,,,,,,sub-092,1,stroop_test,,
,,,,60.0,0.0,5.0,,,,,,,,,,,,,gelb,blue,b,0.0,b,1.0,1.2671088750939816,,,,,,,,,,5.0,0.0,60.0,9.0,218.9645380830625,,,,,,,,,,,,,,,,,218.9559008750366,219.3040267500328,220.09893404098693,220.0879919580184,,,,,,,,,,,,,,,,,,,,,,,,,,,,,,,,,,,220.09166129108053,220.09893404098693,220.09893404098693,221.37828475004065,b,1.0,1.2671088750939816,,,,,,sub-092,1,stroop_test,,
,,,,61.0,1.0,5.0,,,,,,,,,,,,,blau,blue,b,1.0,b,1.0,0.4307484580203891,,,,,,,,,,5.0,1.0,61.0,5.0,221.38446491607465,,,,,,,,,,,,,,,,,221.37873908306935,222.57164229103364,223.36514741601425,223.35461879102516,,,,,,,,,,,,,,,,,,,,,,,,,,,,,,,,,,,223.35808325000107,223.36514741601425,223.36514741601425,223.8004104580032,b,1.0,0.4307484580203891,,,,,,sub-092,1,stroop_test,,
,,,,62.0,2.0,5.0,,,,,,,,,,,,,blau,red,r,0.0,r,1.0,0.845046833041124,,,,,,,,,,5.0,2.0,62.0,4.0,223.8097098330036,,,,,,,,,,,,,,,,,223.8008654160658,224.9982708330499,225.7912110000616,225.7832448330009,,,,,,,,,,,,,,,,,,,,,,,,,,,,,,,,,,,225.7839585409965,225.7912110000616,225.7912110000616,226.63947537506465,r,1.0,0.845046833041124,,,,,,sub-092,1,stroop_test,,
,,,,63.0,3.0,5.0,,,,,,,,,,,,,blau,yellow,g,0.0,g,1.0,0.8973880000412464,,,,,,,,,,5.0,3.0,63.0,7.0,226.64871750003655,,,,,,,,,,,,,,,,,226.6399012079928,227.43882637505885,228.24021733307745,228.2322632910218,,,,,,,,,,,,,,,,,,,,,,,,,,,,,,,,,,,228.2329234160716,228.24021733307745,228.24021733307745,229.1503884580452,g,1.0,0.8973880000412464,,,,,,sub-092,1,stroop_test,,
,,,,64.0,4.0,5.0,,,,,,,,,,,,,rot,red,r,1.0,r,1.0,0.7627042499370873,,,,,,,,,,5.0,4.0,64.0,0.0,229.160171625088,,,,,,,,,,,,,,,,,229.15093270805664,229.4984894579975,230.29399170808028,230.28299087507185,,,,,,,,,,,,,,,,,,,,,,,,,,,,,,,,,,,230.28663774998856,230.29399170808028,230.29399170808028,231.06689954106696,r,1.0,0.7627042499370873,,,,,,sub-092,1,stroop_test,,
,,,,65.0,5.0,5.0,,,,,,,,,,,,,rot,yellow,g,0.0,r,0.0,0.7361706660594791,,,,,,,,,,5.0,5.0,65.0,3.0,231.07605283299927,,,,,,,,,,,,,,,,,231.06733141606676,232.26541766605808,233.05643166601655,233.0490938330768,,,,,,,,,,,,,,,,,,,,,,,,,,,,,,,,,,,233.04979258298408,233.05643166601655,233.05643166601655,233.800729416078,r,0.0,0.7361706660594791,,,,,,sub-092,1,stroop_test,,
,,,,66.0,6.0,5.0,,,,,,,,,,,,,gelb,red,r,0.0,r,1.0,0.8280724580399692,,,,,,,,,,5.0,6.0,66.0,8.0,233.81021566607524,,,,,,,,,,,,,,,,,233.80127158307005,234.1488005410647,234.94506250007544,234.9335437500849,,,,,,,,,,,,,,,,,,,,,,,,,,,,,,,,,,,234.9375752080232,234.94506250007544,234.94506250007544,235.7847173750633,r,1.0,0.8280724580399692,,,,,,sub-092,1,stroop_test,,
,,,,67.0,7.0,5.0,,,,,,,,,,,,,blau,blue,b,1.0,b,1.0,1.0810120420064775,,,,,,,,,,5.0,7.0,67.0,6.0,235.794481458026,,,,,,,,,,,,,,,,,235.78527854103595,236.13208429107908,236.9267413330963,236.9160289580468,,,,,,,,,,,,,,,,,,,,,,,,,,,,,,,,,,,236.9195310000796,236.9267413330963,236.9267413330963,238.01718141604212,b,1.0,1.0810120420064775,,,,,,sub-092,1,stroop_test,,
,,,,68.0,8.0,5.0,,,,,,,,,,,,,gelb,yellow,g,1.0,g,1.0,1.3754014170262965,,,,,,,,,,5.0,8.0,68.0,11.0,238.02645383309573,,,,,,,,,,,,,,,,,238.01760945806743,238.8155172910774,239.60987895808648,239.59959470806643,,,,,,,,,,,,,,,,,,,,,,,,,,,,,,,,,,,239.60306158300955,239.60987895808648,239.60987895808648,240.99139154108707,g,1.0,1.3754014170262965,,,,,,sub-092,1,stroop_test,,
,,,,69.0,9.0,5.0,,,,,,,,,,,,,gelb,yellow,g,1.0,g,1.0,2.472652665921487,,,,,,,,,,5.0,9.0,69.0,10.0,241.0018392080674,,,,,,,,,,,,,,,,,240.99185575009324,242.1884459999856,242.98171000008008,242.9724857500987,,,,,,,,,,,,,,,,,,,,,,,,,,,,,,,,,,,242.97319083299956,242.98171000008008,242.98171000008008,245.45715783303604,g,1.0,2.472652665921487,,,,,,sub-092,1,stroop_test,,
,,,,70.0,10.0,5.0,,,,,,,,,,,,,rot,blue,b,0.0,b,1.0,0.6854447500081733,,,,,,,,,,5.0,10.0,70.0,2.0,245.4666919159936,,,,,,,,,,,,,,,,,245.457587541081,246.25539712503087,247.0606884160079,247.04974608309567,,,,,,,,,,,,,,,,,,,,,,,,,,,,,,,,,,,247.0533218330238,247.0606884160079,247.0606884160079,247.75115775002632,b,1.0,0.6854447500081733,,,,,,sub-092,1,stroop_test,,
,,,,71.0,11.0,5.0,,,,,,,,,,,,,rot,red,r,1.0,r,1.0,0.5592310420470312,,,,,,,,,,5.0,11.0,71.0,1.0,247.7632424160838,,,,,,,,,,,,,,,,,247.7517236249987,248.0992323750397,248.8911304580979,248.8832328330027,,,,,,,,,,,,,,,,,,,,,,,,,,,,,,,,,,,248.88391491607763,248.8911304580979,248.8911304580979,249.45699700003024,r,1.0,0.5592310420470312,,,,,,sub-092,1,stroop_test,,
,,,,72.0,0.0,6.0,,,,,,,,,,,,,rot,blue,b,0.0,b,1.0,1.2517677909927445,,,,,,,,,,6.0,0.0,72.0,2.0,249.46634275000545,,,,,,,,,,,,,,,,,249.457514040987,249.8052805410698,250.5988244160544,250.5897722080117,,,,,,,,,,,,,,,,,,,,,,,,,,,,,,,,,,,250.5904522910714,250.5988244160544,250.5988244160544,251.8565781660145,b,1.0,1.2517677909927445,,,,,,sub-092,1,stroop_test,,
,,,,73.0,1.0,6.0,,,,,,,,,,,,,gelb,yellow,g,1.0,g,1.0,0.8600795830134302,,,,,,,,,,6.0,1.0,73.0,11.0,251.86552445800044,,,,,,,,,,,,,,,,,251.85703725006897,251.9490859160433,252.74512800003868,252.73378012503963,,,,,,,,,,,,,,,,,,,,,,,,,,,,,,,,,,,252.73831058305225,252.74512800003868,252.74512800003868,253.61756583303213,g,1.0,0.8600795830134302,,,,,,sub-092,1,stroop_test,,
,,,,74.0,2.0,6.0,,,,,,,,,,,,,rot,yellow,g,0.0,g,1.0,0.7934870419558138,,,,,,,,,,6.0,2.0,74.0,3.0,253.6225905410247,,,,,,,,,,,,,,,,,253.6180185830453,253.96601187507625,254.7615211660741,254.75024775008205,,,,,,,,,,,,,,,,,,,,,,,,,,,,,,,,,,,254.75406725006175,254.7615211660741,254.7615211660741,255.5574767080834,g,1.0,0.7934870419558138,,,,,,sub-092,1,stroop_test,,
,,,,75.0,3.0,6.0,,,,,,,,,,,,,blau,blue,b,1.0,b,1.0,0.618811042048037,,,,,,,,,,6.0,3.0,75.0,5.0,255.56673045805653,,,,,,,,,,,,,,,,,255.55790704104584,255.65608824999072,256.466356625082,256.4402831660118,,,,,,,,,,,,,,,,,,,,,,,,,,,,,,,,,,,256.4437422080664,256.466356625082,256.466356625082,257.0901239580708,b,1.0,0.618811042048037,,,,,,sub-092,1,stroop_test,,
,,,,76.0,4.0,6.0,,,,,,,,,,,,,gelb,yellow,g,1.0,g,1.0,0.434724333928898,,,,,,,,,,6.0,4.0,76.0,10.0,257.0990239160601,,,,,,,,,,,,,,,,,257.0905593750067,257.43900800007395,258.23282858298626,258.22213250002824,,,,,,,,,,,,,,,,,,,,,,,,,,,,,,,,,,,258.2257000410464,258.23282858298626,258.23282858298626,258.6792824580334,g,1.0,0.434724333928898,,,,,,sub-092,1,stroop_test,,
,,,,77.0,5.0,6.0,,,,,,,,,,,,,gelb,red,r,0.0,r,1.0,0.6327865000348538,,,,,,,,,,6.0,5.0,77.0,8.0,258.68539820809383,,,,,,,,,,,,,,,,,258.6797305000946,258.77302600000985,259.5744565000059,259.5668758749962,,,,,,,,,,,,,,,,,,,,,,,,,,,,,,,,,,,259.5675697500119,259.5744565000059,259.5744565000059,260.20976979099214,r,1.0,0.6327865000348538,,,,,,sub-092,1,stroop_test,,
,,,,78.0,6.0,6.0,,,,,,,,,,,,,gelb,blue,b,0.0,b,1.0,0.7850247919559479,,,,,,,,,,6.0,6.0,78.0,9.0,260.2200049579842,,,,,,,,,,,,,,,,,260.2103498750366,260.5557001660345,261.3491541660624,261.3409322500229,,,,,,,,,,,,,,,,,,,,,,,,,,,,,,,,,,,261.3416070000967,261.3491541660624,261.3491541660624,262.13660641608294,b,1.0,0.7850247919559479,,,,,,sub-092,1,stroop_test,,
,,,,79.0,7.0,6.0,,,,,,,,,,,,,blau,blue,b,1.0,b,1.0,0.4325010409811511,,,,,,,,,,6.0,7.0,79.0,6.0,262.1459182500839,,,,,,,,,,,,,,,,,262.13704970804974,262.23283629107755,263.02921137504745,263.0171384580899,,,,,,,,,,,,,,,,,,,,,,,,,,,,,,,,,,,263.02155195805244,263.02921137504745,263.02921137504745,263.46875108301174,b,1.0,0.4325010409811511,,,,,,sub-092,1,stroop_test,,
,,,,80.0,8.0,6.0,,,,,,,,,,,,,rot,red,r,1.0,r,1.0,0.5139863750664517,,,,,,,,,,6.0,8.0,80.0,1.0,263.4778495409992,,,,,,,,,,,,,,,,,263.46919170801993,263.56697141600307,264.3622693330981,264.35092312505003,,,,,,,,,,,,,,,,,,,,,,,,,,,,,,,,,,,264.3547435000073,264.3622693330981,264.3622693330981,264.8855182080297,r,1.0,0.5139863750664517,,,,,,sub-092,1,stroop_test,,
,,,,81.0,9.0,6.0,,,,,,,,,,,,,blau,red,r,0.0,r,1.0,1.252314709010534,,,,,,,,,,6.0,9.0,81.0,4.0,264.89504937501624,,,,,,,,,,,,,,,,,264.88607391598634,266.08339733304456,266.8784777499968,266.8671805000631,,,,,,,,,,,,,,,,,,,,,,,,,,,,,,,,,,,266.8712705409853,266.8784777499968,266.8784777499968,268.1362434580224,r,1.0,1.252314709010534,,,,,,sub-092,1,stroop_test,,
,,,,82.0,10.0,6.0,,,,,,,,,,,,,rot,red,r,1.0,r,1.0,0.4019526249030605,,,,,,,,,,6.0,10.0,82.0,0.0,268.1457888330333,,,,,,,,,,,,,,,,,268.13678825006355,268.23325808299705,269.0289377080044,269.017479541013,,,,,,,,,,,,,,,,,,,,,,,,,,,,,,,,,,,269.02130504103843,269.0289377080044,269.0289377080044,269.4352119159885,r,1.0,0.4019526249030605,,,,,,sub-092,1,stroop_test,,
,,,,83.0,11.0,6.0,,,,,,,,,,,,,blau,yellow,g,0.0,g,1.0,0.8289047909202054,,,,,,,,,,6.0,11.0,83.0,7.0,269.4446427500807,,,,,,,,,,,,,,,,,269.43571829108987,269.78356745804194,270.57999937504064,270.5678640000988,,,,,,,,,,,,,,,,,,,,,,,,,,,,,,,,,,,270.57228362502065,270.57999937504064,270.57999937504064,271.4194483330939,g,1.0,0.8289047909202054,,,,,,sub-092,1,stroop_test,,
,,,,84.0,0.0,7.0,,,,,,,,,,,,,gelb,yellow,g,1.0,g,1.0,0.6566562909865752,,,,,,,,,,7.0,0.0,84.0,10.0,271.4294511250919,,,,,,,,,,,,,,,,,271.4200315410272,272.61684487503953,273.4119539579842,273.4008038750617,,,,,,,,,,,,,,,,,,,,,,,,,,,,,,,,,,,273.40467791608535,273.4119539579842,273.4119539579842,274.0740333750145,g,1.0,0.6566562909865752,,,,,,sub-092,1,stroop_test,,
,,,,85.0,1.0,7.0,,,,,,,,,,,,,rot,yellow,g,0.0,r,0.0,0.5855725420406088,,,,,,,,,,7.0,1.0,85.0,3.0,274.08312504098285,,,,,,,,,,,,,,,,,274.074451875058,274.17302608303726,274.9669085830683,274.95605137501843,,,,,,,,,,,,,,,,,,,,,,,,,,,,,,,,,,,274.95976179104764,274.9669085830683,274.9669085830683,275.55725383304525,r,0.0,0.5855725420406088,,,,,,sub-092,1,stroop_test,,
,,,,86.0,2.0,7.0,,,,,,,,,,,,,blau,blue,b,1.0,b,1.0,0.4019729170249775,,,,,,,,,,7.0,2.0,86.0,5.0,275.56660158303566,,,,,,,,,,,,,,,,,275.557688791072,276.7565935410093,277.5510554580251,277.5402037079912,,,,,,,,,,,,,,,,,,,,,,,,,,,,,,,,,,,277.5438630410936,277.5510554580251,277.5510554580251,277.95763762504794,b,1.0,0.4019729170249775,,,,,,sub-092,1,stroop_test,,
,,,,87.0,3.0,7.0,,,,,,,,,,,,,rot,red,r,1.0,r,1.0,0.5174807090079412,,,,,,,,,,7.0,3.0,87.0,1.0,277.96697787509765,,,,,,,,,,,,,,,,,277.95807033299934,278.05692058301065,278.85123150004074,278.84012854099274,,,,,,,,,,,,,,,,,,,,,,,,,,,,,,,,,,,278.84373229101766,278.85123150004074,278.85123150004074,279.3761465410935,r,1.0,0.5174807090079412,,,,,,sub-092,1,stroop_test,,
,,,,88.0,4.0,7.0,,,,,,,,,,,,,rot,red,r,1.0,r,1.0,0.658430999959819,,,,,,,,,,7.0,4.0,88.0,0.0,279.3868568330072,,,,,,,,,,,,,,,,,279.37659341609105,280.5732325410936,281.36668937501963,281.3567926250398,,,,,,,,,,,,,,,,,,,,,,,,,,,,,,,,,,,281.3574627910275,281.36668937501963,281.36668937501963,282.0358923750464,r,1.0,0.658430999959819,,,,,,sub-092,1,stroop_test,,
,,,,89.0,5.0,7.0,,,,,,,,,,,,,blau,yellow,g,0.0,g,1.0,0.9271536669693888,,,,,,,,,,7.0,5.0,89.0,7.0,282.04525450000074,,,,,,,,,,,,,,,,,282.0363276660209,282.83402516599745,283.62975741608534,283.6179733329918,,,,,,,,,,,,,,,,,,,,,,,,,,,,,,,,,,,283.6226059580222,283.62975741608534,283.62975741608534,284.5596082500415,g,1.0,0.9271536669693888,,,,,,sub-092,1,stroop_test,,
,,,,90.0,6.0,7.0,,,,,,,,,,,,,gelb,blue,b,0.0,b,1.0,0.6680765829514712,,,,,,,,,,7.0,6.0,90.0,9.0,284.5706116660731,,,,,,,,,,,,,,,,,284.56005170801654,285.7583290410694,286.5622257500654,286.55140895803925,,,,,,,,,,,,,,,,,,,,,,,,,,,,,,,,,,,286.555139125092,286.5622257500654,286.5622257500654,287.2364902080735,b,1.0,0.6680765829514712,,,,,,sub-092,1,stroop_test,,
,,,,91.0,7.0,7.0,,,,,,,,,,,,,blau,blue,b,1.0,b,1.0,0.7891688749659806,,,,,,,,,,7.0,7.0,91.0,6.0,287.2453910410404,,,,,,,,,,,,,,,,,287.23693866608664,287.5843379159924,288.37954212503973,288.36833808303345,,,,,,,,,,,,,,,,,,,,,,,,,,,,,,,,,,,288.3723192079924,288.37954212503973,288.37954212503973,289.1812761659967,b,1.0,0.7891688749659806,,,,,,sub-092,1,stroop_test,,
,,,,92.0,8.0,7.0,,,,,,,,,,,,,rot,blue,b,0.0,b,1.0,0.4359249999979511,,,,,,,,,,7.0,8.0,92.0,2.0,289.18662345805205,,,,,,,,,,,,,,,,,289.18171237502247,289.973805500078,290.76803725003265,290.7568986660335,,,,,,,,,,,,,,,,,,,,,,,,,,,,,,,,,,,290.7605053749867,290.76803725003265,290.76803725003265,291.20813329098746,b,1.0,0.4359249999979511,,,,,,sub-092,1,stroop_test,,
,,,,93.0,9.0,7.0,,,,,,,,,,,,,gelb,red,r,0.0,r,1.0,0.7588476249948144,,,,,,,,,,7.0,9.0,93.0,8.0,291.2174284160137,,,,,,,,,,,,,,,,,291.2085701660253,291.5572256250307,292.3625158750219,292.3515913330484,,,,,,,,,,,,,,,,,,,,,,,,,,,,,,,,,,,292.3553464160068,292.3625158750219,292.3625158750219,293.12533704098314,r,1.0,0.7588476249948144,,,,,,sub-092,1,stroop_test,,
,,,,94.0,10.0,7.0,,,,,,,,,,,,,blau,red,r,0.0,r,1.0,0.6013391659362242,,,,,,,,,,7.0,10.0,94.0,4.0,293.1352192910854,,,,,,,,,,,,,,,,,293.12588675005827,293.2237903330242,294.0344260830898,294.0084495410556,,,,,,,,,,,,,,,,,,,,,,,,,,,,,,,,,,,294.01154941599816,294.0344260830898,294.0344260830898,294.64210816600826,r,1.0,0.6013391659362242,,,,,,sub-092,1,stroop_test,,
,,,,95.0,11.0,7.0,,,,,,,,,,,,,gelb,yellow,g,1.0,g,1.0,0.3921380409738049,,,,,,,,,,7.0,11.0,95.0,11.0,294.6516629999969,,,,,,,,,,,,,,,,,294.64266529108863,295.8402605410665,296.6340578750241,296.6236524580745,,,,,,,,,,,,,,,,,,,,,,,,,,,,,,,,,,,296.6269034580328,296.6340578750241,296.6340578750241,297.036743958015,g,1.0,0.3921380409738049,,,,,,sub-092,1,stroop_test,,
,,,,96.0,0.0,8.0,,,,,,,,,,,,,gelb,blue,b,0.0,b,1.0,0.5610427500214428,,,,,,,,,,8.0,0.0,96.0,9.0,297.0462802910479,,,,,,,,,,,,,,,,,297.0372772910632,297.1339619579958,297.9261780830566,297.9181837909855,,,,,,,,,,,,,,,,,,,,,,,,,,,,,,,,,,,297.91888883302454,297.9261780830566,297.9261780830566,298.49366358306725,b,1.0,0.5610427500214428,,,,,,sub-092,1,stroop_test,,
,,,,97.0,1.0,8.0,,,,,,,,,,,,,gelb,yellow,g,1.0,g,1.0,0.6538664579857141,,,,,,,,,,8.0,1.0,97.0,10.0,298.5043355830712,,,,,,,,,,,,,,,,,298.4942054160638,299.2907619579928,300.0843348330818,300.07373445807025,,,,,,,,,,,,,,,,,,,,,,,,,,,,,,,,,,,300.0744000830455,300.0843348330818,300.0843348330818,300.7419038329972,g,1.0,0.6538664579857141,,,,,,sub-092,1,stroop_test,,
,,,,98.0,2.0,8.0,,,,,,,,,,,,,rot,red,r,1.0,r,1.0,0.6236153329955414,,,,,,,,,,8.0,2.0,98.0,0.0,300.7511383750243,,,,,,,,,,,,,,,,,300.74233954108786,300.8420592910843,301.64797816600185,301.6358827910153,,,,,,,,,,,,,,,,,,,,,,,,,,,,,,,,,,,301.6403983749915,301.64797816600185,301.64797816600185,302.2755683329888,r,1.0,0.6236153329955414,,,,,,sub-092,1,stroop_test,,
,,,,99.0,3.0,8.0,,,,,,,,,,,,,gelb,yellow,g,1.0,g,1.0,0.5481735420180485,,,,,,,,,,8.0,3.0,99.0,11.0,302.28544079104904,,,,,,,,,,,,,,,,,302.27602029102854,302.37454379105475,303.1800044160336,303.16906612506136,,,,,,,,,,,,,,,,,,,,,,,,,,,,,,,,,,,303.17283208307344,303.1800044160336,303.1800044160336,303.7369960830547,g,1.0,0.5481735420180485,,,,,,sub-092,1,stroop_test,,
,,,,100.0,4.0,8.0,,,,,,,,,,,,,blau,blue,b,1.0,b,1.0,0.4555207500234246,,,,,,,,,,8.0,4.0,100.0,6.0,303.7466689160792,,,,,,,,,,,,,,,,,303.7375343750464,304.0847297910368,304.880538291065,304.86941233300604,,,,,,,,,,,,,,,,,,,,,,,,,,,,,,,,,,,304.8732642499963,304.880538291065,304.880538291065,305.3477460000431,b,1.0,0.4555207500234246,,,,,,sub-092,1,stroop_test,,
,,,,101.0,5.0,8.0,,,,,,,,,,,,,blau,yellow,g,0.0,b,0.0,0.5822865000227466,,,,,,,,,,8.0,5.0,101.0,7.0,305.3542240409879,,,,,,,,,,,,,,,,,305.34820633300114,305.6908101660665,306.49405295809265,306.486088457983,,,,,,,,,,,,,,,,,,,,,,,,,,,,,,,,,,,306.4867515830556,306.49405295809265,306.49405295809265,307.08732920803595,b,0.0,0.5822865000227466,,,,,,sub-092,1,stroop_test,,
,,,,102.0,6.0,8.0,,,,,,,,,,,,,gelb,red,r,0.0,r,1.0,0.5224477499723434,,,,,,,,,,8.0,6.0,102.0,8.0,307.0965480830055,,,,,,,,,,,,,,,,,307.08783050009515,307.8853337910259,308.68049129098654,308.6690998330014,,,,,,,,,,,,,,,,,,,,,,,,,,,,,,,,,,,308.67300087504555,308.68049129098654,308.68049129098654,309.2142705830047,r,1.0,0.5224477499723434,,,,,,sub-092,1,stroop_test,,
,,,,103.0,7.0,8.0,,,,,,,,,,,,,rot,blue,b,0.0,b,1.0,1.4384356669615954,,,,,,,,,,8.0,7.0,103.0,2.0,309.220897500054,,,,,,,,,,,,,,,,,309.21471208299045,310.00905645801686,310.8142632910749,310.802669833065,,,,,,,,,,,,,,,,,,,,,,,,,,,,,,,,,,,310.80655924999155,310.8142632910749,310.8142632910749,312.2552020410076,b,1.0,1.4384356669615954,,,,,,sub-092,1,stroop_test,,
,,,,104.0,8.0,8.0,,,,,,,,,,,,,rot,yellow,g,0.0,r,0.0,1.1994836250087246,,,,,,,,,,8.0,8.0,104.0,3.0,312.26450537506025,,,,,,,,,,,,,,,,,312.255656791036,312.3520435410319,313.14300829102285,313.1357462500455,,,,,,,,,,,,,,,,,,,,,,,,,,,,,,,,,,,313.13644341600593,313.14300829102285,313.14300829102285,314.3542641249951,r,0.0,1.1994836250087246,,,,,,sub-092,1,stroop_test,,
,,,,105.0,9.0,8.0,,,,,,,,,,,,,rot,red,r,1.0,r,1.0,0.8466016249731183,,,,,,,,,,8.0,9.0,105.0,1.0,314.36380400008056,,,,,,,,,,,,,,,,,314.3548179160571,315.15198762505315,315.94546670804266,315.9368254580768,,,,,,,,,,,,,,,,,,,,,,,,,,,,,,,,,,,315.93763987498824,315.94546670804266,315.94546670804266,316.7941849580966,r,1.0,0.8466016249731183,,,,,,sub-092,1,stroop_test,,
,,,,106.0,10.0,8.0,,,,,,,,,,,,,blau,blue,b,1.0,b,1.0,0.2762161669088527,,,,,,,,,,8.0,10.0,106.0,5.0,316.80491158308,,,,,,,,,,,,,,,,,316.79462354106363,317.59131258307025,318.3860046250047,318.3751627500169,,,,,,,,,,,,,,,,,,,,,,,,,,,,,,,,,,,318.37871004105546,318.3860046250047,318.3860046250047,318.6702691250248,b,1.0,0.2762161669088527,,,,,,sub-092,1,stroop_test,,
,,,,107.0,11.0,8.0,,,,,,,,,,,,,blau,red,r,0.0,r,1.0,0.6935055829817429,,,,,,,,,,8.0,11.0,107.0,4.0,318.67970045807306,,,,,,,,,,,,,,,,,318.6707000830211,319.8687553330092,320.66068170801736,320.65288612502627,,,,,,,,,,,,,,,,,,,,,,,,,,,,,,,,,,,320.6535396660911,320.66068170801736,320.66068170801736,321.3601101250388,r,1.0,0.6935055829817429,,,,,,sub-092,1,stroop_test,,
,,,,108.0,0.0,9.0,,,,,,,,,,,,,rot,yellow,g,0.0,g,1.0,1.5475285410648212,,,,,,,,,,9.0,0.0,108.0,3.0,321.36937154107727,,,,,,,,,,,,,,,,,321.3605585000478,321.70929137500934,322.51521900005173,322.50333633308765,,,,,,,,,,,,,,,,,,,,,,,,,,,,,,,,,,,322.50777075008955,322.51521900005173,322.51521900005173,324.0712135829963,g,1.0,1.5475285410648212,,,,,,sub-092,1,stroop_test,,
,,,,109.0,1.0,9.0,,,,,,,,,,,,,gelb,red,r,0.0,r,1.0,0.607133207959123,,,,,,,,,,9.0,1.0,109.0,8.0,324.08090004103724,,,,,,,,,,,,,,,,,324.07177770801354,325.2689559580758,326.06399008305743,326.0529999160208,,,,,,,,,,,,,,,,,,,,,,,,,,,,,,,,,,,326.05680200003553,326.06399008305743,326.06399008305743,326.67575191601645,r,1.0,0.607133207959123,,,,,,sub-092,1,stroop_test,,
,,,,110.0,2.0,9.0,,,,,,,,,,,,,blau,red,r,0.0,r,1.0,0.7291448749601841,,,,,,,,,,9.0,2.0,110.0,4.0,326.68497070809826,,,,,,,,,,,,,,,,,326.6761887500761,327.87520812498406,328.6858730830718,328.6593831659993,,,,,,,,,,,,,,,,,,,,,,,,,,,,,,,,,,,328.6631780830212,328.6858730830718,328.6858730830718,329.4221227080561,r,1.0,0.7291448749601841,,,,,,sub-092,1,stroop_test,,
,,,,111.0,3.0,9.0,,,,,,,,,,,,,blau,yellow,g,0.0,b,0.0,0.8331850829999894,,,,,,,,,,9.0,3.0,111.0,7.0,329.43150241603144,,,,,,,,,,,,,,,,,329.42260383302346,330.2197412500391,331.0112072500633,331.0036002080888,,,,,,,,,,,,,,,,,,,,,,,,,,,,,,,,,,,331.004239208065,331.0112072500633,331.0112072500633,331.8544208330568,b,0.0,0.8331850829999894,,,,,,sub-092,1,stroop_test,,
,,,,112.0,4.0,9.0,,,,,,,,,,,,,rot,blue,b,0.0,g,0.0,0.382910041953437,,,,,,,,,,9.0,4.0,112.0,2.0,331.86392762500327,,,,,,,,,,,,,,,,,331.8548489580862,332.2027997500263,332.996988833067,332.98651229101233,,,,,,,,,,,,,,,,,,,,,,,,,,,,,,,,,,,332.989754499984,332.996988833067,332.996988833067,333.38751720800065,g,0.0,0.382910041953437,,,,,,sub-092,1,stroop_test,,
,,,,113.0,5.0,9.0,,,,,,,,,,,,,gelb,blue,b,0.0,b,1.0,0.2733505419455468,,,,,,,,,,9.0,5.0,113.0,9.0,333.3969250000082,,,,,,,,,,,,,,,,,333.3879528749967,333.73596283304505,334.5309612080455,334.5203249580227,,,,,,,,,,,,,,,,,,,,,,,,,,,,,,,,,,,334.5236484580673,334.5309612080455,334.5309612080455,334.81000812503044,b,1.0,0.2733505419455468,,,,,,sub-092,1,stroop_test,,
,,,,114.0,6.0,9.0,,,,,,,,,,,,,blau,blue,b,1.0,b,1.0,0.5468737920746207,,,,,,,,,,9.0,6.0,114.0,5.0,334.8190723330481,,,,,,,,,,,,,,,,,334.8104288750328,334.91038295801263,335.71395179105457,335.703271000064,,,,,,,,,,,,,,,,,,,,,,,,,,,,,,,,,,,335.7067507080501,335.71395179105457,335.71395179105457,336.27122645801865,b,1.0,0.5468737920746207,,,,,,sub-092,1,stroop_test,,
,,,,115.0,7.0,9.0,,,,,,,,,,,,,gelb,yellow,g,1.0,g,1.0,0.5397907919250429,,,,,,,,,,9.0,7.0,115.0,10.0,336.2803835000377,,,,,,,,,,,,,,,,,336.271659916034,337.4694910000544,338.26471337501425,338.25331441604067,,,,,,,,,,,,,,,,,,,,,,,,,,,,,,,,,,,338.257168665994,338.26471337501425,338.26471337501425,338.8103677080944,g,1.0,0.5397907919250429,,,,,,sub-092,1,stroop_test,,
,,,,116.0,8.0,9.0,,,,,,,,,,,,,blau,blue,b,1.0,b,1.0,0.5177319579524919,,,,,,,,,,9.0,8.0,116.0,6.0,338.8197144160513,,,,,,,,,,,,,,,,,338.8107928329846,340.0099868749967,340.80716212501284,340.79390020808205,,,,,,,,,,,,,,,,,,,,,,,,,,,,,,,,,,,340.7989490830805,340.80716212501284,340.80716212501284,341.3273675000528,b,1.0,0.5177319579524919,,,,,,sub-092,1,stroop_test,,
,,,,117.0,9.0,9.0,,,,,,,,,,,,,rot,red,r,1.0,r,1.0,0.4912276660325005,,,,,,,,,,9.0,9.0,117.0,0.0,341.33642758300994,,,,,,,,,,,,,,,,,341.3278445830801,341.67579075007234,342.46953516604844,342.4587381250458,,,,,,,,,,,,,,,,,,,,,,,,,,,,,,,,,,,342.46224433300085,342.46953516604844,342.46953516604844,342.97162437508814,r,1.0,0.4912276660325005,,,,,,sub-092,1,stroop_test,,
,,,,118.0,10.0,9.0,,,,,,,,,,,,,rot,red,r,1.0,r,1.0,0.5331487910589203,,,,,,,,,,9.0,10.0,118.0,1.0,342.98094120807946,,,,,,,,,,,,,,,,,342.9720534160733,343.7697880410124,344.5621620829916,344.5539870830253,,,,,,,,,,,,,,,,,,,,,,,,,,,,,,,,,,,344.5546795410337,344.5621620829916,344.5621620829916,345.1060439160792,r,1.0,0.5331487910589203,,,,,,sub-092,1,stroop_test,,
,,,,119.0,11.0,9.0,,,,,,,,,,,,,gelb,yellow,g,1.0,g,1.0,0.5990445830393583,,,,,,,,,,9.0,11.0,119.0,11.0,345.11560550006106,,,,,,,,,,,,,,,,,345.1065926660085,346.30318962503225,347.09908325003926,347.08763170801103,,,,,,,,,,,,,,,,,,,,,,,,,,,,,,,,,,,347.0915942500578,347.09908325003926,347.09908325003926,347.70554862509016,g,1.0,0.5990445830393583,,,,,,sub-092,1,stroop_test,,
,,,,,,,,,,,,,,,,,,,,,,,,,,,,,,,,,,,,,,,,,,,,,,,,,,,,,,,,,,,,,,,,,,,,,,,,,,,,,,,,,,,,,,,,,,,,,,,,,,,,,,347.70582004101016,347.7163774580695,352.7103836660972,352.7049756660126,sub-092,1,stroop_test,,
