wordCTK,colorCTK,corrAnsCTK,congruentCTK,thisN,thisTrialN,thisRepN,keyResp_CTK.keys,keyResp_CTK.corr,keyResp_CTK.rt,keyResp_CTK.duration,wordPractice,colorPractice,corrAnsPractice,congruentPractice,respPractice.keys,respPractice.corr,respPractice.rt,respPractice.duration,word,color,corrAns,congruent,keyResp_test_run.keys,keyResp_test_run.corr,keyResp_test_run.rt,keyResp_test_run.duration,trials_CTK.thisRepN,trials_CTK.thisTrialN,trials_CTK.thisN,trials_CTK.thisIndex,trials_practice.thisRepN,trials_practice.thisTrialN,trials_practice.thisN,trials_practice.thisIndex,trials_test.thisRepN,trials_test.thisTrialN,trials_test.thisN,trials_test.thisIndex,thisRow.t,notes,instruction.started,instr_text.started,instr_image.started,instr_resp.started,instruction.stopped,instr_resp.keys,instr_resp.rt,instr_resp.duration,instr_color_to_key.started,instr_ctk.started,resp_ctk.started,instr_color_to_key.stopped,resp_ctk.keys,resp_ctk.rt,resp_ctk.duration,ITI.started,fixcross.started,fixcross.stopped,ITI.stopped,color_to_key_run.started,stimulus_CTK.started,keyResp_CTK.started,color_to_key_run.stopped,trials_CTK.keyResp_CTK.keys,trials_CTK.keyResp_CTK.corr,trials_CTK.keyResp_CTK.rt,trials_CTK.keyResp_CTK.duration,instr_practice.started,instr_practice_text.started,instr_practice_resp.started,instr_practice.stopped,instr_practice_resp.keys,instr_practice_resp.rt,instr_practice_resp.duration,practice_run.started,stimulus_practice.started,respPractice.started,practice_run.stopped,trials_practice.respPractice.keys,trials_practice.respPractice.corr,trials_practice.respPractice.rt,trials_practice.respPractice.duration,feedback.started,textFeedback.started,feedback.stopped,textFeedback.stopped,instr_test.started,instr_test_text.started,instr_test_resp.started,instr_test.stopped,instr_test_resp.keys,instr_test_resp.rt,instr_test_resp.duration,test_run.started,stimulus_test_run.started,keyResp_test_run.started,test_run.stopped,trials_test.keyResp_test_run.keys,trials_test.keyResp_test_run.corr,trials_test.keyResp_test_run.rt,trials_test.keyResp_test_run.duration,goodbye.started,textGoodbye.started,goodbye.stopped,participant,session,expName,frameRate,Unnamed: 112
,,,,,,,,,,,,,,,,,,,,,,,,,,,,,,,,,,,,,,,,,0.0026406999677419,0.0349958000006154,0.0349958000006154,0.0349958000006154,63.63081850006711,space,63.57649120001588,,,,,,,,,,,,,,,,,,,,,,,,,,,,,,,,,,,,,,,,,,,,,,,,,,,,,,,,,,sub-229,1,stroop_test,59.87281818095085,
,,,,,,,,,,,,,,,,,,,,,,,,,,,,,,,,,,,,,,,,,,,,,,,,,63.63088289997541,63.64008569996804,63.64008569996804,74.20157949998975,space,10.545332500012591,,,,,,,,,,,,,,,,,,,,,,,,,,,,,,,,,,,,,,,,,,,,,,,,,,,sub-229,1,stroop_test,59.87281818095085,
test,red,r,1.0,0.0,0.0,0.0,r,1.0,1.8938608000753447,,,,,,,,,,,,,,,,,,0.0,0.0,0.0,0.0,,,,,,,,,74.21663649997208,,,,,,,,,,,,,,,,,74.21299420006108,74.31669200002216,75.11620819999371,75.09997109998949,75.10417940001935,75.11620819999371,75.11620819999371,77.0163647000445,r,1.0,1.8938608000753447,,,,,,,,,,,,,,,,,,,,,,,,,,,,,,,,,,,,,,,sub-229,1,stroop_test,59.87281818095085,
test,yellow,g,1.0,1.0,1.0,0.0,g,1.0,1.4202535999938846,,,,,,,,,,,,,,,,,,0.0,1.0,1.0,1.0,,,,,,,,,77.03163850004785,,,,,,,,,,,,,,,,,77.01675010006875,77.83103840006515,78.63072620006278,78.61476100003347,78.61530090007,78.63072620006278,78.63072620006278,80.06362010003068,g,1.0,1.4202535999938846,,,,,,,,,,,,,,,,,,,,,,,,,,,,,,,,,,,,,,,sub-229,1,stroop_test,59.87281818095085,
test,blue,b,1.0,2.0,2.0,0.0,b,1.0,1.0636746999807656,,,,,,,,,,,,,,,,,,0.0,2.0,2.0,2.0,,,,,,,,,80.07970960007515,,,,,,,,,,,,,,,,,80.06378780002706,81.27906600001734,82.07839170005172,82.06253290001769,82.06305920006707,82.07839170005172,82.07839170005172,83.14594900002703,b,1.0,1.0636746999807656,,,,,,,,,,,,,,,,,,,,,,,,,,,,,,,,,,,,,,,sub-229,1,stroop_test,59.87281818095085,
test,yellow,g,1.0,3.0,0.0,1.0,g,1.0,1.4406081000342963,,,,,,,,,,,,,,,,,,1.0,0.0,3.0,1.0,,,,,,,,,83.16108880005777,,,,,,,,,,,,,,,,,83.1463312000269,83.51107130001765,84.31051890004892,84.29488900001161,84.29567550006323,84.31051890004892,84.31051890004892,85.76115250005387,g,1.0,1.4406081000342963,,,,,,,,,,,,,,,,,,,,,,,,,,,,,,,,,,,,,,,sub-229,1,stroop_test,59.87281818095085,
test,red,r,1.0,4.0,1.0,1.0,r,1.0,0.6395652999635786,,,,,,,,,,,,,,,,,,1.0,1.0,4.0,0.0,,,,,,,,,85.7762553000357,,,,,,,,,,,,,,,,,85.76154239999596,86.57595239998773,87.37528140004724,87.3590710000135,87.35932040004991,87.37528140004724,87.37528140004724,88.02584510005545,r,1.0,0.6395652999635786,,,,,,,,,,,,,,,,,,,,,,,,,,,,,,,,,,,,,,,sub-229,1,stroop_test,59.87281818095085,
test,blue,b,1.0,5.0,2.0,1.0,b,1.0,0.7380343000404537,,,,,,,,,,,,,,,,,,1.0,2.0,5.0,2.0,,,,,,,,,88.04151190002449,,,,,,,,,,,,,,,,,88.02613450004719,89.24092550005298,90.04026130004786,90.02416050003376,90.02451420004945,90.04026130004786,90.04026130004786,90.79109519999474,b,1.0,0.7380343000404537,,,,,,,,,,,,,,,,,,,,,,,,,,,,,,,,,,,,,,,sub-229,1,stroop_test,59.87281818095085,
test,red,r,1.0,6.0,0.0,2.0,r,1.0,1.0405016000149772,,,,,,,,,,,,,,,,,,2.0,0.0,6.0,0.0,,,,,,,,,90.80646110000087,,,,,,,,,,,,,,,,,90.79143159999512,92.00590500002728,92.80544530006593,92.78964249999262,92.79039039998317,92.80544530006593,92.80544530006593,93.85588669998106,r,1.0,1.0405016000149772,,,,,,,,,,,,,,,,,,,,,,,,,,,,,,,,,,,,,,,sub-229,1,stroop_test,59.87281818095085,
test,blue,b,1.0,7.0,1.0,2.0,b,1.0,1.3510466000298038,,,,,,,,,,,,,,,,,,2.0,1.0,7.0,2.0,,,,,,,,,93.87122169998474,,,,,,,,,,,,,,,,,93.85621320002248,95.0705645000562,95.87014730006922,95.85426910000388,95.8548548000399,95.87014730006922,95.87014730006922,97.2371007000329,b,1.0,1.3510466000298038,,,,,,,,,,,,,,,,,,,,,,,,,,,,,,,,,,,,,,,sub-229,1,stroop_test,59.87281818095085,
test,yellow,g,1.0,8.0,2.0,2.0,g,1.0,0.9421413999516516,,,,,,,,,,,,,,,,,,2.0,2.0,8.0,1.0,,,,,,,,,97.25248879997524,,,,,,,,,,,,,,,,,97.23742859996857,98.45180000003892,99.25147810007913,99.2355755000608,99.2361764999805,99.25147810007913,99.25147810007913,100.20182169997132,g,1.0,0.9421413999516516,,,,,,,,,,,,,,,,,,,,,,,,,,,,,,,,,,,,,,,sub-229,1,stroop_test,59.87281818095085,
test,blue,b,1.0,9.0,0.0,3.0,b,1.0,0.8690932000754401,,,,,,,,,,,,,,,,,,3.0,0.0,9.0,2.0,,,,,,,,,100.2173851999687,,,,,,,,,,,,,,,,,100.20212719996924,101.01695780002046,101.81640870007686,101.80067110003438,101.80139090004376,101.81640870007686,101.81640870007686,102.70071130001452,b,1.0,0.8690932000754401,,,,,,,,,,,,,,,,,,,,,,,,,,,,,,,,,,,,,,,sub-229,1,stroop_test,59.87281818095085,
test,yellow,g,1.0,10.0,1.0,3.0,g,1.0,0.8492833999916911,,,,,,,,,,,,,,,,,,3.0,1.0,10.0,1.0,,,,,,,,,102.71592720004264,,,,,,,,,,,,,,,,,102.70109260000754,102.81581329996698,103.61534740007482,103.59951169998384,103.60010719997808,103.61534740007482,103.61534740007482,104.46685650001746,g,1.0,0.8492833999916911,,,,,,,,,,,,,,,,,,,,,,,,,,,,,,,,,,,,,,,sub-229,1,stroop_test,59.87281818095085,
test,red,r,1.0,11.0,2.0,3.0,r,1.0,1.273538500070572,,,,,,,,,,,,,,,,,,3.0,2.0,11.0,0.0,,,,,,,,,104.48154319997413,,,,,,,,,,,,,,,,,104.46732479997443,105.68072479998229,106.48026260000188,106.4643156999955,106.46481949998996,106.48026260000188,106.48026260000188,107.76448120002168,r,1.0,1.273538500070572,,,,,,,,,,,,,,,,,,,,,,,,,,,,,,,,,,,,,,,sub-229,1,stroop_test,59.87281818095085,
,,,,,,,,,,,,,,,,,,,,,,,,,,,,,,,,,,,,,,,,,,,,,,,,,,,,,,,,,,,,,,,,,,,,107.76470359996893,107.7797385000158,107.7797385000158,123.57138630002736,space,15.783731500036083,,,,,,,,,,,,,,,,,,,,,,,,,,,,,,,,sub-229,1,stroop_test,59.87281818095085,
,,,,0.0,0.0,0.0,,,,,rot,blue,b,0.0,b,1.0,2.367697700043209,,,,,,,,,,,,,,0.0,0.0,0.0,2.0,,,,,123.5875452000182,,,,,,,,,,,,,,,,,123.58415939996485,124.78562990005594,125.58501969999634,125.56914749997668,,,,,,,,,,,,,,,,125.5748873000266,125.58501969999634,125.58501969999634,127.9694866000209,b,1.0,2.367697700043209,,127.98465760005638,127.98838100000285,128.98318970005494,,,,,,,,,,,,,,,,,,,,sub-229,1,stroop_test,59.87281818095085,
,,,,1.0,1.0,0.0,,,,,blau,red,r,0.0,r,1.0,1.0596119000110775,,,,,,,,,,,,,,0.0,1.0,1.0,4.0,,,,,128.99969359999525,,,,,,,,,,,,,,,,,128.98352050001267,129.7825003999751,130.58200210006908,130.56615670002066,,,,,,,,,,,,,,,,130.5746485000709,130.58200210006908,130.58200210006908,131.65045339998323,r,1.0,1.0596119000110775,,131.65148730005603,131.6648741000099,132.6482356999768,132.66411949996836,,,,,,,,,,,,,,,,,,,sub-229,1,stroop_test,59.87281818095085,
,,,,2.0,2.0,0.0,,,,,blau,yellow,g,0.0,g,1.0,0.5451563000679016,,,,,,,,,,,,,,0.0,2.0,2.0,7.0,,,,,132.66411949996836,,,,,,,,,,,,,,,,,132.64856570004486,132.76404949999414,133.5635559000075,133.54727650003042,,,,,,,,,,,,,,,,133.54758060001768,133.5635559000075,133.5635559000075,134.11635759996716,g,1.0,0.5451563000679016,,134.1176593999844,134.1301458000671,135.12932599999476,,,,,,,,,,,,,,,,,,,,sub-229,1,stroop_test,59.87281818095085,
,,,,3.0,3.0,0.0,,,,,gelb,red,r,0.0,r,1.0,0.4138627999927848,,,,,,,,,,,,,,0.0,3.0,3.0,8.0,,,,,135.14583459997084,,,,,,,,,,,,,,,,,135.12957129999995,136.32859310007188,137.12806060002185,137.11205820005853,,,,,,,,,,,,,,,,137.1156224000733,137.12806060002185,137.12806060002185,137.54538470006082,r,1.0,0.4138627999927848,,137.5457224000711,137.56104950001463,138.54472440003883,138.56063269998413,,,,,,,,,,,,,,,,,,,sub-229,1,stroop_test,59.87281818095085,
,,,,4.0,4.0,0.0,,,,,gelb,yellow,g,1.0,g,1.0,0.6680313000688329,,,,,,,,,,,,,,0.0,4.0,4.0,11.0,,,,,138.56063269998413,,,,,,,,,,,,,,,,,138.54520549997687,139.3600260000676,140.15946009999607,140.14345410000533,,,,,,,,,,,,,,,,140.14397259999532,140.15946009999607,140.15946009999607,140.84355480002705,g,1.0,0.6680313000688329,,140.84409450006206,140.85908790002577,141.84235360007733,141.8584286000114,,,,,,,,,,,,,,,,,,,sub-229,1,stroop_test,59.87281818095085,
,,,,5.0,5.0,0.0,,,,,blau,blue,b,1.0,b,1.0,0.4066722999559715,,,,,,,,,,,,,,0.0,5.0,5.0,5.0,,,,,141.8584286000114,,,,,,,,,,,,,,,,,141.84268550004344,142.65797870000824,143.45724430005066,143.4411055999808,,,,,,,,,,,,,,,,143.44294480001554,143.45724430005066,143.45724430005066,143.87671129999217,b,1.0,0.4066722999559715,,143.87788699998055,143.89058110001497,144.87401769997086,144.8898620000109,,,,,,,,,,,,,,,,,,,sub-229,1,stroop_test,59.87281818095085,
,,,,6.0,6.0,0.0,,,,,gelb,yellow,g,1.0,g,1.0,0.6585808000527322,,,,,,,,,,,,,,0.0,6.0,6.0,10.0,,,,,144.8898620000109,,,,,,,,,,,,,,,,,144.87434340000618,144.99003029998858,145.78951550007332,145.77347800007556,,,,,,,,,,,,,,,,145.77806390007026,145.78951550007332,145.78951550007332,146.4570393000031,g,1.0,0.6585808000527322,,146.45768630004022,146.47230020002462,147.4559154000599,147.4716133000329,,,,,,,,,,,,,,,,,,,sub-229,1,stroop_test,59.87281818095085,
,,,,7.0,7.0,0.0,,,,,rot,red,r,1.0,r,1.0,0.6465321999276057,,,,,,,,,,,,,,0.0,7.0,7.0,0.0,,,,,147.4716133000329,,,,,,,,,,,,,,,,,147.45628539996687,148.27117219998036,149.07074310001917,149.05502400000114,,,,,,,,,,,,,,,,149.05859000002965,149.07074310001917,149.07074310001917,149.72086490003858,r,1.0,0.6465321999276057,,149.72113069996703,149.73700900003314,150.72000960004516,150.73605100007262,,,,,,,,,,,,,,,,,,,sub-229,1,stroop_test,59.87281818095085,
,,,,8.0,8.0,0.0,,,,,blau,blue,b,1.0,b,1.0,0.7807625000132248,,,,,,,,,,,,,,0.0,8.0,8.0,6.0,,,,,150.73605100007262,,,,,,,,,,,,,,,,,150.72021399997175,151.53585460002068,152.33535359997768,152.3195295999758,,,,,,,,,,,,,,,,152.32319100003224,152.33535359997768,152.33535359997768,153.11984649999067,b,1.0,0.7807625000132248,,153.12063979997765,153.1350131999934,154.11849600006826,154.13433779997283,,,,,,,,,,,,,,,,,,,sub-229,1,stroop_test,59.87281818095085,
,,,,9.0,9.0,0.0,,,,,rot,red,r,1.0,r,1.0,0.7740990000311285,,,,,,,,,,,,,,0.0,9.0,9.0,1.0,,,,,154.13433779997283,,,,,,,,,,,,,,,,,154.11886629997753,154.48406849999446,155.28358280006796,155.2678054000717,,,,,,,,,,,,,,,,155.27137460000813,155.28358280006796,155.28358280006796,156.06770810007583,r,1.0,0.7740990000311285,,156.0682444999693,156.08302879997063,157.06623820005916,157.08236150001176,,,,,,,,,,,,,,,,,,,sub-229,1,stroop_test,59.87281818095085,
,,,,10.0,10.0,0.0,,,,,gelb,blue,b,0.0,b,1.0,0.6393208999652416,,,,,,,,,,,,,,0.0,10.0,10.0,9.0,,,,,157.08236150001176,,,,,,,,,,,,,,,,,157.06647010007873,157.18238650006242,157.9820337999845,157.96607620001305,,,,,,,,,,,,,,,,157.9703440000303,157.9820337999845,157.9820337999845,158.63228580006398,b,1.0,0.6393208999652416,,158.63263640005607,158.6481032000156,159.6317550999811,159.64750419999473,,,,,,,,,,,,,,,,,,,sub-229,1,stroop_test,59.87281818095085,
,,,,11.0,11.0,0.0,,,,,rot,yellow,g,0.0,g,1.0,0.5386539000319317,,,,,,,,,,,,,,0.0,11.0,11.0,3.0,,,,,159.64750419999473,,,,,,,,,,,,,,,,,159.63212520000525,159.7474715000717,160.5469671000028,160.53174740006216,,,,,,,,,,,,,,,,160.53714959998615,160.5469671000028,160.5469671000028,161.09776909998618,g,1.0,0.5386539000319317,,161.09832490002736,161.11329230002593,162.09705390001182,162.11279529996682,,,,,,,,,,,,,,,,,,,sub-229,1,stroop_test,59.87281818095085,
,,,,12.0,0.0,1.0,,,,,blau,blue,b,1.0,b,1.0,0.7647010000655428,,,,,,,,,,,,,,1.0,0.0,12.0,6.0,,,,,162.11279529996682,,,,,,,,,,,,,,,,,162.09752409998327,163.3119412000524,164.1114728000248,164.0955769000575,,,,,,,,,,,,,,,,164.09923669998534,164.1114728000248,164.1114728000248,164.87885870004538,b,1.0,0.7647010000655428,,164.87940029997844,164.8943724000128,165.8779979000101,165.89368580002338,,,,,,,,,,,,,,,,,,,sub-229,1,stroop_test,59.87281818095085,
,,,,13.0,1.0,1.0,,,,,blau,red,r,0.0,r,1.0,0.8376524000195786,,,,,,,,,,,,,,1.0,1.0,13.0,4.0,,,,,165.89368580002338,,,,,,,,,,,,,,,,,165.87837749999017,166.24344400002155,167.04328660003375,167.0273122000508,,,,,,,,,,,,,,,,167.02761730004568,167.04328660003375,167.04328660003375,167.89331329998095,r,1.0,0.8376524000195786,,167.8937089999672,167.91233590000775,168.90878210007213,,,,,,,,,,,,,,,,,,,,sub-229,1,stroop_test,59.87281818095085,
,,,,14.0,2.0,1.0,,,,,gelb,blue,b,0.0,b,1.0,1.398290199926123,,,,,,,,,,,,,,1.0,2.0,14.0,9.0,,,,,168.9251647000201,,,,,,,,,,,,,,,,,168.90921349998098,169.00837100006174,169.8080067000119,169.79224960005376,,,,,,,,,,,,,,,,169.79745810001623,169.8080067000119,169.8080067000119,171.20824070007075,b,1.0,1.398290199926123,,171.2087896000594,171.22373480000533,172.2072526999982,172.22317230002955,,,,,,,,,,,,,,,,,,,sub-229,1,stroop_test,59.87281818095085,
,,,,15.0,3.0,1.0,,,,,blau,yellow,g,0.0,g,1.0,0.7919152999529615,,,,,,,,,,,,,,1.0,3.0,15.0,7.0,,,,,172.22317230002955,,,,,,,,,,,,,,,,,172.20763219997752,173.02265160006937,173.82212869997602,173.80626820004545,,,,,,,,,,,,,,,,173.8099287999794,173.82212869997602,173.82212869997602,174.6229057000019,g,1.0,0.7919152999529615,,174.6234787000576,174.63815330003854,175.62177440000232,175.63761019997764,,,,,,,,,,,,,,,,,,,sub-229,1,stroop_test,59.87281818095085,
,,,,16.0,4.0,1.0,,,,,rot,blue,b,0.0,b,1.0,0.9822972000110894,,,,,,,,,,,,,,1.0,4.0,16.0,2.0,,,,,175.63761019997764,,,,,,,,,,,,,,,,,175.62209020007867,175.98748959996738,176.7869662999874,176.77075909997802,,,,,,,,,,,,,,,,176.77231919998303,176.7869662999874,176.7869662999874,177.77076830004808,b,1.0,0.9822972000110894,,177.77105680003297,177.78644429997075,178.77004390000366,178.78569549997337,,,,,,,,,,,,,,,,,,,sub-229,1,stroop_test,59.87281818095085,
,,,,17.0,5.0,1.0,,,,,rot,red,r,1.0,r,1.0,0.4182543999049812,,,,,,,,,,,,,,1.0,5.0,17.0,1.0,,,,,178.78569549997337,,,,,,,,,,,,,,,,,178.77041670004837,178.88569200003985,179.68519340001512,179.6693557000253,,,,,,,,,,,,,,,,179.6699669000227,179.68519340001512,179.68519340001512,180.1189510000404,r,1.0,0.4182543999049812,,180.119274900062,180.13499060005415,181.118770900066,181.13434370001775,,,,,,,,,,,,,,,,,,,sub-229,1,stroop_test,59.87281818095085,
,,,,18.0,6.0,1.0,,,,,gelb,red,r,0.0,r,1.0,0.4740572000155225,,,,,,,,,,,,,,1.0,6.0,18.0,8.0,,,,,181.13434370001775,,,,,,,,,,,,,,,,,181.11921839998104,181.23439740005412,182.0337338000536,182.02100479998623,,,,,,,,,,,,,,,,182.0227484999923,182.0337338000536,182.0337338000536,182.51800619997084,r,1.0,0.4740572000155225,,182.5185487000272,182.53348079998975,183.5167360000778,183.53276670002376,,,,,,,,,,,,,,,,,,,sub-229,1,stroop_test,59.87281818095085,
,,,,19.0,7.0,1.0,,,,,gelb,yellow,g,1.0,g,1.0,0.7675289999460801,,,,,,,,,,,,,,1.0,7.0,19.0,10.0,,,,,183.53276670002376,,,,,,,,,,,,,,,,,183.516962200054,183.88270820002072,184.68219810002483,184.66645480005536,,,,,,,,,,,,,,,,184.66716840001757,184.68219810002483,184.68219810002483,185.46678540005811,g,1.0,0.7675289999460801,,185.46765160001812,185.4817764000036,186.4655107000144,186.4810847999761,,,,,,,,,,,,,,,,,,,sub-229,1,stroop_test,59.87281818095085,
,,,,20.0,8.0,1.0,,,,,gelb,yellow,g,1.0,g,1.0,0.7777040000073612,,,,,,,,,,,,,,1.0,8.0,20.0,11.0,,,,,186.4810847999761,,,,,,,,,,,,,,,,,186.46597270003983,186.5810777000152,187.38050089997705,187.36482060002163,,,,,,,,,,,,,,,,187.36562080006115,187.38050089997705,187.38050089997705,188.16438700002615,g,1.0,0.7777040000073612,,188.1650468000444,188.17983639996964,189.1637921000365,189.17939870001285,,,,,,,,,,,,,,,,,,,sub-229,1,stroop_test,59.87281818095085,
,,,,21.0,9.0,1.0,,,,,rot,red,r,1.0,r,1.0,0.5294914999976754,,,,,,,,,,,,,,1.0,9.0,21.0,0.0,,,,,189.17939870001285,,,,,,,,,,,,,,,,,189.1642575999722,190.378693100065,191.17815340007652,191.1623254000442,,,,,,,,,,,,,,,,191.1662891000742,191.17815340007652,191.17815340007652,191.71262480004225,r,1.0,0.5294914999976754,,191.7132606999949,191.7278447999852,192.71156730002255,192.72711219999476,,,,,,,,,,,,,,,,,,,sub-229,1,stroop_test,59.87281818095085,
,,,,22.0,10.0,1.0,,,,,blau,blue,b,1.0,b,1.0,0.5234127999283373,,,,,,,,,,,,,,1.0,10.0,22.0,5.0,,,,,192.72711219999476,,,,,,,,,,,,,,,,,192.71207350003533,193.52693300007377,194.3262824000558,194.3100540000014,,,,,,,,,,,,,,,,194.31208269996569,194.3262824000558,194.3262824000558,194.86054799996785,b,1.0,0.5234127999283373,,194.86119680001863,194.8758740000194,195.8595020000357,195.87519210006576,,,,,,,,,,,,,,,,,,,sub-229,1,stroop_test,59.87281818095085,
,,,,23.0,11.0,1.0,,,,,rot,yellow,g,0.0,g,1.0,0.8231362999649718,,,,,,,,,,,,,,1.0,11.0,23.0,3.0,,,,,195.87519210006576,,,,,,,,,,,,,,,,,195.85987659997767,195.97529279999435,196.77475480001883,196.7586619000649,,,,,,,,,,,,,,,,196.76164210005663,196.77475480001883,196.77475480001883,197.6084354000632,g,1.0,0.8231362999649718,,197.6087860000553,197.6241366000613,198.607122000074,198.623839900014,,,,,,,,,,,,,,,,,,,sub-229,1,stroop_test,59.87281818095085,
,,,,,,,,,,,,,,,,,,,,,,,,,,,,,,,,,,,,,,,,,,,,,,,,,,,,,,,,,,,,,,,,,,,,,,,,,,,,,,,,,,,,,,,198.60718469996937,198.623839900014,198.623839900014,217.9466589000076,space,19.30567570007406,,,,,,,,,,,,,sub-229,1,stroop_test,59.87281818095085,
,,,,0.0,0.0,0.0,,,,,,,,,,,,,gelb,blue,b,0.0,b,1.0,0.9843120001023636,,,,,,,,,,0.0,0.0,0.0,9.0,217.96537170000371,,,,,,,,,,,,,,,,,217.9622467000736,218.311204800033,219.11092860007196,219.09497139998712,,,,,,,,,,,,,,,,,,,,,,,,,,,,,,,,,,,219.0984920000192,219.11092860007196,219.11092860007196,220.11204949999228,b,1.0,0.9843120001023636,,,,,sub-229,1,stroop_test,59.87281818095085,
,,,,1.0,1.0,0.0,,,,,,,,,,,,,rot,red,r,1.0,r,1.0,1.845028500072658,,,,,,,,,,0.0,1.0,1.0,1.0,220.1270230000373,,,,,,,,,,,,,,,,,220.11259170004632,220.2269991000649,221.0264273000648,221.01063759997487,,,,,,,,,,,,,,,,,,,,,,,,,,,,,,,,,,,221.01442000002132,221.0264273000648,221.0264273000648,222.87679080001544,r,1.0,1.845028500072658,,,,,sub-229,1,stroop_test,59.87281818095085,
,,,,2.0,2.0,0.0,,,,,,,,,,,,,gelb,yellow,g,1.0,g,1.0,0.407543700071983,,,,,,,,,,0.0,2.0,2.0,11.0,222.89191160001792,,,,,,,,,,,,,,,,,222.87723740004003,224.09117919998243,224.89069630007725,224.87513469997796,,,,,,,,,,,,,,,,,,,,,,,,,,,,,,,,,,,224.8809197000228,224.89069630007725,224.89069630007725,225.30834580003284,g,1.0,0.407543700071983,,,,,sub-229,1,stroop_test,59.87281818095085,
,,,,3.0,3.0,0.0,,,,,,,,,,,,,rot,yellow,g,0.0,g,1.0,0.8105122999986634,,,,,,,,,,0.0,3.0,3.0,3.0,225.32373529998583,,,,,,,,,,,,,,,,,225.30873130005784,225.67347530007828,226.4731101000216,226.4572010000702,,,,,,,,,,,,,,,,,,,,,,,,,,,,,,,,,,,226.4607690999983,226.4731101000216,226.4731101000216,227.2903922999976,g,1.0,0.8105122999986634,,,,,sub-229,1,stroop_test,59.87281818095085,
,,,,4.0,4.0,0.0,,,,,,,,,,,,,blau,blue,b,1.0,b,1.0,0.631004000082612,,,,,,,,,,0.0,4.0,4.0,6.0,227.30589570000305,,,,,,,,,,,,,,,,,227.2907673000591,227.40590780007187,228.20541439997032,228.18970079999417,,,,,,,,,,,,,,,,,,,,,,,,,,,,,,,,,,,228.19422010006383,228.20541439997032,228.20541439997032,228.84024469996805,b,1.0,0.631004000082612,,,,,sub-229,1,stroop_test,59.87281818095085,
,,,,5.0,5.0,0.0,,,,,,,,,,,,,blau,yellow,g,0.0,g,1.0,0.4490069999592379,,,,,,,,,,0.0,5.0,5.0,7.0,228.85492579999843,,,,,,,,,,,,,,,,,228.84084950003307,228.9549133999972,229.75418090005405,229.7381897000596,,,,,,,,,,,,,,,,,,,,,,,,,,,,,,,,,,,229.7386603000341,229.75418090005405,229.75418090005405,230.2064500000561,g,1.0,0.4490069999592379,,,,,sub-229,1,stroop_test,59.87281818095085,
,,,,6.0,6.0,0.0,,,,,,,,,,,,,gelb,red,r,0.0,r,1.0,0.4135943000437692,,,,,,,,,,0.0,6.0,6.0,8.0,230.2208317000186,,,,,,,,,,,,,,,,,230.20715010003187,231.0203408000525,231.81992679997347,231.80412310000972,,,,,,,,,,,,,,,,,,,,,,,,,,,,,,,,,,,231.80947950005063,231.81992679997347,231.81992679997347,232.23811500007287,r,1.0,0.4135943000437692,,,,,sub-229,1,stroop_test,59.87281818095085,
,,,,7.0,7.0,0.0,,,,,,,,,,,,,blau,red,r,0.0,r,1.0,0.9112066999077796,,,,,,,,,,0.0,7.0,7.0,4.0,232.2529023999814,,,,,,,,,,,,,,,,,232.23869360005483,232.3528424999677,233.15240520006049,233.13634289999027,,,,,,,,,,,,,,,,,,,,,,,,,,,,,,,,,,,233.1394243000541,233.15240520006049,233.15240520006049,234.0711191999726,r,1.0,0.9112066999077796,,,,,sub-229,1,stroop_test,59.87281818095085,
,,,,8.0,8.0,0.0,,,,,,,,,,,,,rot,blue,b,0.0,b,1.0,0.5580583999399096,,,,,,,,,,0.0,8.0,8.0,2.0,234.0851132000098,,,,,,,,,,,,,,,,,234.07189879997168,234.1849932000041,234.98424510005864,234.9680904999841,,,,,,,,,,,,,,,,,,,,,,,,,,,,,,,,,,,234.97064070007764,234.98424510005864,234.98424510005864,235.5522482000524,b,1.0,0.5580583999399096,,,,,sub-229,1,stroop_test,59.87281818095085,
,,,,9.0,9.0,0.0,,,,,,,,,,,,,gelb,yellow,g,1.0,g,1.0,0.3142486999277025,,,,,,,,,,0.0,9.0,9.0,10.0,235.5674705000129,,,,,,,,,,,,,,,,,235.55269140005112,235.91738540004008,236.7168771000579,236.7012627000222,,,,,,,,,,,,,,,,,,,,,,,,,,,,,,,,,,,236.7070447000442,236.7168771000579,236.7168771000579,237.03436280007008,g,1.0,0.3142486999277025,,,,,sub-229,1,stroop_test,59.87281818095085,
,,,,10.0,10.0,0.0,,,,,,,,,,,,,blau,blue,b,1.0,b,1.0,0.7751621999777853,,,,,,,,,,0.0,10.0,10.0,5.0,237.0496558999876,,,,,,,,,,,,,,,,,237.03471090004317,237.399618400028,238.1991291000741,238.18300890002865,,,,,,,,,,,,,,,,,,,,,,,,,,,,,,,,,,,238.1856214000145,238.1991291000741,238.1991291000741,238.98321840004064,b,1.0,0.7751621999777853,,,,,sub-229,1,stroop_test,59.87281818095085,
,,,,11.0,11.0,0.0,,,,,,,,,,,,,rot,red,r,1.0,r,1.0,0.8764393999008462,,,,,,,,,,0.0,11.0,11.0,0.0,238.99871710001025,,,,,,,,,,,,,,,,,238.98360000003595,239.0986448000185,239.89813450002111,239.88199839997105,,,,,,,,,,,,,,,,,,,,,,,,,,,,,,,,,,,239.88435569999277,239.89813450002111,239.89813450002111,240.78236620000095,r,1.0,0.8764393999008462,,,,,sub-229,1,stroop_test,59.87281818095085,
,,,,12.0,0.0,1.0,,,,,,,,,,,,,blau,yellow,g,0.0,g,1.0,0.5072392000583932,,,,,,,,,,1.0,0.0,12.0,7.0,240.79767640004863,,,,,,,,,,,,,,,,,240.7828052999685,241.14748480007984,241.9469958000118,241.9308849000372,,,,,,,,,,,,,,,,,,,,,,,,,,,,,,,,,,,241.93235020001885,241.9469958000118,241.9469958000118,242.46552249998783,g,1.0,0.5072392000583932,,,,,sub-229,1,stroop_test,59.87281818095085,
,,,,13.0,1.0,1.0,,,,,,,,,,,,,gelb,blue,b,0.0,b,1.0,0.6861685999901965,,,,,,,,,,1.0,1.0,13.0,9.0,242.480070300051,,,,,,,,,,,,,,,,,242.4662214000709,243.2794285999844,244.07883999997284,244.0630629999796,,,,,,,,,,,,,,,,,,,,,,,,,,,,,,,,,,,244.06727110000796,244.07883999997284,244.07883999997284,244.77976220007983,b,1.0,0.6861685999901965,,,,,sub-229,1,stroop_test,59.87281818095085,
,,,,14.0,2.0,1.0,,,,,,,,,,,,,rot,yellow,g,0.0,g,1.0,0.644890800002031,,,,,,,,,,1.0,2.0,14.0,3.0,244.7950698999921,,,,,,,,,,,,,,,,,244.7801486999961,245.5946286000544,246.39426209998783,246.37831050006207,,,,,,,,,,,,,,,,,,,,,,,,,,,,,,,,,,,246.3819705999922,246.39426209998783,246.39426209998783,247.04497559997253,g,1.0,0.644890800002031,,,,,sub-229,1,stroop_test,59.87281818095085,
,,,,15.0,3.0,1.0,,,,,,,,,,,,,gelb,yellow,g,1.0,g,1.0,0.579157100059092,,,,,,,,,,1.0,3.0,15.0,10.0,247.06033620005476,,,,,,,,,,,,,,,,,247.04535040003248,247.41021460003685,248.20981030003168,248.1939076000126,,,,,,,,,,,,,,,,,,,,,,,,,,,,,,,,,,,248.19843650003892,248.20981030003168,248.20981030003168,248.7940414000768,g,1.0,0.579157100059092,,,,,sub-229,1,stroop_test,59.87281818095085,
,,,,16.0,4.0,1.0,,,,,,,,,,,,,gelb,yellow,g,1.0,g,1.0,0.6149542999919504,,,,,,,,,,1.0,4.0,16.0,11.0,248.81151260004845,,,,,,,,,,,,,,,,,248.7944220000645,250.00861340004485,250.80817189998925,250.7922046000604,,,,,,,,,,,,,,,,,,,,,,,,,,,,,,,,,,,250.79282069997865,250.80817189998925,250.80817189998925,251.4260229000356,g,1.0,0.6149542999919504,,,,,sub-229,1,stroop_test,59.87281818095085,
,,,,17.0,5.0,1.0,,,,,,,,,,,,,rot,blue,b,0.0,b,1.0,0.9502876999322324,,,,,,,,,,1.0,5.0,17.0,2.0,251.44103440002075,,,,,,,,,,,,,,,,,251.42645949998405,252.64032520004548,253.43984350003305,253.4239191999659,,,,,,,,,,,,,,,,,,,,,,,,,,,,,,,,,,,253.42692210001405,253.43984350003305,253.43984350003305,254.4075022999896,b,1.0,0.9502876999322324,,,,,sub-229,1,stroop_test,59.87281818095085,
,,,,18.0,6.0,1.0,,,,,,,,,,,,,rot,red,r,1.0,r,1.0,1.0231280999723822,,,,,,,,,,1.0,6.0,18.0,1.0,254.4226200999692,,,,,,,,,,,,,,,,,254.40803400008008,254.52256980002855,255.3220068999799,255.3059551999904,,,,,,,,,,,,,,,,,,,,,,,,,,,,,,,,,,,255.3064655000344,255.3220068999799,255.3220068999799,256.35635680006817,r,1.0,1.0231280999723822,,,,,sub-229,1,stroop_test,59.87281818095085,
,,,,19.0,7.0,1.0,,,,,,,,,,,,,blau,blue,b,1.0,b,1.0,1.5062423000345009,,,,,,,,,,1.0,7.0,19.0,6.0,256.37139350001235,,,,,,,,,,,,,,,,,256.35690250003245,256.72111310006585,257.5206749000354,257.5046785000013,,,,,,,,,,,,,,,,,,,,,,,,,,,,,,,,,,,257.508206199971,257.5206749000354,257.5206749000354,259.03768800001126,b,1.0,1.5062423000345009,,,,,sub-229,1,stroop_test,59.87281818095085,
,,,,20.0,8.0,1.0,,,,,,,,,,,,,rot,red,r,1.0,r,1.0,1.1991294000763446,,,,,,,,,,1.0,8.0,20.0,0.0,259.0528687000042,,,,,,,,,,,,,,,,,259.038062900072,260.252328600036,261.0519530000165,261.03535540006123,,,,,,,,,,,,,,,,,,,,,,,,,,,,,,,,,,,261.03674989996944,261.0519530000165,261.0519530000165,262.25261199998204,r,1.0,1.1991294000763446,,,,,sub-229,1,stroop_test,59.87281818095085,
,,,,21.0,9.0,1.0,,,,,,,,,,,,,blau,red,r,0.0,r,1.0,0.7817592999199405,,,,,,,,,,1.0,9.0,21.0,4.0,262.267655499978,,,,,,,,,,,,,,,,,262.252986800042,263.06711419997737,263.8667674000608,263.8507409000304,,,,,,,,,,,,,,,,,,,,,,,,,,,,,,,,,,,263.85381280002184,263.8667674000608,263.8667674000608,264.6515774000436,r,1.0,0.7817592999199405,,,,,sub-229,1,stroop_test,59.87281818095085,
,,,,22.0,10.0,1.0,,,,,,,,,,,,,gelb,red,r,0.0,r,1.0,0.5753233000868931,,,,,,,,,,1.0,10.0,22.0,8.0,264.6663597000297,,,,,,,,,,,,,,,,,264.65213250007946,264.7663235999644,265.56573649996426,265.54944319999777,,,,,,,,,,,,,,,,,,,,,,,,,,,,,,,,,,,265.5515291000484,265.56573649996426,265.56573649996426,266.1494789000135,r,1.0,0.5753233000868931,,,,,sub-229,1,stroop_test,59.87281818095085,
,,,,23.0,11.0,1.0,,,,,,,,,,,,,blau,blue,b,1.0,b,1.0,0.5290512000210583,,,,,,,,,,1.0,11.0,23.0,5.0,266.16534409997985,,,,,,,,,,,,,,,,,266.14970509998966,266.5151562000392,267.31587990000844,267.2996827000752,,,,,,,,,,,,,,,,,,,,,,,,,,,,,,,,,,,267.3076147000538,267.31587990000844,267.31587990000844,267.84892260003835,b,1.0,0.5290512000210583,,,,,sub-229,1,stroop_test,59.87281818095085,
,,,,24.0,0.0,2.0,,,,,,,,,,,,,rot,red,r,1.0,r,1.0,0.4503918999107554,,,,,,,,,,2.0,0.0,24.0,1.0,267.8642514999956,,,,,,,,,,,,,,,,,267.8492797999643,267.9642393999966,268.7637673000572,268.7475340999663,,,,,,,,,,,,,,,,,,,,,,,,,,,,,,,,,,,268.7493594000116,268.7637673000572,268.7637673000572,269.2313027000055,r,1.0,0.4503918999107554,,,,,sub-229,1,stroop_test,59.87281818095085,
,,,,25.0,1.0,2.0,,,,,,,,,,,,,gelb,blue,b,0.0,b,1.0,0.7026884000515565,,,,,,,,,,2.0,1.0,25.0,9.0,269.24671870004386,,,,,,,,,,,,,,,,,269.2317005000077,269.59660799999256,270.3958923000609,270.38006320002023,,,,,,,,,,,,,,,,,,,,,,,,,,,,,,,,,,,270.38265769998543,270.3958923000609,270.3958923000609,271.1135898000793,b,1.0,0.7026884000515565,,,,,sub-229,1,stroop_test,59.87281818095085,
,,,,26.0,2.0,2.0,,,,,,,,,,,,,gelb,yellow,g,1.0,g,1.0,0.4127338000107556,,,,,,,,,,2.0,2.0,26.0,10.0,271.12888149998616,,,,,,,,,,,,,,,,,271.1139619000023,271.92843620001804,272.7280042000348,272.7120620000642,,,,,,,,,,,,,,,,,,,,,,,,,,,,,,,,,,,272.7126883000601,272.7280042000348,272.7280042000348,273.14909820002504,g,1.0,0.4127338000107556,,,,,sub-229,1,stroop_test,59.87281818095085,
,,,,27.0,3.0,2.0,,,,,,,,,,,,,gelb,red,r,0.0,r,1.0,1.319538800045848,,,,,,,,,,2.0,3.0,27.0,8.0,273.16095789999235,,,,,,,,,,,,,,,,,273.1493422000203,273.9605031000683,274.7601827000035,274.74433510005474,,,,,,,,,,,,,,,,,,,,,,,,,,,,,,,,,,,274.74505789997056,274.7601827000035,274.7601827000035,276.09395640005823,r,1.0,1.319538800045848,,,,,sub-229,1,stroop_test,59.87281818095085,
,,,,28.0,4.0,2.0,,,,,,,,,,,,,blau,blue,b,1.0,b,1.0,1.6585374999558553,,,,,,,,,,2.0,4.0,28.0,6.0,276.1092059999937,,,,,,,,,,,,,,,,,276.094402500079,276.45917050004937,277.2584857000038,277.2426353000337,,,,,,,,,,,,,,,,,,,,,,,,,,,,,,,,,,,277.2482604000252,277.2584857000038,277.2584857000038,278.92526060005184,b,1.0,1.6585374999558553,,,,,sub-229,1,stroop_test,59.87281818095085,
,,,,29.0,5.0,2.0,,,,,,,,,,,,,gelb,yellow,g,1.0,g,1.0,0.9611349999904631,,,,,,,,,,2.0,5.0,29.0,11.0,278.94084359996486,,,,,,,,,,,,,,,,,278.9256403000327,279.2906151000643,280.09013580007013,280.0743607999757,,,,,,,,,,,,,,,,,,,,,,,,,,,,,,,,,,,280.0786029000301,280.09013580007013,280.09013580007013,281.0571905999677,g,1.0,0.9611349999904631,,,,,sub-229,1,stroop_test,59.87281818095085,
,,,,30.0,6.0,2.0,,,,,,,,,,,,,blau,yellow,g,0.0,g,1.0,0.6391328999307007,,,,,,,,,,2.0,6.0,30.0,7.0,281.072805600008,,,,,,,,,,,,,,,,,281.05751990003046,281.17278660007287,281.9723102999851,281.95654190005735,,,,,,,,,,,,,,,,,,,,,,,,,,,,,,,,,,,281.9602671000175,281.9723102999851,281.9723102999851,282.62325469998177,g,1.0,0.6391328999307007,,,,,sub-229,1,stroop_test,59.87281818095085,
,,,,31.0,7.0,2.0,,,,,,,,,,,,,rot,blue,b,0.0,b,1.0,0.7316376999951899,,,,,,,,,,2.0,7.0,31.0,2.0,282.638519500033,,,,,,,,,,,,,,,,,282.62369380006567,283.8378758999752,284.637340300018,284.6213849000633,,,,,,,,,,,,,,,,,,,,,,,,,,,,,,,,,,,284.62500400003046,284.637340300018,284.637340300018,285.37121010001283,b,1.0,0.7316376999951899,,,,,sub-229,1,stroop_test,59.87281818095085,
,,,,32.0,8.0,2.0,,,,,,,,,,,,,rot,red,r,1.0,r,1.0,0.3859851999441162,,,,,,,,,,2.0,8.0,32.0,0.0,285.3868124000728,,,,,,,,,,,,,,,,,285.371445100056,286.58612830005586,287.3855824000202,287.3699474000605,,,,,,,,,,,,,,,,,,,,,,,,,,,,,,,,,,,287.3707010999788,287.3855824000202,287.3855824000202,287.7865985999815,r,1.0,0.3859851999441162,,,,,sub-229,1,stroop_test,59.87281818095085,
,,,,33.0,9.0,2.0,,,,,,,,,,,,,blau,red,r,0.0,r,1.0,0.669591800076887,,,,,,,,,,2.0,9.0,33.0,4.0,287.8019612000789,,,,,,,,,,,,,,,,,287.786973600043,288.1518937000073,288.9513458000729,288.93547819997184,,,,,,,,,,,,,,,,,,,,,,,,,,,,,,,,,,,288.9389067000011,288.9513458000729,288.9513458000729,289.6357188000111,r,1.0,0.669591800076887,,,,,sub-229,1,stroop_test,59.87281818095085,
,,,,34.0,10.0,2.0,,,,,,,,,,,,,blau,blue,b,1.0,b,1.0,0.4559076000005007,,,,,,,,,,2.0,10.0,34.0,5.0,289.65094159997534,,,,,,,,,,,,,,,,,289.63614920002874,289.7508039000677,290.5504390000133,290.53470229997765,,,,,,,,,,,,,,,,,,,,,,,,,,,,,,,,,,,290.5354072999908,290.5504390000133,290.5504390000133,291.01745360007044,b,1.0,0.4559076000005007,,,,,sub-229,1,stroop_test,59.87281818095085,
,,,,35.0,11.0,2.0,,,,,,,,,,,,,rot,yellow,g,0.0,g,1.0,0.6840932000195608,,,,,,,,,,2.0,11.0,35.0,3.0,291.03335739998147,,,,,,,,,,,,,,,,,291.0176793000428,291.11676440003794,291.9162703000475,291.9007227000548,,,,,,,,,,,,,,,,,,,,,,,,,,,,,,,,,,,291.906345400028,291.9162703000475,291.9162703000475,292.61710719997063,g,1.0,0.6840932000195608,,,,,sub-229,1,stroop_test,59.87281818095085,
,,,,36.0,0.0,3.0,,,,,,,,,,,,,gelb,blue,b,0.0,b,1.0,0.3452071999199688,,,,,,,,,,3.0,0.0,36.0,9.0,292.6323951999657,,,,,,,,,,,,,,,,,292.61752480000723,293.4319299000781,294.2783018000191,294.21563510003034,,,,,,,,,,,,,,,,,,,,,,,,,,,,,,,,,,,294.27367310004774,294.2783018000191,294.2783018000191,294.63280250004027,b,1.0,0.3452071999199688,,,,,sub-229,1,stroop_test,59.87281818095085,
,,,,37.0,1.0,3.0,,,,,,,,,,,,,rot,red,r,1.0,r,1.0,0.3969322999473661,,,,,,,,,,3.0,1.0,37.0,1.0,294.64792150002904,,,,,,,,,,,,,,,,,294.633239399991,294.99754919996485,295.79710830003023,295.7811875999905,,,,,,,,,,,,,,,,,,,,,,,,,,,,,,,,,,,295.78465519996826,295.79710830003023,295.79710830003023,296.1979438000126,r,1.0,0.3969322999473661,,,,,sub-229,1,stroop_test,59.87281818095085,
,,,,38.0,2.0,3.0,,,,,,,,,,,,,gelb,red,r,0.0,r,1.0,0.4441856999183073,,,,,,,,,,3.0,2.0,38.0,8.0,296.2135435000528,,,,,,,,,,,,,,,,,296.1982734000776,297.01305990002584,297.8126057999907,297.7966711000772,,,,,,,,,,,,,,,,,,,,,,,,,,,,,,,,,,,297.8009661000688,297.8126057999907,297.8126057999907,298.2640993000241,r,1.0,0.4441856999183073,,,,,sub-229,1,stroop_test,59.87281818095085,
,,,,39.0,3.0,3.0,,,,,,,,,,,,,rot,red,r,1.0,r,1.0,0.9323092000558972,,,,,,,,,,3.0,3.0,39.0,0.0,298.2789105999982,,,,,,,,,,,,,,,,,298.26463370001875,298.62866400007624,299.4283204000676,299.41234240005724,,,,,,,,,,,,,,,,,,,,,,,,,,,,,,,,,,,299.415943400003,299.4283204000676,299.4283204000676,300.36315230000764,r,1.0,0.9323092000558972,,,,,sub-229,1,stroop_test,59.87281818095085,
,,,,40.0,4.0,3.0,,,,,,,,,,,,,gelb,yellow,g,1.0,g,1.0,0.6562199000036344,,,,,,,,,,3.0,4.0,40.0,11.0,300.37767050007824,,,,,,,,,,,,,,,,,300.3637174000032,301.5768125000177,302.3764330999693,302.3605856000213,,,,,,,,,,,,,,,,,,,,,,,,,,,,,,,,,,,302.36499000003096,302.3764330999693,302.3764330999693,303.0443481999682,g,1.0,0.6562199000036344,,,,,sub-229,1,stroop_test,59.87281818095085,
,,,,41.0,5.0,3.0,,,,,,,,,,,,,blau,blue,b,1.0,b,1.0,0.9987780000083148,,,,,,,,,,3.0,5.0,41.0,5.0,303.05918610002846,,,,,,,,,,,,,,,,,303.0448776000412,304.2586109000258,305.05809559999034,305.04214330005925,,,,,,,,,,,,,,,,,,,,,,,,,,,,,,,,,,,305.0455640000291,305.05809559999034,305.05809559999034,306.0589736000402,b,1.0,0.9987780000083148,,,,,sub-229,1,stroop_test,59.87281818095085,
,,,,42.0,6.0,3.0,,,,,,,,,,,,,blau,yellow,g,0.0,g,1.0,1.463461000006646,,,,,,,,,,3.0,6.0,42.0,7.0,306.0741391000338,,,,,,,,,,,,,,,,,306.0594030000502,306.42390950000845,307.2235316999722,307.2077329000458,,,,,,,,,,,,,,,,,,,,,,,,,,,,,,,,,,,307.20849760004785,307.2235316999722,307.2235316999722,308.69015340006445,g,1.0,1.463461000006646,,,,,sub-229,1,stroop_test,59.87281818095085,
,,,,43.0,7.0,3.0,,,,,,,,,,,,,blau,blue,b,1.0,b,1.0,0.6635598000138998,,,,,,,,,,3.0,7.0,43.0,6.0,308.7057713000104,,,,,,,,,,,,,,,,,308.69042009999976,309.0557956000557,309.8551645000698,309.83926669997163,,,,,,,,,,,,,,,,,,,,,,,,,,,,,,,,,,,309.8398485999787,309.8551645000698,309.8551645000698,310.5226510000648,b,1.0,0.6635598000138998,,,,,sub-229,1,stroop_test,59.87281818095085,
,,,,44.0,8.0,3.0,,,,,,,,,,,,,rot,blue,b,0.0,b,1.0,0.9164978000335396,,,,,,,,,,3.0,8.0,44.0,2.0,310.5379704000661,,,,,,,,,,,,,,,,,310.52301700005773,311.7373729000101,312.53682979999576,312.52080529998057,,,,,,,,,,,,,,,,,,,,,,,,,,,,,,,,,,,312.52385680004954,312.53682979999576,312.53682979999576,313.45497219997924,b,1.0,0.9164978000335396,,,,,sub-229,1,stroop_test,59.87281818095085,
,,,,45.0,9.0,3.0,,,,,,,,,,,,,blau,red,r,0.0,r,1.0,0.6098922999808565,,,,,,,,,,3.0,9.0,45.0,4.0,313.4695482000243,,,,,,,,,,,,,,,,,313.45543109998107,314.6689220999833,315.46852270001546,315.4524202999892,,,,,,,,,,,,,,,,,,,,,,,,,,,,,,,,,,,315.456037200056,315.46852270001546,315.46852270001546,316.0871122999815,r,1.0,0.6098922999808565,,,,,sub-229,1,stroop_test,59.87281818095085,
,,,,46.0,10.0,3.0,,,,,,,,,,,,,rot,yellow,g,0.0,g,1.0,0.4274724998977035,,,,,,,,,,3.0,10.0,46.0,3.0,316.1014684999828,,,,,,,,,,,,,,,,,316.0877928000409,317.3005311000161,318.1001338000642,318.08404300000984,,,,,,,,,,,,,,,,,,,,,,,,,,,,,,,,,,,318.08708409999963,318.1001338000642,318.1001338000642,318.53456210007425,g,1.0,0.4274724998977035,,,,,sub-229,1,stroop_test,59.87281818095085,
,,,,47.0,11.0,3.0,,,,,,,,,,,,,gelb,yellow,g,1.0,g,1.0,0.568982099997811,,,,,,,,,,3.0,11.0,47.0,10.0,318.549776299973,,,,,,,,,,,,,,,,,318.5349909000797,319.7490186999785,320.5486972000217,320.5327548000496,,,,,,,,,,,,,,,,,,,,,,,,,,,,,,,,,,,320.537138100015,320.5486972000217,320.5486972000217,321.1328136000084,g,1.0,0.568982099997811,,,,,sub-229,1,stroop_test,59.87281818095085,
,,,,48.0,0.0,4.0,,,,,,,,,,,,,rot,yellow,g,0.0,g,1.0,0.5571836000308394,,,,,,,,,,4.0,0.0,48.0,3.0,321.14813880005386,,,,,,,,,,,,,,,,,321.1331841000356,321.49810440000147,322.2975465999916,322.28179839998484,,,,,,,,,,,,,,,,,,,,,,,,,,,,,,,,,,,322.286180300056,322.2975465999916,322.2975465999916,322.86453829996753,g,1.0,0.5571836000308394,,,,,sub-229,1,stroop_test,59.87281818095085,
,,,,49.0,1.0,4.0,,,,,,,,,,,,,blau,red,r,0.0,r,1.0,0.8393217000411823,,,,,,,,,,4.0,1.0,49.0,4.0,322.8805104000494,,,,,,,,,,,,,,,,,322.86476360005327,323.2303707000101,324.0298534000758,324.0137226000661,,,,,,,,,,,,,,,,,,,,,,,,,,,,,,,,,,,324.0167821999639,324.0298534000758,324.0298534000758,324.8799932000693,r,1.0,0.8393217000411823,,,,,sub-229,1,stroop_test,59.87281818095085,
,,,,50.0,2.0,4.0,,,,,,,,,,,,,gelb,blue,b,0.0,b,1.0,0.7786000999622047,,,,,,,,,,4.0,2.0,50.0,9.0,324.8959348000353,,,,,,,,,,,,,,,,,324.8802170000272,326.09511080000084,326.8946947000222,326.8783620999893,,,,,,,,,,,,,,,,,,,,,,,,,,,,,,,,,,,326.8807225000346,326.8946947000222,326.8946947000222,327.67825560003985,b,1.0,0.7786000999622047,,,,,sub-229,1,stroop_test,59.87281818095085,
,,,,51.0,3.0,4.0,,,,,,,,,,,,,blau,blue,b,1.0,b,1.0,0.5448342999443412,,,,,,,,,,4.0,3.0,51.0,5.0,327.6940939000342,,,,,,,,,,,,,,,,,327.67845590005163,328.4936786000617,329.29321879998315,329.2772832000628,,,,,,,,,,,,,,,,,,,,,,,,,,,,,,,,,,,329.2815386999864,329.29321879998315,329.29321879998315,329.8443811000325,b,1.0,0.5448342999443412,,,,,sub-229,1,stroop_test,59.87281818095085,
,,,,52.0,4.0,4.0,,,,,,,,,,,,,gelb,red,r,0.0,r,1.0,2.295500300009735,,,,,,,,,,4.0,4.0,52.0,8.0,329.8596005999716,,,,,,,,,,,,,,,,,329.8448121000547,329.95948700001463,330.75913650006987,330.7426040000282,,,,,,,,,,,,,,,,,,,,,,,,,,,,,,,,,,,330.74430390005,330.75913650006987,330.75913650006987,333.05929320002906,r,1.0,2.295500300009735,,,,,sub-229,1,stroop_test,59.87281818095085,
,,,,53.0,5.0,4.0,,,,,,,,,,,,,blau,blue,b,1.0,g,0.0,0.9640359000768512,,,,,,,,,,4.0,5.0,53.0,6.0,333.07422429998405,,,,,,,,,,,,,,,,,333.0598418000154,333.8738228000002,334.67329990002327,334.6574945000466,,,,,,,,,,,,,,,,,,,,,,,,,,,,,,,,,,,334.6611443000147,334.67329990002327,334.67329990002327,335.6411391000729,g,0.0,0.9640359000768512,,,,,sub-229,1,stroop_test,59.87281818095085,
,,,,54.0,6.0,4.0,,,,,,,,,,,,,rot,red,r,1.0,r,1.0,2.8039739000378177,,,,,,,,,,4.0,6.0,54.0,0.0,335.6559652000433,,,,,,,,,,,,,,,,,335.64167579996865,336.8551815999672,337.65478600002825,337.63875460007694,,,,,,,,,,,,,,,,,,,,,,,,,,,,,,,,,,,337.64176090003457,337.65478600002825,337.65478600002825,340.4710444000084,r,1.0,2.8039739000378177,,,,,sub-229,1,stroop_test,59.87281818095085,
,,,,55.0,7.0,4.0,,,,,,,,,,,,,gelb,yellow,g,1.0,g,1.0,0.6368570000631735,,,,,,,,,,4.0,7.0,55.0,10.0,340.4861985000316,,,,,,,,,,,,,,,,,340.4714902000269,341.68541949999053,342.4851061999798,342.46963309997227,,,,,,,,,,,,,,,,,,,,,,,,,,,,,,,,,,,342.47634140006267,342.4851061999798,342.4851061999798,343.1359796000179,g,1.0,0.6368570000631735,,,,,sub-229,1,stroop_test,59.87281818095085,
,,,,56.0,8.0,4.0,,,,,,,,,,,,,rot,blue,b,0.0,b,1.0,1.1066317999502644,,,,,,,,,,4.0,8.0,56.0,2.0,343.151130400016,,,,,,,,,,,,,,,,,343.1363524000626,343.50111710000783,344.300305700046,344.28449089999776,,,,,,,,,,,,,,,,,,,,,,,,,,,,,,,,,,,344.2864272000734,344.300305700046,344.300305700046,345.41810270003043,b,1.0,1.1066317999502644,,,,,sub-229,1,stroop_test,59.87281818095085,
,,,,57.0,9.0,4.0,,,,,,,,,,,,,rot,red,r,1.0,r,1.0,1.898031499935314,,,,,,,,,,4.0,9.0,57.0,1.0,345.4332830000203,,,,,,,,,,,,,,,,,345.4185336000519,345.53320120007265,346.332767700078,346.31662090006284,,,,,,,,,,,,,,,,,,,,,,,,,,,,,,,,,,,346.31687209999654,346.332767700078,346.332767700078,348.23289420001674,r,1.0,1.898031499935314,,,,,sub-229,1,stroop_test,59.87281818095085,
,,,,58.0,10.0,4.0,,,,,,,,,,,,,blau,yellow,g,0.0,g,1.0,1.267839099979028,,,,,,,,,,4.0,10.0,58.0,7.0,348.2481771999737,,,,,,,,,,,,,,,,,348.2333243000321,349.447345099994,350.24697560002096,350.2309588000644,,,,,,,,,,,,,,,,,,,,,,,,,,,,,,,,,,,350.2345240999712,350.24697560002096,350.24697560002096,351.5302514999639,g,1.0,1.267839099979028,,,,,sub-229,1,stroop_test,59.87281818095085,
,,,,59.0,11.0,4.0,,,,,,,,,,,,,gelb,yellow,g,1.0,g,1.0,0.7292029999662191,,,,,,,,,,4.0,11.0,59.0,11.0,351.5461233999813,,,,,,,,,,,,,,,,,351.53043639997486,352.34567529999185,353.14528970001265,353.12944010004867,,,,,,,,,,,,,,,,,,,,,,,,,,,,,,,,,,,353.1335946000181,353.14528970001265,353.14528970001265,353.87932319997344,g,1.0,0.7292029999662191,,,,,sub-229,1,stroop_test,59.87281818095085,
,,,,60.0,0.0,5.0,,,,,,,,,,,,,rot,red,r,1.0,r,1.0,0.993999500060454,,,,,,,,,,5.0,0.0,60.0,0.0,353.89461099996697,,,,,,,,,,,,,,,,,353.8796898999717,353.99473679997027,354.7941347999731,354.778525599977,,,,,,,,,,,,,,,,,,,,,,,,,,,,,,,,,,,354.78324959997553,354.7941347999731,354.7941347999731,355.79514289996587,r,1.0,0.993999500060454,,,,,sub-229,1,stroop_test,59.87281818095085,
,,,,61.0,1.0,5.0,,,,,,,,,,,,,blau,red,r,0.0,r,1.0,0.5898153999587521,,,,,,,,,,5.0,1.0,61.0,4.0,355.81027150002774,,,,,,,,,,,,,,,,,355.79568550002296,355.9101026999997,356.7094810999697,356.6930805000011,,,,,,,,,,,,,,,,,,,,,,,,,,,,,,,,,,,356.6948135000421,356.7094810999697,356.7094810999697,357.3102280000457,r,1.0,0.5898153999587521,,,,,sub-229,1,stroop_test,59.87281818095085,
,,,,62.0,2.0,5.0,,,,,,,,,,,,,rot,blue,b,0.0,b,1.0,1.204310900066048,,,,,,,,,,5.0,2.0,62.0,2.0,357.3258787000086,,,,,,,,,,,,,,,,,357.310521400068,358.12551400007214,358.9250646000728,358.909218100016,,,,,,,,,,,,,,,,,,,,,,,,,,,,,,,,,,,358.9136074000271,358.9250646000728,358.9250646000728,360.1421745000407,b,1.0,1.204310900066048,,,,,sub-229,1,stroop_test,59.87281818095085,
,,,,63.0,3.0,5.0,,,,,,,,,,,,,blau,blue,b,1.0,b,1.0,0.8138660999247804,,,,,,,,,,5.0,3.0,63.0,5.0,360.15746560005937,,,,,,,,,,,,,,,,,360.1425427000504,360.5073692000005,361.30701150000095,361.2911459000316,,,,,,,,,,,,,,,,,,,,,,,,,,,,,,,,,,,361.29600299999584,361.30701150000095,361.30701150000095,362.123706500046,b,1.0,0.8138660999247804,,,,,sub-229,1,stroop_test,59.87281818095085,
,,,,64.0,4.0,5.0,,,,,,,,,,,,,blau,blue,b,1.0,b,1.0,0.6055825999937952,,,,,,,,,,5.0,4.0,64.0,6.0,362.1393705999944,,,,,,,,,,,,,,,,,362.1239160000114,362.2227714000037,363.0224785000319,363.0063319000183,,,,,,,,,,,,,,,,,,,,,,,,,,,,,,,,,,,363.00659610005096,363.0224785000319,363.0224785000319,363.6398925000103,b,1.0,0.6055825999937952,,,,,sub-229,1,stroop_test,59.87281818095085,
,,,,65.0,5.0,5.0,,,,,,,,,,,,,gelb,red,r,0.0,r,1.0,1.455896700033918,,,,,,,,,,5.0,5.0,65.0,8.0,363.6553977000294,,,,,,,,,,,,,,,,,363.64026090002153,364.8547063000733,365.65416040003765,365.6382210999727,,,,,,,,,,,,,,,,,,,,,,,,,,,,,,,,,,,365.6424025000306,365.65416040003765,365.65416040003765,367.1208030000562,r,1.0,1.455896700033918,,,,,sub-229,1,stroop_test,59.87281818095085,
,,,,66.0,6.0,5.0,,,,,,,,,,,,,gelb,blue,b,0.0,b,1.0,1.0918698000023142,,,,,,,,,,5.0,6.0,66.0,9.0,367.13651680003386,,,,,,,,,,,,,,,,,367.1209876000648,367.93612239998765,368.7357164999703,368.7197611000156,,,,,,,,,,,,,,,,,,,,,,,,,,,,,,,,,,,368.72033689997625,368.7357164999703,368.7357164999703,369.8366599000292,b,1.0,1.0918698000023142,,,,,sub-229,1,stroop_test,59.87281818095085,
,,,,67.0,7.0,5.0,,,,,,,,,,,,,rot,red,r,1.0,r,1.0,0.812374500092119,,,,,,,,,,5.0,7.0,67.0,1.0,369.85159730003215,,,,,,,,,,,,,,,,,369.8371262999717,370.2011807999807,371.0009371000342,370.9850056000287,,,,,,,,,,,,,,,,,,,,,,,,,,,,,,,,,,,370.9891726999776,371.0009371000342,371.0009371000342,371.8185185000766,r,1.0,0.812374500092119,,,,,sub-229,1,stroop_test,59.87281818095085,
,,,,68.0,8.0,5.0,,,,,,,,,,,,,gelb,yellow,g,1.0,g,1.0,0.8149822000414133,,,,,,,,,,5.0,8.0,68.0,11.0,371.8337001000764,,,,,,,,,,,,,,,,,371.81894630007446,371.9336354000261,372.7331649999833,372.71749140007887,,,,,,,,,,,,,,,,,,,,,,,,,,,,,,,,,,,372.723126100027,372.7331649999833,372.7331649999833,373.5505818000529,g,1.0,0.8149822000414133,,,,,sub-229,1,stroop_test,59.87281818095085,
,,,,69.0,9.0,5.0,,,,,,,,,,,,,gelb,yellow,g,1.0,g,1.0,0.7482487999368459,,,,,,,,,,5.0,9.0,69.0,10.0,373.565905299969,,,,,,,,,,,,,,,,,373.5509714999935,374.365304899984,375.16506180004217,375.1492677000351,,,,,,,,,,,,,,,,,,,,,,,,,,,,,,,,,,,375.15000400005374,375.16506180004217,375.16506180004217,375.9158049999969,g,1.0,0.7482487999368459,,,,,sub-229,1,stroop_test,59.87281818095085,
,,,,70.0,10.0,5.0,,,,,,,,,,,,,blau,yellow,g,0.0,g,1.0,0.6067541000666097,,,,,,,,,,5.0,10.0,70.0,7.0,375.9311186000705,,,,,,,,,,,,,,,,,375.9161748000188,376.0310446000658,376.8307014000602,376.81481890007854,,,,,,,,,,,,,,,,,,,,,,,,,,,,,,,,,,,376.81836749997456,376.8307014000602,376.8307014000602,377.4483269000193,g,1.0,0.6067541000666097,,,,,sub-229,1,stroop_test,59.87281818095085,
,,,,71.0,11.0,5.0,,,,,,,,,,,,,rot,yellow,g,0.0,g,1.0,0.5910585999954492,,,,,,,,,,5.0,11.0,71.0,3.0,377.4634899999946,,,,,,,,,,,,,,,,,377.4487530000042,377.81337019999046,378.6129155000672,378.59666060004383,,,,,,,,,,,,,,,,,,,,,,,,,,,,,,,,,,,378.598102799966,378.6129155000672,378.6129155000672,379.21379860001616,g,1.0,0.5910585999954492,,,,,sub-229,1,stroop_test,59.87281818095085,
,,,,72.0,0.0,6.0,,,,,,,,,,,,,blau,yellow,g,0.0,g,1.0,0.9061147000174968,,,,,,,,,,6.0,0.0,72.0,7.0,379.22912020003423,,,,,,,,,,,,,,,,,379.214230600046,379.5786984000588,380.3783508000197,380.3621467000339,,,,,,,,,,,,,,,,,,,,,,,,,,,,,,,,,,,380.3643760000122,380.3783508000197,380.3783508000197,381.2958939999808,g,1.0,0.9061147000174968,,,,,sub-229,1,stroop_test,59.87281818095085,
,,,,73.0,1.0,6.0,,,,,,,,,,,,,gelb,yellow,g,1.0,g,1.0,0.4261513999663293,,,,,,,,,,6.0,1.0,73.0,11.0,381.3109422000125,,,,,,,,,,,,,,,,,381.2963378999848,381.4109001000179,382.2103095999919,382.1941650999943,,,,,,,,,,,,,,,,,,,,,,,,,,,,,,,,,,,382.19606059999205,382.2103095999919,382.2103095999919,382.6446456999984,g,1.0,0.4261513999663293,,,,,sub-229,1,stroop_test,59.87281818095085,
,,,,74.0,2.0,6.0,,,,,,,,,,,,,gelb,red,r,0.0,r,1.0,0.8013142000418156,,,,,,,,,,6.0,2.0,74.0,8.0,382.6602650000714,,,,,,,,,,,,,,,,,382.6449361999985,383.8596748000709,384.6591160000535,384.6429870000575,,,,,,,,,,,,,,,,,,,,,,,,,,,,,,,,,,,384.6433382000541,384.6591160000535,384.6591160000535,385.476528899977,r,1.0,0.8013142000418156,,,,,sub-229,1,stroop_test,59.87281818095085,
,,,,75.0,3.0,6.0,,,,,,,,,,,,,rot,red,r,1.0,b,0.0,0.2058965000323951,,,,,,,,,,6.0,3.0,75.0,0.0,385.49187120003626,,,,,,,,,,,,,,,,,385.4768953999737,385.8415586000774,386.64133200002834,386.62546040001325,,,,,,,,,,,,,,,,,,,,,,,,,,,,,,,,,,,386.6295492000645,386.64133200002834,386.64133200002834,386.8588858000003,b,0.0,0.2058965000323951,,,,,sub-229,1,stroop_test,59.87281818095085,
,,,,76.0,4.0,6.0,,,,,,,,,,,,,blau,blue,b,1.0,b,1.0,1.008195000002161,,,,,,,,,,6.0,4.0,76.0,5.0,386.8742174999789,,,,,,,,,,,,,,,,,386.8592575000366,387.67383680003695,388.4747361000627,388.4578132000752,,,,,,,,,,,,,,,,,,,,,,,,,,,,,,,,,,,388.4622477999656,388.4747361000627,388.4747361000627,389.49118140002247,b,1.0,1.008195000002161,,,,,sub-229,1,stroop_test,59.87281818095085,
,,,,77.0,5.0,6.0,,,,,,,,,,,,,gelb,yellow,g,1.0,g,1.0,1.107292499975301,,,,,,,,,,6.0,5.0,77.0,10.0,389.50619039998855,,,,,,,,,,,,,,,,,389.49171680002473,390.30564849998336,391.1052527000429,391.08851999999024,,,,,,,,,,,,,,,,,,,,,,,,,,,,,,,,,,,391.0901528999675,391.1052527000429,391.1052527000429,392.2221615000162,g,1.0,1.107292499975301,,,,,sub-229,1,stroop_test,59.87281818095085,
,,,,78.0,6.0,6.0,,,,,,,,,,,,,rot,red,r,1.0,r,1.0,1.98303349991329,,,,,,,,,,6.0,6.0,78.0,1.0,392.2376915999921,,,,,,,,,,,,,,,,,392.22248700005,393.0372911000159,393.8367855000543,393.8207978999708,,,,,,,,,,,,,,,,,,,,,,,,,,,,,,,,,,,393.8238677000627,393.8367855000543,393.8367855000543,395.8370530999964,r,1.0,1.98303349991329,,,,,sub-229,1,stroop_test,59.87281818095085,
,,,,79.0,7.0,6.0,,,,,,,,,,,,,rot,yellow,g,0.0,g,1.0,0.7899225000292063,,,,,,,,,,6.0,7.0,79.0,3.0,395.8522399000358,,,,,,,,,,,,,,,,,395.8374825000064,395.9522374999942,396.7517055000644,396.7358024000423,,,,,,,,,,,,,,,,,,,,,,,,,,,,,,,,,,,396.736418500077,396.7517055000644,396.7517055000644,397.5527125999797,g,1.0,0.7899225000292063,,,,,sub-229,1,stroop_test,59.87281818095085,
,,,,80.0,8.0,6.0,,,,,,,,,,,,,blau,red,r,0.0,r,1.0,1.188777899951674,,,,,,,,,,6.0,8.0,80.0,4.0,397.56795689999126,,,,,,,,,,,,,,,,,397.5531387999654,398.7672094000736,399.566476100008,399.5516014000168,,,,,,,,,,,,,,,,,,,,,,,,,,,,,,,,,,,399.5580999000231,399.566476100008,399.566476100008,400.7673693000106,r,1.0,1.188777899951674,,,,,sub-229,1,stroop_test,59.87281818095085,
,,,,81.0,9.0,6.0,,,,,,,,,,,,,blau,blue,b,1.0,b,1.0,0.80383690004237,,,,,,,,,,6.0,9.0,81.0,6.0,400.78257629997097,,,,,,,,,,,,,,,,,400.76781650003977,401.9818299000617,402.7812891000649,402.76543550007045,,,,,,,,,,,,,,,,,,,,,,,,,,,,,,,,,,,402.7660290000495,402.7812891000649,402.7812891000649,403.6003863000078,b,1.0,0.80383690004237,,,,,sub-229,1,stroop_test,59.87281818095085,
,,,,82.0,10.0,6.0,,,,,,,,,,,,,gelb,blue,b,0.0,b,1.0,1.144894800032489,,,,,,,,,,6.0,10.0,82.0,9.0,403.6141472000163,,,,,,,,,,,,,,,,,403.6013053000206,403.7141775999917,404.5136569000315,404.4977702000178,,,,,,,,,,,,,,,,,,,,,,,,,,,,,,,,,,,404.5021685999818,404.5136569000315,404.5136569000315,405.66359620005824,b,1.0,1.144894800032489,,,,,sub-229,1,stroop_test,59.87281818095085,
,,,,83.0,11.0,6.0,,,,,,,,,,,,,rot,blue,b,0.0,b,1.0,1.0745430999668315,,,,,,,,,,6.0,11.0,83.0,2.0,405.6795244000386,,,,,,,,,,,,,,,,,405.66378499998245,406.479043600033,407.278602699982,407.26267720002215,,,,,,,,,,,,,,,,,,,,,,,,,,,,,,,,,,,407.26697750005405,407.278602699982,407.278602699982,408.363586600055,b,1.0,1.0745430999668315,,,,,sub-229,1,stroop_test,59.87281818095085,
,,,,84.0,0.0,7.0,,,,,,,,,,,,,rot,red,r,1.0,r,1.0,0.8631919000763446,,,,,,,,,,7.0,0.0,84.0,1.0,408.378042700002,,,,,,,,,,,,,,,,,408.3643188000424,409.577136100037,410.3765535000712,410.3606176000321,,,,,,,,,,,,,,,,,,,,,,,,,,,,,,,,,,,410.3611595999682,410.3765535000712,410.3765535000712,411.2442621999653,r,1.0,0.8631919000763446,,,,,sub-229,1,stroop_test,59.87281818095085,
,,,,85.0,1.0,7.0,,,,,,,,,,,,,gelb,yellow,g,1.0,g,1.0,1.153949899948202,,,,,,,,,,7.0,1.0,85.0,11.0,411.25944060005713,,,,,,,,,,,,,,,,,411.244689000072,411.6092179999687,412.40874810004607,412.39479839999694,,,,,,,,,,,,,,,,,,,,,,,,,,,,,,,,,,,412.3999173999764,412.40874810004607,412.40874810004607,413.5764339000452,g,1.0,1.153949899948202,,,,,sub-229,1,stroop_test,59.87281818095085,
,,,,86.0,2.0,7.0,,,,,,,,,,,,,rot,blue,b,0.0,b,1.0,0.8841847000876442,,,,,,,,,,7.0,2.0,86.0,2.0,413.5912822000682,,,,,,,,,,,,,,,,,413.57700250006747,414.3909516000422,415.1903107999824,415.1745788999833,,,,,,,,,,,,,,,,,,,,,,,,,,,,,,,,,,,415.1793298000703,415.1903107999824,415.1903107999824,416.0906883999705,b,1.0,0.8841847000876442,,,,,sub-229,1,stroop_test,59.87281818095085,
,,,,87.0,3.0,7.0,,,,,,,,,,,,,gelb,yellow,g,1.0,g,1.0,2.452414799947292,,,,,,,,,,7.0,3.0,87.0,10.0,416.1063745999709,,,,,,,,,,,,,,,,,416.09092870005406,416.4562245999696,417.2558138000313,417.23987310007215,,,,,,,,,,,,,,,,,,,,,,,,,,,,,,,,,,,417.24339249997865,417.2558138000313,417.2558138000313,419.7231253000209,g,1.0,2.452414799947292,,,,,sub-229,1,stroop_test,59.87281818095085,
,,,,88.0,4.0,7.0,,,,,,,,,,,,,rot,yellow,g,0.0,g,1.0,0.7656004000455141,,,,,,,,,,7.0,4.0,88.0,3.0,419.73764800000936,,,,,,,,,,,,,,,,,419.723846900044,420.5370728999842,421.3366453000344,421.3201769000152,,,,,,,,,,,,,,,,,,,,,,,,,,,,,,,,,,,421.32159770000726,421.3366453000344,421.3366453000344,422.1042163000675,g,1.0,0.7656004000455141,,,,,sub-229,1,stroop_test,59.87281818095085,
,,,,89.0,5.0,7.0,,,,,,,,,,,,,gelb,blue,b,0.0,b,1.0,2.580959300044924,,,,,,,,,,7.0,5.0,89.0,9.0,422.1194013999775,,,,,,,,,,,,,,,,,422.1046556000365,422.91896939999424,423.718554400024,423.7025781000266,,,,,,,,,,,,,,,,,,,,,,,,,,,,,,,,,,,423.7067498000106,423.718554400024,423.718554400024,426.3015060999896,b,1.0,2.580959300044924,,,,,sub-229,1,stroop_test,59.87281818095085,
,,,,90.0,6.0,7.0,,,,,,,,,,,,,blau,blue,b,1.0,b,1.0,0.6354505000635982,,,,,,,,,,7.0,6.0,90.0,6.0,426.3168365000747,,,,,,,,,,,,,,,,,426.30192500003614,427.1163121999707,427.9158502999926,427.8995698000072,,,,,,,,,,,,,,,,,,,,,,,,,,,,,,,,,,,427.9016694000457,427.9158502999926,427.9158502999926,428.566944799968,b,1.0,0.6354505000635982,,,,,sub-229,1,stroop_test,59.87281818095085,
,,,,91.0,7.0,7.0,,,,,,,,,,,,,gelb,red,r,0.0,r,1.0,0.3673099000006914,,,,,,,,,,7.0,7.0,91.0,8.0,428.5820718000177,,,,,,,,,,,,,,,,,428.5671351000201,428.68222780001815,429.4816017000703,429.4656862000702,,,,,,,,,,,,,,,,,,,,,,,,,,,,,,,,,,,429.4698416000465,429.4816017000703,429.4816017000703,429.866121100029,r,1.0,0.3673099000006914,,,,,sub-229,1,stroop_test,59.87281818095085,
,,,,92.0,8.0,7.0,,,,,,,,,,,,,blau,blue,b,1.0,b,1.0,0.5960826999507844,,,,,,,,,,7.0,8.0,92.0,5.0,429.88134620001074,,,,,,,,,,,,,,,,,429.8665554000763,431.0806146999821,431.88020230003167,431.8644827000098,,,,,,,,,,,,,,,,,,,,,,,,,,,,,,,,,,,431.8688948000781,431.88020230003167,431.88020230003167,432.48193220002577,b,1.0,0.5960826999507844,,,,,sub-229,1,stroop_test,59.87281818095085,
,,,,93.0,9.0,7.0,,,,,,,,,,,,,blau,yellow,g,0.0,g,1.0,1.0483636000426486,,,,,,,,,,7.0,9.0,93.0,7.0,432.4964559000218,,,,,,,,,,,,,,,,,432.4826140999794,432.596261800034,433.3959546000697,433.38057130004745,,,,,,,,,,,,,,,,,,,,,,,,,,,,,,,,,,,433.38151850004215,433.3959546000697,433.3959546000697,434.4462749999948,g,1.0,1.0483636000426486,,,,,sub-229,1,stroop_test,59.87281818095085,
,,,,94.0,10.0,7.0,,,,,,,,,,,,,rot,red,r,1.0,r,1.0,0.8785583000862971,,,,,,,,,,7.0,10.0,94.0,0.0,434.4617636000039,,,,,,,,,,,,,,,,,434.4466442000121,434.81166000000667,435.6112015000545,435.59489339997526,,,,,,,,,,,,,,,,,,,,,,,,,,,,,,,,,,,435.5967894999776,435.6112015000545,435.6112015000545,436.49538990005385,r,1.0,0.8785583000862971,,,,,sub-229,1,stroop_test,59.87281818095085,
,,,,95.0,11.0,7.0,,,,,,,,,,,,,blau,red,r,0.0,r,1.0,0.764195799943991,,,,,,,,,,7.0,11.0,95.0,4.0,436.510476400028,,,,,,,,,,,,,,,,,436.4957609999692,437.7098490999779,438.5094430000754,438.4936711000046,,,,,,,,,,,,,,,,,,,,,,,,,,,,,,,,,,,438.4981558000436,438.5094430000754,438.5094430000754,439.2771584000439,r,1.0,0.764195799943991,,,,,sub-229,1,stroop_test,59.87281818095085,
,,,,96.0,0.0,8.0,,,,,,,,,,,,,gelb,yellow,g,1.0,g,1.0,1.3908879000227898,,,,,,,,,,8.0,0.0,96.0,11.0,439.29209670005366,,,,,,,,,,,,,,,,,439.277388800052,439.3921880000271,440.1917258000467,440.1761541999877,,,,,,,,,,,,,,,,,,,,,,,,,,,,,,,,,,,440.182901400025,440.1917258000467,440.1917258000467,441.5919154000003,g,1.0,1.3908879000227898,,,,,sub-229,1,stroop_test,59.87281818095085,
,,,,97.0,1.0,8.0,,,,,,,,,,,,,rot,red,r,1.0,r,1.0,0.7418621999677271,,,,,,,,,,8.0,1.0,97.0,1.0,441.6074690000387,,,,,,,,,,,,,,,,,441.5922541000182,442.4068849000614,443.2064843999688,443.1906299999682,,,,,,,,,,,,,,,,,,,,,,,,,,,,,,,,,,,443.1941918999655,443.2064843999688,443.2064843999688,443.9572773000691,r,1.0,0.7418621999677271,,,,,sub-229,1,stroop_test,59.87281818095085,
,,,,98.0,2.0,8.0,,,,,,,,,,,,,gelb,red,r,0.0,r,1.0,0.6309053999138996,,,,,,,,,,8.0,2.0,98.0,8.0,443.97258289996535,,,,,,,,,,,,,,,,,443.9576471999753,444.0726729000453,444.8722671000287,444.8562214999693,,,,,,,,,,,,,,,,,,,,,,,,,,,,,,,,,,,444.8612959000748,444.8722671000287,444.8722671000287,445.5061881999718,r,1.0,0.6309053999138996,,,,,sub-229,1,stroop_test,59.87281818095085,
,,,,99.0,3.0,8.0,,,,,,,,,,,,,gelb,yellow,g,1.0,g,1.0,0.8161198999732733,,,,,,,,,,8.0,3.0,99.0,10.0,445.5216867000563,,,,,,,,,,,,,,,,,445.5065842000768,445.8714981999947,446.67104280006606,446.6551967000123,,,,,,,,,,,,,,,,,,,,,,,,,,,,,,,,,,,446.65582630003337,446.67104280006606,446.67104280006606,447.48923040006775,g,1.0,0.8161198999732733,,,,,sub-229,1,stroop_test,59.87281818095085,
,,,,100.0,4.0,8.0,,,,,,,,,,,,,rot,yellow,g,0.0,g,1.0,0.6617501999717206,,,,,,,,,,8.0,4.0,100.0,3.0,447.5037960000336,,,,,,,,,,,,,,,,,447.4897516000783,448.70317069999874,449.5027044999879,449.4869078000775,,,,,,,,,,,,,,,,,,,,,,,,,,,,,,,,,,,449.49131339997984,449.5027044999879,449.5027044999879,450.1702067999868,g,1.0,0.6617501999717206,,,,,sub-229,1,stroop_test,59.87281818095085,
,,,,101.0,5.0,8.0,,,,,,,,,,,,,rot,blue,b,0.0,b,1.0,0.5220396000659093,,,,,,,,,,8.0,5.0,101.0,2.0,450.1855932000326,,,,,,,,,,,,,,,,,450.1706407000311,450.5352837999817,451.3348515999969,451.3193013999844,,,,,,,,,,,,,,,,,,,,,,,,,,,,,,,,,,,451.32001590006985,451.3348515999969,451.3348515999969,451.8696995000355,b,1.0,0.5220396000659093,,,,,sub-229,1,stroop_test,59.87281818095085,
,,,,102.0,6.0,8.0,,,,,,,,,,,,,blau,red,r,0.0,r,1.0,0.5483785999240354,,,,,,,,,,8.0,6.0,102.0,4.0,451.8844870000612,,,,,,,,,,,,,,,,,451.8702516000485,452.2343236000743,453.0338860000484,453.018176099984,,,,,,,,,,,,,,,,,,,,,,,,,,,,,,,,,,,453.0226752000162,453.0338860000484,453.0338860000484,453.5847044000402,r,1.0,0.5483785999240354,,,,,sub-229,1,stroop_test,59.87281818095085,
,,,,103.0,7.0,8.0,,,,,,,,,,,,,rot,red,r,1.0,r,1.0,0.8251484999200329,,,,,,,,,,8.0,7.0,103.0,0.0,453.6001381999813,,,,,,,,,,,,,,,,,453.5850757000735,454.3996386000654,455.19920340005774,455.1833773000399,,,,,,,,,,,,,,,,,,,,,,,,,,,,,,,,,,,455.1877209000522,455.19920340005774,455.19920340005774,456.03270260000136,r,1.0,0.8251484999200329,,,,,sub-229,1,stroop_test,59.87281818095085,
,,,,104.0,8.0,8.0,,,,,,,,,,,,,gelb,blue,b,0.0,b,1.0,0.8278853999217972,,,,,,,,,,8.0,8.0,104.0,9.0,456.0485021000495,,,,,,,,,,,,,,,,,456.0329277999699,456.8482095999643,457.64734729996417,457.63198559999,,,,,,,,,,,,,,,,,,,,,,,,,,,,,,,,,,,457.6366955999984,457.64734729996417,457.64734729996417,458.48290559998713,b,1.0,0.8278853999217972,,,,,sub-229,1,stroop_test,59.87281818095085,
,,,,105.0,9.0,8.0,,,,,,,,,,,,,blau,blue,b,1.0,b,1.0,1.0692963999463243,,,,,,,,,,8.0,9.0,105.0,6.0,458.4970716000535,,,,,,,,,,,,,,,,,458.4831386000151,458.8469376000576,459.6463681000751,459.63049910007976,,,,,,,,,,,,,,,,,,,,,,,,,,,,,,,,,,,459.63440670003183,459.6463681000751,459.6463681000751,460.7306808000431,b,1.0,1.0692963999463243,,,,,sub-229,1,stroop_test,59.87281818095085,
,,,,106.0,10.0,8.0,,,,,,,,,,,,,blau,yellow,g,0.0,g,1.0,2.103561899974011,,,,,,,,,,8.0,10.0,106.0,7.0,460.7457113000564,,,,,,,,,,,,,,,,,460.7312332000584,460.8456427999772,461.64519159996416,461.6293051000685,,,,,,,,,,,,,,,,,,,,,,,,,,,,,,,,,,,461.6298931000056,461.64519159996416,461.64519159996416,463.76174139999785,g,1.0,2.103561899974011,,,,,sub-229,1,stroop_test,59.87281818095085,
,,,,107.0,11.0,8.0,,,,,,,,,,,,,blau,blue,b,1.0,b,1.0,1.1340375000145286,,,,,,,,,,8.0,11.0,107.0,5.0,463.7771035999758,,,,,,,,,,,,,,,,,463.7621107000159,464.57662810001057,465.3762864000164,465.3606087999651,,,,,,,,,,,,,,,,,,,,,,,,,,,,,,,,,,,465.36132670007646,465.3762864000164,465.3762864000164,466.5271671999944,b,1.0,1.1340375000145286,,,,,sub-229,1,stroop_test,59.87281818095085,
,,,,108.0,0.0,9.0,,,,,,,,,,,,,gelb,yellow,g,1.0,g,1.0,2.713034400017932,,,,,,,,,,9.0,0.0,108.0,10.0,466.5421314999694,,,,,,,,,,,,,,,,,466.52769989997614,466.8919020000613,467.69138199999,467.6756348999916,,,,,,,,,,,,,,,,,,,,,,,,,,,,,,,,,,,467.6809916000348,467.69138199999,467.69138199999,470.4082869000267,g,1.0,2.713034400017932,,,,,sub-229,1,stroop_test,59.87281818095085,
,,,,109.0,1.0,9.0,,,,,,,,,,,,,gelb,yellow,g,1.0,g,1.0,0.6132012000307441,,,,,,,,,,9.0,1.0,109.0,11.0,470.423078599968,,,,,,,,,,,,,,,,,470.4088259000564,471.2227148000384,472.0222328000236,472.0062957999762,,,,,,,,,,,,,,,,,,,,,,,,,,,,,,,,,,,472.0070501000155,472.0222328000236,472.0222328000236,472.6396781000076,g,1.0,0.6132012000307441,,,,,sub-229,1,stroop_test,59.87281818095085,
,,,,110.0,2.0,9.0,,,,,,,,,,,,,blau,blue,b,1.0,b,1.0,1.8949112999252973,,,,,,,,,,9.0,2.0,110.0,5.0,472.654991599964,,,,,,,,,,,,,,,,,472.6401202999986,473.4546161000617,474.2541244999738,474.2383019999834,,,,,,,,,,,,,,,,,,,,,,,,,,,,,,,,,,,474.2423086999916,474.2541244999738,474.2541244999738,476.1540971000213,b,1.0,1.8949112999252973,,,,,sub-229,1,stroop_test,59.87281818095085,
,,,,111.0,3.0,9.0,,,,,,,,,,,,,blau,red,r,0.0,r,1.0,0.945475099957548,,,,,,,,,,9.0,3.0,111.0,4.0,476.1694815000519,,,,,,,,,,,,,,,,,476.1544672000455,476.96900729998015,477.76867160003167,477.7522747999756,,,,,,,,,,,,,,,,,,,,,,,,,,,,,,,,,,,477.75257210002746,477.76867160003167,477.76867160003167,478.71914010006,r,1.0,0.945475099957548,,,,,sub-229,1,stroop_test,59.87281818095085,
,,,,112.0,4.0,9.0,,,,,,,,,,,,,gelb,red,r,0.0,r,1.0,1.1047012999188155,,,,,,,,,,9.0,4.0,112.0,8.0,478.7344113000436,,,,,,,,,,,,,,,,,478.71951980004087,479.9338756999932,480.7333581000567,480.71780220000073,,,,,,,,,,,,,,,,,,,,,,,,,,,,,,,,,,,480.7230832000496,480.7333581000567,480.7333581000567,481.8505261000246,r,1.0,1.1047012999188155,,,,,sub-229,1,stroop_test,59.87281818095085,
,,,,113.0,5.0,9.0,,,,,,,,,,,,,rot,blue,b,0.0,b,1.0,1.631036499980837,,,,,,,,,,9.0,5.0,113.0,2.0,481.86594030004926,,,,,,,,,,,,,,,,,481.8508974000579,481.96596729999874,482.7654722000007,482.7495970000746,,,,,,,,,,,,,,,,,,,,,,,,,,,,,,,,,,,482.753168300027,482.7654722000007,482.7654722000007,484.3997438000515,b,1.0,1.631036499980837,,,,,sub-229,1,stroop_test,59.87281818095085,
,,,,114.0,6.0,9.0,,,,,,,,,,,,,gelb,blue,b,0.0,b,1.0,2.6721581999445334,,,,,,,,,,9.0,6.0,114.0,9.0,484.4144170000218,,,,,,,,,,,,,,,,,484.4003198000137,485.6137105000671,486.4131948000286,486.3975729000522,,,,,,,,,,,,,,,,,,,,,,,,,,,,,,,,,,,486.4028796000639,486.4131948000286,486.4131948000286,489.0963512000162,b,1.0,2.6721581999445334,,,,,sub-229,1,stroop_test,59.87281818095085,
,,,,115.0,7.0,9.0,,,,,,,,,,,,,blau,yellow,g,0.0,g,1.0,0.8722635000012815,,,,,,,,,,9.0,7.0,115.0,7.0,489.1114892000333,,,,,,,,,,,,,,,,,489.0967875000788,490.3108784999931,491.1104877999751,491.0948904000688,,,,,,,,,,,,,,,,,,,,,,,,,,,,,,,,,,,491.1007315000752,491.1104877999751,491.1104877999751,491.9936812999658,g,1.0,0.8722635000012815,,,,,sub-229,1,stroop_test,59.87281818095085,
,,,,116.0,8.0,9.0,,,,,,,,,,,,,rot,red,r,1.0,r,1.0,0.9259148000273854,,,,,,,,,,9.0,8.0,116.0,1.0,492.00964930001646,,,,,,,,,,,,,,,,,491.99392270005774,492.0930027000141,492.89258780004457,492.8769764000317,,,,,,,,,,,,,,,,,,,,,,,,,,,,,,,,,,,492.8820023000008,492.89258780004457,492.89258780004457,493.82802300003823,r,1.0,0.9259148000273854,,,,,sub-229,1,stroop_test,59.87281818095085,
,,,,117.0,9.0,9.0,,,,,,,,,,,,,rot,yellow,g,0.0,g,1.0,3.932276600040496,,,,,,,,,,9.0,9.0,117.0,3.0,493.8421309000114,,,,,,,,,,,,,,,,,493.8287048999919,494.6416797999991,495.4410873000743,495.4254176999675,,,,,,,,,,,,,,,,,,,,,,,,,,,,,,,,,,,495.4262125999667,495.4410873000743,495.4410873000743,499.3908999999985,g,1.0,3.932276600040496,,,,,sub-229,1,stroop_test,59.87281818095085,
,,,,118.0,10.0,9.0,,,,,,,,,,,,,blau,blue,b,1.0,b,1.0,0.7313505000201985,,,,,,,,,,9.0,10.0,118.0,6.0,499.4054043000797,,,,,,,,,,,,,,,,,499.3916634999914,499.5053490999853,500.3048958000727,500.28931490005925,,,,,,,,,,,,,,,,,,,,,,,,,,,,,,,,,,,500.2951468999963,500.3048958000727,500.3048958000727,501.0386934999842,b,1.0,0.7313505000201985,,,,,sub-229,1,stroop_test,59.87281818095085,
,,,,119.0,11.0,9.0,,,,,,,,,,,,,rot,red,r,1.0,r,1.0,0.6862532999366522,,,,,,,,,,9.0,11.0,119.0,0.0,501.0541280000471,,,,,,,,,,,,,,,,,501.0390324000036,502.2535360000329,503.05293500004336,503.0367804999696,,,,,,,,,,,,,,,,,,,,,,,,,,,,,,,,,,,503.03852499998175,503.05293500004336,503.05293500004336,503.753349000006,r,1.0,0.6862532999366522,,,,,sub-229,1,stroop_test,59.87281818095085,
,,,,,,,,,,,,,,,,,,,,,,,,,,,,,,,,,,,,,,,,,,,,,,,,,,,,,,,,,,,,,,,,,,,,,,,,,,,,,,,,,,,,,,,,,,,,,,,,,,,,,,503.7534628000576,503.7692502000136,508.7703916999744,sub-229,1,stroop_test,59.87281818095085,
