wordCTK,colorCTK,corrAnsCTK,congruentCTK,thisN,thisTrialN,thisRepN,keyResp_CTK.keys,keyResp_CTK.corr,keyResp_CTK.rt,keyResp_CTK.duration,wordPractice,colorPractice,corrAnsPractice,congruentPractice,respPractice.keys,respPractice.corr,respPractice.rt,respPractice.duration,word,color,corrAns,congruent,keyResp_test_run.keys,keyResp_test_run.corr,keyResp_test_run.rt,keyResp_test_run.duration,trials_CTK.thisRepN,trials_CTK.thisTrialN,trials_CTK.thisN,trials_CTK.thisIndex,trials_practice.thisRepN,trials_practice.thisTrialN,trials_practice.thisN,trials_practice.thisIndex,trials_test.thisRepN,trials_test.thisTrialN,trials_test.thisN,trials_test.thisIndex,thisRow.t,notes,instruction.started,instr_text.started,instr_image.started,instr_resp.started,instruction.stopped,instr_resp.keys,instr_resp.rt,instr_resp.duration,instr_color_to_key.started,instr_ctk.started,resp_ctk.started,instr_color_to_key.stopped,resp_ctk.keys,resp_ctk.rt,resp_ctk.duration,ITI.started,fixcross.started,fixcross.stopped,ITI.stopped,color_to_key_run.started,stimulus_CTK.started,keyResp_CTK.started,color_to_key_run.stopped,trials_CTK.keyResp_CTK.keys,trials_CTK.keyResp_CTK.corr,trials_CTK.keyResp_CTK.rt,trials_CTK.keyResp_CTK.duration,instr_practice.started,instr_practice_text.started,instr_practice_resp.started,instr_practice.stopped,instr_practice_resp.keys,instr_practice_resp.rt,instr_practice_resp.duration,practice_run.started,stimulus_practice.started,respPractice.started,practice_run.stopped,trials_practice.respPractice.keys,trials_practice.respPractice.corr,trials_practice.respPractice.rt,trials_practice.respPractice.duration,feedback.started,textFeedback.started,feedback.stopped,textFeedback.stopped,instr_test.started,instr_test_text.started,instr_test_resp.started,instr_test.stopped,instr_test_resp.keys,instr_test_resp.rt,instr_test_resp.duration,test_run.started,stimulus_test_run.started,keyResp_test_run.started,test_run.stopped,trials_test.keyResp_test_run.keys,trials_test.keyResp_test_run.corr,trials_test.keyResp_test_run.rt,trials_test.keyResp_test_run.duration,goodbye.started,textGoodbye.started,textGoodbye.stopped,goodbye.stopped,participant,session,expName,frameRate,Unnamed: 113
,,,,,,,,,,,,,,,,,,,,,,,,,,,,,,,,,,,,,,,,,0.0074815420000504,0.0139657920001354,0.0139657920001354,0.0139657920001354,34.933086125000045,space,34.88133833400002,,,,,,,,,,,,,,,,,,,,,,,,,,,,,,,,,,,,,,,,,,,,,,,,,,,,,,,,,,,sub-113,1,stroop_test,,
,,,,,,,,,,,,,,,,,,,,,,,,,,,,,,,,,,,,,,,,,,,,,,,,,34.933161000000155,34.945599208999965,34.945599208999965,35.74381204200017,space,0.7925251250001111,,,,,,,,,,,,,,,,,,,,,,,,,,,,,,,,,,,,,,,,,,,,,,,,,,,,sub-113,1,stroop_test,,
test,red,r,1.0,0.0,0.0,0.0,r,1.0,0.8032037079999554,,,,,,,,,,,,,,,,,,0.0,0.0,0.0,0.0,,,,,,,,,35.77059016700014,,,,,,,,,,,,,,,,,35.75843791700004,36.09568633399999,36.89681645900009,36.882551917,36.88888129200018,36.89681645900009,36.89681645900009,37.71021854200012,r,1.0,0.8032037079999554,,,,,,,,,,,,,,,,,,,,,,,,,,,,,,,,,,,,,,,,sub-113,1,stroop_test,,
test,yellow,g,1.0,1.0,1.0,0.0,g,1.0,0.5000055830000747,,,,,,,,,,,,,,,,,,0.0,1.0,1.0,1.0,,,,,,,,,37.720316959,,,,,,,,,,,,,,,,,37.710749834000126,38.05867887500017,38.85916316700013,38.84340570900008,38.84402437500012,38.85916316700013,38.85916316700013,39.36256058399999,g,1.0,0.5000055830000747,,,,,,,,,,,,,,,,,,,,,,,,,,,,,,,,,,,,,,,,sub-113,1,stroop_test,,
test,blue,b,1.0,2.0,2.0,0.0,b,1.0,0.3591732919999231,,,,,,,,,,,,,,,,,,0.0,2.0,2.0,2.0,,,,,,,,,39.37158700000009,,,,,,,,,,,,,,,,,39.36299995900004,40.55710799999997,41.35201941700007,41.34281350000015,41.34379483400016,41.35201941700007,41.35201941700007,41.72866262499997,b,1.0,0.3591732919999231,,,,,,,,,,,,,,,,,,,,,,,,,,,,,,,,,,,,,,,,sub-113,1,stroop_test,,
test,blue,b,1.0,3.0,0.0,1.0,b,1.0,0.6383637910000743,,,,,,,,,,,,,,,,,,1.0,0.0,3.0,2.0,,,,,,,,,41.74142087500013,,,,,,,,,,,,,,,,,41.72933179200004,42.09212166700013,42.880284416999984,42.87511079199999,42.87531920900005,42.880284416999984,42.880284416999984,43.52749820899999,b,1.0,0.6383637910000743,,,,,,,,,,,,,,,,,,,,,,,,,,,,,,,,,,,,,,,,sub-113,1,stroop_test,,
test,yellow,g,1.0,4.0,1.0,1.0,g,1.0,0.9028121669998654,,,,,,,,,,,,,,,,,,1.0,1.0,4.0,1.0,,,,,,,,,43.54194945900008,,,,,,,,,,,,,,,,,43.52801583400014,44.32530320900014,45.117500084000085,45.1090408340001,45.109731250000095,45.117500084000085,45.117500084000085,46.02767058400013,g,1.0,0.9028121669998654,,,,,,,,,,,,,,,,,,,,,,,,,,,,,,,,,,,,,,,,sub-113,1,stroop_test,,
test,red,r,1.0,5.0,2.0,1.0,r,1.0,0.733168624999962,,,,,,,,,,,,,,,,,,1.0,2.0,5.0,0.0,,,,,,,,,46.03812274999996,,,,,,,,,,,,,,,,,46.02822000000015,46.82509479200007,47.6176626670001,47.60912562500016,47.61003908400016,47.6176626670001,47.6176626670001,48.36042333399996,r,1.0,0.733168624999962,,,,,,,,,,,,,,,,,,,,,,,,,,,,,,,,,,,,,,,,sub-113,1,stroop_test,,
test,blue,b,1.0,6.0,0.0,2.0,b,1.0,0.6743440420000297,,,,,,,,,,,,,,,,,,2.0,0.0,6.0,2.0,,,,,,,,,48.37084595900001,,,,,,,,,,,,,,,,,48.36094716700018,48.70841791700013,49.50097308400018,49.492639458999975,49.49330537500009,49.50097308400018,49.50097308400018,50.17853075000016,b,1.0,0.6743440420000297,,,,,,,,,,,,,,,,,,,,,,,,,,,,,,,,,,,,,,,,sub-113,1,stroop_test,,
test,red,r,1.0,7.0,1.0,2.0,r,1.0,0.8572213340000872,,,,,,,,,,,,,,,,,,2.0,1.0,7.0,0.0,,,,,,,,,50.18877895900005,,,,,,,,,,,,,,,,,50.179076916999975,51.375072959000136,52.168527584,52.15946050000002,52.16044424999996,52.168527584,52.168527584,53.028788374999976,r,1.0,0.8572213340000872,,,,,,,,,,,,,,,,,,,,,,,,,,,,,,,,,,,,,,,,sub-113,1,stroop_test,,
test,yellow,g,1.0,8.0,2.0,2.0,g,1.0,0.7788246249999702,,,,,,,,,,,,,,,,,,2.0,2.0,8.0,1.0,,,,,,,,,53.03892737499996,,,,,,,,,,,,,,,,,53.02930775000005,53.82521858400014,54.625037625,54.61418937500002,54.614790084000106,54.625037625,54.625037625,55.410121249999975,g,1.0,0.7788246249999702,,,,,,,,,,,,,,,,,,,,,,,,,,,,,,,,,,,,,,,,sub-113,1,stroop_test,,
test,blue,b,1.0,9.0,0.0,3.0,b,1.0,0.6499605420001444,,,,,,,,,,,,,,,,,,3.0,0.0,9.0,2.0,,,,,,,,,55.42009691700014,,,,,,,,,,,,,,,,,55.41063666700006,56.60828020899999,57.4011754170001,57.39266112500013,57.39355075000003,57.4011754170001,57.4011754170001,58.06035041700011,b,1.0,0.6499605420001444,,,,,,,,,,,,,,,,,,,,,,,,,,,,,,,,,,,,,,,,sub-113,1,stroop_test,,
test,yellow,g,1.0,10.0,1.0,3.0,g,1.0,0.9569601250000233,,,,,,,,,,,,,,,,,,3.0,1.0,10.0,1.0,,,,,,,,,58.07058825000013,,,,,,,,,,,,,,,,,58.06088891700006,59.25839920900012,60.05132800000001,60.042363042000034,60.0432592090001,60.05132800000001,60.05132800000001,61.011215084000014,g,1.0,0.9569601250000233,,,,,,,,,,,,,,,,,,,,,,,,,,,,,,,,,,,,,,,,sub-113,1,stroop_test,,
test,red,r,1.0,11.0,2.0,3.0,r,1.0,0.8980592920001982,,,,,,,,,,,,,,,,,,3.0,2.0,11.0,0.0,,,,,,,,,61.02156341700015,,,,,,,,,,,,,,,,,61.01176520900003,61.80820762500002,62.60032791699996,62.59192837500018,62.592751959,62.60032791699996,62.60032791699996,63.5107035420001,r,1.0,0.8980592920001982,,,,,,,,,,,,,,,,,,,,,,,,,,,,,,,,,,,,,,,,sub-113,1,stroop_test,,
,,,,,,,,,,,,,,,,,,,,,,,,,,,,,,,,,,,,,,,,,,,,,,,,,,,,,,,,,,,,,,,,,,,,63.5109614590001,63.52299204200017,63.52299204200017,64.77654087500014,space,1.2479769999999917,,,,,,,,,,,,,,,,,,,,,,,,,,,,,,,,,sub-113,1,stroop_test,,
,,,,0.0,0.0,0.0,,,,,gelb,yellow,g,1.0,g,1.0,0.5344954999998208,,,,,,,,,,,,,,0.0,0.0,0.0,10.0,,,,,64.79872245900015,,,,,,,,,,,,,,,,,64.79005470900006,65.97511262500007,66.77426025,66.75903916700008,,,,,,,,,,,,,,,,66.76615437500004,66.77426025,66.77426025,67.31205999999997,g,1.0,0.5344954999998208,,67.31949200000008,67.33028695899998,68.31528437500015,,,,,,,,,,,,,,,,,,,,,sub-113,1,stroop_test,,
,,,,1.0,1.0,0.0,,,,,blau,blue,b,1.0,b,1.0,0.4763106249999964,,,,,,,,,,,,,,0.0,1.0,1.0,5.0,,,,,68.32506654200006,,,,,,,,,,,,,,,,,68.31570283400015,68.6579025420001,69.45709362499997,69.44264591700016,,,,,,,,,,,,,,,,69.4490511670001,69.45709362499997,69.45709362499997,69.94378475000008,b,1.0,0.4763106249999964,,69.94454887500001,69.95567958400011,70.942292834,70.948917875,,,,,,,,,,,,,,,,,,,,sub-113,1,stroop_test,,
,,,,2.0,2.0,0.0,,,,,blau,blue,b,1.0,b,1.0,0.4871020830000816,,,,,,,,,,,,,,0.0,2.0,2.0,6.0,,,,,70.948917875,,,,,,,,,,,,,,,,,70.94279666700004,72.14171683400014,72.93435475000001,72.92585250000002,,,,,,,,,,,,,,,,72.92675558400015,72.93435475000001,72.93435475000001,73.42745041700005,b,1.0,0.4871020830000816,,73.42821958400009,73.43943083400018,74.42533908400014,74.431210125,,,,,,,,,,,,,,,,,,,,sub-113,1,stroop_test,,
,,,,3.0,3.0,0.0,,,,,gelb,red,r,0.0,r,1.0,1.7104160420001335,,,,,,,,,,,,,,0.0,3.0,3.0,8.0,,,,,74.431210125,,,,,,,,,,,,,,,,,74.42571620900003,74.774835209,75.57133854200015,75.559121667,,,,,,,,,,,,,,,,75.563919209,75.57133854200015,75.57133854200015,77.28413487500006,r,1.0,1.7104160420001335,,77.28490983400002,77.29633200000012,78.2821301670001,78.29152854200015,,,,,,,,,,,,,,,,,,,,sub-113,1,stroop_test,,
,,,,4.0,4.0,0.0,,,,,rot,red,r,1.0,r,1.0,0.6290279579998241,,,,,,,,,,,,,,0.0,4.0,4.0,1.0,,,,,78.29152854200015,,,,,,,,,,,,,,,,,78.28244579200009,79.08199304200002,79.88181608400009,79.86553679200006,,,,,,,,,,,,,,,,79.87069420900002,79.88181608400009,79.88181608400009,80.51745787499999,r,1.0,0.6290279579998241,,80.51824583400003,80.52990004200001,81.51583100000016,81.52436258400007,,,,,,,,,,,,,,,,,,,,sub-113,1,stroop_test,,
,,,,5.0,5.0,0.0,,,,,blau,yellow,g,0.0,g,1.0,1.3986030420001043,,,,,,,,,,,,,,0.0,5.0,5.0,7.0,,,,,81.52436258400007,,,,,,,,,,,,,,,,,81.51628987499998,82.315080459,83.110865375,83.09894900000018,,,,,,,,,,,,,,,,83.102706292,83.110865375,83.110865375,84.51729883400003,g,1.0,1.3986030420001043,,84.51813712500007,84.5294073340001,85.51544991700007,85.52486091700007,,,,,,,,,,,,,,,,,,,,sub-113,1,stroop_test,,
,,,,6.0,6.0,0.0,,,,,gelb,yellow,g,1.0,g,1.0,0.8026097919998847,,,,,,,,,,,,,,0.0,6.0,6.0,11.0,,,,,85.52486091700007,,,,,,,,,,,,,,,,,85.51581420900015,85.6151137920001,86.41095458400014,86.39889883399997,,,,,,,,,,,,,,,,86.40334804200006,86.41095458400014,86.41095458400014,87.21749150000005,g,1.0,0.8026097919998847,,87.21828275000007,87.22968025,88.21598408399996,88.22322962500016,,,,,,,,,,,,,,,,,,,,sub-113,1,stroop_test,,
,,,,7.0,7.0,0.0,,,,,rot,yellow,g,0.0,g,1.0,1.5443843329999254,,,,,,,,,,,,,,0.0,7.0,7.0,3.0,,,,,88.22322962500016,,,,,,,,,,,,,,,,,88.21641516700015,88.31546954200007,89.12428062499998,89.10902579200001,,,,,,,,,,,,,,,,89.11325745900012,89.12428062499998,89.12428062499998,90.676787375,g,1.0,1.5443843329999254,,90.67758454199998,90.68874112499998,91.67523758400012,91.68124329200008,,,,,,,,,,,,,,,,,,,,sub-113,1,stroop_test,,
,,,,8.0,8.0,0.0,,,,,blau,red,r,0.0,r,1.0,1.0253406660001474,,,,,,,,,,,,,,0.0,8.0,8.0,4.0,,,,,91.68124329200008,,,,,,,,,,,,,,,,,91.67555816699996,92.87488162500016,93.67099200000008,93.65904895900007,,,,,,,,,,,,,,,,93.66346720900016,93.67099200000008,93.67099200000008,94.70039183400011,r,1.0,1.0253406660001474,,94.70121983400009,94.7127720420001,95.69878975000006,95.70797549999996,,,,,,,,,,,,,,,,,,,,sub-113,1,stroop_test,,
,,,,9.0,9.0,0.0,,,,,rot,blue,b,0.0,b,1.0,1.6797869580000224,,,,,,,,,,,,,,0.0,9.0,9.0,2.0,,,,,95.70797549999996,,,,,,,,,,,,,,,,,95.69916316700004,96.898458334,97.69632583400016,97.682468084,,,,,,,,,,,,,,,,97.68632483400006,97.69632583400016,97.69632583400016,99.38398812500007,b,1.0,1.6797869580000224,,99.38478033399996,99.39635804199996,100.38227833400016,100.39133258400012,,,,,,,,,,,,,,,,,,,,sub-113,1,stroop_test,,
,,,,10.0,10.0,0.0,,,,,gelb,blue,b,0.0,b,1.0,0.8649580829999195,,,,,,,,,,,,,,0.0,10.0,10.0,9.0,,,,,100.39133258400012,,,,,,,,,,,,,,,,,100.38272591700002,101.58168491700008,102.37674470900016,102.36491991700018,,,,,,,,,,,,,,,,102.36866062500008,102.37674470900016,102.37674470900016,103.24523425000008,b,1.0,0.8649580829999195,,103.2460463750001,103.25788220900016,104.24228641700006,104.24891020900009,,,,,,,,,,,,,,,,,,,,sub-113,1,stroop_test,,
,,,,11.0,11.0,0.0,,,,,rot,red,r,1.0,r,1.0,1.0175167080001302,,,,,,,,,,,,,,0.0,11.0,11.0,0.0,,,,,104.24891020900009,,,,,,,,,,,,,,,,,104.24291387500011,104.59149075000003,105.39133700000002,105.37553541700004,,,,,,,,,,,,,,,,105.38023591700016,105.39133700000002,105.39133700000002,106.42205824999996,r,1.0,1.0175167080001302,,106.42269429199996,106.42938070900004,107.41548375000002,107.424822167,,,,,,,,,,,,,,,,,,,,sub-113,1,stroop_test,,
,,,,12.0,0.0,1.0,,,,,blau,blue,b,1.0,b,1.0,0.5520099159998608,,,,,,,,,,,,,,1.0,0.0,12.0,5.0,,,,,107.424822167,,,,,,,,,,,,,,,,,107.41593654200004,107.76487500000007,108.56060187499996,108.54889683400006,,,,,,,,,,,,,,,,108.55336108400002,108.56060187499996,108.56060187499996,109.11651808400006,b,1.0,0.5520099159998608,,109.11729579200004,109.128262834,110.11472600000002,110.124758209,,,,,,,,,,,,,,,,,,,,sub-113,1,stroop_test,,
,,,,13.0,1.0,1.0,,,,,gelb,blue,b,0.0,b,1.0,1.433890374999919,,,,,,,,,,,,,,1.0,1.0,13.0,9.0,,,,,110.124758209,,,,,,,,,,,,,,,,,110.11532879200011,110.46506833400008,111.260155834,111.24841625,,,,,,,,,,,,,,,,111.25223570900016,111.260155834,111.260155834,112.70054866700002,b,1.0,1.433890374999919,,112.70133520900004,112.712878542,113.69871275000014,113.7079973750001,,,,,,,,,,,,,,,,,,,,sub-113,1,stroop_test,,
,,,,14.0,2.0,1.0,,,,,rot,blue,b,0.0,b,1.0,0.5367085419998148,,,,,,,,,,,,,,1.0,2.0,14.0,2.0,,,,,113.7079973750001,,,,,,,,,,,,,,,,,113.69915816700018,114.89855958400015,115.69517250000013,115.68168820899996,,,,,,,,,,,,,,,,115.68536291700002,115.69517250000013,115.69517250000013,116.23557316699998,b,1.0,0.5367085419998148,,116.23645395900007,116.24824395900008,117.23218970900008,117.24133462500004,,,,,,,,,,,,,,,,,,,,sub-113,1,stroop_test,,
,,,,15.0,3.0,1.0,,,,,blau,red,r,0.0,r,1.0,1.8721944579999672,,,,,,,,,,,,,,1.0,3.0,15.0,4.0,,,,,117.24133462500004,,,,,,,,,,,,,,,,,117.232623375,117.33179629200004,118.13688891700008,118.12519387500016,,,,,,,,,,,,,,,,118.12940316699996,118.13688891700008,118.13688891700008,120.01690962500015,r,1.0,1.8721944579999672,,120.01770891700016,120.029508417,121.01525212499996,121.0246454170001,,,,,,,,,,,,,,,,,,,,sub-113,1,stroop_test,,
,,,,16.0,4.0,1.0,,,,,gelb,red,r,0.0,r,1.0,0.7650293750000401,,,,,,,,,,,,,,1.0,4.0,16.0,8.0,,,,,121.0246454170001,,,,,,,,,,,,,,,,,121.01561733400013,122.21515912500011,123.019188709,123.0085240840001,,,,,,,,,,,,,,,,123.01211420900016,123.019188709,123.019188709,123.79425395900012,r,1.0,0.7650293750000401,,123.79517520900004,123.80719233400008,124.79228583400004,124.79881616700004,,,,,,,,,,,,,,,,,,,,sub-113,1,stroop_test,,
,,,,17.0,5.0,1.0,,,,,blau,blue,b,1.0,b,1.0,0.5384205410000504,,,,,,,,,,,,,,1.0,5.0,17.0,6.0,,,,,124.79881616700004,,,,,,,,,,,,,,,,,124.79295304200014,125.59153183400008,126.38759845900016,126.375549375,,,,,,,,,,,,,,,,126.380119917,126.38759845900016,126.38759845900016,126.93342825000012,b,1.0,0.5384205410000504,,126.93429887499995,126.94577908400016,127.931192667,127.94118400000002,,,,,,,,,,,,,,,,,,,,sub-113,1,stroop_test,,
,,,,18.0,6.0,1.0,,,,,rot,red,r,1.0,r,1.0,2.3003763750000417,,,,,,,,,,,,,,1.0,6.0,18.0,0.0,,,,,127.94118400000002,,,,,,,,,,,,,,,,,127.931649375,128.28180300000008,129.09194366700012,129.07546891700008,,,,,,,,,,,,,,,,129.0806862500001,129.09194366700012,129.09194366700012,131.39902745900008,r,1.0,2.3003763750000417,,131.39951808399996,131.42381812500005,132.40795437500014,,,,,,,,,,,,,,,,,,,,,sub-113,1,stroop_test,,
,,,,19.0,7.0,1.0,,,,,rot,yellow,g,0.0,g,1.0,1.7580368330000056,,,,,,,,,,,,,,1.0,7.0,19.0,3.0,,,,,132.41391199999998,,,,,,,,,,,,,,,,,132.408314667,133.59815449999996,134.39008525000008,134.38188241700004,,,,,,,,,,,,,,,,134.382430334,134.39008525000008,134.39008525000008,136.16096304200005,g,1.0,1.7580368330000056,,136.16186058400012,136.17328287500004,137.15838108399998,137.16459320900003,,,,,,,,,,,,,,,,,,,,sub-113,1,stroop_test,,
,,,,20.0,8.0,1.0,,,,,rot,red,r,1.0,r,1.0,0.7286313330000667,,,,,,,,,,,,,,1.0,8.0,20.0,1.0,,,,,137.16459320900003,,,,,,,,,,,,,,,,,137.15886350000005,138.35795833400016,139.1507321250001,139.14229104200012,,,,,,,,,,,,,,,,139.14329750000002,139.1507321250001,139.1507321250001,139.8827014170001,r,1.0,0.7286313330000667,,139.88348300000007,139.89438341699997,140.88190125000006,140.89120816700006,,,,,,,,,,,,,,,,,,,,sub-113,1,stroop_test,,
,,,,21.0,9.0,1.0,,,,,gelb,yellow,g,1.0,g,1.0,0.5696700000000874,,,,,,,,,,,,,,1.0,9.0,21.0,10.0,,,,,140.89120816700006,,,,,,,,,,,,,,,,,140.88236237499996,141.23116845900017,142.02656254199997,142.014616917,,,,,,,,,,,,,,,,142.01852574999998,142.02656254199997,142.02656254199997,142.59935433400003,g,1.0,0.5696700000000874,,142.60015154200005,142.6109745000001,143.59786354200014,143.60787275000007,,,,,,,,,,,,,,,,,,,,sub-113,1,stroop_test,,
,,,,22.0,10.0,1.0,,,,,blau,yellow,g,0.0,g,1.0,0.8475187919998461,,,,,,,,,,,,,,1.0,10.0,22.0,7.0,,,,,143.60787275000007,,,,,,,,,,,,,,,,,143.59822941700008,144.39812000000006,145.193630084,145.18203749999998,,,,,,,,,,,,,,,,145.18569612500005,145.193630084,145.193630084,146.04371891699998,g,1.0,0.8475187919998461,,146.04463791700005,146.05657591700017,147.04208245900008,147.04876179200005,,,,,,,,,,,,,,,,,,,,sub-113,1,stroop_test,,
,,,,23.0,11.0,1.0,,,,,gelb,yellow,g,1.0,g,1.0,0.6480317499999728,,,,,,,,,,,,,,1.0,11.0,23.0,11.0,,,,,147.04876179200005,,,,,,,,,,,,,,,,,147.04270904200007,147.14115637500004,147.93521416700014,147.9252597090001,,,,,,,,,,,,,,,,147.92856370900017,147.93521416700014,147.93521416700014,148.59199041700003,g,1.0,0.6480317499999728,,148.59272466700008,148.60395537500017,149.5922082090001,149.60043295900005,,,,,,,,,,,,,,,,,,,,sub-113,1,stroop_test,,
,,,,,,,,,,,,,,,,,,,,,,,,,,,,,,,,,,,,,,,,,,,,,,,,,,,,,,,,,,,,,,,,,,,,,,,,,,,,,,,,,,,,,,,149.5923862090001,149.60043295900005,149.60043295900005,151.0609427500001,space,1.45237570900008,,,,,,,,,,,,,,sub-113,1,stroop_test,,
,,,,0.0,0.0,0.0,,,,,,,,,,,,,rot,red,r,1.0,r,1.0,0.7301444999998239,,,,,,,,,,0.0,0.0,0.0,1.0,151.0839215000001,,,,,,,,,,,,,,,,,151.07608025000013,152.25825079200013,153.0572347090001,153.04194729200003,,,,,,,,,,,,,,,,,,,,,,,,,,,,,,,,,,,153.04651658400007,153.0572347090001,153.0572347090001,153.79323633400008,r,1.0,0.7301444999998239,,,,,,sub-113,1,stroop_test,,
,,,,1.0,1.0,0.0,,,,,,,,,,,,,gelb,yellow,g,1.0,g,1.0,0.6561042499999985,,,,,,,,,,0.0,1.0,1.0,10.0,153.80296466699997,,,,,,,,,,,,,,,,,153.79381316700005,154.14098791700007,154.93767712500016,154.9252469590001,,,,,,,,,,,,,,,,,,,,,,,,,,,,,,,,,,,154.93018912499997,154.93767712500016,154.93767712500016,155.60030125000003,g,1.0,0.6561042499999985,,,,,,sub-113,1,stroop_test,,
,,,,2.0,2.0,0.0,,,,,,,,,,,,,blau,blue,b,1.0,b,1.0,0.6524037920000865,,,,,,,,,,0.0,2.0,2.0,5.0,155.61034491700002,,,,,,,,,,,,,,,,,155.60087487500004,155.94746420900017,156.74361687500004,156.73202654200009,,,,,,,,,,,,,,,,,,,,,,,,,,,,,,,,,,,156.73571637500004,156.74361687500004,156.74361687500004,157.39998945900015,b,1.0,0.6524037920000865,,,,,,sub-113,1,stroop_test,,
,,,,3.0,3.0,0.0,,,,,,,,,,,,,rot,blue,b,0.0,b,1.0,0.7835060419999991,,,,,,,,,,0.0,3.0,3.0,2.0,157.41032441700008,,,,,,,,,,,,,,,,,157.40056612500007,157.74815741700013,158.54495529200017,158.53173179200007,,,,,,,,,,,,,,,,,,,,,,,,,,,,,,,,,,,158.53534270900013,158.54495529200017,158.54495529200017,159.33367425000006,b,1.0,0.7835060419999991,,,,,,sub-113,1,stroop_test,,
,,,,4.0,4.0,0.0,,,,,,,,,,,,,rot,yellow,g,0.0,g,1.0,1.6924788750000062,,,,,,,,,,0.0,4.0,4.0,3.0,159.34385604199997,,,,,,,,,,,,,,,,,159.3342734590001,160.53112587500004,161.32313145900002,161.31423941700018,,,,,,,,,,,,,,,,,,,,,,,,,,,,,,,,,,,161.314848709,161.32313145900002,161.32313145900002,163.02670145900015,g,1.0,1.6924788750000062,,,,,,sub-113,1,stroop_test,,
,,,,5.0,5.0,0.0,,,,,,,,,,,,,gelb,yellow,g,1.0,g,1.0,1.204493833000015,,,,,,,,,,0.0,5.0,5.0,11.0,163.0379035840001,,,,,,,,,,,,,,,,,163.0274159590001,163.124467375,163.92013970900007,163.9084841250001,,,,,,,,,,,,,,,,,,,,,,,,,,,,,,,,,,,163.912654792,163.92013970900007,163.92013970900007,165.12768641700018,g,1.0,1.204493833000015,,,,,,sub-113,1,stroop_test,,
,,,,6.0,6.0,0.0,,,,,,,,,,,,,blau,red,r,0.0,r,1.0,0.8255000839999411,,,,,,,,,,0.0,6.0,6.0,4.0,165.13798312500012,,,,,,,,,,,,,,,,,165.12825804199997,166.3243231670001,167.12011666700005,167.10827708400006,,,,,,,,,,,,,,,,,,,,,,,,,,,,,,,,,,,167.11247449999996,167.12011666700005,167.12011666700005,167.94919345900007,r,1.0,0.8255000839999411,,,,,,sub-113,1,stroop_test,,
,,,,7.0,7.0,0.0,,,,,,,,,,,,,gelb,blue,b,0.0,b,1.0,4.87480800000003,,,,,,,,,,0.0,7.0,7.0,9.0,167.9600230000001,,,,,,,,,,,,,,,,,167.94978012499996,168.30836362500008,169.10331050000013,169.0920322500001,,,,,,,,,,,,,,,,,,,,,,,,,,,,,,,,,,,169.0962300000001,169.10331050000013,169.10331050000013,173.98137500000007,b,1.0,4.87480800000003,,,,,,sub-113,1,stroop_test,,
,,,,8.0,8.0,0.0,,,,,,,,,,,,,gelb,red,r,0.0,r,1.0,3.436311917000012,,,,,,,,,,0.0,8.0,8.0,8.0,173.99236766700005,,,,,,,,,,,,,,,,,173.981950375,174.77419962500016,175.56694604200015,175.55838070900018,,,,,,,,,,,,,,,,,,,,,,,,,,,,,,,,,,,175.559307042,175.56694604200015,175.56694604200015,179.00981383400017,r,1.0,3.436311917000012,,,,,,sub-113,1,stroop_test,,
,,,,9.0,9.0,0.0,,,,,,,,,,,,,rot,red,r,1.0,r,1.0,2.87136904099998,,,,,,,,,,0.0,9.0,9.0,0.0,179.02001162500005,,,,,,,,,,,,,,,,,179.01039541700015,180.2076272500001,181.0080625420001,180.99176529200008,,,,,,,,,,,,,,,,,,,,,,,,,,,,,,,,,,,180.9968778340001,181.0080625420001,181.0080625420001,183.8833790420001,r,1.0,2.87136904099998,,,,,,sub-113,1,stroop_test,,
,,,,10.0,10.0,0.0,,,,,,,,,,,,,blau,yellow,g,0.0,b,0.0,0.5659037499999613,,,,,,,,,,0.0,10.0,10.0,7.0,183.893723834,,,,,,,,,,,,,,,,,183.88398675000008,183.981382209,184.775985709,184.76471479200015,,,,,,,,,,,,,,,,,,,,,,,,,,,,,,,,,,,184.7680533750001,184.775985709,184.775985709,185.349656959,b,0.0,0.5659037499999613,,,,,,sub-113,1,stroop_test,,
,,,,11.0,11.0,0.0,,,,,,,,,,,,,blau,blue,b,1.0,b,1.0,0.5712692910001351,,,,,,,,,,0.0,11.0,11.0,6.0,185.36008441700005,,,,,,,,,,,,,,,,,185.35023445900012,185.697883584,186.4902649170001,186.48170008400007,,,,,,,,,,,,,,,,,,,,,,,,,,,,,,,,,,,186.4823576670001,186.4902649170001,186.4902649170001,187.066273167,b,1.0,0.5712692910001351,,,,,,sub-113,1,stroop_test,,
,,,,12.0,0.0,1.0,,,,,,,,,,,,,gelb,yellow,g,1.0,g,1.0,0.8095175839998774,,,,,,,,,,1.0,0.0,12.0,11.0,187.07672775000012,,,,,,,,,,,,,,,,,187.06683525000017,188.26376091700013,189.06017733400017,189.0484394590001,,,,,,,,,,,,,,,,,,,,,,,,,,,,,,,,,,,189.0521080000001,189.06017733400017,189.06017733400017,189.8763059590001,g,1.0,0.8095175839998774,,,,,,sub-113,1,stroop_test,,
,,,,13.0,1.0,1.0,,,,,,,,,,,,,blau,red,r,0.0,r,1.0,1.437400499999967,,,,,,,,,,1.0,1.0,13.0,4.0,189.8865101250001,,,,,,,,,,,,,,,,,189.876878584,189.9731722500001,190.770143834,190.75834858400003,,,,,,,,,,,,,,,,,,,,,,,,,,,,,,,,,,,190.76265275000011,190.770143834,190.770143834,192.210834,r,1.0,1.437400499999967,,,,,,sub-113,1,stroop_test,,
,,,,14.0,2.0,1.0,,,,,,,,,,,,,rot,yellow,g,0.0,g,1.0,0.967943541000068,,,,,,,,,,1.0,2.0,14.0,3.0,192.22125141700008,,,,,,,,,,,,,,,,,192.211555417,192.30774329200017,193.10656983400008,193.09133020900003,,,,,,,,,,,,,,,,,,,,,,,,,,,,,,,,,,,193.09540337500016,193.10656983400008,193.10656983400008,194.07750958400013,g,1.0,0.967943541000068,,,,,,sub-113,1,stroop_test,,
,,,,15.0,3.0,1.0,,,,,,,,,,,,,rot,blue,b,0.0,b,1.0,0.8237237499999992,,,,,,,,,,1.0,3.0,15.0,2.0,194.08767725000007,,,,,,,,,,,,,,,,,194.0780822090001,195.274226584,196.06737083400003,196.058427792,,,,,,,,,,,,,,,,,,,,,,,,,,,,,,,,,,,196.0593537090001,196.06737083400003,196.06737083400003,196.89481425000008,b,1.0,0.8237237499999992,,,,,,sub-113,1,stroop_test,,
,,,,16.0,4.0,1.0,,,,,,,,,,,,,gelb,yellow,g,1.0,g,1.0,0.5655290830000013,,,,,,,,,,1.0,4.0,16.0,10.0,196.905933625,,,,,,,,,,,,,,,,,196.89553345900003,197.69088866700008,198.485864042,198.47461520900012,,,,,,,,,,,,,,,,,,,,,,,,,,,,,,,,,,,198.47837925,198.485864042,198.485864042,199.0596094590001,g,1.0,0.5655290830000013,,,,,,sub-113,1,stroop_test,,
,,,,17.0,5.0,1.0,,,,,,,,,,,,,rot,red,r,1.0,r,1.0,0.6539333330001682,,,,,,,,,,1.0,5.0,17.0,1.0,199.06995175,,,,,,,,,,,,,,,,,199.06017758400003,199.157652459,199.95748908400012,199.941697709,,,,,,,,,,,,,,,,,,,,,,,,,,,,,,,,,,,199.946171542,199.95748908400012,199.95748908400012,200.6161065000001,r,1.0,0.6539333330001682,,,,,,sub-113,1,stroop_test,,
,,,,18.0,6.0,1.0,,,,,,,,,,,,,gelb,blue,b,0.0,b,1.0,2.3745461670000623,,,,,,,,,,1.0,6.0,18.0,9.0,200.62674812500015,,,,,,,,,,,,,,,,,200.6167095840001,200.96526845900007,201.7604772090001,201.74838429200008,,,,,,,,,,,,,,,,,,,,,,,,,,,,,,,,,,,201.7529764590001,201.7604772090001,201.7604772090001,204.14285320900007,b,1.0,2.3745461670000623,,,,,,sub-113,1,stroop_test,,
,,,,19.0,7.0,1.0,,,,,,,,,,,,,rot,red,r,1.0,r,1.0,0.7862093749999985,,,,,,,,,,1.0,7.0,19.0,0.0,204.15330608400015,,,,,,,,,,,,,,,,,204.14342558400017,205.340786125,206.14064083400007,206.1250378750001,,,,,,,,,,,,,,,,,,,,,,,,,,,,,,,,,,,206.129502584,206.14064083400007,206.14064083400007,206.933457375,r,1.0,0.7862093749999985,,,,,,sub-113,1,stroop_test,,
,,,,20.0,8.0,1.0,,,,,,,,,,,,,blau,blue,b,1.0,b,1.0,0.7007501660000344,,,,,,,,,,1.0,8.0,20.0,6.0,206.94347712500007,,,,,,,,,,,,,,,,,206.934034959,207.03127800000016,207.8262876670001,207.8144387500001,,,,,,,,,,,,,,,,,,,,,,,,,,,,,,,,,,,207.8180642090001,207.8262876670001,207.8262876670001,208.53295016700008,b,1.0,0.7007501660000344,,,,,,sub-113,1,stroop_test,,
,,,,21.0,9.0,1.0,,,,,,,,,,,,,blau,blue,b,1.0,b,1.0,0.5177065420000417,,,,,,,,,,1.0,9.0,21.0,5.0,208.5567437090001,,,,,,,,,,,,,,,,,208.53336845900003,208.6312693750001,209.42334700000012,209.41486658400004,,,,,,,,,,,,,,,,,,,,,,,,,,,,,,,,,,,209.41557975,209.42334700000012,209.42334700000012,209.951261875,b,1.0,0.5177065420000417,,,,,,sub-113,1,stroop_test,,
,,,,22.0,10.0,1.0,,,,,,,,,,,,,blau,yellow,g,0.0,g,1.0,1.2883957500000631,,,,,,,,,,1.0,10.0,22.0,7.0,209.9572148750001,,,,,,,,,,,,,,,,,209.951554709,210.046811875,210.8398346250001,210.83157345900008,,,,,,,,,,,,,,,,,,,,,,,,,,,,,,,,,,,210.83225112500008,210.8398346250001,210.8398346250001,212.13250108400007,g,1.0,1.2883957500000631,,,,,,sub-113,1,stroop_test,,
,,,,23.0,11.0,1.0,,,,,,,,,,,,,gelb,red,r,0.0,r,1.0,0.6370410829999855,,,,,,,,,,1.0,11.0,23.0,8.0,212.14326612500008,,,,,,,,,,,,,,,,,212.13308033400017,213.331780792,214.1376519590001,214.12508283400007,,,,,,,,,,,,,,,,,,,,,,,,,,,,,,,,,,,214.12971029200003,214.1376519590001,214.1376519590001,214.77755512500016,r,1.0,0.6370410829999855,,,,,,sub-113,1,stroop_test,,
,,,,24.0,0.0,2.0,,,,,,,,,,,,,blau,blue,b,1.0,b,1.0,0.5371796669999185,,,,,,,,,,2.0,0.0,24.0,6.0,214.78844937500003,,,,,,,,,,,,,,,,,214.77813437500004,215.5739812500001,216.370869334,216.3584185,,,,,,,,,,,,,,,,,,,,,,,,,,,,,,,,,,,216.36311962500008,216.370869334,216.370869334,216.9219672090001,b,1.0,0.5371796669999185,,,,,,sub-113,1,stroop_test,,
,,,,25.0,1.0,2.0,,,,,,,,,,,,,rot,blue,b,0.0,r,0.0,1.5347232080000597,,,,,,,,,,2.0,1.0,25.0,2.0,216.92778991700013,,,,,,,,,,,,,,,,,216.92238758400003,217.0145197500001,217.8112165,217.7978825,,,,,,,,,,,,,,,,,,,,,,,,,,,,,,,,,,,217.80145395900013,217.8112165,217.8112165,219.34935966700004,r,0.0,1.5347232080000597,,,,,,sub-113,1,stroop_test,,
,,,,26.0,2.0,2.0,,,,,,,,,,,,,gelb,blue,b,0.0,r,0.0,0.7548611669999445,,,,,,,,,,2.0,2.0,26.0,9.0,219.35991204200013,,,,,,,,,,,,,,,,,219.34993454200003,220.55795250000008,221.36300529200005,221.3478412500001,,,,,,,,,,,,,,,,,,,,,,,,,,,,,,,,,,,221.3550375,221.36300529200005,221.36300529200005,222.126962459,r,0.0,0.7548611669999445,,,,,,sub-113,1,stroop_test,,
,,,,27.0,3.0,2.0,,,,,,,,,,,,,blau,blue,b,1.0,b,1.0,0.6161468339998919,,,,,,,,,,2.0,3.0,27.0,5.0,222.137494417,,,,,,,,,,,,,,,,,222.12756625,222.22405983400017,223.01976104200003,223.008126209,,,,,,,,,,,,,,,,,,,,,,,,,,,,,,,,,,,223.01192145900015,223.01976104200003,223.01976104200003,223.6428926250001,b,1.0,0.6161468339998919,,,,,,sub-113,1,stroop_test,,
,,,,28.0,4.0,2.0,,,,,,,,,,,,,blau,yellow,g,0.0,g,1.0,0.4912182499999744,,,,,,,,,,2.0,4.0,28.0,7.0,223.65360120900004,,,,,,,,,,,,,,,,,223.64348662500012,224.44075095900007,225.233060625,225.22472504200005,,,,,,,,,,,,,,,,,,,,,,,,,,,,,,,,,,,225.22534520900007,225.233060625,225.233060625,225.72741075,g,1.0,0.4912182499999744,,,,,,sub-113,1,stroop_test,,
,,,,29.0,5.0,2.0,,,,,,,,,,,,,gelb,yellow,g,1.0,g,1.0,0.6128891659998317,,,,,,,,,,2.0,5.0,29.0,10.0,225.73766683400004,,,,,,,,,,,,,,,,,225.7279886670001,225.82424237500004,226.6191134590001,226.6078976670001,,,,,,,,,,,,,,,,,,,,,,,,,,,,,,,,,,,226.61160675,226.6191134590001,226.6191134590001,227.24462362500003,g,1.0,0.6128891659998317,,,,,,sub-113,1,stroop_test,,
,,,,30.0,6.0,2.0,,,,,,,,,,,,,blau,red,r,0.0,b,0.0,0.9540215000001808,,,,,,,,,,2.0,6.0,30.0,4.0,227.25726079200007,,,,,,,,,,,,,,,,,227.2450180840001,228.44057,229.237126667,229.224796667,,,,,,,,,,,,,,,,,,,,,,,,,,,,,,,,,,,229.22950250000008,229.237126667,229.237126667,230.20441341700007,b,0.0,0.9540215000001808,,,,,,sub-113,1,stroop_test,,
,,,,31.0,7.0,2.0,,,,,,,,,,,,,rot,red,r,1.0,g,0.0,0.1122475839999879,,,,,,,,,,2.0,7.0,31.0,0.0,230.21064412500004,,,,,,,,,,,,,,,,,230.2050227090001,231.39806991700016,232.19523837500012,232.18155412500005,,,,,,,,,,,,,,,,,,,,,,,,,,,,,,,,,,,232.18522495900012,232.19523837500012,232.19523837500012,232.31053516700013,g,0.0,0.1122475839999879,,,,,,sub-113,1,stroop_test,,
,,,,32.0,8.0,2.0,,,,,,,,,,,,,gelb,yellow,g,1.0,g,1.0,1.0870487909999156,,,,,,,,,,2.0,8.0,32.0,11.0,232.32082141700016,,,,,,,,,,,,,,,,,232.31109679200017,233.50741375000007,234.303794292,234.29132945900005,,,,,,,,,,,,,,,,,,,,,,,,,,,,,,,,,,,234.29613166700003,234.303794292,234.303794292,235.394001334,g,1.0,1.0870487909999156,,,,,,sub-113,1,stroop_test,,
,,,,33.0,9.0,2.0,,,,,,,,,,,,,gelb,red,r,0.0,r,1.0,0.9586593750000248,,,,,,,,,,2.0,9.0,33.0,8.0,235.40441175,,,,,,,,,,,,,,,,,235.3946101670001,235.740550792,236.532213,236.524469209,,,,,,,,,,,,,,,,,,,,,,,,,,,,,,,,,,,236.52515095900003,236.532213,236.532213,237.493951792,r,1.0,0.9586593750000248,,,,,,sub-113,1,stroop_test,,
,,,,34.0,10.0,2.0,,,,,,,,,,,,,rot,yellow,g,0.0,g,1.0,0.984217875000013,,,,,,,,,,2.0,10.0,34.0,3.0,237.504315209,,,,,,,,,,,,,,,,,237.49451758400005,238.69069066700013,239.490263167,239.47445625,,,,,,,,,,,,,,,,,,,,,,,,,,,,,,,,,,,239.47926162500016,239.490263167,239.490263167,240.47810266700003,g,1.0,0.984217875000013,,,,,,sub-113,1,stroop_test,,
,,,,35.0,11.0,2.0,,,,,,,,,,,,,rot,red,r,1.0,r,1.0,0.8316202080000039,,,,,,,,,,2.0,11.0,35.0,1.0,240.4885596250001,,,,,,,,,,,,,,,,,240.478711625,240.5726567920001,241.3668573340001,241.358176042,,,,,,,,,,,,,,,,,,,,,,,,,,,,,,,,,,,241.35910687500015,241.3668573340001,241.3668573340001,242.20977179200008,r,1.0,0.8316202080000039,,,,,,sub-113,1,stroop_test,,
,,,,36.0,0.0,3.0,,,,,,,,,,,,,blau,blue,b,1.0,b,1.0,0.7260955829999602,,,,,,,,,,3.0,0.0,36.0,5.0,242.220846875,,,,,,,,,,,,,,,,,242.21060375,242.30704870900013,243.102893084,243.09117975000004,,,,,,,,,,,,,,,,,,,,,,,,,,,,,,,,,,,243.0953079590001,243.102893084,243.102893084,243.83311045899995,b,1.0,0.7260955829999602,,,,,,sub-113,1,stroop_test,,
,,,,37.0,1.0,3.0,,,,,,,,,,,,,rot,red,r,1.0,r,1.0,0.771927542000185,,,,,,,,,,3.0,1.0,37.0,0.0,243.843997834,,,,,,,,,,,,,,,,,243.8337141250001,243.931171834,244.72740258400017,244.71439958400012,,,,,,,,,,,,,,,,,,,,,,,,,,,,,,,,,,,244.71764941700008,244.72740258400017,244.72740258400017,245.5091392920001,r,1.0,0.771927542000185,,,,,,sub-113,1,stroop_test,,
,,,,38.0,2.0,3.0,,,,,,,,,,,,,gelb,yellow,g,1.0,g,1.0,0.3633367079999061,,,,,,,,,,3.0,2.0,38.0,11.0,245.5194490000001,,,,,,,,,,,,,,,,,245.509701084,245.85726966700008,246.653233042,246.641334875,,,,,,,,,,,,,,,,,,,,,,,,,,,,,,,,,,,246.64574433400003,246.653233042,246.653233042,247.025745209,g,1.0,0.3633367079999061,,,,,,sub-113,1,stroop_test,,
,,,,39.0,3.0,3.0,,,,,,,,,,,,,rot,red,r,1.0,r,1.0,1.1766002080000817,,,,,,,,,,3.0,3.0,39.0,1.0,247.0361518340001,,,,,,,,,,,,,,,,,247.02631833400005,247.1239270420001,247.9222762500001,247.90781195900013,,,,,,,,,,,,,,,,,,,,,,,,,,,,,,,,,,,247.9111176250001,247.9222762500001,247.9222762500001,249.10914345900005,r,1.0,1.1766002080000817,,,,,,sub-113,1,stroop_test,,
,,,,40.0,4.0,3.0,,,,,,,,,,,,,gelb,yellow,g,1.0,g,1.0,0.5204323749999276,,,,,,,,,,3.0,4.0,40.0,10.0,249.119412667,,,,,,,,,,,,,,,,,249.1097151670001,249.457189709,250.2534470420001,250.241341959,,,,,,,,,,,,,,,,,,,,,,,,,,,,,,,,,,,250.2459285,250.2534470420001,250.2534470420001,250.7774863340001,g,1.0,0.5204323749999276,,,,,,sub-113,1,stroop_test,,
,,,,41.0,5.0,3.0,,,,,,,,,,,,,blau,yellow,g,0.0,b,0.0,1.029304333000027,,,,,,,,,,3.0,5.0,41.0,7.0,250.788216792,,,,,,,,,,,,,,,,,250.7781541670001,251.9736968750001,252.76880270900008,252.75781595900003,,,,,,,,,,,,,,,,,,,,,,,,,,,,,,,,,,,252.76143541700003,252.76880270900008,252.76880270900008,253.80922387500004,b,0.0,1.029304333000027,,,,,,sub-113,1,stroop_test,,
,,,,42.0,6.0,3.0,,,,,,,,,,,,,blau,blue,b,1.0,b,1.0,3.85784737500012,,,,,,,,,,3.0,6.0,42.0,6.0,253.819580459,,,,,,,,,,,,,,,,,253.809807417,254.607257875,255.399727084,255.39131150000003,,,,,,,,,,,,,,,,,,,,,,,,,,,,,,,,,,,255.39222933400012,255.399727084,255.399727084,259.27076987500004,b,1.0,3.85784737500012,,,,,,sub-113,1,stroop_test,,
,,,,43.0,7.0,3.0,,,,,,,,,,,,,rot,blue,b,0.0,b,1.0,1.7364650419999634,,,,,,,,,,3.0,7.0,43.0,2.0,259.27702212500003,,,,,,,,,,,,,,,,,259.2712280840001,260.4642888340002,261.26169541700006,261.247738,,,,,,,,,,,,,,,,,,,,,,,,,,,,,,,,,,,261.2519312920001,261.26169541700006,261.26169541700006,263.00898533400004,b,1.0,1.7364650419999634,,,,,,sub-113,1,stroop_test,,
,,,,44.0,8.0,3.0,,,,,,,,,,,,,gelb,red,r,0.0,r,1.0,1.5326762919999055,,,,,,,,,,3.0,8.0,44.0,8.0,263.0194860420001,,,,,,,,,,,,,,,,,263.00956262500017,263.80715054200004,264.6028838750001,264.59127754200017,,,,,,,,,,,,,,,,,,,,,,,,,,,,,,,,,,,264.5954945000001,264.6028838750001,264.6028838750001,266.142669459,r,1.0,1.5326762919999055,,,,,,sub-113,1,stroop_test,,
,,,,45.0,9.0,3.0,,,,,,,,,,,,,rot,yellow,g,0.0,g,1.0,0.884065167000017,,,,,,,,,,3.0,9.0,45.0,3.0,266.15333125000006,,,,,,,,,,,,,,,,,266.143308875,267.340287709,268.1399918750001,268.124556625,,,,,,,,,,,,,,,,,,,,,,,,,,,,,,,,,,,268.1288481670001,268.1399918750001,268.1399918750001,269.026919167,g,1.0,0.884065167000017,,,,,,sub-113,1,stroop_test,,
,,,,46.0,10.0,3.0,,,,,,,,,,,,,gelb,blue,b,0.0,b,1.0,1.998919583000088,,,,,,,,,,3.0,10.0,46.0,9.0,269.0374015,,,,,,,,,,,,,,,,,269.0274912090001,269.123732709,269.919916584,269.908013084,,,,,,,,,,,,,,,,,,,,,,,,,,,,,,,,,,,269.9124467500001,269.919916584,269.919916584,271.92501437500005,b,1.0,1.998919583000088,,,,,,sub-113,1,stroop_test,,
,,,,47.0,11.0,3.0,,,,,,,,,,,,,blau,red,r,0.0,r,1.0,1.3375832089998312,,,,,,,,,,3.0,11.0,47.0,4.0,271.9355217090001,,,,,,,,,,,,,,,,,271.9255741670001,272.2737480840001,273.0694605420001,273.05758625,,,,,,,,,,,,,,,,,,,,,,,,,,,,,,,,,,,273.0615646250001,273.0694605420001,273.0694605420001,274.410011209,r,1.0,1.3375832089998312,,,,,,sub-113,1,stroop_test,,
,,,,48.0,0.0,4.0,,,,,,,,,,,,,rot,yellow,g,0.0,g,1.0,1.1347170420001476,,,,,,,,,,4.0,0.0,48.0,3.0,274.4202284170001,,,,,,,,,,,,,,,,,274.4106052090001,274.50723600000015,275.305654084,275.29086000000007,,,,,,,,,,,,,,,,,,,,,,,,,,,,,,,,,,,275.29472791700005,275.305654084,275.305654084,276.44396375,g,1.0,1.1347170420001476,,,,,,sub-113,1,stroop_test,,
,,,,49.0,1.0,4.0,,,,,,,,,,,,,rot,red,r,1.0,r,1.0,0.8743605839999873,,,,,,,,,,4.0,1.0,49.0,0.0,276.45437137500016,,,,,,,,,,,,,,,,,276.4446319170001,276.790515875,277.58298912500004,277.57448420900005,,,,,,,,,,,,,,,,,,,,,,,,,,,,,,,,,,,277.5753689590001,277.58298912500004,277.58298912500004,278.46055508400013,r,1.0,0.8743605839999873,,,,,,sub-113,1,stroop_test,,
,,,,50.0,2.0,4.0,,,,,,,,,,,,,gelb,yellow,g,1.0,g,1.0,1.421358041000076,,,,,,,,,,4.0,2.0,50.0,11.0,278.47126570900014,,,,,,,,,,,,,,,,,278.46120454200013,278.555882917,279.3527650840001,279.34125633400004,,,,,,,,,,,,,,,,,,,,,,,,,,,,,,,,,,,279.34539054200013,279.3527650840001,279.3527650840001,280.777066334,g,1.0,1.421358041000076,,,,,,sub-113,1,stroop_test,,
,,,,51.0,3.0,4.0,,,,,,,,,,,,,blau,red,r,0.0,r,1.0,1.0867945419997795,,,,,,,,,,4.0,3.0,51.0,4.0,280.787703792,,,,,,,,,,,,,,,,,280.77765587500016,281.1236443340001,281.92029750000006,281.907604667,,,,,,,,,,,,,,,,,,,,,,,,,,,,,,,,,,,281.91288175,281.92029750000006,281.92029750000006,283.0100702090001,r,1.0,1.0867945419997795,,,,,,sub-113,1,stroop_test,,
,,,,52.0,4.0,4.0,,,,,,,,,,,,,gelb,blue,b,0.0,b,1.0,1.5205097919999844,,,,,,,,,,4.0,4.0,52.0,9.0,283.0204067090001,,,,,,,,,,,,,,,,,283.01063287500006,283.80701254200017,284.60287970900004,284.59121541700006,,,,,,,,,,,,,,,,,,,,,,,,,,,,,,,,,,,284.59557129200016,284.60287970900004,284.60287970900004,286.12582325000017,b,1.0,1.5205097919999844,,,,,,sub-113,1,stroop_test,,
,,,,53.0,5.0,4.0,,,,,,,,,,,,,blau,yellow,g,0.0,g,1.0,1.806412790999957,,,,,,,,,,4.0,5.0,53.0,7.0,286.135908667,,,,,,,,,,,,,,,,,286.126389042,286.223643625,287.01980175000017,287.0079813750001,,,,,,,,,,,,,,,,,,,,,,,,,,,,,,,,,,,287.0124789170002,287.01980175000017,287.01980175000017,288.83239812500005,g,1.0,1.806412790999957,,,,,,sub-113,1,stroop_test,,
,,,,54.0,6.0,4.0,,,,,,,,,,,,,blau,blue,b,1.0,b,1.0,0.8194737500000429,,,,,,,,,,4.0,6.0,54.0,5.0,288.8428463340001,,,,,,,,,,,,,,,,,288.8329691670001,290.030505917,290.82222920900017,290.813587292,,,,,,,,,,,,,,,,,,,,,,,,,,,,,,,,,,,290.8142842500001,290.82222920900017,290.82222920900017,291.64952533400015,b,1.0,0.8194737500000429,,,,,,sub-113,1,stroop_test,,
,,,,55.0,7.0,4.0,,,,,,,,,,,,,rot,red,r,1.0,r,1.0,1.037189374999798,,,,,,,,,,4.0,7.0,55.0,1.0,291.65960629200003,,,,,,,,,,,,,,,,,291.650103042,291.746753292,292.54503083400004,292.53097983400016,,,,,,,,,,,,,,,,,,,,,,,,,,,,,,,,,,,292.534886292,292.54503083400004,292.54503083400004,293.59124233400007,r,1.0,1.037189374999798,,,,,,sub-113,1,stroop_test,,
,,,,56.0,8.0,4.0,,,,,,,,,,,,,gelb,red,r,0.0,r,1.0,1.2543193340000016,,,,,,,,,,4.0,8.0,56.0,8.0,293.601532167,,,,,,,,,,,,,,,,,293.591892125,294.39028966700016,295.18652966700006,295.174374209,,,,,,,,,,,,,,,,,,,,,,,,,,,,,,,,,,,295.17907066700013,295.18652966700006,295.18652966700006,296.444573084,r,1.0,1.2543193340000016,,,,,,sub-113,1,stroop_test,,
,,,,57.0,9.0,4.0,,,,,,,,,,,,,gelb,yellow,g,1.0,g,1.0,0.9797356659998968,,,,,,,,,,4.0,9.0,57.0,10.0,296.45558066700005,,,,,,,,,,,,,,,,,296.4452248340001,297.640330917,298.433016792,298.42436687500003,,,,,,,,,,,,,,,,,,,,,,,,,,,,,,,,,,,298.4252932920001,298.433016792,298.433016792,299.416049917,g,1.0,0.9797356659998968,,,,,,sub-113,1,stroop_test,,
,,,,58.0,10.0,4.0,,,,,,,,,,,,,blau,blue,b,1.0,b,1.0,0.8156305410000186,,,,,,,,,,4.0,10.0,58.0,6.0,299.4259581250001,,,,,,,,,,,,,,,,,299.4166010840001,300.21361475000003,301.009338375,300.9976905420001,,,,,,,,,,,,,,,,,,,,,,,,,,,,,,,,,,,301.0014438750002,301.009338375,301.009338375,301.832418209,b,1.0,0.8156305410000186,,,,,,sub-113,1,stroop_test,,
,,,,59.0,11.0,4.0,,,,,,,,,,,,,rot,blue,b,0.0,b,1.0,1.2315379589999793,,,,,,,,,,4.0,11.0,59.0,2.0,301.84397575,,,,,,,,,,,,,,,,,301.83298441700003,302.1804060000002,302.97845625000014,302.96352554200007,,,,,,,,,,,,,,,,,,,,,,,,,,,,,,,,,,,302.9686220840001,302.97845625000014,302.97845625000014,304.21518641700004,b,1.0,1.2315379589999793,,,,,,sub-113,1,stroop_test,,
,,,,60.0,0.0,5.0,,,,,,,,,,,,,gelb,blue,b,0.0,b,1.0,0.4148250840000855,,,,,,,,,,5.0,0.0,60.0,9.0,304.22600050000005,,,,,,,,,,,,,,,,,304.21575099999995,305.41289866700004,306.20915950000017,306.197241417,,,,,,,,,,,,,,,,,,,,,,,,,,,,,,,,,,,306.20096583400004,306.20915950000017,306.20915950000017,306.62716845900013,b,1.0,0.4148250840000855,,,,,,sub-113,1,stroop_test,,
,,,,61.0,1.0,5.0,,,,,,,,,,,,,rot,red,r,1.0,r,1.0,0.7082657920000202,,,,,,,,,,5.0,1.0,61.0,0.0,306.637518584,,,,,,,,,,,,,,,,,306.62773033400003,307.423331167,308.222077292,308.20754995900006,,,,,,,,,,,,,,,,,,,,,,,,,,,,,,,,,,,308.211860417,308.222077292,308.222077292,308.9331884590001,r,1.0,0.7082657920000202,,,,,,sub-113,1,stroop_test,,
,,,,62.0,2.0,5.0,,,,,,,,,,,,,blau,blue,b,1.0,b,1.0,0.5149071670000467,,,,,,,,,,5.0,2.0,62.0,5.0,308.942635917,,,,,,,,,,,,,,,,,308.93374425,309.0401662500001,309.836344584,309.82443975,,,,,,,,,,,,,,,,,,,,,,,,,,,,,,,,,,,309.82881183400013,309.836344584,309.836344584,310.359417875,b,1.0,0.5149071670000467,,,,,,sub-113,1,stroop_test,,
,,,,63.0,3.0,5.0,,,,,,,,,,,,,rot,red,r,1.0,r,1.0,0.3971003330000258,,,,,,,,,,5.0,3.0,63.0,1.0,310.369921709,,,,,,,,,,,,,,,,,310.35998370900006,311.156836334,311.9560189590002,311.94069341700015,,,,,,,,,,,,,,,,,,,,,,,,,,,,,,,,,,,311.944568959,311.9560189590002,311.9560189590002,312.359669917,r,1.0,0.3971003330000258,,,,,,sub-113,1,stroop_test,,
,,,,64.0,4.0,5.0,,,,,,,,,,,,,rot,yellow,g,0.0,g,1.0,1.035068666999905,,,,,,,,,,5.0,4.0,64.0,3.0,312.370310584,,,,,,,,,,,,,,,,,312.360347542,313.15686404200005,313.94888000000014,313.9407315000001,,,,,,,,,,,,,,,,,,,,,,,,,,,,,,,,,,,313.9414450840002,313.94888000000014,313.94888000000014,314.991761084,g,1.0,1.035068666999905,,,,,,sub-113,1,stroop_test,,
,,,,65.0,5.0,5.0,,,,,,,,,,,,,gelb,yellow,g,1.0,g,1.0,0.4109432090001519,,,,,,,,,,5.0,5.0,65.0,11.0,315.002182209,,,,,,,,,,,,,,,,,314.992359459,315.790186792,316.5858365420001,316.5740137500002,,,,,,,,,,,,,,,,,,,,,,,,,,,,,,,,,,,316.57819104200007,316.5858365420001,316.5858365420001,316.99949575000005,g,1.0,0.4109432090001519,,,,,,sub-113,1,stroop_test,,
,,,,66.0,6.0,5.0,,,,,,,,,,,,,blau,blue,b,1.0,b,1.0,0.4201577910000651,,,,,,,,,,5.0,6.0,66.0,6.0,317.00951662500006,,,,,,,,,,,,,,,,,317.000061709,317.3464655,318.142010667,318.13053845900004,,,,,,,,,,,,,,,,,,,,,,,,,,,,,,,,,,,318.1341103750001,318.142010667,318.142010667,318.56655420900006,b,1.0,0.4201577910000651,,,,,,sub-113,1,stroop_test,,
,,,,67.0,7.0,5.0,,,,,,,,,,,,,rot,blue,b,0.0,b,1.0,0.7547135829997842,,,,,,,,,,5.0,7.0,67.0,2.0,318.57606887500015,,,,,,,,,,,,,,,,,318.56711466700017,318.66295516700006,319.46143962500014,319.44720829200014,,,,,,,,,,,,,,,,,,,,,,,,,,,,,,,,,,,319.4517292090002,319.46143962500014,319.46143962500014,320.224694084,b,1.0,0.7547135829997842,,,,,,sub-113,1,stroop_test,,
,,,,68.0,8.0,5.0,,,,,,,,,,,,,blau,yellow,g,0.0,g,1.0,0.3944229579999501,,,,,,,,,,5.0,8.0,68.0,7.0,320.235274959,,,,,,,,,,,,,,,,,320.22537624999995,320.3234876670001,321.11875083400014,321.1073080000001,,,,,,,,,,,,,,,,,,,,,,,,,,,,,,,,,,,321.1114076670001,321.11875083400014,321.11875083400014,321.525880125,g,1.0,0.3944229579999501,,,,,,sub-113,1,stroop_test,,
,,,,69.0,9.0,5.0,,,,,,,,,,,,,blau,red,r,0.0,r,1.0,0.6525742909998371,,,,,,,,,,5.0,9.0,69.0,4.0,321.54018195900017,,,,,,,,,,,,,,,,,321.52624266700013,321.873351042,322.66469741700007,322.65734075,,,,,,,,,,,,,,,,,,,,,,,,,,,,,,,,,,,322.657861834,322.66469741700007,322.66469741700007,323.32650850000005,r,1.0,0.6525742909998371,,,,,,sub-113,1,stroop_test,,
,,,,70.0,10.0,5.0,,,,,,,,,,,,,gelb,red,r,0.0,r,1.0,0.3832188750000114,,,,,,,,,,5.0,10.0,70.0,8.0,323.3376390840001,,,,,,,,,,,,,,,,,323.32730608400016,324.123343084,324.91804745900004,324.90718133400014,,,,,,,,,,,,,,,,,,,,,,,,,,,,,,,,,,,324.910682042,324.91804745900004,324.91804745900004,325.3097311670001,r,1.0,0.3832188750000114,,,,,,sub-113,1,stroop_test,,
,,,,71.0,11.0,5.0,,,,,,,,,,,,,gelb,yellow,g,1.0,g,1.0,0.5257106250001016,,,,,,,,,,5.0,11.0,71.0,10.0,325.32047575,,,,,,,,,,,,,,,,,325.31039087500017,326.106759542,326.899316625,326.8907830840001,,,,,,,,,,,,,,,,,,,,,,,,,,,,,,,,,,,326.8916878340001,326.899316625,326.899316625,327.433182042,g,1.0,0.5257106250001016,,,,,,sub-113,1,stroop_test,,
,,,,72.0,0.0,6.0,,,,,,,,,,,,,gelb,red,r,0.0,r,1.0,1.846140584000068,,,,,,,,,,6.0,0.0,72.0,8.0,327.44304275000013,,,,,,,,,,,,,,,,,327.4338371670001,328.23076425,329.0220569170001,329.0137580840001,,,,,,,,,,,,,,,,,,,,,,,,,,,,,,,,,,,329.014293709,329.0220569170001,329.0220569170001,330.876074584,r,1.0,1.846140584000068,,,,,,sub-113,1,stroop_test,,
,,,,73.0,1.0,6.0,,,,,,,,,,,,,gelb,yellow,g,1.0,g,1.0,3.7588528750000014,,,,,,,,,,6.0,1.0,73.0,11.0,330.88659462500004,,,,,,,,,,,,,,,,,330.8767373340001,332.0727112500001,332.864905959,332.8566201670001,,,,,,,,,,,,,,,,,,,,,,,,,,,,,,,,,,,332.8573489170001,332.864905959,332.864905959,336.6269634590001,g,1.0,3.7588528750000014,,,,,,sub-113,1,stroop_test,,
,,,,74.0,2.0,6.0,,,,,,,,,,,,,rot,yellow,g,0.0,g,1.0,7.523275915999875,,,,,,,,,,6.0,2.0,74.0,3.0,336.6375412090001,,,,,,,,,,,,,,,,,336.6275437500001,336.9733165,337.77244904200006,337.75683066700003,,,,,,,,,,,,,,,,,,,,,,,,,,,,,,,,,,,337.7608291670001,337.77244904200006,337.77244904200006,345.298271375,g,1.0,7.523275915999875,,,,,,sub-113,1,stroop_test,,
,,,,75.0,3.0,6.0,,,,,,,,,,,,,blau,red,r,0.0,r,1.0,2.5049006250001185,,,,,,,,,,6.0,3.0,75.0,4.0,345.30906537500005,,,,,,,,,,,,,,,,,345.29884100000004,345.3969461670001,346.19282829200006,346.18148866700017,,,,,,,,,,,,,,,,,,,,,,,,,,,,,,,,,,,346.18521395900007,346.19282829200006,346.19282829200006,348.71084633400005,r,1.0,2.5049006250001185,,,,,,sub-113,1,stroop_test,,
,,,,76.0,4.0,6.0,,,,,,,,,,,,,gelb,blue,b,0.0,b,1.0,4.47208104099991,,,,,,,,,,6.0,4.0,76.0,9.0,348.72331620900013,,,,,,,,,,,,,,,,,348.7112883340001,349.506608167,350.30254679200016,350.29064125000014,,,,,,,,,,,,,,,,,,,,,,,,,,,,,,,,,,,350.294504167,350.30254679200016,350.30254679200016,354.7817210840001,b,1.0,4.47208104099991,,,,,,sub-113,1,stroop_test,,
,,,,77.0,5.0,6.0,,,,,,,,,,,,,blau,blue,b,1.0,b,1.0,3.573177624999971,,,,,,,,,,6.0,5.0,77.0,5.0,354.7924995000001,,,,,,,,,,,,,,,,,354.78230287500014,355.579059834,356.37547304200007,356.3639256250001,,,,,,,,,,,,,,,,,,,,,,,,,,,,,,,,,,,356.3683652500001,356.37547304200007,356.37547304200007,359.9583689590001,b,1.0,3.573177624999971,,,,,,sub-113,1,stroop_test,,
,,,,78.0,6.0,6.0,,,,,,,,,,,,,rot,red,r,1.0,r,1.0,5.136841917000083,,,,,,,,,,6.0,6.0,78.0,1.0,359.9688261250001,,,,,,,,,,,,,,,,,359.95894112500014,360.3066040000001,361.10577145900015,361.0906115,,,,,,,,,,,,,,,,,,,,,,,,,,,,,,,,,,,361.09471666700006,361.10577145900015,361.10577145900015,366.2490735420001,r,1.0,5.136841917000083,,,,,,sub-113,1,stroop_test,,
,,,,79.0,7.0,6.0,,,,,,,,,,,,,blau,blue,b,1.0,b,1.0,1.2274589999999534,,,,,,,,,,6.0,7.0,79.0,6.0,366.2592038340001,,,,,,,,,,,,,,,,,366.2496636670001,367.446939834,368.2416404590001,368.2304266670001,,,,,,,,,,,,,,,,,,,,,,,,,,,,,,,,,,,368.2336169590001,368.2416404590001,368.2416404590001,369.47546387500006,b,1.0,1.2274589999999534,,,,,,sub-113,1,stroop_test,,
,,,,80.0,8.0,6.0,,,,,,,,,,,,,rot,red,r,1.0,r,1.0,0.6891906250000375,,,,,,,,,,6.0,8.0,80.0,0.0,369.4860573340002,,,,,,,,,,,,,,,,,369.4761188340001,370.2731228750001,371.0724432920001,371.0573642500001,,,,,,,,,,,,,,,,,,,,,,,,,,,,,,,,,,,371.06156595900006,371.0724432920001,371.0724432920001,371.76561133400014,r,1.0,0.6891906250000375,,,,,,sub-113,1,stroop_test,,
,,,,81.0,9.0,6.0,,,,,,,,,,,,,blau,yellow,g,0.0,g,1.0,1.3437144169997737,,,,,,,,,,6.0,9.0,81.0,7.0,371.77565033400015,,,,,,,,,,,,,,,,,371.7662075840001,372.113482667,372.919012459,372.9073625840001,,,,,,,,,,,,,,,,,,,,,,,,,,,,,,,,,,,372.9115730000001,372.919012459,372.919012459,374.265739292,g,1.0,1.3437144169997737,,,,,,sub-113,1,stroop_test,,
,,,,82.0,10.0,6.0,,,,,,,,,,,,,gelb,yellow,g,1.0,g,1.0,0.6310414170000058,,,,,,,,,,6.0,10.0,82.0,10.0,374.2755675000001,,,,,,,,,,,,,,,,,374.2663103340001,375.0634815840001,375.85866287500016,375.847049125,,,,,,,,,,,,,,,,,,,,,,,,,,,,,,,,,,,375.850725042,375.85866287500016,375.85866287500016,376.4922139170001,g,1.0,0.6310414170000058,,,,,,sub-113,1,stroop_test,,
,,,,83.0,11.0,6.0,,,,,,,,,,,,,rot,blue,b,0.0,b,1.0,1.514970458000107,,,,,,,,,,6.0,11.0,83.0,2.0,376.502580584,,,,,,,,,,,,,,,,,376.49277562500015,377.2897767090001,378.08910920900007,378.073657875,,,,,,,,,,,,,,,,,,,,,,,,,,,,,,,,,,,378.0777561250002,378.08910920900007,378.08910920900007,379.6089582090001,b,1.0,1.514970458000107,,,,,,sub-113,1,stroop_test,,
,,,,84.0,0.0,7.0,,,,,,,,,,,,,blau,yellow,g,0.0,g,1.0,0.9978246250000212,,,,,,,,,,7.0,0.0,84.0,7.0,379.6193780840001,,,,,,,,,,,,,,,,,379.60959,379.95650287500007,380.7519890000001,380.74023887500016,,,,,,,,,,,,,,,,,,,,,,,,,,,,,,,,,,,380.744921,380.7519890000001,380.7519890000001,381.758894459,g,1.0,0.9978246250000212,,,,,,sub-113,1,stroop_test,,
,,,,85.0,1.0,7.0,,,,,,,,,,,,,rot,red,r,1.0,r,1.0,0.6351515839999138,,,,,,,,,,7.0,1.0,85.0,1.0,381.769298084,,,,,,,,,,,,,,,,,381.75946720900015,382.956280292,383.7561605420001,383.74065504200007,,,,,,,,,,,,,,,,,,,,,,,,,,,,,,,,,,,383.74503566700014,383.7561605420001,383.7561605420001,384.3992458340001,r,1.0,0.6351515839999138,,,,,,sub-113,1,stroop_test,,
,,,,86.0,2.0,7.0,,,,,,,,,,,,,gelb,red,r,0.0,r,1.0,1.2489973750000445,,,,,,,,,,7.0,2.0,86.0,8.0,384.4089442500001,,,,,,,,,,,,,,,,,384.3998072920001,384.4954493340001,385.2912160840001,385.280034459,,,,,,,,,,,,,,,,,,,,,,,,,,,,,,,,,,,385.2832839590001,385.2912160840001,385.2912160840001,386.553026459,r,1.0,1.2489973750000445,,,,,,sub-113,1,stroop_test,,
,,,,87.0,3.0,7.0,,,,,,,,,,,,,rot,yellow,g,0.0,g,1.0,0.6471662500000548,,,,,,,,,,7.0,3.0,87.0,3.0,386.558658209,,,,,,,,,,,,,,,,,386.5534452090001,386.896878667,387.69302237500006,387.6798804170001,,,,,,,,,,,,,,,,,,,,,,,,,,,,,,,,,,,387.6833998750001,387.69302237500006,387.69302237500006,388.34368329200015,g,1.0,0.6471662500000548,,,,,,sub-113,1,stroop_test,,
,,,,88.0,4.0,7.0,,,,,,,,,,,,,blau,blue,b,1.0,b,1.0,0.7105703749998611,,,,,,,,,,7.0,4.0,88.0,6.0,388.3547974590001,,,,,,,,,,,,,,,,,388.344343834,388.439755417,389.236085792,389.223935,,,,,,,,,,,,,,,,,,,,,,,,,,,,,,,,,,,389.22852425,389.236085792,389.236085792,389.9490155000001,b,1.0,0.7105703749998611,,,,,,sub-113,1,stroop_test,,
,,,,89.0,5.0,7.0,,,,,,,,,,,,,gelb,yellow,g,1.0,g,1.0,0.5192377920000126,,,,,,,,,,7.0,5.0,89.0,10.0,389.95900162500016,,,,,,,,,,,,,,,,,389.949582167,390.29653870900006,391.092189875,391.080525417,,,,,,,,,,,,,,,,,,,,,,,,,,,,,,,,,,,391.0843802090001,391.092189875,391.092189875,391.614266542,g,1.0,0.5192377920000126,,,,,,sub-113,1,stroop_test,,
,,,,90.0,6.0,7.0,,,,,,,,,,,,,blau,blue,b,1.0,b,1.0,1.038722499999949,,,,,,,,,,7.0,6.0,90.0,5.0,391.6251481250001,,,,,,,,,,,,,,,,,391.6148275000001,391.9626619170001,392.7584717500001,392.7468932500001,,,,,,,,,,,,,,,,,,,,,,,,,,,,,,,,,,,392.75049745900014,392.7584717500001,392.7584717500001,393.800261417,b,1.0,1.038722499999949,,,,,,sub-113,1,stroop_test,,
,,,,91.0,7.0,7.0,,,,,,,,,,,,,blau,red,r,0.0,r,1.0,0.7525997919999554,,,,,,,,,,7.0,7.0,91.0,4.0,393.810812084,,,,,,,,,,,,,,,,,393.80085091700016,393.8966814170001,394.6990794170001,394.69065987500016,,,,,,,,,,,,,,,,,,,,,,,,,,,,,,,,,,,394.69159345900016,394.6990794170001,394.6990794170001,395.4579994170001,r,1.0,0.7525997919999554,,,,,,sub-113,1,stroop_test,,
,,,,92.0,8.0,7.0,,,,,,,,,,,,,gelb,yellow,g,1.0,g,1.0,0.8132644170000276,,,,,,,,,,7.0,8.0,92.0,11.0,395.46813858400014,,,,,,,,,,,,,,,,,395.458559792,395.80642254200006,396.6032572090001,396.590207875,,,,,,,,,,,,,,,,,,,,,,,,,,,,,,,,,,,396.5954522500001,396.6032572090001,396.6032572090001,397.425543584,g,1.0,0.8132644170000276,,,,,,sub-113,1,stroop_test,,
,,,,93.0,9.0,7.0,,,,,,,,,,,,,rot,red,r,1.0,r,1.0,0.4762759580000875,,,,,,,,,,7.0,9.0,93.0,0.0,397.43606020900006,,,,,,,,,,,,,,,,,397.4262085,398.2229675000001,399.02200941700016,399.006850084,,,,,,,,,,,,,,,,,,,,,,,,,,,,,,,,,,,399.010969834,399.02200941700016,399.02200941700016,399.50697225,r,1.0,0.4762759580000875,,,,,,sub-113,1,stroop_test,,
,,,,94.0,10.0,7.0,,,,,,,,,,,,,rot,blue,b,0.0,b,1.0,1.4062112080000588,,,,,,,,,,7.0,10.0,94.0,2.0,399.5175334590001,,,,,,,,,,,,,,,,,399.5076187090001,399.59601495900006,400.3883868340001,400.379796834,,,,,,,,,,,,,,,,,,,,,,,,,,,,,,,,,,,400.38044941700014,400.3883868340001,400.3883868340001,401.798066459,b,1.0,1.4062112080000588,,,,,,sub-113,1,stroop_test,,
,,,,95.0,11.0,7.0,,,,,,,,,,,,,gelb,blue,b,0.0,b,1.0,0.7536137500001132,,,,,,,,,,7.0,11.0,95.0,9.0,401.8088780000001,,,,,,,,,,,,,,,,,401.79866912500006,402.1467050840001,402.941638042,402.929994542,,,,,,,,,,,,,,,,,,,,,,,,,,,,,,,,,,,402.93350962500017,402.941638042,402.941638042,403.69869866700014,b,1.0,0.7536137500001132,,,,,,sub-113,1,stroop_test,,
,,,,96.0,0.0,8.0,,,,,,,,,,,,,gelb,yellow,g,1.0,g,1.0,0.5746174170001268,,,,,,,,,,8.0,0.0,96.0,10.0,403.708898375,,,,,,,,,,,,,,,,,403.69930758400005,404.49736804200006,405.2986068340001,405.2901495840001,,,,,,,,,,,,,,,,,,,,,,,,,,,,,,,,,,,405.2909017090001,405.2986068340001,405.2986068340001,405.87613862500007,g,1.0,0.5746174170001268,,,,,,sub-113,1,stroop_test,,
,,,,97.0,1.0,8.0,,,,,,,,,,,,,gelb,red,r,0.0,r,1.0,0.7715705830000843,,,,,,,,,,8.0,1.0,97.0,8.0,405.88656937500014,,,,,,,,,,,,,,,,,405.876726125,406.68973708400017,407.4809565000001,407.4733671670001,,,,,,,,,,,,,,,,,,,,,,,,,,,,,,,,,,,407.47392025,407.4809565000001,407.4809565000001,408.2586012920001,r,1.0,0.7715705830000843,,,,,,sub-113,1,stroop_test,,
,,,,98.0,2.0,8.0,,,,,,,,,,,,,blau,red,r,0.0,r,1.0,0.7710349579999729,,,,,,,,,,8.0,2.0,98.0,4.0,408.268678834,,,,,,,,,,,,,,,,,408.25916066700006,409.05624279200015,409.85249291700006,409.8405045000002,,,,,,,,,,,,,,,,,,,,,,,,,,,,,,,,,,,409.8448920420001,409.85249291700006,409.85249291700006,410.637280334,r,1.0,0.7710349579999729,,,,,,sub-113,1,stroop_test,,
,,,,99.0,3.0,8.0,,,,,,,,,,,,,rot,blue,b,0.0,b,1.0,0.9019951669999956,,,,,,,,,,8.0,3.0,99.0,2.0,410.643069834,,,,,,,,,,,,,,,,,410.63769875,410.72846541700005,411.5260503340001,411.5128232090001,,,,,,,,,,,,,,,,,,,,,,,,,,,,,,,,,,,411.516088334,411.5260503340001,411.5260503340001,412.43127566700014,b,1.0,0.9019951669999956,,,,,,sub-113,1,stroop_test,,
,,,,100.0,4.0,8.0,,,,,,,,,,,,,rot,red,r,1.0,g,0.0,0.5892045410000719,,,,,,,,,,8.0,4.0,100.0,0.0,412.4401513340001,,,,,,,,,,,,,,,,,412.43167025,412.77938508400007,413.5720993340001,413.56380575,,,,,,,,,,,,,,,,,,,,,,,,,,,,,,,,,,,413.564449167,413.5720993340001,413.5720993340001,414.16423225000017,g,0.0,0.5892045410000719,,,,,,sub-113,1,stroop_test,,
,,,,101.0,5.0,8.0,,,,,,,,,,,,,gelb,yellow,g,1.0,g,1.0,0.7816490830000475,,,,,,,,,,8.0,5.0,101.0,11.0,414.1736987500001,,,,,,,,,,,,,,,,,414.164761042,415.3636100840001,416.1581804590001,416.146798834,,,,,,,,,,,,,,,,,,,,,,,,,,,,,,,,,,,416.1500451250001,416.1581804590001,416.1581804590001,416.942963209,g,1.0,0.7816490830000475,,,,,,sub-113,1,stroop_test,,
,,,,102.0,6.0,8.0,,,,,,,,,,,,,gelb,blue,b,0.0,b,1.0,0.9751478339999268,,,,,,,,,,8.0,6.0,102.0,9.0,416.95303854200006,,,,,,,,,,,,,,,,,416.943528709,417.7392669170001,418.532305167,418.523540917,,,,,,,,,,,,,,,,,,,,,,,,,,,,,,,,,,,418.5244520420001,418.532305167,418.532305167,419.521048459,b,1.0,0.9751478339999268,,,,,,sub-113,1,stroop_test,,
,,,,103.0,7.0,8.0,,,,,,,,,,,,,rot,yellow,g,0.0,r,0.0,0.7271582500000022,,,,,,,,,,8.0,7.0,103.0,3.0,419.52684087500006,,,,,,,,,,,,,,,,,419.5214076670002,419.863460584,420.6716285,420.6573325420002,,,,,,,,,,,,,,,,,,,,,,,,,,,,,,,,,,,420.6617329170001,420.6716285,420.6716285,421.4157922500001,r,0.0,0.7271582500000022,,,,,,sub-113,1,stroop_test,,
,,,,104.0,8.0,8.0,,,,,,,,,,,,,blau,blue,b,1.0,b,1.0,0.8138651660001415,,,,,,,,,,8.0,8.0,104.0,5.0,421.42389612500006,,,,,,,,,,,,,,,,,421.4161464590002,421.523671334,422.3225220420002,422.3096277090001,,,,,,,,,,,,,,,,,,,,,,,,,,,,,,,,,,,422.3108132090001,422.3225220420002,422.3225220420002,423.1427841670002,b,1.0,0.8138651660001415,,,,,,sub-113,1,stroop_test,,
,,,,105.0,9.0,8.0,,,,,,,,,,,,,blau,yellow,g,0.0,b,0.0,0.8349187919998258,,,,,,,,,,8.0,9.0,105.0,7.0,423.155548167,,,,,,,,,,,,,,,,,423.14339908400007,423.4882821670001,424.2899790000001,424.27411629200014,,,,,,,,,,,,,,,,,,,,,,,,,,,,,,,,,,,424.274921709,424.2899790000001,424.2899790000001,425.12667487500016,b,0.0,0.8349187919998258,,,,,,sub-113,1,stroop_test,,
,,,,106.0,10.0,8.0,,,,,,,,,,,,,blau,blue,b,1.0,b,1.0,0.6030129169998872,,,,,,,,,,8.0,10.0,106.0,6.0,425.13468950000015,,,,,,,,,,,,,,,,,425.126974084,426.3230185,427.1155108340001,427.1070257500001,,,,,,,,,,,,,,,,,,,,,,,,,,,,,,,,,,,427.1079567920001,427.1155108340001,427.1155108340001,427.723461,b,1.0,0.6030129169998872,,,,,,sub-113,1,stroop_test,,
,,,,107.0,11.0,8.0,,,,,,,,,,,,,rot,red,r,1.0,r,1.0,0.4704731250001259,,,,,,,,,,8.0,11.0,107.0,1.0,427.733648167,,,,,,,,,,,,,,,,,427.7240495420001,428.5131160000001,429.309443375,429.2961196250001,,,,,,,,,,,,,,,,,,,,,,,,,,,,,,,,,,,429.29949225,429.309443375,429.309443375,429.79144970900006,r,1.0,0.4704731250001259,,,,,,sub-113,1,stroop_test,,
,,,,108.0,0.0,9.0,,,,,,,,,,,,,rot,yellow,g,0.0,g,1.0,0.7479494169999725,,,,,,,,,,9.0,0.0,108.0,3.0,429.8021667090002,,,,,,,,,,,,,,,,,429.792117709,429.8894673340001,430.682100667,430.6735174590001,,,,,,,,,,,,,,,,,,,,,,,,,,,,,,,,,,,430.674423167,430.682100667,430.682100667,431.44129425000006,g,1.0,0.7479494169999725,,,,,,sub-113,1,stroop_test,,
,,,,109.0,1.0,9.0,,,,,,,,,,,,,blau,blue,b,1.0,b,1.0,0.5561738750000131,,,,,,,,,,9.0,1.0,109.0,5.0,431.451715167,,,,,,,,,,,,,,,,,431.441864959,431.789587834,432.5854495420001,432.573566584,,,,,,,,,,,,,,,,,,,,,,,,,,,,,,,,,,,432.5779788750001,432.5854495420001,432.5854495420001,433.1486083340001,b,1.0,0.5561738750000131,,,,,,sub-113,1,stroop_test,,
,,,,110.0,2.0,9.0,,,,,,,,,,,,,blau,red,r,0.0,b,0.0,0.6569981249999728,,,,,,,,,,9.0,2.0,110.0,4.0,433.1586481250001,,,,,,,,,,,,,,,,,433.149174334,434.3466813750001,435.13841975000014,435.130058834,,,,,,,,,,,,,,,,,,,,,,,,,,,,,,,,,,,435.1306649170001,435.13841975000014,435.13841975000014,435.797804542,b,0.0,0.6569981249999728,,,,,,sub-113,1,stroop_test,,
,,,,111.0,3.0,9.0,,,,,,,,,,,,,gelb,blue,b,0.0,b,1.0,1.7088452499999676,,,,,,,,,,9.0,3.0,111.0,9.0,435.808570125,,,,,,,,,,,,,,,,,435.798365917,435.896556125,436.6917990000002,436.68011108400015,,,,,,,,,,,,,,,,,,,,,,,,,,,,,,,,,,,436.683945,436.6917990000002,436.6917990000002,438.4081712090001,b,1.0,1.7088452499999676,,,,,,sub-113,1,stroop_test,,
,,,,112.0,4.0,9.0,,,,,,,,,,,,,blau,yellow,g,0.0,g,1.0,1.0591107499999453,,,,,,,,,,9.0,4.0,112.0,7.0,438.41854116700006,,,,,,,,,,,,,,,,,438.40881341700015,439.6060075,440.40400825000006,440.39039441700015,,,,,,,,,,,,,,,,,,,,,,,,,,,,,,,,,,,440.395108334,440.40400825000006,440.40400825000006,441.47521337500007,g,1.0,1.0591107499999453,,,,,,sub-113,1,stroop_test,,
,,,,113.0,5.0,9.0,,,,,,,,,,,,,gelb,yellow,g,1.0,g,1.0,0.7441065420000541,,,,,,,,,,9.0,5.0,113.0,10.0,441.48580783400007,,,,,,,,,,,,,,,,,441.475865292,442.672853,443.46943354200016,443.456700834,,,,,,,,,,,,,,,,,,,,,,,,,,,,,,,,,,,443.4618417920001,443.46943354200016,443.46943354200016,444.216396709,g,1.0,0.7441065420000541,,,,,,sub-113,1,stroop_test,,
,,,,114.0,6.0,9.0,,,,,,,,,,,,,gelb,red,r,0.0,r,1.0,1.259809292,,,,,,,,,,9.0,6.0,114.0,8.0,444.2271195840001,,,,,,,,,,,,,,,,,444.216968875,444.563024667,445.35477345900017,445.3463758340001,,,,,,,,,,,,,,,,,,,,,,,,,,,,,,,,,,,445.346881167,445.35477345900017,445.35477345900017,446.624859625,r,1.0,1.259809292,,,,,,sub-113,1,stroop_test,,
,,,,115.0,7.0,9.0,,,,,,,,,,,,,blau,blue,b,1.0,b,1.0,0.4924889999999777,,,,,,,,,,9.0,7.0,115.0,6.0,446.6351917920001,,,,,,,,,,,,,,,,,446.625439209,447.822672,448.61936808400014,448.60679300000015,,,,,,,,,,,,,,,,,,,,,,,,,,,,,,,,,,,448.6110430420001,448.61936808400014,448.61936808400014,449.11433620900016,b,1.0,0.4924889999999777,,,,,,sub-113,1,stroop_test,,
,,,,116.0,8.0,9.0,,,,,,,,,,,,,rot,red,r,1.0,r,1.0,0.9355471669998678,,,,,,,,,,9.0,8.0,116.0,0.0,449.125387542,,,,,,,,,,,,,,,,,449.114884584,449.9133019170001,450.7104489590001,450.6968911250001,,,,,,,,,,,,,,,,,,,,,,,,,,,,,,,,,,,450.700676959,450.7104489590001,450.7104489590001,451.6487568340001,r,1.0,0.9355471669998678,,,,,,sub-113,1,stroop_test,,
,,,,117.0,9.0,9.0,,,,,,,,,,,,,gelb,yellow,g,1.0,g,1.0,1.092479166999965,,,,,,,,,,9.0,9.0,117.0,11.0,451.65849412500006,,,,,,,,,,,,,,,,,451.6493257500001,451.7465185000001,452.551730375,452.5401375000001,,,,,,,,,,,,,,,,,,,,,,,,,,,,,,,,,,,452.54452512500006,452.551730375,452.551730375,453.6477272090001,g,1.0,1.092479166999965,,,,,,sub-113,1,stroop_test,,
,,,,118.0,10.0,9.0,,,,,,,,,,,,,rot,blue,b,0.0,b,1.0,1.3582619170001635,,,,,,,,,,9.0,10.0,118.0,2.0,453.65857362500014,,,,,,,,,,,,,,,,,453.6482965,454.846449959,455.642996584,455.629909084,,,,,,,,,,,,,,,,,,,,,,,,,,,,,,,,,,,455.6334985840001,455.642996584,455.642996584,457.0078781670002,b,1.0,1.3582619170001635,,,,,,sub-113,1,stroop_test,,
,,,,119.0,11.0,9.0,,,,,,,,,,,,,rot,red,r,1.0,r,1.0,0.9087519170000178,,,,,,,,,,9.0,11.0,119.0,1.0,457.01767195900015,,,,,,,,,,,,,,,,,457.00844233400016,457.80605379200006,458.5987005000002,458.59018270900015,,,,,,,,,,,,,,,,,,,,,,,,,,,,,,,,,,,458.59109320900006,458.5987005000002,458.5987005000002,459.5146004590001,r,1.0,0.9087519170000178,,,,,,sub-113,1,stroop_test,,
,,,,,,,,,,,,,,,,,,,,,,,,,,,,,,,,,,,,,,,,,,,,,,,,,,,,,,,,,,,,,,,,,,,,,,,,,,,,,,,,,,,,,,,,,,,,,,,,,,,,,,459.51492358400014,459.5271088340001,464.5225123340001,464.5119601250001,sub-113,1,stroop_test,,
