wordCTK,colorCTK,corrAnsCTK,congruentCTK,thisN,thisTrialN,thisRepN,keyResp_CTK.keys,keyResp_CTK.corr,keyResp_CTK.rt,keyResp_CTK.duration,wordPractice,colorPractice,corrAnsPractice,congruentPractice,respPractice.keys,respPractice.corr,respPractice.rt,respPractice.duration,word,color,corrAns,congruent,keyResp_test_run.keys,keyResp_test_run.corr,keyResp_test_run.rt,keyResp_test_run.duration,trials_CTK.thisRepN,trials_CTK.thisTrialN,trials_CTK.thisN,trials_CTK.thisIndex,trials_practice.thisRepN,trials_practice.thisTrialN,trials_practice.thisN,trials_practice.thisIndex,trials_test.thisRepN,trials_test.thisTrialN,trials_test.thisN,trials_test.thisIndex,thisRow.t,notes,instruction.started,instr_text.started,instr_image.started,instr_resp.started,instruction.stopped,instr_resp.keys,instr_resp.rt,instr_resp.duration,instr_color_to_key.started,instr_ctk.started,resp_ctk.started,instr_color_to_key.stopped,resp_ctk.keys,resp_ctk.rt,resp_ctk.duration,ITI.started,fixcross.started,fixcross.stopped,ITI.stopped,color_to_key_run.started,stimulus_CTK.started,keyResp_CTK.started,color_to_key_run.stopped,trials_CTK.keyResp_CTK.keys,trials_CTK.keyResp_CTK.corr,trials_CTK.keyResp_CTK.rt,trials_CTK.keyResp_CTK.duration,instr_practice.started,instr_practice_text.started,instr_practice_resp.started,instr_practice.stopped,instr_practice_resp.keys,instr_practice_resp.rt,instr_practice_resp.duration,practice_run.started,stimulus_practice.started,respPractice.started,practice_run.stopped,trials_practice.respPractice.keys,trials_practice.respPractice.corr,trials_practice.respPractice.rt,trials_practice.respPractice.duration,feedback.started,textFeedback.started,feedback.stopped,textFeedback.stopped,instr_test.started,instr_test_text.started,instr_test_resp.started,instr_test.stopped,instr_test_resp.keys,instr_test_resp.rt,instr_test_resp.duration,test_run.started,stimulus_test_run.started,keyResp_test_run.started,test_run.stopped,trials_test.keyResp_test_run.keys,trials_test.keyResp_test_run.corr,trials_test.keyResp_test_run.rt,trials_test.keyResp_test_run.duration,goodbye.started,textGoodbye.started,participant,session,expName,frameRate,Unnamed: 111
,,,,,,,,,,,,,,,,,,,,,,,,,,,,,,,,,,,,,,,,,0.0070376700023189,0.0259496390062849,0.0259496390062849,0.0259496390062849,4.9067889750003815,space,4.876648895995459,,,,,,,,,,,,,,,,,,,,,,,,,,,,,,,,,,,,,,,,,,,,,,,,,,,,,,,,,sub-084,1.0,stroop_test,,
,,,,,,,,,,,,,,,,,,,,,,,,,,,,,,,,,,,,,,,,,,,,,,,,,4.906835920002777,4.916314778005472,4.916314778005472,12.757114116015146,space,7.837254307989497,,,,,,,,,,,,,,,,,,,,,,,,,,,,,,,,,,,,,,,,,,,,,,,,,,sub-084,1.0,stroop_test,,
test,red,r,1.0,0.0,0.0,0.0,r,1.0,0.5873625070089474,,,,,,,,,,,,,,,,,,0.0,0.0,0.0,0.0,,,,,,,,,12.779473365022568,,,,,,,,,,,,,,,,,12.767770439008018,13.55739475801238,14.364281092013698,14.349299458001042,14.35624895102228,14.364281092013698,14.364281092013698,14.957641462999163,r,1.0,0.5873625070089474,,,,,,,,,,,,,,,,,,,,,,,,,,,,,,,,,,,,,,sub-084,1.0,stroop_test,,
test,yellow,g,1.0,1.0,1.0,0.0,g,1.0,0.4671930579934269,,,,,,,,,,,,,,,,,,0.0,1.0,1.0,1.0,,,,,,,,,14.968357203004416,,,,,,,,,,,,,,,,,14.958048585016511,16.155503583024256,16.949304280016804,16.93942710600095,16.94027682201704,16.949304280016804,16.949304280016804,17.423884913005168,g,1.0,0.4671930579934269,,,,,,,,,,,,,,,,,,,,,,,,,,,,,,,,,,,,,,sub-084,1.0,stroop_test,,
test,blue,b,1.0,2.0,2.0,0.0,b,1.0,0.4111546349886339,,,,,,,,,,,,,,,,,,0.0,2.0,2.0,2.0,,,,,,,,,17.4469211359974,,,,,,,,,,,,,,,,,17.424082431010902,18.231930681009544,19.022410903009582,19.015196136024315,19.015759692003485,19.022410903009582,19.022410903009582,19.43989278402296,b,1.0,0.4111546349886339,,,,,,,,,,,,,,,,,,,,,,,,,,,,,,,,,,,,,,sub-084,1.0,stroop_test,,
test,yellow,g,1.0,3.0,0.0,1.0,g,1.0,0.5019931370043196,,,,,,,,,,,,,,,,,,1.0,0.0,3.0,1.0,,,,,,,,,19.46348715701606,,,,,,,,,,,,,,,,,19.440122274012538,19.538953626004517,20.337618948018644,20.331099996023116,20.331456704996526,20.337618948018644,20.337618948018644,20.84887279200484,g,1.0,0.5019931370043196,,,,,,,,,,,,,,,,,,,,,,,,,,,,,,,,,,,,,,sub-084,1.0,stroop_test,,
test,blue,b,1.0,4.0,1.0,1.0,b,1.0,0.4664890720159746,,,,,,,,,,,,,,,,,,1.0,1.0,4.0,2.0,,,,,,,,,20.856342887011124,,,,,,,,,,,,,,,,,20.84909501799848,20.938072568998905,21.738203007000266,21.73159161300282,21.731978522002464,21.738203007000266,21.738203007000266,22.21523239702219,b,1.0,0.4664890720159746,,,,,,,,,,,,,,,,,,,,,,,,,,,,,,,,,,,,,,sub-084,1.0,stroop_test,,
test,red,r,1.0,5.0,2.0,1.0,r,1.0,0.430203676020028,,,,,,,,,,,,,,,,,,1.0,2.0,5.0,0.0,,,,,,,,,22.222474975016667,,,,,,,,,,,,,,,,,22.215463116008323,23.414041573007125,24.209408941009315,24.20015119900927,24.201357946003554,24.209408941009315,24.209408941009315,24.64884310401976,r,1.0,0.430203676020028,,,,,,,,,,,,,,,,,,,,,,,,,,,,,,,,,,,,,,sub-084,1.0,stroop_test,,
test,blue,b,1.0,6.0,0.0,2.0,b,1.0,0.3267429030092899,,,,,,,,,,,,,,,,,,2.0,0.0,6.0,2.0,,,,,,,,,24.6560704690055,,,,,,,,,,,,,,,,,24.649071008025203,25.83941870101262,26.640905141015537,26.63304111501202,26.633689509006217,26.640905141015537,26.640905141015537,26.97306525500608,b,1.0,0.3267429030092899,,,,,,,,,,,,,,,,,,,,,,,,,,,,,,,,,,,,,,sub-084,1.0,stroop_test,,
test,yellow,g,1.0,7.0,1.0,2.0,g,1.0,0.511102104006568,,,,,,,,,,,,,,,,,,2.0,1.0,7.0,1.0,,,,,,,,,26.99727053102106,,,,,,,,,,,,,,,,,26.97341585101094,27.07144151200191,27.86766602602438,27.856605654000305,27.85790048900526,27.86766602602438,27.86766602602438,28.38389181002276,g,1.0,0.511102104006568,,,,,,,,,,,,,,,,,,,,,,,,,,,,,,,,,,,,,,sub-084,1.0,stroop_test,,
test,red,r,1.0,8.0,2.0,2.0,r,1.0,0.3312853490060661,,,,,,,,,,,,,,,,,,2.0,2.0,8.0,0.0,,,,,,,,,28.39135024399729,,,,,,,,,,,,,,,,,28.384211147000315,29.58274897999945,30.382254955999088,30.37150052402285,30.37253299402073,30.382254955999088,30.382254955999088,30.71559896200779,r,1.0,0.3312853490060661,,,,,,,,,,,,,,,,,,,,,,,,,,,,,,,,,,,,,,sub-084,1.0,stroop_test,,
test,red,r,1.0,9.0,0.0,3.0,r,1.0,0.5185868050029967,,,,,,,,,,,,,,,,,,3.0,0.0,9.0,0.0,,,,,,,,,30.72147045499878,,,,,,,,,,,,,,,,,30.715833554015266,31.066281583014643,31.85910127102397,31.85009043800528,31.850879951001843,31.85910127102397,31.85910127102397,32.38255114899948,r,1.0,0.5185868050029967,,,,,,,,,,,,,,,,,,,,,,,,,,,,,,,,,,,,,,sub-084,1.0,stroop_test,,
test,yellow,g,1.0,10.0,1.0,3.0,g,1.0,0.3404670629824977,,,,,,,,,,,,,,,,,,3.0,1.0,10.0,1.0,,,,,,,,,32.38992342702113,,,,,,,,,,,,,,,,,32.3828338390158,33.1724755410105,33.975244365021354,33.96633063501213,33.96696956202504,33.975244365021354,33.975244365021354,34.324088773020776,g,1.0,0.3404670629824977,,,,,,,,,,,,,,,,,,,,,,,,,,,,,,,,,,,,,,sub-084,1.0,stroop_test,,
test,blue,b,1.0,11.0,2.0,3.0,b,1.0,0.4022832030022982,,,,,,,,,,,,,,,,,,3.0,2.0,11.0,2.0,,,,,,,,,34.33472301802249,,,,,,,,,,,,,,,,,34.32446482300293,35.52232358101173,36.3252737520088,36.31622611600324,36.31688492401736,36.3252737520088,36.3252737520088,36.73565729300026,b,1.0,0.4022832030022982,,,,,,,,,,,,,,,,,,,,,,,,,,,,,,,,,,,,,,sub-084,1.0,stroop_test,,
,,,,,,,,,,,,,,,,,,,,,,,,,,,,,,,,,,,,,,,,,,,,,,,,,,,,,,,,,,,,,,,,,,,,36.73580642300658,36.74804033801775,36.74804033801775,41.839597577025415,space,5.086814159993082,,,,,,,,,,,,,,,,,,,,,,,,,,,,,,,sub-084,1.0,stroop_test,,
,,,,0.0,0.0,0.0,,,,,rot,yellow,g,0.0,g,1.0,0.7334397359809373,,,,,,,,,,,,,,0.0,0.0,0.0,3.0,,,,,41.85849097100436,,,,,,,,,,,,,,,,,41.84979723801371,43.05038364400389,43.85033615300199,43.83465014302055,,,,,,,,,,,,,,,,43.84131550299935,43.85033615300199,43.85033615300199,44.5903041990241,g,1.0,0.7334397359809373,,44.59883366400027,44.61085507299868,45.59945473301923,,,,,,,,,,,,,,,,,,,sub-084,1.0,stroop_test,,
,,,,1.0,1.0,0.0,,,,,blau,red,r,0.0,r,1.0,0.504949394002324,,,,,,,,,,,,,,0.0,1.0,1.0,4.0,,,,,45.60572675502044,,,,,,,,,,,,,,,,,45.60013287700713,45.93882806101465,46.751699207001366,46.73479839900392,,,,,,,,,,,,,,,,46.74341053201351,46.751699207001366,46.751699207001366,47.26540825801203,r,1.0,0.504949394002324,,47.26583055901574,47.27349418299855,48.26507880500867,48.27103416802129,,,,,,,,,,,,,,,,,,sub-084,1.0,stroop_test,,
,,,,2.0,2.0,0.0,,,,,rot,blue,b,0.0,b,1.0,0.339186223980505,,,,,,,,,,,,,,0.0,2.0,2.0,2.0,,,,,48.27103416802129,,,,,,,,,,,,,,,,,48.265532934019575,49.05565674600075,49.86155578499893,49.849611634010216,,,,,,,,,,,,,,,,49.853426936024334,49.86155578499893,49.86155578499893,50.20789094801876,b,1.0,0.339186223980505,,50.2082041130052,50.2168903730053,51.20437453201157,51.214499926019926,,,,,,,,,,,,,,,,,,sub-084,1.0,stroop_test,,
,,,,3.0,3.0,0.0,,,,,blau,yellow,g,0.0,g,1.0,0.4852401689859107,,,,,,,,,,,,,,0.0,3.0,3.0,7.0,,,,,51.214499926019926,,,,,,,,,,,,,,,,,51.2051172410138,52.005524086998776,52.80144875100814,52.78903348001768,,,,,,,,,,,,,,,,52.79330887601827,52.80144875100814,52.80144875100814,53.29833920300007,g,1.0,0.4852401689859107,,53.2986419070221,53.30624337101472,54.2897065510042,54.29815549502382,,,,,,,,,,,,,,,,,,sub-084,1.0,stroop_test,,
,,,,4.0,4.0,0.0,,,,,gelb,yellow,g,1.0,g,1.0,0.3699475959874689,,,,,,,,,,,,,,0.0,4.0,4.0,11.0,,,,,54.29815549502382,,,,,,,,,,,,,,,,,54.290349774004426,55.48765033402015,56.29599604400573,56.28424992901273,,,,,,,,,,,,,,,,56.28806150300079,56.29599604400573,56.29599604400573,56.67279025900643,g,1.0,0.3699475959874689,,56.673100749001605,56.68299224702059,57.6661602530221,57.6721565159969,,,,,,,,,,,,,,,,,,sub-084,1.0,stroop_test,,
,,,,5.0,5.0,0.0,,,,,gelb,red,r,0.0,r,1.0,0.3470426510029938,,,,,,,,,,,,,,0.0,5.0,5.0,8.0,,,,,57.6721565159969,,,,,,,,,,,,,,,,,57.66659293801058,58.87198596901726,59.67361315101152,59.66591426800005,,,,,,,,,,,,,,,,59.66653961202246,59.67361315101152,59.67361315101152,60.02217578102136,r,1.0,0.3470426510029938,,60.02253564901184,60.03339533502003,61.022701670997776,61.03143845300656,,,,,,,,,,,,,,,,,,sub-084,1.0,stroop_test,,
,,,,6.0,6.0,0.0,,,,,rot,red,r,1.0,r,1.0,0.4113747170194983,,,,,,,,,,,,,,0.0,6.0,6.0,1.0,,,,,61.03143845300656,,,,,,,,,,,,,,,,,61.02321593501256,61.38378596800612,62.18442337002489,62.17143618900445,,,,,,,,,,,,,,,,62.17575570801273,62.18442337002489,62.18442337002489,62.598485756025184,r,1.0,0.4113747170194983,,62.598911970009794,62.60754278401146,63.59796742899925,63.60398031200748,,,,,,,,,,,,,,,,,,sub-084,1.0,stroop_test,,
,,,,7.0,7.0,0.0,,,,,rot,red,r,1.0,r,1.0,0.5226711499853991,,,,,,,,,,,,,,0.0,7.0,7.0,0.0,,,,,63.60398031200748,,,,,,,,,,,,,,,,,63.59841581899673,63.938453984010266,64.74030035501346,64.73256457300158,,,,,,,,,,,,,,,,64.733209181024,64.74030035501346,64.74030035501346,65.26489154802402,r,1.0,0.5226711499853991,,65.26523682900006,65.27402465199702,66.2645657910034,66.27049283400993,,,,,,,,,,,,,,,,,,sub-084,1.0,stroop_test,,
,,,,8.0,8.0,0.0,,,,,blau,blue,b,1.0,b,1.0,0.3561758940049913,,,,,,,,,,,,,,0.0,8.0,8.0,5.0,,,,,66.27049283400993,,,,,,,,,,,,,,,,,66.26498531200923,66.60404052500962,67.40069441101514,67.38767280400498,,,,,,,,,,,,,,,,67.39222075001453,67.40069441101514,67.40069441101514,67.7664012380119,b,1.0,0.3561758940049913,,67.7667890440207,67.77587789599784,68.76472222001757,68.77066842000932,,,,,,,,,,,,,,,,,,sub-084,1.0,stroop_test,,
,,,,9.0,9.0,0.0,,,,,blau,blue,b,1.0,b,1.0,0.3999740509898402,,,,,,,,,,,,,,0.0,9.0,9.0,6.0,,,,,68.77066842000932,,,,,,,,,,,,,,,,,68.76515639200807,69.5641468600079,70.35387311701197,70.34735061001265,,,,,,,,,,,,,,,,70.34770198000479,70.35387311701197,70.35387311701197,70.76449695200427,b,1.0,0.3999740509898402,,70.76482973000384,70.77252027700888,71.76470148100634,71.77085336000891,,,,,,,,,,,,,,,,,,sub-084,1.0,stroop_test,,
,,,,10.0,10.0,0.0,,,,,gelb,blue,b,0.0,b,1.0,0.3745909599820152,,,,,,,,,,,,,,0.0,10.0,10.0,9.0,,,,,71.77085336000891,,,,,,,,,,,,,,,,,71.76515653001843,72.5549002510088,73.35833647701656,73.3479917870136,,,,,,,,,,,,,,,,73.35078094401979,73.35833647701656,73.35833647701656,73.73984317600843,b,1.0,0.3745909599820152,,73.7401781300141,73.75008794301539,74.73941077201744,74.74825752101606,,,,,,,,,,,,,,,,,,sub-084,1.0,stroop_test,,
,,,,11.0,11.0,0.0,,,,,gelb,yellow,g,1.0,g,1.0,0.4855869619932491,,,,,,,,,,,,,,0.0,11.0,11.0,10.0,,,,,74.74825752101606,,,,,,,,,,,,,,,,,74.74014369701035,75.08705177201773,75.88314210000681,75.87212698700023,,,,,,,,,,,,,,,,75.87323752100929,75.88314210000681,75.88314210000681,76.37155204400187,g,1.0,0.4855869619932491,,76.37189554100041,76.3972743129998,77.38383765501203,,,,,,,,,,,,,,,,,,,sub-084,1.0,stroop_test,,
,,,,12.0,0.0,1.0,,,,,blau,blue,b,1.0,b,1.0,0.4662620419985614,,,,,,,,,,,,,,1.0,0.0,12.0,5.0,,,,,77.39736877501127,,,,,,,,,,,,,,,,,77.38449024001602,78.16398697000113,78.95956946100341,78.94795554800658,,,,,,,,,,,,,,,,78.95168196700979,78.95956946100341,78.95956946100341,79.43497918100911,b,1.0,0.4662620419985614,,79.4356299280189,79.44702031600173,80.43082639001659,80.43714350101072,,,,,,,,,,,,,,,,,,sub-084,1.0,stroop_test,,
,,,,13.0,1.0,1.0,,,,,gelb,red,r,0.0,r,1.0,0.5088860190007836,,,,,,,,,,,,,,1.0,1.0,13.0,8.0,,,,,80.43714350101072,,,,,,,,,,,,,,,,,80.43127854500199,80.53070761900744,81.32294062900473,81.31400820802082,,,,,,,,,,,,,,,,81.31656136701349,81.32294062900473,81.32294062900473,81.838107855001,r,1.0,0.5088860190007836,,81.83857839400298,81.86377300802269,82.84756511400337,,,,,,,,,,,,,,,,,,,sub-084,1.0,stroop_test,,
,,,,14.0,2.0,1.0,,,,,rot,yellow,g,0.0,g,1.0,0.3812818459991831,,,,,,,,,,,,,,1.0,2.0,14.0,3.0,,,,,82.8535575880087,,,,,,,,,,,,,,,,,82.84803328401176,83.18070761099807,83.97556860299665,83.96441315900302,,,,,,,,,,,,,,,,83.96807524401811,83.97556860299665,83.97556860299665,84.364756038005,g,1.0,0.3812818459991831,,84.36505964500248,84.37264641400543,85.36508896801388,,,,,,,,,,,,,,,,,,,sub-084,1.0,stroop_test,,
,,,,15.0,3.0,1.0,,,,,blau,blue,b,1.0,b,1.0,0.6161289509909693,,,,,,,,,,,,,,1.0,3.0,15.0,6.0,,,,,85.37119303000509,,,,,,,,,,,,,,,,,85.36555117499665,86.15511536801932,86.96044248199905,86.94867318600882,,,,,,,,,,,,,,,,86.9528040200239,86.96044248199905,86.96044248199905,87.58201954700053,b,1.0,0.6161289509909693,,87.58242294599768,87.59168979001697,88.58141674200306,88.58762671001023,,,,,,,,,,,,,,,,,,sub-084,1.0,stroop_test,,
,,,,16.0,4.0,1.0,,,,,gelb,blue,b,0.0,b,1.0,0.4127933279960416,,,,,,,,,,,,,,1.0,4.0,16.0,9.0,,,,,88.58762671001023,,,,,,,,,,,,,,,,,88.58190116900369,89.78071131699835,90.57706655201036,90.56457407202106,,,,,,,,,,,,,,,,90.56894757499686,90.57706655201036,90.57706655201036,90.99759066701516,b,1.0,0.4127933279960416,,90.99796601000708,91.00735968002118,92.00026443600656,,,,,,,,,,,,,,,,,,,sub-084,1.0,stroop_test,,
,,,,17.0,5.0,1.0,,,,,blau,yellow,g,0.0,g,1.0,0.6047255330195185,,,,,,,,,,,,,,1.0,5.0,17.0,7.0,,,,,92.01645225001266,,,,,,,,,,,,,,,,,92.00092270501771,92.3381559010013,93.14213226002175,93.1307571460202,,,,,,,,,,,,,,,,93.13385250500868,93.14213226002175,93.14213226002175,93.74821591100772,g,1.0,0.6047255330195185,,93.7486433580052,93.75685217801949,94.74973495601444,,,,,,,,,,,,,,,,,,,sub-084,1.0,stroop_test,,
,,,,18.0,6.0,1.0,,,,,blau,red,r,0.0,r,1.0,0.3059104739804752,,,,,,,,,,,,,,1.0,6.0,18.0,4.0,,,,,94.76641240602476,,,,,,,,,,,,,,,,,94.7503978680179,95.53753119701288,96.33899820002262,96.33144955700844,,,,,,,,,,,,,,,,96.33198259002528,96.33899820002262,96.33899820002262,96.64819403999718,r,1.0,0.3059104739804752,,96.64880628802348,96.6576144900173,97.64882370401756,,,,,,,,,,,,,,,,,,,sub-084,1.0,stroop_test,,
,,,,19.0,7.0,1.0,,,,,gelb,yellow,g,1.0,g,1.0,0.3521748500061221,,,,,,,,,,,,,,1.0,7.0,19.0,10.0,,,,,97.6548734450189,,,,,,,,,,,,,,,,,97.64929227202084,98.4487573049846,99.2508609390352,99.23710833198857,,,,,,,,,,,,,,,,99.24142886098709,99.2508609390352,99.2508609390352,99.60483400698286,g,1.0,0.3521748500061221,,99.6051788390032,99.61607404402456,100.60393779200967,100.61426215898246,,,,,,,,,,,,,,,,,,sub-084,1.0,stroop_test,,
,,,,20.0,8.0,1.0,,,,,gelb,yellow,g,1.0,g,1.0,0.4210726800374686,,,,,,,,,,,,,,1.0,8.0,20.0,11.0,,,,,100.61426215898246,,,,,,,,,,,,,,,,,100.60449046303984,101.79727913899114,102.58625863998896,102.58017074503005,,,,,,,,,,,,,,,,102.58047584799353,102.58625863998896,102.58625863998896,103.01497205899796,g,1.0,0.4210726800374686,,103.0152868219884,103.02330513298512,104.01414474798366,104.02025954902638,,,,,,,,,,,,,,,,,,sub-084,1.0,stroop_test,,
,,,,21.0,9.0,1.0,,,,,rot,red,r,1.0,r,1.0,0.5568525359849446,,,,,,,,,,,,,,1.0,9.0,21.0,1.0,,,,,104.02025954902638,,,,,,,,,,,,,,,,,104.01458114699926,105.20463072502751,106.00034261902329,105.98756838298868,,,,,,,,,,,,,,,,105.99152245698497,106.00034261902329,106.00034261902329,106.56417452398456,r,1.0,0.5568525359849446,,106.5645387340337,106.57250895199832,107.56436787603889,107.57034012599615,,,,,,,,,,,,,,,,,,sub-084,1.0,stroop_test,,
,,,,22.0,10.0,1.0,,,,,rot,blue,b,0.0,b,1.0,0.752378144999966,,,,,,,,,,,,,,1.0,10.0,22.0,2.0,,,,,107.57034012599615,,,,,,,,,,,,,,,,,107.56479580502491,107.65484770399053,108.45356524700765,108.44704247399932,,,,,,,,,,,,,,,,108.44743027701044,108.45356524700765,108.45356524700765,109.21612837299472,b,1.0,0.752378144999966,,109.21669726603432,109.22732944902964,110.21437252103352,110.22035094501916,,,,,,,,,,,,,,,,,,sub-084,1.0,stroop_test,,
,,,,23.0,11.0,1.0,,,,,rot,red,r,1.0,r,1.0,0.2988661339622922,,,,,,,,,,,,,,1.0,11.0,23.0,0.0,,,,,110.22035094501916,,,,,,,,,,,,,,,,,110.2148008570075,111.41430180199676,112.20522302703466,112.19751699001064,,,,,,,,,,,,,,,,112.19814448303076,112.20522302703466,112.20522302703466,112.51430271100251,r,1.0,0.2988661339622922,,112.51461209601256,112.52242128399666,113.5142415210139,113.52245424001012,,,,,,,,,,,,,,,,,,sub-084,1.0,stroop_test,,
,,,,,,,,,,,,,,,,,,,,,,,,,,,,,,,,,,,,,,,,,,,,,,,,,,,,,,,,,,,,,,,,,,,,,,,,,,,,,,,,,,,,,,,113.51441954402252,113.52245424001012,113.52245424001012,117.36483556800522,space,3.83860319503583,,,,,,,,,,,,sub-084,1.0,stroop_test,,
,,,,0.0,0.0,0.0,,,,,,,,,,,,,gelb,yellow,g,1.0,g,1.0,0.3709631530218757,,,,,,,,,,0.0,0.0,0.0,10.0,117.38294589403084,,,,,,,,,,,,,,,,,117.37454983603676,118.15435394499218,118.95006423600717,118.93775799800642,,,,,,,,,,,,,,,,,,,,,,,,,,,,,,,,,,,118.94077140802985,118.95006423600717,118.95006423600717,119.3317086439929,g,1.0,0.3709631530218757,,,,sub-084,1.0,stroop_test,,
,,,,1.0,1.0,0.0,,,,,,,,,,,,,rot,blue,b,0.0,b,1.0,0.6395951149752364,,,,,,,,,,0.0,1.0,1.0,2.0,119.34090604900848,,,,,,,,,,,,,,,,,119.33206336700825,119.43002524599432,120.22151224600384,120.21329935803078,,,,,,,,,,,,,,,,,,,,,,,,,,,,,,,,,,,120.21510948298965,120.22151224600384,120.22151224600384,120.86457714799326,b,1.0,0.6395951149752364,,,,sub-084,1.0,stroop_test,,
,,,,2.0,2.0,0.0,,,,,,,,,,,,,gelb,red,r,0.0,r,1.0,0.2843571080011315,,,,,,,,,,0.0,2.0,2.0,8.0,120.87216782098405,,,,,,,,,,,,,,,,,120.864870660007,122.05333584803157,122.84932716801995,122.83642223401694,,,,,,,,,,,,,,,,,,,,,,,,,,,,,,,,,,,122.84089445602147,122.84932716801995,122.84932716801995,123.1389158060192,r,1.0,0.2843571080011315,,,,sub-084,1.0,stroop_test,,
,,,,3.0,3.0,0.0,,,,,,,,,,,,,blau,blue,b,1.0,b,1.0,1.1326926099718548,,,,,,,,,,0.0,3.0,3.0,6.0,123.16245883202646,,,,,,,,,,,,,,,,,123.13928059098544,123.23785819701152,124.04430995800068,124.03192692802986,,,,,,,,,,,,,,,,,,,,,,,,,,,,,,,,,,,124.03606063500048,124.04430995800068,124.04430995800068,125.18071726401104,b,1.0,1.1326926099718548,,,,sub-084,1.0,stroop_test,,
,,,,4.0,4.0,0.0,,,,,,,,,,,,,blau,yellow,g,0.0,g,1.0,0.4123739060014486,,,,,,,,,,0.0,4.0,4.0,7.0,125.18933568301144,,,,,,,,,,,,,,,,,125.18099823000377,125.97052347898716,126.77950396598315,126.75489635998385,,,,,,,,,,,,,,,,,,,,,,,,,,,,,,,,,,,126.75594821403502,126.77950396598315,126.77950396598315,127.19892719201744,g,1.0,0.4123739060014486,,,,sub-084,1.0,stroop_test,,
,,,,5.0,5.0,0.0,,,,,,,,,,,,,gelb,yellow,g,1.0,g,1.0,0.3790721670375205,,,,,,,,,,0.0,5.0,5.0,11.0,127.21325816801982,,,,,,,,,,,,,,,,,127.19916074402865,127.99803181103198,128.80101034301333,128.78687330998946,,,,,,,,,,,,,,,,,,,,,,,,,,,,,,,,,,,128.7911854730337,128.80101034301333,128.80101034301333,129.18216922302963,g,1.0,0.3790721670375205,,,,sub-084,1.0,stroop_test,,
,,,,6.0,6.0,0.0,,,,,,,,,,,,,rot,red,r,1.0,b,0.0,0.3954206749913282,,,,,,,,,,0.0,6.0,6.0,1.0,129.18805960100144,,,,,,,,,,,,,,,,,129.1824254420353,130.38109654403524,131.1845036179875,131.1700146070216,,,,,,,,,,,,,,,,,,,,,,,,,,,,,,,,,,,131.17485712101916,131.1845036179875,131.1845036179875,131.58130103803703,b,0.0,0.3954206749913282,,,,sub-084,1.0,stroop_test,,
,,,,7.0,7.0,0.0,,,,,,,,,,,,,rot,yellow,g,0.0,g,1.0,0.7173070629942231,,,,,,,,,,0.0,7.0,7.0,3.0,131.58716758002993,,,,,,,,,,,,,,,,,131.58160362398485,131.68127032800112,132.4807525849901,132.4701505789999,,,,,,,,,,,,,,,,,,,,,,,,,,,,,,,,,,,132.4711959810229,132.4807525849901,132.4807525849901,133.2046283230302,g,1.0,0.7173070629942231,,,,sub-084,1.0,stroop_test,,
,,,,8.0,8.0,0.0,,,,,,,,,,,,,gelb,blue,b,0.0,b,1.0,0.7486484730034135,,,,,,,,,,0.0,8.0,8.0,9.0,133.21275230502945,,,,,,,,,,,,,,,,,133.2048696790007,133.5543426410295,134.3593128339853,134.34704753098777,,,,,,,,,,,,,,,,,,,,,,,,,,,,,,,,,,,134.3514011009829,134.3593128339853,134.3593128339853,135.11464652098948,b,1.0,0.7486484730034135,,,,sub-084,1.0,stroop_test,,
,,,,9.0,9.0,0.0,,,,,,,,,,,,,rot,red,r,1.0,r,1.0,0.5040387499611825,,,,,,,,,,0.0,9.0,9.0,0.0,135.12247980001848,,,,,,,,,,,,,,,,,135.11491963703884,135.2142511390266,136.0089672160102,135.9971111129853,,,,,,,,,,,,,,,,,,,,,,,,,,,,,,,,,,,136.00064112100517,136.0089672160102,136.0089672160102,136.5207742190105,r,1.0,0.5040387499611825,,,,sub-084,1.0,stroop_test,,
,,,,10.0,10.0,0.0,,,,,,,,,,,,,blau,red,r,0.0,r,1.0,0.3486236979952082,,,,,,,,,,0.0,10.0,10.0,4.0,136.53012095403392,,,,,,,,,,,,,,,,,136.52102234802442,137.33296533901012,138.13446756498888,138.12018958298722,,,,,,,,,,,,,,,,,,,,,,,,,,,,,,,,,,,138.1244237589999,138.13446756498888,138.13446756498888,138.496967390005,r,1.0,0.3486236979952082,,,,sub-084,1.0,stroop_test,,
,,,,11.0,11.0,0.0,,,,,,,,,,,,,blau,blue,b,1.0,b,1.0,0.4884817859856412,,,,,,,,,,0.0,11.0,11.0,5.0,138.50423936202424,,,,,,,,,,,,,,,,,138.49722111102892,138.5879628600087,139.3906083960319,139.38146514102118,,,,,,,,,,,,,,,,,,,,,,,,,,,,,,,,,,,139.38209918502253,139.3906083960319,139.3906083960319,139.8811670470168,b,1.0,0.4884817859856412,,,,sub-084,1.0,stroop_test,,
,,,,12.0,0.0,1.0,,,,,,,,,,,,,rot,blue,b,0.0,b,1.0,0.9882735590217636,,,,,,,,,,1.0,0.0,12.0,2.0,139.886829427036,,,,,,,,,,,,,,,,,139.8814264939865,139.97090178902727,140.7757141200127,140.76385605998803,,,,,,,,,,,,,,,,,,,,,,,,,,,,,,,,,,,140.7679148479947,140.7757141200127,140.7757141200127,141.76530957600335,b,1.0,0.9882735590217636,,,,sub-084,1.0,stroop_test,,
,,,,13.0,1.0,1.0,,,,,,,,,,,,,blau,yellow,g,0.0,g,1.0,0.5391819719807245,,,,,,,,,,1.0,1.0,13.0,7.0,141.77121824398637,,,,,,,,,,,,,,,,,141.7655652030371,142.11398411303526,142.91301335400203,142.89982992003206,,,,,,,,,,,,,,,,,,,,,,,,,,,,,,,,,,,142.90470576001098,142.91301335400203,142.91301335400203,143.4557664070162,g,1.0,0.5391819719807245,,,,sub-084,1.0,stroop_test,,
,,,,14.0,2.0,1.0,,,,,,,,,,,,,blau,blue,b,1.0,b,1.0,1.11109562398633,,,,,,,,,,1.0,2.0,14.0,5.0,143.4637876719935,,,,,,,,,,,,,,,,,143.4560373360291,143.80310587398708,144.59696979203727,144.5866196010029,,,,,,,,,,,,,,,,,,,,,,,,,,,,,,,,,,,144.5874778360012,144.59696979203727,144.59696979203727,145.71405115100788,b,1.0,1.11109562398633,,,,sub-084,1.0,stroop_test,,
,,,,15.0,3.0,1.0,,,,,,,,,,,,,gelb,red,r,0.0,r,1.0,0.5277807679958642,,,,,,,,,,1.0,3.0,15.0,8.0,145.72242569900118,,,,,,,,,,,,,,,,,145.7143743240158,145.8141667220043,146.6118496929994,146.5986996369902,,,,,,,,,,,,,,,,,,,,,,,,,,,,,,,,,,,146.6027240800322,146.6118496929994,146.6118496929994,147.14697270200122,r,1.0,0.5277807679958642,,,,sub-084,1.0,stroop_test,,
,,,,16.0,4.0,1.0,,,,,,,,,,,,,rot,yellow,g,0.0,g,1.0,0.6752413950162008,,,,,,,,,,1.0,4.0,16.0,3.0,147.15569715498714,,,,,,,,,,,,,,,,,147.14726414403412,148.34744406602113,149.1627941080369,149.13332382403314,,,,,,,,,,,,,,,,,,,,,,,,,,,,,,,,,,,149.13843913201708,149.1627941080369,149.1627941080369,149.84711153403623,g,1.0,0.6752413950162008,,,,sub-084,1.0,stroop_test,,
,,,,17.0,5.0,1.0,,,,,,,,,,,,,rot,red,r,1.0,r,1.0,0.8588483959902078,,,,,,,,,,1.0,5.0,17.0,1.0,149.85437662201002,,,,,,,,,,,,,,,,,149.84735421201913,149.94718145602383,150.74634830799187,150.73579883103957,,,,,,,,,,,,,,,,,,,,,,,,,,,,,,,,,,,150.73655815800885,150.74634830799187,150.74634830799187,151.61383633303922,r,1.0,0.8588483959902078,,,,sub-084,1.0,stroop_test,,
,,,,18.0,6.0,1.0,,,,,,,,,,,,,blau,blue,b,1.0,b,1.0,0.4945909720263444,,,,,,,,,,1.0,6.0,18.0,6.0,151.6209009970189,,,,,,,,,,,,,,,,,151.61405791103607,151.95273717900272,152.75147963798372,152.73769500199705,,,,,,,,,,,,,,,,,,,,,,,,,,,,,,,,,,,152.74291830399306,152.75147963798372,152.75147963798372,153.24728367401983,b,1.0,0.4945909720263444,,,,sub-084,1.0,stroop_test,,
,,,,19.0,7.0,1.0,,,,,,,,,,,,,rot,red,r,1.0,r,1.0,0.5713140039588325,,,,,,,,,,1.0,7.0,19.0,0.0,153.25337245699484,,,,,,,,,,,,,,,,,153.2475431530038,154.43694765202235,155.24168104899582,155.23038358503254,,,,,,,,,,,,,,,,,,,,,,,,,,,,,,,,,,,155.23382588400273,155.24168104899582,155.24168104899582,155.81416518002516,r,1.0,0.5713140039588325,,,,sub-084,1.0,stroop_test,,
,,,,20.0,8.0,1.0,,,,,,,,,,,,,gelb,blue,b,0.0,b,1.0,0.6641289059771225,,,,,,,,,,1.0,8.0,20.0,9.0,155.82029079803033,,,,,,,,,,,,,,,,,155.81441955600167,155.90447586402297,156.70889330800856,156.69685226900037,,,,,,,,,,,,,,,,,,,,,,,,,,,,,,,,,,,156.7007908570231,156.70889330800856,156.70889330800856,157.38009432598483,b,1.0,0.6641289059771225,,,,sub-084,1.0,stroop_test,,
,,,,21.0,9.0,1.0,,,,,,,,,,,,,blau,red,r,0.0,r,1.0,0.5058229069691151,,,,,,,,,,1.0,9.0,21.0,4.0,157.38764178799465,,,,,,,,,,,,,,,,,157.38032805698458,157.72058716102038,158.5251588469837,158.51346332702087,,,,,,,,,,,,,,,,,,,,,,,,,,,,,,,,,,,158.51727210002718,158.5251588469837,158.5251588469837,159.03832147299545,r,1.0,0.5058229069691151,,,,sub-084,1.0,stroop_test,,
,,,,22.0,10.0,1.0,,,,,,,,,,,,,gelb,yellow,g,1.0,g,1.0,0.3086035429732874,,,,,,,,,,1.0,10.0,22.0,10.0,159.04767223302042,,,,,,,,,,,,,,,,,159.03854778403183,159.38622824999038,160.18365840701154,160.17095933301607,,,,,,,,,,,,,,,,,,,,,,,,,,,,,,,,,,,160.17556809802772,160.18365840701154,160.18365840701154,160.4987062989967,g,1.0,0.3086035429732874,,,,sub-084,1.0,stroop_test,,
,,,,23.0,11.0,1.0,,,,,,,,,,,,,gelb,yellow,g,1.0,g,1.0,0.5062180830282159,,,,,,,,,,1.0,11.0,23.0,11.0,160.5078585339943,,,,,,,,,,,,,,,,,160.49907890002942,160.84649723599432,161.63893308199476,161.6299616000033,,,,,,,,,,,,,,,,,,,,,,,,,,,,,,,,,,,161.63060057500843,161.63893308199476,161.63893308199476,162.14811604603892,g,1.0,0.5062180830282159,,,,sub-084,1.0,stroop_test,,
,,,,24.0,0.0,2.0,,,,,,,,,,,,,rot,yellow,g,0.0,g,1.0,0.3515276160323992,,,,,,,,,,2.0,0.0,24.0,3.0,162.15635668998584,,,,,,,,,,,,,,,,,162.14837925502798,162.93738843500614,163.74375749903265,163.7312863850384,,,,,,,,,,,,,,,,,,,,,,,,,,,,,,,,,,,163.73574679199373,163.74375749903265,163.74375749903265,164.09764855302635,g,1.0,0.3515276160323992,,,,sub-084,1.0,stroop_test,,
,,,,25.0,1.0,2.0,,,,,,,,,,,,,blau,red,r,0.0,r,1.0,1.7688650600030087,,,,,,,,,,2.0,1.0,25.0,4.0,164.10339825903066,,,,,,,,,,,,,,,,,164.09790710901143,164.8974306670134,165.69242803700035,165.68126265803585,,,,,,,,,,,,,,,,,,,,,,,,,,,,,,,,,,,165.68505104002543,165.69242803700035,165.69242803700035,167.46531419898383,r,1.0,1.7688650600030087,,,,sub-084,1.0,stroop_test,,
,,,,26.0,2.0,2.0,,,,,,,,,,,,,rot,red,r,1.0,r,1.0,1.4013020599959418,,,,,,,,,,2.0,2.0,26.0,0.0,167.473540445033,,,,,,,,,,,,,,,,,167.46574189298553,167.5638519040076,168.36586965899917,168.35275798500516,,,,,,,,,,,,,,,,,,,,,,,,,,,,,,,,,,,168.35722576000262,168.36586965899917,168.36586965899917,169.77198467002015,r,1.0,1.4013020599959418,,,,sub-084,1.0,stroop_test,,
,,,,27.0,3.0,2.0,,,,,,,,,,,,,rot,red,r,1.0,r,1.0,0.4517839620239101,,,,,,,,,,2.0,3.0,27.0,1.0,169.781451369985,,,,,,,,,,,,,,,,,169.772226428031,170.97087599302176,171.77920330798952,171.75407009199262,,,,,,,,,,,,,,,,,,,,,,,,,,,,,,,,,,,171.75512759800768,171.77920330798952,171.77920330798952,172.23891760903643,r,1.0,0.4517839620239101,,,,sub-084,1.0,stroop_test,,
,,,,28.0,4.0,2.0,,,,,,,,,,,,,gelb,yellow,g,1.0,g,1.0,0.7812874070368707,,,,,,,,,,2.0,4.0,28.0,11.0,172.24816815298982,,,,,,,,,,,,,,,,,172.2391751910327,172.33600143599324,173.13286147703184,173.11968615703518,,,,,,,,,,,,,,,,,,,,,,,,,,,,,,,,,,,173.1242058299831,173.13286147703184,173.13286147703184,173.91531522298465,g,1.0,0.7812874070368707,,,,sub-084,1.0,stroop_test,,
,,,,29.0,5.0,2.0,,,,,,,,,,,,,rot,blue,b,0.0,b,1.0,0.6827521169907413,,,,,,,,,,2.0,5.0,29.0,2.0,173.92279854702065,,,,,,,,,,,,,,,,,173.91557361301966,174.26391641702503,175.06264336698223,175.04926966200583,,,,,,,,,,,,,,,,,,,,,,,,,,,,,,,,,,,175.0532233529957,175.06264336698223,175.06264336698223,175.75023996899836,b,1.0,0.6827521169907413,,,,sub-084,1.0,stroop_test,,
,,,,30.0,6.0,2.0,,,,,,,,,,,,,blau,yellow,g,0.0,g,1.0,0.520930937025696,,,,,,,,,,2.0,6.0,30.0,7.0,175.76263603399275,,,,,,,,,,,,,,,,,175.75051609403454,175.84373937203782,176.6451962569845,176.63240087399026,,,,,,,,,,,,,,,,,,,,,,,,,,,,,,,,,,,176.6363280150108,176.6451962569845,176.6451962569845,177.16980282001896,g,1.0,0.520930937025696,,,,sub-084,1.0,stroop_test,,
,,,,31.0,7.0,2.0,,,,,,,,,,,,,blau,blue,b,1.0,b,1.0,0.4847660650266334,,,,,,,,,,2.0,7.0,31.0,5.0,177.17927409202093,,,,,,,,,,,,,,,,,177.17005723400507,178.38087200303562,179.1814111720305,179.1660918490379,,,,,,,,,,,,,,,,,,,,,,,,,,,,,,,,,,,179.16703345201677,179.1814111720305,179.1814111720305,179.6715229540132,b,1.0,0.4847660650266334,,,,sub-084,1.0,stroop_test,,
,,,,32.0,8.0,2.0,,,,,,,,,,,,,gelb,yellow,g,1.0,g,1.0,0.4514721850282512,,,,,,,,,,2.0,8.0,32.0,10.0,179.6824972050381,,,,,,,,,,,,,,,,,179.67215046699857,180.48085796803932,181.28365383000343,181.2699084780179,,,,,,,,,,,,,,,,,,,,,,,,,,,,,,,,,,,181.2753061010153,181.28365383000343,181.28365383000343,181.7381353789824,g,1.0,0.4514721850282512,,,,sub-084,1.0,stroop_test,,
,,,,33.0,9.0,2.0,,,,,,,,,,,,,gelb,blue,b,0.0,g,0.0,0.4905331060290336,,,,,,,,,,2.0,9.0,33.0,9.0,181.74675741500687,,,,,,,,,,,,,,,,,181.73867769399655,182.9357731569908,183.72954468103129,183.71941863402023,,,,,,,,,,,,,,,,,,,,,,,,,,,,,,,,,,,183.72026475099847,183.72954468103129,183.72954468103129,184.22958984499564,g,0.0,0.4905331060290336,,,,sub-084,1.0,stroop_test,,
,,,,34.0,10.0,2.0,,,,,,,,,,,,,blau,blue,b,1.0,b,1.0,0.4400554100284353,,,,,,,,,,2.0,10.0,34.0,6.0,184.23688200401372,,,,,,,,,,,,,,,,,184.22983334300807,185.4192469670088,186.21602693002205,186.20270167698615,,,,,,,,,,,,,,,,,,,,,,,,,,,,,,,,,,,186.20725433999905,186.21602693002205,186.21602693002205,186.66387924400624,b,1.0,0.4400554100284353,,,,sub-084,1.0,stroop_test,,
,,,,35.0,11.0,2.0,,,,,,,,,,,,,gelb,red,r,0.0,r,1.0,0.4699610119569115,,,,,,,,,,2.0,11.0,35.0,8.0,186.67219305300387,,,,,,,,,,,,,,,,,186.6641632040264,187.86261924600691,188.6581689279992,188.6464397010277,,,,,,,,,,,,,,,,,,,,,,,,,,,,,,,,,,,188.65044341201428,188.6581689279992,188.6581689279992,189.13212760502935,r,1.0,0.4699610119569115,,,,sub-084,1.0,stroop_test,,
,,,,36.0,0.0,3.0,,,,,,,,,,,,,blau,blue,b,1.0,b,1.0,0.4177673070225864,,,,,,,,,,3.0,0.0,36.0,5.0,189.14086888800372,,,,,,,,,,,,,,,,,189.13253534998512,189.4794372190372,190.29558177199212,190.2663253910141,,,,,,,,,,,,,,,,,,,,,,,,,,,,,,,,,,,190.2709839559975,190.29558177199212,190.29558177199212,190.71598415402696,b,1.0,0.4177673070225864,,,,sub-084,1.0,stroop_test,,
,,,,37.0,1.0,3.0,,,,,,,,,,,,,rot,red,r,1.0,r,1.0,0.573535670991987,,,,,,,,,,3.0,1.0,37.0,0.0,190.72299082099929,,,,,,,,,,,,,,,,,190.7165105229942,190.8138785469928,191.61246411403408,191.5978635729989,,,,,,,,,,,,,,,,,,,,,,,,,,,,,,,,,,,191.6024404420168,191.61246411403408,191.61246411403408,192.1961385179893,r,1.0,0.573535670991987,,,,sub-084,1.0,stroop_test,,
,,,,38.0,2.0,3.0,,,,,,,,,,,,,rot,yellow,g,0.0,g,1.0,0.283230341039598,,,,,,,,,,3.0,2.0,38.0,3.0,192.2032896160381,,,,,,,,,,,,,,,,,192.19638701103395,193.3865197380073,194.19027632003417,194.18077738798456,,,,,,,,,,,,,,,,,,,,,,,,,,,,,,,,,,,194.181710386998,194.19027632003417,194.19027632003417,194.48052120499776,g,1.0,0.283230341039598,,,,sub-084,1.0,stroop_test,,
,,,,39.0,3.0,3.0,,,,,,,,,,,,,blau,yellow,g,0.0,r,0.0,0.4943538189982064,,,,,,,,,,3.0,3.0,39.0,7.0,194.48803115601183,,,,,,,,,,,,,,,,,194.48086371202956,195.68041260400787,196.48290858103428,196.46903833700344,,,,,,,,,,,,,,,,,,,,,,,,,,,,,,,,,,,196.47322580200853,196.48290858103428,196.48290858103428,196.9814365709899,r,0.0,0.4943538189982064,,,,sub-084,1.0,stroop_test,,
,,,,40.0,4.0,3.0,,,,,,,,,,,,,blau,blue,b,1.0,b,1.0,0.4450742379995063,,,,,,,,,,3.0,4.0,40.0,6.0,196.98987132200276,,,,,,,,,,,,,,,,,196.98183279199293,198.17921125603607,198.9722743339953,198.9641828960157,,,,,,,,,,,,,,,,,,,,,,,,,,,,,,,,,,,198.96495110698743,198.9722743339953,198.9722743339953,199.41992077900795,b,1.0,0.4450742379995063,,,,sub-084,1.0,stroop_test,,
,,,,41.0,5.0,3.0,,,,,,,,,,,,,blau,red,r,0.0,r,1.0,0.5458844700478949,,,,,,,,,,3.0,5.0,41.0,4.0,199.42850703099973,,,,,,,,,,,,,,,,,199.4201680140104,199.5194220310077,200.328292463033,200.3031714099925,,,,,,,,,,,,,,,,,,,,,,,,,,,,,,,,,,,200.30426216701744,200.328292463033,200.328292463033,200.88116268703016,r,1.0,0.5458844700478949,,,,sub-084,1.0,stroop_test,,
,,,,42.0,6.0,3.0,,,,,,,,,,,,,gelb,yellow,g,1.0,g,1.0,0.3694893589708954,,,,,,,,,,3.0,6.0,42.0,11.0,200.89555149100488,,,,,,,,,,,,,,,,,200.88141751801595,200.96976980404,201.776538635022,201.76389862899669,,,,,,,,,,,,,,,,,,,,,,,,,,,,,,,,,,,201.7684070650139,201.776538635022,201.776538635022,202.1532563570072,g,1.0,0.3694893589708954,,,,sub-084,1.0,stroop_test,,
,,,,43.0,7.0,3.0,,,,,,,,,,,,,rot,red,r,1.0,r,1.0,0.3029202039469965,,,,,,,,,,3.0,7.0,43.0,1.0,202.16285582102137,,,,,,,,,,,,,,,,,202.15349454502572,202.9529988410068,203.75911328400247,203.7473999080248,,,,,,,,,,,,,,,,,,,,,,,,,,,,,,,,,,,203.7510905090021,203.75911328400247,203.75911328400247,204.06387143098985,r,1.0,0.3029202039469965,,,,sub-084,1.0,stroop_test,,
,,,,44.0,8.0,3.0,,,,,,,,,,,,,gelb,red,r,0.0,r,1.0,2.909400161006488,,,,,,,,,,3.0,8.0,44.0,8.0,204.0699555440224,,,,,,,,,,,,,,,,,204.06419635401107,204.4034317419864,205.19783187902067,205.186285237025,,,,,,,,,,,,,,,,,,,,,,,,,,,,,,,,,,,205.1897249019821,205.19783187902067,205.19783187902067,208.1138723680051,r,1.0,2.909400161006488,,,,sub-084,1.0,stroop_test,,
,,,,45.0,9.0,3.0,,,,,,,,,,,,,gelb,yellow,g,1.0,g,1.0,0.4492238929960876,,,,,,,,,,3.0,9.0,45.0,10.0,208.1234093100065,,,,,,,,,,,,,,,,,208.11441890103745,208.903452811006,209.7126987040392,209.6988652329892,,,,,,,,,,,,,,,,,,,,,,,,,,,,,,,,,,,209.69982395501572,209.7126987040392,209.7126987040392,210.164040506992,g,1.0,0.4492238929960876,,,,sub-084,1.0,stroop_test,,
,,,,46.0,10.0,3.0,,,,,,,,,,,,,gelb,blue,b,0.0,b,1.0,0.5823898329981603,,,,,,,,,,3.0,10.0,46.0,9.0,210.17070876900107,,,,,,,,,,,,,,,,,210.16456981701776,210.26239661203,211.0628359440016,211.0472573679872,,,,,,,,,,,,,,,,,,,,,,,,,,,,,,,,,,,211.0480208339868,211.0628359440016,211.0628359440016,211.6466011769953,b,1.0,0.5823898329981603,,,,sub-084,1.0,stroop_test,,
,,,,47.0,11.0,3.0,,,,,,,,,,,,,rot,blue,b,0.0,b,1.0,0.6802329259808175,,,,,,,,,,3.0,11.0,47.0,2.0,211.6524910260341,,,,,,,,,,,,,,,,,211.6468511990388,211.99561313702725,212.7919769810396,212.7803211620194,,,,,,,,,,,,,,,,,,,,,,,,,,,,,,,,,,,212.783993961988,212.7919769810396,212.7919769810396,213.47976639599077,b,1.0,0.6802329259808175,,,,sub-084,1.0,stroop_test,,
,,,,48.0,0.0,4.0,,,,,,,,,,,,,rot,red,r,1.0,r,1.0,0.6347514369990677,,,,,,,,,,4.0,0.0,48.0,1.0,213.48891938402085,,,,,,,,,,,,,,,,,213.48002924001776,213.81929411302556,214.61255876004,214.60233857901767,,,,,,,,,,,,,,,,,,,,,,,,,,,,,,,,,,,214.6031615480315,214.61255876004,214.61255876004,215.25329483801036,r,1.0,0.6347514369990677,,,,sub-084,1.0,stroop_test,,
,,,,49.0,1.0,4.0,,,,,,,,,,,,,gelb,red,r,0.0,r,1.0,0.4021803500363603,,,,,,,,,,4.0,1.0,49.0,8.0,215.2624392459984,,,,,,,,,,,,,,,,,215.25351483299164,215.60211331903704,216.3997228980297,216.3855095449835,,,,,,,,,,,,,,,,,,,,,,,,,,,,,,,,,,,216.3894638619968,216.3997228980297,216.3997228980297,216.80352311203023,r,1.0,0.4021803500363603,,,,sub-084,1.0,stroop_test,,
,,,,50.0,2.0,4.0,,,,,,,,,,,,,blau,blue,b,1.0,g,0.0,0.7919006320298649,,,,,,,,,,4.0,2.0,50.0,6.0,216.8118554860121,,,,,,,,,,,,,,,,,216.80378970701716,217.1456037980388,217.94933264300928,217.9350113649853,,,,,,,,,,,,,,,,,,,,,,,,,,,,,,,,,,,217.93893252301496,217.94933264300928,217.94933264300928,218.746802425012,g,0.0,0.7919006320298649,,,,sub-084,1.0,stroop_test,,
,,,,51.0,3.0,4.0,,,,,,,,,,,,,blau,red,r,0.0,r,1.0,0.3029254259890876,,,,,,,,,,4.0,3.0,51.0,4.0,218.75505879800767,,,,,,,,,,,,,,,,,218.7470744550228,219.53643986198583,220.3364378469996,220.32905518298503,,,,,,,,,,,,,,,,,,,,,,,,,,,,,,,,,,,220.32957047398668,220.3364378469996,220.3364378469996,220.6459728240152,r,1.0,0.3029254259890876,,,,sub-084,1.0,stroop_test,,
,,,,52.0,4.0,4.0,,,,,,,,,,,,,rot,blue,b,0.0,b,1.0,0.8162017819704488,,,,,,,,,,4.0,4.0,52.0,2.0,220.65429715800565,,,,,,,,,,,,,,,,,220.646477931994,221.8352835280239,222.63346337503756,222.6192588150152,,,,,,,,,,,,,,,,,,,,,,,,,,,,,,,,,,,222.6247537609888,222.63346337503756,222.63346337503756,223.45402435399592,b,1.0,0.8162017819704488,,,,sub-084,1.0,stroop_test,,
,,,,53.0,5.0,4.0,,,,,,,,,,,,,gelb,yellow,g,1.0,g,1.0,0.31914343603421,,,,,,,,,,4.0,5.0,53.0,11.0,223.46248159301467,,,,,,,,,,,,,,,,,223.45454277104,223.8031035779859,224.6031660779845,224.5872295940062,,,,,,,,,,,,,,,,,,,,,,,,,,,,,,,,,,,224.59321750001985,224.6031660779845,224.6031660779845,224.93020049703773,g,1.0,0.31914343603421,,,,sub-084,1.0,stroop_test,,
,,,,54.0,6.0,4.0,,,,,,,,,,,,,rot,red,r,1.0,r,1.0,0.4995803299825638,,,,,,,,,,4.0,6.0,54.0,0.0,224.9403160890215,,,,,,,,,,,,,,,,,224.93075148703065,226.1286982180318,226.92579105100597,226.9136486420175,,,,,,,,,,,,,,,,,,,,,,,,,,,,,,,,,,,226.9175978890271,226.92579105100597,226.92579105100597,227.4297144390293,r,1.0,0.4995803299825638,,,,sub-084,1.0,stroop_test,,
,,,,55.0,7.0,4.0,,,,,,,,,,,,,rot,yellow,g,0.0,g,1.0,0.357818054035306,,,,,,,,,,4.0,7.0,55.0,3.0,227.4388649080065,,,,,,,,,,,,,,,,,227.4301338469959,228.21863813500383,229.01264325500236,229.00245376199015,,,,,,,,,,,,,,,,,,,,,,,,,,,,,,,,,,,229.00343278900252,229.01264325500236,229.01264325500236,229.3796882060124,g,1.0,0.357818054035306,,,,sub-084,1.0,stroop_test,,
,,,,56.0,8.0,4.0,,,,,,,,,,,,,gelb,yellow,g,1.0,g,1.0,1.003956393979024,,,,,,,,,,4.0,8.0,56.0,10.0,229.3870221709949,,,,,,,,,,,,,,,,,229.37990643800003,229.7195789990365,230.5166464759968,230.5026643250021,,,,,,,,,,,,,,,,,,,,,,,,,,,,,,,,,,,230.5078912160243,230.5166464759968,230.5166464759968,231.5307304399903,g,1.0,1.003956393979024,,,,sub-084,1.0,stroop_test,,
,,,,57.0,9.0,4.0,,,,,,,,,,,,,blau,blue,b,1.0,b,1.0,0.69692350999685,,,,,,,,,,4.0,9.0,57.0,5.0,231.54039679002017,,,,,,,,,,,,,,,,,231.53118436603108,231.87028955301503,232.67254607903303,232.66195198800412,,,,,,,,,,,,,,,,,,,,,,,,,,,,,,,,,,,232.66464919102145,232.67254607903303,232.67254607903303,233.37143559003016,b,1.0,0.69692350999685,,,,sub-084,1.0,stroop_test,,
,,,,58.0,10.0,4.0,,,,,,,,,,,,,blau,yellow,g,0.0,g,1.0,0.8131471570231952,,,,,,,,,,4.0,10.0,58.0,7.0,233.3791018440388,,,,,,,,,,,,,,,,,233.37173162103863,233.71939690300496,234.52827091299696,234.5025288030156,,,,,,,,,,,,,,,,,,,,,,,,,,,,,,,,,,,234.5035819929908,234.52827091299696,234.52827091299696,235.34617758903187,g,1.0,0.8131471570231952,,,,sub-084,1.0,stroop_test,,
,,,,59.0,11.0,4.0,,,,,,,,,,,,,gelb,blue,b,0.0,b,1.0,1.8906541620381176,,,,,,,,,,4.0,11.0,59.0,9.0,235.3546067859861,,,,,,,,,,,,,,,,,235.34651574899908,235.68514672800663,236.48459868499776,236.47041310800705,,,,,,,,,,,,,,,,,,,,,,,,,,,,,,,,,,,236.47605523600944,236.48459868499776,236.48459868499776,238.3795135950204,b,1.0,1.8906541620381176,,,,sub-084,1.0,stroop_test,,
,,,,60.0,0.0,5.0,,,,,,,,,,,,,rot,yellow,g,0.0,g,1.0,0.7970497049973346,,,,,,,,,,5.0,0.0,60.0,3.0,238.38709261303305,,,,,,,,,,,,,,,,,238.37990230502328,239.5693258899846,240.39530970703345,240.36519861599663,,,,,,,,,,,,,,,,,,,,,,,,,,,,,,,,,,,240.3710644710227,240.39530970703345,240.39530970703345,241.1968178160023,g,1.0,0.7970497049973346,,,,sub-084,1.0,stroop_test,,
,,,,61.0,1.0,5.0,,,,,,,,,,,,,rot,blue,b,0.0,b,1.0,0.6746323009720072,,,,,,,,,,5.0,1.0,61.0,2.0,241.20526499603875,,,,,,,,,,,,,,,,,241.19729338702743,242.38593067100737,243.1807050909847,243.1702118749963,,,,,,,,,,,,,,,,,,,,,,,,,,,,,,,,,,,243.17130790400552,243.1807050909847,243.1807050909847,243.8624838719843,b,1.0,0.6746323009720072,,,,sub-084,1.0,stroop_test,,
,,,,62.0,2.0,5.0,,,,,,,,,,,,,rot,red,r,1.0,r,1.0,0.2796382420347072,,,,,,,,,,5.0,2.0,62.0,0.0,243.870164308988,,,,,,,,,,,,,,,,,243.8627003300353,244.2021595450351,245.01177869801177,244.9864015619969,,,,,,,,,,,,,,,,,,,,,,,,,,,,,,,,,,,244.9874272409943,245.01177869801177,245.01177869801177,245.2964980170364,r,1.0,0.2796382420347072,,,,sub-084,1.0,stroop_test,,
,,,,63.0,3.0,5.0,,,,,,,,,,,,,gelb,red,r,0.0,r,1.0,1.4015645400504582,,,,,,,,,,5.0,3.0,63.0,8.0,245.3041054570349,,,,,,,,,,,,,,,,,245.296902719012,245.6468036980368,246.4487577819964,246.4351262280252,,,,,,,,,,,,,,,,,,,,,,,,,,,,,,,,,,,246.43935549102025,246.4487577819964,246.4487577819964,247.8544976140256,r,1.0,1.4015645400504582,,,,sub-084,1.0,stroop_test,,
,,,,64.0,4.0,5.0,,,,,,,,,,,,,gelb,yellow,g,1.0,g,1.0,0.3575402359711006,,,,,,,,,,5.0,4.0,64.0,11.0,247.86441912903683,,,,,,,,,,,,,,,,,247.85491251398344,248.6526092530112,249.4457868100144,249.43576869700337,,,,,,,,,,,,,,,,,,,,,,,,,,,,,,,,,,,249.4366063930211,249.4457868100144,249.4457868100144,249.81106373603689,g,1.0,0.3575402359711006,,,,sub-084,1.0,stroop_test,,
,,,,65.0,5.0,5.0,,,,,,,,,,,,,gelb,yellow,g,1.0,g,1.0,0.4387220609933138,,,,,,,,,,5.0,5.0,65.0,10.0,249.81847976503195,,,,,,,,,,,,,,,,,249.8115058140247,250.15293582703453,250.952812854026,250.94527823198587,,,,,,,,,,,,,,,,,,,,,,,,,,,,,,,,,,,250.9458050359972,250.952812854026,250.952812854026,251.3963760370389,g,1.0,0.4387220609933138,,,,sub-084,1.0,stroop_test,,
,,,,66.0,6.0,5.0,,,,,,,,,,,,,blau,blue,b,1.0,b,1.0,0.3989554299623705,,,,,,,,,,5.0,6.0,66.0,6.0,251.40487819403643,,,,,,,,,,,,,,,,,251.3967053610249,252.5964766609832,253.3983553349972,253.3848859110149,,,,,,,,,,,,,,,,,,,,,,,,,,,,,,,,,,,253.38986386702163,253.3983553349972,253.3983553349972,253.8026645500213,b,1.0,0.3989554299623705,,,,sub-084,1.0,stroop_test,,
,,,,67.0,7.0,5.0,,,,,,,,,,,,,gelb,blue,b,0.0,b,1.0,0.696363173017744,,,,,,,,,,5.0,7.0,67.0,9.0,253.81174656102667,,,,,,,,,,,,,,,,,253.80294940201568,255.0025987800327,255.80591475201072,255.7951637019869,,,,,,,,,,,,,,,,,,,,,,,,,,,,,,,,,,,255.79822198103648,255.80591475201072,255.80591475201072,256.51208623102866,b,1.0,0.696363173017744,,,,sub-084,1.0,stroop_test,,
,,,,68.0,8.0,5.0,,,,,,,,,,,,,blau,red,r,0.0,r,1.0,0.4679291159845888,,,,,,,,,,5.0,8.0,68.0,4.0,256.5207741369959,,,,,,,,,,,,,,,,,256.5123118250049,256.85283061803784,257.6594039910124,257.64708977303235,,,,,,,,,,,,,,,,,,,,,,,,,,,,,,,,,,,257.65091696201125,257.6594039910124,257.6594039910124,258.12938924803166,r,1.0,0.4679291159845888,,,,sub-084,1.0,stroop_test,,
,,,,69.0,9.0,5.0,,,,,,,,,,,,,blau,yellow,g,0.0,g,1.0,0.5631659930222668,,,,,,,,,,5.0,9.0,69.0,7.0,258.13597579300404,,,,,,,,,,,,,,,,,258.1296446780325,258.2297149649821,259.0213384020026,259.0134969300125,,,,,,,,,,,,,,,,,,,,,,,,,,,,,,,,,,,259.0142305070185,259.0213384020026,259.0213384020026,259.5872898719972,g,1.0,0.5631659930222668,,,,sub-084,1.0,stroop_test,,
,,,,70.0,10.0,5.0,,,,,,,,,,,,,rot,red,r,1.0,r,1.0,0.6283782320097089,,,,,,,,,,5.0,10.0,70.0,1.0,259.5948920510127,,,,,,,,,,,,,,,,,259.5875394960167,259.9361815319862,260.7329335010145,260.719790084986,,,,,,,,,,,,,,,,,,,,,,,,,,,,,,,,,,,260.7241345589864,260.7329335010145,260.7329335010145,261.362928809016,r,1.0,0.6283782320097089,,,,sub-084,1.0,stroop_test,,
,,,,71.0,11.0,5.0,,,,,,,,,,,,,blau,blue,b,1.0,b,1.0,1.2087178220390342,,,,,,,,,,5.0,11.0,71.0,5.0,261.3683366260375,,,,,,,,,,,,,,,,,261.3632109949831,261.45264785701875,262.25360450998414,262.2447484760196,,,,,,,,,,,,,,,,,,,,,,,,,,,,,,,,,,,262.246927116008,262.25360450998414,262.25360450998414,263.469246949011,b,1.0,1.2087178220390342,,,,sub-084,1.0,stroop_test,,
,,,,72.0,0.0,6.0,,,,,,,,,,,,,rot,yellow,g,0.0,r,0.0,0.4864535789820365,,,,,,,,,,6.0,0.0,72.0,3.0,263.4787774779834,,,,,,,,,,,,,,,,,263.4694923390052,264.6614133740077,265.4570273060235,265.44527193601243,,,,,,,,,,,,,,,,,,,,,,,,,,,,,,,,,,,265.4491708300193,265.4570273060235,265.4570273060235,265.9459809020045,r,0.0,0.4864535789820365,,,,sub-084,1.0,stroop_test,,
,,,,73.0,1.0,6.0,,,,,,,,,,,,,blau,red,r,0.0,r,1.0,0.3722204719670117,,,,,,,,,,6.0,1.0,73.0,4.0,265.95377323700814,,,,,,,,,,,,,,,,,265.9462894530152,267.14505013101734,267.9411505570169,267.9290466370294,,,,,,,,,,,,,,,,,,,,,,,,,,,,,,,,,,,267.93277043802664,267.9411505570169,267.9411505570169,268.31962163501885,r,1.0,0.3722204719670117,,,,sub-084,1.0,stroop_test,,
,,,,74.0,2.0,6.0,,,,,,,,,,,,,gelb,blue,b,0.0,b,1.0,0.4337378280470148,,,,,,,,,,6.0,2.0,74.0,9.0,268.32966345601017,,,,,,,,,,,,,,,,,268.31984353601,268.67837525502546,269.47783393599093,269.4648775359965,,,,,,,,,,,,,,,,,,,,,,,,,,,,,,,,,,,269.4688479040051,269.47783393599093,269.47783393599093,269.91364386701025,b,1.0,0.4337378280470148,,,,sub-084,1.0,stroop_test,,
,,,,75.0,3.0,6.0,,,,,,,,,,,,,blau,blue,b,1.0,b,1.0,0.4326922430191189,,,,,,,,,,6.0,3.0,75.0,5.0,269.9190511570196,,,,,,,,,,,,,,,,,269.9138937550015,271.10253525100416,271.9088499459904,271.896659903985,,,,,,,,,,,,,,,,,,,,,,,,,,,,,,,,,,,271.90053646900924,271.9088499459904,271.9088499459904,272.34592360799434,b,1.0,0.4326922430191189,,,,sub-084,1.0,stroop_test,,
,,,,76.0,4.0,6.0,,,,,,,,,,,,,rot,blue,b,0.0,b,1.0,0.5592376249842346,,,,,,,,,,6.0,4.0,76.0,2.0,272.3538991039968,,,,,,,,,,,,,,,,,272.346352461027,272.4359042359865,273.2413211520179,273.22981198498746,,,,,,,,,,,,,,,,,,,,,,,,,,,,,,,,,,,273.2335504820221,273.2413211520179,273.2413211520179,273.8025701559964,b,1.0,0.5592376249842346,,,,sub-084,1.0,stroop_test,,
,,,,77.0,5.0,6.0,,,,,,,,,,,,,gelb,red,r,0.0,r,1.0,0.7486441869987175,,,,,,,,,,6.0,5.0,77.0,8.0,273.81090663798386,,,,,,,,,,,,,,,,,273.8028692830121,274.1515776269953,274.9477873640135,274.9352256100392,,,,,,,,,,,,,,,,,,,,,,,,,,,,,,,,,,,274.93925388599746,274.9477873640135,274.9477873640135,275.70250581001164,r,1.0,0.7486441869987175,,,,sub-084,1.0,stroop_test,,
,,,,78.0,6.0,6.0,,,,,,,,,,,,,gelb,yellow,g,1.0,g,1.0,0.4314432939863764,,,,,,,,,,6.0,6.0,78.0,10.0,275.71171394200064,,,,,,,,,,,,,,,,,275.70275164803024,276.0446183329914,276.8361152060097,276.82830429502064,,,,,,,,,,,,,,,,,,,,,,,,,,,,,,,,,,,276.8289566010353,276.8361152060097,276.8361152060097,277.269682454993,g,1.0,0.4314432939863764,,,,sub-084,1.0,stroop_test,,
,,,,79.0,7.0,6.0,,,,,,,,,,,,,rot,red,r,1.0,r,1.0,0.3688467369647696,,,,,,,,,,6.0,7.0,79.0,1.0,277.2780313240364,,,,,,,,,,,,,,,,,277.26993455103366,277.6197140759905,278.42657825298375,278.4131131150061,,,,,,,,,,,,,,,,,,,,,,,,,,,,,,,,,,,278.41808965598466,278.42657825298375,278.42657825298375,278.79703513300046,r,1.0,0.3688467369647696,,,,sub-084,1.0,stroop_test,,
,,,,80.0,8.0,6.0,,,,,,,,,,,,,gelb,yellow,g,1.0,g,1.0,0.4072531149722636,,,,,,,,,,6.0,8.0,80.0,11.0,278.8032778269844,,,,,,,,,,,,,,,,,278.79736629198305,279.59399716201006,280.39011078403564,280.3781541720382,,,,,,,,,,,,,,,,,,,,,,,,,,,,,,,,,,,280.38189460599096,280.39011078403564,280.39011078403564,280.8043546800036,g,1.0,0.4072531149722636,,,,sub-084,1.0,stroop_test,,
,,,,81.0,9.0,6.0,,,,,,,,,,,,,blau,blue,b,1.0,b,1.0,0.375883998000063,,,,,,,,,,6.0,9.0,81.0,6.0,280.81406390300253,,,,,,,,,,,,,,,,,280.8046177040087,281.6023044239846,282.4086840990349,282.3964933429961,,,,,,,,,,,,,,,,,,,,,,,,,,,,,,,,,,,282.40039783803513,282.4086840990349,282.4086840990349,282.786442962999,b,1.0,0.375883998000063,,,,sub-084,1.0,stroop_test,,
,,,,82.0,10.0,6.0,,,,,,,,,,,,,rot,red,r,1.0,r,1.0,0.2927780129830353,,,,,,,,,,6.0,10.0,82.0,0.0,282.7943946000305,,,,,,,,,,,,,,,,,282.78672961099073,283.5854168020305,284.39473602199,284.37991865503136,,,,,,,,,,,,,,,,,,,,,,,,,,,,,,,,,,,284.38458179100417,284.39473602199,284.39473602199,284.69525065703783,r,1.0,0.2927780129830353,,,,sub-084,1.0,stroop_test,,
,,,,83.0,11.0,6.0,,,,,,,,,,,,,blau,yellow,g,0.0,g,1.0,0.4290006380178965,,,,,,,,,,6.0,11.0,83.0,7.0,284.70335961401,,,,,,,,,,,,,,,,,284.69558990199585,284.78651108400663,285.5914516710327,285.5795211690129,,,,,,,,,,,,,,,,,,,,,,,,,,,,,,,,,,,285.5832633950049,285.5914516710327,285.5914516710327,286.0288945080247,g,1.0,0.4290006380178965,,,,sub-084,1.0,stroop_test,,
,,,,84.0,0.0,7.0,,,,,,,,,,,,,rot,red,r,1.0,r,1.0,0.4449231619946658,,,,,,,,,,7.0,0.0,84.0,0.0,286.03639248700347,,,,,,,,,,,,,,,,,286.0292280759895,286.11899103200994,286.9155713469954,286.9026643410325,,,,,,,,,,,,,,,,,,,,,,,,,,,,,,,,,,,286.90694475598866,286.9155713469954,286.9155713469954,287.36190640798304,r,1.0,0.4449231619946658,,,,sub-084,1.0,stroop_test,,
,,,,85.0,1.0,7.0,,,,,,,,,,,,,gelb,yellow,g,1.0,g,1.0,0.3192292979802005,,,,,,,,,,7.0,1.0,85.0,10.0,287.3673575820285,,,,,,,,,,,,,,,,,287.36216047703056,288.55286591599,289.35633228201186,289.3447097860044,,,,,,,,,,,,,,,,,,,,,,,,,,,,,,,,,,,289.3485515550128,289.35633228201186,289.35633228201186,289.6788996650139,g,1.0,0.3192292979802005,,,,sub-084,1.0,stroop_test,,
,,,,86.0,2.0,7.0,,,,,,,,,,,,,blau,blue,b,1.0,r,0.0,0.4657891970127821,,,,,,,,,,7.0,2.0,86.0,5.0,289.6867523480323,,,,,,,,,,,,,,,,,289.67914413899416,289.7785703199916,290.5727026340319,290.56155737902736,,,,,,,,,,,,,,,,,,,,,,,,,,,,,,,,,,,290.5652441889979,290.5727026340319,290.5727026340319,291.0450302020181,r,0.0,0.4657891970127821,,,,sub-084,1.0,stroop_test,,
,,,,87.0,3.0,7.0,,,,,,,,,,,,,rot,red,r,1.0,r,1.0,0.4104308660025708,,,,,,,,,,7.0,3.0,87.0,1.0,291.0523452730268,,,,,,,,,,,,,,,,,291.0453303839895,291.14477440703195,291.94210451398976,291.92980024399003,,,,,,,,,,,,,,,,,,,,,,,,,,,,,,,,,,,291.93367469502846,291.94210451398976,291.94210451398976,292.3614867919823,r,1.0,0.4104308660025708,,,,sub-084,1.0,stroop_test,,
,,,,88.0,4.0,7.0,,,,,,,,,,,,,gelb,blue,b,0.0,b,1.0,0.4047811569762416,,,,,,,,,,7.0,4.0,88.0,9.0,292.3688307860284,,,,,,,,,,,,,,,,,292.3617289719987,292.7010648759897,293.51084318500943,293.4973756140098,,,,,,,,,,,,,,,,,,,,,,,,,,,,,,,,,,,293.5020429730066,293.51084318500943,293.51084318500943,293.9190364120295,b,1.0,0.4047811569762416,,,,sub-084,1.0,stroop_test,,
,,,,89.0,5.0,7.0,,,,,,,,,,,,,blau,blue,b,1.0,b,1.0,0.3370129899703897,,,,,,,,,,7.0,5.0,89.0,6.0,293.92733164603123,,,,,,,,,,,,,,,,,293.9193196609849,294.26774914801354,295.0646396370139,295.0508170630201,,,,,,,,,,,,,,,,,,,,,,,,,,,,,,,,,,,295.05449632700766,295.0646396370139,295.0646396370139,295.411380562,b,1.0,0.3370129899703897,,,,sub-084,1.0,stroop_test,,
,,,,90.0,6.0,7.0,,,,,,,,,,,,,rot,yellow,g,0.0,g,1.0,0.4797992330277338,,,,,,,,,,7.0,6.0,90.0,3.0,295.41971489199204,,,,,,,,,,,,,,,,,295.41163969103945,295.750836413994,296.5476402050117,296.5344065229874,,,,,,,,,,,,,,,,,,,,,,,,,,,,,,,,,,,296.5386959600146,296.5476402050117,296.5476402050117,297.02887587598525,g,1.0,0.4797992330277338,,,,sub-084,1.0,stroop_test,,
,,,,91.0,7.0,7.0,,,,,,,,,,,,,blau,red,r,0.0,r,1.0,0.3100595590076409,,,,,,,,,,7.0,7.0,91.0,4.0,297.03455476101954,,,,,,,,,,,,,,,,,297.029126087029,297.36790062399814,298.1775318920263,298.1645462579909,,,,,,,,,,,,,,,,,,,,,,,,,,,,,,,,,,,298.16876655601664,298.1775318920263,298.1775318920263,298.4949792590341,r,1.0,0.3100595590076409,,,,sub-084,1.0,stroop_test,,
,,,,92.0,8.0,7.0,,,,,,,,,,,,,gelb,red,r,0.0,r,1.0,0.459893228020519,,,,,,,,,,7.0,8.0,92.0,8.0,298.5034176760237,,,,,,,,,,,,,,,,,298.4952082380187,298.58491920202505,299.3817792219925,299.3684787180391,,,,,,,,,,,,,,,,,,,,,,,,,,,,,,,,,,,299.37287772702985,299.3817792219925,299.3817792219925,299.84562561800703,r,1.0,0.459893228020519,,,,sub-084,1.0,stroop_test,,
,,,,93.0,9.0,7.0,,,,,,,,,,,,,rot,blue,b,0.0,b,1.0,0.4488599670003168,,,,,,,,,,7.0,9.0,93.0,2.0,299.8536143710371,,,,,,,,,,,,,,,,,299.8460758579895,300.1844168259995,300.9917958150036,300.97887853201246,,,,,,,,,,,,,,,,,,,,,,,,,,,,,,,,,,,300.9836692099925,300.9917958150036,300.9917958150036,301.44686928298324,b,1.0,0.4488599670003168,,,,sub-084,1.0,stroop_test,,
,,,,94.0,10.0,7.0,,,,,,,,,,,,,gelb,yellow,g,1.0,g,1.0,0.3798238320159726,,,,,,,,,,7.0,10.0,94.0,11.0,301.45519593398785,,,,,,,,,,,,,,,,,301.44712181098294,301.5439910350251,302.3406611229875,302.32835144002456,,,,,,,,,,,,,,,,,,,,,,,,,,,,,,,,,,,302.3321958120214,302.3406611229875,302.3406611229875,302.7283698020037,g,1.0,0.3798238320159726,,,,sub-084,1.0,stroop_test,,
,,,,95.0,11.0,7.0,,,,,,,,,,,,,blau,yellow,g,0.0,b,0.0,0.339854751015082,,,,,,,,,,7.0,11.0,95.0,7.0,302.73617164598545,,,,,,,,,,,,,,,,,302.7287526160362,303.53041436098283,304.33188155601965,304.3177799510304,,,,,,,,,,,,,,,,,,,,,,,,,,,,,,,,,,,304.3214656460332,304.33188155601965,304.33188155601965,304.6780557130114,b,0.0,0.339854751015082,,,,sub-084,1.0,stroop_test,,
,,,,96.0,0.0,8.0,,,,,,,,,,,,,blau,yellow,g,0.0,g,1.0,0.5214312589960173,,,,,,,,,,8.0,0.0,96.0,7.0,304.6857369139907,,,,,,,,,,,,,,,,,304.67831565102097,305.86766885902034,306.66110850701807,306.65091326698894,,,,,,,,,,,,,,,,,,,,,,,,,,,,,,,,,,,306.65157652803464,306.66110850701807,306.66110850701807,307.1861296520219,g,1.0,0.5214312589960173,,,,sub-084,1.0,stroop_test,,
,,,,97.0,1.0,8.0,,,,,,,,,,,,,gelb,blue,b,0.0,b,1.0,0.478097359999083,,,,,,,,,,8.0,1.0,97.0,9.0,307.2103319350281,,,,,,,,,,,,,,,,,307.1863834980177,307.28341752704,308.0945549909957,308.08093941700645,,,,,,,,,,,,,,,,,,,,,,,,,,,,,,,,,,,308.08546126500005,308.0945549909957,308.0945549909957,308.5791124299867,b,1.0,0.478097359999083,,,,sub-084,1.0,stroop_test,,
,,,,98.0,2.0,8.0,,,,,,,,,,,,,rot,blue,b,0.0,b,1.0,0.4435400450020097,,,,,,,,,,8.0,2.0,98.0,2.0,308.58784365898464,,,,,,,,,,,,,,,,,308.57948970398866,308.9189365750062,309.7161461520009,309.7024240650353,,,,,,,,,,,,,,,,,,,,,,,,,,,,,,,,,,,309.7076473060297,309.7161461520009,309.7161461520009,310.1617810740136,b,1.0,0.4435400450020097,,,,sub-084,1.0,stroop_test,,
,,,,99.0,3.0,8.0,,,,,,,,,,,,,rot,yellow,g,0.0,g,1.0,0.4827986130258068,,,,,,,,,,8.0,3.0,99.0,3.0,310.1675160219893,,,,,,,,,,,,,,,,,310.1620303490199,310.5018300280208,311.30187905800994,311.2946267580264,,,,,,,,,,,,,,,,,,,,,,,,,,,,,,,,,,,311.29516846803017,311.30187905800994,311.30187905800994,311.79433488700306,g,1.0,0.4827986130258068,,,,sub-084,1.0,stroop_test,,
,,,,100.0,4.0,8.0,,,,,,,,,,,,,gelb,yellow,g,1.0,g,1.0,0.4112952660070732,,,,,,,,,,8.0,4.0,100.0,11.0,311.801444126002,,,,,,,,,,,,,,,,,311.79455195902847,312.98507677100133,313.7904443900334,313.77894210099475,,,,,,,,,,,,,,,,,,,,,,,,,,,,,,,,,,,313.7824957140256,313.7904443900334,313.7904443900334,314.2111336149974,g,1.0,0.4112952660070732,,,,sub-084,1.0,stroop_test,,
,,,,101.0,5.0,8.0,,,,,,,,,,,,,blau,red,r,0.0,r,1.0,0.3132456350140273,,,,,,,,,,8.0,5.0,101.0,4.0,314.2184069270152,,,,,,,,,,,,,,,,,314.211376160034,315.4015634310199,316.201458844007,316.1857725800364,,,,,,,,,,,,,,,,,,,,,,,,,,,,,,,,,,,316.1919231869979,316.201458844007,316.201458844007,316.5190283689881,r,1.0,0.3132456350140273,,,,sub-084,1.0,stroop_test,,
,,,,102.0,6.0,8.0,,,,,,,,,,,,,gelb,yellow,g,1.0,g,1.0,0.42107170203235,,,,,,,,,,8.0,6.0,102.0,10.0,316.5284507769975,,,,,,,,,,,,,,,,,316.5193055749987,316.8684969850001,317.66442619101144,317.65131687099347,,,,,,,,,,,,,,,,,,,,,,,,,,,,,,,,,,,317.65458100801334,317.66442619101144,317.66442619101144,318.0945164610166,g,1.0,0.42107170203235,,,,sub-084,1.0,stroop_test,,
,,,,103.0,7.0,8.0,,,,,,,,,,,,,rot,red,r,1.0,g,0.0,0.4790387480170466,,,,,,,,,,8.0,7.0,103.0,0.0,318.10196405800525,,,,,,,,,,,,,,,,,318.094755935017,318.1848101509968,318.9824707970256,318.9691797129926,,,,,,,,,,,,,,,,,,,,,,,,,,,,,,,,,,,318.9740990709979,318.9824707970256,318.9824707970256,319.46289849700406,g,0.0,0.4790387480170466,,,,sub-084,1.0,stroop_test,,
,,,,104.0,8.0,8.0,,,,,,,,,,,,,blau,blue,b,1.0,b,1.0,0.4150509049650281,,,,,,,,,,8.0,8.0,104.0,5.0,319.46845044603106,,,,,,,,,,,,,,,,,319.463154075027,319.5610301870038,320.3595200959826,320.3463022930082,,,,,,,,,,,,,,,,,,,,,,,,,,,,,,,,,,,320.35058552899864,320.3595200959826,320.3595200959826,320.7786978980293,b,1.0,0.4150509049650281,,,,sub-084,1.0,stroop_test,,
,,,,105.0,9.0,8.0,,,,,,,,,,,,,blau,blue,b,1.0,b,1.0,0.4066229170421138,,,,,,,,,,8.0,9.0,105.0,6.0,320.7846716599888,,,,,,,,,,,,,,,,,320.77898140402976,321.97894244099734,322.7779488899978,322.7678551420104,,,,,,,,,,,,,,,,,,,,,,,,,,,,,,,,,,,322.7687835760298,322.7779488899978,322.7779488899978,323.18663840700174,b,1.0,0.4066229170421138,,,,sub-084,1.0,stroop_test,,
,,,,106.0,10.0,8.0,,,,,,,,,,,,,gelb,red,r,0.0,r,1.0,0.4570718919858336,,,,,,,,,,8.0,10.0,106.0,8.0,323.194397372019,,,,,,,,,,,,,,,,,323.186938230996,323.2854089179891,324.08955842698924,324.077849082998,,,,,,,,,,,,,,,,,,,,,,,,,,,,,,,,,,,324.0816972510074,324.08955842698924,324.08955842698924,324.5512655170169,r,1.0,0.4570718919858336,,,,sub-084,1.0,stroop_test,,
,,,,107.0,11.0,8.0,,,,,,,,,,,,,rot,red,r,1.0,r,1.0,0.4080512369982898,,,,,,,,,,8.0,11.0,107.0,1.0,324.5604547680123,,,,,,,,,,,,,,,,,324.55149205902126,324.6490789059899,325.4485246500117,325.43450691498583,,,,,,,,,,,,,,,,,,,,,,,,,,,,,,,,,,,325.4398709299858,325.4485246500117,325.4485246500117,325.8620117430109,r,1.0,0.4080512369982898,,,,sub-084,1.0,stroop_test,,
,,,,108.0,0.0,9.0,,,,,,,,,,,,,rot,blue,b,0.0,b,1.0,0.4152257200330496,,,,,,,,,,9.0,0.0,108.0,2.0,325.86914628598606,,,,,,,,,,,,,,,,,325.8622311829822,325.9509128080099,326.76050372899044,326.7354388660169,,,,,,,,,,,,,,,,,,,,,,,,,,,,,,,,,,,326.73654304799857,326.76050372899044,326.76050372899044,327.1813269610284,b,1.0,0.4152257200330496,,,,sub-084,1.0,stroop_test,,
,,,,109.0,1.0,9.0,,,,,,,,,,,,,gelb,red,r,0.0,r,1.0,0.2627775439759716,,,,,,,,,,9.0,1.0,109.0,8.0,327.19358008599374,,,,,,,,,,,,,,,,,327.1816791620222,327.5275901770219,328.32585595501587,328.31243240699405,,,,,,,,,,,,,,,,,,,,,,,,,,,,,,,,,,,328.3172536880011,328.32585595501587,328.32585595501587,328.5957989739836,r,1.0,0.2627775439759716,,,,sub-084,1.0,stroop_test,,
,,,,110.0,2.0,9.0,,,,,,,,,,,,,rot,red,r,1.0,r,1.0,0.4774031820124946,,,,,,,,,,9.0,2.0,110.0,0.0,328.6048873260152,,,,,,,,,,,,,,,,,328.59618953301106,329.79519940400496,330.5974303500261,330.5837225540308,,,,,,,,,,,,,,,,,,,,,,,,,,,,,,,,,,,330.58730799501063,330.5974303500261,330.5974303500261,331.0780280760373,r,1.0,0.4774031820124946,,,,sub-084,1.0,stroop_test,,
,,,,111.0,3.0,9.0,,,,,,,,,,,,,blau,yellow,g,0.0,g,1.0,0.5170970240142196,,,,,,,,,,9.0,3.0,111.0,7.0,331.08615571801784,,,,,,,,,,,,,,,,,331.07828778703697,331.867086815997,332.66464343998814,332.651081419026,,,,,,,,,,,,,,,,,,,,,,,,,,,,,,,,,,,332.65574316098355,332.66464343998814,332.66464343998814,333.1946360300062,g,1.0,0.5170970240142196,,,,sub-084,1.0,stroop_test,,
,,,,112.0,4.0,9.0,,,,,,,,,,,,,rot,yellow,g,0.0,g,1.0,0.3026965160388499,,,,,,,,,,9.0,4.0,112.0,3.0,333.2024547930341,,,,,,,,,,,,,,,,,333.1949322849978,333.544797317998,334.3430959969992,334.3304797629826,,,,,,,,,,,,,,,,,,,,,,,,,,,,,,,,,,,334.33449338999344,334.3430959969992,334.3430959969992,334.65319274703506,g,1.0,0.3026965160388499,,,,sub-084,1.0,stroop_test,,
,,,,113.0,5.0,9.0,,,,,,,,,,,,,gelb,yellow,g,1.0,g,1.0,0.3217668489669449,,,,,,,,,,9.0,5.0,113.0,10.0,334.66266296902904,,,,,,,,,,,,,,,,,334.65352767700097,334.76357104600174,335.5649075320107,335.55169342900626,,,,,,,,,,,,,,,,,,,,,,,,,,,,,,,,,,,335.5564550330164,335.5649075320107,335.5649075320107,335.89518128999043,g,1.0,0.3217668489669449,,,,sub-084,1.0,stroop_test,,
,,,,114.0,6.0,9.0,,,,,,,,,,,,,gelb,yellow,g,1.0,g,1.0,0.3312722889822908,,,,,,,,,,9.0,6.0,114.0,11.0,335.9051705090096,,,,,,,,,,,,,,,,,335.89576271298574,336.2453710330301,337.0445891750278,337.0339361220249,,,,,,,,,,,,,,,,,,,,,,,,,,,,,,,,,,,337.0354050589958,337.0445891750278,337.0445891750278,337.3780560870073,g,1.0,0.3312722889822908,,,,sub-084,1.0,stroop_test,,
,,,,115.0,7.0,9.0,,,,,,,,,,,,,blau,blue,b,1.0,b,1.0,0.4866218760143965,,,,,,,,,,9.0,7.0,115.0,5.0,337.38405292801326,,,,,,,,,,,,,,,,,337.37830620398745,338.56739449698944,339.3641321680043,339.35107690503355,,,,,,,,,,,,,,,,,,,,,,,,,,,,,,,,,,,339.35509425302735,339.3641321680043,339.3641321680043,339.85272394499043,b,1.0,0.4866218760143965,,,,sub-084,1.0,stroop_test,,
,,,,116.0,8.0,9.0,,,,,,,,,,,,,blau,red,r,0.0,r,1.0,0.2692048430326395,,,,,,,,,,9.0,8.0,116.0,4.0,339.8603142910288,,,,,,,,,,,,,,,,,339.85297892900417,340.6513983029872,341.4534221010399,341.4455802339944,,,,,,,,,,,,,,,,,,,,,,,,,,,,,,,,,,,341.4462168950122,341.4534221010399,341.4534221010399,341.7284256020212,r,1.0,0.2692048430326395,,,,sub-084,1.0,stroop_test,,
,,,,117.0,9.0,9.0,,,,,,,,,,,,,blau,blue,b,1.0,b,1.0,0.5009902099845931,,,,,,,,,,9.0,9.0,117.0,6.0,341.7354772450053,,,,,,,,,,,,,,,,,341.7286486449884,341.8274812800228,342.61863199603977,342.6108014369965,,,,,,,,,,,,,,,,,,,,,,,,,,,,,,,,,,,342.61141792399576,342.61863199603977,342.61863199603977,343.1285340189934,b,1.0,0.5009902099845931,,,,sub-084,1.0,stroop_test,,
,,,,118.0,10.0,9.0,,,,,,,,,,,,,rot,red,r,1.0,r,1.0,0.4467975879670121,,,,,,,,,,9.0,10.0,118.0,1.0,343.13570428203093,,,,,,,,,,,,,,,,,343.1287536920281,343.47830414399505,344.2817508800072,344.26730910502374,,,,,,,,,,,,,,,,,,,,,,,,,,,,,,,,,,,344.27315980300773,344.2817508800072,344.2817508800072,344.735784138029,r,1.0,0.4467975879670121,,,,sub-084,1.0,stroop_test,,
,,,,119.0,11.0,9.0,,,,,,,,,,,,,gelb,blue,b,0.0,b,1.0,0.6142983890022151,,,,,,,,,,9.0,11.0,119.0,9.0,344.7598365260056,,,,,,,,,,,,,,,,,344.73601672198856,345.9347709020367,346.7393551830319,346.72782857203856,,,,,,,,,,,,,,,,,,,,,,,,,,,,,,,,,,,346.7316071729874,346.7393551830319,346.7393551830319,347.3600741100381,b,1.0,0.6142983890022151,,,,sub-084,1.0,stroop_test,,
,,,,,,,,,,,,,,,,,,,,,,,,,,,,,,,,,,,,,,,,,,,,,,,,,,,,,,,,,,,,,,,,,,,,,,,,,,,,,,,,,,,,,,,,,,,,,,,,,,,,,,347.36035237298347,347.3686094430159,sub-084,,,,
