wordCTK,colorCTK,corrAnsCTK,congruentCTK,thisN,thisTrialN,thisRepN,keyResp_CTK.keys,keyResp_CTK.corr,keyResp_CTK.rt,keyResp_CTK.duration,wordPractice,colorPractice,corrAnsPractice,congruentPractice,respPractice.keys,respPractice.corr,respPractice.rt,respPractice.duration,word,color,corrAns,congruent,keyResp_test_run.keys,keyResp_test_run.corr,keyResp_test_run.rt,keyResp_test_run.duration,trials_CTK.thisRepN,trials_CTK.thisTrialN,trials_CTK.thisN,trials_CTK.thisIndex,trials_practice.thisRepN,trials_practice.thisTrialN,trials_practice.thisN,trials_practice.thisIndex,trials_test.thisRepN,trials_test.thisTrialN,trials_test.thisN,trials_test.thisIndex,thisRow.t,notes,instruction.started,instr_text.started,instr_image.started,instr_resp.started,instruction.stopped,instr_resp.keys,instr_resp.rt,instr_resp.duration,instr_color_to_key.started,instr_ctk.started,resp_ctk.started,instr_color_to_key.stopped,resp_ctk.keys,resp_ctk.rt,resp_ctk.duration,ITI.started,fixcross.started,fixcross.stopped,ITI.stopped,color_to_key_run.started,stimulus_CTK.started,keyResp_CTK.started,color_to_key_run.stopped,trials_CTK.keyResp_CTK.keys,trials_CTK.keyResp_CTK.corr,trials_CTK.keyResp_CTK.rt,trials_CTK.keyResp_CTK.duration,instr_practice.started,instr_practice_text.started,instr_practice_resp.started,instr_practice.stopped,instr_practice_resp.keys,instr_practice_resp.rt,instr_practice_resp.duration,practice_run.started,stimulus_practice.started,respPractice.started,practice_run.stopped,trials_practice.respPractice.keys,trials_practice.respPractice.corr,trials_practice.respPractice.rt,trials_practice.respPractice.duration,feedback.started,textFeedback.started,feedback.stopped,textFeedback.stopped,instr_test.started,instr_test_text.started,instr_test_resp.started,instr_test.stopped,instr_test_resp.keys,instr_test_resp.rt,instr_test_resp.duration,test_run.started,stimulus_test_run.started,keyResp_test_run.started,test_run.stopped,trials_test.keyResp_test_run.keys,trials_test.keyResp_test_run.corr,trials_test.keyResp_test_run.rt,trials_test.keyResp_test_run.duration,goodbye.started,textGoodbye.started,textGoodbye.stopped,goodbye.stopped,participant,session,expName,frameRate,Unnamed: 113
,,,,,,,,,,,,,,,,,,,,,,,,,,,,,,,,,,,,,,,,,0.0093520000009448,0.0215265830047428,0.0215265830047428,0.0215265830047428,9.48785545800638,space,9.314154706997217,,,,,,,,,,,,,,,,,,,,,,,,,,,,,,,,,,,,,,,,,,,,,,,,,,,,,,,,,,,sub-116,1,stroop_test,119.90665314973263,
,,,,,,,,,,,,,,,,,,,,,,,,,,,,,,,,,,,,,,,,,,,,,,,,,9.487907958005962,9.499711041004048,9.499711041004048,13.944397500003106,space,4.435229458002141,,,,,,,,,,,,,,,,,,,,,,,,,,,,,,,,,,,,,,,,,,,,,,,,,,,,sub-116,1,stroop_test,119.90665314973263,
test,yellow,g,1.0,0.0,0.0,0.0,g,1.0,0.7192494990013074,,,,,,,,,,,,,,,,,,0.0,0.0,0.0,1.0,,,,,,,,,13.98389541600045,,,,,,,,,,,,,,,,,13.964903541003878,14.04204812500393,14.84135466600128,14.826404625004216,14.834147041001415,14.84135466600128,14.84135466600128,15.566899166005896,g,1.0,0.7192494990013074,,,,,,,,,,,,,,,,,,,,,,,,,,,,,,,,,,,,,,,,sub-116,1,stroop_test,119.90665314973263,
test,red,r,1.0,1.0,1.0,0.0,r,1.0,0.3759122489936999,,,,,,,,,,,,,,,,,,0.0,1.0,1.0,0.0,,,,,,,,,15.59259916600422,,,,,,,,,,,,,,,,,15.567494625000108,16.76701212500484,17.5687117080015,17.559830291000253,17.56077825000102,17.5687117080015,17.5687117080015,17.950103916002263,r,1.0,0.3759122489936999,,,,,,,,,,,,,,,,,,,,,,,,,,,,,,,,,,,,,,,,sub-116,1,stroop_test,119.90665314973263,
test,blue,b,1.0,2.0,2.0,0.0,b,1.0,0.4627122079982655,,,,,,,,,,,,,,,,,,0.0,2.0,2.0,2.0,,,,,,,,,17.958996500005014,,,,,,,,,,,,,,,,,17.95071041600022,18.75026466599957,19.55198233300325,19.54314720800176,19.54393262500525,19.55198233300325,19.55198233300325,20.016556791000767,b,1.0,0.4627122079982655,,,,,,,,,,,,,,,,,,,,,,,,,,,,,,,,,,,,,,,,sub-116,1,stroop_test,119.90665314973263,
test,yellow,g,1.0,3.0,0.0,1.0,g,1.0,0.4122779160024947,,,,,,,,,,,,,,,,,,1.0,0.0,3.0,1.0,,,,,,,,,20.025924666006176,,,,,,,,,,,,,,,,,20.017097666001064,20.36610420800571,21.168279000004983,21.15987950000272,21.16065950000484,21.168279000004983,21.168279000004983,21.584061916000792,g,1.0,0.4122779160024947,,,,,,,,,,,,,,,,,,,,,,,,,,,,,,,,,,,,,,,,sub-116,1,stroop_test,119.90665314973263,
test,blue,b,1.0,4.0,1.0,1.0,b,1.0,0.3951611660013441,,,,,,,,,,,,,,,,,,1.0,1.0,4.0,2.0,,,,,,,,,21.60939641600271,,,,,,,,,,,,,,,,,21.584643041001986,21.933635166002205,22.73493862500618,22.72659362500417,22.7273688330024,22.73493862500618,22.73493862500618,23.133382041000004,b,1.0,0.3951611660013441,,,,,,,,,,,,,,,,,,,,,,,,,,,,,,,,,,,,,,,,sub-116,1,stroop_test,119.90665314973263,
test,red,r,1.0,5.0,2.0,1.0,r,1.0,0.4073783319981885,,,,,,,,,,,,,,,,,,1.0,2.0,5.0,0.0,,,,,,,,,23.142826625000453,,,,,,,,,,,,,,,,,23.133917041006494,24.33414845800144,25.13546245800535,25.126693125006568,25.12764487499953,25.13546245800535,25.13546245800535,25.54428054100572,r,1.0,0.4073783319981885,,,,,,,,,,,,,,,,,,,,,,,,,,,,,,,,,,,,,,,,sub-116,1,stroop_test,119.90665314973263,
test,red,r,1.0,6.0,0.0,2.0,r,1.0,0.339567082002759,,,,,,,,,,,,,,,,,,2.0,0.0,6.0,0.0,,,,,,,,,25.554873625005712,,,,,,,,,,,,,,,,,25.54485304099944,26.7424968750056,27.53503354100394,27.52658891600004,27.527418000005127,27.53503354100394,27.53503354100394,27.87774329100648,r,1.0,0.339567082002759,,,,,,,,,,,,,,,,,,,,,,,,,,,,,,,,,,,,,,,,sub-116,1,stroop_test,119.90665314973263,
test,yellow,g,1.0,7.0,1.0,2.0,g,1.0,0.5555690410037641,,,,,,,,,,,,,,,,,,2.0,1.0,7.0,1.0,,,,,,,,,27.887847000005426,,,,,,,,,,,,,,,,,27.87832008300029,27.9759156250002,28.7690310830003,28.75977650000277,28.760747915999676,28.7690310830003,28.7690310830003,29.3277395000041,g,1.0,0.5555690410037641,,,,,,,,,,,,,,,,,,,,,,,,,,,,,,,,,,,,,,,,sub-116,1,stroop_test,119.90665314973263,
test,blue,b,1.0,8.0,2.0,2.0,b,1.0,0.3287386250012787,,,,,,,,,,,,,,,,,,2.0,2.0,8.0,2.0,,,,,,,,,29.33721100000548,,,,,,,,,,,,,,,,,29.328318833002413,30.52626537500328,31.31899241600331,31.30988991600316,31.310839249999844,31.31899241600331,31.31899241600331,31.650302416004703,b,1.0,0.3287386250012787,,,,,,,,,,,,,,,,,,,,,,,,,,,,,,,,,,,,,,,,sub-116,1,stroop_test,119.90665314973263,
test,yellow,g,1.0,9.0,0.0,3.0,g,1.0,0.3070812910009408,,,,,,,,,,,,,,,,,,3.0,0.0,9.0,1.0,,,,,,,,,31.65971779100073,,,,,,,,,,,,,,,,,31.650958166006603,32.85046320800029,33.65147666600387,33.64332733300398,33.64409995800088,33.65147666600387,33.65147666600387,33.96113254100055,g,1.0,0.3070812910009408,,,,,,,,,,,,,,,,,,,,,,,,,,,,,,,,,,,,,,,,sub-116,1,stroop_test,119.90665314973263,
test,blue,b,1.0,10.0,1.0,3.0,b,1.0,0.5135661660024198,,,,,,,,,,,,,,,,,,3.0,1.0,10.0,2.0,,,,,,,,,33.9712740410032,,,,,,,,,,,,,,,,,33.96171383299952,34.759524541004794,35.55253879100201,35.54343499999959,35.544388291004,35.55253879100201,35.55253879100201,36.07774891600275,b,1.0,0.5135661660024198,,,,,,,,,,,,,,,,,,,,,,,,,,,,,,,,,,,,,,,,sub-116,1,stroop_test,119.90665314973263,
test,red,r,1.0,11.0,2.0,3.0,r,1.0,0.4749372500009485,,,,,,,,,,,,,,,,,,3.0,2.0,11.0,0.0,,,,,,,,,36.08782020800572,,,,,,,,,,,,,,,,,36.07835308300128,36.42643350000435,37.21826316600345,37.21004791599989,37.21084512500238,37.21826316600345,37.21826316600345,37.70484916600253,r,1.0,0.4749372500009485,,,,,,,,,,,,,,,,,,,,,,,,,,,,,,,,,,,,,,,,sub-116,1,stroop_test,119.90665314973263,
,,,,,,,,,,,,,,,,,,,,,,,,,,,,,,,,,,,,,,,,,,,,,,,,,,,,,,,,,,,,,,,,,,,,37.70508900000277,37.71173929100041,37.71173929100041,39.284258457999385,space,1.56560566600092,,,,,,,,,,,,,,,,,,,,,,,,,,,,,,,,,sub-116,1,stroop_test,119.90665314973263,
,,,,0.0,0.0,0.0,,,,,blau,yellow,g,0.0,g,1.0,0.5315777069990872,,,,,,,,,,,,,,0.0,0.0,0.0,7.0,,,,,39.30729170800623,,,,,,,,,,,,,,,,,39.29902620800567,40.48406416600483,41.29192412500561,41.27675370799989,,,,,,,,,,,,,,,,41.28463100000226,41.29192412500561,41.29192412500561,41.82792337499996,g,1.0,0.5315777069990872,,41.83625329100323,41.84665195800335,42.83271904100548,,,,,,,,,,,,,,,,,,,,,sub-116,1,stroop_test,119.90665314973263,
,,,,1.0,1.0,0.0,,,,,rot,yellow,g,0.0,g,1.0,0.5138382910008659,,,,,,,,,,,,,,0.0,1.0,1.0,3.0,,,,,42.84308758300176,,,,,,,,,,,,,,,,,42.83338125000592,42.92598833300144,43.72346245800145,43.71013375000621,,,,,,,,,,,,,,,,43.71621037500154,43.72346245800145,43.72346245800145,44.24468612500641,g,1.0,0.5138382910008659,,44.2455157910008,44.25676387500425,45.24355500000093,45.24982520800404,,,,,,,,,,,,,,,,,,,,sub-116,1,stroop_test,119.90665314973263,
,,,,2.0,2.0,0.0,,,,,gelb,red,r,0.0,r,1.0,0.3771409570035757,,,,,,,,,,,,,,0.0,2.0,2.0,8.0,,,,,45.24982520800404,,,,,,,,,,,,,,,,,45.24425433300348,46.44297191600344,47.2395190830066,47.22695708300307,,,,,,,,,,,,,,,,47.23192404099973,47.2395190830066,47.2395190830066,47.62841320800362,r,1.0,0.3771409570035757,,47.62942900000053,47.64032633299939,48.62685116600187,48.63277695800207,,,,,,,,,,,,,,,,,,,,sub-116,1,stroop_test,119.90665314973263,
,,,,3.0,3.0,0.0,,,,,rot,red,r,1.0,r,1.0,0.6014568329992471,,,,,,,,,,,,,,0.0,3.0,3.0,1.0,,,,,48.63277695800207,,,,,,,,,,,,,,,,,48.627404791004665,48.7267126250008,49.5226942080044,49.51023520800664,,,,,,,,,,,,,,,,49.51518512500479,49.5226942080044,49.5226942080044,50.12802129100601,r,1.0,0.6014568329992471,,50.12877758300601,50.13946187500551,51.12687687500147,51.13243262500328,,,,,,,,,,,,,,,,,,,,sub-116,1,stroop_test,119.90665314973263,
,,,,4.0,4.0,0.0,,,,,rot,red,r,1.0,r,1.0,0.4434412910050014,,,,,,,,,,,,,,0.0,4.0,4.0,0.0,,,,,51.13243262500328,,,,,,,,,,,,,,,,,51.12743508300628,51.22631245800585,52.01891404100024,52.01042637500359,,,,,,,,,,,,,,,,52.01134170800651,52.01891404100024,52.01891404100024,52.46776700000191,r,1.0,0.4434412910050014,,52.46862566600612,52.48062220800057,53.46660941600567,53.476705416003824,,,,,,,,,,,,,,,,,,,,sub-116,1,stroop_test,119.90665314973263,
,,,,5.0,5.0,0.0,,,,,gelb,yellow,g,1.0,g,1.0,0.5062107910052873,,,,,,,,,,,,,,0.0,5.0,5.0,11.0,,,,,53.476705416003824,,,,,,,,,,,,,,,,,53.46721008299937,54.66749029100174,55.47391879100178,55.46046791600384,,,,,,,,,,,,,,,,55.466487375000725,55.47391879100178,55.47391879100178,55.98400945799949,g,1.0,0.5062107910052873,,55.98479937500088,55.99755108300451,56.98332291599945,56.99339141600649,,,,,,,,,,,,,,,,,,,,sub-116,1,stroop_test,119.90665314973263,
,,,,6.0,6.0,0.0,,,,,blau,blue,b,1.0,b,1.0,0.3156437910001841,,,,,,,,,,,,,,0.0,6.0,6.0,6.0,,,,,56.99339141600649,,,,,,,,,,,,,,,,,56.98388900000282,58.18299100000149,58.99304966600175,58.96637300000293,,,,,,,,,,,,,,,,58.97073687500233,58.99304966600175,58.99304966600175,59.31177454100544,b,1.0,0.3156437910001841,,59.31262558300659,59.32363462500507,60.310379000002285,60.31635966600152,,,,,,,,,,,,,,,,,,,,sub-116,1,stroop_test,119.90665314973263,
,,,,7.0,7.0,0.0,,,,,rot,blue,b,0.0,b,1.0,0.6713166249974165,,,,,,,,,,,,,,0.0,7.0,7.0,2.0,,,,,60.31635966600152,,,,,,,,,,,,,,,,,60.311049791002006,61.110139125004935,61.906705625006,61.89373808300297,,,,,,,,,,,,,,,,61.89906750000228,61.906705625006,61.906705625006,62.584064875001786,b,1.0,0.6713166249974165,,62.58475845800422,62.59580900000583,63.58282783300092,63.59327145800489,,,,,,,,,,,,,,,,,,,,sub-116,1,stroop_test,119.90665314973263,
,,,,8.0,8.0,0.0,,,,,blau,red,r,0.0,r,1.0,0.4892612080002436,,,,,,,,,,,,,,0.0,8.0,8.0,4.0,,,,,63.59327145800489,,,,,,,,,,,,,,,,,63.58342750000156,64.3843801250041,65.18938325000636,65.17716929100425,,,,,,,,,,,,,,,,65.18158225000661,65.18938325000636,65.18938325000636,65.68427050000173,r,1.0,0.4892612080002436,,65.68506900000648,65.6958966250022,66.6835043750034,66.69336104100512,,,,,,,,,,,,,,,,,,,,sub-116,1,stroop_test,119.90665314973263,
,,,,9.0,9.0,0.0,,,,,gelb,blue,b,0.0,b,1.0,0.5433030819986016,,,,,,,,,,,,,,0.0,9.0,9.0,9.0,,,,,66.69336104100512,,,,,,,,,,,,,,,,,66.68407383300655,66.78412175000267,67.58920375000162,67.57723441599956,,,,,,,,,,,,,,,,67.58177787500608,67.58920375000162,67.58920375000162,68.13401787500334,b,1.0,0.5433030819986016,,68.13473395800247,68.14532508300181,69.13351962500019,69.14362133300165,,,,,,,,,,,,,,,,,,,,sub-116,1,stroop_test,119.90665314973263,
,,,,10.0,10.0,0.0,,,,,blau,blue,b,1.0,b,1.0,0.4328456250004819,,,,,,,,,,,,,,0.0,10.0,10.0,5.0,,,,,69.14362133300165,,,,,,,,,,,,,,,,,69.13416108300589,69.4843395410062,70.2889751660041,70.27709729100025,,,,,,,,,,,,,,,,70.28190529100539,70.2889751660041,70.2889751660041,70.72841225000593,b,1.0,0.4328456250004819,,70.72903370800486,70.7389065410025,71.72725291600364,71.73353712500102,,,,,,,,,,,,,,,,,,,,sub-116,1,stroop_test,119.90665314973263,
,,,,11.0,11.0,0.0,,,,,gelb,yellow,g,1.0,g,1.0,0.4629600410044077,,,,,,,,,,,,,,0.0,11.0,11.0,10.0,,,,,71.73353712500102,,,,,,,,,,,,,,,,,71.72787216600409,72.07643191600073,72.87412870800472,72.86071866600105,,,,,,,,,,,,,,,,72.86639412500517,72.87412870800472,72.87412870800472,73.34491379100655,g,1.0,0.4629600410044077,,73.34569283300516,73.35665391600196,74.34417429099994,74.35005870800524,,,,,,,,,,,,,,,,,,,,sub-116,1,stroop_test,119.90665314973263,
,,,,12.0,0.0,1.0,,,,,rot,red,r,1.0,r,1.0,0.2877677069991478,,,,,,,,,,,,,,1.0,0.0,12.0,0.0,,,,,74.35005870800524,,,,,,,,,,,,,,,,,74.34486875000584,75.5443266250004,76.3392674160059,76.32717125000636,,,,,,,,,,,,,,,,76.33145479100494,76.3392674160059,76.3392674160059,76.62865199999942,r,1.0,0.2877677069991478,,76.62961208300112,76.6411072080009,77.6271901250002,77.63309329100593,,,,,,,,,,,,,,,,,,,,sub-116,1,stroop_test,119.90665314973263,
,,,,13.0,1.0,1.0,,,,,rot,yellow,g,0.0,g,1.0,0.343022874003509,,,,,,,,,,,,,,1.0,1.0,13.0,3.0,,,,,77.63309329100593,,,,,,,,,,,,,,,,,77.62776554100128,78.82669220800017,79.61983337499987,79.61081633300637,,,,,,,,,,,,,,,,79.61175037500652,79.61983337499987,79.61983337499987,79.96810062500299,g,1.0,0.343022874003509,,79.9690007080062,79.98106820800604,80.96675687500101,80.97686641600012,,,,,,,,,,,,,,,,,,,,sub-116,1,stroop_test,119.90665314973263,
,,,,14.0,2.0,1.0,,,,,gelb,yellow,g,1.0,g,1.0,0.329417373999604,,,,,,,,,,,,,,1.0,2.0,14.0,11.0,,,,,80.97686641600012,,,,,,,,,,,,,,,,,80.96730945800664,82.16758170800313,82.97347108300164,82.96063920800225,,,,,,,,,,,,,,,,82.96581945800426,82.97347108300164,82.97347108300164,83.31187900000077,g,1.0,0.329417373999604,,83.31268075000116,83.32341220800299,84.31078904100286,84.3164230830007,,,,,,,,,,,,,,,,,,,,sub-116,1,stroop_test,119.90665314973263,
,,,,15.0,3.0,1.0,,,,,blau,blue,b,1.0,b,1.0,0.4136749989993404,,,,,,,,,,,,,,1.0,3.0,15.0,5.0,,,,,84.3164230830007,,,,,,,,,,,,,,,,,84.31135612500657,84.66016079100518,85.45625575000304,85.44411958300043,,,,,,,,,,,,,,,,85.44858220800234,85.45625575000304,85.45625575000304,85.87882629100204,b,1.0,0.4136749989993404,,85.87979025000095,85.89084391600045,86.87749816600262,86.88341616600519,,,,,,,,,,,,,,,,,,,,sub-116,1,stroop_test,119.90665314973263,
,,,,16.0,4.0,1.0,,,,,blau,yellow,g,0.0,r,0.0,0.3673168319946853,,,,,,,,,,,,,,1.0,4.0,16.0,7.0,,,,,86.88341616600519,,,,,,,,,,,,,,,,,86.87805412500165,86.97722483300458,87.76969629100495,87.76088404100301,,,,,,,,,,,,,,,,87.7618094999998,87.76969629100495,87.76969629100495,88.14544095800375,r,0.0,0.3673168319946853,,88.15242679100629,88.16232450000098,89.15005004100385,,,,,,,,,,,,,,,,,,,,,sub-116,1,stroop_test,119.90665314973263,
,,,,17.0,5.0,1.0,,,,,blau,blue,b,1.0,b,1.0,0.5031263319979189,,,,,,,,,,,,,,1.0,5.0,17.0,6.0,,,,,89.16047495800012,,,,,,,,,,,,,,,,,89.15065979100473,90.3439140000046,91.1362276660002,91.12761037500604,,,,,,,,,,,,,,,,91.12856291600474,91.1362276660002,91.1362276660002,91.64535470800185,b,1.0,0.5031263319979189,,91.65073212500285,91.660939625006,92.64420950000203,92.64976587500132,,,,,,,,,,,,,,,,,,,,sub-116,1,stroop_test,119.90665314973263,
,,,,18.0,6.0,1.0,,,,,gelb,yellow,g,1.0,g,1.0,0.4463494990050094,,,,,,,,,,,,,,1.0,6.0,18.0,10.0,,,,,92.64976587500132,,,,,,,,,,,,,,,,,92.64477841600456,93.4439027910048,94.2404268330065,94.22739650000584,,,,,,,,,,,,,,,,94.23305262500072,94.2404268330065,94.2404268330065,94.6953687080022,g,1.0,0.4463494990050094,,94.69617708300213,94.70720245800476,95.69436775000212,95.70027533300164,,,,,,,,,,,,,,,,,,,,sub-116,1,stroop_test,119.90665314973263,
,,,,19.0,7.0,1.0,,,,,rot,blue,b,0.0,b,1.0,0.5658824580023065,,,,,,,,,,,,,,1.0,7.0,19.0,2.0,,,,,95.70027533300164,,,,,,,,,,,,,,,,,95.6950488750008,96.4939960000047,97.28978525000277,97.27765000000365,,,,,,,,,,,,,,,,97.2819476250006,97.28978525000277,97.28978525000277,97.86207816600654,b,1.0,0.5658824580023065,,97.86278983300144,97.87313933300176,98.86094937500457,98.86659779100592,,,,,,,,,,,,,,,,,,,,sub-116,1,stroop_test,119.90665314973263,
,,,,20.0,8.0,1.0,,,,,gelb,red,r,0.0,r,1.0,0.6227947910010698,,,,,,,,,,,,,,1.0,8.0,20.0,8.0,,,,,98.86659779100592,,,,,,,,,,,,,,,,,98.8615423750016,100.06030595800256,100.85685208300129,100.84431795800629,,,,,,,,,,,,,,,,100.84923033300583,100.85685208300129,100.85685208300129,101.48470583300514,r,1.0,0.6227947910010698,,101.48551774999942,101.49621787500656,102.4834283750024,102.49399950000225,,,,,,,,,,,,,,,,,,,,sub-116,1,stroop_test,119.90665314973263,
,,,,21.0,9.0,1.0,,,,,blau,red,r,0.0,r,1.0,0.5848832909978228,,,,,,,,,,,,,,1.0,9.0,21.0,4.0,,,,,102.49399950000225,,,,,,,,,,,,,,,,,102.48407399999996,103.28464162500312,104.09003520800616,104.07768654100072,,,,,,,,,,,,,,,,104.0823101250062,104.09003520800616,104.09003520800616,104.6786992500056,r,1.0,0.5848832909978228,,104.67950675000613,104.69089137500124,105.67757941600576,105.68315129099938,,,,,,,,,,,,,,,,,,,,sub-116,1,stroop_test,119.90665314973263,
,,,,22.0,10.0,1.0,,,,,rot,red,r,1.0,r,1.0,0.4950496239980566,,,,,,,,,,,,,,1.0,10.0,22.0,1.0,,,,,105.68315129099938,,,,,,,,,,,,,,,,,105.67815237500326,106.02711249999992,106.82365295800264,106.81094733300417,,,,,,,,,,,,,,,,106.81594175000646,106.82365295800264,106.82365295800264,107.329021000005,r,1.0,0.4950496239980566,,107.32983783300006,107.3414079580034,108.32783008300612,108.3339482500014,,,,,,,,,,,,,,,,,,,,sub-116,1,stroop_test,119.90665314973263,
,,,,23.0,11.0,1.0,,,,,gelb,blue,b,0.0,b,1.0,0.4659551250006188,,,,,,,,,,,,,,1.0,11.0,23.0,9.0,,,,,108.3339482500014,,,,,,,,,,,,,,,,,108.32847666599991,109.52732341600496,110.3233435410002,110.31114079100372,,,,,,,,,,,,,,,,110.31621325000016,110.3233435410002,110.3233435410002,110.79574725000566,b,1.0,0.4659551250006188,,110.79642187500576,110.8070059580059,111.79431404100616,111.80293862500548,,,,,,,,,,,,,,,,,,,,sub-116,1,stroop_test,119.90665314973263,
,,,,,,,,,,,,,,,,,,,,,,,,,,,,,,,,,,,,,,,,,,,,,,,,,,,,,,,,,,,,,,,,,,,,,,,,,,,,,,,,,,,,,,,111.79454891600471,111.80293862500548,111.80293862500548,126.24568725000428,space,14.436689749003564,,,,,,,,,,,,,,sub-116,1,stroop_test,119.90665314973263,
,,,,0.0,0.0,0.0,,,,,,,,,,,,,rot,blue,b,0.0,r,0.0,0.6750465410004836,,,,,,,,,,0.0,0.0,0.0,2.0,126.26894300000276,,,,,,,,,,,,,,,,,126.2603390000004,126.34436020800058,127.14055754100264,127.12800245800464,,,,,,,,,,,,,,,,,,,,,,,,,,,,,,,,,,,127.13271079100376,127.14055754100264,127.14055754100264,127.81845620800595,r,0.0,0.6750465410004836,,,,,,sub-116,1,stroop_test,119.90665314973263,
,,,,1.0,1.0,0.0,,,,,,,,,,,,,rot,red,r,1.0,r,1.0,0.5451317070037476,,,,,,,,,,0.0,1.0,1.0,1.0,127.84423300000344,,,,,,,,,,,,,,,,,127.81905466600438,129.01824558299995,129.820333458003,129.81142287500552,,,,,,,,,,,,,,,,,,,,,,,,,,,,,,,,,,,129.8123670000059,129.820333458003,129.820333458003,130.36830366600043,r,1.0,0.5451317070037476,,,,,,sub-116,1,stroop_test,119.90665314973263,
,,,,2.0,2.0,0.0,,,,,,,,,,,,,gelb,red,r,0.0,r,1.0,0.839755666005658,,,,,,,,,,0.0,2.0,2.0,8.0,130.37914729100157,,,,,,,,,,,,,,,,,130.3689768330005,131.56851354100218,132.37356666599953,132.36152470800153,,,,,,,,,,,,,,,,,,,,,,,,,,,,,,,,,,,132.36650616599945,132.37356666599953,132.37356666599953,133.2181795409997,r,1.0,0.839755666005658,,,,,,sub-116,1,stroop_test,119.90665314973263,
,,,,3.0,3.0,0.0,,,,,,,,,,,,,blau,blue,b,1.0,b,1.0,0.5180082909937482,,,,,,,,,,0.0,3.0,3.0,5.0,133.244093541005,,,,,,,,,,,,,,,,,133.21877558300184,134.01830091600277,134.82333183300216,134.8114710410009,,,,,,,,,,,,,,,,,,,,,,,,,,,,,,,,,,,134.81566866600042,134.82333183300216,134.82333183300216,135.34600295800192,b,1.0,0.5180082909937482,,,,,,sub-116,1,stroop_test,119.90665314973263,
,,,,4.0,4.0,0.0,,,,,,,,,,,,,blau,red,r,0.0,r,1.0,0.6486447490024148,,,,,,,,,,0.0,4.0,4.0,4.0,135.35723316600345,,,,,,,,,,,,,,,,,135.34681750000163,136.54449233299965,137.33632675000263,137.32810258300017,,,,,,,,,,,,,,,,,,,,,,,,,,,,,,,,,,,137.32890849999967,137.33632675000263,137.33632675000263,137.99596720800037,r,1.0,0.6486447490024148,,,,,,sub-116,1,stroop_test,119.90665314973263,
,,,,5.0,5.0,0.0,,,,,,,,,,,,,gelb,yellow,g,1.0,g,1.0,0.6103808330008178,,,,,,,,,,0.0,5.0,5.0,11.0,138.00699329100462,,,,,,,,,,,,,,,,,137.99664458299958,138.09452183300164,138.89108845800365,138.87829008300469,,,,,,,,,,,,,,,,,,,,,,,,,,,,,,,,,,,138.88337062500068,138.89108845800365,138.89108845800365,139.51280433300417,g,1.0,0.6103808330008178,,,,,,sub-116,1,stroop_test,119.90665314973263,
,,,,6.0,6.0,0.0,,,,,,,,,,,,,gelb,blue,b,0.0,b,1.0,0.5101628330012318,,,,,,,,,,0.0,6.0,6.0,9.0,139.5236101660048,,,,,,,,,,,,,,,,,139.51348616600444,139.8608834580009,140.6529265000063,140.64464641600352,,,,,,,,,,,,,,,,,,,,,,,,,,,,,,,,,,,140.6454606250045,140.6529265000063,140.6529265000063,141.1687157080014,b,1.0,0.5101628330012318,,,,,,sub-116,1,stroop_test,119.90665314973263,
,,,,7.0,7.0,0.0,,,,,,,,,,,,,gelb,yellow,g,1.0,g,1.0,0.3587924579987884,,,,,,,,,,0.0,7.0,7.0,10.0,141.1942489580033,,,,,,,,,,,,,,,,,141.16940541600343,142.36861879100616,143.17015816600178,143.1615039160024,,,,,,,,,,,,,,,,,,,,,,,,,,,,,,,,,,,143.16244904100313,143.17015816600178,143.17015816600178,143.53567091600416,g,1.0,0.3587924579987884,,,,,,sub-116,1,stroop_test,119.90665314973263,
,,,,8.0,8.0,0.0,,,,,,,,,,,,,blau,yellow,g,0.0,g,1.0,0.5906219160024193,,,,,,,,,,0.0,8.0,8.0,7.0,143.56089866600087,,,,,,,,,,,,,,,,,143.53633641600027,144.73563525000645,145.5399450410041,145.52823529099987,,,,,,,,,,,,,,,,,,,,,,,,,,,,,,,,,,,145.53251320800337,145.5399450410041,145.5399450410041,146.13511629099958,g,1.0,0.5906219160024193,,,,,,sub-116,1,stroop_test,119.90665314973263,
,,,,9.0,9.0,0.0,,,,,,,,,,,,,rot,red,r,1.0,r,1.0,0.5210749990001204,,,,,,,,,,0.0,9.0,9.0,0.0,146.14470941600302,,,,,,,,,,,,,,,,,146.135762583006,147.33519120800338,148.1427016660018,148.12823033300083,,,,,,,,,,,,,,,,,,,,,,,,,,,,,,,,,,,148.13545920800243,148.1427016660018,148.1427016660018,148.6685544580032,r,1.0,0.5210749990001204,,,,,,sub-116,1,stroop_test,119.90665314973263,
,,,,10.0,10.0,0.0,,,,,,,,,,,,,rot,yellow,g,0.0,g,1.0,1.191281749001064,,,,,,,,,,0.0,10.0,10.0,3.0,148.69428683300066,,,,,,,,,,,,,,,,,148.66907562500273,148.76774766600283,149.5609130830053,149.5510897080021,,,,,,,,,,,,,,,,,,,,,,,,,,,,,,,,,,,149.55191933300375,149.5609130830053,149.5609130830053,150.76269445800426,g,1.0,1.191281749001064,,,,,,sub-116,1,stroop_test,119.90665314973263,
,,,,11.0,11.0,0.0,,,,,,,,,,,,,blau,blue,b,1.0,b,1.0,0.4609375410000211,,,,,,,,,,0.0,11.0,11.0,6.0,150.77265133300534,,,,,,,,,,,,,,,,,150.7633391660056,150.86129079100647,151.65686629099946,151.64492937500472,,,,,,,,,,,,,,,,,,,,,,,,,,,,,,,,,,,151.6494242080007,151.65686629099946,151.65686629099946,152.12960725000448,b,1.0,0.4609375410000211,,,,,,sub-116,1,stroop_test,119.90665314973263,
,,,,12.0,0.0,1.0,,,,,,,,,,,,,gelb,yellow,g,1.0,g,1.0,0.5059821659961017,,,,,,,,,,1.0,0.0,12.0,11.0,152.1407444159995,,,,,,,,,,,,,,,,,152.13039545799984,152.22803737500362,153.0232616659996,153.0116455000025,,,,,,,,,,,,,,,,,,,,,,,,,,,,,,,,,,,153.01596133300336,153.0232616659996,153.0232616659996,153.53577216600388,g,1.0,0.5059821659961017,,,,,,sub-116,1,stroop_test,119.90665314973263,
,,,,13.0,1.0,1.0,,,,,,,,,,,,,gelb,blue,b,0.0,b,1.0,0.749516957999731,,,,,,,,,,1.0,1.0,13.0,9.0,153.54621000000043,,,,,,,,,,,,,,,,,153.53641879100178,154.33429150000302,155.12752045800153,155.11727912500646,,,,,,,,,,,,,,,,,,,,,,,,,,,,,,,,,,,155.11811016600404,155.12752045800153,155.12752045800153,155.87926895800047,b,1.0,0.749516957999731,,,,,,sub-116,1,stroop_test,119.90665314973263,
,,,,14.0,2.0,1.0,,,,,,,,,,,,,rot,yellow,g,0.0,g,1.0,0.7131342080028844,,,,,,,,,,1.0,2.0,14.0,3.0,155.88898520800285,,,,,,,,,,,,,,,,,155.8799368330001,157.0777278750029,157.8741654580008,157.86175400000502,,,,,,,,,,,,,,,,,,,,,,,,,,,,,,,,,,,157.86654195800656,157.8741654580008,157.8741654580008,158.5962310410032,g,1.0,0.7131342080028844,,,,,,sub-116,1,stroop_test,119.90665314973263,
,,,,15.0,3.0,1.0,,,,,,,,,,,,,rot,red,r,1.0,r,1.0,0.5658472080031061,,,,,,,,,,1.0,3.0,15.0,0.0,158.60665545800293,,,,,,,,,,,,,,,,,158.59681875000388,159.39434012499987,160.1871092500005,160.178459958006,,,,,,,,,,,,,,,,,,,,,,,,,,,,,,,,,,,160.1794205000042,160.1871092500005,160.1871092500005,160.76302700000087,r,1.0,0.5658472080031061,,,,,,sub-116,1,stroop_test,119.90665314973263,
,,,,16.0,4.0,1.0,,,,,,,,,,,,,gelb,yellow,g,1.0,g,1.0,1.16279345699877,,,,,,,,,,1.0,4.0,16.0,10.0,160.77375175000634,,,,,,,,,,,,,,,,,160.7638256660066,161.56116158300574,162.35730220800178,162.3449272910002,,,,,,,,,,,,,,,,,,,,,,,,,,,,,,,,,,,162.34978895800305,162.35730220800178,162.35730220800178,163.52937775000464,g,1.0,1.16279345699877,,,,,,sub-116,1,stroop_test,119.90665314973263,
,,,,17.0,5.0,1.0,,,,,,,,,,,,,gelb,red,r,0.0,r,1.0,0.6032747909994214,,,,,,,,,,1.0,5.0,17.0,8.0,163.53954395800247,,,,,,,,,,,,,,,,,163.53000050000264,164.7277088750052,165.52041870800167,165.5119002499996,,,,,,,,,,,,,,,,,,,,,,,,,,,,,,,,,,,165.51282162500138,165.52041870800167,165.52041870800167,166.1297059580029,r,1.0,0.6032747909994214,,,,,,sub-116,1,stroop_test,119.90665314973263,
,,,,18.0,6.0,1.0,,,,,,,,,,,,,blau,yellow,g,0.0,g,1.0,0.6447042080035317,,,,,,,,,,1.0,6.0,18.0,7.0,166.13978379100445,,,,,,,,,,,,,,,,,166.13036225000542,166.22773166600382,167.02445908300433,167.01193629100453,,,,,,,,,,,,,,,,,,,,,,,,,,,,,,,,,,,167.0167075000063,167.02445908300433,167.02445908300433,167.68006400000013,g,1.0,0.6447042080035317,,,,,,sub-116,1,stroop_test,119.90665314973263,
,,,,19.0,7.0,1.0,,,,,,,,,,,,,blau,blue,b,1.0,b,1.0,0.4532609159941785,,,,,,,,,,1.0,7.0,19.0,6.0,167.69121245800488,,,,,,,,,,,,,,,,,167.6808027080042,167.7781714580051,168.56996691600216,168.5617965410056,,,,,,,,,,,,,,,,,,,,,,,,,,,,,,,,,,,168.56255487500312,168.56996691600216,168.56996691600216,169.02975595799944,b,1.0,0.4532609159941785,,,,,,sub-116,1,stroop_test,119.90665314973263,
,,,,20.0,8.0,1.0,,,,,,,,,,,,,rot,blue,b,0.0,b,1.0,0.7882172079989687,,,,,,,,,,1.0,8.0,20.0,2.0,169.0387012909996,,,,,,,,,,,,,,,,,169.03030662500532,169.828240791001,170.62478858300165,170.6118626660027,,,,,,,,,,,,,,,,,,,,,,,,,,,,,,,,,,,170.6175149580013,170.62478858300165,170.62478858300165,171.4191979580064,b,1.0,0.7882172079989687,,,,,,sub-116,1,stroop_test,119.90665314973263,
,,,,21.0,9.0,1.0,,,,,,,,,,,,,blau,blue,b,1.0,b,1.0,0.5258638330051326,,,,,,,,,,1.0,9.0,21.0,5.0,171.4445635000011,,,,,,,,,,,,,,,,,171.41977829100506,171.51925108300202,172.32436520800547,172.31199650000053,,,,,,,,,,,,,,,,,,,,,,,,,,,,,,,,,,,172.31668087500293,172.32436520800547,172.32436520800547,172.85240308300126,b,1.0,0.5258638330051326,,,,,,sub-116,1,stroop_test,119.90665314973263,
,,,,22.0,10.0,1.0,,,,,,,,,,,,,rot,red,r,1.0,r,1.0,0.5678443329961738,,,,,,,,,,1.0,10.0,22.0,1.0,172.86315979100618,,,,,,,,,,,,,,,,,172.8530702910066,173.6523492500055,174.4579242079999,174.44530087500607,,,,,,,,,,,,,,,,,,,,,,,,,,,,,,,,,,,174.45047512500605,174.4579242079999,174.4579242079999,175.0300725410052,r,1.0,0.5678443329961738,,,,,,sub-116,1,stroop_test,119.90665314973263,
,,,,23.0,11.0,1.0,,,,,,,,,,,,,blau,red,r,0.0,r,1.0,0.5765522499932558,,,,,,,,,,1.0,11.0,23.0,4.0,175.0413092910021,,,,,,,,,,,,,,,,,175.0308449580043,176.22826233300293,177.0238217080041,177.01191170800303,,,,,,,,,,,,,,,,,,,,,,,,,,,,,,,,,,,177.01620370800083,177.0238217080041,177.0238217080041,177.60252800000308,r,1.0,0.5765522499932558,,,,,,sub-116,1,stroop_test,119.90665314973263,
,,,,24.0,0.0,2.0,,,,,,,,,,,,,rot,red,r,1.0,r,1.0,0.4150784989979001,,,,,,,,,,2.0,0.0,24.0,1.0,177.62815645800583,,,,,,,,,,,,,,,,,177.6032049580026,178.80274541600377,179.6071509160029,179.59528745800344,,,,,,,,,,,,,,,,,,,,,,,,,,,,,,,,,,,179.59967075000168,179.6071509160029,179.6071509160029,180.03000408300431,r,1.0,0.4150784989979001,,,,,,sub-116,1,stroop_test,119.90665314973263,
,,,,25.0,1.0,2.0,,,,,,,,,,,,,gelb,blue,b,0.0,b,1.0,0.4407884989996091,,,,,,,,,,2.0,1.0,25.0,9.0,180.04051587499998,,,,,,,,,,,,,,,,,180.03069004099962,180.8280202080059,181.62496645800277,181.61211266600003,,,,,,,,,,,,,,,,,,,,,,,,,,,,,,,,,,,181.61735729100477,181.62496645800277,181.62496645800277,182.06944245799968,b,1.0,0.4407884989996091,,,,,,sub-116,1,stroop_test,119.90665314973263,
,,,,26.0,2.0,2.0,,,,,,,,,,,,,blau,red,r,0.0,r,1.0,0.515962874997058,,,,,,,,,,2.0,2.0,26.0,4.0,182.08038491600016,,,,,,,,,,,,,,,,,182.07007558300396,183.2681371660001,184.0635717910045,184.05171008300383,,,,,,,,,,,,,,,,,,,,,,,,,,,,,,,,,,,184.0564545410016,184.0635717910045,184.0635717910045,184.5859652500003,r,1.0,0.515962874997058,,,,,,sub-116,1,stroop_test,119.90665314973263,
,,,,27.0,3.0,2.0,,,,,,,,,,,,,rot,red,r,1.0,r,1.0,0.5340773319985601,,,,,,,,,,2.0,3.0,27.0,0.0,184.59524087500176,,,,,,,,,,,,,,,,,184.58648716600143,184.68431191600396,185.48099566600283,185.46820170800493,,,,,,,,,,,,,,,,,,,,,,,,,,,,,,,,,,,185.47420258300556,185.48099566600283,185.48099566600283,186.01893704100075,r,1.0,0.5340773319985601,,,,,,sub-116,1,stroop_test,119.90665314973263,
,,,,28.0,4.0,2.0,,,,,,,,,,,,,rot,blue,b,0.0,b,1.0,0.4802504999970551,,,,,,,,,,2.0,4.0,28.0,2.0,186.0449447499996,,,,,,,,,,,,,,,,,186.01958112500145,187.21903425000343,188.02073050000035,188.01212508300523,,,,,,,,,,,,,,,,,,,,,,,,,,,,,,,,,,,188.0129297910025,188.02073050000035,188.02073050000035,188.50271862500085,b,1.0,0.4802504999970551,,,,,,sub-116,1,stroop_test,119.90665314973263,
,,,,29.0,5.0,2.0,,,,,,,,,,,,,gelb,yellow,g,1.0,g,1.0,0.3433213739990606,,,,,,,,,,2.0,5.0,29.0,10.0,188.51209491600457,,,,,,,,,,,,,,,,,188.50340625000536,189.7022802909996,190.5076407910019,190.4955460000056,,,,,,,,,,,,,,,,,,,,,,,,,,,,,,,,,,,190.50020883300024,190.5076407910019,190.5076407910019,190.8527118750062,g,1.0,0.3433213739990606,,,,,,sub-116,1,stroop_test,119.90665314973263,
,,,,30.0,6.0,2.0,,,,,,,,,,,,,blau,blue,b,1.0,b,1.0,0.3756553750063176,,,,,,,,,,2.0,6.0,30.0,6.0,190.86208233300567,,,,,,,,,,,,,,,,,190.853253416004,192.05272275000607,192.8572393750001,192.84567691600387,,,,,,,,,,,,,,,,,,,,,,,,,,,,,,,,,,,192.850088666004,192.8572393750001,192.8572393750001,193.2367654580012,b,1.0,0.3756553750063176,,,,,,sub-116,1,stroop_test,119.90665314973263,
,,,,31.0,7.0,2.0,,,,,,,,,,,,,rot,yellow,g,0.0,g,1.0,0.550887416000478,,,,,,,,,,2.0,7.0,31.0,3.0,193.2616737080025,,,,,,,,,,,,,,,,,193.23734195800355,193.33876787500049,194.14171720800368,194.1289119580033,,,,,,,,,,,,,,,,,,,,,,,,,,,,,,,,,,,194.13396791600096,194.14171720800368,194.14171720800368,194.69687333299956,g,1.0,0.550887416000478,,,,,,sub-116,1,stroop_test,119.90665314973263,
,,,,32.0,8.0,2.0,,,,,,,,,,,,,gelb,red,r,0.0,r,1.0,0.4248469160011154,,,,,,,,,,2.0,8.0,32.0,8.0,194.70784154099965,,,,,,,,,,,,,,,,,194.6976666250048,195.89486325000323,196.69055229100195,196.67886691600145,,,,,,,,,,,,,,,,,,,,,,,,,,,,,,,,,,,196.68306420800215,196.69055229100195,196.69055229100195,197.1195138330004,r,1.0,0.4248469160011154,,,,,,sub-116,1,stroop_test,119.90665314973263,
,,,,33.0,9.0,2.0,,,,,,,,,,,,,blau,blue,b,1.0,b,1.0,0.4488512910029385,,,,,,,,,,2.0,9.0,33.0,5.0,197.12886991599956,,,,,,,,,,,,,,,,,197.1200092500003,197.91921779100085,198.7241844160017,198.7122615410044,,,,,,,,,,,,,,,,,,,,,,,,,,,,,,,,,,,198.71661508300167,198.7241844160017,198.7241844160017,199.18035025000427,b,1.0,0.4488512910029385,,,,,,sub-116,1,stroop_test,119.90665314973263,
,,,,34.0,10.0,2.0,,,,,,,,,,,,,gelb,yellow,g,1.0,g,1.0,0.486684540999704,,,,,,,,,,2.0,10.0,34.0,11.0,199.1908497500044,,,,,,,,,,,,,,,,,199.1810526660047,199.27847266600293,200.0740836660043,200.06223470800612,,,,,,,,,,,,,,,,,,,,,,,,,,,,,,,,,,,200.0671034160041,200.0740836660043,200.0740836660043,200.56370087500545,g,1.0,0.486684540999704,,,,,,sub-116,1,stroop_test,119.90665314973263,
,,,,35.0,11.0,2.0,,,,,,,,,,,,,blau,yellow,g,0.0,g,1.0,0.4263162909992388,,,,,,,,,,2.0,11.0,35.0,7.0,200.57471012500173,,,,,,,,,,,,,,,,,200.56448216600256,201.3618502910031,202.1580149580041,202.14560354100104,,,,,,,,,,,,,,,,,,,,,,,,,,,,,,,,,,,202.15106500000547,202.1580149580041,202.1580149580041,202.5857032910062,g,1.0,0.4263162909992388,,,,,,sub-116,1,stroop_test,119.90665314973263,
,,,,36.0,0.0,3.0,,,,,,,,,,,,,rot,red,r,1.0,r,1.0,0.5515912080009002,,,,,,,,,,3.0,0.0,36.0,1.0,202.59556516600423,,,,,,,,,,,,,,,,,202.58623583300505,202.68586454100296,203.49128145800205,203.47900350000415,,,,,,,,,,,,,,,,,,,,,,,,,,,,,,,,,,,203.48331479100307,203.49128145800205,203.49128145800205,204.0467881250006,r,1.0,0.5515912080009002,,,,,,sub-116,1,stroop_test,119.90665314973263,
,,,,37.0,1.0,3.0,,,,,,,,,,,,,rot,yellow,g,0.0,g,1.0,0.5125684160011588,,,,,,,,,,3.0,1.0,37.0,3.0,204.0563304580064,,,,,,,,,,,,,,,,,204.0474523330049,204.8448239999998,205.63744604100063,205.62900812500448,,,,,,,,,,,,,,,,,,,,,,,,,,,,,,,,,,,205.62981366600437,205.63744604100063,205.63744604100063,206.15304883300269,g,1.0,0.5125684160011588,,,,,,sub-116,1,stroop_test,119.90665314973263,
,,,,38.0,2.0,3.0,,,,,,,,,,,,,rot,blue,b,0.0,b,1.0,0.4431490409988328,,,,,,,,,,3.0,2.0,38.0,2.0,206.16223525000527,,,,,,,,,,,,,,,,,206.15364079100252,206.2520172910008,207.05390750000515,207.04567762499937,,,,,,,,,,,,,,,,,,,,,,,,,,,,,,,,,,,207.0464680000005,207.05390750000515,207.05390750000515,207.50247291599956,b,1.0,0.4431490409988328,,,,,,sub-116,1,stroop_test,119.90665314973263,
,,,,39.0,3.0,3.0,,,,,,,,,,,,,blau,yellow,g,0.0,g,1.0,0.4221831249960814,,,,,,,,,,3.0,3.0,39.0,7.0,207.51212095800287,,,,,,,,,,,,,,,,,207.50302816600012,207.84516450000228,208.641059833004,208.6290527500023,,,,,,,,,,,,,,,,,,,,,,,,,,,,,,,,,,,208.63361462500325,208.641059833004,208.641059833004,209.06991025000025,g,1.0,0.4221831249960814,,,,,,sub-116,1,stroop_test,119.90665314973263,
,,,,40.0,4.0,3.0,,,,,,,,,,,,,gelb,blue,b,0.0,b,1.0,0.4908809580010711,,,,,,,,,,3.0,4.0,40.0,9.0,209.09506254100413,,,,,,,,,,,,,,,,,209.07058400000096,210.2692092080033,211.0740811249998,211.06232066600205,,,,,,,,,,,,,,,,,,,,,,,,,,,,,,,,,,,211.06711262500176,211.0740811249998,211.0740811249998,211.56994937499985,b,1.0,0.4908809580010711,,,,,,sub-116,1,stroop_test,119.90665314973263,
,,,,41.0,5.0,3.0,,,,,,,,,,,,,gelb,yellow,g,1.0,g,1.0,0.4335815829981584,,,,,,,,,,3.0,5.0,41.0,10.0,211.58084975000384,,,,,,,,,,,,,,,,,211.57060975000056,211.67188162499951,212.47066308300415,212.46241066600487,,,,,,,,,,,,,,,,,,,,,,,,,,,,,,,,,,,212.46320441600253,212.47066308300415,212.47066308300415,212.9139732910044,g,1.0,0.4335815829981584,,,,,,sub-116,1,stroop_test,119.90665314973263,
,,,,42.0,6.0,3.0,,,,,,,,,,,,,blau,blue,b,1.0,b,1.0,0.4199984160004533,,,,,,,,,,3.0,6.0,42.0,5.0,212.92512241600343,,,,,,,,,,,,,,,,,212.91472491600143,214.1123548750038,214.90895500000624,214.8958334160052,,,,,,,,,,,,,,,,,,,,,,,,,,,,,,,,,,,214.9010905000032,214.90895500000624,214.90895500000624,215.34200370799957,b,1.0,0.4199984160004533,,,,,,sub-116,1,stroop_test,119.90665314973263,
,,,,43.0,7.0,3.0,,,,,,,,,,,,,rot,red,r,1.0,r,1.0,0.3953469570042216,,,,,,,,,,3.0,7.0,43.0,0.0,215.34668895800127,,,,,,,,,,,,,,,,,215.3424178330024,215.68675316600277,216.4910463330016,216.4791502500011,,,,,,,,,,,,,,,,,,,,,,,,,,,,,,,,,,,216.48328937500628,216.4910463330016,216.4910463330016,216.8969505830028,r,1.0,0.3953469570042216,,,,,,sub-116,1,stroop_test,119.90665314973263,
,,,,44.0,8.0,3.0,,,,,,,,,,,,,gelb,yellow,g,1.0,g,1.0,0.4550079159962479,,,,,,,,,,3.0,8.0,44.0,11.0,216.9071682499998,,,,,,,,,,,,,,,,,216.89757600000303,217.6951919580024,218.49184037500527,218.4791827080044,,,,,,,,,,,,,,,,,,,,,,,,,,,,,,,,,,,218.48465512500115,218.49184037500527,218.49184037500527,218.95325941600456,g,1.0,0.4550079159962479,,,,,,sub-116,1,stroop_test,119.90665314973263,
,,,,45.0,9.0,3.0,,,,,,,,,,,,,gelb,red,r,0.0,r,1.0,0.5073472490039421,,,,,,,,,,3.0,9.0,45.0,8.0,218.9784988330066,,,,,,,,,,,,,,,,,218.95382862500264,219.05313512500288,219.85479000000487,219.8461580410003,,,,,,,,,,,,,,,,,,,,,,,,,,,,,,,,,,,219.8470730830013,219.85479000000487,219.85479000000487,220.36385575000168,r,1.0,0.5073472490039421,,,,,,sub-116,1,stroop_test,119.90665314973263,
,,,,46.0,10.0,3.0,,,,,,,,,,,,,blau,blue,b,1.0,b,1.0,0.4796040410001296,,,,,,,,,,3.0,10.0,46.0,6.0,220.37461875000008,,,,,,,,,,,,,,,,,220.3645960830036,220.46113733300444,221.2583133750013,221.24587670800247,,,,,,,,,,,,,,,,,,,,,,,,,,,,,,,,,,,221.25107045800544,221.2583133750013,221.2583133750013,221.74700570800636,b,1.0,0.4796040410001296,,,,,,sub-116,1,stroop_test,119.90665314973263,
,,,,47.0,11.0,3.0,,,,,,,,,,,,,blau,red,r,0.0,r,1.0,0.4583111659958376,,,,,,,,,,3.0,11.0,47.0,4.0,221.75743691600653,,,,,,,,,,,,,,,,,221.74764458300345,222.54560191600467,223.33772058300383,223.328992625,,,,,,,,,,,,,,,,,,,,,,,,,,,,,,,,,,,223.32996633300357,223.33772058300383,223.33772058300383,223.80297270800656,r,1.0,0.4583111659958376,,,,,,sub-116,1,stroop_test,119.90665314973263,
,,,,48.0,0.0,4.0,,,,,,,,,,,,,rot,red,r,1.0,r,1.0,0.4700938739988487,,,,,,,,,,4.0,0.0,48.0,0.0,223.81227537499944,,,,,,,,,,,,,,,,,223.8035971250065,223.9018260410012,224.698002875004,224.6854840830056,,,,,,,,,,,,,,,,,,,,,,,,,,,,,,,,,,,224.6903799580032,224.698002875004,224.698002875004,225.1803887910064,r,1.0,0.4700938739988487,,,,,,sub-116,1,stroop_test,119.90665314973263,
,,,,49.0,1.0,4.0,,,,,,,,,,,,,rot,blue,b,0.0,b,1.0,0.3528379989948007,,,,,,,,,,4.0,1.0,49.0,2.0,225.19061491600587,,,,,,,,,,,,,,,,,225.1810384160053,225.978527916006,226.7707042500042,226.7625110000008,,,,,,,,,,,,,,,,,,,,,,,,,,,,,,,,,,,226.76330104100637,226.7707042500042,226.7707042500042,227.1305624160013,b,1.0,0.3528379989948007,,,,,,sub-116,1,stroop_test,119.90665314973263,
,,,,50.0,2.0,4.0,,,,,,,,,,,,,gelb,blue,b,0.0,b,1.0,0.3914292910048971,,,,,,,,,,4.0,2.0,50.0,9.0,227.14054054100416,,,,,,,,,,,,,,,,,227.13120241599967,228.32848400000512,229.12430337499973,229.11250370800556,,,,,,,,,,,,,,,,,,,,,,,,,,,,,,,,,,,229.1170035410032,229.12430337499973,229.12430337499973,229.5201905830036,b,1.0,0.3914292910048971,,,,,,sub-116,1,stroop_test,119.90665314973263,
,,,,51.0,3.0,4.0,,,,,,,,,,,,,gelb,yellow,g,1.0,g,1.0,0.3421691659968928,,,,,,,,,,4.0,3.0,51.0,10.0,229.53113908300293,,,,,,,,,,,,,,,,,229.52083400000265,230.31953295800488,231.1117989580016,231.1023024580063,,,,,,,,,,,,,,,,,,,,,,,,,,,,,,,,,,,231.1030863750057,231.1117989580016,231.1117989580016,231.4638011660063,g,1.0,0.3421691659968928,,,,,,sub-116,1,stroop_test,119.90665314973263,
,,,,52.0,4.0,4.0,,,,,,,,,,,,,gelb,yellow,g,1.0,g,1.0,0.4167956660021445,,,,,,,,,,4.0,4.0,52.0,11.0,231.47399700000096,,,,,,,,,,,,,,,,,231.46446679100336,231.8122865410041,232.6044393750053,232.5960008750044,,,,,,,,,,,,,,,,,,,,,,,,,,,,,,,,,,,232.59678750000603,232.6044393750053,232.6044393750053,233.0304532500013,g,1.0,0.4167956660021445,,,,,,sub-116,1,stroop_test,119.90665314973263,
,,,,53.0,5.0,4.0,,,,,,,,,,,,,blau,red,r,0.0,r,1.0,0.6703647070025909,,,,,,,,,,4.0,5.0,53.0,4.0,233.0397424160037,,,,,,,,,,,,,,,,,233.03120554100315,233.8289821660001,234.6246105410028,234.6126996660023,,,,,,,,,,,,,,,,,,,,,,,,,,,,,,,,,,,234.61703904100432,234.6246105410028,234.6246105410028,235.29709654100589,r,1.0,0.6703647070025909,,,,,,sub-116,1,stroop_test,119.90665314973263,
,,,,54.0,6.0,4.0,,,,,,,,,,,,,blau,blue,b,1.0,b,1.0,0.4853627080010483,,,,,,,,,,4.0,6.0,54.0,5.0,235.30741200000196,,,,,,,,,,,,,,,,,235.2977687080056,235.39528875000545,236.1875930830065,236.17937441600225,,,,,,,,,,,,,,,,,,,,,,,,,,,,,,,,,,,236.18016383299985,236.1875930830065,236.1875930830065,236.68095337500563,b,1.0,0.4853627080010483,,,,,,sub-116,1,stroop_test,119.90665314973263,
,,,,55.0,7.0,4.0,,,,,,,,,,,,,rot,yellow,g,0.0,r,0.0,0.5647078330002842,,,,,,,,,,4.0,7.0,55.0,3.0,236.6919482910016,,,,,,,,,,,,,,,,,236.6817249160013,236.7787754160017,237.5756325830007,237.5627245409996,,,,,,,,,,,,,,,,,,,,,,,,,,,,,,,,,,,237.5682925000001,237.5756325830007,237.5756325830007,238.14696354100303,r,0.0,0.5647078330002842,,,,,,sub-116,1,stroop_test,119.90665314973263,
,,,,56.0,8.0,4.0,,,,,,,,,,,,,blau,yellow,g,0.0,g,1.0,0.4415839569992386,,,,,,,,,,4.0,8.0,56.0,7.0,238.1579820410043,,,,,,,,,,,,,,,,,238.14760950000343,238.94582166600597,239.7410735000012,239.729439958006,,,,,,,,,,,,,,,,,,,,,,,,,,,,,,,,,,,239.7338590830041,239.7410735000012,239.7410735000012,240.18648908300383,g,1.0,0.4415839569992386,,,,,,sub-116,1,stroop_test,119.90665314973263,
,,,,57.0,9.0,4.0,,,,,,,,,,,,,rot,red,r,1.0,r,1.0,0.5016467069945065,,,,,,,,,,4.0,9.0,57.0,1.0,240.1952263750063,,,,,,,,,,,,,,,,,240.18703174999973,241.3863823749998,242.1918873329996,242.17945079100173,,,,,,,,,,,,,,,,,,,,,,,,,,,,,,,,,,,242.18442470800076,242.1918873329996,242.1918873329996,242.69729604100576,r,1.0,0.5016467069945065,,,,,,sub-116,1,stroop_test,119.90665314973263,
,,,,58.0,10.0,4.0,,,,,,,,,,,,,blau,blue,b,1.0,b,1.0,0.43633645799855,,,,,,,,,,4.0,10.0,58.0,6.0,242.70811229100215,,,,,,,,,,,,,,,,,242.6979582080021,243.89579583300656,244.69142075000127,244.67951954100133,,,,,,,,,,,,,,,,,,,,,,,,,,,,,,,,,,,244.68382800000109,244.69142075000127,244.69142075000127,245.1306194999997,b,1.0,0.43633645799855,,,,,,sub-116,1,stroop_test,119.90665314973263,
,,,,59.0,11.0,4.0,,,,,,,,,,,,,gelb,red,r,0.0,r,1.0,0.5091981240038876,,,,,,,,,,4.0,11.0,59.0,8.0,245.14115104100347,,,,,,,,,,,,,,,,,245.13124929100013,245.9291620000004,246.7247943750044,246.71285408300173,,,,,,,,,,,,,,,,,,,,,,,,,,,,,,,,,,,246.71719641600063,246.7247943750044,246.7247943750044,247.2365654160021,r,1.0,0.5091981240038876,,,,,,sub-116,1,stroop_test,119.90665314973263,
,,,,60.0,0.0,5.0,,,,,,,,,,,,,gelb,red,r,0.0,r,1.0,0.4488052080050693,,,,,,,,,,5.0,0.0,60.0,8.0,247.24798808299963,,,,,,,,,,,,,,,,,247.2372092910009,248.03546895800537,248.828635583006,248.8190219160024,,,,,,,,,,,,,,,,,,,,,,,,,,,,,,,,,,,248.8198115830019,248.828635583006,248.828635583006,249.2807344160028,r,1.0,0.4488052080050693,,,,,,sub-116,1,stroop_test,119.90665314973263,
,,,,61.0,1.0,5.0,,,,,,,,,,,,,blau,yellow,g,0.0,g,1.0,0.3375377909978851,,,,,,,,,,5.0,1.0,61.0,7.0,249.2913911249998,,,,,,,,,,,,,,,,,249.28140133300624,250.0791626660066,250.87530054100355,250.86311166600356,,,,,,,,,,,,,,,,,,,,,,,,,,,,,,,,,,,250.8674859160019,250.87530054100355,250.87530054100355,251.2197120830024,g,1.0,0.3375377909978851,,,,,,sub-116,1,stroop_test,119.90665314973263,
,,,,62.0,2.0,5.0,,,,,,,,,,,,,rot,blue,b,0.0,b,1.0,0.7106061240046984,,,,,,,,,,5.0,2.0,62.0,2.0,251.2457466660053,,,,,,,,,,,,,,,,,251.22030245800124,252.01926712500423,252.8152531250016,252.80287004099955,,,,,,,,,,,,,,,,,,,,,,,,,,,,,,,,,,,252.80773008300457,252.8152531250016,252.8152531250016,253.5308233329997,b,1.0,0.7106061240046984,,,,,,sub-116,1,stroop_test,119.90665314973263,
,,,,63.0,3.0,5.0,,,,,,,,,,,,,blau,blue,b,1.0,b,1.0,0.5623814160062466,,,,,,,,,,5.0,3.0,63.0,6.0,253.5414235000062,,,,,,,,,,,,,,,,,253.5315739580037,253.62925754100436,254.42583250000465,254.41296379100092,,,,,,,,,,,,,,,,,,,,,,,,,,,,,,,,,,,254.4187550830029,254.42583250000465,254.42583250000465,254.99743062500056,b,1.0,0.5623814160062466,,,,,,sub-116,1,stroop_test,119.90665314973263,
,,,,64.0,4.0,5.0,,,,,,,,,,,,,rot,red,r,1.0,g,0.0,0.4213681659966823,,,,,,,,,,5.0,4.0,64.0,0.0,255.00833125000645,,,,,,,,,,,,,,,,,254.99808091600423,255.0960240830027,255.8920588750043,255.8796338329994,,,,,,,,,,,,,,,,,,,,,,,,,,,,,,,,,,,255.88453441599995,255.8920588750043,255.8920588750043,256.3205667910006,g,0.0,0.4213681659966823,,,,,,sub-116,1,stroop_test,119.90665314973263,
,,,,65.0,5.0,5.0,,,,,,,,,,,,,gelb,yellow,g,1.0,g,1.0,0.6264524579964927,,,,,,,,,,5.0,5.0,65.0,11.0,256.33095895800216,,,,,,,,,,,,,,,,,256.3211956250016,256.41900491600245,257.21434070800024,257.2023682910003,,,,,,,,,,,,,,,,,,,,,,,,,,,,,,,,,,,257.2072409579996,257.21434070800024,257.21434070800024,257.8471702500028,g,1.0,0.6264524579964927,,,,,,sub-116,1,stroop_test,119.90665314973263,
,,,,66.0,6.0,5.0,,,,,,,,,,,,,blau,blue,b,1.0,b,1.0,0.4528040410004905,,,,,,,,,,5.0,6.0,66.0,5.0,257.8567677910032,,,,,,,,,,,,,,,,,257.8478215409996,259.04579041600664,259.84245000000374,259.8297573750024,,,,,,,,,,,,,,,,,,,,,,,,,,,,,,,,,,,259.83510079100233,259.84245000000374,259.84245000000374,260.2974902500064,b,1.0,0.4528040410004905,,,,,,sub-116,1,stroop_test,119.90665314973263,
,,,,67.0,7.0,5.0,,,,,,,,,,,,,rot,red,r,1.0,r,1.0,0.5050914989988087,,,,,,,,,,5.0,7.0,67.0,1.0,260.30769158300245,,,,,,,,,,,,,,,,,260.2981344159998,260.3953682080028,261.191611166003,261.17972312500206,,,,,,,,,,,,,,,,,,,,,,,,,,,,,,,,,,,261.1841351660041,261.191611166003,261.191611166003,261.7037054579996,r,1.0,0.5050914989988087,,,,,,sub-116,1,stroop_test,119.90665314973263,
,,,,68.0,8.0,5.0,,,,,,,,,,,,,gelb,yellow,g,1.0,g,1.0,0.5367724579991773,,,,,,,,,,5.0,8.0,68.0,10.0,261.7147350000014,,,,,,,,,,,,,,,,,261.7043132079998,261.803169208004,262.60855245800485,262.59637812500296,,,,,,,,,,,,,,,,,,,,,,,,,,,,,,,,,,,262.6008242080061,262.60855245800485,262.60855245800485,263.1475687080019,g,1.0,0.5367724579991773,,,,,,sub-116,1,stroop_test,119.90665314973263,
,,,,69.0,9.0,5.0,,,,,,,,,,,,,rot,yellow,g,0.0,g,1.0,0.8659887489993707,,,,,,,,,,5.0,9.0,69.0,3.0,263.1577676250017,,,,,,,,,,,,,,,,,263.1482191660034,263.2459609580037,264.0429944999996,264.0298065410025,,,,,,,,,,,,,,,,,,,,,,,,,,,,,,,,,,,264.0349360410037,264.0429944999996,264.0429944999996,264.9144265409996,g,1.0,0.8659887489993707,,,,,,sub-116,1,stroop_test,119.90665314973263,
,,,,70.0,10.0,5.0,,,,,,,,,,,,,gelb,blue,b,0.0,b,1.0,0.6645953740007826,,,,,,,,,,5.0,10.0,70.0,9.0,264.9251815000025,,,,,,,,,,,,,,,,,264.9151835830053,265.0290353750024,265.8260240410018,265.8130492910059,,,,,,,,,,,,,,,,,,,,,,,,,,,,,,,,,,,265.81906962500216,265.8260240410018,265.8260240410018,266.49775158300326,b,1.0,0.6645953740007826,,,,,,sub-116,1,stroop_test,119.90665314973263,
,,,,71.0,11.0,5.0,,,,,,,,,,,,,blau,red,r,0.0,r,1.0,0.5961359989960329,,,,,,,,,,5.0,11.0,71.0,4.0,266.5085149580045,,,,,,,,,,,,,,,,,266.4983751250038,266.8457693750024,267.6423861660005,267.6298402500033,,,,,,,,,,,,,,,,,,,,,,,,,,,,,,,,,,,267.6346699160058,267.6423861660005,267.6423861660005,268.24807729100576,r,1.0,0.5961359989960329,,,,,,sub-116,1,stroop_test,119.90665314973263,
,,,,72.0,0.0,6.0,,,,,,,,,,,,,blau,blue,b,1.0,b,1.0,0.4609263739985181,,,,,,,,,,6.0,0.0,72.0,5.0,268.25933883300604,,,,,,,,,,,,,,,,,268.2488534160002,269.0458004579996,269.8379795410001,269.829756541003,,,,,,,,,,,,,,,,,,,,,,,,,,,,,,,,,,,269.83054654100124,269.8379795410001,269.8379795410001,270.3038360000064,b,1.0,0.4609263739985181,,,,,,sub-116,1,stroop_test,119.90665314973263,
,,,,73.0,1.0,6.0,,,,,,,,,,,,,blau,yellow,g,0.0,g,1.0,0.5986235829986981,,,,,,,,,,6.0,1.0,73.0,7.0,270.3293356659997,,,,,,,,,,,,,,,,,270.30456387500453,271.1034900410013,271.90543945800164,271.8964975830022,,,,,,,,,,,,,,,,,,,,,,,,,,,,,,,,,,,271.8974130410061,271.90543945800164,271.90543945800164,272.5144367910034,g,1.0,0.5986235829986981,,,,,,sub-116,1,stroop_test,119.90665314973263,
,,,,74.0,2.0,6.0,,,,,,,,,,,,,gelb,red,r,0.0,r,1.0,0.5334795000017039,,,,,,,,,,6.0,2.0,74.0,8.0,272.52497500000027,,,,,,,,,,,,,,,,,272.515069208006,272.86288633300137,273.65942783300125,273.64659687500534,,,,,,,,,,,,,,,,,,,,,,,,,,,,,,,,,,,273.651724125004,273.65942783300125,273.65942783300125,274.1976475830015,r,1.0,0.5334795000017039,,,,,,sub-116,1,stroop_test,119.90665314973263,
,,,,75.0,3.0,6.0,,,,,,,,,,,,,gelb,blue,b,0.0,b,1.0,0.4001896240006317,,,,,,,,,,6.0,3.0,75.0,9.0,274.2085777080065,,,,,,,,,,,,,,,,,274.1983284580056,275.39581991600426,276.1881036660052,276.1798685410031,,,,,,,,,,,,,,,,,,,,,,,,,,,,,,,,,,,276.1806392080034,276.1881036660052,276.1881036660052,276.5977522910034,b,1.0,0.4001896240006317,,,,,,sub-116,1,stroop_test,119.90665314973263,
,,,,76.0,4.0,6.0,,,,,,,,,,,,,rot,yellow,g,0.0,g,1.0,0.6350695410001208,,,,,,,,,,6.0,4.0,76.0,3.0,276.6073172079996,,,,,,,,,,,,,,,,,276.59842216600373,276.9462280830048,277.7423159160025,277.72985999999946,,,,,,,,,,,,,,,,,,,,,,,,,,,,,,,,,,,277.73467691599944,277.7423159160025,277.7423159160025,278.38107808300265,g,1.0,0.6350695410001208,,,,,,sub-116,1,stroop_test,119.90665314973263,
,,,,77.0,5.0,6.0,,,,,,,,,,,,,gelb,yellow,g,1.0,g,1.0,0.3960956240043742,,,,,,,,,,6.0,5.0,77.0,10.0,278.3918284579995,,,,,,,,,,,,,,,,,278.38171562500065,279.17957025000214,279.97519545800606,279.96330129100534,,,,,,,,,,,,,,,,,,,,,,,,,,,,,,,,,,,279.9678186250021,279.97519545800606,279.97519545800606,280.3814770829995,g,1.0,0.3960956240043742,,,,,,sub-116,1,stroop_test,119.90665314973263,
,,,,78.0,6.0,6.0,,,,,,,,,,,,,rot,blue,b,0.0,b,1.0,0.6433464159999858,,,,,,,,,,6.0,6.0,78.0,2.0,280.3927735410034,,,,,,,,,,,,,,,,,280.38219354100147,281.1791086660014,281.97526041600213,281.9632259160062,,,,,,,,,,,,,,,,,,,,,,,,,,,,,,,,,,,281.9680838330023,281.97526041600213,281.97526041600213,282.6310989580016,b,1.0,0.6433464159999858,,,,,,sub-116,1,stroop_test,119.90665314973263,
,,,,79.0,7.0,6.0,,,,,,,,,,,,,blau,blue,b,1.0,b,1.0,0.3833616659976542,,,,,,,,,,6.0,7.0,79.0,6.0,282.6416205830028,,,,,,,,,,,,,,,,,282.63176275000296,283.42986683300114,284.22746033300064,284.21339937500306,,,,,,,,,,,,,,,,,,,,,,,,,,,,,,,,,,,284.2203195000038,284.22746033300064,284.22746033300064,284.61472687500645,b,1.0,0.3833616659976542,,,,,,sub-116,1,stroop_test,119.90665314973263,
,,,,80.0,8.0,6.0,,,,,,,,,,,,,rot,red,r,1.0,r,1.0,0.4628029159939615,,,,,,,,,,6.0,8.0,80.0,0.0,284.6262832499997,,,,,,,,,,,,,,,,,284.6155139160037,285.8126815830037,286.6095415830059,286.59675679100474,,,,,,,,,,,,,,,,,,,,,,,,,,,,,,,,,,,286.6019282910056,286.6095415830059,286.6095415830059,287.0813183749997,r,1.0,0.4628029159939615,,,,,,sub-116,1,stroop_test,119.90665314973263,
,,,,81.0,9.0,6.0,,,,,,,,,,,,,rot,red,r,1.0,r,1.0,0.4148764989949995,,,,,,,,,,6.0,9.0,81.0,1.0,287.0919800000047,,,,,,,,,,,,,,,,,287.0819389580065,287.1795660410062,287.9720162080048,287.9634085830039,,,,,,,,,,,,,,,,,,,,,,,,,,,,,,,,,,,287.964353166004,287.9720162080048,287.9720162080048,288.397819333004,r,1.0,0.4148764989949995,,,,,,sub-116,1,stroop_test,119.90665314973263,
,,,,82.0,10.0,6.0,,,,,,,,,,,,,gelb,yellow,g,1.0,g,1.0,0.4038790409977082,,,,,,,,,,6.0,10.0,82.0,11.0,288.4082016250032,,,,,,,,,,,,,,,,,288.3984584160062,288.4966487080019,289.2922458750036,289.280114291003,,,,,,,,,,,,,,,,,,,,,,,,,,,,,,,,,,,289.28451633300574,289.2922458750036,289.2922458750036,289.6978024580021,g,1.0,0.4038790409977082,,,,,,sub-116,1,stroop_test,119.90665314973263,
,,,,83.0,11.0,6.0,,,,,,,,,,,,,blau,red,r,0.0,r,1.0,0.5369002070001443,,,,,,,,,,6.0,11.0,83.0,4.0,289.7080509160005,,,,,,,,,,,,,,,,,289.6984501660045,290.4963784580032,291.29259520800406,291.280072708003,,,,,,,,,,,,,,,,,,,,,,,,,,,,,,,,,,,291.2851880410017,291.29259520800406,291.29259520800406,291.83112387500296,r,1.0,0.5369002070001443,,,,,,sub-116,1,stroop_test,119.90665314973263,
,,,,84.0,0.0,7.0,,,,,,,,,,,,,gelb,yellow,g,1.0,g,1.0,0.6277303739989293,,,,,,,,,,7.0,0.0,84.0,10.0,291.8416440000001,,,,,,,,,,,,,,,,,291.8317728330003,292.629274458006,293.42549300000246,293.41339258300286,,,,,,,,,,,,,,,,,,,,,,,,,,,,,,,,,,,293.4182908750008,293.42549300000246,293.42549300000246,294.0646753330002,g,1.0,0.6277303739989293,,,,,,sub-116,1,stroop_test,119.90665314973263,
,,,,85.0,1.0,7.0,,,,,,,,,,,,,gelb,blue,b,0.0,b,1.0,0.4199079579993849,,,,,,,,,,7.0,1.0,85.0,9.0,294.0742665409998,,,,,,,,,,,,,,,,,294.06531075000385,294.4127332910066,295.2056220000013,295.1967724999995,,,,,,,,,,,,,,,,,,,,,,,,,,,,,,,,,,,295.19769904100394,295.2056220000013,295.2056220000013,295.6313156250035,b,1.0,0.4199079579993849,,,,,,sub-116,1,stroop_test,119.90665314973263,
,,,,86.0,2.0,7.0,,,,,,,,,,,,,blau,blue,b,1.0,b,1.0,0.3739879159984411,,,,,,,,,,7.0,2.0,86.0,6.0,295.6410665000003,,,,,,,,,,,,,,,,,295.6319573330038,295.7299800000037,296.5258553750027,296.5135549580009,,,,,,,,,,,,,,,,,,,,,,,,,,,,,,,,,,,296.51865958300186,296.5258553750027,296.5258553750027,296.9038885830014,b,1.0,0.3739879159984411,,,,,,sub-116,1,stroop_test,119.90665314973263,
,,,,87.0,3.0,7.0,,,,,,,,,,,,,rot,yellow,g,0.0,g,1.0,0.4978624580035102,,,,,,,,,,7.0,3.0,87.0,3.0,296.9134884160012,,,,,,,,,,,,,,,,,296.9044471250017,297.7039338329996,298.5100133330052,298.4968263750052,,,,,,,,,,,,,,,,,,,,,,,,,,,,,,,,,,,298.50273066600494,298.5100133330052,298.5100133330052,299.0146359160062,g,1.0,0.4978624580035102,,,,,,sub-116,1,stroop_test,119.90665314973263,
,,,,88.0,4.0,7.0,,,,,,,,,,,,,rot,red,r,1.0,r,1.0,0.5802987909992225,,,,,,,,,,7.0,4.0,88.0,1.0,299.02534520799964,,,,,,,,,,,,,,,,,299.01528645800136,299.11304850000306,299.90524204100075,299.8968395830016,,,,,,,,,,,,,,,,,,,,,,,,,,,,,,,,,,,299.89762270800566,299.90524204100075,299.90524204100075,300.4980041250019,r,1.0,0.5802987909992225,,,,,,sub-116,1,stroop_test,119.90665314973263,
,,,,89.0,5.0,7.0,,,,,,,,,,,,,blau,yellow,g,0.0,g,1.0,0.4923196240051766,,,,,,,,,,7.0,5.0,89.0,7.0,300.5078682500025,,,,,,,,,,,,,,,,,300.4986510410017,300.5952902499994,301.39285166600166,301.3801811250014,,,,,,,,,,,,,,,,,,,,,,,,,,,,,,,,,,,301.3854304580018,301.39285166600166,301.39285166600166,301.886665500002,g,1.0,0.4923196240051766,,,,,,sub-116,1,stroop_test,119.90665314973263,
,,,,90.0,6.0,7.0,,,,,,,,,,,,,rot,red,r,1.0,r,1.0,0.4821427070055506,,,,,,,,,,7.0,6.0,90.0,0.0,301.8959711250063,,,,,,,,,,,,,,,,,301.8872127909999,303.0792831660001,303.87548054100625,303.8635539160023,,,,,,,,,,,,,,,,,,,,,,,,,,,,,,,,,,,303.8678337500023,303.87548054100625,303.87548054100625,304.3645190000025,r,1.0,0.4821427070055506,,,,,,sub-116,1,stroop_test,119.90665314973263,
,,,,91.0,7.0,7.0,,,,,,,,,,,,,gelb,red,r,0.0,r,1.0,0.4054869569954462,,,,,,,,,,7.0,7.0,91.0,8.0,304.3746582080057,,,,,,,,,,,,,,,,,304.3650779160016,305.563053458005,306.3590415409999,306.3468983750063,,,,,,,,,,,,,,,,,,,,,,,,,,,,,,,,,,,306.35128675000306,306.3590415409999,306.3590415409999,306.77066658300464,r,1.0,0.4054869569954462,,,,,,sub-116,1,stroop_test,119.90665314973263,
,,,,92.0,8.0,7.0,,,,,,,,,,,,,blau,blue,b,1.0,b,1.0,0.4100285410022479,,,,,,,,,,7.0,8.0,92.0,5.0,306.78006825000193,,,,,,,,,,,,,,,,,306.7712384580009,307.57069200000115,308.3758181660014,308.3636475000021,,,,,,,,,,,,,,,,,,,,,,,,,,,,,,,,,,,308.3686889580058,308.3758181660014,308.3758181660014,308.7874305830046,b,1.0,0.4100285410022479,,,,,,sub-116,1,stroop_test,119.90665314973263,
,,,,93.0,9.0,7.0,,,,,,,,,,,,,blau,red,r,0.0,r,1.0,0.5722235409994028,,,,,,,,,,7.0,9.0,93.0,4.0,308.79665633300465,,,,,,,,,,,,,,,,,308.7880507910013,309.9863881660058,310.77961091600446,310.76957504100574,,,,,,,,,,,,,,,,,,,,,,,,,,,,,,,,,,,310.7702259580037,310.77961091600446,310.77961091600446,311.354540750006,r,1.0,0.5722235409994028,,,,,,sub-116,1,stroop_test,119.90665314973263,
,,,,94.0,10.0,7.0,,,,,,,,,,,,,gelb,yellow,g,1.0,g,1.0,0.4844864160040742,,,,,,,,,,7.0,10.0,94.0,11.0,311.3648340830041,,,,,,,,,,,,,,,,,311.35524254100164,312.5537012910063,313.35944520799967,313.34695645800093,,,,,,,,,,,,,,,,,,,,,,,,,,,,,,,,,,,313.3518037080066,313.35944520799967,313.35944520799967,313.8484817500066,g,1.0,0.4844864160040742,,,,,,sub-116,1,stroop_test,119.90665314973263,
,,,,95.0,11.0,7.0,,,,,,,,,,,,,rot,blue,b,0.0,b,1.0,0.4347950819937978,,,,,,,,,,7.0,11.0,95.0,2.0,313.85940925000614,,,,,,,,,,,,,,,,,313.84925099999964,315.04671091600176,315.8435427500008,315.8303295000005,,,,,,,,,,,,,,,,,,,,,,,,,,,,,,,,,,,315.8361275000061,315.8435427500008,315.8435427500008,316.28175758300495,b,1.0,0.4347950819937978,,,,,,sub-116,1,stroop_test,119.90665314973263,
,,,,96.0,0.0,8.0,,,,,,,,,,,,,blau,yellow,g,0.0,g,1.0,0.5880278739932692,,,,,,,,,,8.0,0.0,96.0,7.0,316.29227812500176,,,,,,,,,,,,,,,,,316.2824944580061,316.38008545800403,317.1763964580023,317.1638175830012,,,,,,,,,,,,,,,,,,,,,,,,,,,,,,,,,,,317.16863416600245,317.1763964580023,317.1763964580023,317.77141695799946,g,1.0,0.5880278739932692,,,,,,sub-116,1,stroop_test,119.90665314973263,
,,,,97.0,1.0,8.0,,,,,,,,,,,,,blau,blue,b,1.0,b,1.0,0.4818806659968686,,,,,,,,,,8.0,1.0,97.0,5.0,317.7965648330064,,,,,,,,,,,,,,,,,317.77210025000386,318.5707497500043,319.3719526660061,319.3637396660052,,,,,,,,,,,,,,,,,,,,,,,,,,,,,,,,,,,319.36453554100444,319.3719526660061,319.3719526660061,319.8650979160011,b,1.0,0.4818806659968686,,,,,,sub-116,1,stroop_test,119.90665314973263,
,,,,98.0,2.0,8.0,,,,,,,,,,,,,rot,yellow,g,0.0,g,1.0,0.5690101239961223,,,,,,,,,,8.0,2.0,98.0,3.0,319.8758988750051,,,,,,,,,,,,,,,,,319.8657279580002,319.96338200000173,320.75952925000456,320.7471244160042,,,,,,,,,,,,,,,,,,,,,,,,,,,,,,,,,,,320.7518601660049,320.75952925000456,320.75952925000456,321.3318276250065,g,1.0,0.5690101239961223,,,,,,sub-116,1,stroop_test,119.90665314973263,
,,,,99.0,3.0,8.0,,,,,,,,,,,,,rot,red,r,1.0,r,1.0,0.3568098739997367,,,,,,,,,,8.0,3.0,99.0,1.0,321.34251670800586,,,,,,,,,,,,,,,,,321.3326123750012,321.6797487500007,322.47205158300494,322.463872750006,,,,,,,,,,,,,,,,,,,,,,,,,,,,,,,,,,,322.4646595830054,322.47205158300494,322.47205158300494,322.83213600000454,r,1.0,0.3568098739997367,,,,,,sub-116,1,stroop_test,119.90665314973263,
,,,,100.0,4.0,8.0,,,,,,,,,,,,,gelb,red,r,0.0,r,1.0,0.4686229990038555,,,,,,,,,,8.0,4.0,100.0,8.0,322.8425581660049,,,,,,,,,,,,,,,,,322.8329066250008,322.93008858300163,323.72680125000625,323.7139237080046,,,,,,,,,,,,,,,,,,,,,,,,,,,,,,,,,,,323.7192979160027,323.72680125000625,323.72680125000625,324.1983360830054,r,1.0,0.4686229990038555,,,,,,sub-116,1,stroop_test,119.90665314973263,
,,,,101.0,5.0,8.0,,,,,,,,,,,,,rot,blue,b,0.0,b,1.0,0.4831263750020298,,,,,,,,,,8.0,5.0,101.0,2.0,324.2084337910055,,,,,,,,,,,,,,,,,324.19898233300046,324.29705737500626,325.0926948330016,325.0805053330041,,,,,,,,,,,,,,,,,,,,,,,,,,,,,,,,,,,325.0848479580018,325.0926948330016,325.0926948330016,325.5816359580058,b,1.0,0.4831263750020298,,,,,,sub-116,1,stroop_test,119.90665314973263,
,,,,102.0,6.0,8.0,,,,,,,,,,,,,blau,blue,b,1.0,b,1.0,0.4030480820001685,,,,,,,,,,8.0,6.0,102.0,6.0,325.59255304100225,,,,,,,,,,,,,,,,,325.5822594580022,326.3801811660014,327.1769014580059,327.1638755000022,,,,,,,,,,,,,,,,,,,,,,,,,,,,,,,,,,,327.1691686250051,327.1769014580059,327.1769014580059,327.58158741600346,b,1.0,0.4030480820001685,,,,,,sub-116,1,stroop_test,119.90665314973263,
,,,,103.0,7.0,8.0,,,,,,,,,,,,,rot,red,r,1.0,r,1.0,0.5037622489981004,,,,,,,,,,8.0,7.0,103.0,0.0,327.591444083002,,,,,,,,,,,,,,,,,327.58222220800235,328.7800217080003,329.576983166,329.5638804580012,,,,,,,,,,,,,,,,,,,,,,,,,,,,,,,,,,,329.569471791001,329.576983166,329.576983166,330.0879718750002,r,1.0,0.5037622489981004,,,,,,sub-116,1,stroop_test,119.90665314973263,
,,,,104.0,8.0,8.0,,,,,,,,,,,,,blau,red,r,0.0,r,1.0,0.605763957995805,,,,,,,,,,8.0,8.0,104.0,4.0,330.0990844160042,,,,,,,,,,,,,,,,,330.08862245800265,331.2867040000056,332.0965824160012,332.069408166004,,,,,,,,,,,,,,,,,,,,,,,,,,,,,,,,,,,332.07376262500475,332.0965824160012,332.0965824160012,332.7039888330037,r,1.0,0.605763957995805,,,,,,sub-116,1,stroop_test,119.90665314973263,
,,,,105.0,9.0,8.0,,,,,,,,,,,,,gelb,yellow,g,1.0,g,1.0,0.4917607070019585,,,,,,,,,,8.0,9.0,105.0,11.0,332.7135263750024,,,,,,,,,,,,,,,,,332.70454120800423,332.8039448330019,333.599384125002,333.587149125,,,,,,,,,,,,,,,,,,,,,,,,,,,,,,,,,,,333.59234333300265,333.599384125002,333.599384125002,334.09830687500653,g,1.0,0.4917607070019585,,,,,,sub-116,1,stroop_test,119.90665314973263,
,,,,106.0,10.0,8.0,,,,,,,,,,,,,gelb,blue,b,0.0,b,1.0,0.3100222490029409,,,,,,,,,,8.0,10.0,106.0,9.0,334.10924570800125,,,,,,,,,,,,,,,,,334.0990849580048,334.4465669160054,335.2395372910032,335.2306964580057,,,,,,,,,,,,,,,,,,,,,,,,,,,,,,,,,,,335.23162183300155,335.2395372910032,335.2395372910032,335.5539346660007,b,1.0,0.3100222490029409,,,,,,sub-116,1,stroop_test,119.90665314973263,
,,,,107.0,11.0,8.0,,,,,,,,,,,,,gelb,yellow,g,1.0,g,1.0,0.3795812079988536,,,,,,,,,,8.0,11.0,107.0,10.0,335.5629485410027,,,,,,,,,,,,,,,,,335.5544443750041,335.6576678750061,336.45555404100014,336.4472949580013,,,,,,,,,,,,,,,,,,,,,,,,,,,,,,,,,,,336.4480824160055,336.45555404100014,336.45555404100014,336.8379515410052,g,1.0,0.3795812079988536,,,,,,sub-116,1,stroop_test,119.90665314973263,
,,,,108.0,0.0,9.0,,,,,,,,,,,,,rot,red,r,1.0,r,1.0,0.3526274990072124,,,,,,,,,,9.0,0.0,108.0,1.0,336.8468089580056,,,,,,,,,,,,,,,,,336.8385138750018,336.93618224999955,337.732290208005,337.7202860410034,,,,,,,,,,,,,,,,,,,,,,,,,,,,,,,,,,,337.7250134160058,337.732290208005,337.732290208005,338.0876229580026,r,1.0,0.3526274990072124,,,,,,sub-116,1,stroop_test,119.90665314973263,
,,,,109.0,1.0,9.0,,,,,,,,,,,,,gelb,yellow,g,1.0,g,1.0,0.3272778750033467,,,,,,,,,,9.0,1.0,109.0,10.0,338.1133246660029,,,,,,,,,,,,,,,,,338.0882967080033,338.18776445800177,338.9928645830005,338.98070566600654,,,,,,,,,,,,,,,,,,,,,,,,,,,,,,,,,,,338.9857988330041,338.9928645830005,338.9928645830005,339.3317490000045,g,1.0,0.3272778750033467,,,,,,sub-116,1,stroop_test,119.90665314973263,
,,,,110.0,2.0,9.0,,,,,,,,,,,,,rot,blue,b,0.0,b,1.0,0.3607889569975668,,,,,,,,,,9.0,2.0,110.0,2.0,339.34206908300257,,,,,,,,,,,,,,,,,339.3324070410017,340.1299680410011,340.92609095800435,340.9140546250055,,,,,,,,,,,,,,,,,,,,,,,,,,,,,,,,,,,340.91834625000047,340.92609095800435,340.92609095800435,341.29851412500284,b,1.0,0.3607889569975668,,,,,,sub-116,1,stroop_test,119.90665314973263,
,,,,111.0,3.0,9.0,,,,,,,,,,,,,blau,blue,b,1.0,b,1.0,0.4504322080028942,,,,,,,,,,9.0,3.0,111.0,5.0,341.30871200000547,,,,,,,,,,,,,,,,,341.2991364160044,342.09705887500604,342.89480045800155,342.88075445800496,,,,,,,,,,,,,,,,,,,,,,,,,,,,,,,,,,,342.88751108300494,342.89480045800155,342.89480045800155,343.34884375000547,b,1.0,0.4504322080028942,,,,,,sub-116,1,stroop_test,119.90665314973263,
,,,,112.0,4.0,9.0,,,,,,,,,,,,,rot,yellow,g,0.0,r,0.0,0.5231854989979183,,,,,,,,,,9.0,4.0,112.0,3.0,343.36079350000364,,,,,,,,,,,,,,,,,343.34963679100474,343.4470563750001,344.2430690830006,344.230773041003,,,,,,,,,,,,,,,,,,,,,,,,,,,,,,,,,,,344.2351067500058,344.2430690830006,344.2430690830006,344.7715585410042,r,0.0,0.5231854989979183,,,,,,sub-116,1,stroop_test,119.90665314973263,
,,,,113.0,5.0,9.0,,,,,,,,,,,,,blau,red,r,0.0,r,1.0,0.628112416001386,,,,,,,,,,9.0,5.0,113.0,4.0,344.7823942910036,,,,,,,,,,,,,,,,,344.7721137500048,345.1212077500022,345.92599045800307,345.9141077500026,,,,,,,,,,,,,,,,,,,,,,,,,,,,,,,,,,,345.9185769579999,345.92599045800307,345.92599045800307,346.56504191600106,r,1.0,0.628112416001386,,,,,,sub-116,1,stroop_test,119.90665314973263,
,,,,114.0,6.0,9.0,,,,,,,,,,,,,blau,yellow,g,0.0,g,1.0,0.4862312910045148,,,,,,,,,,9.0,6.0,114.0,7.0,346.57513529100106,,,,,,,,,,,,,,,,,346.56561420800426,347.7634799580046,348.55594358300004,348.5474794160036,,,,,,,,,,,,,,,,,,,,,,,,,,,,,,,,,,,348.54826825000055,348.55594358300004,348.55594358300004,349.048493125003,g,1.0,0.4862312910045148,,,,,,sub-116,1,stroop_test,119.90665314973263,
,,,,115.0,7.0,9.0,,,,,,,,,,,,,blau,blue,b,1.0,b,1.0,0.4602181250011199,,,,,,,,,,9.0,7.0,115.0,6.0,349.05687908300024,,,,,,,,,,,,,,,,,349.0489102080028,349.14707470800204,349.93972891600424,349.93086262500583,,,,,,,,,,,,,,,,,,,,,,,,,,,,,,,,,,,349.9318016250036,349.93972891600424,349.93972891600424,350.4047937080031,b,1.0,0.4602181250011199,,,,,,sub-116,1,stroop_test,119.90665314973263,
,,,,116.0,8.0,9.0,,,,,,,,,,,,,gelb,red,r,0.0,r,1.0,0.8202512079951703,,,,,,,,,,9.0,8.0,116.0,8.0,350.41421862500283,,,,,,,,,,,,,,,,,350.4054415000064,351.2046519580035,352.0102236660023,351.997645375006,,,,,,,,,,,,,,,,,,,,,,,,,,,,,,,,,,,352.00252758300485,352.0102236660023,352.0102236660023,352.8318384580052,r,1.0,0.8202512079951703,,,,,,sub-116,1,stroop_test,119.90665314973263,
,,,,117.0,9.0,9.0,,,,,,,,,,,,,gelb,blue,b,0.0,b,1.0,0.690837873997225,,,,,,,,,,9.0,9.0,117.0,9.0,352.8418722500064,,,,,,,,,,,,,,,,,352.832474750001,353.6305092910043,354.4224420829996,354.4141755000019,,,,,,,,,,,,,,,,,,,,,,,,,,,,,,,,,,,354.4149283750012,354.4224420829996,354.4224420829996,355.11554995800543,b,1.0,0.690837873997225,,,,,,sub-116,1,stroop_test,119.90665314973263,
,,,,118.0,10.0,9.0,,,,,,,,,,,,,gelb,yellow,g,1.0,g,1.0,0.4150621239969041,,,,,,,,,,9.0,10.0,118.0,11.0,355.1260199160024,,,,,,,,,,,,,,,,,355.11635695800214,355.9138467910016,356.705772541005,356.69755870800145,,,,,,,,,,,,,,,,,,,,,,,,,,,,,,,,,,,356.6983617080041,356.705772541005,356.705772541005,357.1317535410053,g,1.0,0.4150621239969041,,,,,,sub-116,1,stroop_test,119.90665314973263,
,,,,119.0,11.0,9.0,,,,,,,,,,,,,rot,red,r,1.0,r,1.0,0.5507394570013275,,,,,,,,,,9.0,11.0,119.0,0.0,357.1408631250015,,,,,,,,,,,,,,,,,357.1323924160024,357.4803390830057,358.2766036250032,358.2642953329996,,,,,,,,,,,,,,,,,,,,,,,,,,,,,,,,,,,358.26881150000554,358.2766036250032,358.2766036250032,358.8319569160012,r,1.0,0.5507394570013275,,,,,,sub-116,1,stroop_test,119.90665314973263,
,,,,,,,,,,,,,,,,,,,,,,,,,,,,,,,,,,,,,,,,,,,,,,,,,,,,,,,,,,,,,,,,,,,,,,,,,,,,,,,,,,,,,,,,,,,,,,,,,,,,,,358.8322942500017,358.8437813750061,363.8362722080056,363.83126170800097,sub-116,1,stroop_test,119.90665314973263,
