wordCTK,colorCTK,corrAnsCTK,congruentCTK,thisN,thisTrialN,thisRepN,keyResp_CTK.keys,keyResp_CTK.corr,keyResp_CTK.rt,keyResp_CTK.duration,wordPractice,colorPractice,corrAnsPractice,congruentPractice,respPractice.keys,respPractice.corr,respPractice.rt,respPractice.duration,word,color,corrAns,congruent,keyResp_test_run.keys,keyResp_test_run.corr,keyResp_test_run.rt,keyResp_test_run.duration,trials_CTK.thisRepN,trials_CTK.thisTrialN,trials_CTK.thisN,trials_CTK.thisIndex,trials_practice.thisRepN,trials_practice.thisTrialN,trials_practice.thisN,trials_practice.thisIndex,trials_test.thisRepN,trials_test.thisTrialN,trials_test.thisN,trials_test.thisIndex,thisRow.t,notes,instruction.started,instr_text.started,instr_image.started,instr_resp.started,instruction.stopped,instr_resp.keys,instr_resp.rt,instr_resp.duration,instr_color_to_key.started,instr_ctk.started,resp_ctk.started,instr_color_to_key.stopped,resp_ctk.keys,resp_ctk.rt,resp_ctk.duration,ITI.started,fixcross.started,fixcross.stopped,ITI.stopped,color_to_key_run.started,stimulus_CTK.started,keyResp_CTK.started,color_to_key_run.stopped,trials_CTK.keyResp_CTK.keys,trials_CTK.keyResp_CTK.corr,trials_CTK.keyResp_CTK.rt,trials_CTK.keyResp_CTK.duration,instr_practice.started,instr_practice_text.started,instr_practice_resp.started,instr_practice.stopped,instr_practice_resp.keys,instr_practice_resp.rt,instr_practice_resp.duration,practice_run.started,stimulus_practice.started,respPractice.started,practice_run.stopped,trials_practice.respPractice.keys,trials_practice.respPractice.corr,trials_practice.respPractice.rt,trials_practice.respPractice.duration,feedback.started,textFeedback.started,feedback.stopped,textFeedback.stopped,instr_test.started,instr_test_text.started,instr_test_resp.started,instr_test.stopped,instr_test_resp.keys,instr_test_resp.rt,instr_test_resp.duration,test_run.started,stimulus_test_run.started,keyResp_test_run.started,test_run.stopped,trials_test.keyResp_test_run.keys,trials_test.keyResp_test_run.corr,trials_test.keyResp_test_run.rt,trials_test.keyResp_test_run.duration,goodbye.started,textGoodbye.started,textGoodbye.stopped,goodbye.stopped,participant,session,expName,frameRate,Unnamed: 113
,,,,,,,,,,,,,,,,,,,,,,,,,,,,,,,,,,,,,,,,,0.0327592920511961,0.0517484999727457,0.0517484999727457,0.0517484999727457,38.81982979201712,space,38.58157637401018,,,,,,,,,,,,,,,,,,,,,,,,,,,,,,,,,,,,,,,,,,,,,,,,,,,,,,,,,,,sub-112,1,stroop_test,,
,,,,,,,,,,,,,,,,,,,,,,,,,,,,,,,,,,,,,,,,,,,,,,,,,38.81993179197889,38.83910762507003,38.83910762507003,46.56874812499154,space,7.719454915961251,,,,,,,,,,,,,,,,,,,,,,,,,,,,,,,,,,,,,,,,,,,,,,,,,,,,sub-112,1,stroop_test,,
test,yellow,g,1.0,0.0,0.0,0.0,g,1.0,1.1803650410147384,,,,,,,,,,,,,,,,,,0.0,0.0,0.0,1.0,,,,,,,,,46.63748316699639,,,,,,,,,,,,,,,,,46.61850708303973,47.37135458306875,48.17597620806191,48.15612895798404,48.16881508298684,48.17597620806191,48.17597620806191,49.36769145797007,g,1.0,1.1803650410147384,,,,,,,,,,,,,,,,,,,,,,,,,,,,,,,,,,,,,,,,sub-112,1,stroop_test,,
test,red,r,1.0,1.0,1.0,0.0,r,1.0,1.0301405410282314,,,,,,,,,,,,,,,,,,0.0,1.0,1.0,0.0,,,,,,,,,49.37932983296923,,,,,,,,,,,,,,,,,49.36888220801484,50.16489866701886,50.959100708016194,50.95188079203945,50.953832375002094,50.959100708016194,50.959100708016194,51.99997370806523,r,1.0,1.0301405410282314,,,,,,,,,,,,,,,,,,,,,,,,,,,,,,,,,,,,,,,,sub-112,1,stroop_test,,
test,blue,b,1.0,2.0,2.0,0.0,b,1.0,0.7063414569711313,,,,,,,,,,,,,,,,,,0.0,2.0,2.0,2.0,,,,,,,,,52.01029595802538,,,,,,,,,,,,,,,,,52.000683875055984,52.34824270801619,53.147937083034776,53.13773408299312,53.13865850004368,53.147937083034776,53.147937083034776,53.85602683306206,b,1.0,0.7063414569711313,,,,,,,,,,,,,,,,,,,,,,,,,,,,,,,,,,,,,,,,sub-112,1,stroop_test,,
test,blue,b,1.0,3.0,0.0,1.0,b,1.0,1.327727833064273,,,,,,,,,,,,,,,,,,1.0,0.0,3.0,2.0,,,,,,,,,53.867014916962944,,,,,,,,,,,,,,,,,53.856783292023465,55.05455629201606,55.86546083306894,55.84090650000144,55.841800292022526,55.86546083306894,55.86546083306894,57.20023587497417,b,1.0,1.327727833064273,,,,,,,,,,,,,,,,,,,,,,,,,,,,,,,,,,,,,,,,sub-112,1,stroop_test,,
test,red,r,1.0,4.0,1.0,1.0,r,1.0,0.8477966659702361,,,,,,,,,,,,,,,,,,1.0,1.0,4.0,0.0,,,,,,,,,57.211077042040415,,,,,,,,,,,,,,,,,57.20139054197352,57.29809779196512,58.090337416972034,58.08186783303972,58.08272354200017,58.090337416972034,58.090337416972034,58.93994308297988,r,1.0,0.8477966659702361,,,,,,,,,,,,,,,,,,,,,,,,,,,,,,,,,,,,,,,,sub-112,1,stroop_test,,
test,yellow,g,1.0,5.0,2.0,1.0,g,1.0,0.3872044159797951,,,,,,,,,,,,,,,,,,1.0,2.0,5.0,1.0,,,,,,,,,58.95029399998021,,,,,,,,,,,,,,,,,58.94050425000023,59.28841279202607,60.07987970800605,60.07162349997088,60.072278124978766,60.07987970800605,60.07987970800605,60.47224716702476,g,1.0,0.3872044159797951,,,,,,,,,,,,,,,,,,,,,,,,,,,,,,,,,,,,,,,,sub-112,1,stroop_test,,
test,red,r,1.0,6.0,0.0,2.0,r,1.0,1.0565801239572463,,,,,,,,,,,,,,,,,,2.0,0.0,6.0,0.0,,,,,,,,,60.4981187080266,,,,,,,,,,,,,,,,,60.47277087497059,60.574524124967866,61.3744135000743,61.3652218329953,61.36641195800621,61.3744135000743,61.3744135000743,62.4336527499836,r,1.0,1.0565801239572463,,,,,,,,,,,,,,,,,,,,,,,,,,,,,,,,,,,,,,,,sub-112,1,stroop_test,,
test,blue,b,1.0,7.0,1.0,2.0,b,1.0,0.9061906659044324,,,,,,,,,,,,,,,,,,2.0,1.0,7.0,2.0,,,,,,,,,62.443851458025165,,,,,,,,,,,,,,,,,62.43453275004868,62.78158249997068,63.569909917074256,63.56472895806655,63.565132667077705,63.569909917074256,63.569909917074256,64.48491966701113,b,1.0,0.9061906659044324,,,,,,,,,,,,,,,,,,,,,,,,,,,,,,,,,,,,,,,,sub-112,1,stroop_test,,
test,yellow,g,1.0,8.0,2.0,2.0,g,1.0,0.945384708000347,,,,,,,,,,,,,,,,,,2.0,2.0,8.0,1.0,,,,,,,,,64.49791037500836,,,,,,,,,,,,,,,,,64.48625854204874,65.69160179200117,66.49149329203647,66.48183766705915,66.48381491703913,66.49149329203647,66.49149329203647,67.44031129206996,g,1.0,0.945384708000347,,,,,,,,,,,,,,,,,,,,,,,,,,,,,,,,,,,,,,,,sub-112,1,stroop_test,,
test,blue,b,1.0,9.0,0.0,3.0,b,1.0,3.42474887392018,,,,,,,,,,,,,,,,,,3.0,0.0,9.0,2.0,,,,,,,,,67.45810775004793,,,,,,,,,,,,,,,,,67.44086083304137,67.53751150006428,68.33006958302576,68.32061799999792,68.3213432499906,68.33006958302576,68.33006958302576,71.758495667018,b,1.0,3.42474887392018,,,,,,,,,,,,,,,,,,,,,,,,,,,,,,,,,,,,,,,,sub-112,1,stroop_test,,
test,red,r,1.0,10.0,1.0,3.0,r,1.0,3.3896577910054475,,,,,,,,,,,,,,,,,,3.0,1.0,10.0,0.0,,,,,,,,,71.77111083304044,,,,,,,,,,,,,,,,,71.76043008302804,72.55512529204134,73.34730812499765,73.33787604200188,73.33914587507024,73.34730812499765,73.34730812499765,76.73956633300986,r,1.0,3.3896577910054475,,,,,,,,,,,,,,,,,,,,,,,,,,,,,,,,,,,,,,,,sub-112,1,stroop_test,,
test,yellow,g,1.0,11.0,2.0,3.0,g,1.0,8.215963333030231,,,,,,,,,,,,,,,,,,3.0,2.0,11.0,1.0,,,,,,,,,76.74998345796485,,,,,,,,,,,,,,,,,76.74012358300388,76.84848325001076,77.64127958298195,77.6319469170412,77.63312983303331,77.64127958298195,77.64127958298195,85.86775641702116,g,1.0,8.215963333030231,,,,,,,,,,,,,,,,,,,,,,,,,,,,,,,,,,,,,,,,sub-112,1,stroop_test,,
,,,,,,,,,,,,,,,,,,,,,,,,,,,,,,,,,,,,,,,,,,,,,,,,,,,,,,,,,,,,,,,,,,,,85.86844854196534,85.88034691696521,85.88034691696521,94.21814016706776,space,8.33287016605027,,,,,,,,,,,,,,,,,,,,,,,,,,,,,,,,,sub-112,1,stroop_test,,
,,,,0.0,0.0,0.0,,,,,rot,blue,b,0.0,b,1.0,0.9154660820495336,,,,,,,,,,,,,,0.0,0.0,0.0,2.0,,,,,94.2497572080465,,,,,,,,,,,,,,,,,94.24151487497149,94.3144170830492,95.12407554197124,95.10237087507268,,,,,,,,,,,,,,,,95.11701979197096,95.12407554197124,95.12407554197124,96.0494873750722,b,1.0,0.9154660820495336,,96.06058129202574,96.07019033306278,97.05392025003675,,,,,,,,,,,,,,,,,,,,,sub-112,1,stroop_test,,
,,,,1.0,1.0,0.0,,,,,gelb,blue,b,0.0,b,1.0,0.824968166067265,,,,,,,,,,,,,,0.0,1.0,1.0,9.0,,,,,97.06454645807388,,,,,,,,,,,,,,,,,97.0544120420236,97.8477413749788,98.6485716670286,98.63164408307055,,,,,,,,,,,,,,,,98.64025558298454,98.6485716670286,98.6485716670286,99.48411104199477,b,1.0,0.824968166067265,,99.48583845805842,99.49846395803615,100.48171470803209,100.48857870802748,,,,,,,,,,,,,,,,,,,,sub-112,1,stroop_test,,
,,,,2.0,2.0,0.0,,,,,gelb,yellow,g,1.0,b,0.0,0.4980782080674544,,,,,,,,,,,,,,0.0,2.0,2.0,10.0,,,,,100.48857870802748,,,,,,,,,,,,,,,,,100.48295345797668,100.83058483304922,101.62430679204408,101.6138464170508,,,,,,,,,,,,,,,,101.61626504198648,101.62430679204408,101.62430679204408,102.13358212506864,b,0.0,0.4980782080674544,,102.1474200419616,102.15837954205928,103.13794379204046,,,,,,,,,,,,,,,,,,,,,sub-112,1,stroop_test,,
,,,,3.0,3.0,0.0,,,,,blau,blue,b,1.0,b,1.0,1.2204940830124542,,,,,,,,,,,,,,0.0,3.0,3.0,6.0,,,,,103.1474171669688,,,,,,,,,,,,,,,,,103.13890374999028,103.9313044999726,104.72973141702823,104.71734600001946,,,,,,,,,,,,,,,,104.72166937496512,104.72973141702823,104.72973141702823,105.9659037500387,b,1.0,1.2204940830124542,,105.97127112501768,105.98118400003295,106.96485812496394,106.97129124996718,,,,,,,,,,,,,,,,,,,,sub-112,1,stroop_test,,
,,,,4.0,4.0,0.0,,,,,gelb,red,r,0.0,r,1.0,0.6056867910083383,,,,,,,,,,,,,,0.0,4.0,4.0,8.0,,,,,106.97129124996718,,,,,,,,,,,,,,,,,106.96587116701994,108.16290666698478,108.96249941701537,108.9480895419838,,,,,,,,,,,,,,,,108.9549412500346,108.96249941701537,108.96249941701537,109.57435095799156,r,1.0,0.6056867910083383,,109.57552791701164,109.58640662499238,110.5719562920276,110.58100954198744,,,,,,,,,,,,,,,,,,,,sub-112,1,stroop_test,,
,,,,5.0,5.0,0.0,,,,,blau,blue,b,1.0,b,1.0,0.5731678330339491,,,,,,,,,,,,,,0.0,5.0,5.0,5.0,,,,,110.58100954198744,,,,,,,,,,,,,,,,,110.57244524999987,111.78144024999348,112.5779367920477,112.56494166702032,,,,,,,,,,,,,,,,112.57042295800056,112.5779367920477,112.5779367920477,113.1525185420178,b,1.0,0.5731678330339491,,113.15323387505488,113.16355225001462,114.14840729197022,114.15548266703264,,,,,,,,,,,,,,,,,,,,sub-112,1,stroop_test,,
,,,,6.0,6.0,0.0,,,,,blau,red,r,0.0,r,1.0,0.9044389580376446,,,,,,,,,,,,,,0.0,6.0,6.0,4.0,,,,,114.15548266703264,,,,,,,,,,,,,,,,,114.14983675000258,115.34767958300654,116.13963066705035,116.1312277080724,,,,,,,,,,,,,,,,116.13214579201303,116.13963066705035,116.13963066705035,117.0495563329896,r,1.0,0.9044389580376446,,117.0506012920523,117.06219270802104,118.04801400005816,118.05391949997284,,,,,,,,,,,,,,,,,,,,sub-112,1,stroop_test,,
,,,,7.0,7.0,0.0,,,,,gelb,yellow,g,1.0,g,1.0,0.6303716660477221,,,,,,,,,,,,,,0.0,7.0,7.0,11.0,,,,,118.05391949997284,,,,,,,,,,,,,,,,,118.0486206250498,118.14778370806016,118.94043362501544,118.9309825829696,,,,,,,,,,,,,,,,118.93541391706094,118.94043362501544,118.94043362501544,119.5831255420344,g,1.0,0.6303716660477221,,119.58436208299828,119.59536983305588,120.5817356670741,120.58822875004262,,,,,,,,,,,,,,,,,,,,sub-112,1,stroop_test,,
,,,,8.0,8.0,0.0,,,,,rot,yellow,g,0.0,r,0.0,0.8789376659551635,,,,,,,,,,,,,,0.0,8.0,8.0,3.0,,,,,120.58822875004262,,,,,,,,,,,,,,,,,120.58250941697042,121.38111325004138,122.17982804204804,122.16512908297592,,,,,,,,,,,,,,,,122.17119591706432,122.17982804204804,122.17982804204804,123.06546483305284,r,0.0,0.8789376659551635,,123.07096708298197,123.0824994170107,124.07124225003643,,,,,,,,,,,,,,,,,,,,,sub-112,1,stroop_test,,
,,,,9.0,9.0,0.0,,,,,rot,red,r,1.0,r,1.0,0.7141390830511227,,,,,,,,,,,,,,0.0,9.0,9.0,1.0,,,,,124.08122654200996,,,,,,,,,,,,,,,,,124.07194716704544,124.16442829207516,124.95754375006072,124.9483371670358,,,,,,,,,,,,,,,,124.94973208301236,124.95754375006072,124.95754375006072,125.68286716705188,r,1.0,0.7141390830511227,,125.68903358303942,125.70052425004542,126.68710900004952,,,,,,,,,,,,,,,,,,,,,sub-112,1,stroop_test,,
,,,,10.0,10.0,0.0,,,,,rot,red,r,1.0,r,1.0,0.5377567909890786,,,,,,,,,,,,,,0.0,10.0,10.0,0.0,,,,,126.69744899997022,,,,,,,,,,,,,,,,,126.68762004200836,127.03108287497888,127.8240279579768,127.81499170803,,,,,,,,,,,,,,,,127.81622820801569,127.8240279579768,127.8240279579768,128.36634654202498,r,1.0,0.5377567909890786,,128.36754379200283,128.37855020805728,129.3645963750314,129.37047283304855,,,,,,,,,,,,,,,,,,,,sub-112,1,stroop_test,,
,,,,11.0,11.0,0.0,,,,,blau,yellow,g,0.0,g,1.0,1.295379750081338,,,,,,,,,,,,,,0.0,11.0,11.0,7.0,,,,,129.37047283304855,,,,,,,,,,,,,,,,,129.36519799998496,130.164476291975,130.96724100003485,130.94786183303222,,,,,,,,,,,,,,,,130.96036320796702,130.96724100003485,130.96724100003485,132.26460858306382,g,1.0,1.295379750081338,,132.26542558299843,132.27760666701943,133.26471799996216,133.27034000004642,,,,,,,,,,,,,,,,,,,,sub-112,1,stroop_test,,
,,,,12.0,0.0,1.0,,,,,gelb,blue,b,0.0,b,1.0,2.3183621250791475,,,,,,,,,,,,,,1.0,0.0,12.0,9.0,,,,,133.27034000004642,,,,,,,,,,,,,,,,,133.2652571250219,133.60374499997124,134.40021570806857,134.38793291698676,,,,,,,,,,,,,,,,134.39272433298174,134.40021570806857,134.40021570806857,136.72207808296662,b,1.0,2.3183621250791475,,136.72382812504657,136.73460362502374,137.73099579196423,,,,,,,,,,,,,,,,,,,,,sub-112,1,stroop_test,,
,,,,13.0,1.0,1.0,,,,,rot,red,r,1.0,r,1.0,0.7787208739900962,,,,,,,,,,,,,,1.0,1.0,13.0,1.0,,,,,137.74762883305084,,,,,,,,,,,,,,,,,137.73149891698267,138.5219825420063,139.33039979205932,139.31460116698872,,,,,,,,,,,,,,,,139.32201158301905,139.33039979205932,139.33039979205932,140.11345520801842,r,1.0,0.7787208739900962,,140.11395945807453,140.1201265420532,141.1043367079692,141.1134684580611,,,,,,,,,,,,,,,,,,,,sub-112,1,stroop_test,,
,,,,14.0,2.0,1.0,,,,,blau,blue,b,1.0,b,1.0,1.0042740820208564,,,,,,,,,,,,,,1.0,2.0,14.0,5.0,,,,,141.1134684580611,,,,,,,,,,,,,,,,,141.10524270799942,142.3048092919635,143.11202495801265,143.09809774998575,,,,,,,,,,,,,,,,143.104376833071,143.11202495801265,143.11202495801265,144.1224413330201,b,1.0,1.0042740820208564,,144.12366124999244,144.13447725004517,145.121122749988,145.1306429170072,,,,,,,,,,,,,,,,,,,,sub-112,1,stroop_test,,
,,,,15.0,3.0,1.0,,,,,gelb,yellow,g,1.0,g,1.0,1.2265406660735607,,,,,,,,,,,,,,1.0,3.0,15.0,11.0,,,,,145.1306429170072,,,,,,,,,,,,,,,,,145.12167479202617,145.22172212507576,146.0283642919967,146.014825708,,,,,,,,,,,,,,,,146.02105762506835,146.0283642919967,146.0283642919967,147.27350316697266,g,1.0,1.2265406660735607,,147.2738762079971,147.28208416700363,148.2709201250691,148.2806567499647,,,,,,,,,,,,,,,,,,,,sub-112,1,stroop_test,,
,,,,16.0,4.0,1.0,,,,,rot,red,r,1.0,r,1.0,0.4155487490352243,,,,,,,,,,,,,,1.0,4.0,16.0,0.0,,,,,148.2806567499647,,,,,,,,,,,,,,,,,148.27138845797165,148.37074174999725,149.17836550006177,149.16446504206397,,,,,,,,,,,,,,,,149.1701939170016,149.17836550006177,149.17836550006177,149.59949200006668,r,1.0,0.4155487490352243,,149.6008413330419,149.61304612504318,150.59769654204138,150.60351616702974,,,,,,,,,,,,,,,,,,,,sub-112,1,stroop_test,,
,,,,17.0,5.0,1.0,,,,,rot,yellow,g,0.0,g,1.0,0.8530952070141211,,,,,,,,,,,,,,1.0,5.0,17.0,3.0,,,,,150.60351616702974,,,,,,,,,,,,,,,,,150.59825445804745,150.94711454201024,151.73875733301975,151.73028999997769,,,,,,,,,,,,,,,,151.73113316704985,151.73875733301975,151.73875733301975,152.59862083301414,g,1.0,0.8530952070141211,,152.59994087496307,152.6114961670246,153.59781920805108,153.60428341699298,,,,,,,,,,,,,,,,,,,,sub-112,1,stroop_test,,
,,,,18.0,6.0,1.0,,,,,rot,blue,b,0.0,b,1.0,0.3571218330180272,,,,,,,,,,,,,,1.0,6.0,18.0,2.0,,,,,153.60428341699298,,,,,,,,,,,,,,,,,153.59888758300804,154.79742558300495,155.59054637502413,155.58115979202557,,,,,,,,,,,,,,,,155.5823442080291,155.59054637502413,155.59054637502413,155.96057841705624,b,1.0,0.3571218330180272,,155.96149041701574,155.96816470799968,156.9542060419917,156.96409316698555,,,,,,,,,,,,,,,,,,,,sub-112,1,stroop_test,,
,,,,19.0,7.0,1.0,,,,,blau,red,r,0.0,r,1.0,0.7414556249277666,,,,,,,,,,,,,,1.0,7.0,19.0,4.0,,,,,156.96409316698555,,,,,,,,,,,,,,,,,156.95466758299153,158.15583504200913,158.96515983296558,158.94781929196324,,,,,,,,,,,,,,,,158.95751716697123,158.96515983296558,158.96515983296558,159.7168725420488,r,1.0,0.7414556249277666,,159.71847195806913,159.73105058306828,160.71461604197975,160.72150566696655,,,,,,,,,,,,,,,,,,,,sub-112,1,stroop_test,,
,,,,20.0,8.0,1.0,,,,,blau,blue,b,1.0,b,1.0,1.0417466240469366,,,,,,,,,,,,,,1.0,8.0,20.0,6.0,,,,,160.72150566696655,,,,,,,,,,,,,,,,,160.71591137500943,160.8141769580543,161.6067948329728,161.59769320802295,,,,,,,,,,,,,,,,161.59893262502737,161.6067948329728,161.6067948329728,162.65564737503882,b,1.0,1.0417466240469366,,162.6564656670671,162.66783929197118,163.65428612497635,163.66392500000077,,,,,,,,,,,,,,,,,,,,sub-112,1,stroop_test,,
,,,,21.0,9.0,1.0,,,,,gelb,yellow,g,1.0,g,1.0,2.0013550829608,,,,,,,,,,,,,,1.0,9.0,21.0,10.0,,,,,163.66392500000077,,,,,,,,,,,,,,,,,163.65505916706752,163.754602250061,164.56406550004613,164.54794591700193,,,,,,,,,,,,,,,,164.55596379202325,164.56406550004613,164.56406550004613,166.57340679201295,g,1.0,2.0013550829608,,166.574667833047,166.5863590419758,167.57056733302306,167.5806004999904,,,,,,,,,,,,,,,,,,,,sub-112,1,stroop_test,,
,,,,22.0,10.0,1.0,,,,,gelb,red,r,0.0,r,1.0,0.7185535819735378,,,,,,,,,,,,,,1.0,10.0,22.0,8.0,,,,,167.5806004999904,,,,,,,,,,,,,,,,,167.5712718750583,167.92169783299323,168.72377558297012,168.71454204199836,,,,,,,,,,,,,,,,168.71583691705018,168.72377558297012,168.72377558297012,169.44947200000752,r,1.0,0.7185535819735378,,169.45137587503996,169.4642739580013,170.4478358749766,170.45412679202855,,,,,,,,,,,,,,,,,,,,sub-112,1,stroop_test,,
,,,,23.0,11.0,1.0,,,,,blau,yellow,g,0.0,g,1.0,1.177852833061479,,,,,,,,,,,,,,1.0,11.0,23.0,7.0,,,,,170.45412679202855,,,,,,,,,,,,,,,,,170.44840716698673,170.5636678750161,171.3634171669837,171.3478168330621,,,,,,,,,,,,,,,,171.35524850001093,171.3634171669837,171.3634171669837,172.55164170800708,g,1.0,1.177852833061479,,172.55322083306964,172.56628616701346,173.55347862502094,,,,,,,,,,,,,,,,,,,,,sub-112,1,stroop_test,,
,,,,,,,,,,,,,,,,,,,,,,,,,,,,,,,,,,,,,,,,,,,,,,,,,,,,,,,,,,,,,,,,,,,,,,,,,,,,,,,,,,,,,,,173.55377579201013,173.56239629199263,173.56239629199263,196.14077900000848,space,22.57087399996817,,,,,,,,,,,,,,sub-112,1,stroop_test,,
,,,,0.0,0.0,0.0,,,,,,,,,,,,,blau,yellow,g,0.0,g,1.0,0.7812562910839915,,,,,,,,,,0.0,0.0,0.0,7.0,196.17350441706367,,,,,,,,,,,,,,,,,196.16534429206516,196.2342816250166,197.03292441705707,197.0192100419663,,,,,,,,,,,,,,,,,,,,,,,,,,,,,,,,,,,197.02602104202376,197.03292441705707,197.03292441705707,197.8214505420765,g,1.0,0.7812562910839915,,,,,,sub-112,1,stroop_test,,
,,,,1.0,1.0,0.0,,,,,,,,,,,,,blau,red,r,0.0,r,1.0,0.5100277069723234,,,,,,,,,,0.0,1.0,1.0,4.0,197.8466073750751,,,,,,,,,,,,,,,,,197.82196904206648,198.1707383750472,198.9621241670102,198.95378337497823,,,,,,,,,,,,,,,,,,,,,,,,,,,,,,,,,,,198.95451570802837,198.9621241670102,198.9621241670102,199.48348150006493,r,1.0,0.5100277069723234,,,,,,sub-112,1,stroop_test,,
,,,,2.0,2.0,0.0,,,,,,,,,,,,,gelb,yellow,g,1.0,g,1.0,0.4903885410167277,,,,,,,,,,0.0,2.0,2.0,10.0,199.4970676669618,,,,,,,,,,,,,,,,,199.48396587499883,199.8304196250392,200.62963720806877,200.6141968750162,,,,,,,,,,,,,,,,,,,,,,,,,,,,,,,,,,,200.62156870798208,200.62963720806877,200.62963720806877,201.1220602920512,g,1.0,0.4903885410167277,,,,,,sub-112,1,stroop_test,,
,,,,3.0,3.0,0.0,,,,,,,,,,,,,gelb,yellow,g,1.0,g,1.0,0.5454400819726288,,,,,,,,,,0.0,3.0,3.0,11.0,201.13297762500588,,,,,,,,,,,,,,,,,201.1228175420547,201.218845083029,202.01268012507356,202.0038523330586,,,,,,,,,,,,,,,,,,,,,,,,,,,,,,,,,,,202.00466574996244,202.01268012507356,202.01268012507356,202.56588274997196,g,1.0,0.5454400819726288,,,,,,sub-112,1,stroop_test,,
,,,,4.0,4.0,0.0,,,,,,,,,,,,,rot,red,r,1.0,r,1.0,0.5314553320640698,,,,,,,,,,0.0,4.0,4.0,1.0,202.57673454203177,,,,,,,,,,,,,,,,,202.56704237498343,202.91364129201972,203.7115621670382,203.69727412506472,,,,,,,,,,,,,,,,,,,,,,,,,,,,,,,,,,,203.70345641707536,203.7115621670382,203.7115621670382,204.2487530830549,r,1.0,0.5314553320640698,,,,,,sub-112,1,stroop_test,,
,,,,5.0,5.0,0.0,,,,,,,,,,,,,gelb,red,r,0.0,r,1.0,0.4942651239689439,,,,,,,,,,0.0,5.0,5.0,8.0,204.25964287505485,,,,,,,,,,,,,,,,,204.24997308303136,204.3469927500701,205.14313199999745,205.1305342500564,,,,,,,,,,,,,,,,,,,,,,,,,,,,,,,,,,,205.1356952500064,205.14313199999745,205.14313199999745,205.6488467920572,r,1.0,0.4942651239689439,,,,,,sub-112,1,stroop_test,,
,,,,6.0,6.0,0.0,,,,,,,,,,,,,blau,blue,b,1.0,b,1.0,0.3931563739897683,,,,,,,,,,0.0,6.0,6.0,5.0,205.65938141697552,,,,,,,,,,,,,,,,,205.64982145803515,206.4470807920443,207.2428150830092,207.23068362497725,,,,,,,,,,,,,,,,,,,,,,,,,,,,,,,,,,,207.2351520420052,207.2428150830092,207.2428150830092,207.6371317500016,b,1.0,0.3931563739897683,,,,,,sub-112,1,stroop_test,,
,,,,7.0,7.0,0.0,,,,,,,,,,,,,gelb,blue,b,0.0,r,0.0,0.8911225820193067,,,,,,,,,,0.0,7.0,7.0,9.0,207.64758366707247,,,,,,,,,,,,,,,,,207.6378505830653,208.43751241697464,209.24466237507292,209.2305943330284,,,,,,,,,,,,,,,,,,,,,,,,,,,,,,,,,,,209.23687979206443,209.24466237507292,209.24466237507292,210.1392368329689,r,0.0,0.8911225820193067,,,,,,sub-112,1,stroop_test,,
,,,,8.0,8.0,0.0,,,,,,,,,,,,,rot,blue,b,0.0,b,1.0,0.9725376659771428,,,,,,,,,,0.0,8.0,8.0,2.0,210.15036995802075,,,,,,,,,,,,,,,,,210.14043904200665,210.23693304206245,211.0471369170118,211.0306091250386,,,,,,,,,,,,,,,,,,,,,,,,,,,,,,,,,,,211.0383105829824,211.0471369170118,211.0471369170118,212.03128129197285,b,1.0,0.9725376659771428,,,,,,sub-112,1,stroop_test,,
,,,,9.0,9.0,0.0,,,,,,,,,,,,,blau,blue,b,1.0,b,1.0,0.4870565410237759,,,,,,,,,,0.0,9.0,9.0,6.0,212.04143295797985,,,,,,,,,,,,,,,,,212.0319108329713,212.8302440000698,213.62768870801665,213.6141212920193,,,,,,,,,,,,,,,,,,,,,,,,,,,,,,,,,,,213.6199122919934,213.62768870801665,213.62768870801665,214.12153866700828,b,1.0,0.4870565410237759,,,,,,sub-112,1,stroop_test,,
,,,,10.0,10.0,0.0,,,,,,,,,,,,,rot,yellow,g,0.0,g,1.0,0.8323724160436541,,,,,,,,,,0.0,10.0,10.0,3.0,214.13207483303268,,,,,,,,,,,,,,,,,214.12216312496457,215.31939583306664,216.11724887497255,216.10402666707523,,,,,,,,,,,,,,,,,,,,,,,,,,,,,,,,,,,216.1096349579748,216.11724887497255,216.11724887497255,216.9547450420214,g,1.0,0.8323724160436541,,,,,,sub-112,1,stroop_test,,
,,,,11.0,11.0,0.0,,,,,,,,,,,,,rot,red,r,1.0,r,1.0,0.3811838739784434,,,,,,,,,,0.0,11.0,11.0,0.0,216.9658831669949,,,,,,,,,,,,,,,,,216.95591279200744,217.3037259170087,218.09646087500727,218.0869853750337,,,,,,,,,,,,,,,,,,,,,,,,,,,,,,,,,,,218.08858004200735,218.09646087500727,218.09646087500727,218.48194708302617,r,1.0,0.3811838739784434,,,,,,sub-112,1,stroop_test,,
,,,,12.0,0.0,1.0,,,,,,,,,,,,,blau,yellow,g,0.0,g,1.0,0.5134269580012187,,,,,,,,,,1.0,0.0,12.0,7.0,218.4922117079841,,,,,,,,,,,,,,,,,218.48276183300183,219.28040675004013,220.07808687502984,220.0635970829753,,,,,,,,,,,,,,,,,,,,,,,,,,,,,,,,,,,220.0702929169638,220.07808687502984,220.07808687502984,220.606304291985,g,1.0,0.5134269580012187,,,,,,sub-112,1,stroop_test,,
,,,,13.0,1.0,1.0,,,,,,,,,,,,,rot,red,r,1.0,r,1.0,0.6405594570096582,,,,,,,,,,1.0,1.0,13.0,1.0,220.6137845000485,,,,,,,,,,,,,,,,,220.60684887506068,220.70297420804852,221.4998528750148,221.48651008296287,,,,,,,,,,,,,,,,,,,,,,,,,,,,,,,,,,,221.49212349997836,221.4998528750148,221.4998528750148,222.1486851669615,r,1.0,0.6405594570096582,,,,,,sub-112,1,stroop_test,,
,,,,14.0,2.0,1.0,,,,,,,,,,,,,rot,yellow,g,0.0,g,1.0,0.6686062490334734,,,,,,,,,,1.0,2.0,14.0,3.0,222.159463500022,,,,,,,,,,,,,,,,,222.1500505830627,223.3470134580275,224.13874183304145,224.1303328750655,,,,,,,,,,,,,,,,,,,,,,,,,,,,,,,,,,,224.13136279198807,224.13874183304145,224.13874183304145,224.814632833004,g,1.0,0.6686062490334734,,,,,,sub-112,1,stroop_test,,
,,,,15.0,3.0,1.0,,,,,,,,,,,,,gelb,red,r,0.0,r,1.0,0.5527184159727767,,,,,,,,,,1.0,3.0,15.0,8.0,224.8245233750204,,,,,,,,,,,,,,,,,224.8152558329748,226.01336637500208,226.81261183298196,226.79709037498105,,,,,,,,,,,,,,,,,,,,,,,,,,,,,,,,,,,226.80420712498017,226.81261183298196,226.81261183298196,227.37154529197144,r,1.0,0.5527184159727767,,,,,,sub-112,1,stroop_test,,
,,,,16.0,4.0,1.0,,,,,,,,,,,,,gelb,yellow,g,1.0,g,1.0,0.6089144570287317,,,,,,,,,,1.0,4.0,16.0,11.0,227.3822085830616,,,,,,,,,,,,,,,,,227.37225954199675,227.72004720801488,228.5123620000668,228.5030210830737,,,,,,,,,,,,,,,,,,,,,,,,,,,,,,,,,,,228.5040298330132,228.5123620000668,228.5123620000668,229.13435020798352,g,1.0,0.6089144570287317,,,,,,sub-112,1,stroop_test,,
,,,,17.0,5.0,1.0,,,,,,,,,,,,,blau,red,r,0.0,r,1.0,0.7260987909976393,,,,,,,,,,1.0,5.0,17.0,4.0,229.14635637507308,,,,,,,,,,,,,,,,,229.1353933750652,230.3375732500572,231.1471416669665,231.13088570802935,,,,,,,,,,,,,,,,,,,,,,,,,,,,,,,,,,,231.13869841699488,231.1471416669665,231.1471416669665,231.88043762499,r,1.0,0.7260987909976393,,,,,,sub-112,1,stroop_test,,
,,,,18.0,6.0,1.0,,,,,,,,,,,,,gelb,blue,b,0.0,b,1.0,0.9419799990719184,,,,,,,,,,1.0,6.0,18.0,9.0,231.88584304205145,,,,,,,,,,,,,,,,,231.88076037506107,232.2330467500724,233.03324358304965,233.0199152920395,,,,,,,,,,,,,,,,,,,,,,,,,,,,,,,,,,,233.02504412503916,233.03324358304965,233.03324358304965,233.98189087503124,b,1.0,0.9419799990719184,,,,,,sub-112,1,stroop_test,,
,,,,19.0,7.0,1.0,,,,,,,,,,,,,blau,blue,b,1.0,b,1.0,0.7006653329590335,,,,,,,,,,1.0,7.0,19.0,6.0,233.99265200004447,,,,,,,,,,,,,,,,,233.9827597499825,234.33013366698287,235.1274895420065,235.1140534169972,,,,,,,,,,,,,,,,,,,,,,,,,,,,,,,,,,,235.11980579199732,235.1274895420065,235.1274895420065,235.83244999998715,b,1.0,0.7006653329590335,,,,,,sub-112,1,stroop_test,,
,,,,20.0,8.0,1.0,,,,,,,,,,,,,rot,blue,b,0.0,b,1.0,1.9379953739698976,,,,,,,,,,1.0,8.0,20.0,2.0,235.8431320419768,,,,,,,,,,,,,,,,,235.83350941701792,237.030088917003,237.82989375002217,237.81378091697115,,,,,,,,,,,,,,,,,,,,,,,,,,,,,,,,,,,237.82151754200456,237.82989375002217,237.82989375002217,239.77128129196356,b,1.0,1.9379953739698976,,,,,,sub-112,1,stroop_test,,
,,,,21.0,9.0,1.0,,,,,,,,,,,,,blau,blue,b,1.0,b,1.0,0.5632204989669845,,,,,,,,,,1.0,9.0,21.0,5.0,239.78218700003345,,,,,,,,,,,,,,,,,239.77202387503348,240.9701471250737,241.76656837505288,241.7534740420524,,,,,,,,,,,,,,,,,,,,,,,,,,,,,,,,,,,241.7587231670041,241.76656837505288,241.76656837505288,242.33223820803687,b,1.0,0.5632204989669845,,,,,,sub-112,1,stroop_test,,
,,,,22.0,10.0,1.0,,,,,,,,,,,,,gelb,yellow,g,1.0,g,1.0,0.6465939569752663,,,,,,,,,,1.0,10.0,22.0,10.0,242.34284295805264,,,,,,,,,,,,,,,,,242.33326724998187,243.13012479199097,243.9283384999726,243.91932829201687,,,,,,,,,,,,,,,,,,,,,,,,,,,,,,,,,,,243.9211533330381,243.9283384999726,243.9283384999726,244.58130533306397,g,1.0,0.6465939569752663,,,,,,sub-112,1,stroop_test,,
,,,,23.0,11.0,1.0,,,,,,,,,,,,,rot,red,r,1.0,r,1.0,0.564395166002214,,,,,,,,,,1.0,11.0,23.0,0.0,244.59151649998967,,,,,,,,,,,,,,,,,244.58196900004987,245.78003008302767,246.5784014170058,246.5649406670127,,,,,,,,,,,,,,,,,,,,,,,,,,,,,,,,,,,246.56943925004447,246.5784014170058,246.5784014170058,247.14817758300345,r,1.0,0.564395166002214,,,,,,sub-112,1,stroop_test,,
,,,,24.0,0.0,2.0,,,,,,,,,,,,,gelb,red,r,0.0,r,1.0,0.9830276659922674,,,,,,,,,,2.0,0.0,24.0,8.0,247.1589750830317,,,,,,,,,,,,,,,,,247.1491091250209,247.94657500006724,248.74462729203515,248.73056012496815,,,,,,,,,,,,,,,,,,,,,,,,,,,,,,,,,,,248.73684962501284,248.74462729203515,248.74462729203515,249.73143229202836,r,1.0,0.9830276659922674,,,,,,sub-112,1,stroop_test,,
,,,,25.0,1.0,2.0,,,,,,,,,,,,,rot,yellow,g,0.0,g,1.0,0.9396564579801634,,,,,,,,,,2.0,1.0,25.0,3.0,249.74190395802725,,,,,,,,,,,,,,,,,249.73217766697053,249.8281783330021,250.6260417500744,250.6134427500656,,,,,,,,,,,,,,,,,,,,,,,,,,,,,,,,,,,250.6182339580264,250.6260417500744,250.6260417500744,251.5713140000589,g,1.0,0.9396564579801634,,,,,,sub-112,1,stroop_test,,
,,,,26.0,2.0,2.0,,,,,,,,,,,,,gelb,yellow,g,1.0,g,1.0,0.5703162499703467,,,,,,,,,,2.0,2.0,26.0,10.0,251.5818725420395,,,,,,,,,,,,,,,,,251.57193537498824,251.6688870000653,252.4652839580085,252.4532703750301,,,,,,,,,,,,,,,,,,,,,,,,,,,,,,,,,,,252.4574704170227,252.4652839580085,252.4652839580085,253.0381114999764,g,1.0,0.5703162499703467,,,,,,sub-112,1,stroop_test,,
,,,,27.0,3.0,2.0,,,,,,,,,,,,,rot,blue,b,0.0,b,1.0,1.134165916009806,,,,,,,,,,2.0,3.0,27.0,2.0,253.04935041698627,,,,,,,,,,,,,,,,,253.0390326670604,253.3867024170468,254.19525212503504,254.18008862505667,,,,,,,,,,,,,,,,,,,,,,,,,,,,,,,,,,,254.18684754206333,254.19525212503504,254.19525212503504,255.3315045000054,b,1.0,1.134165916009806,,,,,,sub-112,1,stroop_test,,
,,,,28.0,4.0,2.0,,,,,,,,,,,,,rot,red,r,1.0,r,1.0,0.567862916039303,,,,,,,,,,2.0,4.0,28.0,0.0,255.341877458035,,,,,,,,,,,,,,,,,255.33226858300625,256.52973470801953,257.3216198750306,257.3133326669922,,,,,,,,,,,,,,,,,,,,,,,,,,,,,,,,,,,257.31436154199764,257.3216198750306,257.3216198750306,257.89825358300004,r,1.0,0.567862916039303,,,,,,sub-112,1,stroop_test,,
,,,,29.0,5.0,2.0,,,,,,,,,,,,,rot,red,r,1.0,r,1.0,0.4911680410150438,,,,,,,,,,2.0,5.0,29.0,1.0,257.9086385830305,,,,,,,,,,,,,,,,,257.89935199997853,258.70426224998664,259.5072370420676,259.497068042052,,,,,,,,,,,,,,,,,,,,,,,,,,,,,,,,,,,259.49902041698806,259.5072370420676,259.5072370420676,260.0039991670056,r,1.0,0.4911680410150438,,,,,,sub-112,1,stroop_test,,
,,,,30.0,6.0,2.0,,,,,,,,,,,,,gelb,yellow,g,1.0,g,1.0,0.6105032499181107,,,,,,,,,,2.0,6.0,30.0,11.0,260.0150592500577,,,,,,,,,,,,,,,,,260.0047822080087,260.3534412920708,261.15269541705493,261.137319499976,,,,,,,,,,,,,,,,,,,,,,,,,,,,,,,,,,,261.1447965829866,261.15269541705493,261.15269541705493,261.7694470830029,g,1.0,0.6105032499181107,,,,,,sub-112,1,stroop_test,,
,,,,31.0,7.0,2.0,,,,,,,,,,,,,blau,blue,b,1.0,b,1.0,0.6086852080188692,,,,,,,,,,2.0,7.0,31.0,6.0,261.7803591670236,,,,,,,,,,,,,,,,,261.7702821249841,262.1132815419696,262.910488332971,262.89695025002584,,,,,,,,,,,,,,,,,,,,,,,,,,,,,,,,,,,262.9031009579776,262.910488332971,262.910488332971,263.5311419169884,b,1.0,0.6086852080188692,,,,,,sub-112,1,stroop_test,,
,,,,32.0,8.0,2.0,,,,,,,,,,,,,blau,red,r,0.0,r,1.0,0.4183835410512984,,,,,,,,,,2.0,8.0,32.0,4.0,263.54157754196785,,,,,,,,,,,,,,,,,263.53190816706046,264.73003854206763,265.5229114580434,265.51359679200687,,,,,,,,,,,,,,,,,,,,,,,,,,,,,,,,,,,265.5148760830052,265.5229114580434,265.5229114580434,265.9484017919749,r,1.0,0.4183835410512984,,,,,,sub-112,1,stroop_test,,
,,,,33.0,9.0,2.0,,,,,,,,,,,,,blau,blue,b,1.0,b,1.0,0.6960434160428122,,,,,,,,,,2.0,9.0,33.0,5.0,265.9591166250175,,,,,,,,,,,,,,,,,265.9497179579921,266.0465613750275,266.83912420796696,266.8300671670586,,,,,,,,,,,,,,,,,,,,,,,,,,,,,,,,,,,266.83134933304973,266.83912420796696,266.83912420796696,267.5372835829621,b,1.0,0.6960434160428122,,,,,,sub-112,1,stroop_test,,
,,,,34.0,10.0,2.0,,,,,,,,,,,,,gelb,blue,b,0.0,b,1.0,0.6380570819601417,,,,,,,,,,2.0,10.0,34.0,9.0,267.5479178329697,,,,,,,,,,,,,,,,,267.5379360830412,268.3368547500577,269.1460780829657,269.1301756249741,,,,,,,,,,,,,,,,,,,,,,,,,,,,,,,,,,,269.1380570420297,269.1460780829657,269.1460780829657,269.7869221250294,b,1.0,0.6380570819601417,,,,,,sub-112,1,stroop_test,,
,,,,35.0,11.0,2.0,,,,,,,,,,,,,blau,yellow,g,0.0,g,1.0,1.0217386239673942,,,,,,,,,,2.0,11.0,35.0,7.0,269.8127979170531,,,,,,,,,,,,,,,,,269.7876433749916,269.8858602080727,270.6823107920354,270.66993191698566,,,,,,,,,,,,,,,,,,,,,,,,,,,,,,,,,,,270.67453033302445,270.6823107920354,270.6823107920354,271.7147542920429,g,1.0,1.0217386239673942,,,,,,sub-112,1,stroop_test,,
,,,,36.0,0.0,3.0,,,,,,,,,,,,,rot,blue,b,0.0,b,1.0,1.2723911659559235,,,,,,,,,,3.0,0.0,36.0,2.0,271.7254112920491,,,,,,,,,,,,,,,,,271.7159798750654,272.9131061669905,273.7099000000162,273.69674270797987,,,,,,,,,,,,,,,,,,,,,,,,,,,,,,,,,,,273.70190204202663,273.7099000000162,273.7099000000162,274.9839241669979,b,1.0,1.2723911659559235,,,,,,sub-112,1,stroop_test,,
,,,,37.0,1.0,3.0,,,,,,,,,,,,,rot,red,r,1.0,r,1.0,0.5217644990189001,,,,,,,,,,3.0,1.0,37.0,0.0,274.99585233302787,,,,,,,,,,,,,,,,,274.98427491704933,276.1796617920045,276.97309650003444,276.96332512504887,,,,,,,,,,,,,,,,,,,,,,,,,,,,,,,,,,,276.9650366670685,276.97309650003444,276.97309650003444,277.4974925830029,r,1.0,0.5217644990189001,,,,,,sub-112,1,stroop_test,,
,,,,38.0,2.0,3.0,,,,,,,,,,,,,gelb,yellow,g,1.0,g,1.0,0.6501591660780832,,,,,,,,,,3.0,2.0,38.0,11.0,277.50835583300795,,,,,,,,,,,,,,,,,277.4984762080712,277.59637166699395,278.39770487498026,278.38008437503595,,,,,,,,,,,,,,,,,,,,,,,,,,,,,,,,,,,278.38962758297566,278.39770487498026,278.39770487498026,279.0526015830692,g,1.0,0.6501591660780832,,,,,,sub-112,1,stroop_test,,
,,,,39.0,3.0,3.0,,,,,,,,,,,,,rot,yellow,g,0.0,g,1.0,1.330521957017481,,,,,,,,,,3.0,3.0,39.0,3.0,279.06319054204505,,,,,,,,,,,,,,,,,279.05318941699807,279.4031865000725,280.1991156670265,280.1868207079824,,,,,,,,,,,,,,,,,,,,,,,,,,,,,,,,,,,280.1913153330097,280.1991156670265,280.1991156670265,281.5373186250217,g,1.0,1.330521957017481,,,,,,sub-112,1,stroop_test,,
,,,,40.0,4.0,3.0,,,,,,,,,,,,,blau,yellow,g,0.0,g,1.0,0.6945382909616455,,,,,,,,,,3.0,4.0,40.0,7.0,281.5484276249772,,,,,,,,,,,,,,,,,281.5382525420282,282.73679962498136,283.5321823749691,283.5198679170571,,,,,,,,,,,,,,,,,,,,,,,,,,,,,,,,,,,283.5244525000453,283.5321823749691,283.5321823749691,284.2313765420113,g,1.0,0.6945382909616455,,,,,,sub-112,1,stroop_test,,
,,,,41.0,5.0,3.0,,,,,,,,,,,,,blau,blue,b,1.0,b,1.0,0.6248256660765037,,,,,,,,,,3.0,5.0,41.0,6.0,284.2417330420576,,,,,,,,,,,,,,,,,284.2324586670147,285.02956300007645,285.820792249986,285.8126367920777,,,,,,,,,,,,,,,,,,,,,,,,,,,,,,,,,,,285.8141184169799,285.820792249986,285.820792249986,286.44798162498046,b,1.0,0.6248256660765037,,,,,,sub-112,1,stroop_test,,
,,,,42.0,6.0,3.0,,,,,,,,,,,,,gelb,yellow,g,1.0,g,1.0,0.4154911250807345,,,,,,,,,,3.0,6.0,42.0,10.0,286.4602316250093,,,,,,,,,,,,,,,,,286.4494422080461,287.24647091701627,288.0460699580144,288.0300430000061,,,,,,,,,,,,,,,,,,,,,,,,,,,,,,,,,,,288.03790612507146,288.0460699580144,288.0460699580144,288.4648040829925,g,1.0,0.4154911250807345,,,,,,sub-112,1,stroop_test,,
,,,,43.0,7.0,3.0,,,,,,,,,,,,,blau,blue,b,1.0,b,1.0,0.6078258330235258,,,,,,,,,,3.0,7.0,43.0,5.0,288.4753213330405,,,,,,,,,,,,,,,,,288.4657087919768,288.8129256670363,289.609646582976,289.5964854579652,,,,,,,,,,,,,,,,,,,,,,,,,,,,,,,,,,,289.60209183301777,289.609646582976,289.609646582976,290.22002608305775,b,1.0,0.6078258330235258,,,,,,sub-112,1,stroop_test,,
,,,,44.0,8.0,3.0,,,,,,,,,,,,,blau,red,r,0.0,r,1.0,0.6727068329928443,,,,,,,,,,3.0,8.0,44.0,4.0,290.2458583749831,,,,,,,,,,,,,,,,,290.22060866700485,291.42082674999256,292.2236655000597,292.2127494170564,,,,,,,,,,,,,,,,,,,,,,,,,,,,,,,,,,,292.2168164580362,292.2236655000597,292.2236655000597,292.90013249998447,r,1.0,0.6727068329928443,,,,,,sub-112,1,stroop_test,,
,,,,45.0,9.0,3.0,,,,,,,,,,,,,gelb,blue,b,0.0,b,1.0,1.077073790947907,,,,,,,,,,3.0,9.0,45.0,9.0,292.9125116249779,,,,,,,,,,,,,,,,,292.9005935000023,292.99626766704023,293.7974029170582,293.7799549170304,,,,,,,,,,,,,,,,,,,,,,,,,,,,,,,,,,,293.7887804580387,293.7974029170582,293.7974029170582,294.8806335419649,b,1.0,1.077073790947907,,,,,,sub-112,1,stroop_test,,
,,,,46.0,10.0,3.0,,,,,,,,,,,,,rot,red,r,1.0,r,1.0,0.9720018740044908,,,,,,,,,,3.0,10.0,46.0,1.0,294.8903602079954,,,,,,,,,,,,,,,,,294.8812543749809,295.2294189580716,296.0262737920275,296.0130859579658,,,,,,,,,,,,,,,,,,,,,,,,,,,,,,,,,,,296.0183438330423,296.0262737920275,296.0262737920275,297.0017973330105,r,1.0,0.9720018740044908,,,,,,sub-112,1,stroop_test,,
,,,,47.0,11.0,3.0,,,,,,,,,,,,,gelb,red,r,0.0,r,1.0,0.6534665409708396,,,,,,,,,,3.0,11.0,47.0,8.0,297.0152597919805,,,,,,,,,,,,,,,,,297.003422333044,297.3523150420515,298.14972833299544,298.1359181250445,,,,,,,,,,,,,,,,,,,,,,,,,,,,,,,,,,,298.14259104197845,298.14972833299544,298.14972833299544,298.81498437502887,r,1.0,0.6534665409708396,,,,,,sub-112,1,stroop_test,,
,,,,48.0,0.0,4.0,,,,,,,,,,,,,blau,blue,b,1.0,b,1.0,0.5529008739395067,,,,,,,,,,4.0,0.0,48.0,5.0,298.8288037079619,,,,,,,,,,,,,,,,,298.81596933305264,299.61263445799705,300.409306208021,300.3962945420062,,,,,,,,,,,,,,,,,,,,,,,,,,,,,,,,,,,300.4017557500629,300.409306208021,300.409306208021,300.9633783750469,b,1.0,0.5529008739395067,,,,,,sub-112,1,stroop_test,,
,,,,49.0,1.0,4.0,,,,,,,,,,,,,rot,red,r,1.0,b,0.0,0.4922625409672037,,,,,,,,,,4.0,1.0,49.0,0.0,300.9706182499649,,,,,,,,,,,,,,,,,300.9637394580059,301.05274920805823,301.84894108306617,301.83666220796295,,,,,,,,,,,,,,,,,,,,,,,,,,,,,,,,,,,301.84091741696466,301.84894108306617,301.84894108306617,302.3481225420255,b,0.0,0.4922625409672037,,,,,,sub-112,1,stroop_test,,
,,,,50.0,2.0,4.0,,,,,,,,,,,,,gelb,yellow,g,1.0,g,1.0,0.6195828740019351,,,,,,,,,,4.0,2.0,50.0,10.0,302.36080908298027,,,,,,,,,,,,,,,,,302.34969091706444,302.44442962505855,303.245553667075,303.22973412496503,,,,,,,,,,,,,,,,,,,,,,,,,,,,,,,,,,,303.23739116697107,303.245553667075,303.245553667075,303.88121016707737,g,1.0,0.6195828740019351,,,,,,sub-112,1,stroop_test,,
,,,,51.0,3.0,4.0,,,,,,,,,,,,,rot,blue,b,0.0,b,1.0,0.7456587080378085,,,,,,,,,,4.0,3.0,51.0,2.0,303.8962962500518,,,,,,,,,,,,,,,,,303.88206045806874,304.22934020799585,305.026333542075,305.01298562507145,,,,,,,,,,,,,,,,,,,,,,,,,,,,,,,,,,,305.01847416698,305.026333542075,305.026333542075,305.7809647920076,b,1.0,0.7456587080378085,,,,,,sub-112,1,stroop_test,,
,,,,52.0,4.0,4.0,,,,,,,,,,,,,blau,blue,b,1.0,b,1.0,1.2921848320402205,,,,,,,,,,4.0,4.0,52.0,6.0,305.79101525002625,,,,,,,,,,,,,,,,,305.78182854200713,306.14641866704915,306.94180174998473,306.92952050000895,,,,,,,,,,,,,,,,,,,,,,,,,,,,,,,,,,,306.93413629196584,306.94180174998473,306.94180174998473,308.238928708015,b,1.0,1.2921848320402205,,,,,,sub-112,1,stroop_test,,
,,,,53.0,5.0,4.0,,,,,,,,,,,,,blau,red,r,0.0,r,1.0,0.9039733320241794,,,,,,,,,,4.0,5.0,53.0,4.0,308.25099650002085,,,,,,,,,,,,,,,,,308.2402758749668,308.5855439170264,309.37779625004623,309.3701065829955,,,,,,,,,,,,,,,,,,,,,,,,,,,,,,,,,,,309.37081279198173,309.37779625004623,309.37779625004623,310.2873313750606,r,1.0,0.9039733320241794,,,,,,sub-112,1,stroop_test,,
,,,,54.0,6.0,4.0,,,,,,,,,,,,,gelb,red,r,0.0,r,1.0,0.839108123909682,,,,,,,,,,4.0,6.0,54.0,8.0,310.2979025830282,,,,,,,,,,,,,,,,,310.28796129196417,311.09492979198694,311.91263666702434,311.87960795802064,,,,,,,,,,,,,,,,,,,,,,,,,,,,,,,,,,,311.88802241696976,311.91263666702434,311.91263666702434,312.75544520805124,r,1.0,0.839108123909682,,,,,,sub-112,1,stroop_test,,
,,,,55.0,7.0,4.0,,,,,,,,,,,,,gelb,yellow,g,1.0,g,1.0,0.4881184990517795,,,,,,,,,,4.0,7.0,55.0,11.0,312.76693341706414,,,,,,,,,,,,,,,,,312.75679150002543,313.55286116700154,314.3556523750304,314.34624687500764,,,,,,,,,,,,,,,,,,,,,,,,,,,,,,,,,,,314.3476046670694,314.3556523750304,314.3556523750304,314.8473430830054,g,1.0,0.4881184990517795,,,,,,sub-112,1,stroop_test,,
,,,,56.0,8.0,4.0,,,,,,,,,,,,,gelb,blue,b,0.0,b,1.0,0.6772196659585461,,,,,,,,,,4.0,8.0,56.0,9.0,314.85817579203285,,,,,,,,,,,,,,,,,314.8482956250664,316.0457934580045,316.8385359579697,316.82961079198867,,,,,,,,,,,,,,,,,,,,,,,,,,,,,,,,,,,316.83095612504985,316.8385359579697,316.8385359579697,317.52094054198824,b,1.0,0.6772196659585461,,,,,,sub-112,1,stroop_test,,
,,,,57.0,9.0,4.0,,,,,,,,,,,,,rot,red,r,1.0,r,1.0,0.5755328749073669,,,,,,,,,,4.0,9.0,57.0,1.0,317.53175337496214,,,,,,,,,,,,,,,,,317.52180979202967,318.7187926250044,319.5191573749762,319.50209349999204,,,,,,,,,,,,,,,,,,,,,,,,,,,,,,,,,,,319.5108289170312,319.5191573749762,319.5191573749762,320.10302699997555,r,1.0,0.5755328749073669,,,,,,sub-112,1,stroop_test,,
,,,,58.0,10.0,4.0,,,,,,,,,,,,,blau,yellow,g,0.0,g,1.0,0.5700903329998255,,,,,,,,,,4.0,10.0,58.0,7.0,320.11434450000525,,,,,,,,,,,,,,,,,320.1086571670603,321.3032399170333,322.1114672080148,322.0965880000731,,,,,,,,,,,,,,,,,,,,,,,,,,,,,,,,,,,322.1031359579647,322.1114672080148,322.1114672080148,322.68729475000873,g,1.0,0.5700903329998255,,,,,,sub-112,1,stroop_test,,
,,,,59.0,11.0,4.0,,,,,,,,,,,,,rot,yellow,g,0.0,g,1.0,0.6410696239909157,,,,,,,,,,4.0,11.0,59.0,3.0,322.69811341702007,,,,,,,,,,,,,,,,,322.6879559999797,323.04607529204804,323.84242458303925,323.82961508305743,,,,,,,,,,,,,,,,,,,,,,,,,,,,,,,,,,,323.8345712920418,323.84242458303925,323.84242458303925,324.48692866705824,g,1.0,0.6410696239909157,,,,,,sub-112,1,stroop_test,,
,,,,60.0,0.0,5.0,,,,,,,,,,,,,rot,blue,b,0.0,b,1.0,0.7876209159148857,,,,,,,,,,5.0,0.0,60.0,2.0,324.4977215830004,,,,,,,,,,,,,,,,,324.48754662496503,324.83595091698226,325.62758125003893,325.6193180420669,,,,,,,,,,,,,,,,,,,,,,,,,,,,,,,,,,,325.6200424580602,325.62758125003893,325.62758125003893,326.41964220802765,b,1.0,0.7876209159148857,,,,,,sub-112,1,stroop_test,,
,,,,61.0,1.0,5.0,,,,,,,,,,,,,rot,red,r,1.0,r,1.0,0.6040120410034433,,,,,,,,,,5.0,1.0,61.0,0.0,326.4460321250372,,,,,,,,,,,,,,,,,326.42023150005843,326.5187044580234,327.3113988749683,327.3027667499846,,,,,,,,,,,,,,,,,,,,,,,,,,,,,,,,,,,327.30366874998435,327.3113988749683,327.3113988749683,327.91974495805334,r,1.0,0.6040120410034433,,,,,,sub-112,1,stroop_test,,
,,,,62.0,2.0,5.0,,,,,,,,,,,,,gelb,yellow,g,1.0,g,1.0,0.4233634159900248,,,,,,,,,,5.0,2.0,62.0,11.0,327.93148283299524,,,,,,,,,,,,,,,,,327.92075966706034,328.26942879206035,329.07898295798805,329.06274604203645,,,,,,,,,,,,,,,,,,,,,,,,,,,,,,,,,,,329.07039604196325,329.07898295798805,329.07898295798805,329.5149023750564,g,1.0,0.4233634159900248,,,,,,sub-112,1,stroop_test,,
,,,,63.0,3.0,5.0,,,,,,,,,,,,,blau,red,r,0.0,r,1.0,0.6254084570100531,,,,,,,,,,5.0,3.0,63.0,4.0,329.5255237079691,,,,,,,,,,,,,,,,,329.5159124999773,329.86251570796594,330.65882508305367,330.6460764580406,,,,,,,,,,,,,,,,,,,,,,,,,,,,,,,,,,,330.6511908749817,330.65882508305367,330.65882508305367,331.29789637506474,r,1.0,0.6254084570100531,,,,,,sub-112,1,stroop_test,,
,,,,64.0,4.0,5.0,,,,,,,,,,,,,rot,red,r,1.0,r,1.0,0.6100427909987047,,,,,,,,,,5.0,4.0,64.0,1.0,331.31164958304726,,,,,,,,,,,,,,,,,331.2988320830045,332.095713458024,332.9012449170696,332.88491979206447,,,,,,,,,,,,,,,,,,,,,,,,,,,,,,,,,,,332.8935041669756,332.9012449170696,332.9012449170696,333.5144917080179,r,1.0,0.6100427909987047,,,,,,sub-112,1,stroop_test,,
,,,,65.0,5.0,5.0,,,,,,,,,,,,,rot,yellow,g,0.0,g,1.0,0.6534499579574913,,,,,,,,,,5.0,5.0,65.0,3.0,333.5253746249946,,,,,,,,,,,,,,,,,333.5155909580644,334.7124829579843,335.5047052500304,335.4959544170415,,,,,,,,,,,,,,,,,,,,,,,,,,,,,,,,,,,335.4970986250555,335.5047052500304,335.5047052500304,336.16391025006305,g,1.0,0.6534499579574913,,,,,,sub-112,1,stroop_test,,
,,,,66.0,6.0,5.0,,,,,,,,,,,,,gelb,blue,b,0.0,b,1.0,0.5550797070609406,,,,,,,,,,5.0,6.0,66.0,9.0,336.1742165420437,,,,,,,,,,,,,,,,,336.1646012499696,336.26094854203984,337.06007570796646,337.0458412920125,,,,,,,,,,,,,,,,,,,,,,,,,,,,,,,,,,,337.05246895796154,337.06007570796646,337.06007570796646,337.6224126670277,b,1.0,0.5550797070609406,,,,,,sub-112,1,stroop_test,,
,,,,67.0,7.0,5.0,,,,,,,,,,,,,blau,blue,b,1.0,b,1.0,0.5771618329454213,,,,,,,,,,5.0,7.0,67.0,6.0,337.63298891705927,,,,,,,,,,,,,,,,,337.62343925004825,338.81993116706144,339.6289384170668,339.6127716670744,,,,,,,,,,,,,,,,,,,,,,,,,,,,,,,,,,,339.62080945796333,339.6289384170668,339.6289384170668,340.214007499977,b,1.0,0.5771618329454213,,,,,,sub-112,1,stroop_test,,
,,,,68.0,8.0,5.0,,,,,,,,,,,,,blau,blue,b,1.0,b,1.0,0.8419217909686267,,,,,,,,,,5.0,8.0,68.0,5.0,340.2259247499751,,,,,,,,,,,,,,,,,340.21527575002983,341.41269887506496,342.20507487503346,342.1963020419935,,,,,,,,,,,,,,,,,,,,,,,,,,,,,,,,,,,342.19778162497096,342.20507487503346,342.20507487503346,343.0539197920589,b,1.0,0.8419217909686267,,,,,,sub-112,1,stroop_test,,
,,,,69.0,9.0,5.0,,,,,,,,,,,,,gelb,yellow,g,1.0,g,1.0,0.6963780829682946,,,,,,,,,,5.0,9.0,69.0,10.0,343.0646027920302,,,,,,,,,,,,,,,,,343.05461674998514,343.8523179170443,344.6733582080342,344.64595195802394,,,,,,,,,,,,,,,,,,,,,,,,,,,,,,,,,,,344.6645982080372,344.6733582080342,344.6733582080342,345.38516741700005,g,1.0,0.6963780829682946,,,,,,sub-112,1,stroop_test,,
,,,,70.0,10.0,5.0,,,,,,,,,,,,,gelb,red,r,0.0,r,1.0,0.671270165941678,,,,,,,,,,5.0,10.0,70.0,8.0,345.3952017920092,,,,,,,,,,,,,,,,,345.3858952920418,346.58644041698426,347.38852333300747,347.37951050000265,,,,,,,,,,,,,,,,,,,,,,,,,,,,,,,,,,,347.3805096250726,347.38852333300747,347.38852333300747,348.0633792500012,r,1.0,0.671270165941678,,,,,,sub-112,1,stroop_test,,
,,,,71.0,11.0,5.0,,,,,,,,,,,,,blau,yellow,g,0.0,g,1.0,0.616122082923539,,,,,,,,,,5.0,11.0,71.0,7.0,348.07259025005624,,,,,,,,,,,,,,,,,348.0640591250267,348.8623832080048,349.66058662498835,349.6462655420182,,,,,,,,,,,,,,,,,,,,,,,,,,,,,,,,,,,349.6530106670689,349.66058662498835,349.66058662498835,350.28090358304325,g,1.0,0.616122082923539,,,,,,sub-112,1,stroop_test,,
,,,,72.0,0.0,6.0,,,,,,,,,,,,,gelb,yellow,g,1.0,g,1.0,0.5757482489570975,,,,,,,,,,6.0,0.0,72.0,11.0,350.29127383301966,,,,,,,,,,,,,,,,,350.28202254197095,350.3792431670008,351.1730063330615,351.1625524580013,,,,,,,,,,,,,,,,,,,,,,,,,,,,,,,,,,,351.1660413329955,351.1730063330615,351.1730063330615,351.75485970801674,g,1.0,0.5757482489570975,,,,,,sub-112,1,stroop_test,,
,,,,73.0,1.0,6.0,,,,,,,,,,,,,blau,blue,b,1.0,b,1.0,0.5494480829220265,,,,,,,,,,6.0,1.0,73.0,5.0,351.7655659170123,,,,,,,,,,,,,,,,,351.7557947080349,352.0959491250105,352.89922633301467,352.8803130000597,,,,,,,,,,,,,,,,,,,,,,,,,,,,,,,,,,,352.8915094580734,352.89922633301467,352.89922633301467,353.4530201670714,b,1.0,0.5494480829220265,,,,,,sub-112,1,stroop_test,,
,,,,74.0,2.0,6.0,,,,,,,,,,,,,rot,yellow,g,0.0,g,1.0,0.6956556659424677,,,,,,,,,,6.0,2.0,74.0,3.0,353.4793558330275,,,,,,,,,,,,,,,,,353.45361729199067,353.5448409579694,354.35153162502684,354.3291839580052,,,,,,,,,,,,,,,,,,,,,,,,,,,,,,,,,,,354.34115945803933,354.35153162502684,354.35153162502684,355.0530334999785,g,1.0,0.6956556659424677,,,,,,sub-112,1,stroop_test,,
,,,,75.0,3.0,6.0,,,,,,,,,,,,,blau,yellow,g,0.0,g,1.0,0.4588316660374403,,,,,,,,,,6.0,3.0,75.0,7.0,355.0641266669845,,,,,,,,,,,,,,,,,355.0537343750475,356.2529079579981,357.0697912500473,357.04646229196806,,,,,,,,,,,,,,,,,,,,,,,,,,,,,,,,,,,357.06332841701806,357.0697912500473,357.0697912500473,357.5307353329845,g,1.0,0.4588316660374403,,,,,,sub-112,1,stroop_test,,
,,,,76.0,4.0,6.0,,,,,,,,,,,,,rot,red,r,1.0,r,1.0,0.6178180410061032,,,,,,,,,,6.0,4.0,76.0,0.0,357.54112262499984,,,,,,,,,,,,,,,,,357.5315070420038,357.8792302920483,358.6767113750102,358.66225241706707,,,,,,,,,,,,,,,,,,,,,,,,,,,,,,,,,,,358.6691235420294,358.6767113750102,358.6767113750102,359.2973637500545,r,1.0,0.6178180410061032,,,,,,sub-112,1,stroop_test,,
,,,,77.0,5.0,6.0,,,,,,,,,,,,,rot,blue,b,0.0,b,1.0,0.3553259160835296,,,,,,,,,,6.0,5.0,77.0,2.0,359.30789083300624,,,,,,,,,,,,,,,,,359.2980665420182,360.49559499998577,361.2880908329971,361.27930466702674,,,,,,,,,,,,,,,,,,,,,,,,,,,,,,,,,,,361.28052658296656,361.2880908329971,361.2880908329971,361.6460514999926,b,1.0,0.3553259160835296,,,,,,sub-112,1,stroop_test,,
,,,,78.0,6.0,6.0,,,,,,,,,,,,,gelb,red,r,0.0,r,1.0,0.9258355830097572,,,,,,,,,,6.0,6.0,78.0,8.0,361.6522420420079,,,,,,,,,,,,,,,,,361.6464210000122,361.98578237497713,362.7804775830591,362.7683866670122,,,,,,,,,,,,,,,,,,,,,,,,,,,,,,,,,,,362.77251987496857,362.7804775830591,362.7804775830591,363.7138343750266,r,1.0,0.9258355830097572,,,,,,sub-112,1,stroop_test,,
,,,,79.0,7.0,6.0,,,,,,,,,,,,,rot,red,r,1.0,r,1.0,0.5460692499764264,,,,,,,,,,6.0,7.0,79.0,1.0,363.725149624981,,,,,,,,,,,,,,,,,363.7154686250724,364.911664083018,365.7082665000344,365.69595520803705,,,,,,,,,,,,,,,,,,,,,,,,,,,,,,,,,,,365.7012977079721,365.7082665000344,365.7082665000344,366.264105041977,r,1.0,0.5460692499764264,,,,,,sub-112,1,stroop_test,,
,,,,80.0,8.0,6.0,,,,,,,,,,,,,gelb,blue,b,0.0,b,1.0,0.7304323329590261,,,,,,,,,,6.0,8.0,80.0,9.0,366.2747280420736,,,,,,,,,,,,,,,,,366.2650349170435,366.6125194999622,367.4086965830065,367.3958419170231,,,,,,,,,,,,,,,,,,,,,,,,,,,,,,,,,,,367.4008898329921,367.4086965830065,367.4086965830065,368.1456585000269,b,1.0,0.7304323329590261,,,,,,sub-112,1,stroop_test,,
,,,,81.0,9.0,6.0,,,,,,,,,,,,,blau,blue,b,1.0,b,1.0,0.5255709579214454,,,,,,,,,,6.0,9.0,81.0,6.0,368.16222337505314,,,,,,,,,,,,,,,,,368.1462808749639,368.4856234170729,369.2926095830044,369.2792856669985,,,,,,,,,,,,,,,,,,,,,,,,,,,,,,,,,,,369.2850592919858,369.2926095830044,369.2926095830044,369.8301572500495,b,1.0,0.5255709579214454,,,,,,sub-112,1,stroop_test,,
,,,,82.0,10.0,6.0,,,,,,,,,,,,,gelb,yellow,g,1.0,g,1.0,0.6042102490318939,,,,,,,,,,6.0,10.0,82.0,10.0,369.8409665829968,,,,,,,,,,,,,,,,,369.8311622920446,371.0288739580428,371.8257486249786,371.8125311670592,,,,,,,,,,,,,,,,,,,,,,,,,,,,,,,,,,,371.8182296670275,371.8257486249786,371.8257486249786,372.43648654199205,g,1.0,0.6042102490318939,,,,,,sub-112,1,stroop_test,,
,,,,83.0,11.0,6.0,,,,,,,,,,,,,blau,red,r,0.0,r,1.0,0.5755382908973843,,,,,,,,,,6.0,11.0,83.0,4.0,372.44733025005553,,,,,,,,,,,,,,,,,372.43715187499765,373.23632891697343,374.04539970797487,374.0293726250529,,,,,,,,,,,,,,,,,,,,,,,,,,,,,,,,,,,374.0367496670224,374.04539970797487,374.04539970797487,374.6303891669959,r,1.0,0.5755382908973843,,,,,,sub-112,1,stroop_test,,
,,,,84.0,0.0,7.0,,,,,,,,,,,,,gelb,yellow,g,1.0,g,1.0,0.928906208020635,,,,,,,,,,7.0,0.0,84.0,11.0,374.6412970420206,,,,,,,,,,,,,,,,,374.63139975001104,374.9788214169676,375.7810513749719,375.7625455419766,,,,,,,,,,,,,,,,,,,,,,,,,,,,,,,,,,,375.773852000013,375.7810513749719,375.7810513749719,376.7204833329888,g,1.0,0.928906208020635,,,,,,sub-112,1,stroop_test,,
,,,,85.0,1.0,7.0,,,,,,,,,,,,,blau,blue,b,1.0,b,1.0,0.606592457043007,,,,,,,,,,7.0,1.0,85.0,5.0,376.7270789580653,,,,,,,,,,,,,,,,,376.7207959580701,376.8187880420592,377.6142308750423,377.6022425419651,,,,,,,,,,,,,,,,,,,,,,,,,,,,,,,,,,,377.6064327079803,377.6142308750423,377.6142308750423,378.2303554579848,b,1.0,0.606592457043007,,,,,,sub-112,1,stroop_test,,
,,,,86.0,2.0,7.0,,,,,,,,,,,,,gelb,red,r,0.0,r,1.0,1.3866906249895692,,,,,,,,,,7.0,2.0,86.0,8.0,378.24285345803946,,,,,,,,,,,,,,,,,378.2319574169815,379.0287945000455,379.8282157920767,379.81246533303056,,,,,,,,,,,,,,,,,,,,,,,,,,,,,,,,,,,379.81932516698726,379.8282157920767,379.8282157920767,381.2198254170362,r,1.0,1.3866906249895692,,,,,,sub-112,1,stroop_test,,
,,,,87.0,3.0,7.0,,,,,,,,,,,,,gelb,blue,b,0.0,b,1.0,0.6303377910517156,,,,,,,,,,7.0,3.0,87.0,9.0,381.2304173749872,,,,,,,,,,,,,,,,,381.22046066704206,381.3190991249867,382.1103575830348,382.10197595797945,,,,,,,,,,,,,,,,,,,,,,,,,,,,,,,,,,,382.102650374989,382.1103575830348,382.1103575830348,382.7468947500456,b,1.0,0.6303377910517156,,,,,,sub-112,1,stroop_test,,
,,,,88.0,4.0,7.0,,,,,,,,,,,,,gelb,yellow,g,1.0,g,1.0,0.5627826659474522,,,,,,,,,,7.0,4.0,88.0,10.0,382.7572586670285,,,,,,,,,,,,,,,,,382.7477250000229,382.85237233305816,383.64397512504365,383.6356856250204,,,,,,,,,,,,,,,,,,,,,,,,,,,,,,,,,,,383.6364699170226,383.64397512504365,383.64397512504365,384.2130113330204,g,1.0,0.5627826659474522,,,,,,sub-112,1,stroop_test,,
,,,,89.0,5.0,7.0,,,,,,,,,,,,,rot,blue,b,0.0,b,1.0,0.6825990410288796,,,,,,,,,,7.0,5.0,89.0,2.0,384.2232794170268,,,,,,,,,,,,,,,,,384.2137420000509,384.56183641706593,385.3580050830497,385.3455780419754,,,,,,,,,,,,,,,,,,,,,,,,,,,,,,,,,,,385.3499751250493,385.3580050830497,385.3580050830497,386.0467565420549,b,1.0,0.6825990410288796,,,,,,sub-112,1,stroop_test,,
,,,,90.0,6.0,7.0,,,,,,,,,,,,,rot,red,r,1.0,r,1.0,0.7054282909957692,,,,,,,,,,7.0,6.0,90.0,1.0,386.0570723749697,,,,,,,,,,,,,,,,,386.0476972500328,386.1455324169947,386.938222458004,386.9290732500376,,,,,,,,,,,,,,,,,,,,,,,,,,,,,,,,,,,386.9305170830339,386.938222458004,386.938222458004,387.6470874170773,r,1.0,0.7054282909957692,,,,,,sub-112,1,stroop_test,,
,,,,91.0,7.0,7.0,,,,,,,,,,,,,rot,red,r,1.0,r,1.0,0.5375492910388857,,,,,,,,,,7.0,7.0,91.0,0.0,387.6579174170038,,,,,,,,,,,,,,,,,387.6481360830367,388.4453507500002,389.2370883330004,389.22895079199225,,,,,,,,,,,,,,,,,,,,,,,,,,,,,,,,,,,389.2296657919651,389.2370883330004,389.2370883330004,389.7827385420678,r,1.0,0.5375492910388857,,,,,,sub-112,1,stroop_test,,
,,,,92.0,8.0,7.0,,,,,,,,,,,,,blau,blue,b,1.0,b,1.0,0.6192251660395414,,,,,,,,,,7.0,8.0,92.0,6.0,389.7944844580488,,,,,,,,,,,,,,,,,389.7836189999944,389.8779157500248,390.6783513330156,390.6624236250064,,,,,,,,,,,,,,,,,,,,,,,,,,,,,,,,,,,390.67036574997474,390.6783513330156,390.6783513330156,391.3030652920716,b,1.0,0.6192251660395414,,,,,,sub-112,1,stroop_test,,
,,,,93.0,9.0,7.0,,,,,,,,,,,,,blau,yellow,g,0.0,g,1.0,0.3788845830131322,,,,,,,,,,7.0,9.0,93.0,7.0,391.3136696669972,,,,,,,,,,,,,,,,,391.3037010000553,391.6512522919802,392.44356966705527,392.4348939170595,,,,,,,,,,,,,,,,,,,,,,,,,,,,,,,,,,,392.4359207920497,392.44356966705527,392.44356966705527,392.8299822920235,g,1.0,0.3788845830131322,,,,,,sub-112,1,stroop_test,,
,,,,94.0,10.0,7.0,,,,,,,,,,,,,blau,red,r,0.0,r,1.0,0.4065524160396307,,,,,,,,,,7.0,10.0,94.0,4.0,392.8423011250561,,,,,,,,,,,,,,,,,392.831511083059,392.92902354197577,393.720904582995,393.7122533330694,,,,,,,,,,,,,,,,,,,,,,,,,,,,,,,,,,,393.713418875006,393.720904582995,393.720904582995,394.1302682920359,r,1.0,0.4065524160396307,,,,,,sub-112,1,stroop_test,,
,,,,95.0,11.0,7.0,,,,,,,,,,,,,rot,yellow,g,0.0,g,1.0,0.4321342499461025,,,,,,,,,,7.0,11.0,95.0,3.0,394.1412630419945,,,,,,,,,,,,,,,,,394.13112141704187,394.9286637500627,395.7251832500333,395.71220337506384,,,,,,,,,,,,,,,,,,,,,,,,,,,,,,,,,,,395.7172149170656,395.7251832500333,395.7251832500333,396.16376004205085,g,1.0,0.4321342499461025,,,,,,sub-112,1,stroop_test,,
,,,,96.0,0.0,8.0,,,,,,,,,,,,,rot,yellow,g,0.0,g,1.0,0.7504771660314873,,,,,,,,,,8.0,0.0,96.0,3.0,396.1741558329668,,,,,,,,,,,,,,,,,396.1645728750154,396.51199387502857,397.3038505000295,397.29540641698986,,,,,,,,,,,,,,,,,,,,,,,,,,,,,,,,,,,397.29625870799646,397.3038505000295,397.3038505000295,398.0638158749789,g,1.0,0.7504771660314873,,,,,,sub-112,1,stroop_test,,
,,,,97.0,1.0,8.0,,,,,,,,,,,,,blau,blue,b,1.0,b,1.0,0.8120594159699976,,,,,,,,,,8.0,1.0,97.0,5.0,398.0746759580216,,,,,,,,,,,,,,,,,398.0648775830632,398.161740874988,398.9613612079993,398.9452338750707,,,,,,,,,,,,,,,,,,,,,,,,,,,,,,,,,,,398.95339699997567,398.9613612079993,398.9613612079993,399.78275966702495,b,1.0,0.8120594159699976,,,,,,sub-112,1,stroop_test,,
,,,,98.0,2.0,8.0,,,,,,,,,,,,,blau,yellow,g,0.0,g,1.0,0.7084017070010304,,,,,,,,,,8.0,2.0,98.0,7.0,399.7944965000497,,,,,,,,,,,,,,,,,399.7831475420389,399.8786258329637,400.6707249999745,400.6620364580304,,,,,,,,,,,,,,,,,,,,,,,,,,,,,,,,,,,400.6630667500431,400.6707249999745,400.6707249999745,401.38247716706246,g,1.0,0.7084017070010304,,,,,,sub-112,1,stroop_test,,
,,,,99.0,3.0,8.0,,,,,,,,,,,,,rot,red,r,1.0,b,0.0,0.6322403750382364,,,,,,,,,,8.0,3.0,99.0,1.0,401.3947471670108,,,,,,,,,,,,,,,,,401.3827418750152,401.72858854196966,402.5259506250732,402.5122063750168,,,,,,,,,,,,,,,,,,,,,,,,,,,,,,,,,,,402.5180219580652,402.5259506250732,402.5259506250732,403.1635575830005,b,0.0,0.6322403750382364,,,,,,sub-112,1,stroop_test,,
,,,,100.0,4.0,8.0,,,,,,,,,,,,,gelb,yellow,g,1.0,g,1.0,0.6328889989526942,,,,,,,,,,8.0,4.0,100.0,10.0,403.1726247500628,,,,,,,,,,,,,,,,,403.16461325006094,403.2616264170501,404.0584019579692,404.0454535000026,,,,,,,,,,,,,,,,,,,,,,,,,,,,,,,,,,,404.0508494169917,404.0584019579692,404.0584019579692,404.6964245829731,g,1.0,0.6328889989526942,,,,,,sub-112,1,stroop_test,,
,,,,101.0,5.0,8.0,,,,,,,,,,,,,gelb,yellow,g,1.0,g,1.0,0.6898593750083819,,,,,,,,,,8.0,5.0,101.0,11.0,404.70639991702046,,,,,,,,,,,,,,,,,404.6973075419664,405.0455093750497,405.8391998329898,405.8306926250225,,,,,,,,,,,,,,,,,,,,,,,,,,,,,,,,,,,405.83180350007024,405.8391998329898,405.8391998329898,406.53560445806943,g,1.0,0.6898593750083819,,,,,,sub-112,1,stroop_test,,
,,,,102.0,6.0,8.0,,,,,,,,,,,,,blau,red,r,0.0,r,1.0,0.8763025410007685,,,,,,,,,,8.0,6.0,102.0,4.0,406.5454959580675,,,,,,,,,,,,,,,,,406.53619891696144,406.637837999966,407.4426352080191,407.4288627919741,,,,,,,,,,,,,,,,,,,,,,,,,,,,,,,,,,,407.43494941701647,407.4426352080191,407.4426352080191,408.3296237919712,r,1.0,0.8763025410007685,,,,,,sub-112,1,stroop_test,,
,,,,103.0,7.0,8.0,,,,,,,,,,,,,rot,red,r,1.0,r,1.0,1.3575060829753056,,,,,,,,,,8.0,7.0,103.0,0.0,408.3397686249809,,,,,,,,,,,,,,,,,408.330411083065,409.1284152499866,409.92745520803146,409.9119933330221,,,,,,,,,,,,,,,,,,,,,,,,,,,,,,,,,,,409.9189303329913,409.92745520803146,409.92745520803146,411.29860674997326,r,1.0,1.3575060829753056,,,,,,sub-112,1,stroop_test,,
,,,,104.0,8.0,8.0,,,,,,,,,,,,,gelb,red,r,0.0,r,1.0,0.5820183739997447,,,,,,,,,,8.0,8.0,104.0,8.0,411.3102390000131,,,,,,,,,,,,,,,,,411.2996340419632,412.4950177080464,413.2968355000485,413.27940462506376,,,,,,,,,,,,,,,,,,,,,,,,,,,,,,,,,,,413.2896797920112,413.2968355000485,413.2968355000485,413.8928789580241,r,1.0,0.5820183739997447,,,,,,sub-112,1,stroop_test,,
,,,,105.0,9.0,8.0,,,,,,,,,,,,,blau,blue,b,1.0,b,1.0,0.7911440830212086,,,,,,,,,,8.0,9.0,105.0,6.0,413.9077334169997,,,,,,,,,,,,,,,,,413.8948885420105,414.6854411250679,415.4926950830268,415.4789120829664,,,,,,,,,,,,,,,,,,,,,,,,,,,,,,,,,,,415.4846705420641,415.4926950830268,415.4926950830268,416.2864201250486,b,1.0,0.7911440830212086,,,,,,sub-112,1,stroop_test,,
,,,,106.0,10.0,8.0,,,,,,,,,,,,,rot,blue,b,0.0,b,1.0,0.6783674570033327,,,,,,,,,,8.0,10.0,106.0,2.0,416.2934804169927,,,,,,,,,,,,,,,,,416.2867408329621,416.63515562505927,417.4393697920023,417.4188756670337,,,,,,,,,,,,,,,,,,,,,,,,,,,,,,,,,,,417.4279707079986,417.4393697920023,417.4393697920023,418.11891149997246,b,1.0,0.6783674570033327,,,,,,sub-112,1,stroop_test,,
,,,,107.0,11.0,8.0,,,,,,,,,,,,,gelb,blue,b,0.0,b,1.0,0.6060410409700125,,,,,,,,,,8.0,11.0,107.0,9.0,418.129924750072,,,,,,,,,,,,,,,,,418.1195826249896,418.91962645796593,419.7285464580637,419.71203241706826,,,,,,,,,,,,,,,,,,,,,,,,,,,,,,,,,,,419.7205031670164,419.7285464580637,419.7285464580637,420.3542499580653,b,1.0,0.6060410409700125,,,,,,sub-112,1,stroop_test,,
,,,,108.0,0.0,9.0,,,,,,,,,,,,,blau,yellow,g,0.0,g,1.0,1.430434916052036,,,,,,,,,,9.0,0.0,108.0,7.0,420.3658326669829,,,,,,,,,,,,,,,,,420.3558044170495,420.45215266698506,421.2481532919919,421.23542037501466,,,,,,,,,,,,,,,,,,,,,,,,,,,,,,,,,,,421.2405816250248,421.2481532919919,421.2481532919919,422.68959449999966,g,1.0,1.430434916052036,,,,,,sub-112,1,stroop_test,,
,,,,109.0,1.0,9.0,,,,,,,,,,,,,gelb,yellow,g,1.0,g,1.0,1.2873471239581704,,,,,,,,,,9.0,1.0,109.0,11.0,422.7113386250567,,,,,,,,,,,,,,,,,422.6901963750133,423.8856534169754,424.6811734170187,424.6687102919677,,,,,,,,,,,,,,,,,,,,,,,,,,,,,,,,,,,424.6738800830208,424.6811734170187,424.6811734170187,425.9803409170127,g,1.0,1.2873471239581704,,,,,,sub-112,1,stroop_test,,
,,,,110.0,2.0,9.0,,,,,,,,,,,,,gelb,yellow,g,1.0,g,1.0,0.6092981250258163,,,,,,,,,,9.0,2.0,110.0,10.0,425.9911928749643,,,,,,,,,,,,,,,,,425.9814855000004,426.7781560419826,427.5720966670197,427.5621142920572,,,,,,,,,,,,,,,,,,,,,,,,,,,,,,,,,,,427.5641812919639,427.5720966670197,427.5720966670197,428.1875294169877,g,1.0,0.6092981250258163,,,,,,sub-112,1,stroop_test,,
,,,,111.0,3.0,9.0,,,,,,,,,,,,,gelb,red,r,0.0,r,1.0,1.006183581892401,,,,,,,,,,9.0,3.0,111.0,8.0,428.19870425004046,,,,,,,,,,,,,,,,,428.1887696670601,428.2860796670429,429.0861935829744,429.0784303330584,,,,,,,,,,,,,,,,,,,,,,,,,,,,,,,,,,,429.0791782500455,429.0861935829744,429.0861935829744,430.0962520419853,r,1.0,1.006183581892401,,,,,,sub-112,1,stroop_test,,
,,,,112.0,4.0,9.0,,,,,,,,,,,,,blau,blue,b,1.0,b,1.0,0.6205166659783572,,,,,,,,,,9.0,4.0,112.0,5.0,430.1065435829805,,,,,,,,,,,,,,,,,430.097067625029,430.8949097499717,431.6947921670508,431.678609375027,,,,,,,,,,,,,,,,,,,,,,,,,,,,,,,,,,,431.6868026250741,431.6947921670508,431.6947921670508,432.3196471669944,b,1.0,0.6205166659783572,,,,,,sub-112,1,stroop_test,,
,,,,113.0,5.0,9.0,,,,,,,,,,,,,blau,blue,b,1.0,b,1.0,0.4459958749357611,,,,,,,,,,9.0,5.0,113.0,6.0,432.33000037504826,,,,,,,,,,,,,,,,,432.3203024580144,432.4166490830248,433.2102727079764,433.20110912504606,,,,,,,,,,,,,,,,,,,,,,,,,,,,,,,,,,,433.20199695799965,433.2102727079764,433.2102727079764,433.6633289169986,b,1.0,0.4459958749357611,,,,,,sub-112,1,stroop_test,,
,,,,114.0,6.0,9.0,,,,,,,,,,,,,blau,red,r,0.0,r,1.0,0.6153477909974754,,,,,,,,,,9.0,6.0,114.0,4.0,433.67820370802656,,,,,,,,,,,,,,,,,433.6640942919767,433.7615570420167,434.56147441698704,434.5456368330633,,,,,,,,,,,,,,,,,,,,,,,,,,,,,,,,,,,434.5466128330445,434.56147441698704,434.56147441698704,435.1798239579657,r,1.0,0.6153477909974754,,,,,,sub-112,1,stroop_test,,
,,,,115.0,7.0,9.0,,,,,,,,,,,,,rot,yellow,g,0.0,g,1.0,0.8511638739146292,,,,,,,,,,9.0,7.0,115.0,3.0,435.1903382500168,,,,,,,,,,,,,,,,,435.180860708002,435.9784904579865,436.7759121670388,436.7620641250396,,,,,,,,,,,,,,,,,,,,,,,,,,,,,,,,,,,436.7672557079932,436.7759121670388,436.7759121670388,437.62975958304014,g,1.0,0.8511638739146292,,,,,,sub-112,1,stroop_test,,
,,,,116.0,8.0,9.0,,,,,,,,,,,,,rot,blue,b,0.0,r,0.0,0.6980682910652831,,,,,,,,,,9.0,8.0,116.0,2.0,437.6404699999839,,,,,,,,,,,,,,,,,437.6309260830749,438.42755024996586,439.2199873330537,439.21132362505887,,,,,,,,,,,,,,,,,,,,,,,,,,,,,,,,,,,439.2135530830128,439.2199873330537,439.2199873330537,439.9325709170662,r,0.0,0.6980682910652831,,,,,,sub-112,1,stroop_test,,
,,,,117.0,9.0,9.0,,,,,,,,,,,,,gelb,blue,b,0.0,b,1.0,2.993438623961993,,,,,,,,,,9.0,9.0,117.0,9.0,439.9467159580672,,,,,,,,,,,,,,,,,439.9343387499685,441.1281024579657,441.926397375064,441.917103499989,,,,,,,,,,,,,,,,,,,,,,,,,,,,,,,,,,,441.920755041996,441.926397375064,441.926397375064,444.93096287501976,b,1.0,2.993438623961993,,,,,,sub-112,1,stroop_test,,
,,,,118.0,10.0,9.0,,,,,,,,,,,,,rot,red,r,1.0,r,1.0,0.6171306238975376,,,,,,,,,,9.0,10.0,118.0,1.0,444.9437871250557,,,,,,,,,,,,,,,,,444.93264654197264,445.7450461670524,446.5450677920599,446.5284492500359,,,,,,,,,,,,,,,,,,,,,,,,,,,,,,,,,,,446.5363540829858,446.5450677920599,446.5450677920599,447.1687572919764,r,1.0,0.6171306238975376,,,,,,sub-112,1,stroop_test,,
,,,,119.0,11.0,9.0,,,,,,,,,,,,,rot,red,r,1.0,r,1.0,0.7452770830132067,,,,,,,,,,9.0,11.0,119.0,0.0,447.1947254170664,,,,,,,,,,,,,,,,,447.1693750419654,448.3688628750388,449.15991791698616,449.15153633302543,,,,,,,,,,,,,,,,,,,,,,,,,,,,,,,,,,,449.15223170805257,449.15991791698616,449.15991791698616,449.9136276670033,r,1.0,0.7452770830132067,,,,,,sub-112,1,stroop_test,,
,,,,,,,,,,,,,,,,,,,,,,,,,,,,,,,,,,,,,,,,,,,,,,,,,,,,,,,,,,,,,,,,,,,,,,,,,,,,,,,,,,,,,,,,,,,,,,,,,,,,,,449.9142362499842,449.9287718330743,454.9183474580059,454.91241566697136,sub-112,1,stroop_test,,
