wordCTK,colorCTK,corrAnsCTK,congruentCTK,wordPractice,colorPractice,corrAnsPractice,congruentPractice,word,color,corrAns,congruent,trials_CTK.thisRepN,trials_CTK.thisTrialN,trials_CTK.thisN,trials_CTK.thisIndex,trials_practice.thisRepN,trials_practice.thisTrialN,trials_practice.thisN,trials_practice.thisIndex,trials_test.thisRepN,trials_test.thisTrialN,trials_test.thisN,trials_test.thisIndex,thisRow.t,notes,instruction.started,instr_text.started,instr_image.started,instr_resp.started,instruction.stopped,instr_resp.keys,instr_resp.rt,instr_resp.duration,instr_color_to_key.started,instr_ctk.started,resp_ctk.started,instr_color_to_key.stopped,resp_ctk.keys,resp_ctk.rt,resp_ctk.duration,ITI.started,fixcross.started,fixcross.stopped,ITI.stopped,color_to_key_run.started,stimulus_CTK.started,keyResp_CTK.started,color_to_key_run.stopped,keyResp_CTK.keys,keyResp_CTK.corr,keyResp_CTK.rt,keyResp_CTK.duration,instr_practice.started,instr_practice_text.started,instr_practice_resp.started,instr_practice.stopped,instr_practice_resp.keys,instr_practice_resp.rt,instr_practice_resp.duration,practice_run.started,stimulus_practice.started,respPractice.started,practice_run.stopped,respPractice.keys,respPractice.corr,respPractice.rt,respPractice.duration,feedback.started,textFeedback.started,textFeedback.stopped,feedback.stopped,instr_test.started,instr_test_text.started,instr_test_resp.started,instr_test.stopped,instr_test_resp.keys,instr_test_resp.rt,instr_test_resp.duration,test_run.started,stimulus_test_run.started,keyResp_test_run.started,test_run.stopped,keyResp_test_run.keys,keyResp_test_run.corr,keyResp_test_run.rt,keyResp_test_run.duration,goodbye.started,textGoodbye.started,goodbye.stopped,participant,session,expName,frameRate,Unnamed: 97
,,,,,,,,,,,,,,,,,,,,,,,,,,0.0056323999306187,0.0387380999745801,0.0387380999745801,0.0387380999745801,28.69780179997906,space,28.6467563000042,,,,,,,,,,,,,,,,,,,,,,,,,,,,,,,,,,,,,,,,,,,,,,,,,,,,,,,,,,sub-151,1.0,stroop_test,59.80614437744572,
,,,,,,,,,,,,,,,,,,,,,,,,,,,,,,,,,,28.69783419999294,28.71916560002137,28.71916560002137,37.29138019995298,space,8.56215900008101,,,,,,,,,,,,,,,,,,,,,,,,,,,,,,,,,,,,,,,,,,,,,,,,,,,sub-151,1.0,stroop_test,59.80614437744572,
test,yellow,g,1.0,,,,,,,,,0.0,0.0,0.0,1.0,,,,,,,,,37.321372799924575,,,,,,,,,,,,,,,,,37.3146636999445,37.4070434999885,38.20633730001282,38.19019190000836,38.19020620000083,38.20633730001282,38.20633730001282,42.1223808999639,g,1.0,3.912018100032583,,,,,,,,,,,,,,,,,,,,,,,,,,,,,,,,,,,,,,,sub-151,1.0,stroop_test,59.80614437744572,
test,blue,b,1.0,,,,,,,,,0.0,1.0,1.0,2.0,,,,,,,,,42.13727339997422,,,,,,,,,,,,,,,,,42.126177500002086,42.93690999993123,43.736140699940734,43.72016799997073,43.72018109995406,43.736140699940734,43.736140699940734,44.33643179992214,b,1.0,0.5899915000190958,,,,,,,,,,,,,,,,,,,,,,,,,,,,,,,,,,,,,,,sub-151,1.0,stroop_test,59.80614437744572,
test,red,r,1.0,,,,,,,,,0.0,2.0,2.0,0.0,,,,,,,,,44.35281339997891,,,,,,,,,,,,,,,,,44.33686799998395,45.55185759998858,46.3511083999183,46.33484469994437,46.33485809992999,46.3511083999183,46.3511083999183,47.06914729997516,r,1.0,0.7153967000776902,,,,,,,,,,,,,,,,,,,,,,,,,,,,,,,,,,,,,,,sub-151,1.0,stroop_test,59.80614437744572,
test,red,r,1.0,,,,,,,,,1.0,0.0,3.0,0.0,,,,,,,,,47.08413249999285,,,,,,,,,,,,,,,,,47.06958629994188,47.8835583999753,48.68283599999268,48.66686659993138,48.666879999917,48.68283599999268,48.68283599999268,49.38333270000294,r,1.0,0.6902816999936476,,,,,,,,,,,,,,,,,,,,,,,,,,,,,,,,,,,,,,,sub-151,1.0,stroop_test,59.80614437744572,
test,yellow,g,1.0,,,,,,,,,1.0,1.0,4.0,1.0,,,,,,,,,49.399201299995184,,,,,,,,,,,,,,,,,49.38377459999174,50.598007699940354,51.39774689998012,51.38173259992618,51.38174480001908,51.39774689998012,51.39774689998012,52.26512420002837,g,1.0,0.8646089000394568,,,,,,,,,,,,,,,,,,,,,,,,,,,,,,,,,,,,,,,sub-151,1.0,stroop_test,59.80614437744572,
test,blue,b,1.0,,,,,,,,,1.0,2.0,5.0,2.0,,,,,,,,,52.28060249995906,,,,,,,,,,,,,,,,,52.265614099917,53.479754899977706,54.27900069998577,54.26278150000144,54.262794099980965,54.27900069998577,54.27900069998577,54.64627499994822,b,1.0,0.3642674000002444,,,,,,,,,,,,,,,,,,,,,,,,,,,,,,,,,,,,,,,sub-151,1.0,stroop_test,59.80614437744572,
test,yellow,g,1.0,,,,,,,,,2.0,0.0,6.0,1.0,,,,,,,,,54.66235370002687,,,,,,,,,,,,,,,,,54.64677320001647,55.46181929996237,56.26105249999091,56.245212299982086,56.24522639997304,56.26105249999091,56.26105249999091,56.79461630003061,g,1.0,0.5241065999725834,,,,,,,,,,,,,,,,,,,,,,,,,,,,,,,,,,,,,,,sub-151,1.0,stroop_test,59.80614437744572,
test,red,r,1.0,,,,,,,,,2.0,1.0,7.0,0.0,,,,,,,,,56.81050299992785,,,,,,,,,,,,,,,,,56.79510979994666,58.01016369997524,58.8094860999845,58.79354709992185,58.79356649995316,58.8094860999845,58.8094860999845,59.26017090003006,r,1.0,0.4370306000346318,,,,,,,,,,,,,,,,,,,,,,,,,,,,,,,,,,,,,,,sub-151,1.0,stroop_test,59.80614437744572,
test,blue,b,1.0,,,,,,,,,2.0,2.0,8.0,2.0,,,,,,,,,59.27596699993592,,,,,,,,,,,,,,,,,59.260668399976566,60.47514220001176,61.27437130000908,61.25860669999384,61.258622299996205,61.27437130000908,61.27437130000908,62.10830249998253,b,1.0,0.8230865999357775,,,,,,,,,,,,,,,,,,,,,,,,,,,,,,,,,,,,,,,sub-151,1.0,stroop_test,59.80614437744572,
test,yellow,g,1.0,,,,,,,,,3.0,0.0,9.0,1.0,,,,,,,,,62.12417039996944,,,,,,,,,,,,,,,,,62.10880039993208,63.32343150000088,64.12258289998863,64.10683089995291,64.10684389993548,64.12258289998863,64.12258289998863,64.94049780000933,g,1.0,0.8142991999629885,,,,,,,,,,,,,,,,,,,,,,,,,,,,,,,,,,,,,,,sub-151,1.0,stroop_test,59.80614437744572,
test,blue,b,1.0,,,,,,,,,3.0,1.0,10.0,2.0,,,,,,,,,64.95531370001845,,,,,,,,,,,,,,,,,64.94103320001159,65.30542350001633,66.10471350001171,66.08879219996743,66.08880619995762,66.10471350001171,66.10471350001171,66.82225690002088,b,1.0,0.7093525999225676,,,,,,,,,,,,,,,,,,,,,,,,,,,,,,,,,,,,,,,sub-151,1.0,stroop_test,59.80614437744572,
test,red,r,1.0,,,,,,,,,3.0,2.0,11.0,0.0,,,,,,,,,66.83741699997336,,,,,,,,,,,,,,,,,66.82293659995776,66.93731139996089,67.73699290002696,67.72075610002503,67.72076930000912,67.73699290002696,67.73699290002696,68.85386419994757,r,1.0,1.1112552999984473,,,,,,,,,,,,,,,,,,,,,,,,,,,,,,,,,,,,,,,sub-151,1.0,stroop_test,59.80614437744572,
,,,,,,,,,,,,,,,,,,,,,,,,,,,,,,,,,,,,,,,,,,,,,,,,,,,,,68.85444579995237,68.86966419999953,68.86966419999953,74.18324439995922,space,5.30637109989766,,,,,,,,,,,,,,,,,,,,,,,,,,,,,,,,sub-151,1.0,stroop_test,59.80614437744572,
,,,,blau,yellow,g,0.0,,,,,,,,,0.0,0.0,0.0,7.0,,,,,74.19911379995756,,,,,,,,,,,,,,,,,74.18921320000663,74.9821540999692,75.78168559994083,75.76538250001613,,,,,,,,,,,,,,,,75.76539519999642,75.78168559994083,75.78168559994083,76.44896429998334,b,0.0,0.6628364000935107,,76.44940469996072,76.4645862999605,77.46400789998006,77.44798079994507,,,,,,,,,,,,,,,,,,,sub-151,1.0,stroop_test,59.80614437744572,
,,,,rot,red,r,1.0,,,,,,,,,0.0,1.0,1.0,1.0,,,,,77.46400789998006,,,,,,,,,,,,,,,,,77.44842199992854,77.56367129995488,78.36330949992407,78.34701259993017,,,,,,,,,,,,,,,,78.34702540002763,78.36330949992407,78.36330949992407,79.26334419997875,r,1.0,0.8845717000076547,,79.26369239995256,79.27905989997089,80.27873569994699,80.26272719993722,,,,,,,,,,,,,,,,,,,sub-151,1.0,stroop_test,59.80614437744572,
,,,,gelb,blue,b,0.0,,,,,,,,,0.0,2.0,2.0,9.0,,,,,80.27873569994699,,,,,,,,,,,,,,,,,80.26298130000941,80.3789245999651,81.17786619998515,81.16197799996007,,,,,,,,,,,,,,,,81.16199029993732,81.17786619998515,81.17786619998515,81.76169039995875,b,1.0,0.5764217999530956,,81.76200829993468,81.77739539998583,82.77718720003031,82.76105269999243,,,,,,,,,,,,,,,,,,,sub-151,1.0,stroop_test,59.80614437744572,
,,,,gelb,yellow,g,1.0,,,,,,,,,0.0,3.0,3.0,10.0,,,,,82.77718720003031,,,,,,,,,,,,,,,,,82.7612912999466,83.12658949999604,83.92596120003145,83.9098203999456,,,,,,,,,,,,,,,,83.90983399993274,83.92596120003145,83.92596120003145,84.50980100000743,g,1.0,0.5702673000050709,,84.5101387000177,84.52560169994831,85.5253029000014,85.50923209998291,,,,,,,,,,,,,,,,,,,sub-151,1.0,stroop_test,59.80614437744572,
,,,,gelb,yellow,g,1.0,,,,,,,,,0.0,4.0,4.0,11.0,,,,,85.5253029000014,,,,,,,,,,,,,,,,,85.50954539992381,85.62482419994194,86.42428739997558,86.4086705999216,,,,,,,,,,,,,,,,86.40868539991789,86.42428739997558,86.42428739997558,87.17478709993884,g,1.0,0.7365498000290245,,87.17513280001003,87.19074069999624,88.19021059991792,88.1740381999407,,,,,,,,,,,,,,,,,,,sub-151,1.0,stroop_test,59.80614437744572,
,,,,blau,blue,b,1.0,,,,,,,,,0.0,5.0,5.0,6.0,,,,,88.19021059991792,,,,,,,,,,,,,,,,,88.17427409999073,89.38955600000918,90.18842979997862,90.17258010001387,,,,,,,,,,,,,,,,90.17261359991971,90.18842979997862,90.18842979997862,90.58943659998477,b,1.0,0.3841108999913558,,90.58973989996592,90.60526580002625,91.6042138999328,91.58834499993829,,,,,,,,,,,,,,,,,,,sub-151,1.0,stroop_test,59.80614437744572,
,,,,rot,blue,b,0.0,,,,,,,,,0.0,6.0,6.0,2.0,,,,,91.6042138999328,,,,,,,,,,,,,,,,,91.58857919997536,91.70438260002992,92.50383219996002,92.48797899996862,,,,,,,,,,,,,,,,92.48799179994968,92.50383219996002,92.50383219996002,93.48763739992864,g,0.0,0.970204300014302,,93.4879871000303,93.50355110003149,,94.50283419992776,,,,,,,,,,,,,,,,,,,sub-151,1.0,stroop_test,59.80614437744572,
,,,,gelb,red,r,0.0,,,,,,,,,0.0,7.0,7.0,8.0,,,,,94.51915850001387,,,,,,,,,,,,,,,,,94.50323339994064,94.8524565999396,95.65158659999724,95.63572809996548,,,,,,,,,,,,,,,,95.63574739999603,95.65158659999724,95.65158659999724,96.9019214999862,r,1.0,1.2464628999587148,,96.90222149994224,96.91733879991808,97.9168332000263,97.90100780001376,,,,,,,,,,,,,,,,,,,sub-151,1.0,stroop_test,59.80614437744572,
,,,,rot,yellow,g,0.0,,,,,,,,,0.0,8.0,8.0,3.0,,,,,97.9168332000263,,,,,,,,,,,,,,,,,97.90124529995956,98.01694839994887,98.81644019996747,98.80043189995922,,,,,,,,,,,,,,,,98.80044609995092,98.81644019996747,98.81644019996747,99.78348729992284,g,1.0,0.953651100047864,,99.78378729999532,99.7990099999588,100.79851939994842,100.78244630002882,,,,,,,,,,,,,,,,,,,sub-151,1.0,stroop_test,59.80614437744572,
,,,,blau,red,r,0.0,,,,,,,,,0.0,9.0,9.0,4.0,,,,,100.79851939994842,,,,,,,,,,,,,,,,,100.78268429997844,101.99739489995407,102.79710229998454,102.78115069994236,,,,,,,,,,,,,,,,102.78116369992496,102.79710229998454,102.79710229998454,103.71384749992284,r,1.0,0.9005175000056624,,103.71417639998252,103.7298725999426,104.72901899996214,104.712757900008,,,,,,,,,,,,,,,,,,,sub-151,1.0,stroop_test,59.80614437744572,
,,,,blau,blue,b,1.0,,,,,,,,,0.0,10.0,10.0,5.0,,,,,104.72901899996214,,,,,,,,,,,,,,,,,104.71299599995837,105.9279816999333,106.72762899997178,106.71163619996514,,,,,,,,,,,,,,,,106.71164859994316,106.72762899997178,106.72762899997178,107.59441989997867,b,1.0,0.8542315000668168,,107.59476250002626,107.6102032000199,108.60996729996988,108.59386779996566,,,,,,,,,,,,,,,,,,,sub-151,1.0,stroop_test,59.80614437744572,
,,,,rot,red,r,1.0,,,,,,,,,0.0,11.0,11.0,0.0,,,,,108.60996729996988,,,,,,,,,,,,,,,,,108.59413380001206,108.71009239996783,109.52592059993184,109.51037399994676,,,,,,,,,,,,,,,,109.51038739993236,109.52592059993184,109.52592059993184,110.4430197000038,r,1.0,0.9037472999189048,,110.44335539999884,110.45864989992695,111.45803939993492,111.44203759997616,,,,,,,,,,,,,,,,,,,sub-151,1.0,stroop_test,59.80614437744572,
,,,,gelb,yellow,g,1.0,,,,,,,,,1.0,0.0,12.0,10.0,,,,,111.45803939993492,,,,,,,,,,,,,,,,,111.44229199993424,112.2575414000312,113.05669599992687,113.04088570002932,,,,,,,,,,,,,,,,113.04089990002105,113.05669599992687,113.05669599992687,113.80732799996622,g,1.0,0.740106699988246,,113.80765019997489,113.82306139997672,114.82241050002632,114.80650639999658,,,,,,,,,,,,,,,,,,,sub-151,1.0,stroop_test,59.80614437744572,
,,,,rot,blue,b,0.0,,,,,,,,,1.0,1.0,13.0,2.0,,,,,114.82241050002632,,,,,,,,,,,,,,,,,114.80675879993942,115.62195259996224,116.4214260999579,116.405425200006,,,,,,,,,,,,,,,,116.40543919999618,116.4214260999579,116.4214260999579,117.1051570000127,b,1.0,0.6744803000474349,,117.10547219996806,117.1206551999785,118.12031939998268,118.10435839998536,,,,,,,,,,,,,,,,,,,sub-151,1.0,stroop_test,59.80614437744572,
,,,,rot,yellow,g,0.0,,,,,,,,,1.0,2.0,14.0,3.0,,,,,118.12031939998268,,,,,,,,,,,,,,,,,118.10471019998658,119.3194695999846,120.11882049997804,120.10302179993596,,,,,,,,,,,,,,,,120.10303629992995,120.11882049997804,120.11882049997804,120.96917749999557,g,1.0,0.8399016000330448,,120.96949119993953,120.9848676000256,121.98454710002989,121.9685989000136,,,,,,,,,,,,,,,,,,,sub-151,1.0,stroop_test,59.80614437744572,
,,,,rot,red,r,1.0,,,,,,,,,1.0,3.0,15.0,1.0,,,,,121.98454710002989,,,,,,,,,,,,,,,,,121.96888279996348,122.7838641999988,123.5829452999169,123.56701689993496,,,,,,,,,,,,,,,,123.56703169993123,123.5829452999169,123.5829452999169,124.85002449993044,r,1.0,1.2531633999897167,,124.85032800002956,124.8658089999808,125.86524770001417,125.84913119999692,,,,,,,,,,,,,,,,,,,sub-151,1.0,stroop_test,59.80614437744572,
,,,,blau,blue,b,1.0,,,,,,,,,1.0,4.0,16.0,5.0,,,,,125.86524770001417,,,,,,,,,,,,,,,,,125.8493699999526,126.66469579993282,127.46409080002924,127.4479105999926,,,,,,,,,,,,,,,,127.44792339997366,127.46409080002924,127.46409080002924,128.29736119997688,b,1.0,0.8204928999766707,,128.29765860002954,128.3131605000235,129.312918099924,129.29691759997513,,,,,,,,,,,,,,,,,,,sub-151,1.0,stroop_test,59.80614437744572,
,,,,gelb,blue,b,0.0,,,,,,,,,1.0,5.0,17.0,9.0,,,,,129.312918099924,,,,,,,,,,,,,,,,,129.2971553999232,129.66289049992338,130.4620991999982,130.44606129999738,,,,,,,,,,,,,,,,130.44609169999603,130.4620991999982,130.4620991999982,131.1455504000187,b,1.0,0.6785063000861555,,131.14585039997473,131.16136489994824,132.1610685000196,132.14512469992042,,,,,,,,,,,,,,,,,,,sub-151,1.0,stroop_test,59.80614437744572,
,,,,rot,red,r,1.0,,,,,,,,,1.0,6.0,18.0,0.0,,,,,132.1610685000196,,,,,,,,,,,,,,,,,132.14536419999786,132.96012309996877,133.76009919994976,133.74409269995522,,,,,,,,,,,,,,,,133.74410599994007,133.76009919994976,133.76009919994976,134.41012010001575,r,1.0,0.6364412000402808,,134.41044929996133,134.42586469999517,135.42544579994865,135.40910769999027,,,,,,,,,,,,,,,,,,,sub-151,1.0,stroop_test,59.80614437744572,
,,,,blau,red,r,0.0,,,,,,,,,1.0,7.0,19.0,4.0,,,,,135.42544579994865,,,,,,,,,,,,,,,,,135.40935480000917,135.52519999991637,136.32495859998744,136.3088071999373,,,,,,,,,,,,,,,,136.3088200999191,136.32495859998744,136.32495859998744,137.24179380002897,b,0.0,0.9037234999705106,,137.24214450002182,137.2578419999918,138.2569239999866,138.2409703999292,,,,,,,,,,,,,,,,,,,sub-151,1.0,stroop_test,59.80614437744572,
,,,,gelb,red,r,0.0,,,,,,,,,1.0,8.0,20.0,8.0,,,,,138.2569239999866,,,,,,,,,,,,,,,,,138.24126109993085,139.0566763000097,139.8555773999542,139.83955309994053,,,,,,,,,,,,,,,,139.83956589992158,139.8555773999542,139.8555773999542,140.67278060002718,g,0.0,0.8118557999841869,,140.67307559994515,140.6886057999218,141.6880034999922,141.6719802999869,,,,,,,,,,,,,,,,,,,sub-151,1.0,stroop_test,59.80614437744572,
,,,,blau,blue,b,1.0,,,,,,,,,1.0,9.0,21.0,6.0,,,,,141.6880034999922,,,,,,,,,,,,,,,,,141.67224069999065,141.7879048000323,142.58769149996806,142.57116129994392,,,,,,,,,,,,,,,,142.57117569993716,142.58769149996806,142.58769149996806,144.40357570000924,b,1.0,1.808833900024183,,144.4038735999493,144.4194716999773,145.4186105999397,145.402800599928,,,,,,,,,,,,,,,,,,,sub-151,1.0,stroop_test,59.80614437744572,
,,,,blau,yellow,g,0.0,,,,,,,,,1.0,10.0,22.0,7.0,,,,,145.4186105999397,,,,,,,,,,,,,,,,,145.40308209997602,146.61818510002922,147.41763019992504,147.40198389999568,,,,,,,,,,,,,,,,147.40200509992428,147.41763019992504,147.41763019992504,148.26847040001303,g,1.0,0.8469399999594316,,148.2687723999843,148.28362290002406,149.28301429993007,149.26689780002926,,,,,,,,,,,,,,,,,,,sub-151,1.0,stroop_test,59.80614437744572,
,,,,gelb,yellow,g,1.0,,,,,,,,,1.0,11.0,23.0,11.0,,,,,149.28301429993007,,,,,,,,,,,,,,,,,149.26713599998038,149.3829525000183,150.182426400017,150.16646949993446,,,,,,,,,,,,,,,,150.1665090000024,150.182426400017,150.182426400017,151.01619619992562,g,1.0,0.8294137000339106,,151.0164867999265,151.03202649997547,152.03084849996958,152.0152945999289,,,,,,,,,,,,,,,,,,,sub-151,1.0,stroop_test,59.80614437744572,
,,,,,,,,,,,,,,,,,,,,,,,,,,,,,,,,,,,,,,,,,,,,,,,,,,,,,,,,,,,,,,,,,,,,,,,,152.01535909995437,152.03084849996958,152.03084849996958,155.9960543999914,space,3.954884300008416,,,,,,,,,,,,,sub-151,1.0,stroop_test,59.80614437744572,
,,,,,,,,blau,blue,b,1.0,,,,,,,,,0.0,0.0,0.0,5.0,156.01191729994025,,,,,,,,,,,,,,,,,156.00197300000582,157.2111154999584,158.01028789998963,157.9946383999195,,,,,,,,,,,,,,,,,,,,,,,,,,,,,,,,,,,157.99465100001544,158.01028789998963,158.01028789998963,158.7612554000225,b,1.0,0.749280699994415,,,,,sub-151,1.0,stroop_test,59.80614437744572,
,,,,,,,,gelb,red,r,0.0,,,,,,,,,0.0,1.0,1.0,8.0,158.77648599992972,,,,,,,,,,,,,,,,,158.76199229992926,159.97601470001973,160.77534930000547,160.75929439999163,,,,,,,,,,,,,,,,,,,,,,,,,,,,,,,,,,,160.75930669996887,160.77534930000547,160.77534930000547,161.5257342000259,r,1.0,0.7431844000238925,,,,,sub-151,1.0,stroop_test,59.80614437744572,
,,,,,,,,gelb,blue,b,0.0,,,,,,,,,0.0,2.0,2.0,9.0,161.54168639995623,,,,,,,,,,,,,,,,,161.52621949999593,162.740772799938,163.54048740002327,163.524035200011,,,,,,,,,,,,,,,,,,,,,,,,,,,,,,,,,,,163.52405030000955,163.54048740002327,163.54048740002327,164.24036719999276,b,1.0,0.6893082000315189,,,,,sub-151,1.0,stroop_test,59.80614437744572,
,,,,,,,,rot,yellow,g,0.0,,,,,,,,,0.0,3.0,3.0,3.0,164.25615619996097,,,,,,,,,,,,,,,,,164.2408650999423,165.45584219996817,166.25504199997522,166.23907409992535,,,,,,,,,,,,,,,,,,,,,,,,,,,,,,,,,,,166.23908680002205,166.25504199997522,166.25504199997522,167.30497289996129,g,1.0,1.0393542000092566,,,,,sub-151,1.0,stroop_test,59.80614437744572,
,,,,,,,,blau,red,r,0.0,,,,,,,,,0.0,4.0,4.0,4.0,167.32108909997623,,,,,,,,,,,,,,,,,167.30551299999934,167.40457170002628,168.2205641999608,168.2042741000187,,,,,,,,,,,,,,,,,,,,,,,,,,,,,,,,,,,168.20429219992366,168.2205641999608,168.2205641999608,169.1880771999713,b,0.0,0.9663868000498042,,,,,sub-151,1.0,stroop_test,59.80614437744572,
,,,,,,,,gelb,yellow,g,1.0,,,,,,,,,0.0,5.0,5.0,10.0,169.2028633999871,,,,,,,,,,,,,,,,,169.18866370001342,170.0025044999784,170.8022649999475,170.78612629999407,,,,,,,,,,,,,,,,,,,,,,,,,,,,,,,,,,,170.78614009998273,170.8022649999475,170.8022649999475,171.76857720001135,g,1.0,0.9542227999772877,,,,,sub-151,1.0,stroop_test,59.80614437744572,
,,,,,,,,blau,yellow,g,0.0,,,,,,,,,0.0,6.0,6.0,7.0,171.78487049997784,,,,,,,,,,,,,,,,,171.7690732999472,172.98373059998266,173.7831467000069,173.76752080000006,,,,,,,,,,,,,,,,,,,,,,,,,,,,,,,,,,,173.76753329997882,173.7831467000069,173.7831467000069,174.9002340999432,g,1.0,1.1097513999557125,,,,,sub-151,1.0,stroop_test,59.80614437744572,
,,,,,,,,blau,blue,b,1.0,,,,,,,,,0.0,7.0,7.0,6.0,174.91575019992888,,,,,,,,,,,,,,,,,174.90076699992642,175.0160342999734,175.81511460000183,175.79928739997558,,,,,,,,,,,,,,,,,,,,,,,,,,,,,,,,,,,175.79929969995283,175.81511460000183,175.81511460000183,176.79906849993858,b,1.0,0.970586200011894,,,,,sub-151,1.0,stroop_test,59.80614437744572,
,,,,,,,,rot,red,r,1.0,,,,,,,,,0.0,8.0,8.0,1.0,176.81504339992534,,,,,,,,,,,,,,,,,176.79963229992427,177.6144617999671,178.41396929998882,178.39768139994703,,,,,,,,,,,,,,,,,,,,,,,,,,,,,,,,,,,178.3976938999258,178.41396929998882,178.41396929998882,178.9475982999429,r,1.0,0.5276854999829084,,,,,sub-151,1.0,stroop_test,59.80614437744572,
,,,,,,,,gelb,yellow,g,1.0,,,,,,,,,0.0,9.0,9.0,11.0,178.96337979997045,,,,,,,,,,,,,,,,,178.94830119994003,180.1626650999533,180.9620005999459,180.94612580002288,,,,,,,,,,,,,,,,,,,,,,,,,,,,,,,,,,,180.94613930000924,180.9620005999459,180.9620005999459,182.0120680999244,g,1.0,1.042978100012988,,,,,sub-151,1.0,stroop_test,59.80614437744572,
,,,,,,,,rot,red,r,1.0,,,,,,,,,0.0,10.0,10.0,0.0,182.02785259997472,,,,,,,,,,,,,,,,,182.01261309999973,182.37767980003264,183.17729949997735,183.1608042999869,,,,,,,,,,,,,,,,,,,,,,,,,,,,,,,,,,,183.1608169999672,183.17729949997735,183.17729949997735,184.3277725999942,r,1.0,1.1459084999514744,,,,,sub-151,1.0,stroop_test,59.80614437744572,
,,,,,,,,rot,blue,b,0.0,,,,,,,,,0.0,11.0,11.0,2.0,184.34312029997815,,,,,,,,,,,,,,,,,184.3283590999199,184.4430951999966,185.25887899997176,185.2431636999827,,,,,,,,,,,,,,,,,,,,,,,,,,,,,,,,,,,185.2431778999744,185.25887899997176,185.25887899997176,186.2271322000306,b,1.0,0.9557190999621524,,,,,sub-151,1.0,stroop_test,59.80614437744572,
,,,,,,,,blau,yellow,g,0.0,,,,,,,,,1.0,0.0,12.0,7.0,186.242012099945,,,,,,,,,,,,,,,,,186.22772620001345,187.04095569998023,187.84080040000845,187.82481489994095,,,,,,,,,,,,,,,,,,,,,,,,,,,,,,,,,,,187.824838200002,187.84080040000845,187.84080040000845,188.95741219993212,g,1.0,1.1111440000822768,,,,,sub-151,1.0,stroop_test,59.80614437744572,
,,,,,,,,blau,blue,b,1.0,,,,,,,,,1.0,1.0,13.0,6.0,188.9730787000153,,,,,,,,,,,,,,,,,188.95790239993948,190.17251209996172,190.97179450001568,190.95609649992548,,,,,,,,,,,,,,,,,,,,,,,,,,,,,,,,,,,190.95610910002145,190.97179450001568,190.97179450001568,192.2718007999938,b,1.0,1.2944127999944612,,,,,sub-151,1.0,stroop_test,59.80614437744572,
,,,,,,,,rot,red,r,1.0,,,,,,,,,1.0,2.0,14.0,0.0,192.28790589992423,,,,,,,,,,,,,,,,,192.27243549993727,193.08735059993344,193.8865900000092,193.87083049991637,,,,,,,,,,,,,,,,,,,,,,,,,,,,,,,,,,,193.8708429000108,193.8865900000092,193.8865900000092,194.7216357999714,g,0.0,0.829719900037162,,,,,sub-151,1.0,stroop_test,59.80614437744572,
,,,,,,,,gelb,yellow,g,1.0,,,,,,,,,1.0,3.0,15.0,10.0,194.736390999984,,,,,,,,,,,,,,,,,194.7221721999813,195.93514469999357,196.73494130000472,196.7189337000018,,,,,,,,,,,,,,,,,,,,,,,,,,,,,,,,,,,196.7189475999912,196.73494130000472,196.73494130000472,197.6020118999295,g,1.0,0.851278799935244,,,,,sub-151,1.0,stroop_test,59.80614437744572,
,,,,,,,,gelb,red,r,0.0,,,,,,,,,1.0,4.0,16.0,8.0,197.617286899942,,,,,,,,,,,,,,,,,197.60253209993243,197.7172746999422,198.5171759999357,198.50081889994908,,,,,,,,,,,,,,,,,,,,,,,,,,,,,,,,,,,198.5008310999256,198.5171759999357,198.5171759999357,199.7846021000296,r,1.0,1.264647400006652,,,,,sub-151,1.0,stroop_test,59.80614437744572,
,,,,,,,,gelb,blue,b,0.0,,,,,,,,,1.0,5.0,17.0,9.0,199.79930529999547,,,,,,,,,,,,,,,,,199.78516650001984,200.99876360001508,201.79791979992297,201.78221959993243,,,,,,,,,,,,,,,,,,,,,,,,,,,,,,,,,,,201.78223359992265,201.79791979992297,201.79791979992297,203.01507279998623,b,1.0,1.2042194000678137,,,,,sub-151,1.0,stroop_test,59.80614437744572,
,,,,,,,,rot,yellow,g,0.0,,,,,,,,,1.0,6.0,18.0,3.0,203.03059420001227,,,,,,,,,,,,,,,,,203.0155614999821,203.1307237999281,203.93006229994356,203.91405199992005,,,,,,,,,,,,,,,,,,,,,,,,,,,,,,,,,,,203.91406500001904,203.93006229994356,203.93006229994356,205.9135285000084,g,1.0,1.9788553999969736,,,,,sub-151,1.0,stroop_test,59.80614437744572,
,,,,,,,,blau,blue,b,1.0,,,,,,,,,1.0,7.0,19.0,5.0,205.9289050999796,,,,,,,,,,,,,,,,,205.91399979998823,207.12763929995708,207.9271478999872,207.91162959998476,,,,,,,,,,,,,,,,,,,,,,,,,,,,,,,,,,,207.91164379997645,207.9271478999872,207.9271478999872,208.96096419997048,b,1.0,1.029008200042881,,,,,sub-151,1.0,stroop_test,59.80614437744572,
,,,,,,,,gelb,yellow,g,1.0,,,,,,,,,1.0,8.0,20.0,11.0,208.97674199996985,,,,,,,,,,,,,,,,,208.96152080001772,209.3266264999984,210.1258983999724,210.10994999995452,,,,,,,,,,,,,,,,,,,,,,,,,,,,,,,,,,,210.10996269993484,210.1258983999724,210.1258983999724,211.16009209991896,g,1.0,1.0306049999780953,,,,,sub-151,1.0,stroop_test,59.80614437744572,
,,,,,,,,rot,blue,b,0.0,,,,,,,,,1.0,9.0,21.0,2.0,211.1755961999297,,,,,,,,,,,,,,,,,211.16057419998103,212.37466299999505,213.1740462000016,213.1578277000226,,,,,,,,,,,,,,,,,,,,,,,,,,,,,,,,,,,213.1578404000029,213.1740462000016,213.1740462000016,215.35651900002267,b,1.0,2.169051399920136,,,,,sub-151,1.0,stroop_test,59.80614437744572,
,,,,,,,,blau,red,r,0.0,,,,,,,,,1.0,10.0,22.0,4.0,215.37266949994955,,,,,,,,,,,,,,,,,215.35703489999287,215.45600399991963,216.2549875000259,216.23900009994395,,,,,,,,,,,,,,,,,,,,,,,,,,,,,,,,,,,216.23901299992576,216.2549875000259,216.2549875000259,217.3557523000054,r,1.0,1.0986134000122547,,,,,sub-151,1.0,stroop_test,59.80614437744572,
,,,,,,,,rot,red,r,1.0,,,,,,,,,1.0,11.0,23.0,1.0,217.37113380001392,,,,,,,,,,,,,,,,,217.3563315999927,217.47129979997408,218.27075669995972,218.25425839994568,,,,,,,,,,,,,,,,,,,,,,,,,,,,,,,,,,,218.25427069992293,218.27075669995972,218.27075669995972,219.57027359993663,r,1.0,1.2841655999654904,,,,,sub-151,1.0,stroop_test,59.80614437744572,
,,,,,,,,gelb,blue,b,0.0,,,,,,,,,2.0,0.0,24.0,9.0,219.58661060000304,,,,,,,,,,,,,,,,,219.570780799957,219.6697051000083,220.4692627999466,220.45302599994463,,,,,,,,,,,,,,,,,,,,,,,,,,,,,,,,,,,220.4530387999257,220.4692627999466,220.4692627999466,222.0521405999316,b,1.0,1.5772776999510825,,,,,sub-151,1.0,stroop_test,59.80614437744572,
,,,,,,,,rot,yellow,g,0.0,,,,,,,,,2.0,1.0,25.0,3.0,222.0679777999176,,,,,,,,,,,,,,,,,222.0527618000051,222.41788279998585,223.21703679999337,223.2011003999505,,,,,,,,,,,,,,,,,,,,,,,,,,,,,,,,,,,223.20111329993236,223.21703679999337,223.21703679999337,224.46739899995737,g,1.0,1.2370974998921156,,,,,sub-151,1.0,stroop_test,59.80614437744572,
,,,,,,,,blau,red,r,0.0,,,,,,,,,2.0,2.0,26.0,4.0,224.4830470000161,,,,,,,,,,,,,,,,,224.46794719994068,225.68249199993443,226.48177209997084,226.4657655999763,,,,,,,,,,,,,,,,,,,,,,,,,,,,,,,,,,,226.4657779999543,226.48177209997084,226.48177209997084,227.63184139993973,r,1.0,1.1371434000320733,,,,,sub-151,1.0,stroop_test,59.80614437744572,
,,,,,,,,gelb,yellow,g,1.0,,,,,,,,,2.0,3.0,27.0,11.0,227.6478172999341,,,,,,,,,,,,,,,,,227.63231449993327,227.747743899934,228.5471395999193,228.53117219998967,,,,,,,,,,,,,,,,,,,,,,,,,,,,,,,,,,,228.53118539997377,228.5471395999193,228.5471395999193,229.46422680001703,g,1.0,0.9069279000395908,,,,,sub-151,1.0,stroop_test,59.80614437744572,
,,,,,,,,rot,red,r,1.0,,,,,,,,,2.0,4.0,28.0,1.0,229.47977259999607,,,,,,,,,,,,,,,,,229.46472479996737,229.8297011000104,230.6293597000185,230.61287459998857,,,,,,,,,,,,,,,,,,,,,,,,,,,,,,,,,,,230.612896699924,230.6293597000185,230.6293597000185,231.54618529998697,r,1.0,0.9019298000494018,,,,,sub-151,1.0,stroop_test,59.80614437744572,
,,,,,,,,blau,blue,b,1.0,,,,,,,,,2.0,5.0,29.0,5.0,231.5620525999693,,,,,,,,,,,,,,,,,231.54668229992967,232.7610687999986,233.56053200003225,233.5443395000184,,,,,,,,,,,,,,,,,,,,,,,,,,,,,,,,,,,233.54435350000855,233.56053200003225,233.56053200003225,234.31087819999084,b,1.0,0.7416932999622077,,,,,sub-151,1.0,stroop_test,59.80614437744572,
,,,,,,,,blau,blue,b,1.0,,,,,,,,,2.0,6.0,30.0,6.0,234.32687989994884,,,,,,,,,,,,,,,,,234.311374999932,235.52591780002692,236.3253002000274,236.3093791999854,,,,,,,,,,,,,,,,,,,,,,,,,,,,,,,,,,,236.3093928999733,236.3253002000274,236.3253002000274,236.9931841000216,b,1.0,0.6640894999727607,,,,,sub-151,1.0,stroop_test,59.80614437744572,
,,,,,,,,gelb,yellow,g,1.0,,,,,,,,,2.0,7.0,31.0,10.0,237.00799870002083,,,,,,,,,,,,,,,,,236.99366779997945,237.10802329995204,237.9077324999962,237.892072299961,,,,,,,,,,,,,,,,,,,,,,,,,,,,,,,,,,,237.8920864999527,237.9077324999962,237.9077324999962,238.7414802999701,g,1.0,0.824031800031662,,,,,sub-151,1.0,stroop_test,59.80614437744572,
,,,,,,,,blau,yellow,g,0.0,,,,,,,,,2.0,8.0,32.0,7.0,238.75676020001995,,,,,,,,,,,,,,,,,238.7419624000322,239.9564952999353,240.7556902000215,240.73965290002525,,,,,,,,,,,,,,,,,,,,,,,,,,,,,,,,,,,240.7396655000048,240.7556902000215,240.7556902000215,241.90565889992288,g,1.0,1.1404319999273866,,,,,sub-151,1.0,stroop_test,59.80614437744572,
,,,,,,,,rot,red,r,1.0,,,,,,,,,2.0,9.0,33.0,0.0,241.92194419994485,,,,,,,,,,,,,,,,,241.9063557999907,243.12082269997336,243.9210202000104,243.9049759999616,,,,,,,,,,,,,,,,,,,,,,,,,,,,,,,,,,,243.90500119992063,243.9210202000104,243.9210202000104,244.4876036000205,r,1.0,0.550842099939473,,,,,sub-151,1.0,stroop_test,59.80614437744572,
,,,,,,,,gelb,red,r,0.0,,,,,,,,,2.0,10.0,34.0,8.0,244.50332989997696,,,,,,,,,,,,,,,,,244.48807640001175,245.3028621999547,246.10205370001492,246.08616980002265,,,,,,,,,,,,,,,,,,,,,,,,,,,,,,,,,,,246.08618320000824,246.10205370001492,246.10205370001492,246.9691861999454,r,1.0,0.8538967000786215,,,,,sub-151,1.0,stroop_test,59.80614437744572,
,,,,,,,,rot,blue,b,0.0,,,,,,,,,2.0,11.0,35.0,2.0,246.9847504999489,,,,,,,,,,,,,,,,,246.9697603000095,248.18379439995624,248.9836751000257,248.9672957999865,,,,,,,,,,,,,,,,,,,,,,,,,,,,,,,,,,,248.9673101999797,248.9836751000257,248.9836751000257,250.0837989000138,b,1.0,1.0859028999693692,,,,,sub-151,1.0,stroop_test,59.80614437744572,
,,,,,,,,rot,red,r,1.0,,,,,,,,,3.0,0.0,36.0,1.0,250.09958509996068,,,,,,,,,,,,,,,,,250.084362900001,250.89907349995335,251.69830809999257,251.68248049996328,,,,,,,,,,,,,,,,,,,,,,,,,,,,,,,,,,,251.68249289994128,251.69830809999257,251.69830809999257,252.4823229999747,r,1.0,0.775854800012894,,,,,sub-151,1.0,stroop_test,59.80614437744572,
,,,,,,,,blau,blue,b,1.0,,,,,,,,,3.0,1.0,37.0,5.0,252.49775600002613,,,,,,,,,,,,,,,,,252.48286699992605,252.5979444999248,253.39700859994628,253.381027400028,,,,,,,,,,,,,,,,,,,,,,,,,,,,,,,,,,,253.38104240002576,253.39700859994628,253.39700859994628,254.1310868000146,b,1.0,0.7256317998981103,,,,,sub-151,1.0,stroop_test,59.80614437744572,
,,,,,,,,rot,blue,b,0.0,,,,,,,,,3.0,2.0,38.0,2.0,254.1467849999899,,,,,,,,,,,,,,,,,254.13163079996596,254.94634549994956,255.7457583999494,255.72979799995665,,,,,,,,,,,,,,,,,,,,,,,,,,,,,,,,,,,255.72981229994912,255.7457583999494,255.7457583999494,256.7630252999952,b,1.0,1.0127795999869704,,,,,sub-151,1.0,stroop_test,59.80614437744572,
,,,,,,,,gelb,yellow,g,1.0,,,,,,,,,3.0,3.0,39.0,10.0,256.7789113000036,,,,,,,,,,,,,,,,,256.76350429991726,257.9776487000054,258.77691959997173,258.76116959995124,,,,,,,,,,,,,,,,,,,,,,,,,,,,,,,,,,,258.76118199992925,258.77691959997173,258.77691959997173,259.8273855999578,g,1.0,1.0354765999363735,,,,,sub-151,1.0,stroop_test,59.80614437744572,
,,,,,,,,rot,red,r,1.0,,,,,,,,,3.0,4.0,40.0,0.0,259.8431973999832,,,,,,,,,,,,,,,,,259.8278744999552,260.1928778999718,260.99237539991736,260.97636129998136,,,,,,,,,,,,,,,,,,,,,,,,,,,,,,,,,,,260.97637399996165,260.99237539991736,260.99237539991736,261.992792999954,r,1.0,0.994993400061503,,,,,sub-151,1.0,stroop_test,59.80614437744572,
,,,,,,,,rot,yellow,g,0.0,,,,,,,,,3.0,5.0,41.0,3.0,262.00807989994064,,,,,,,,,,,,,,,,,261.99332599993795,262.357714499929,263.1576788999373,263.14140359999146,,,,,,,,,,,,,,,,,,,,,,,,,,,,,,,,,,,263.1414166999748,263.1576788999373,263.1576788999373,265.2736038999865,g,1.0,2.105652400059625,,,,,sub-151,1.0,stroop_test,59.80614437744572,
,,,,,,,,gelb,blue,b,0.0,,,,,,,,,3.0,6.0,42.0,9.0,265.28972729993984,,,,,,,,,,,,,,,,,265.2741015999345,265.6394976000301,266.43878289998975,266.4226558000082,,,,,,,,,,,,,,,,,,,,,,,,,,,,,,,,,,,266.4226681999862,266.43878289998975,266.43878289998975,267.1563819999574,b,1.0,0.7135894000530243,,,,,sub-151,1.0,stroop_test,59.80614437744572,
,,,,,,,,gelb,yellow,g,1.0,,,,,,,,,3.0,7.0,43.0,11.0,267.17121359996963,,,,,,,,,,,,,,,,,267.15688449994195,267.97104759991635,268.7702911000233,268.7544151999755,,,,,,,,,,,,,,,,,,,,,,,,,,,,,,,,,,,268.75442819995806,268.7702911000233,268.7702911000233,269.78792599996086,g,1.0,1.013565699919127,,,,,sub-151,1.0,stroop_test,59.80614437744572,
,,,,,,,,gelb,red,r,0.0,,,,,,,,,3.0,8.0,44.0,8.0,269.8035391999874,,,,,,,,,,,,,,,,,269.7884484999813,269.903033999959,270.70233829994686,270.6865470999619,,,,,,,,,,,,,,,,,,,,,,,,,,,,,,,,,,,270.6865603999468,270.70233829994686,270.70233829994686,271.73610989993904,r,1.0,1.0202419999986887,,,,,sub-151,1.0,stroop_test,59.80614437744572,
,,,,,,,,blau,yellow,g,0.0,,,,,,,,,3.0,9.0,45.0,7.0,271.751890799962,,,,,,,,,,,,,,,,,271.7366501999786,271.8529117000289,272.66801459994167,272.6521100000245,,,,,,,,,,,,,,,,,,,,,,,,,,,,,,,,,,,272.6521244000178,272.66801459994167,272.66801459994167,273.9684386999579,b,0.0,1.2979907999979332,,,,,sub-151,1.0,stroop_test,59.80614437744572,
,,,,,,,,blau,red,r,0.0,,,,,,,,,3.0,10.0,46.0,4.0,273.9844795999816,,,,,,,,,,,,,,,,,273.96892220003065,275.18278329994064,275.9821819999488,275.96630540001206,,,,,,,,,,,,,,,,,,,,,,,,,,,,,,,,,,,275.9663179999916,275.9821819999488,275.9821819999488,276.715683599934,r,1.0,0.716979599907063,,,,,sub-151,1.0,stroop_test,59.80614437744572,
,,,,,,,,blau,blue,b,1.0,,,,,,,,,3.0,11.0,47.0,6.0,276.73196689994074,,,,,,,,,,,,,,,,,276.7162322999211,277.0817576999543,277.8809632000048,277.86528909998015,,,,,,,,,,,,,,,,,,,,,,,,,,,,,,,,,,,277.8653028999688,277.8809632000048,277.8809632000048,278.7981066999492,b,1.0,0.9071322999661788,,,,,sub-151,1.0,stroop_test,59.80614437744572,
,,,,,,,,blau,red,r,0.0,,,,,,,,,4.0,0.0,48.0,4.0,278.8135789999505,,,,,,,,,,,,,,,,,278.79865150002297,279.16372269997373,279.9631861000089,279.94709079992026,,,,,,,,,,,,,,,,,,,,,,,,,,,,,,,,,,,279.94710280001163,279.9631861000089,279.9631861000089,281.1965208000038,r,1.0,1.22046430001501,,,,,sub-151,1.0,stroop_test,59.80614437744572,
,,,,,,,,rot,red,r,1.0,,,,,,,,,4.0,1.0,49.0,0.0,281.21256399992853,,,,,,,,,,,,,,,,,281.1970137000317,281.562259899918,282.36149359995034,282.3453635999467,,,,,,,,,,,,,,,,,,,,,,,,,,,,,,,,,,,282.34537649992853,282.36149359995034,282.36149359995034,283.19519719993696,r,1.0,0.8177038000430912,,,,,sub-151,1.0,stroop_test,59.80614437744572,
,,,,,,,,gelb,red,r,0.0,,,,,,,,,4.0,2.0,50.0,8.0,283.21114739996847,,,,,,,,,,,,,,,,,283.19568539992906,284.01049839996267,284.80993170000147,284.7938551999396,,,,,,,,,,,,,,,,,,,,,,,,,,,,,,,,,,,284.79386819992214,284.80993170000147,284.80993170000147,285.51107329991646,r,1.0,0.6971612999914214,,,,,sub-151,1.0,stroop_test,59.80614437744572,
,,,,,,,,blau,yellow,g,0.0,,,,,,,,,4.0,3.0,51.0,7.0,285.52601169992704,,,,,,,,,,,,,,,,,285.5115516999504,285.87586399994325,286.6750303999288,286.65929119999055,,,,,,,,,,,,,,,,,,,,,,,,,,,,,,,,,,,286.6593034999678,286.6750303999288,286.6750303999288,287.7588871999178,g,1.0,1.0703868999844417,,,,,sub-151,1.0,stroop_test,59.80614437744572,
,,,,,,,,rot,blue,b,0.0,,,,,,,,,4.0,4.0,52.0,2.0,287.7744079999393,,,,,,,,,,,,,,,,,287.75941649999004,287.87450599996373,288.673994999961,288.6580649999669,,,,,,,,,,,,,,,,,,,,,,,,,,,,,,,,,,,288.6580778999487,288.673994999961,288.673994999961,289.9578822000185,b,1.0,1.2792386999353766,,,,,sub-151,1.0,stroop_test,59.80614437744572,
,,,,,,,,rot,yellow,g,0.0,,,,,,,,,4.0,5.0,53.0,3.0,289.97284629999194,,,,,,,,,,,,,,,,,289.95849569991697,290.7726178999292,291.5719679999165,291.5559295000276,,,,,,,,,,,,,,,,,,,,,,,,,,,,,,,,,,,291.55594220000785,291.5719679999165,291.5719679999165,293.07182229997125,g,1.0,1.488645299919881,,,,,sub-151,1.0,stroop_test,59.80614437744572,
,,,,,,,,blau,blue,b,1.0,,,,,,,,,4.0,6.0,54.0,6.0,293.0874229000183,,,,,,,,,,,,,,,,,293.0723584999796,294.2868446999928,295.0866145999171,295.0700066999998,,,,,,,,,,,,,,,,,,,,,,,,,,,,,,,,,,,295.0700278999284,295.0866145999171,295.0866145999171,295.8539032000117,b,1.0,0.7649308999534696,,,,,sub-151,1.0,stroop_test,59.80614437744572,
,,,,,,,,gelb,yellow,g,1.0,,,,,,,,,4.0,7.0,55.0,10.0,295.8689469000092,,,,,,,,,,,,,,,,,295.8544173999689,295.96924639993813,296.7685726999771,296.7524223999353,,,,,,,,,,,,,,,,,,,,,,,,,,,,,,,,,,,296.7524368999293,296.7685726999771,296.7685726999771,297.602541500004,g,1.0,0.8194728000089526,,,,,sub-151,1.0,stroop_test,59.80614437744572,
,,,,,,,,gelb,blue,b,0.0,,,,,,,,,4.0,8.0,56.0,9.0,297.6181245999178,,,,,,,,,,,,,,,,,297.6030434999848,298.4173451999668,299.217156299972,299.2010522999335,,,,,,,,,,,,,,,,,,,,,,,,,,,,,,,,,,,299.2010671999305,299.217156299972,299.217156299972,300.21719749993645,b,1.0,0.9863187000155448,,,,,sub-151,1.0,stroop_test,59.80614437744572,
,,,,,,,,rot,red,r,1.0,,,,,,,,,4.0,9.0,57.0,1.0,300.2332484999206,,,,,,,,,,,,,,,,,300.217750199954,301.032557599945,301.8320126000326,301.81607079994865,,,,,,,,,,,,,,,,,,,,,,,,,,,,,,,,,,,301.81608529994264,301.8320126000326,301.8320126000326,302.6320490000071,r,1.0,0.7860751000698656,,,,,sub-151,1.0,stroop_test,59.80614437744572,
,,,,,,,,blau,blue,b,1.0,,,,,,,,,4.0,10.0,58.0,5.0,302.647789599956,,,,,,,,,,,,,,,,,302.6325674999971,303.84736659994815,304.64676369994413,304.63060229993425,,,,,,,,,,,,,,,,,,,,,,,,,,,,,,,,,,,304.6306174999336,304.64676369994413,304.64676369994413,305.46392509993166,b,1.0,0.8044719999888912,,,,,sub-151,1.0,stroop_test,59.80614437744572,
,,,,,,,,gelb,yellow,g,1.0,,,,,,,,,4.0,11.0,59.0,11.0,305.47933330002706,,,,,,,,,,,,,,,,,305.46441979997326,305.5793824000284,306.37870200001635,306.3628822999308,,,,,,,,,,,,,,,,,,,,,,,,,,,,,,,,,,,306.3628964999225,306.37870200001635,306.37870200001635,307.1630472999532,g,1.0,0.7830020999535918,,,,,sub-151,1.0,stroop_test,59.80614437744572,
,,,,,,,,gelb,yellow,g,1.0,,,,,,,,,5.0,0.0,60.0,10.0,307.17812830000184,,,,,,,,,,,,,,,,,307.1635725999949,307.9779087000061,308.7774373999564,308.7613975999411,,,,,,,,,,,,,,,,,,,,,,,,,,,,,,,,,,,308.7614120999351,308.7774373999564,308.7774373999564,309.44451890001073,g,1.0,0.6572330000344664,,,,,sub-151,1.0,stroop_test,59.80614437744572,
,,,,,,,,rot,red,r,1.0,,,,,,,,,5.0,1.0,61.0,0.0,309.46029620000627,,,,,,,,,,,,,,,,,309.44505470001604,309.81007659994066,310.60999319993425,310.5929047999671,,,,,,,,,,,,,,,,,,,,,,,,,,,,,,,,,,,310.5929194999626,310.60999319993425,310.60999319993425,311.70977750001475,r,1.0,1.0894654999719933,,,,,sub-151,1.0,stroop_test,59.80614437744572,
,,,,,,,,blau,yellow,g,0.0,,,,,,,,,5.0,2.0,62.0,7.0,311.72524539998267,,,,,,,,,,,,,,,,,311.7102763999719,312.0752884999383,312.87459499994293,312.8585718999384,,,,,,,,,,,,,,,,,,,,,,,,,,,,,,,,,,,312.8585863999324,312.87459499994293,312.87459499994293,314.09157449996565,g,1.0,1.2046143000479788,,,,,sub-151,1.0,stroop_test,59.80614437744572,
,,,,,,,,rot,yellow,g,0.0,,,,,,,,,5.0,3.0,63.0,3.0,314.10716269991826,,,,,,,,,,,,,,,,,314.0921249999665,314.9065057999687,315.7059852000093,315.69010110001545,,,,,,,,,,,,,,,,,,,,,,,,,,,,,,,,,,,315.690115800011,315.7059852000093,315.7059852000093,316.3900531999534,g,1.0,0.6766546999569982,,,,,sub-151,1.0,stroop_test,59.80614437744572,
,,,,,,,,rot,blue,b,0.0,,,,,,,,,5.0,4.0,64.0,2.0,316.40552899998147,,,,,,,,,,,,,,,,,316.39056899992283,317.20535039994866,318.0047125000274,317.98860609997064,,,,,,,,,,,,,,,,,,,,,,,,,,,,,,,,,,,317.988619599957,318.0047125000274,318.0047125000274,318.85515219997615,b,1.0,0.8440832999767736,,,,,sub-151,1.0,stroop_test,59.80614437744572,
,,,,,,,,blau,blue,b,1.0,,,,,,,,,5.0,5.0,65.0,5.0,318.8705998000223,,,,,,,,,,,,,,,,,318.8556490999181,320.0697434999747,320.86912599997595,320.853325999924,,,,,,,,,,,,,,,,,,,,,,,,,,,,,,,,,,,320.85334029991645,320.86912599997595,320.86912599997595,321.9196992999641,b,1.0,1.0383672000607476,,,,,sub-151,1.0,stroop_test,59.80614437744572,
,,,,,,,,gelb,red,r,0.0,,,,,,,,,5.0,6.0,66.0,8.0,321.93545440002345,,,,,,,,,,,,,,,,,321.92027150001377,323.1342384000309,323.93394499993883,323.9180294999387,,,,,,,,,,,,,,,,,,,,,,,,,,,,,,,,,,,323.9180439999327,323.93394499993883,323.93394499993883,325.135225999984,r,1.0,1.1971040000207722,,,,,sub-151,1.0,stroop_test,59.80614437744572,
,,,,,,,,rot,red,r,1.0,,,,,,,,,5.0,7.0,67.0,1.0,325.15001869993284,,,,,,,,,,,,,,,,,325.1357389999321,326.34886489994824,327.14856160001364,327.1326164000202,,,,,,,,,,,,,,,,,,,,,,,,,,,,,,,,,,,327.1326303000096,327.14856160001364,327.14856160001364,327.699688600027,r,1.0,0.5500027000671253,,,,,sub-151,1.0,stroop_test,59.80614437744572,
,,,,,,,,gelb,blue,b,0.0,,,,,,,,,5.0,8.0,68.0,9.0,327.7146123999264,,,,,,,,,,,,,,,,,327.70016270002816,328.9141587999184,329.7130877999589,329.697543199989,,,,,,,,,,,,,,,,,,,,,,,,,,,,,,,,,,,329.6975569999777,329.7130877999589,329.7130877999589,330.430584799964,b,1.0,0.7130747000919655,,,,,sub-151,1.0,stroop_test,59.80614437744572,
,,,,,,,,blau,blue,b,1.0,,,,,,,,,5.0,9.0,69.0,6.0,330.44617210002616,,,,,,,,,,,,,,,,,330.43124700000044,331.24568509997334,332.04492279991973,332.0293737999164,,,,,,,,,,,,,,,,,,,,,,,,,,,,,,,,,,,332.02938890003134,332.04492279991973,332.04492279991973,332.8293725999538,b,1.0,0.7812275000615045,,,,,sub-151,1.0,stroop_test,59.80614437744572,
,,,,,,,,blau,red,r,0.0,,,,,,,,,5.0,10.0,70.0,4.0,332.8452681999188,,,,,,,,,,,,,,,,,332.82986299996264,333.64441309997346,334.44349430000875,334.427596500027,,,,,,,,,,,,,,,,,,,,,,,,,,,,,,,,,,,334.4276115000248,334.44349430000875,334.44349430000875,335.4439539000159,r,1.0,0.9866465999512002,,,,,sub-151,1.0,stroop_test,59.80614437744572,
,,,,,,,,gelb,yellow,g,1.0,,,,,,,,,5.0,11.0,71.0,11.0,335.46003289998043,,,,,,,,,,,,,,,,,335.444466899964,335.80969239992555,336.6089508000296,336.5930831999285,,,,,,,,,,,,,,,,,,,,,,,,,,,,,,,,,,,336.593097499921,336.6089508000296,336.6089508000296,337.4259580000071,g,1.0,0.8066935999086127,,,,,sub-151,1.0,stroop_test,59.80614437744572,
,,,,,,,,blau,red,r,0.0,,,,,,,,,6.0,0.0,72.0,4.0,337.4416224999586,,,,,,,,,,,,,,,,,337.42648559995,338.224454900017,339.0238069000188,339.0080708999885,,,,,,,,,,,,,,,,,,,,,,,,,,,,,,,,,,,339.0080848999787,339.0238069000188,339.0238069000188,340.04146570002194,r,1.0,1.014310900005512,,,,,sub-151,1.0,stroop_test,59.80614437744572,
,,,,,,,,blau,yellow,g,0.0,,,,,,,,,6.0,1.0,73.0,7.0,340.0570160999196,,,,,,,,,,,,,,,,,340.0419741999358,340.1564823000226,340.9568317999365,340.94020379998256,,,,,,,,,,,,,,,,,,,,,,,,,,,,,,,,,,,340.94021749997046,340.9568317999365,340.9568317999365,341.9062714999309,g,1.0,0.9397256999509408,,,,,sub-151,1.0,stroop_test,59.80614437744572,
,,,,,,,,rot,red,r,1.0,,,,,,,,,6.0,2.0,74.0,1.0,341.92231779999565,,,,,,,,,,,,,,,,,341.9067897999193,342.7215878999559,343.5210639999714,343.5051099000266,,,,,,,,,,,,,,,,,,,,,,,,,,,,,,,,,,,343.5051241000183,343.5210639999714,343.5210639999714,344.4544382999884,r,1.0,0.9221898999530822,,,,,sub-151,1.0,stroop_test,59.80614437744572,
,,,,,,,,gelb,yellow,g,1.0,,,,,,,,,6.0,3.0,75.0,11.0,344.47058009996545,,,,,,,,,,,,,,,,,344.4549536999548,344.57013799995184,345.36991539993323,345.35385600000154,,,,,,,,,,,,,,,,,,,,,,,,,,,,,,,,,,,345.3538708999986,345.36991539993323,345.36991539993323,346.13687359995674,g,1.0,0.7644271000754088,,,,,sub-151,1.0,stroop_test,59.80614437744572,
,,,,,,,,rot,blue,b,0.0,,,,,,,,,6.0,4.0,76.0,2.0,346.1534953999799,,,,,,,,,,,,,,,,,346.1374542999547,347.35181849997025,348.1511413999833,348.1353347999975,,,,,,,,,,,,,,,,,,,,,,,,,,,,,,,,,,,348.1353482999839,348.1511413999833,348.1511413999833,348.95147929992527,b,1.0,0.7841348999645561,,,,,sub-151,1.0,stroop_test,59.80614437744572,
,,,,,,,,gelb,blue,b,0.0,,,,,,,,,6.0,5.0,77.0,9.0,348.96747329994105,,,,,,,,,,,,,,,,,348.9520282000303,350.1667106000241,350.9660876999842,350.95016369991936,,,,,,,,,,,,,,,,,,,,,,,,,,,,,,,,,,,350.95017830003053,350.9660876999842,350.9660876999842,352.0663097000215,b,1.0,1.094810700044036,,,,,sub-151,1.0,stroop_test,59.80614437744572,
,,,,,,,,gelb,red,r,0.0,,,,,,,,,6.0,6.0,78.0,8.0,352.0821518999292,,,,,,,,,,,,,,,,,352.06683899997734,352.1819267999381,352.9815521999262,352.9655555000063,,,,,,,,,,,,,,,,,,,,,,,,,,,,,,,,,,,352.9655694999965,352.9815521999262,352.9815521999262,353.93162289995234,g,0.0,0.9408593999687582,,,,,sub-151,1.0,stroop_test,59.80614437744572,
,,,,,,,,rot,yellow,g,0.0,,,,,,,,,6.0,7.0,79.0,3.0,353.9474651999772,,,,,,,,,,,,,,,,,353.9321429999545,354.2974456999218,355.0966873000143,355.0807996999938,,,,,,,,,,,,,,,,,,,,,,,,,,,,,,,,,,,355.08081349998247,355.0966873000143,355.0966873000143,355.89679859997705,g,1.0,0.7895850000204518,,,,,sub-151,1.0,stroop_test,59.80614437744572,
,,,,,,,,rot,red,r,1.0,,,,,,,,,6.0,8.0,80.0,0.0,355.91262279998045,,,,,,,,,,,,,,,,,355.89730990002863,356.71202690002974,357.5117896000156,357.4956672999542,,,,,,,,,,,,,,,,,,,,,,,,,,,,,,,,,,,357.4956810999429,357.5117896000156,357.5117896000156,358.8621289000148,r,1.0,1.3463457999750972,,,,,sub-151,1.0,stroop_test,59.80614437744572,
,,,,,,,,blau,blue,b,1.0,,,,,,,,,6.0,9.0,81.0,6.0,358.8775968999835,,,,,,,,,,,,,,,,,358.86263609991875,359.67724320001435,360.4762104999973,360.4604254999431,,,,,,,,,,,,,,,,,,,,,,,,,,,,,,,,,,,360.4604401999386,360.4762104999973,360.4762104999973,361.2601908999495,b,1.0,0.7736269000452012,,,,,sub-151,1.0,stroop_test,59.80614437744572,
,,,,,,,,gelb,yellow,g,1.0,,,,,,,,,6.0,10.0,82.0,10.0,361.27562149998266,,,,,,,,,,,,,,,,,361.26070179999806,361.3594694000203,362.1583828999428,362.1426006000256,,,,,,,,,,,,,,,,,,,,,,,,,,,,,,,,,,,362.1426149000181,362.1583828999428,362.1583828999428,363.0760241999524,g,1.0,0.9090244000544772,,,,,sub-151,1.0,stroop_test,59.80614437744572,
,,,,,,,,blau,blue,b,1.0,,,,,,,,,6.0,11.0,83.0,5.0,363.09165910002775,,,,,,,,,,,,,,,,,363.07654429995455,364.2908689000178,365.0900252999272,365.0741828000173,,,,,,,,,,,,,,,,,,,,,,,,,,,,,,,,,,,365.07419710000977,365.0900252999272,365.0900252999272,366.0239753000205,b,1.0,0.9221751999575644,,,,,sub-151,1.0,stroop_test,59.80614437744572,
,,,,,,,,rot,blue,b,0.0,,,,,,,,,7.0,0.0,84.0,2.0,366.0398001000285,,,,,,,,,,,,,,,,,366.02448809996713,366.8389591999585,367.6387158000143,367.6225268000271,,,,,,,,,,,,,,,,,,,,,,,,,,,,,,,,,,,367.6225446999306,367.6387158000143,367.6387158000143,368.6052417999599,b,1.0,0.9605853999964892,,,,,sub-151,1.0,stroop_test,59.80614437744572,
,,,,,,,,blau,blue,b,1.0,,,,,,,,,7.0,1.0,85.0,6.0,368.6209378999192,,,,,,,,,,,,,,,,,368.6057634999743,368.97092839994,369.76996810000855,369.7543458000291,,,,,,,,,,,,,,,,,,,,,,,,,,,,,,,,,,,369.7543608000269,369.76996810000855,369.76996810000855,370.3208248999436,b,1.0,0.5375798000022769,,,,,sub-151,1.0,stroop_test,59.80614437744572,
,,,,,,,,gelb,yellow,g,1.0,,,,,,,,,7.0,2.0,86.0,10.0,370.33654039993417,,,,,,,,,,,,,,,,,370.3213774999604,370.43662429996766,371.2365135999862,371.2201203999575,,,,,,,,,,,,,,,,,,,,,,,,,,,,,,,,,,,371.2201344999485,371.2365135999862,371.2365135999862,372.47042949998286,g,1.0,1.22976550005842,,,,,sub-151,1.0,stroop_test,59.80614437744572,
,,,,,,,,blau,blue,b,1.0,,,,,,,,,7.0,3.0,87.0,5.0,372.4853885999182,,,,,,,,,,,,,,,,,372.4709560999181,372.5851619000314,373.3845613999292,373.3685402999399,,,,,,,,,,,,,,,,,,,,,,,,,,,,,,,,,,,373.3685552999377,373.3845613999292,373.3845613999292,374.0687818999868,b,1.0,0.683023399906233,,,,,sub-151,1.0,stroop_test,59.80614437744572,
,,,,,,,,gelb,red,r,0.0,,,,,,,,,7.0,4.0,88.0,8.0,374.0844195999671,,,,,,,,,,,,,,,,,374.0693243999267,374.4337549000047,375.23314689996187,375.2172325999709,,,,,,,,,,,,,,,,,,,,,,,,,,,,,,,,,,,375.2172472999664,375.23314689996187,375.23314689996187,375.96693699993193,r,1.0,0.7247980000684038,,,,,sub-151,1.0,stroop_test,59.80614437744572,
,,,,,,,,blau,red,r,0.0,,,,,,,,,7.0,5.0,89.0,4.0,375.9825836999808,,,,,,,,,,,,,,,,,375.96745080000255,376.782549800002,377.5825405999785,377.5668984999648,,,,,,,,,,,,,,,,,,,,,,,,,,,,,,,,,,,377.5669526000274,377.5825405999785,377.5825405999785,378.73314409994055,r,1.0,1.135732700000517,,,,,sub-151,1.0,stroop_test,59.80614437744572,
,,,,,,,,rot,red,r,1.0,,,,,,,,,7.0,6.0,90.0,0.0,378.7489162000129,,,,,,,,,,,,,,,,,378.73419200000353,378.84924859995954,379.6660118999425,379.649103499949,,,,,,,,,,,,,,,,,,,,,,,,,,,,,,,,,,,379.64912840002216,379.6660118999425,379.6660118999425,380.198707100004,r,1.0,0.5244072999339551,,,,,sub-151,1.0,stroop_test,59.80614437744572,
,,,,,,,,gelb,blue,b,0.0,,,,,,,,,7.0,7.0,91.0,9.0,380.2141117999563,,,,,,,,,,,,,,,,,380.1994355999632,380.3142025999259,381.11307099997066,381.0974819000112,,,,,,,,,,,,,,,,,,,,,,,,,,,,,,,,,,,381.0975087999832,381.11307099997066,381.11307099997066,381.8479728000239,b,1.0,0.7243336000246927,,,,,sub-151,1.0,stroop_test,59.80614437744572,
,,,,,,,,gelb,yellow,g,1.0,,,,,,,,,7.0,8.0,92.0,11.0,381.8629028999712,,,,,,,,,,,,,,,,,381.848975699977,382.21241549996193,383.012140900013,382.99630190001335,,,,,,,,,,,,,,,,,,,,,,,,,,,,,,,,,,,382.9963183000218,383.012140900013,383.012140900013,383.6967793999938,g,1.0,0.6827103999676183,,,,,sub-151,1.0,stroop_test,59.80614437744572,
,,,,,,,,rot,yellow,g,0.0,,,,,,,,,7.0,9.0,93.0,3.0,383.7117960000178,,,,,,,,,,,,,,,,,383.69742460001726,384.91083860001527,385.7102557999315,385.6945369000314,,,,,,,,,,,,,,,,,,,,,,,,,,,,,,,,,,,385.6945546999341,385.7102557999315,385.7102557999315,386.3946559999604,g,1.0,0.6694319000234827,,,,,sub-151,1.0,stroop_test,59.80614437744572,
,,,,,,,,blau,yellow,g,0.0,,,,,,,,,7.0,10.0,94.0,7.0,386.4098196999403,,,,,,,,,,,,,,,,,386.3953612999758,387.6094016999705,388.40882589994,388.392653399962,,,,,,,,,,,,,,,,,,,,,,,,,,,,,,,,,,,388.3926745000063,388.40882589994,388.40882589994,388.87583809997886,g,1.0,0.4616855999920517,,,,,sub-151,1.0,stroop_test,59.80614437744572,
,,,,,,,,rot,red,r,1.0,,,,,,,,,7.0,11.0,95.0,1.0,388.891462199972,,,,,,,,,,,,,,,,,388.8765143000055,389.69120350002777,390.4902827999322,390.47473499993794,,,,,,,,,,,,,,,,,,,,,,,,,,,,,,,,,,,390.47475619998295,390.4902827999322,390.4902827999322,391.141541399993,r,1.0,0.6477009999798611,,,,,sub-151,1.0,stroop_test,59.80614437744572,
,,,,,,,,gelb,blue,b,0.0,,,,,,,,,8.0,0.0,96.0,9.0,391.15666979993694,,,,,,,,,,,,,,,,,391.1421941999579,391.25655469996855,392.0565802999772,392.0404721000232,,,,,,,,,,,,,,,,,,,,,,,,,,,,,,,,,,,392.0404970999807,392.0565802999772,392.0565802999772,393.1554933999432,b,1.0,1.0845590999815613,,,,,sub-151,1.0,stroop_test,59.80614437744572,
,,,,,,,,blau,blue,b,1.0,,,,,,,,,8.0,1.0,97.0,6.0,393.1713807999622,,,,,,,,,,,,,,,,,393.1561910000164,393.2712756999536,394.0705710999901,394.05463279993273,,,,,,,,,,,,,,,,,,,,,,,,,,,,,,,,,,,394.0546489999397,394.0705710999901,394.0705710999901,394.6712894999655,b,1.0,0.5982858999632299,,,,,sub-151,1.0,stroop_test,59.80614437744572,
,,,,,,,,blau,red,r,0.0,,,,,,,,,8.0,2.0,98.0,4.0,394.6870134000201,,,,,,,,,,,,,,,,,394.6719784999732,395.8867831999669,396.6858987000305,396.6700898000272,,,,,,,,,,,,,,,,,,,,,,,,,,,,,,,,,,,396.6701051000273,396.6858987000305,396.6858987000305,397.8694055000087,r,1.0,1.1689482000656426,,,,,sub-151,1.0,stroop_test,59.80614437744572,
,,,,,,,,rot,blue,b,0.0,,,,,,,,,8.0,3.0,99.0,2.0,397.88509659993,,,,,,,,,,,,,,,,,397.8699767999351,398.6842027999228,399.4840260000201,399.4679720000131,,,,,,,,,,,,,,,,,,,,,,,,,,,,,,,,,,,399.4679865000071,399.4840260000201,399.4840260000201,401.3498918999685,b,1.0,1.8538817999651656,,,,,sub-151,1.0,stroop_test,59.80614437744572,
,,,,,,,,blau,blue,b,1.0,,,,,,,,,8.0,4.0,100.0,5.0,401.36592270003166,,,,,,,,,,,,,,,,,401.3504736999748,401.71566270000767,402.5153981000185,402.49922549992334,,,,,,,,,,,,,,,,,,,,,,,,,,,,,,,,,,,402.49924099992495,402.5153981000185,402.5153981000185,403.19945790001657,b,1.0,0.6723098999354988,,,,,sub-151,1.0,stroop_test,59.80614437744572,
,,,,,,,,blau,yellow,g,0.0,,,,,,,,,8.0,5.0,101.0,7.0,403.2145872999681,,,,,,,,,,,,,,,,,403.1999968999298,403.5649486000184,404.3637622999959,404.3481566000264,,,,,,,,,,,,,,,,,,,,,,,,,,,,,,,,,,,404.3481712000212,404.3637622999959,404.3637622999959,405.14775330002885,g,1.0,0.7721499999752268,,,,,sub-151,1.0,stroop_test,59.80614437744572,
,,,,,,,,rot,yellow,g,0.0,,,,,,,,,8.0,6.0,102.0,3.0,405.1635869999882,,,,,,,,,,,,,,,,,405.1483000000008,406.3628439999884,407.16217359993607,407.1463831999572,,,,,,,,,,,,,,,,,,,,,,,,,,,,,,,,,,,407.1463973999489,407.16217359993607,407.16217359993607,408.1454814999597,g,1.0,0.974716000026092,,,,,sub-151,1.0,stroop_test,59.80614437744572,
,,,,,,,,gelb,red,r,0.0,,,,,,,,,8.0,7.0,103.0,8.0,408.1613907000283,,,,,,,,,,,,,,,,,408.1459543999517,408.24478469998576,409.0443208999932,409.0282553000143,,,,,,,,,,,,,,,,,,,,,,,,,,,,,,,,,,,409.02827010001056,409.0443208999932,409.0443208999932,410.17795359995216,r,1.0,1.1206385999685151,,,,,sub-151,1.0,stroop_test,59.80614437744572,
,,,,,,,,gelb,yellow,g,1.0,,,,,,,,,8.0,8.0,104.0,10.0,410.19351709994953,,,,,,,,,,,,,,,,,410.1784434999572,410.5442589999875,411.3595335999271,411.3433918999508,,,,,,,,,,,,,,,,,,,,,,,,,,,,,,,,,,,411.343407999957,411.3595335999271,411.3595335999271,412.3268676999724,g,1.0,0.9603065999690444,,,,,sub-151,1.0,stroop_test,59.80614437744572,
,,,,,,,,rot,red,r,1.0,,,,,,,,,8.0,9.0,105.0,1.0,412.3423599000089,,,,,,,,,,,,,,,,,412.3279766999185,412.4420305999229,413.241743599996,413.22520049999,,,,,,,,,,,,,,,,,,,,,,,,,,,,,,,,,,,413.2252200000221,413.241743599996,413.241743599996,413.94191920000594,r,1.0,0.6956737000728026,,,,,sub-151,1.0,stroop_test,59.80614437744572,
,,,,,,,,rot,red,r,1.0,,,,,,,,,8.0,10.0,106.0,0.0,413.9578351000091,,,,,,,,,,,,,,,,,413.94263559998944,415.1573530000169,415.9727677999763,415.9567958000116,,,,,,,,,,,,,,,,,,,,,,,,,,,,,,,,,,,415.9568105000071,415.9727677999763,415.9727677999763,417.0571643000003,r,1.0,1.082975500030443,,,,,sub-151,1.0,stroop_test,59.80614437744572,
,,,,,,,,gelb,yellow,g,1.0,,,,,,,,,8.0,11.0,107.0,11.0,417.0723086999496,,,,,,,,,,,,,,,,,417.0577160000103,417.87213829997927,418.6714418999618,418.65532130002975,,,,,,,,,,,,,,,,,,,,,,,,,,,,,,,,,,,418.6553363000276,418.6714418999618,418.6714418999618,419.42173589998856,g,1.0,0.7382936000358313,,,,,sub-151,1.0,stroop_test,59.80614437744572,
,,,,,,,,rot,yellow,g,0.0,,,,,,,,,9.0,0.0,108.0,3.0,419.437514899997,,,,,,,,,,,,,,,,,419.4222156000324,419.787360599963,420.5867250999436,420.57094879995566,,,,,,,,,,,,,,,,,,,,,,,,,,,,,,,,,,,420.57096929999534,420.5867250999436,420.5867250999436,421.1706477999687,g,1.0,0.571643800009042,,,,,sub-151,1.0,stroop_test,59.80614437744572,
,,,,,,,,blau,blue,b,1.0,,,,,,,,,9.0,1.0,109.0,6.0,421.1859179999447,,,,,,,,,,,,,,,,,421.1711950999452,421.53601949999575,422.3353933999315,422.3197181000141,,,,,,,,,,,,,,,,,,,,,,,,,,,,,,,,,,,422.3197319000028,422.3353933999315,422.3353933999315,423.1861374999862,b,1.0,0.8418704000068828,,,,,sub-151,1.0,stroop_test,59.80614437744572,
,,,,,,,,blau,yellow,g,0.0,,,,,,,,,9.0,2.0,110.0,7.0,423.2015255999286,,,,,,,,,,,,,,,,,423.1866453000112,423.3013806999661,424.1009341999888,424.0851189999376,,,,,,,,,,,,,,,,,,,,,,,,,,,,,,,,,,,424.0851337999338,424.1009341999888,424.1009341999888,425.5011357999174,g,1.0,1.388565000030212,,,,,sub-151,1.0,stroop_test,59.80614437744572,
,,,,,,,,rot,red,r,1.0,,,,,,,,,9.0,3.0,111.0,0.0,425.51683600002434,,,,,,,,,,,,,,,,,425.5016833000118,425.616689599934,426.4161592000164,426.4002091999864,,,,,,,,,,,,,,,,,,,,,,,,,,,,,,,,,,,426.40022359997965,426.4161592000164,426.4161592000164,427.29994930000976,r,1.0,0.8766420000465587,,,,,sub-151,1.0,stroop_test,59.80614437744572,
,,,,,,,,rot,red,r,1.0,,,,,,,,,9.0,4.0,112.0,1.0,427.31563969992567,,,,,,,,,,,,,,,,,427.30045799992513,427.4156205999898,428.2148163999664,428.19897539995145,,,,,,,,,,,,,,,,,,,,,,,,,,,,,,,,,,,428.1989964999957,428.2148163999664,428.2148163999664,428.7659958000295,r,1.0,0.5472955000586808,,,,,sub-151,1.0,stroop_test,59.80614437744572,
,,,,,,,,rot,blue,b,0.0,,,,,,,,,9.0,5.0,113.0,2.0,428.7811442000093,,,,,,,,,,,,,,,,,428.766518099932,429.580438499921,430.37994699995033,430.36430959997233,,,,,,,,,,,,,,,,,,,,,,,,,,,,,,,,,,,430.3643236999633,430.37994699995033,430.37994699995033,431.4468935999321,b,1.0,1.0526857998920605,,,,,sub-151,1.0,stroop_test,59.80614437744572,
,,,,,,,,gelb,red,r,0.0,,,,,,,,,9.0,6.0,114.0,8.0,431.4626816000091,,,,,,,,,,,,,,,,,431.4474927999545,432.2622803000268,433.0616191999288,433.0455212999368,,,,,,,,,,,,,,,,,,,,,,,,,,,,,,,,,,,433.0455359999323,433.0616191999288,433.0616191999288,434.4783682000125,r,1.0,1.4048658999381587,,,,,sub-151,1.0,stroop_test,59.80614437744572,
,,,,,,,,gelb,yellow,g,1.0,,,,,,,,,9.0,7.0,115.0,10.0,434.4942031999817,,,,,,,,,,,,,,,,,434.4788923999295,435.2933331999229,436.0931925999466,436.076915099984,,,,,,,,,,,,,,,,,,,,,,,,,,,,,,,,,,,436.0769288999727,436.0931925999466,436.0931925999466,436.9441251999233,g,1.0,0.8435282000573352,,,,,sub-151,1.0,stroop_test,59.80614437744572,
,,,,,,,,blau,blue,b,1.0,,,,,,,,,9.0,8.0,116.0,5.0,436.959192099981,,,,,,,,,,,,,,,,,436.9450451999437,438.1585120999953,438.9580160999904,438.9415748999454,,,,,,,,,,,,,,,,,,,,,,,,,,,,,,,,,,,438.9415889999364,438.9580160999904,438.9580160999904,440.0915673000272,b,1.0,1.1246134999673814,,,,,sub-151,1.0,stroop_test,59.80614437744572,
,,,,,,,,blau,red,r,0.0,,,,,,,,,9.0,9.0,117.0,4.0,440.1067676999373,,,,,,,,,,,,,,,,,440.0920703000156,440.20707949996,441.0066857999191,440.9904415999772,,,,,,,,,,,,,,,,,,,,,,,,,,,,,,,,,,,440.99045569996815,441.0066857999191,441.0066857999191,442.3231484999415,r,1.0,1.3038748000981286,,,,,sub-151,1.0,stroop_test,59.80614437744572,
,,,,,,,,gelb,blue,b,0.0,,,,,,,,,9.0,10.0,118.0,9.0,442.33895360003226,,,,,,,,,,,,,,,,,442.3236727999756,443.5382085000165,444.3374984000111,444.32142639998347,,,,,,,,,,,,,,,,,,,,,,,,,,,,,,,,,,,444.321440699976,444.3374984000111,444.3374984000111,445.1885166999418,g,0.0,0.8487398000434041,,,,,sub-151,1.0,stroop_test,59.80614437744572,
,,,,,,,,gelb,yellow,g,1.0,,,,,,,,,9.0,11.0,119.0,11.0,445.2036300000036,,,,,,,,,,,,,,,,,445.1890185999218,445.5535909000319,446.3531751999399,446.3369982999284,,,,,,,,,,,,,,,,,,,,,,,,,,,,,,,,,,,446.33701229991857,446.3531751999399,446.3531751999399,447.2866844999371,g,1.0,0.926181200076826,,,,,sub-151,1.0,stroop_test,59.80614437744572,
,,,,,,,,,,,,,,,,,,,,,,,,,,,,,,,,,,,,,,,,,,,,,,,,,,,,,,,,,,,,,,,,,,,,,,,,,,,,,,,,,,,,,,,447.28705909999553,447.30241080001,452.2992830999429,sub-151,,,,
