wordCTK,colorCTK,corrAnsCTK,congruentCTK,thisN,thisTrialN,thisRepN,keyResp_CTK.keys,keyResp_CTK.corr,keyResp_CTK.rt,keyResp_CTK.duration,wordPractice,colorPractice,corrAnsPractice,congruentPractice,respPractice.keys,respPractice.corr,respPractice.rt,respPractice.duration,word,color,corrAns,congruent,keyResp_test_run.keys,keyResp_test_run.corr,keyResp_test_run.rt,keyResp_test_run.duration,trials_CTK.thisRepN,trials_CTK.thisTrialN,trials_CTK.thisN,trials_CTK.thisIndex,trials_practice.thisRepN,trials_practice.thisTrialN,trials_practice.thisN,trials_practice.thisIndex,trials_test.thisRepN,trials_test.thisTrialN,trials_test.thisN,trials_test.thisIndex,thisRow.t,notes,instruction.started,instr_text.started,instr_image.started,instr_resp.started,instruction.stopped,instr_resp.keys,instr_resp.rt,instr_resp.duration,instr_color_to_key.started,instr_ctk.started,resp_ctk.started,instr_color_to_key.stopped,resp_ctk.keys,resp_ctk.rt,resp_ctk.duration,ITI.started,fixcross.started,fixcross.stopped,ITI.stopped,color_to_key_run.started,stimulus_CTK.started,keyResp_CTK.started,color_to_key_run.stopped,trials_CTK.keyResp_CTK.keys,trials_CTK.keyResp_CTK.corr,trials_CTK.keyResp_CTK.rt,trials_CTK.keyResp_CTK.duration,instr_practice.started,instr_practice_text.started,instr_practice_resp.started,instr_practice.stopped,instr_practice_resp.keys,instr_practice_resp.rt,instr_practice_resp.duration,practice_run.started,stimulus_practice.started,respPractice.started,practice_run.stopped,trials_practice.respPractice.keys,trials_practice.respPractice.corr,trials_practice.respPractice.rt,trials_practice.respPractice.duration,feedback.started,textFeedback.started,feedback.stopped,textFeedback.stopped,instr_test.started,instr_test_text.started,instr_test_resp.started,instr_test.stopped,instr_test_resp.keys,instr_test_resp.rt,instr_test_resp.duration,test_run.started,stimulus_test_run.started,keyResp_test_run.started,test_run.stopped,trials_test.keyResp_test_run.keys,trials_test.keyResp_test_run.corr,trials_test.keyResp_test_run.rt,trials_test.keyResp_test_run.duration,goodbye.started,textGoodbye.started,textGoodbye.stopped,goodbye.stopped,participant,session,expName,frameRate,Unnamed: 113
,,,,,,,,,,,,,,,,,,,,,,,,,,,,,,,,,,,,,,,,,0.0032402000069851,0.097795000008773,0.097795000008773,0.097795000008773,6.633940900006564,space,6.417973399991752,,,,,,,,,,,,,,,,,,,,,,,,,,,,,,,,,,,,,,,,,,,,,,,,,,,,,,,,,,,sub-172,1,stroop_test,60.18904174359367,
,,,,,,,,,,,,,,,,,,,,,,,,,,,,,,,,,,,,,,,,,,,,,,,,,6.633995000011055,6.638916299998527,6.638916299998527,11.337963099998888,space,4.683681299997261,,,,,,,,,,,,,,,,,,,,,,,,,,,,,,,,,,,,,,,,,,,,,,,,,,,,sub-172,1,stroop_test,60.18904174359367,
test,yellow,g,1.0,0.0,0.0,0.0,g,1.0,0.9682031999982428,,,,,,,,,,,,,,,,,,0.0,0.0,0.0,1.0,,,,,,,,,11.377345100001548,,,,,,,,,,,,,,,,,11.37405480000598,11.453451400011543,12.253451700002188,12.23854200000642,12.248880600003758,12.253451700002188,12.253451700002188,13.238736600003904,g,1.0,0.9682031999982428,,,,,,,,,,,,,,,,,,,,,,,,,,,,,,,,,,,,,,,,sub-172,1,stroop_test,60.18904174359367,
test,red,r,1.0,1.0,1.0,0.0,r,1.0,0.7612040000094566,,,,,,,,,,,,,,,,,,0.0,1.0,1.0,0.0,,,,,,,,,13.253281000012066,,,,,,,,,,,,,,,,,13.239206500002185,13.353496800002176,14.15319750001072,14.137976900005016,14.138530199998058,14.15319750001072,14.15319750001072,14.922110800005612,r,1.0,0.7612040000094566,,,,,,,,,,,,,,,,,,,,,,,,,,,,,,,,,,,,,,,,sub-172,1,stroop_test,60.18904174359367,
test,blue,b,1.0,2.0,2.0,0.0,b,1.0,0.3454835000011371,,,,,,,,,,,,,,,,,,0.0,2.0,2.0,2.0,,,,,,,,,14.936907900002552,,,,,,,,,,,,,,,,,14.922477200001596,15.73699530000158,16.537141500011785,16.522285900005954,16.523096100005205,16.537141500011785,16.537141500011785,16.890837400002056,b,1.0,0.3454835000011371,,,,,,,,,,,,,,,,,,,,,,,,,,,,,,,,,,,,,,,,sub-172,1,stroop_test,60.18904174359367,
test,blue,b,1.0,3.0,0.0,1.0,b,1.0,0.5810213999939151,,,,,,,,,,,,,,,,,,1.0,0.0,3.0,2.0,,,,,,,,,16.903816200006986,,,,,,,,,,,,,,,,,16.89135950000491,18.104120800009696,18.904252799999085,18.889446000001044,18.89030240000284,18.904252799999085,18.904252799999085,19.490420700007235,b,1.0,0.5810213999939151,,,,,,,,,,,,,,,,,,,,,,,,,,,,,,,,,,,,,,,,sub-172,1,stroop_test,60.18904174359367,
test,yellow,g,1.0,4.0,1.0,1.0,g,1.0,0.7849225999962073,,,,,,,,,,,,,,,,,,1.0,1.0,4.0,1.0,,,,,,,,,19.50433170000906,,,,,,,,,,,,,,,,,19.49082890000136,19.85417669999879,20.65450870001223,20.63974870000675,20.64068950001092,20.65450870001223,20.65450870001223,21.45703470001172,g,1.0,0.7849225999962073,,,,,,,,,,,,,,,,,,,,,,,,,,,,,,,,,,,,,,,,sub-172,1,stroop_test,60.18904174359367,
test,red,r,1.0,5.0,2.0,1.0,r,1.0,0.583489800003008,,,,,,,,,,,,,,,,,,1.0,2.0,5.0,0.0,,,,,,,,,21.471511600000667,,,,,,,,,,,,,,,,,21.457486600003904,22.27155650001077,23.071764200009056,23.057214600004954,23.058376100001624,23.071764200009056,23.071764200009056,23.658865900011733,r,1.0,0.583489800003008,,,,,,,,,,,,,,,,,,,,,,,,,,,,,,,,,,,,,,,,sub-172,1,stroop_test,60.18904174359367,
test,blue,b,1.0,6.0,0.0,2.0,b,1.0,0.4956241000036243,,,,,,,,,,,,,,,,,,2.0,0.0,6.0,2.0,,,,,,,,,23.67165340000065,,,,,,,,,,,,,,,,,23.65936600000714,24.47199280001223,25.27203000000736,25.256944900000235,25.25764870000421,25.27203000000736,25.27203000000736,25.77341730000626,b,1.0,0.4956241000036243,,,,,,,,,,,,,,,,,,,,,,,,,,,,,,,,,,,,,,,,sub-172,1,stroop_test,60.18904174359367,
test,red,r,1.0,7.0,1.0,2.0,r,1.0,0.7476069999975152,,,,,,,,,,,,,,,,,,2.0,1.0,7.0,0.0,,,,,,,,,25.78869909999776,,,,,,,,,,,,,,,,,25.773806900004278,25.88859250000678,26.68873110000277,26.673534300003663,26.674147800003997,26.68873110000277,26.68873110000277,27.44268469999952,r,1.0,0.7476069999975152,,,,,,,,,,,,,,,,,,,,,,,,,,,,,,,,,,,,,,,,sub-172,1,stroop_test,60.18904174359367,
test,yellow,g,1.0,8.0,2.0,2.0,g,1.0,0.4417535000102361,,,,,,,,,,,,,,,,,,2.0,2.0,8.0,1.0,,,,,,,,,27.455800600000657,,,,,,,,,,,,,,,,,27.44330389999959,28.255843300008564,29.056080000009388,29.04109680000693,29.04191920001176,29.056080000009388,29.056080000009388,29.50809560000198,g,1.0,0.4417535000102361,,,,,,,,,,,,,,,,,,,,,,,,,,,,,,,,,,,,,,,,sub-172,1,stroop_test,60.18904174359367,
test,blue,b,1.0,9.0,0.0,3.0,b,1.0,0.4566016000026138,,,,,,,,,,,,,,,,,,3.0,0.0,9.0,2.0,,,,,,,,,29.52303419999953,,,,,,,,,,,,,,,,,29.5084588000027,30.72320290000061,31.5231952000031,31.507395599997835,31.507984100011527,31.5231952000031,31.5231952000031,31.992855100004817,b,1.0,0.4566016000026138,,,,,,,,,,,,,,,,,,,,,,,,,,,,,,,,,,,,,,,,sub-172,1,stroop_test,60.18904174359367,
test,yellow,g,1.0,10.0,1.0,3.0,g,1.0,0.6299301999970339,,,,,,,,,,,,,,,,,,3.0,1.0,10.0,1.0,,,,,,,,,32.00643010000931,,,,,,,,,,,,,,,,,31.99328819999937,32.106617199999164,32.90772339999967,32.89163009999902,32.89249110000674,32.90772339999967,32.90772339999967,33.542808199999854,g,1.0,0.6299301999970339,,,,,,,,,,,,,,,,,,,,,,,,,,,,,,,,,,,,,,,,sub-172,1,stroop_test,60.18904174359367,
test,red,r,1.0,11.0,2.0,3.0,r,1.0,0.4422336999996332,,,,,,,,,,,,,,,,,,3.0,2.0,11.0,0.0,,,,,,,,,33.55683250000584,,,,,,,,,,,,,,,,,33.54328170001099,34.7575027999992,35.5573590999993,35.542026900002384,35.542568100005155,35.5573590999993,35.5573590999993,36.01152510000975,r,1.0,0.4422336999996332,,,,,,,,,,,,,,,,,,,,,,,,,,,,,,,,,,,,,,,,sub-172,1,stroop_test,60.18904174359367,
,,,,,,,,,,,,,,,,,,,,,,,,,,,,,,,,,,,,,,,,,,,,,,,,,,,,,,,,,,,,,,,,,,,,36.0118291000108,36.02391129999887,36.02391129999887,38.92668610000692,space,2.892386399995303,,,,,,,,,,,,,,,,,,,,,,,,,,,,,,,,,sub-172,1,stroop_test,60.18904174359367,
,,,,0.0,0.0,0.0,,,,,gelb,yellow,g,1.0,g,1.0,1.437476399994921,,,,,,,,,,,,,,0.0,0.0,0.0,11.0,,,,,38.95812280000246,,,,,,,,,,,,,,,,,38.95459180000762,40.14154350000899,40.94976870001119,40.92650890001096,,,,,,,,,,,,,,,,40.94236810000439,40.94976870001119,40.94976870001119,42.39381900000444,g,1.0,1.437476399994921,,42.404380200008745,42.41009590000613,43.40899370000989,,,,,,,,,,,,,,,,,,,,,sub-172,1,stroop_test,60.18904174359367,
,,,,1.0,1.0,0.0,,,,,blau,yellow,g,0.0,g,1.0,0.9302526999963447,,,,,,,,,,,,,,0.0,1.0,1.0,7.0,,,,,43.42540560000634,,,,,,,,,,,,,,,,,43.40936360000342,43.50910130000557,44.30896410001151,44.29370760000893,,,,,,,,,,,,,,,,44.3029763000086,44.30896410001151,44.30896410001151,45.2447269000113,g,1.0,0.9302526999963447,,45.24537250000867,45.25901460000023,46.24469990000944,46.25949140000739,,,,,,,,,,,,,,,,,,,,sub-172,1,stroop_test,60.18904174359367,
,,,,2.0,2.0,0.0,,,,,blau,blue,b,1.0,b,1.0,0.930268199997954,,,,,,,,,,,,,,0.0,2.0,2.0,6.0,,,,,46.25949140000739,,,,,,,,,,,,,,,,,46.245016400003806,47.45939720000024,48.25976780000201,48.24459180000122,,,,,,,,,,,,,,,,48.24544910000986,48.25976780000201,48.25976780000201,49.19453740000608,b,1.0,0.930268199997954,,49.19510950001131,49.20980470000359,50.19505730000674,50.20994850000716,,,,,,,,,,,,,,,,,,,,sub-172,1,stroop_test,60.18904174359367,
,,,,3.0,3.0,0.0,,,,,rot,yellow,g,0.0,g,1.0,1.003840699995635,,,,,,,,,,,,,,0.0,3.0,3.0,3.0,,,,,50.20994850000716,,,,,,,,,,,,,,,,,50.19576100000995,50.560095100008766,51.35997610000777,51.34580100000312,,,,,,,,,,,,,,,,51.35430790000828,51.35997610000777,51.35997610000777,52.38035800000944,g,1.0,1.003840699995635,,52.38116840001021,52.39389620001021,53.37910279999778,53.39364300000307,,,,,,,,,,,,,,,,,,,,sub-172,1,stroop_test,60.18904174359367,
,,,,4.0,4.0,0.0,,,,,rot,red,r,1.0,r,1.0,0.4344182000058936,,,,,,,,,,,,,,0.0,4.0,4.0,0.0,,,,,53.39364300000307,,,,,,,,,,,,,,,,,53.37973810000403,54.59474450000562,55.39400290000776,55.37976310000522,,,,,,,,,,,,,,,,55.38068410000415,55.39400290000776,55.39400290000776,55.831205000009504,r,1.0,0.4344182000058936,,55.83194139999978,55.844024600010016,56.82976960000815,56.84427020000294,,,,,,,,,,,,,,,,,,,,sub-172,1,stroop_test,60.18904174359367,
,,,,5.0,5.0,0.0,,,,,gelb,yellow,g,1.0,g,1.0,0.492896900002961,,,,,,,,,,,,,,0.0,5.0,5.0,10.0,,,,,56.84427020000294,,,,,,,,,,,,,,,,,56.83030420000432,56.944336200002,57.74424010000075,57.72943700000178,,,,,,,,,,,,,,,,57.73345610000251,57.74424010000075,57.74424010000075,58.24778380000498,g,1.0,0.492896900002961,,58.248544600006426,58.2611934000015,59.24637030001031,59.2613898999989,,,,,,,,,,,,,,,,,,,,sub-172,1,stroop_test,60.18904174359367,
,,,,6.0,6.0,0.0,,,,,blau,red,r,0.0,r,1.0,0.978702099993825,,,,,,,,,,,,,,0.0,6.0,6.0,4.0,,,,,59.2613898999989,,,,,,,,,,,,,,,,,59.24707570001192,60.06173370000033,60.86155440000584,60.84715909999795,,,,,,,,,,,,,,,,60.85305800000788,60.86155440000584,60.86155440000584,61.84815270001127,r,1.0,0.978702099993825,,61.84893110000121,61.8617959000112,62.84754430000612,62.86209470000176,,,,,,,,,,,,,,,,,,,,sub-172,1,stroop_test,60.18904174359367,
,,,,7.0,7.0,0.0,,,,,rot,blue,b,0.0,b,1.0,0.902740299992729,,,,,,,,,,,,,,0.0,7.0,7.0,2.0,,,,,62.86209470000176,,,,,,,,,,,,,,,,,62.84812120000424,62.9624513000017,63.76190910000878,63.74768820000463,,,,,,,,,,,,,,,,63.75344660000701,63.76190910000878,63.76190910000878,64.68227550000302,b,1.0,0.902740299992729,,64.68307710000954,64.69559310001205,65.68171440000879,65.69562110000697,,,,,,,,,,,,,,,,,,,,sub-172,1,stroop_test,60.18904174359367,
,,,,8.0,8.0,0.0,,,,,gelb,red,r,0.0,r,1.0,1.1691624999948544,,,,,,,,,,,,,,0.0,8.0,8.0,8.0,,,,,65.69562110000697,,,,,,,,,,,,,,,,,65.68225460000394,66.89620450000803,67.6963195999997,67.68211470000097,,,,,,,,,,,,,,,,67.6879908000119,67.6963195999997,67.6963195999997,68.88236529999995,r,1.0,1.1691624999948544,,68.88317450000613,68.89649350001127,69.88194760000624,69.8968531999999,,,,,,,,,,,,,,,,,,,,sub-172,1,stroop_test,60.18904174359367,
,,,,9.0,9.0,0.0,,,,,rot,red,r,1.0,r,1.0,0.4247201000107452,,,,,,,,,,,,,,0.0,9.0,9.0,1.0,,,,,69.8968531999999,,,,,,,,,,,,,,,,,69.88256070000352,71.09686760000477,71.89653180001187,71.88235860000714,,,,,,,,,,,,,,,,71.88772470000549,71.89653180001187,71.89653180001187,72.33301600000414,r,1.0,0.4247201000107452,,72.33375640001032,72.34744170001068,73.33229820000997,73.34719460000633,,,,,,,,,,,,,,,,,,,,sub-172,1,stroop_test,60.18904174359367,
,,,,10.0,10.0,0.0,,,,,gelb,blue,b,0.0,b,1.0,0.8667341000109445,,,,,,,,,,,,,,0.0,10.0,10.0,9.0,,,,,73.34719460000633,,,,,,,,,,,,,,,,,73.33283949999895,74.54740740000852,75.34738940000534,75.33321740000974,,,,,,,,,,,,,,,,75.33839090001129,75.34738940000534,75.34738940000534,76.21810520000872,b,1.0,0.8667341000109445,,76.2188016,76.23121560001164,77.2166472000099,77.23136130000057,,,,,,,,,,,,,,,,,,,,sub-172,1,stroop_test,60.18904174359367,
,,,,11.0,11.0,0.0,,,,,blau,blue,b,1.0,b,1.0,0.6116553000028944,,,,,,,,,,,,,,0.0,11.0,11.0,5.0,,,,,77.23136130000057,,,,,,,,,,,,,,,,,77.21716759999981,78.03150969999842,78.83144270000048,78.81681380000373,,,,,,,,,,,,,,,,78.8230079000059,78.83144270000048,78.83144270000048,79.45107590001135,b,1.0,0.6116553000028944,,79.45185140000831,79.4650576999993,80.45054600000731,80.46545709999918,,,,,,,,,,,,,,,,,,,,sub-172,1,stroop_test,60.18904174359367,
,,,,12.0,0.0,1.0,,,,,blau,blue,b,1.0,b,1.0,0.6288379000034183,,,,,,,,,,,,,,1.0,0.0,12.0,6.0,,,,,80.46545709999918,,,,,,,,,,,,,,,,,80.45132069999818,80.56533250000211,81.36530530000164,81.35088969999924,,,,,,,,,,,,,,,,81.35192190000089,81.36530530000164,81.36530530000164,82.00084230001085,b,1.0,0.6288379000034183,,82.00144010000804,82.01538340000843,83.00082590000238,83.0159946000058,,,,,,,,,,,,,,,,,,,,sub-172,1,stroop_test,60.18904174359367,
,,,,13.0,1.0,1.0,,,,,gelb,red,r,0.0,r,1.0,0.846654299995862,,,,,,,,,,,,,,1.0,1.0,13.0,8.0,,,,,83.0159946000058,,,,,,,,,,,,,,,,,83.00140870000178,84.21607049999875,85.01611160000903,85.00109119999979,,,,,,,,,,,,,,,,85.00597199999902,85.01611160000903,85.01611160000903,85.8681848999986,r,1.0,0.846654299995862,,85.86885700000857,85.8830050000106,86.86826590000419,86.8831896000047,,,,,,,,,,,,,,,,,,,,sub-172,1,stroop_test,60.18904174359367,
,,,,14.0,2.0,1.0,,,,,blau,yellow,g,0.0,g,1.0,0.8277084999863291,,,,,,,,,,,,,,1.0,2.0,14.0,7.0,,,,,86.8831896000047,,,,,,,,,,,,,,,,,86.86903510001139,86.98287790000904,87.78310130001046,87.76866169999994,,,,,,,,,,,,,,,,87.77432589999808,87.78310130001046,87.78310130001046,88.62025459999859,g,1.0,0.8277084999863291,,88.62103460000071,88.63333700000658,89.61901470000157,89.63352390000364,,,,,,,,,,,,,,,,,,,,sub-172,1,stroop_test,60.18904174359367,
,,,,15.0,3.0,1.0,,,,,rot,yellow,g,0.0,r,0.0,0.6514145000110148,,,,,,,,,,,,,,1.0,3.0,15.0,3.0,,,,,89.63352390000364,,,,,,,,,,,,,,,,,89.61961700000393,90.43391600000903,91.23381200000586,91.2189408000122,,,,,,,,,,,,,,,,91.22323200000392,91.23381200000586,91.23381200000586,91.88754380001046,r,0.0,0.6514145000110148,,91.8948500000115,91.90074240000104,92.8864762000012,92.900948399998,,,,,,,,,,,,,,,,,,,,sub-172,1,stroop_test,60.18904174359367,
,,,,16.0,4.0,1.0,,,,,gelb,blue,b,0.0,b,1.0,0.7905815000121947,,,,,,,,,,,,,,1.0,4.0,16.0,9.0,,,,,92.900948399998,,,,,,,,,,,,,,,,,92.88699559999804,93.25110069999936,94.05091420000826,94.03612370000336,,,,,,,,,,,,,,,,94.0413622000051,94.05091420000826,94.05091420000826,94.85250010000892,b,1.0,0.7905815000121947,,94.85701550000522,94.86756569999852,95.85288080001192,95.8680219000089,,,,,,,,,,,,,,,,,,,,sub-172,1,stroop_test,60.18904174359367,
,,,,17.0,5.0,1.0,,,,,rot,red,r,1.0,r,1.0,0.5640756999928271,,,,,,,,,,,,,,1.0,5.0,17.0,0.0,,,,,95.8680219000089,,,,,,,,,,,,,,,,,95.8537314999994,97.06824960000812,97.8681360000046,97.85321240000484,,,,,,,,,,,,,,,,97.85647480000624,97.8681360000046,97.8681360000046,98.4380489000032,r,1.0,0.5640756999928271,,98.43865930000902,98.4517663000006,99.4364859000052,99.45219350000843,,,,,,,,,,,,,,,,,,,,sub-172,1,stroop_test,60.18904174359367,
,,,,18.0,6.0,1.0,,,,,rot,blue,b,0.0,b,1.0,0.8890322999941418,,,,,,,,,,,,,,1.0,6.0,18.0,2.0,,,,,99.45219350000843,,,,,,,,,,,,,,,,,99.43682120001176,99.80242140000335,100.602332200011,100.58632680001028,,,,,,,,,,,,,,,,100.58671319999848,100.602332200011,100.602332200011,101.50555130001158,b,1.0,0.8890322999941418,,101.50609480000276,101.5194543000107,102.50440610000804,102.51990620000288,,,,,,,,,,,,,,,,,,,,sub-172,1,stroop_test,60.18904174359367,
,,,,19.0,7.0,1.0,,,,,gelb,yellow,g,1.0,g,1.0,0.6038119000004372,,,,,,,,,,,,,,1.0,7.0,19.0,10.0,,,,,102.51990620000288,,,,,,,,,,,,,,,,,102.50491690001218,103.31935640001028,104.11960760000512,104.10383990000992,,,,,,,,,,,,,,,,104.10717200000364,104.11960760000512,104.11960760000512,104.73959890000695,g,1.0,0.6038119000004372,,104.74053080000158,104.75311130000046,105.7380436000094,105.75315960000444,,,,,,,,,,,,,,,,,,,,sub-172,1,stroop_test,60.18904174359367,
,,,,20.0,8.0,1.0,,,,,blau,blue,b,1.0,b,1.0,0.5156971000105841,,,,,,,,,,,,,,1.0,8.0,20.0,5.0,,,,,105.75315960000444,,,,,,,,,,,,,,,,,105.73844400000236,106.1030608000001,106.90293720000771,106.88850900001124,,,,,,,,,,,,,,,,106.8947033000004,106.90293720000771,106.90293720000771,107.42294360000233,b,1.0,0.5156971000105841,,107.42358580000293,107.43712180000148,108.42187170000398,108.4375202000083,,,,,,,,,,,,,,,,,,,,sub-172,1,stroop_test,60.18904174359367,
,,,,21.0,9.0,1.0,,,,,rot,red,r,1.0,r,1.0,0.4301922999875387,,,,,,,,,,,,,,1.0,9.0,21.0,1.0,,,,,108.4375202000083,,,,,,,,,,,,,,,,,108.42242319999788,109.6373445000063,110.43726920000336,110.42285640000772,,,,,,,,,,,,,,,,110.42833670000256,110.43726920000336,110.43726920000336,110.87277370000083,r,1.0,0.4301922999875387,,110.87330500000098,110.88725939999858,111.87313530000392,111.88781300000846,,,,,,,,,,,,,,,,,,,,sub-172,1,stroop_test,60.18904174359367,
,,,,22.0,10.0,1.0,,,,,blau,red,r,0.0,r,1.0,0.8302290999999968,,,,,,,,,,,,,,1.0,10.0,22.0,4.0,,,,,111.88781300000846,,,,,,,,,,,,,,,,,111.8737431000045,112.68744650000008,113.48813870000596,113.47351900000648,,,,,,,,,,,,,,,,113.47949540000992,113.48813870000596,113.48813870000596,114.32344400000876,r,1.0,0.8302290999999968,,114.3240472000034,114.3376791000046,115.32328930000948,115.33808050000516,,,,,,,,,,,,,,,,,,,,sub-172,1,stroop_test,60.18904174359367,
,,,,23.0,11.0,1.0,,,,,gelb,yellow,g,1.0,g,1.0,0.4632350000028964,,,,,,,,,,,,,,1.0,11.0,23.0,11.0,,,,,115.33808050000516,,,,,,,,,,,,,,,,,115.32390410000517,115.68790630000876,116.48821609999868,116.47406079999928,,,,,,,,,,,,,,,,116.47886650000872,116.48821609999868,116.48821609999868,116.95721710000362,g,1.0,0.4632350000028964,,116.95789580000564,116.97175000001153,117.95777740000632,117.9721014000097,,,,,,,,,,,,,,,,,,,,sub-172,1,stroop_test,60.18904174359367,
,,,,,,,,,,,,,,,,,,,,,,,,,,,,,,,,,,,,,,,,,,,,,,,,,,,,,,,,,,,,,,,,,,,,,,,,,,,,,,,,,,,,,,,117.95799690000422,117.9721014000097,117.9721014000097,126.32557700001053,space,8.344526300003054,,,,,,,,,,,,,,sub-172,1,stroop_test,60.18904174359367,
,,,,0.0,0.0,0.0,,,,,,,,,,,,,blau,red,r,0.0,r,1.0,0.7542935999954352,,,,,,,,,,0.0,0.0,0.0,4.0,126.3643124000082,,,,,,,,,,,,,,,,,126.36096600000748,127.14040440000826,127.94036540000523,127.92568349999785,,,,,,,,,,,,,,,,,,,,,,,,,,,,,,,,,,,127.9320502000046,127.94036540000523,127.94036540000523,128.71034650001093,r,1.0,0.7542935999954352,,,,,,sub-172,1,stroop_test,60.18904174359367,
,,,,1.0,1.0,0.0,,,,,,,,,,,,,blau,blue,b,1.0,b,1.0,0.54690539999865,,,,,,,,,,0.0,1.0,1.0,6.0,128.72394970001187,,,,,,,,,,,,,,,,,128.71092100000533,129.9245152000076,130.7245016000088,130.70952000000398,,,,,,,,,,,,,,,,,,,,,,,,,,,,,,,,,,,130.71047740000358,130.7245016000088,130.7245016000088,131.27737250000064,b,1.0,0.54690539999865,,,,,,sub-172,1,stroop_test,60.18904174359367,
,,,,2.0,2.0,0.0,,,,,,,,,,,,,rot,red,r,1.0,r,1.0,0.5963418000028469,,,,,,,,,,0.0,2.0,2.0,1.0,131.290849099998,,,,,,,,,,,,,,,,,131.27798579999944,131.3910343000025,132.19092810001166,132.17624090000754,,,,,,,,,,,,,,,,,,,,,,,,,,,,,,,,,,,132.1811938000028,132.19092810001166,132.19092810001166,132.794344000009,r,1.0,0.5963418000028469,,,,,,sub-172,1,stroop_test,60.18904174359367,
,,,,3.0,3.0,0.0,,,,,,,,,,,,,blau,blue,b,1.0,b,1.0,0.5470836000022246,,,,,,,,,,0.0,3.0,3.0,5.0,132.80754819999856,,,,,,,,,,,,,,,,,132.79487360001076,133.60809860000154,134.40801780000038,134.3932402000064,,,,,,,,,,,,,,,,,,,,,,,,,,,,,,,,,,,134.39887330000056,134.40801780000038,134.40801780000038,134.9607984000031,b,1.0,0.5470836000022246,,,,,,sub-172,1,stroop_test,60.18904174359367,
,,,,4.0,4.0,0.0,,,,,,,,,,,,,blau,yellow,g,0.0,g,1.0,0.6278130999999121,,,,,,,,,,0.0,4.0,4.0,7.0,134.9752792000072,,,,,,,,,,,,,,,,,134.96133679999912,136.17580820000148,136.97561350000615,136.96062660000462,,,,,,,,,,,,,,,,,,,,,,,,,,,,,,,,,,,136.96150400000624,136.97561350000615,136.97561350000615,137.61178459999792,g,1.0,0.6278130999999121,,,,,,sub-172,1,stroop_test,60.18904174359367,
,,,,5.0,5.0,0.0,,,,,,,,,,,,,gelb,yellow,g,1.0,g,1.0,0.4159279999876162,,,,,,,,,,0.0,5.0,5.0,10.0,137.62520340000628,,,,,,,,,,,,,,,,,137.61251250001078,138.42564700001094,139.22566880000522,139.21076810000525,,,,,,,,,,,,,,,,,,,,,,,,,,,,,,,,,,,139.21618280000985,139.22566880000522,139.22566880000522,139.64574079999875,g,1.0,0.4159279999876162,,,,,,sub-172,1,stroop_test,60.18904174359367,
,,,,6.0,6.0,0.0,,,,,,,,,,,,,gelb,blue,b,0.0,b,1.0,0.734025700003258,,,,,,,,,,0.0,6.0,6.0,9.0,139.65903660000183,,,,,,,,,,,,,,,,,139.64628780000203,140.00926390000677,140.80920410000545,140.794601600006,,,,,,,,,,,,,,,,,,,,,,,,,,,,,,,,,,,140.79553490001126,140.80920410000545,140.80920410000545,141.54643909999868,b,1.0,0.734025700003258,,,,,,sub-172,1,stroop_test,60.18904174359367,
,,,,7.0,7.0,0.0,,,,,,,,,,,,,rot,blue,b,0.0,b,1.0,0.7695141000003787,,,,,,,,,,0.0,7.0,7.0,2.0,141.55952460000117,,,,,,,,,,,,,,,,,141.54690390000178,142.35971980000613,143.21893440000713,143.14516290000756,,,,,,,,,,,,,,,,,,,,,,,,,,,,,,,,,,,143.21430020000844,143.21893440000713,143.21893440000713,143.99628680000023,b,1.0,0.7695141000003787,,,,,,sub-172,1,stroop_test,60.18904174359367,
,,,,8.0,8.0,0.0,,,,,,,,,,,,,rot,yellow,g,0.0,g,1.0,0.6289631999970879,,,,,,,,,,0.0,8.0,8.0,3.0,144.0100148000056,,,,,,,,,,,,,,,,,143.99680750000698,144.1101895000029,144.9100221999979,144.8951503999997,,,,,,,,,,,,,,,,,,,,,,,,,,,,,,,,,,,144.89622570000938,144.9100221999979,144.9100221999979,145.54642710000917,g,1.0,0.6289631999970879,,,,,,sub-172,1,stroop_test,60.18904174359367,
,,,,9.0,9.0,0.0,,,,,,,,,,,,,rot,red,r,1.0,r,1.0,0.4044896999985212,,,,,,,,,,0.0,9.0,9.0,0.0,145.56012460000056,,,,,,,,,,,,,,,,,145.54691610000737,146.36046989999886,147.16074830001162,147.14589759999944,,,,,,,,,,,,,,,,,,,,,,,,,,,,,,,,,,,147.14673290000064,147.16074830001162,147.16074830001162,147.58004460000666,r,1.0,0.4044896999985212,,,,,,sub-172,1,stroop_test,60.18904174359367,
,,,,10.0,10.0,0.0,,,,,,,,,,,,,gelb,yellow,g,1.0,g,1.0,0.5458501999964938,,,,,,,,,,0.0,10.0,10.0,11.0,147.59381050000957,,,,,,,,,,,,,,,,,147.58065709999937,148.39403740000853,149.19398619999993,149.179475500001,,,,,,,,,,,,,,,,,,,,,,,,,,,,,,,,,,,149.1846241000021,149.19398619999993,149.19398619999993,149.74706629999855,g,1.0,0.5458501999964938,,,,,,sub-172,1,stroop_test,60.18904174359367,
,,,,11.0,11.0,0.0,,,,,,,,,,,,,gelb,red,r,0.0,r,1.0,0.7244181999994908,,,,,,,,,,0.0,11.0,11.0,8.0,149.76108399999794,,,,,,,,,,,,,,,,,149.74749059999886,149.86116480000783,150.66095450001012,150.6457650000084,,,,,,,,,,,,,,,,,,,,,,,,,,,,,,,,,,,150.64635290000297,150.66095450001012,150.66095450001012,151.39749630000733,r,1.0,0.7244181999994908,,,,,,sub-172,1,stroop_test,60.18904174359367,
,,,,12.0,0.0,1.0,,,,,,,,,,,,,rot,yellow,g,0.0,g,1.0,1.0479546999995364,,,,,,,,,,1.0,0.0,12.0,3.0,151.41145200000028,,,,,,,,,,,,,,,,,151.39824130000488,152.6118526000064,153.41211410000687,153.39713670000492,,,,,,,,,,,,,,,,,,,,,,,,,,,,,,,,,,,153.40223000000697,153.41211410000687,153.41211410000687,154.46456140000373,g,1.0,1.0479546999995364,,,,,,sub-172,1,stroop_test,60.18904174359367,
,,,,13.0,1.0,1.0,,,,,,,,,,,,,rot,red,r,1.0,r,1.0,0.5015453000087291,,,,,,,,,,1.0,1.0,13.0,0.0,154.47864890001074,,,,,,,,,,,,,,,,,154.4651467000076,155.2787379000074,156.0787621000054,156.0640368000022,,,,,,,,,,,,,,,,,,,,,,,,,,,,,,,,,,,156.06478630000493,156.0787621000054,156.0787621000054,156.59701360001054,r,1.0,0.5015453000087291,,,,,,sub-172,1,stroop_test,60.18904174359367,
,,,,14.0,2.0,1.0,,,,,,,,,,,,,blau,blue,b,1.0,b,1.0,0.3598019000055501,,,,,,,,,,1.0,2.0,14.0,5.0,156.61232720001135,,,,,,,,,,,,,,,,,156.59740800000145,157.412533300012,158.21332860000257,158.19713330001105,,,,,,,,,,,,,,,,,,,,,,,,,,,,,,,,,,,158.20135550000123,158.21332860000257,158.21332860000257,158.58219500000996,b,1.0,0.3598019000055501,,,,,,sub-172,1,stroop_test,60.18904174359367,
,,,,15.0,3.0,1.0,,,,,,,,,,,,,gelb,red,r,0.0,r,1.0,0.6047353000030853,,,,,,,,,,1.0,3.0,15.0,8.0,158.59589440000127,,,,,,,,,,,,,,,,,158.58273819999886,158.94569500000216,159.7462269000098,159.73123050000868,,,,,,,,,,,,,,,,,,,,,,,,,,,,,,,,,,,159.7362407000037,159.7462269000098,159.7462269000098,160.3653161000111,r,1.0,0.6047353000030853,,,,,,sub-172,1,stroop_test,60.18904174359367,
,,,,16.0,4.0,1.0,,,,,,,,,,,,,blau,blue,b,1.0,b,1.0,0.4397215000062715,,,,,,,,,,1.0,4.0,16.0,6.0,160.37932430001092,,,,,,,,,,,,,,,,,160.3658613000007,161.17995320000043,161.9796844000084,161.96472750000248,,,,,,,,,,,,,,,,,,,,,,,,,,,,,,,,,,,161.968987500004,161.9796844000084,161.9796844000084,162.43313550000312,b,1.0,0.4397215000062715,,,,,,sub-172,1,stroop_test,60.18904174359367,
,,,,17.0,5.0,1.0,,,,,,,,,,,,,gelb,blue,b,0.0,b,1.0,0.7161631999915699,,,,,,,,,,1.0,5.0,17.0,9.0,162.44683440000517,,,,,,,,,,,,,,,,,162.43368740000005,162.5466243000119,163.34709799999837,163.33131530000537,,,,,,,,,,,,,,,,,,,,,,,,,,,,,,,,,,,163.33447620000516,163.34709799999837,163.34709799999837,164.0657535000064,b,1.0,0.7161631999915699,,,,,,sub-172,1,stroop_test,60.18904174359367,
,,,,18.0,6.0,1.0,,,,,,,,,,,,,gelb,yellow,g,1.0,g,1.0,0.4853584000084083,,,,,,,,,,1.0,6.0,18.0,10.0,164.08068450000428,,,,,,,,,,,,,,,,,164.0661140000011,164.43050349999976,165.23041440000816,165.2157481000031,,,,,,,,,,,,,,,,,,,,,,,,,,,,,,,,,,,165.21660490000795,165.23041440000816,165.23041440000816,165.73323680000613,g,1.0,0.4853584000084083,,,,,,sub-172,1,stroop_test,60.18904174359367,
,,,,19.0,7.0,1.0,,,,,,,,,,,,,blau,red,r,0.0,r,1.0,0.7287226000044029,,,,,,,,,,1.0,7.0,19.0,4.0,165.7468690000096,,,,,,,,,,,,,,,,,165.7340164000052,165.84687910000503,166.64723040000536,166.63259370000742,,,,,,,,,,,,,,,,,,,,,,,,,,,,,,,,,,,166.6361590000015,166.64723040000536,166.64723040000536,167.38367350000772,r,1.0,0.7287226000044029,,,,,,sub-172,1,stroop_test,60.18904174359367,
,,,,20.0,8.0,1.0,,,,,,,,,,,,,rot,blue,b,0.0,b,1.0,0.3937757999956375,,,,,,,,,,1.0,8.0,20.0,2.0,167.39721870000358,,,,,,,,,,,,,,,,,167.38423850000254,168.19774309999775,168.99764120001055,168.9830832000007,,,,,,,,,,,,,,,,,,,,,,,,,,,,,,,,,,,168.98819590000494,168.99764120001055,168.99764120001055,169.40002680000907,b,1.0,0.3937757999956375,,,,,,sub-172,1,stroop_test,60.18904174359367,
,,,,21.0,9.0,1.0,,,,,,,,,,,,,gelb,yellow,g,1.0,g,1.0,0.5514913000079105,,,,,,,,,,1.0,9.0,21.0,11.0,169.41458160000911,,,,,,,,,,,,,,,,,169.40058339999814,170.61485240000184,171.4148620000051,171.39967230000184,,,,,,,,,,,,,,,,,,,,,,,,,,,,,,,,,,,171.40402400000312,171.4148620000051,171.4148620000051,171.9841732000059,g,1.0,0.5514913000079105,,,,,,sub-172,1,stroop_test,60.18904174359367,
,,,,22.0,10.0,1.0,,,,,,,,,,,,,blau,yellow,g,0.0,g,1.0,0.6295605999912368,,,,,,,,,,1.0,10.0,22.0,7.0,171.99850240000524,,,,,,,,,,,,,,,,,171.98464580001018,172.3483253000013,173.14837650000118,173.13263120000192,,,,,,,,,,,,,,,,,,,,,,,,,,,,,,,,,,,173.1361406000069,173.14837650000118,173.14837650000118,173.78433660000155,g,1.0,0.6295605999912368,,,,,,sub-172,1,stroop_test,60.18904174359367,
,,,,23.0,11.0,1.0,,,,,,,,,,,,,rot,red,r,1.0,r,1.0,0.4096611999993911,,,,,,,,,,1.0,11.0,23.0,1.0,173.79839120000543,,,,,,,,,,,,,,,,,173.7847485000093,174.14892849999887,174.9486140000081,174.93398290000914,,,,,,,,,,,,,,,,,,,,,,,,,,,,,,,,,,,174.93865989999904,174.9486140000081,174.9486140000081,175.36895560000266,r,1.0,0.4096611999993911,,,,,,sub-172,1,stroop_test,60.18904174359367,
,,,,24.0,0.0,2.0,,,,,,,,,,,,,blau,yellow,g,0.0,g,1.0,0.6693796999898041,,,,,,,,,,2.0,0.0,24.0,7.0,175.38246210000943,,,,,,,,,,,,,,,,,175.36952730000485,175.73239140000078,176.53236610000022,176.5172644000122,,,,,,,,,,,,,,,,,,,,,,,,,,,,,,,,,,,176.52196230000118,176.53236610000022,176.53236610000022,177.2185743000009,g,1.0,0.6693796999898041,,,,,,sub-172,1,stroop_test,60.18904174359367,
,,,,25.0,1.0,2.0,,,,,,,,,,,,,gelb,red,r,0.0,r,1.0,0.477493799990043,,,,,,,,,,2.0,1.0,25.0,8.0,177.2326721999998,,,,,,,,,,,,,,,,,177.21905730001163,177.58269370000926,178.38280300000042,178.3679975999985,,,,,,,,,,,,,,,,,,,,,,,,,,,,,,,,,,,178.3725196000014,178.38280300000042,178.38280300000042,178.8690961000102,r,1.0,0.477493799990043,,,,,,sub-172,1,stroop_test,60.18904174359367,
,,,,26.0,2.0,2.0,,,,,,,,,,,,,gelb,yellow,g,1.0,g,1.0,0.3851755999930901,,,,,,,,,,2.0,2.0,26.0,11.0,178.88275620000786,,,,,,,,,,,,,,,,,178.86972410000453,179.68312120001065,180.4830176000105,180.46832820000415,,,,,,,,,,,,,,,,,,,,,,,,,,,,,,,,,,,180.46897360000003,180.4830176000105,180.4830176000105,180.88570150001036,g,1.0,0.3851755999930901,,,,,,sub-172,1,stroop_test,60.18904174359367,
,,,,27.0,3.0,2.0,,,,,,,,,,,,,blau,blue,b,1.0,b,1.0,0.4755999000044539,,,,,,,,,,2.0,3.0,27.0,6.0,180.8995811000059,,,,,,,,,,,,,,,,,180.8862916000071,182.10006290000456,182.8998197000037,182.885048000011,,,,,,,,,,,,,,,,,,,,,,,,,,,,,,,,,,,182.88969409999845,182.8998197000037,182.8998197000037,183.38685090000217,b,1.0,0.4755999000044539,,,,,,sub-172,1,stroop_test,60.18904174359367,
,,,,28.0,4.0,2.0,,,,,,,,,,,,,blau,blue,b,1.0,b,1.0,0.4412167999980738,,,,,,,,,,2.0,4.0,28.0,5.0,183.40035690000516,,,,,,,,,,,,,,,,,183.38749530000496,184.2003183000052,185.00029760001053,184.9865131999977,,,,,,,,,,,,,,,,,,,,,,,,,,,,,,,,,,,184.98780980000447,185.00029760001053,185.00029760001053,185.45384339999876,b,1.0,0.4412167999980738,,,,,,sub-172,1,stroop_test,60.18904174359367,
,,,,29.0,5.0,2.0,,,,,,,,,,,,,rot,red,r,1.0,r,1.0,0.5756789000006393,,,,,,,,,,2.0,5.0,29.0,0.0,185.4670705000026,,,,,,,,,,,,,,,,,185.45448340001167,185.5673786999978,186.36730850000455,186.35247230000093,,,,,,,,,,,,,,,,,,,,,,,,,,,,,,,,,,,186.3570308000053,186.36730850000455,186.36730850000455,186.95292880000488,r,1.0,0.5756789000006393,,,,,,sub-172,1,stroop_test,60.18904174359367,
,,,,30.0,6.0,2.0,,,,,,,,,,,,,rot,blue,b,0.0,b,1.0,0.5535895000066375,,,,,,,,,,2.0,6.0,30.0,2.0,186.9676584000117,,,,,,,,,,,,,,,,,186.95334380000716,187.06780170000275,187.8683738000109,187.85310480000044,,,,,,,,,,,,,,,,,,,,,,,,,,,,,,,,,,,187.8539710000041,187.8683738000109,187.8683738000109,188.43640250001044,b,1.0,0.5535895000066375,,,,,,sub-172,1,stroop_test,60.18904174359367,
,,,,31.0,7.0,2.0,,,,,,,,,,,,,rot,yellow,g,0.0,g,1.0,0.5061339999956544,,,,,,,,,,2.0,7.0,31.0,3.0,188.4511746000062,,,,,,,,,,,,,,,,,188.436755200004,189.65138239999945,190.45136120000095,190.43662250001216,,,,,,,,,,,,,,,,,,,,,,,,,,,,,,,,,,,190.4376549000008,190.45136120000095,190.45136120000095,190.97135780000824,g,1.0,0.5061339999956544,,,,,,sub-172,1,stroop_test,60.18904174359367,
,,,,32.0,8.0,2.0,,,,,,,,,,,,,gelb,yellow,g,1.0,g,1.0,0.4302686000009998,,,,,,,,,,2.0,8.0,32.0,10.0,190.9849908000033,,,,,,,,,,,,,,,,,190.97202690000995,192.1854059000034,192.9852976000111,192.96991090000665,,,,,,,,,,,,,,,,,,,,,,,,,,,,,,,,,,,192.9732398000051,192.9852976000111,192.9852976000111,193.4215852000052,g,1.0,0.4302686000009998,,,,,,sub-172,1,stroop_test,60.18904174359367,
,,,,33.0,9.0,2.0,,,,,,,,,,,,,gelb,blue,b,0.0,b,1.0,0.5022598999930779,,,,,,,,,,2.0,9.0,33.0,9.0,193.4355299000017,,,,,,,,,,,,,,,,,193.42209290000028,193.78553710000412,194.5858358000114,194.5703115000069,,,,,,,,,,,,,,,,,,,,,,,,,,,,,,,,,,,194.5708721999981,194.5858358000114,194.5858358000114,195.1049381000048,b,1.0,0.5022598999930779,,,,,,sub-172,1,stroop_test,60.18904174359367,
,,,,34.0,10.0,2.0,,,,,,,,,,,,,blau,red,r,0.0,r,1.0,0.4182300000102259,,,,,,,,,,2.0,10.0,34.0,4.0,195.11896089999937,,,,,,,,,,,,,,,,,195.1056572000089,196.31954979999864,197.11930270001176,197.104711100008,,,,,,,,,,,,,,,,,,,,,,,,,,,,,,,,,,,197.11003300000448,197.11930270001176,197.11930270001176,197.55536949999805,r,1.0,0.4182300000102259,,,,,,sub-172,1,stroop_test,60.18904174359367,
,,,,35.0,11.0,2.0,,,,,,,,,,,,,rot,red,r,1.0,r,1.0,0.4831393999920692,,,,,,,,,,2.0,11.0,35.0,1.0,197.5696956000029,,,,,,,,,,,,,,,,,197.55590920000395,197.6694357000088,198.4701144999999,198.45450079999864,,,,,,,,,,,,,,,,,,,,,,,,,,,,,,,,,,,198.460811500001,198.4701144999999,198.4701144999999,198.95766040000308,r,1.0,0.4831393999920692,,,,,,sub-172,1,stroop_test,60.18904174359367,
,,,,36.0,0.0,3.0,,,,,,,,,,,,,rot,blue,b,0.0,b,1.0,0.7355376000050455,,,,,,,,,,3.0,0.0,36.0,2.0,198.97000190000108,,,,,,,,,,,,,,,,,198.9581565999979,199.06978869999875,199.8701434000104,199.85417920000327,,,,,,,,,,,,,,,,,,,,,,,,,,,,,,,,,,,199.8558557000069,199.8701434000104,199.8701434000104,200.623079099998,b,1.0,0.7355376000050455,,,,,,sub-172,1,stroop_test,60.18904174359367,
,,,,37.0,1.0,3.0,,,,,,,,,,,,,gelb,blue,b,0.0,b,1.0,0.3843621999985771,,,,,,,,,,3.0,1.0,37.0,9.0,200.63689550000709,,,,,,,,,,,,,,,,,200.62361120000423,201.43714660000117,202.23693040000217,202.2223301000049,,,,,,,,,,,,,,,,,,,,,,,,,,,,,,,,,,,202.227240600012,202.23693040000217,202.23693040000217,202.62510080001084,b,1.0,0.3843621999985771,,,,,,sub-172,1,stroop_test,60.18904174359367,
,,,,38.0,2.0,3.0,,,,,,,,,,,,,gelb,red,r,0.0,r,1.0,0.4615076000045519,,,,,,,,,,3.0,2.0,38.0,8.0,202.63705190000476,,,,,,,,,,,,,,,,,202.62580510000407,202.98776850001013,203.7877415000112,203.77282800000103,,,,,,,,,,,,,,,,,,,,,,,,,,,,,,,,,,,203.77397819999896,203.7877415000112,203.7877415000112,204.2554863000114,r,1.0,0.4615076000045519,,,,,,sub-172,1,stroop_test,60.18904174359367,
,,,,39.0,3.0,3.0,,,,,,,,,,,,,gelb,yellow,g,1.0,g,1.0,0.4963062000024365,,,,,,,,,,3.0,3.0,39.0,11.0,204.27063640000412,,,,,,,,,,,,,,,,,204.25594440000717,204.3712071000045,205.17113860000973,205.15600960000305,,,,,,,,,,,,,,,,,,,,,,,,,,,,,,,,,,,205.15679420001103,205.17113860000973,205.17113860000973,205.67428410000863,g,1.0,0.4963062000024365,,,,,,sub-172,1,stroop_test,60.18904174359367,
,,,,40.0,4.0,3.0,,,,,,,,,,,,,blau,red,r,0.0,r,1.0,0.506884499991429,,,,,,,,,,3.0,4.0,40.0,4.0,205.68728360001117,,,,,,,,,,,,,,,,,205.67498400001205,206.03861410000536,206.83781500000623,206.8228461000108,,,,,,,,,,,,,,,,,,,,,,,,,,,,,,,,,,,206.8273562000104,206.83781500000623,206.83781500000623,207.3568071000045,r,1.0,0.506884499991429,,,,,,sub-172,1,stroop_test,60.18904174359367,
,,,,41.0,5.0,3.0,,,,,,,,,,,,,blau,yellow,g,0.0,g,1.0,0.421030299999984,,,,,,,,,,3.0,5.0,41.0,7.0,207.37116790001164,,,,,,,,,,,,,,,,,207.3573569,208.5715387000091,209.37228400001183,209.3564683000004,,,,,,,,,,,,,,,,,,,,,,,,,,,,,,,,,,,209.3570680999983,209.37228400001183,209.37228400001183,209.8070239000081,g,1.0,0.421030299999984,,,,,,sub-172,1,stroop_test,60.18904174359367,
,,,,42.0,6.0,3.0,,,,,,,,,,,,,gelb,yellow,g,1.0,g,1.0,0.4142195000022184,,,,,,,,,,3.0,6.0,42.0,10.0,209.82167930000287,,,,,,,,,,,,,,,,,209.80744689999847,209.9215975000116,210.72203810000792,210.7068602000072,,,,,,,,,,,,,,,,,,,,,,,,,,,,,,,,,,,210.7114491000102,210.72203810000792,210.72203810000792,211.14150940001127,g,1.0,0.4142195000022184,,,,,,sub-172,1,stroop_test,60.18904174359367,
,,,,43.0,7.0,3.0,,,,,,,,,,,,,rot,red,r,1.0,r,1.0,0.4321639999980107,,,,,,,,,,3.0,7.0,43.0,1.0,211.15523480001136,,,,,,,,,,,,,,,,,211.14186440000776,211.2551901999977,212.05525060000943,212.04083340000943,,,,,,,,,,,,,,,,,,,,,,,,,,,,,,,,,,,212.04687120000017,212.05525060000943,212.05525060000943,212.49141130001223,r,1.0,0.4321639999980107,,,,,,sub-172,1,stroop_test,60.18904174359367,
,,,,44.0,8.0,3.0,,,,,,,,,,,,,rot,red,r,1.0,r,1.0,0.4605002000025706,,,,,,,,,,3.0,8.0,44.0,0.0,212.50543180000383,,,,,,,,,,,,,,,,,212.49197699999783,213.7056789000053,214.50567030000093,214.49158549999996,,,,,,,,,,,,,,,,,,,,,,,,,,,,,,,,,,,214.4924705000012,214.50567030000093,214.50567030000093,214.9757392000029,r,1.0,0.4605002000025706,,,,,,sub-172,1,stroop_test,60.18904174359367,
,,,,45.0,9.0,3.0,,,,,,,,,,,,,blau,blue,b,1.0,b,1.0,0.4341834999941056,,,,,,,,,,3.0,9.0,45.0,5.0,214.98941809999812,,,,,,,,,,,,,,,,,214.97621550000625,215.33957050000024,216.1393792000017,216.124444400004,,,,,,,,,,,,,,,,,,,,,,,,,,,,,,,,,,,216.12910730000291,216.1393792000017,216.1393792000017,216.57745270000305,b,1.0,0.4341834999941056,,,,,,sub-172,1,stroop_test,60.18904174359367,
,,,,46.0,10.0,3.0,,,,,,,,,,,,,rot,yellow,g,0.0,g,1.0,0.6405121999996481,,,,,,,,,,3.0,10.0,46.0,3.0,216.58956990001025,,,,,,,,,,,,,,,,,216.57804060001217,217.78981170000043,218.58992189999844,218.5743638999993,,,,,,,,,,,,,,,,,,,,,,,,,,,,,,,,,,,218.57792310000517,218.58992189999844,218.58992189999844,219.2434021000081,g,1.0,0.6405121999996481,,,,,,sub-172,1,stroop_test,60.18904174359367,
,,,,47.0,11.0,3.0,,,,,,,,,,,,,blau,blue,b,1.0,b,1.0,0.5104276999918511,,,,,,,,,,3.0,11.0,47.0,6.0,219.25658670000848,,,,,,,,,,,,,,,,,219.2441412000044,219.3567100000073,220.15672800000172,220.14212280001084,,,,,,,,,,,,,,,,,,,,,,,,,,,,,,,,,,,220.14811290000216,220.15672800000172,220.15672800000172,220.6769416000025,b,1.0,0.5104276999918511,,,,,,sub-172,1,stroop_test,60.18904174359367,
,,,,48.0,0.0,4.0,,,,,,,,,,,,,rot,yellow,g,0.0,g,1.0,0.7004819000139832,,,,,,,,,,4.0,0.0,48.0,3.0,220.69002460000047,,,,,,,,,,,,,,,,,220.6775390000112,221.0405145000113,221.84016320000228,221.82451170000425,,,,,,,,,,,,,,,,,,,,,,,,,,,,,,,,,,,221.82810050000265,221.84016320000228,221.84016320000228,222.5436902000074,g,1.0,0.7004819000139832,,,,,,sub-172,1,stroop_test,60.18904174359367,
,,,,49.0,1.0,4.0,,,,,,,,,,,,,gelb,blue,b,0.0,b,1.0,0.4490975999942748,,,,,,,,,,4.0,1.0,49.0,9.0,222.5572688000102,,,,,,,,,,,,,,,,,222.54425510000144,222.9075628999999,223.70751020000895,223.69224220000612,,,,,,,,,,,,,,,,,,,,,,,,,,,,,,,,,,,223.69609150000903,223.70751020000895,223.70751020000895,224.16187320000608,b,1.0,0.4490975999942748,,,,,,sub-172,1,stroop_test,60.18904174359367,
,,,,50.0,2.0,4.0,,,,,,,,,,,,,gelb,yellow,g,1.0,g,1.0,0.4914127999945776,,,,,,,,,,4.0,2.0,50.0,11.0,224.17439660000676,,,,,,,,,,,,,,,,,224.1625770000101,224.2742645000108,225.0747455000092,225.05875500000548,,,,,,,,,,,,,,,,,,,,,,,,,,,,,,,,,,,225.0592327000049,225.0747455000092,225.0747455000092,225.5779168000008,g,1.0,0.4914127999945776,,,,,,sub-172,1,stroop_test,60.18904174359367,
,,,,51.0,3.0,4.0,,,,,,,,,,,,,rot,blue,b,0.0,b,1.0,0.6270007999992231,,,,,,,,,,4.0,3.0,51.0,2.0,225.59117120000883,,,,,,,,,,,,,,,,,225.5787119000015,226.7914596000046,227.5911516000051,227.57732090000357,,,,,,,,,,,,,,,,,,,,,,,,,,,,,,,,,,,227.58337480000048,227.5911516000051,227.5911516000051,228.2281617000117,b,1.0,0.6270007999992231,,,,,,sub-172,1,stroop_test,60.18904174359367,
,,,,52.0,4.0,4.0,,,,,,,,,,,,,blau,yellow,g,0.0,g,1.0,0.5158234999980778,,,,,,,,,,4.0,4.0,52.0,7.0,228.24189099999785,,,,,,,,,,,,,,,,,228.22890790000383,229.44221780000956,230.24198310000065,230.2278476000065,,,,,,,,,,,,,,,,,,,,,,,,,,,,,,,,,,,230.23369810001168,230.24198310000065,230.24198310000065,230.76161610000415,g,1.0,0.5158234999980778,,,,,,sub-172,1,stroop_test,60.18904174359367,
,,,,53.0,5.0,4.0,,,,,,,,,,,,,blau,blue,b,1.0,b,1.0,0.3712831000011647,,,,,,,,,,4.0,5.0,53.0,5.0,230.7753054000059,,,,,,,,,,,,,,,,,230.7625031000061,231.9762208000029,232.77639280000585,232.7606558999978,,,,,,,,,,,,,,,,,,,,,,,,,,,,,,,,,,,232.7613476000115,232.77639280000585,232.77639280000585,233.16187940000964,b,1.0,0.3712831000011647,,,,,,sub-172,1,stroop_test,60.18904174359367,
,,,,54.0,6.0,4.0,,,,,,,,,,,,,rot,red,r,1.0,r,1.0,0.4165877000050386,,,,,,,,,,4.0,6.0,54.0,1.0,233.17649150000943,,,,,,,,,,,,,,,,,233.16222120000748,234.37612739999892,235.1761727000121,235.16004570000223,,,,,,,,,,,,,,,,,,,,,,,,,,,,,,,,,,,235.1645184000081,235.1761727000121,235.1761727000121,235.5947143000085,r,1.0,0.4165877000050386,,,,,,sub-172,1,stroop_test,60.18904174359367,
,,,,55.0,7.0,4.0,,,,,,,,,,,,,blau,red,r,0.0,r,1.0,0.5775529000093229,,,,,,,,,,4.0,7.0,55.0,4.0,235.61000700001023,,,,,,,,,,,,,,,,,235.5950817000121,236.4101423000102,237.20985610000207,237.1945594999997,,,,,,,,,,,,,,,,,,,,,,,,,,,,,,,,,,,237.19765430000552,237.20985610000207,237.20985610000207,237.79511920000368,r,1.0,0.5775529000093229,,,,,,sub-172,1,stroop_test,60.18904174359367,
,,,,56.0,8.0,4.0,,,,,,,,,,,,,rot,red,r,1.0,r,1.0,0.3859491999901365,,,,,,,,,,4.0,8.0,56.0,0.0,237.8102116000082,,,,,,,,,,,,,,,,,237.79551039999933,238.5939037000062,239.39372829999772,239.378715400002,,,,,,,,,,,,,,,,,,,,,,,,,,,,,,,,,,,239.3833694000059,239.39372829999772,239.39372829999772,239.7962811000034,r,1.0,0.3859491999901365,,,,,,sub-172,1,stroop_test,60.18904174359367,
,,,,57.0,9.0,4.0,,,,,,,,,,,,,gelb,red,r,0.0,r,1.0,0.7332058000029065,,,,,,,,,,4.0,9.0,57.0,8.0,239.8103594999993,,,,,,,,,,,,,,,,,239.7967620999989,240.61059580001165,241.41055960000085,241.3956401000032,,,,,,,,,,,,,,,,,,,,,,,,,,,,,,,,,,,241.4011057000025,241.41055960000085,241.41055960000085,242.14722620000248,r,1.0,0.7332058000029065,,,,,,sub-172,1,stroop_test,60.18904174359367,
,,,,58.0,10.0,4.0,,,,,,,,,,,,,gelb,yellow,g,1.0,g,1.0,0.43838350000442,,,,,,,,,,4.0,10.0,58.0,10.0,242.16062239999883,,,,,,,,,,,,,,,,,242.14797080001156,242.9609760000021,243.76086670000225,243.7457692000025,,,,,,,,,,,,,,,,,,,,,,,,,,,,,,,,,,,243.74626160001208,243.76086670000225,243.76086670000225,244.2146350000112,g,1.0,0.43838350000442,,,,,,sub-172,1,stroop_test,60.18904174359367,
,,,,59.0,11.0,4.0,,,,,,,,,,,,,blau,blue,b,1.0,b,1.0,0.4389626000047428,,,,,,,,,,4.0,11.0,59.0,6.0,244.22789520000515,,,,,,,,,,,,,,,,,244.215225100008,244.57808690000093,245.37794360000407,245.36326090000512,,,,,,,,,,,,,,,,,,,,,,,,,,,,,,,,,,,245.3681790999981,245.37794360000407,245.37794360000407,245.83117720000155,b,1.0,0.4389626000047428,,,,,,sub-172,1,stroop_test,60.18904174359367,
,,,,60.0,0.0,5.0,,,,,,,,,,,,,gelb,red,r,0.0,r,1.0,0.7200611000007484,,,,,,,,,,5.0,0.0,60.0,8.0,245.8450645999983,,,,,,,,,,,,,,,,,245.8316851999989,246.19507970000268,246.9951146000094,246.98022850000416,,,,,,,,,,,,,,,,,,,,,,,,,,,,,,,,,,,246.98470169999928,246.9951146000094,246.9951146000094,247.7306463999994,r,1.0,0.7200611000007484,,,,,,sub-172,1,stroop_test,60.18904174359367,
,,,,61.0,1.0,5.0,,,,,,,,,,,,,blau,blue,b,1.0,b,1.0,0.3893754000018816,,,,,,,,,,5.0,1.0,61.0,6.0,247.74517380000907,,,,,,,,,,,,,,,,,247.73124360000656,248.0955033000064,248.8953004000068,248.8802541000041,,,,,,,,,,,,,,,,,,,,,,,,,,,,,,,,,,,248.8848294000054,248.8953004000068,248.8953004000068,249.29791800001112,b,1.0,0.3893754000018816,,,,,,sub-172,1,stroop_test,60.18904174359367,
,,,,62.0,2.0,5.0,,,,,,,,,,,,,blau,yellow,g,0.0,g,1.0,0.5140699000039604,,,,,,,,,,5.0,2.0,62.0,7.0,249.31208970000444,,,,,,,,,,,,,,,,,249.2984748000017,249.662035500005,250.4620786000014,250.447751300002,,,,,,,,,,,,,,,,,,,,,,,,,,,,,,,,,,,250.4486273000075,250.4620786000014,250.4620786000014,250.98214250001183,g,1.0,0.5140699000039604,,,,,,sub-172,1,stroop_test,60.18904174359367,
,,,,63.0,3.0,5.0,,,,,,,,,,,,,gelb,blue,b,0.0,b,1.0,0.4543704999960027,,,,,,,,,,5.0,3.0,63.0,9.0,250.9957515999995,,,,,,,,,,,,,,,,,250.98265970000648,251.79630650000763,252.5963383000053,252.58023330000287,,,,,,,,,,,,,,,,,,,,,,,,,,,,,,,,,,,252.5831756999978,252.5963383000053,252.5963383000053,253.06443260000376,b,1.0,0.4543704999960027,,,,,,sub-172,1,stroop_test,60.18904174359367,
,,,,64.0,4.0,5.0,,,,,,,,,,,,,blau,red,r,0.0,r,1.0,0.8780832000047667,,,,,,,,,,5.0,4.0,64.0,4.0,253.07953120001184,,,,,,,,,,,,,,,,,253.0648868999997,253.17947050000657,253.9795895999996,253.96506980000413,,,,,,,,,,,,,,,,,,,,,,,,,,,,,,,,,,,253.97077739999804,253.9795895999996,253.9795895999996,254.86540590001096,r,1.0,0.8780832000047667,,,,,,sub-172,1,stroop_test,60.18904174359367,
,,,,65.0,5.0,5.0,,,,,,,,,,,,,gelb,yellow,g,1.0,g,1.0,0.56890869999188,,,,,,,,,,5.0,5.0,65.0,10.0,254.87970810000843,,,,,,,,,,,,,,,,,254.86597749999785,256.079787300012,256.88022370000544,256.8650389000104,,,,,,,,,,,,,,,,,,,,,,,,,,,,,,,,,,,256.86923430000024,256.88022370000544,256.88022370000544,257.4659784000105,g,1.0,0.56890869999188,,,,,,sub-172,1,stroop_test,60.18904174359367,
,,,,66.0,6.0,5.0,,,,,,,,,,,,,rot,red,r,1.0,r,1.0,0.3738127999968128,,,,,,,,,,5.0,6.0,66.0,0.0,257.4803616999998,,,,,,,,,,,,,,,,,257.4665961999999,258.2803874000092,259.0804225000029,259.06527300000016,,,,,,,,,,,,,,,,,,,,,,,,,,,,,,,,,,,259.06996960000833,259.0804225000029,259.0804225000029,259.4662218000012,r,1.0,0.3738127999968128,,,,,,sub-172,1,stroop_test,60.18904174359367,
,,,,67.0,7.0,5.0,,,,,,,,,,,,,rot,red,r,1.0,r,1.0,0.4421038000000408,,,,,,,,,,5.0,7.0,67.0,1.0,259.48072220000904,,,,,,,,,,,,,,,,,259.4667183999991,260.6808186999988,261.4808974000043,261.4661355999997,,,,,,,,,,,,,,,,,,,,,,,,,,,,,,,,,,,261.4673930999997,261.4808974000043,261.4808974000043,261.934321599998,r,1.0,0.4421038000000408,,,,,,sub-172,1,stroop_test,60.18904174359367,
,,,,68.0,8.0,5.0,,,,,,,,,,,,,gelb,yellow,g,1.0,g,1.0,0.4350092999957269,,,,,,,,,,5.0,8.0,68.0,11.0,261.9475922999991,,,,,,,,,,,,,,,,,261.93505270000605,263.14858520000416,263.9480767000059,263.93297449999955,,,,,,,,,,,,,,,,,,,,,,,,,,,,,,,,,,,263.9368266000092,263.9480767000059,263.9480767000059,264.40120580000803,g,1.0,0.4350092999957269,,,,,,sub-172,1,stroop_test,60.18904174359367,
,,,,69.0,9.0,5.0,,,,,,,,,,,,,blau,blue,b,1.0,b,1.0,0.5379175999987638,,,,,,,,,,5.0,9.0,69.0,5.0,264.41485960000136,,,,,,,,,,,,,,,,,264.4017698000098,264.5151146999997,265.31494080000266,265.2998745000077,,,,,,,,,,,,,,,,,,,,,,,,,,,,,,,,,,,265.30497430000105,265.31494080000266,265.31494080000266,265.86700350001047,b,1.0,0.5379175999987638,,,,,,sub-172,1,stroop_test,60.18904174359367,
,,,,70.0,10.0,5.0,,,,,,,,,,,,,rot,blue,b,0.0,b,1.0,0.4487693999981275,,,,,,,,,,5.0,10.0,70.0,2.0,265.8818911999988,,,,,,,,,,,,,,,,,265.8674092000001,265.9816532000113,266.7818652999995,266.7666559000063,,,,,,,,,,,,,,,,,,,,,,,,,,,,,,,,,,,266.77154580000206,266.7818652999995,266.7818652999995,267.23504420000245,b,1.0,0.4487693999981275,,,,,,sub-172,1,stroop_test,60.18904174359367,
,,,,71.0,11.0,5.0,,,,,,,,,,,,,rot,yellow,g,0.0,g,1.0,0.4658365999930538,,,,,,,,,,5.0,11.0,71.0,3.0,267.2488156000036,,,,,,,,,,,,,,,,,267.2356972999987,267.59892670001136,268.3991786000115,268.3834041000082,,,,,,,,,,,,,,,,,,,,,,,,,,,,,,,,,,,268.3839796000102,268.3991786000115,268.3991786000115,268.86773120000726,g,1.0,0.4658365999930538,,,,,,sub-172,1,stroop_test,60.18904174359367,
,,,,72.0,0.0,6.0,,,,,,,,,,,,,gelb,yellow,g,1.0,g,1.0,0.4208956999937072,,,,,,,,,,6.0,0.0,72.0,11.0,268.8823440999986,,,,,,,,,,,,,,,,,268.868008999998,270.0825396,270.8829765999981,270.86692860000767,,,,,,,,,,,,,,,,,,,,,,,,,,,,,,,,,,,270.8701844000025,270.8829765999981,270.8829765999981,271.31762739999976,g,1.0,0.4208956999937072,,,,,,sub-172,1,stroop_test,60.18904174359367,
,,,,73.0,1.0,6.0,,,,,,,,,,,,,gelb,yellow,g,1.0,g,1.0,0.4706643000099575,,,,,,,,,,6.0,1.0,73.0,10.0,271.332994299999,,,,,,,,,,,,,,,,,271.31803340000624,271.43309540000337,272.2331078999996,272.21733640000457,,,,,,,,,,,,,,,,,,,,,,,,,,,,,,,,,,,272.217833600007,272.2331078999996,272.2331078999996,272.7194268000021,g,1.0,0.4706643000099575,,,,,,sub-172,1,stroop_test,60.18904174359367,
,,,,74.0,2.0,6.0,,,,,,,,,,,,,rot,blue,b,0.0,b,1.0,0.5444662000081735,,,,,,,,,,6.0,2.0,74.0,2.0,272.7331370000029,,,,,,,,,,,,,,,,,272.7199948000052,273.0830711000017,273.88328790001106,273.8674375000119,,,,,,,,,,,,,,,,,,,,,,,,,,,,,,,,,,,273.8707598000037,273.88328790001106,273.88328790001106,274.43543150000914,b,1.0,0.5444662000081735,,,,,,sub-172,1,stroop_test,60.18904174359367,
,,,,75.0,3.0,6.0,,,,,,,,,,,,,rot,red,r,1.0,r,1.0,0.4560973000043304,,,,,,,,,,6.0,3.0,75.0,1.0,274.4500491000072,,,,,,,,,,,,,,,,,274.4357694000064,275.2505109000049,276.0504825000098,276.0350449000107,,,,,,,,,,,,,,,,,,,,,,,,,,,,,,,,,,,276.0360260000016,276.0504825000098,276.0504825000098,276.5200564000115,r,1.0,0.4560973000043304,,,,,,sub-172,1,stroop_test,60.18904174359367,
,,,,76.0,4.0,6.0,,,,,,,,,,,,,rot,red,r,1.0,r,1.0,0.4422913000016706,,,,,,,,,,6.0,4.0,76.0,0.0,276.53366520001146,,,,,,,,,,,,,,,,,276.5206157000066,276.6335708999977,277.43403709999984,277.4191137000016,,,,,,,,,,,,,,,,,,,,,,,,,,,,,,,,,,,277.4200345999998,277.43403709999984,277.43403709999984,277.8870755000098,r,1.0,0.4422913000016706,,,,,,sub-172,1,stroop_test,60.18904174359367,
,,,,77.0,5.0,6.0,,,,,,,,,,,,,gelb,red,r,0.0,r,1.0,0.4018130000040401,,,,,,,,,,6.0,5.0,77.0,8.0,277.9007244000095,,,,,,,,,,,,,,,,,277.88771429999906,278.7008356000006,279.50059090000286,279.4862181000062,,,,,,,,,,,,,,,,,,,,,,,,,,,,,,,,,,,279.4901566000044,279.50059090000286,279.50059090000286,279.9200079000002,r,1.0,0.4018130000040401,,,,,,sub-172,1,stroop_test,60.18904174359367,
,,,,78.0,6.0,6.0,,,,,,,,,,,,,blau,yellow,g,0.0,g,1.0,0.4498604999971576,,,,,,,,,,6.0,6.0,78.0,7.0,279.9345014999999,,,,,,,,,,,,,,,,,279.92043230000127,280.7345318000007,281.5344339000003,281.5196605000092,,,,,,,,,,,,,,,,,,,,,,,,,,,,,,,,,,,281.5242962000048,281.5344339000003,281.5344339000003,281.98821940000926,g,1.0,0.4498604999971576,,,,,,sub-172,1,stroop_test,60.18904174359367,
,,,,79.0,7.0,6.0,,,,,,,,,,,,,gelb,blue,b,0.0,b,1.0,0.4614306000003125,,,,,,,,,,6.0,7.0,79.0,9.0,282.0016856000002,,,,,,,,,,,,,,,,,281.9888119000097,282.10155680000025,282.90131700001075,282.88705940000364,,,,,,,,,,,,,,,,,,,,,,,,,,,,,,,,,,,282.8927020000119,282.90131700001075,282.90131700001075,283.3711695000093,b,1.0,0.4614306000003125,,,,,,sub-172,1,stroop_test,60.18904174359367,
,,,,80.0,8.0,6.0,,,,,,,,,,,,,blau,blue,b,1.0,b,1.0,0.4456634000089252,,,,,,,,,,6.0,8.0,80.0,5.0,283.3850459000096,,,,,,,,,,,,,,,,,283.3717272000067,284.1849404000095,284.98504030000186,284.9717953000072,,,,,,,,,,,,,,,,,,,,,,,,,,,,,,,,,,,284.975451300008,284.98504030000186,284.98504030000186,285.43789950000064,b,1.0,0.4456634000089252,,,,,,sub-172,1,stroop_test,60.18904174359367,
,,,,81.0,9.0,6.0,,,,,,,,,,,,,blau,red,r,0.0,r,1.0,0.4288548000040464,,,,,,,,,,6.0,9.0,81.0,4.0,285.4521952000068,,,,,,,,,,,,,,,,,285.4383955000085,286.6523054999998,287.45285929999955,287.437814200006,,,,,,,,,,,,,,,,,,,,,,,,,,,,,,,,,,,287.4389330999984,287.45285929999955,287.45285929999955,287.88811220000207,r,1.0,0.4288548000040464,,,,,,sub-172,1,stroop_test,60.18904174359367,
,,,,82.0,10.0,6.0,,,,,,,,,,,,,blau,blue,b,1.0,b,1.0,0.4281068999989657,,,,,,,,,,6.0,10.0,82.0,6.0,287.9026914999995,,,,,,,,,,,,,,,,,287.8886230000062,288.25257290000445,289.0527621000074,289.0379627000075,,,,,,,,,,,,,,,,,,,,,,,,,,,,,,,,,,,289.03879080001207,289.0527621000074,289.0527621000074,289.48913410000387,b,1.0,0.4281068999989657,,,,,,sub-172,1,stroop_test,60.18904174359367,
,,,,83.0,11.0,6.0,,,,,,,,,,,,,rot,yellow,g,0.0,g,1.0,0.4712426999903982,,,,,,,,,,6.0,11.0,83.0,3.0,289.502822200011,,,,,,,,,,,,,,,,,289.4897212000069,289.8526908000058,290.6526846000052,290.6386130000028,,,,,,,,,,,,,,,,,,,,,,,,,,,,,,,,,,,290.64459540000826,290.6526846000052,290.6526846000052,291.1381672999996,g,1.0,0.4712426999903982,,,,,,sub-172,1,stroop_test,60.18904174359367,
,,,,84.0,0.0,7.0,,,,,,,,,,,,,rot,yellow,g,0.0,g,1.0,0.4789952999999514,,,,,,,,,,7.0,0.0,84.0,3.0,291.1529561000061,,,,,,,,,,,,,,,,,291.1385706000001,291.9533869000006,292.75346560000617,292.73726460000034,,,,,,,,,,,,,,,,,,,,,,,,,,,,,,,,,,,292.7380065000034,292.75346560000617,292.75346560000617,293.23902510000335,g,1.0,0.4789952999999514,,,,,,sub-172,1,stroop_test,60.18904174359367,
,,,,85.0,1.0,7.0,,,,,,,,,,,,,gelb,yellow,g,1.0,g,1.0,0.4072215999913169,,,,,,,,,,7.0,1.0,85.0,10.0,293.2532352999988,,,,,,,,,,,,,,,,,293.2395198000013,294.4539117000095,295.2534500000038,295.23892040000646,,,,,,,,,,,,,,,,,,,,,,,,,,,,,,,,,,,295.2434088000009,295.2534500000038,295.2534500000038,295.6720648000046,g,1.0,0.4072215999913169,,,,,,sub-172,1,stroop_test,60.18904174359367,
,,,,86.0,2.0,7.0,,,,,,,,,,,,,blau,blue,b,1.0,b,1.0,0.4510020000016084,,,,,,,,,,7.0,2.0,86.0,5.0,295.6869582000072,,,,,,,,,,,,,,,,,295.6724667000089,295.7873940999998,296.5869166000048,296.57276550000824,,,,,,,,,,,,,,,,,,,,,,,,,,,,,,,,,,,296.57936360000167,296.5869166000048,296.5869166000048,297.040745899998,b,1.0,0.4510020000016084,,,,,,sub-172,1,stroop_test,60.18904174359367,
,,,,87.0,3.0,7.0,,,,,,,,,,,,,rot,red,r,1.0,r,1.0,0.4113942999974824,,,,,,,,,,7.0,3.0,87.0,0.0,297.0541387000121,,,,,,,,,,,,,,,,,297.04129400000966,297.8544980000006,298.6545840000035,298.6397716000065,,,,,,,,,,,,,,,,,,,,,,,,,,,,,,,,,,,298.6450818000012,298.6545840000035,298.6545840000035,299.07370620001166,r,1.0,0.4113942999974824,,,,,,sub-172,1,stroop_test,60.18904174359367,
,,,,88.0,4.0,7.0,,,,,,,,,,,,,gelb,yellow,g,1.0,g,1.0,0.4100019000034081,,,,,,,,,,7.0,4.0,88.0,11.0,299.08795290000853,,,,,,,,,,,,,,,,,299.0742043000064,300.28793540000333,301.08780020000995,301.0732682000089,,,,,,,,,,,,,,,,,,,,,,,,,,,,,,,,,,,301.07920300000114,301.08780020000995,301.08780020000995,301.5072197000118,g,1.0,0.4100019000034081,,,,,,sub-172,1,stroop_test,60.18904174359367,
,,,,89.0,5.0,7.0,,,,,,,,,,,,,blau,red,r,0.0,r,1.0,0.7835122999968007,,,,,,,,,,7.0,5.0,89.0,4.0,301.5212896000012,,,,,,,,,,,,,,,,,301.50766080000903,301.87133059999906,302.67175049999787,302.6569815000112,,,,,,,,,,,,,,,,,,,,,,,,,,,,,,,,,,,302.6633707000001,302.67175049999787,302.67175049999787,303.4575359000009,r,1.0,0.7835122999968007,,,,,,sub-172,1,stroop_test,60.18904174359367,
,,,,90.0,6.0,7.0,,,,,,,,,,,,,blau,yellow,g,0.0,g,1.0,0.7473573000024771,,,,,,,,,,7.0,6.0,90.0,7.0,303.4721234000026,,,,,,,,,,,,,,,,,303.45782429999963,303.8220816000103,304.622208700006,304.60665440000594,,,,,,,,,,,,,,,,,,,,,,,,,,,,,,,,,,,304.60718859999906,304.622208700006,304.622208700006,305.37421390000964,g,1.0,0.7473573000024771,,,,,,sub-172,1,stroop_test,60.18904174359367,
,,,,91.0,7.0,7.0,,,,,,,,,,,,,gelb,blue,b,0.0,b,1.0,0.3847384999971837,,,,,,,,,,7.0,7.0,91.0,9.0,305.38917730000685,,,,,,,,,,,,,,,,,305.3745775999996,306.1889535000082,306.98939660000906,306.9735534000065,,,,,,,,,,,,,,,,,,,,,,,,,,,,,,,,,,,306.9776605000079,306.98939660000906,306.98939660000906,307.39086939999834,b,1.0,0.3847384999971837,,,,,,sub-172,1,stroop_test,60.18904174359367,
,,,,92.0,8.0,7.0,,,,,,,,,,,,,rot,blue,b,0.0,b,1.0,0.4893679000088013,,,,,,,,,,7.0,8.0,92.0,2.0,307.4056958000001,,,,,,,,,,,,,,,,,307.3912272000016,307.75625600000785,308.556250300011,308.5418885000108,,,,,,,,,,,,,,,,,,,,,,,,,,,,,,,,,,,308.5471472000063,308.556250300011,308.556250300011,309.0579779000109,b,1.0,0.4893679000088013,,,,,,sub-172,1,stroop_test,60.18904174359367,
,,,,93.0,9.0,7.0,,,,,,,,,,,,,rot,red,r,1.0,r,1.0,0.4515959999989718,,,,,,,,,,7.0,9.0,93.0,1.0,309.0731194000109,,,,,,,,,,,,,,,,,309.05831190000754,309.87295400000585,310.6729444000084,310.6569950000121,,,,,,,,,,,,,,,,,,,,,,,,,,,,,,,,,,,310.6575421000016,310.6729444000084,310.6729444000084,311.1415801000112,r,1.0,0.4515959999989718,,,,,,sub-172,1,stroop_test,60.18904174359367,
,,,,94.0,10.0,7.0,,,,,,,,,,,,,gelb,red,r,0.0,r,1.0,0.6609758999984479,,,,,,,,,,7.0,10.0,94.0,8.0,311.1567109000025,,,,,,,,,,,,,,,,,311.1420696999994,311.956929699998,312.75681630001054,312.74196010000014,,,,,,,,,,,,,,,,,,,,,,,,,,,,,,,,,,,312.7463246000116,312.75681630001054,312.75681630001054,313.4259388000064,r,1.0,0.6609758999984479,,,,,,sub-172,1,stroop_test,60.18904174359367,
,,,,95.0,11.0,7.0,,,,,,,,,,,,,blau,blue,b,1.0,b,1.0,0.4415121999918483,,,,,,,,,,7.0,11.0,95.0,6.0,313.4404718000005,,,,,,,,,,,,,,,,,313.4265094000002,314.2406334000116,315.04053820000263,315.025512799999,,,,,,,,,,,,,,,,,,,,,,,,,,,,,,,,,,,315.0300263000099,315.04053820000263,315.04053820000263,315.49363510000694,b,1.0,0.4415121999918483,,,,,,sub-172,1,stroop_test,60.18904174359367,
,,,,96.0,0.0,8.0,,,,,,,,,,,,,blau,yellow,g,0.0,g,1.0,0.6759903000056511,,,,,,,,,,8.0,0.0,96.0,7.0,315.5072580999986,,,,,,,,,,,,,,,,,315.4942784000013,315.60749419999775,316.4079414000007,316.3918057000119,,,,,,,,,,,,,,,,,,,,,,,,,,,,,,,,,,,316.39274500000465,316.4079414000007,316.4079414000007,317.0944228000008,g,1.0,0.6759903000056511,,,,,,sub-172,1,stroop_test,60.18904174359367,
,,,,97.0,1.0,8.0,,,,,,,,,,,,,gelb,blue,b,0.0,b,1.0,0.4788196000008611,,,,,,,,,,8.0,1.0,97.0,9.0,317.1076858000015,,,,,,,,,,,,,,,,,317.09508130000904,317.20775650000724,318.00757280000835,317.993604400006,,,,,,,,,,,,,,,,,,,,,,,,,,,,,,,,,,,317.9989518000075,318.00757280000835,318.00757280000835,318.4933138000051,b,1.0,0.4788196000008611,,,,,,sub-172,1,stroop_test,60.18904174359367,
,,,,98.0,2.0,8.0,,,,,,,,,,,,,gelb,yellow,g,1.0,g,1.0,0.4349562999996124,,,,,,,,,,8.0,2.0,98.0,11.0,318.50795949999883,,,,,,,,,,,,,,,,,318.4937790000113,319.7081770000077,320.5084371000121,320.4932473000081,,,,,,,,,,,,,,,,,,,,,,,,,,,,,,,,,,,320.49426220000896,320.5084371000121,320.5084371000121,320.9609472000011,g,1.0,0.4349562999996124,,,,,,sub-172,1,stroop_test,60.18904174359367,
,,,,99.0,3.0,8.0,,,,,,,,,,,,,gelb,yellow,g,1.0,g,1.0,0.404357000006712,,,,,,,,,,8.0,3.0,99.0,10.0,320.97484340000665,,,,,,,,,,,,,,,,,320.961409200012,321.0751986000105,321.8749289999978,321.85957990000315,,,,,,,,,,,,,,,,,,,,,,,,,,,,,,,,,,,321.8602122000011,321.8749289999978,321.8749289999978,322.2947667000117,g,1.0,0.404357000006712,,,,,,sub-172,1,stroop_test,60.18904174359367,
,,,,100.0,4.0,8.0,,,,,,,,,,,,,blau,blue,b,1.0,b,1.0,0.5269589000090491,,,,,,,,,,8.0,4.0,100.0,6.0,322.30859080000664,,,,,,,,,,,,,,,,,322.295242600012,323.50877910001145,324.30900680000195,324.2937307000102,,,,,,,,,,,,,,,,,,,,,,,,,,,,,,,,,,,324.2988345000049,324.30900680000195,324.30900680000195,324.84512769999856,b,1.0,0.5269589000090491,,,,,,sub-172,1,stroop_test,60.18904174359367,
,,,,101.0,5.0,8.0,,,,,,,,,,,,,rot,red,r,1.0,r,1.0,0.4834593999985372,,,,,,,,,,8.0,5.0,101.0,1.0,324.85911090001173,,,,,,,,,,,,,,,,,324.8456962000055,325.6593925000052,326.45921670000826,326.4446010000101,,,,,,,,,,,,,,,,,,,,,,,,,,,,,,,,,,,326.450614100002,326.45921670000826,326.45921670000826,326.9452886000072,r,1.0,0.4834593999985372,,,,,,sub-172,1,stroop_test,60.18904174359367,
,,,,102.0,6.0,8.0,,,,,,,,,,,,,gelb,red,r,0.0,r,1.0,0.3897742999979527,,,,,,,,,,8.0,6.0,102.0,8.0,326.9593118000048,,,,,,,,,,,,,,,,,326.9456974000059,327.7599023000075,328.5596796000027,328.54467100001057,,,,,,,,,,,,,,,,,,,,,,,,,,,,,,,,,,,328.5490035000112,328.5596796000027,328.5596796000027,328.9623409000051,r,1.0,0.3897742999979527,,,,,,sub-172,1,stroop_test,60.18904174359367,
,,,,103.0,7.0,8.0,,,,,,,,,,,,,blau,blue,b,1.0,b,1.0,0.4252055999968434,,,,,,,,,,8.0,7.0,103.0,5.0,328.9763146000041,,,,,,,,,,,,,,,,,328.962803900009,329.3264368000091,330.1264521999983,330.11180470000545,,,,,,,,,,,,,,,,,,,,,,,,,,,,,,,,,,,330.1161449000065,330.1264521999983,330.1264521999983,330.5626340000017,b,1.0,0.4252055999968434,,,,,,sub-172,1,stroop_test,60.18904174359367,
,,,,104.0,8.0,8.0,,,,,,,,,,,,,rot,red,r,1.0,r,1.0,0.3701954999996815,,,,,,,,,,8.0,8.0,104.0,0.0,330.5766250000015,,,,,,,,,,,,,,,,,330.5631307000004,331.77680279999913,332.5767480000068,332.5626773000113,,,,,,,,,,,,,,,,,,,,,,,,,,,,,,,,,,,332.5688443000108,332.5767480000068,332.5767480000068,332.9628507000016,r,1.0,0.3701954999996815,,,,,,sub-172,1,stroop_test,60.18904174359367,
,,,,105.0,9.0,8.0,,,,,,,,,,,,,blau,red,r,0.0,r,1.0,0.434959299993352,,,,,,,,,,8.0,9.0,105.0,4.0,332.97683600000164,,,,,,,,,,,,,,,,,332.9635011000064,334.17738420001115,334.9774083000084,334.9628107000026,,,,,,,,,,,,,,,,,,,,,,,,,,,,,,,,,,,334.96819700000924,334.9774083000084,334.9774083000084,335.42949360000785,r,1.0,0.434959299993352,,,,,,sub-172,1,stroop_test,60.18904174359367,
,,,,106.0,10.0,8.0,,,,,,,,,,,,,rot,blue,b,0.0,b,1.0,0.4793773000128567,,,,,,,,,,8.0,10.0,106.0,2.0,335.44434270000784,,,,,,,,,,,,,,,,,335.4300971000048,335.7946127000032,336.5943893000076,336.5798158000107,,,,,,,,,,,,,,,,,,,,,,,,,,,,,,,,,,,336.5850911000016,336.5943893000076,336.5943893000076,337.0808282000071,b,1.0,0.4793773000128567,,,,,,sub-172,1,stroop_test,60.18904174359367,
,,,,107.0,11.0,8.0,,,,,,,,,,,,,rot,yellow,g,0.0,g,1.0,0.5375505999982124,,,,,,,,,,8.0,11.0,107.0,3.0,337.0945512000035,,,,,,,,,,,,,,,,,337.0816300000006,338.29481130000204,339.0951137000084,339.07925340000656,,,,,,,,,,,,,,,,,,,,,,,,,,,,,,,,,,,339.07985819999885,339.0951137000084,339.0951137000084,339.6476735000033,g,1.0,0.5375505999982124,,,,,,sub-172,1,stroop_test,60.18904174359367,
,,,,108.0,0.0,9.0,,,,,,,,,,,,,rot,red,r,1.0,r,1.0,0.3850478999956976,,,,,,,,,,9.0,0.0,108.0,1.0,339.6618447000073,,,,,,,,,,,,,,,,,339.64815819999785,340.46197970000503,341.26173630000267,341.24673540001095,,,,,,,,,,,,,,,,,,,,,,,,,,,,,,,,,,,341.24718030000804,341.26173630000267,341.26173630000267,341.6646105000109,r,1.0,0.3850478999956976,,,,,,sub-172,1,stroop_test,60.18904174359367,
,,,,109.0,1.0,9.0,,,,,,,,,,,,,gelb,blue,b,0.0,b,1.0,0.4251256999996258,,,,,,,,,,9.0,1.0,109.0,9.0,341.6790672000061,,,,,,,,,,,,,,,,,341.6651464000024,342.02885210000386,342.82881920000364,342.81322690000525,,,,,,,,,,,,,,,,,,,,,,,,,,,,,,,,,,,342.8169340000022,342.82881920000364,342.82881920000364,343.26404080000066,b,1.0,0.4251256999996258,,,,,,sub-172,1,stroop_test,60.18904174359367,
,,,,110.0,2.0,9.0,,,,,,,,,,,,,gelb,yellow,g,1.0,g,1.0,0.4972564999916358,,,,,,,,,,9.0,2.0,110.0,10.0,343.279039400004,,,,,,,,,,,,,,,,,343.2643750999996,343.6289675000007,344.4292800000112,344.4140469000122,,,,,,,,,,,,,,,,,,,,,,,,,,,,,,,,,,,344.41456040000776,344.4292800000112,344.4292800000112,344.93106180000177,g,1.0,0.4972564999916358,,,,,,sub-172,1,stroop_test,60.18904174359367,
,,,,111.0,3.0,9.0,,,,,,,,,,,,,blau,yellow,g,0.0,b,0.0,0.5874368999939179,,,,,,,,,,9.0,3.0,111.0,7.0,344.9455919000029,,,,,,,,,,,,,,,,,344.9314199000073,346.14637620000576,346.94676869999967,346.93121260000044,,,,,,,,,,,,,,,,,,,,,,,,,,,,,,,,,,,346.9354239000095,346.94676869999967,346.94676869999967,347.5499705000111,b,0.0,0.5874368999939179,,,,,,sub-172,1,stroop_test,60.18904174359367,
,,,,112.0,4.0,9.0,,,,,,,,,,,,,rot,yellow,g,0.0,g,1.0,0.5205375999939861,,,,,,,,,,9.0,4.0,112.0,3.0,347.56310369999846,,,,,,,,,,,,,,,,,347.5505314000038,348.7633683000022,349.56353440000385,349.5477197,,,,,,,,,,,,,,,,,,,,,,,,,,,,,,,,,,,349.5511882999999,349.56353440000385,349.56353440000385,350.09976680000545,g,1.0,0.5205375999939861,,,,,,sub-172,1,stroop_test,60.18904174359367,
,,,,113.0,5.0,9.0,,,,,,,,,,,,,rot,red,r,1.0,r,1.0,0.5279184999963036,,,,,,,,,,9.0,5.0,113.0,0.0,350.11348910001107,,,,,,,,,,,,,,,,,350.1005251000024,350.2137264000048,351.0136385000078,350.99945030000526,,,,,,,,,,,,,,,,,,,,,,,,,,,,,,,,,,,351.0002424999984,351.0136385000078,351.0136385000078,351.5492521999986,r,1.0,0.5279184999963036,,,,,,sub-172,1,stroop_test,60.18904174359367,
,,,,114.0,6.0,9.0,,,,,,,,,,,,,gelb,red,r,0.0,r,1.0,0.66002060000028,,,,,,,,,,9.0,6.0,114.0,8.0,351.56400890000805,,,,,,,,,,,,,,,,,351.5496264000103,352.3641401000059,353.16394740001124,353.15073180000763,,,,,,,,,,,,,,,,,,,,,,,,,,,,,,,,,,,353.1559585000068,353.16394740001124,353.16394740001124,353.83374300001014,r,1.0,0.66002060000028,,,,,,sub-172,1,stroop_test,60.18904174359367,
,,,,115.0,7.0,9.0,,,,,,,,,,,,,blau,blue,b,1.0,b,1.0,0.4985789999918779,,,,,,,,,,9.0,7.0,115.0,5.0,353.8474794000067,,,,,,,,,,,,,,,,,353.8343486000085,354.19789320000564,354.9976355000108,354.9829150000005,,,,,,,,,,,,,,,,,,,,,,,,,,,,,,,,,,,354.9879127000022,354.9976355000108,354.9976355000108,355.4998737999995,b,1.0,0.4985789999918779,,,,,,sub-172,1,stroop_test,60.18904174359367,
,,,,116.0,8.0,9.0,,,,,,,,,,,,,blau,blue,b,1.0,b,1.0,0.4954585999948904,,,,,,,,,,9.0,8.0,116.0,6.0,355.514425100002,,,,,,,,,,,,,,,,,355.5004137000069,356.314698400005,357.11473529999785,357.10075810000126,,,,,,,,,,,,,,,,,,,,,,,,,,,,,,,,,,,357.10164700000314,357.11473529999785,357.11473529999785,357.61722890000965,b,1.0,0.4954585999948904,,,,,,sub-172,1,stroop_test,60.18904174359367,
,,,,117.0,9.0,9.0,,,,,,,,,,,,,gelb,yellow,g,1.0,g,1.0,0.6371565000008559,,,,,,,,,,9.0,9.0,117.0,11.0,357.6315556000045,,,,,,,,,,,,,,,,,357.617665400001,357.981397800002,358.7815268999984,358.767511500002,,,,,,,,,,,,,,,,,,,,,,,,,,,,,,,,,,,358.7725086999999,358.7815268999984,358.7815268999984,359.43476750000264,g,1.0,0.6371565000008559,,,,,,sub-172,1,stroop_test,60.18904174359367,
,,,,118.0,10.0,9.0,,,,,,,,,,,,,blau,red,r,0.0,b,0.0,0.6906510000117123,,,,,,,,,,9.0,10.0,118.0,4.0,359.4485362999985,,,,,,,,,,,,,,,,,359.4353703000088,359.79866310000943,360.5988641000004,360.5838441000087,,,,,,,,,,,,,,,,,,,,,,,,,,,,,,,,,,,360.5906971000077,360.5988641000004,360.5988641000004,361.3033327000012,b,0.0,0.6906510000117123,,,,,,sub-172,1,stroop_test,60.18904174359367,
,,,,119.0,11.0,9.0,,,,,,,,,,,,,rot,blue,b,0.0,b,1.0,0.7373871000017971,,,,,,,,,,9.0,11.0,119.0,2.0,361.3159650000016,,,,,,,,,,,,,,,,,361.30384320000303,362.51584829999774,363.3156467000081,363.30128610000247,,,,,,,,,,,,,,,,,,,,,,,,,,,,,,,,,,,363.306310400003,363.3156467000081,363.3156467000081,364.06928880000487,b,1.0,0.7373871000017971,,,,,,sub-172,1,stroop_test,60.18904174359367,
,,,,,,,,,,,,,,,,,,,,,,,,,,,,,,,,,,,,,,,,,,,,,,,,,,,,,,,,,,,,,,,,,,,,,,,,,,,,,,,,,,,,,,,,,,,,,,,,,,,,,,364.0695929000067,364.08237850001024,369.0833892000082,369.0690059000044,sub-172,1,stroop_test,60.18904174359367,
