wordCTK,colorCTK,corrAnsCTK,congruentCTK,thisN,thisTrialN,thisRepN,keyResp_CTK.keys,keyResp_CTK.corr,keyResp_CTK.rt,keyResp_CTK.duration,wordPractice,colorPractice,corrAnsPractice,congruentPractice,respPractice.keys,respPractice.corr,respPractice.rt,respPractice.duration,word,color,corrAns,congruent,keyResp_test_run.keys,keyResp_test_run.corr,keyResp_test_run.rt,keyResp_test_run.duration,trials_CTK.thisRepN,trials_CTK.thisTrialN,trials_CTK.thisN,trials_CTK.thisIndex,trials_practice.thisRepN,trials_practice.thisTrialN,trials_practice.thisN,trials_practice.thisIndex,trials_test.thisRepN,trials_test.thisTrialN,trials_test.thisN,trials_test.thisIndex,thisRow.t,notes,instruction.started,instr_text.started,instr_image.started,instr_resp.started,instruction.stopped,instr_resp.keys,instr_resp.rt,instr_resp.duration,instr_color_to_key.started,instr_ctk.started,resp_ctk.started,instr_color_to_key.stopped,resp_ctk.keys,resp_ctk.rt,resp_ctk.duration,ITI.started,fixcross.started,fixcross.stopped,ITI.stopped,color_to_key_run.started,stimulus_CTK.started,keyResp_CTK.started,color_to_key_run.stopped,trials_CTK.keyResp_CTK.keys,trials_CTK.keyResp_CTK.corr,trials_CTK.keyResp_CTK.rt,trials_CTK.keyResp_CTK.duration,instr_practice.started,instr_practice_text.started,instr_practice_resp.started,instr_practice.stopped,instr_practice_resp.keys,instr_practice_resp.rt,instr_practice_resp.duration,practice_run.started,stimulus_practice.started,respPractice.started,practice_run.stopped,trials_practice.respPractice.keys,trials_practice.respPractice.corr,trials_practice.respPractice.rt,trials_practice.respPractice.duration,feedback.started,textFeedback.started,textFeedback.stopped,feedback.stopped,instr_test.started,instr_test_text.started,instr_test_resp.started,instr_test.stopped,instr_test_resp.keys,instr_test_resp.rt,instr_test_resp.duration,test_run.started,stimulus_test_run.started,keyResp_test_run.started,test_run.stopped,trials_test.keyResp_test_run.keys,trials_test.keyResp_test_run.corr,trials_test.keyResp_test_run.rt,trials_test.keyResp_test_run.duration,goodbye.started,textGoodbye.started,textGoodbye.stopped,goodbye.stopped,participant,session,expName,frameRate,Unnamed: 113
,,,,,,,,,,,,,,,,,,,,,,,,,,,,,,,,,,,,,,,,,0.0015785999130457,0.0436233000364154,0.0436233000364154,0.0436233000364154,23.643091999925677,space,23.48733379994519,,,,,,,,,,,,,,,,,,,,,,,,,,,,,,,,,,,,,,,,,,,,,,,,,,,,,,,,,,,sub-223,1,stroop_test,59.916871355371605,
,,,,,,,,,,,,,,,,,,,,,,,,,,,,,,,,,,,,,,,,,,,,,,,,,23.643149399897084,23.64683960005641,23.64683960005641,27.60331239993684,space,3.9519022000022233,,,,,,,,,,,,,,,,,,,,,,,,,,,,,,,,,,,,,,,,,,,,,,,,,,,,sub-223,1,stroop_test,59.916871355371605,
test,blue,b,1.0,0.0,0.0,0.0,b,1.0,1.5505327000282705,,,,,,,,,,,,,,,,,,0.0,0.0,0.0,2.0,,,,,,,,,27.619344200007617,,,,,,,,,,,,,,,,,27.615923499921337,28.4170979000628,29.217027199920267,29.201174200046808,29.20961040002294,29.217027199920267,29.217027199920267,30.784653600072488,b,1.0,1.5505327000282705,,,,,,,,,,,,,,,,,,,,,,,,,,,,,,,,,,,,,,,,sub-223,1,stroop_test,59.916871355371605,
test,red,r,1.0,1.0,1.0,0.0,r,1.0,0.9927153999451548,,,,,,,,,,,,,,,,,,0.0,1.0,1.0,0.0,,,,,,,,,30.80028359987773,,,,,,,,,,,,,,,,,30.78533159988001,30.90027470001951,31.700412400066853,31.6846402999945,31.6852434000466,31.700412400066853,31.700412400066853,32.70088639995083,r,1.0,0.9927153999451548,,,,,,,,,,,,,,,,,,,,,,,,,,,,,,,,,,,,,,,,sub-223,1,stroop_test,59.916871355371605,
test,yellow,g,1.0,2.0,2.0,0.0,g,1.0,1.5569689001422375,,,,,,,,,,,,,,,,,,0.0,2.0,2.0,1.0,,,,,,,,,32.71741300006397,,,,,,,,,,,,,,,,,32.70106910006143,33.05000970000401,33.85006259987131,33.83431669999845,33.834895599866286,33.85006259987131,33.85006259987131,35.41782149998471,g,1.0,1.5569689001422375,,,,,,,,,,,,,,,,,,,,,,,,,,,,,,,,,,,,,,,,sub-223,1,stroop_test,59.916871355371605,
test,red,r,1.0,3.0,0.0,1.0,r,1.0,0.7606214999686927,,,,,,,,,,,,,,,,,,1.0,0.0,3.0,0.0,,,,,,,,,35.43331220000982,,,,,,,,,,,,,,,,,35.41829350008629,35.533437199890614,36.33350900001824,36.31876299995929,36.31970319990069,36.33350900001824,36.33350900001824,37.10144199989736,r,1.0,0.7606214999686927,,,,,,,,,,,,,,,,,,,,,,,,,,,,,,,,,,,,,,,,sub-223,1,stroop_test,59.916871355371605,
test,blue,b,1.0,4.0,1.0,1.0,b,1.0,0.6167493001557887,,,,,,,,,,,,,,,,,,1.0,1.0,4.0,2.0,,,,,,,,,37.11664210003801,,,,,,,,,,,,,,,,,37.10192899988033,37.91652199998498,38.71675819996744,38.70065609994344,38.7012706999667,38.71675819996744,38.71675819996744,39.33690469991416,b,1.0,0.6167493001557887,,,,,,,,,,,,,,,,,,,,,,,,,,,,,,,,,,,,,,,,sub-223,1,stroop_test,59.916871355371605,
test,yellow,g,1.0,5.0,2.0,1.0,g,1.0,1.036484699929133,,,,,,,,,,,,,,,,,,1.0,2.0,5.0,1.0,,,,,,,,,39.35018449998461,,,,,,,,,,,,,,,,,39.33744719997048,40.14994710008614,40.94990759994835,40.93433610000648,40.9350981998723,40.94990759994835,40.94990759994835,42.0011970999185,g,1.0,1.036484699929133,,,,,,,,,,,,,,,,,,,,,,,,,,,,,,,,,,,,,,,,sub-223,1,stroop_test,59.916871355371605,
test,blue,b,1.0,6.0,0.0,2.0,b,1.0,0.656544900033623,,,,,,,,,,,,,,,,,,2.0,0.0,6.0,2.0,,,,,,,,,42.01651700004004,,,,,,,,,,,,,,,,,42.001714000012726,43.21642509987578,44.01622899994254,44.00073379999958,44.00136450002901,44.01622899994254,44.01622899994254,44.684301799861714,b,1.0,0.656544900033623,,,,,,,,,,,,,,,,,,,,,,,,,,,,,,,,,,,,,,,,sub-223,1,stroop_test,59.916871355371605,
test,yellow,g,1.0,7.0,1.0,2.0,g,1.0,0.7093531000427902,,,,,,,,,,,,,,,,,,2.0,1.0,7.0,1.0,,,,,,,,,44.699526800075546,,,,,,,,,,,,,,,,,44.68473479989916,45.49952309997752,46.299453099956736,46.28350890008733,46.28417810006067,46.299453099956736,46.299453099956736,47.01775679993443,g,1.0,0.7093531000427902,,,,,,,,,,,,,,,,,,,,,,,,,,,,,,,,,,,,,,,,sub-223,1,stroop_test,59.916871355371605,
test,red,r,1.0,8.0,2.0,2.0,r,1.0,0.9828835001681,,,,,,,,,,,,,,,,,,2.0,2.0,8.0,0.0,,,,,,,,,47.03309809998609,,,,,,,,,,,,,,,,,47.01829220005311,47.83291439991444,48.632684299955145,48.616640999913216,48.61721879988909,48.632684299955145,48.632684299955145,49.61836439999752,r,1.0,0.9828835001681,,,,,,,,,,,,,,,,,,,,,,,,,,,,,,,,,,,,,,,,sub-223,1,stroop_test,59.916871355371605,
test,red,r,1.0,9.0,0.0,3.0,r,1.0,0.5169584001414478,,,,,,,,,,,,,,,,,,3.0,0.0,9.0,0.0,,,,,,,,,49.63264050008729,,,,,,,,,,,,,,,,,49.61884759995155,50.432706699939445,51.23256179993041,51.216678499942645,51.21727610006928,51.23256179993041,51.23256179993041,51.75236020004377,r,1.0,0.5169584001414478,,,,,,,,,,,,,,,,,,,,,,,,,,,,,,,,,,,,,,,,sub-223,1,stroop_test,59.916871355371605,
test,yellow,g,1.0,10.0,1.0,3.0,g,1.0,0.657472399994731,,,,,,,,,,,,,,,,,,3.0,1.0,10.0,1.0,,,,,,,,,51.766160799888894,,,,,,,,,,,,,,,,,51.75280270003714,51.865853500086814,52.66583659988828,52.649870600085706,52.65043739997782,52.66583659988828,52.66583659988828,53.33391569997184,g,1.0,0.657472399994731,,,,,,,,,,,,,,,,,,,,,,,,,,,,,,,,,,,,,,,,sub-223,1,stroop_test,59.916871355371605,
test,blue,b,1.0,11.0,2.0,3.0,b,1.0,0.3754759000148624,,,,,,,,,,,,,,,,,,3.0,2.0,11.0,2.0,,,,,,,,,53.34912639996037,,,,,,,,,,,,,,,,,53.334373800084,54.14915720000863,54.94912820006721,54.93394339992665,54.934562999987975,54.94912820006721,54.94912820006721,55.33405800000765,b,1.0,0.3754759000148624,,,,,,,,,,,,,,,,,,,,,,,,,,,,,,,,,,,,,,,,sub-223,1,stroop_test,59.916871355371605,
,,,,,,,,,,,,,,,,,,,,,,,,,,,,,,,,,,,,,,,,,,,,,,,,,,,,,,,,,,,,,,,,,,,,55.33425319986418,55.34918759996072,55.34918759996072,59.01699299993925,space,3.654017599998042,,,,,,,,,,,,,,,,,,,,,,,,,,,,,,,,,sub-223,1,stroop_test,59.916871355371605,
,,,,0.0,0.0,0.0,,,,,rot,blue,b,0.0,b,1.0,0.8643170001450926,,,,,,,,,,,,,,0.0,0.0,0.0,2.0,,,,,59.03233750001528,,,,,,,,,,,,,,,,,59.02863189997152,60.232235400006175,61.03216629987583,61.01616790005937,,,,,,,,,,,,,,,,61.02020119992085,61.03216629987583,61.03216629987583,61.90022210008465,b,1.0,0.8643170001450926,,61.90567560005002,61.91605039988645,62.91534240008332,62.89960759994574,,,,,,,,,,,,,,,,,,,,sub-223,1,stroop_test,59.916871355371605,
,,,,1.0,1.0,0.0,,,,,blau,blue,b,1.0,b,1.0,0.4609350000973791,,,,,,,,,,,,,,0.0,1.0,1.0,5.0,,,,,62.91534240008332,,,,,,,,,,,,,,,,,62.89997539995238,63.26533559989184,64.06709700007923,64.05033460003324,,,,,,,,,,,,,,,,64.06275489996187,64.06709700007923,64.06709700007923,64.53361229994334,b,1.0,0.4609350000973791,,64.53431889996864,64.54865389992483,65.54848310002126,65.53277759999037,,,,,,,,,,,,,,,,,,,,sub-223,1,stroop_test,59.916871355371605,
,,,,2.0,2.0,0.0,,,,,blau,blue,b,1.0,b,1.0,0.3890114999376237,,,,,,,,,,,,,,0.0,2.0,2.0,6.0,,,,,65.54848310002126,,,,,,,,,,,,,,,,,65.53317709988914,66.7486372999847,67.54856660007499,67.53300979989581,,,,,,,,,,,,,,,,67.53366130008362,67.54856660007499,67.54856660007499,67.95025400002487,b,1.0,0.3890114999376237,,67.95092540001497,67.96524819987826,68.96531599992886,68.94971639988944,,,,,,,,,,,,,,,,,,,,sub-223,1,stroop_test,59.916871355371605,
,,,,3.0,3.0,0.0,,,,,rot,yellow,g,0.0,g,1.0,0.7907912000082433,,,,,,,,,,,,,,0.0,3.0,3.0,3.0,,,,,68.96531599992886,,,,,,,,,,,,,,,,,68.95021270005964,69.06523469998501,69.86541369999759,69.8494056998752,,,,,,,,,,,,,,,,69.85380550008267,69.86541369999759,69.86541369999759,70.6670230999589,g,1.0,0.7907912000082433,,70.66767659992911,70.68172029987909,71.68165179993957,71.66615880001336,,,,,,,,,,,,,,,,,,,,sub-223,1,stroop_test,59.916871355371605,
,,,,4.0,4.0,0.0,,,,,rot,red,r,1.0,r,1.0,0.4572634000796824,,,,,,,,,,,,,,0.0,4.0,4.0,0.0,,,,,71.68165179993957,,,,,,,,,,,,,,,,,71.66656769998372,72.88175880000927,73.68166969995946,73.66564460005611,,,,,,,,,,,,,,,,73.66635499987751,73.68166969995946,73.68166969995946,74.14953380008228,r,1.0,0.4572634000796824,,74.15019119996578,74.16518189990893,75.16475740005262,75.14916949998587,,,,,,,,,,,,,,,,,,,,sub-223,1,stroop_test,59.916871355371605,
,,,,5.0,5.0,0.0,,,,,rot,red,r,1.0,r,1.0,0.3961121998727321,,,,,,,,,,,,,,0.0,5.0,5.0,1.0,,,,,75.16475740005262,,,,,,,,,,,,,,,,,75.14958820003085,75.51477929996327,76.31500769988634,76.29917880007997,,,,,,,,,,,,,,,,76.29979950003326,76.31500769988634,76.31500769988634,76.7162854000926,r,1.0,0.3961121998727321,,76.71694740001112,76.73145739990287,77.73153380001895,77.71573679987341,,,,,,,,,,,,,,,,,,,,sub-223,1,stroop_test,59.916871355371605,
,,,,6.0,6.0,0.0,,,,,blau,yellow,g,0.0,b,0.0,0.5612647000234574,,,,,,,,,,,,,,0.0,6.0,6.0,7.0,,,,,77.73153380001895,,,,,,,,,,,,,,,,,77.7161427999381,78.93136120005511,79.73127109999768,79.7152519999072,,,,,,,,,,,,,,,,79.71987459994853,79.73127109999768,79.73127109999768,80.29931299993768,b,0.0,0.5612647000234574,,80.30659319995902,80.31453599990346,81.31446020002477,81.29883720004,,,,,,,,,,,,,,,,,,,,sub-223,1,stroop_test,59.916871355371605,
,,,,7.0,7.0,0.0,,,,,gelb,red,r,0.0,g,0.0,0.7046648999676108,,,,,,,,,,,,,,0.0,7.0,7.0,8.0,,,,,81.31446020002477,,,,,,,,,,,,,,,,,81.2992235000711,82.51458829990588,83.31447599991225,83.29865760006942,,,,,,,,,,,,,,,,83.30257639987394,83.31447599991225,83.31447599991225,84.03307359991595,g,0.0,0.7046648999676108,,84.03373649995774,84.04774569999427,85.04798989999108,85.03403800004162,,,,,,,,,,,,,,,,,,,,sub-223,1,stroop_test,59.916871355371605,
,,,,8.0,8.0,0.0,,,,,gelb,yellow,g,1.0,g,1.0,0.799105399986729,,,,,,,,,,,,,,0.0,8.0,8.0,11.0,,,,,85.04798989999108,,,,,,,,,,,,,,,,,85.03472159989178,86.24776549986564,87.04777260008268,87.03197970008478,,,,,,,,,,,,,,,,87.03262219997123,87.04777260008268,87.04777260008268,87.8504677999299,g,1.0,0.799105399986729,,87.85562669998035,87.86466660001315,88.86425119987689,88.8484962999355,,,,,,,,,,,,,,,,,,,,sub-223,1,stroop_test,59.916871355371605,
,,,,9.0,9.0,0.0,,,,,blau,red,r,0.0,r,1.0,1.1467716000042856,,,,,,,,,,,,,,0.0,9.0,9.0,4.0,,,,,88.86425119987689,,,,,,,,,,,,,,,,,88.84879399999045,89.66427790001035,90.46411040006204,90.44840019987896,,,,,,,,,,,,,,,,90.45239120000042,90.46411040006204,90.46411040006204,91.6162807000801,r,1.0,1.1467716000042856,,91.61693480005488,91.63074880000204,92.63076479989104,92.615157000022,,,,,,,,,,,,,,,,,,,,sub-223,1,stroop_test,59.916871355371605,
,,,,10.0,10.0,0.0,,,,,gelb,blue,b,0.0,b,1.0,1.1307204999029636,,,,,,,,,,,,,,0.0,10.0,10.0,9.0,,,,,92.63076479989104,,,,,,,,,,,,,,,,,92.61554179992528,93.83075540000571,94.63081209990196,94.6154751998838,,,,,,,,,,,,,,,,94.62033890001476,94.63081209990196,94.63081209990196,95.76652549998836,b,1.0,1.1307204999029636,,95.7671850998886,95.7806450999342,96.78055800008588,96.76457419991492,,,,,,,,,,,,,,,,,,,,sub-223,1,stroop_test,59.916871355371605,
,,,,11.0,11.0,0.0,,,,,gelb,yellow,g,1.0,g,1.0,1.0514038000255823,,,,,,,,,,,,,,0.0,11.0,11.0,10.0,,,,,96.78055800008588,,,,,,,,,,,,,,,,,96.7650174999144,97.98082199995406,98.78050359990448,98.76487870002164,,,,,,,,,,,,,,,,98.76560160005464,98.78050359990448,98.78050359990448,99.84834200004116,g,1.0,1.0514038000255823,,99.84903310006484,99.8638859000057,100.86366089992224,100.84760969993658,,,,,,,,,,,,,,,,,,,,sub-223,1,stroop_test,59.916871355371605,
,,,,12.0,0.0,1.0,,,,,rot,red,r,1.0,r,1.0,0.6282276001293212,,,,,,,,,,,,,,1.0,0.0,12.0,1.0,,,,,100.86366089992224,,,,,,,,,,,,,,,,,100.84797209990212,100.9636641999241,101.76380599988624,101.74791299994104,,,,,,,,,,,,,,,,101.75171449990012,101.76380599988624,101.76380599988624,102.39806849998422,r,1.0,0.6282276001293212,,102.39875179994851,102.41356200003064,103.41355749987996,103.39750600000843,,,,,,,,,,,,,,,,,,,,sub-223,1,stroop_test,59.916871355371605,
,,,,13.0,1.0,1.0,,,,,gelb,red,r,0.0,r,1.0,0.974883700022474,,,,,,,,,,,,,,1.0,1.0,13.0,8.0,,,,,103.41355749987996,,,,,,,,,,,,,,,,,103.39789530006236,103.51362810004504,104.31347250007092,104.2977066000458,,,,,,,,,,,,,,,,104.30156449996866,104.31347250007092,104.31347250007092,105.29936739988624,r,1.0,0.974883700022474,,105.3001206999179,105.3134353000205,106.31332190008834,106.29742389987224,,,,,,,,,,,,,,,,,,,,sub-223,1,stroop_test,59.916871355371605,
,,,,14.0,2.0,1.0,,,,,gelb,yellow,g,1.0,g,1.0,0.6132364999502897,,,,,,,,,,,,,,1.0,2.0,14.0,10.0,,,,,106.31332190008834,,,,,,,,,,,,,,,,,106.29781710007228,106.41329060005955,107.21364660002293,107.1981921000406,,,,,,,,,,,,,,,,107.19892719993368,107.21364660002293,107.21364660002293,107.83171180007048,g,1.0,0.6132364999502897,,107.83241429994814,107.84671889990568,108.8466308999341,108.83095899992622,,,,,,,,,,,,,,,,,,,,sub-223,1,stroop_test,59.916871355371605,
,,,,15.0,3.0,1.0,,,,,blau,blue,b,1.0,b,1.0,0.5733155000489205,,,,,,,,,,,,,,1.0,3.0,15.0,5.0,,,,,108.8466308999341,,,,,,,,,,,,,,,,,108.8314604999032,109.1965936999768,109.9965411000885,109.98121450003237,,,,,,,,,,,,,,,,109.98502729996108,109.9965411000885,109.9965411000885,110.58127800002694,b,1.0,0.5733155000489205,,110.58193770004436,110.59661259991115,111.59642919991164,111.58105370006524,,,,,,,,,,,,,,,,,,,,sub-223,1,stroop_test,59.916871355371605,
,,,,16.0,4.0,1.0,,,,,gelb,blue,b,0.0,b,1.0,0.6828655002173036,,,,,,,,,,,,,,1.0,4.0,16.0,9.0,,,,,111.59642919991164,,,,,,,,,,,,,,,,,111.5814650999382,112.396581399953,113.196460200008,113.18030339991674,,,,,,,,,,,,,,,,113.18415859993549,113.196460200008,113.196460200008,113.8827927999664,b,1.0,0.6828655002173036,,113.88362039998174,113.89682959998026,114.89631099998952,114.8803872000426,,,,,,,,,,,,,,,,,,,,sub-223,1,stroop_test,59.916871355371605,
,,,,17.0,5.0,1.0,,,,,blau,red,r,0.0,r,1.0,1.2891644001938405,,,,,,,,,,,,,,1.0,5.0,17.0,4.0,,,,,114.89631099998952,,,,,,,,,,,,,,,,,114.88078780006616,115.696311699925,116.49638530006632,116.48078859993257,,,,,,,,,,,,,,,,116.4851243000012,116.49638530006632,116.49638530006632,117.79773039999418,r,1.0,1.2891644001938405,,117.79857270000502,117.81292239995672,118.81275489996187,118.79720439994708,,,,,,,,,,,,,,,,,,,,sub-223,1,stroop_test,59.916871355371605,
,,,,18.0,6.0,1.0,,,,,blau,yellow,g,0.0,g,1.0,1.1460913999471811,,,,,,,,,,,,,,1.0,6.0,18.0,7.0,,,,,118.81275489996187,,,,,,,,,,,,,,,,,118.79762990004384,120.0129491998814,120.8127581998706,120.796787600033,,,,,,,,,,,,,,,,120.79731149994768,120.8127581998706,120.8127581998706,121.96455210004932,g,1.0,1.1460913999471811,,121.96534070000052,121.97944719996303,122.97949569998308,122.96377859986389,,,,,,,,,,,,,,,,,,,,sub-223,1,stroop_test,59.916871355371605,
,,,,19.0,7.0,1.0,,,,,rot,yellow,g,0.0,g,1.0,1.1537022998090831,,,,,,,,,,,,,,1.0,7.0,19.0,3.0,,,,,122.97949569998308,,,,,,,,,,,,,,,,,122.9643518999219,123.77934310003184,124.58093419997022,124.56575619988143,,,,,,,,,,,,,,,,124.56926709995604,124.58093419997022,124.58093419997022,125.74928759993054,g,1.0,1.1537022998090831,,125.7499595999252,125.76540490007028,126.7646051000338,126.74872409994714,,,,,,,,,,,,,,,,,,,,sub-223,1,stroop_test,59.916871355371605,
,,,,20.0,8.0,1.0,,,,,rot,red,r,1.0,r,1.0,0.9960972999688238,,,,,,,,,,,,,,1.0,8.0,20.0,0.0,,,,,126.7646051000338,,,,,,,,,,,,,,,,,126.74917829991318,127.94781979988328,128.7481927999761,128.73195550008677,,,,,,,,,,,,,,,,128.73271170002408,128.7481927999761,128.7481927999761,129.74766410002485,r,1.0,0.9960972999688238,,129.74844520003535,129.762437999947,130.76230229996145,130.74657800002024,,,,,,,,,,,,,,,,,,,,sub-223,1,stroop_test,59.916871355371605,
,,,,21.0,9.0,1.0,,,,,rot,blue,b,0.0,b,1.0,0.7814370999112725,,,,,,,,,,,,,,1.0,9.0,21.0,2.0,,,,,130.76230229996145,,,,,,,,,,,,,,,,,130.74700380000286,131.9622098999098,132.76219849986956,132.74653530004434,,,,,,,,,,,,,,,,132.74730270006694,132.76219849986956,132.76219849986956,133.54729779995978,b,1.0,0.7814370999112725,,133.5480265999213,133.5621823000256,134.56207669992,134.54622459993698,,,,,,,,,,,,,,,,,,,,sub-223,1,stroop_test,59.916871355371605,
,,,,22.0,10.0,1.0,,,,,blau,blue,b,1.0,b,1.0,0.6309130000881851,,,,,,,,,,,,,,1.0,10.0,22.0,6.0,,,,,134.56207669992,,,,,,,,,,,,,,,,,134.54664919991046,135.76197139988653,136.56202269997448,136.54626809991896,,,,,,,,,,,,,,,,136.55000389995985,136.56202269997448,136.56202269997448,137.1969655000139,b,1.0,0.6309130000881851,,137.19763109995984,137.21217840001918,138.21177609986626,138.19587920000777,,,,,,,,,,,,,,,,,,,,sub-223,1,stroop_test,59.916871355371605,
,,,,23.0,11.0,1.0,,,,,gelb,yellow,g,1.0,g,1.0,0.6815478000789881,,,,,,,,,,,,,,1.0,11.0,23.0,11.0,,,,,138.21177609986626,,,,,,,,,,,,,,,,,138.19628999987617,139.41196509986185,140.21171669987962,140.19579540006816,,,,,,,,,,,,,,,,140.198612799868,140.21171669987962,140.21171669987962,140.89672149997205,g,1.0,0.6815478000789881,,140.89737110002898,140.91179600008763,141.91192599991336,141.89591500000097,,,,,,,,,,,,,,,,,,,,sub-223,1,stroop_test,59.916871355371605,
,,,,,,,,,,,,,,,,,,,,,,,,,,,,,,,,,,,,,,,,,,,,,,,,,,,,,,,,,,,,,,,,,,,,,,,,,,,,,,,,,,,,,,,141.89606059994549,141.91192599991336,141.91192599991336,146.2797244999092,space,4.3606268998701125,,,,,,,,,,,,,,sub-223,1,stroop_test,59.916871355371605,
,,,,0.0,0.0,0.0,,,,,,,,,,,,,blau,blue,b,1.0,b,1.0,0.4285917999222874,,,,,,,,,,0.0,0.0,0.0,6.0,146.29766579996794,,,,,,,,,,,,,,,,,146.294733799994,147.4951180999633,148.29481519991532,148.2791613000445,,,,,,,,,,,,,,,,,,,,,,,,,,,,,,,,,,,148.28368290001526,148.29481519991532,148.29481519991532,148.7296980000101,b,1.0,0.4285917999222874,,,,,,sub-223,1,stroop_test,59.916871355371605,
,,,,1.0,1.0,0.0,,,,,,,,,,,,,rot,yellow,g,0.0,g,1.0,0.8573435998987406,,,,,,,,,,0.0,1.0,1.0,3.0,148.74476510006934,,,,,,,,,,,,,,,,,148.73018900002353,148.8448902000673,149.64490829990245,149.62893750006333,,,,,,,,,,,,,,,,,,,,,,,,,,,,,,,,,,,149.63336530001834,149.64490829990245,149.64490829990245,150.51318669994362,g,1.0,0.8573435998987406,,,,,,sub-223,1,stroop_test,59.916871355371605,
,,,,2.0,2.0,0.0,,,,,,,,,,,,,gelb,red,r,0.0,r,1.0,0.4114999999292195,,,,,,,,,,0.0,2.0,2.0,8.0,150.52808610000648,,,,,,,,,,,,,,,,,150.51370300003327,150.62814759998582,151.42813030001707,151.41231569997035,,,,,,,,,,,,,,,,,,,,,,,,,,,,,,,,,,,151.41638449998572,151.42813030001707,151.42813030001707,151.84629369992763,r,1.0,0.4114999999292195,,,,,,sub-223,1,stroop_test,59.916871355371605,
,,,,3.0,3.0,0.0,,,,,,,,,,,,,gelb,yellow,g,1.0,g,1.0,0.4990888999309391,,,,,,,,,,0.0,3.0,3.0,11.0,151.86131109995767,,,,,,,,,,,,,,,,,151.846797300037,152.66130999987945,153.46160309994593,153.44529519998468,,,,,,,,,,,,,,,,,,,,,,,,,,,,,,,,,,,153.44555429997854,153.46160309994593,153.46160309994593,153.96224580006674,g,1.0,0.4990888999309391,,,,,,sub-223,1,stroop_test,59.916871355371605,
,,,,4.0,4.0,0.0,,,,,,,,,,,,,gelb,blue,b,0.0,b,1.0,0.49710309994407,,,,,,,,,,0.0,4.0,4.0,9.0,153.97779230005108,,,,,,,,,,,,,,,,,153.96251949993894,154.07793650007807,154.87816950003617,154.86228609993125,,,,,,,,,,,,,,,,,,,,,,,,,,,,,,,,,,,154.86301789991558,154.87816950003617,154.87816950003617,155.37921379995532,b,1.0,0.49710309994407,,,,,,sub-223,1,stroop_test,59.916871355371605,
,,,,5.0,5.0,0.0,,,,,,,,,,,,,rot,red,r,1.0,r,1.0,0.5721424999646842,,,,,,,,,,0.0,5.0,5.0,1.0,155.39453059993684,,,,,,,,,,,,,,,,,155.37969339988194,156.5945975999348,157.39451980008744,157.3787587999832,,,,,,,,,,,,,,,,,,,,,,,,,,,,,,,,,,,157.3827200999949,157.39451980008744,157.39451980008744,157.97892630007118,r,1.0,0.5721424999646842,,,,,,sub-223,1,stroop_test,59.916871355371605,
,,,,6.0,6.0,0.0,,,,,,,,,,,,,blau,blue,b,1.0,b,1.0,0.5653666998259723,,,,,,,,,,0.0,6.0,6.0,5.0,157.99431119998917,,,,,,,,,,,,,,,,,157.97944870009087,158.79439729987644,159.5944759999402,159.57856930000708,,,,,,,,,,,,,,,,,,,,,,,,,,,,,,,,,,,159.58308929996565,159.5944759999402,159.5944759999402,160.16443879995495,b,1.0,0.5653666998259723,,,,,,sub-223,1,stroop_test,59.916871355371605,
,,,,7.0,7.0,0.0,,,,,,,,,,,,,rot,blue,b,0.0,b,1.0,0.5336587000638247,,,,,,,,,,0.0,7.0,7.0,2.0,160.17753380001523,,,,,,,,,,,,,,,,,160.16497489996254,161.3775601000525,162.1777657000348,162.1621232999023,,,,,,,,,,,,,,,,,,,,,,,,,,,,,,,,,,,162.16678000008687,162.1777657000348,162.1777657000348,162.71437399997376,b,1.0,0.5336587000638247,,,,,,sub-223,1,stroop_test,59.916871355371605,
,,,,8.0,8.0,0.0,,,,,,,,,,,,,blau,yellow,g,0.0,g,1.0,0.8193145000841469,,,,,,,,,,0.0,8.0,8.0,7.0,162.72752389987,,,,,,,,,,,,,,,,,162.71500459988602,163.52754259994254,164.32757289987055,164.31233430001885,,,,,,,,,,,,,,,,,,,,,,,,,,,,,,,,,,,164.31694069993682,164.32757289987055,164.32757289987055,165.16183250001632,g,1.0,0.8193145000841469,,,,,,sub-223,1,stroop_test,59.916871355371605,
,,,,9.0,9.0,0.0,,,,,,,,,,,,,blau,red,r,0.0,r,1.0,0.6232108001131564,,,,,,,,,,0.0,9.0,9.0,4.0,165.17748479987495,,,,,,,,,,,,,,,,,165.16229139990173,165.52744430000894,166.32740409998223,166.31174720008858,,,,,,,,,,,,,,,,,,,,,,,,,,,,,,,,,,,166.31230250000954,166.32740409998223,166.32740409998223,166.96196309989318,r,1.0,0.6232108001131564,,,,,,sub-223,1,stroop_test,59.916871355371605,
,,,,10.0,10.0,0.0,,,,,,,,,,,,,gelb,yellow,g,1.0,g,1.0,0.4116384000517428,,,,,,,,,,0.0,10.0,10.0,10.0,166.97720100008883,,,,,,,,,,,,,,,,,166.9624341998715,167.3274099000264,168.12736689997837,168.1114866998978,,,,,,,,,,,,,,,,,,,,,,,,,,,,,,,,,,,168.1154487000313,168.12736689997837,168.12736689997837,168.54584909998812,g,1.0,0.4116384000517428,,,,,,sub-223,1,stroop_test,59.916871355371605,
,,,,11.0,11.0,0.0,,,,,,,,,,,,,rot,red,r,1.0,r,1.0,0.4944398999214172,,,,,,,,,,0.0,11.0,11.0,0.0,168.5604914999567,,,,,,,,,,,,,,,,,168.54638230009004,169.3606113998685,170.1604534999933,170.14461109996773,,,,,,,,,,,,,,,,,,,,,,,,,,,,,,,,,,,170.14839800004847,170.1604534999933,170.1604534999933,170.66158939991146,r,1.0,0.4944398999214172,,,,,,sub-223,1,stroop_test,59.916871355371605,
,,,,12.0,0.0,1.0,,,,,,,,,,,,,rot,yellow,g,0.0,g,1.0,0.8993033999577165,,,,,,,,,,1.0,0.0,12.0,3.0,170.6771352000069,,,,,,,,,,,,,,,,,170.66205490007997,171.87700890004635,172.67698260000907,172.66140679991804,,,,,,,,,,,,,,,,,,,,,,,,,,,,,,,,,,,172.66197829996236,172.67698260000907,172.67698260000907,173.57907940004952,g,1.0,0.8993033999577165,,,,,,sub-223,1,stroop_test,59.916871355371605,
,,,,13.0,1.0,1.0,,,,,,,,,,,,,blau,blue,b,1.0,b,1.0,0.3350119998212904,,,,,,,,,,1.0,1.0,13.0,6.0,173.59364490001462,,,,,,,,,,,,,,,,,173.5795877999626,174.79365090001374,175.59362390008755,175.57786759990267,,,,,,,,,,,,,,,,,,,,,,,,,,,,,,,,,,,175.58184379991144,175.59362390008755,175.59362390008755,175.94476619991474,b,1.0,0.3350119998212904,,,,,,sub-223,1,stroop_test,59.916871355371605,
,,,,14.0,2.0,1.0,,,,,,,,,,,,,gelb,blue,b,0.0,b,1.0,0.6474394998513162,,,,,,,,,,1.0,2.0,14.0,9.0,175.960330999922,,,,,,,,,,,,,,,,,175.9453054999467,176.06030980008654,176.86032760003582,176.84458420006558,,,,,,,,,,,,,,,,,,,,,,,,,,,,,,,,,,,176.8501800999511,176.86032760003582,176.86032760003582,177.5119568000082,b,1.0,0.6474394998513162,,,,,,sub-223,1,stroop_test,59.916871355371605,
,,,,15.0,3.0,1.0,,,,,,,,,,,,,gelb,yellow,g,1.0,g,1.0,0.4604413998313248,,,,,,,,,,1.0,3.0,15.0,11.0,177.5267606000416,,,,,,,,,,,,,,,,,177.51243970007636,178.32674809987657,179.12669040006585,179.11074279993773,,,,,,,,,,,,,,,,,,,,,,,,,,,,,,,,,,,179.11137579986826,179.12669040006585,179.12669040006585,179.5948147000745,g,1.0,0.4604413998313248,,,,,,sub-223,1,stroop_test,59.916871355371605,
,,,,16.0,4.0,1.0,,,,,,,,,,,,,rot,blue,b,0.0,b,1.0,0.6132390999700874,,,,,,,,,,1.0,4.0,16.0,2.0,179.6099940999411,,,,,,,,,,,,,,,,,179.59533769986592,179.70997329987586,180.51020870008503,180.49509590002708,,,,,,,,,,,,,,,,,,,,,,,,,,,,,,,,,,,180.4997409998905,180.51020870008503,180.51020870008503,181.12859590002336,b,1.0,0.6132390999700874,,,,,,sub-223,1,stroop_test,59.916871355371605,
,,,,17.0,5.0,1.0,,,,,,,,,,,,,rot,red,r,1.0,r,1.0,0.4991110998671502,,,,,,,,,,1.0,5.0,17.0,1.0,181.1432731000241,,,,,,,,,,,,,,,,,181.12906729988757,181.24334049993195,182.043142599985,182.0275936999824,,,,,,,,,,,,,,,,,,,,,,,,,,,,,,,,,,,182.02820049994625,182.043142599985,182.043142599985,182.54522829991765,r,1.0,0.4991110998671502,,,,,,sub-223,1,stroop_test,59.916871355371605,
,,,,18.0,6.0,1.0,,,,,,,,,,,,,blau,blue,b,1.0,b,1.0,0.4444349999539554,,,,,,,,,,1.0,6.0,18.0,5.0,182.55981820006852,,,,,,,,,,,,,,,,,182.54576859995723,183.7599229000043,184.55980130005628,184.54394249990585,,,,,,,,,,,,,,,,,,,,,,,,,,,,,,,,,,,184.54772399994545,184.55980130005628,184.55980130005628,185.011222000001,b,1.0,0.4444349999539554,,,,,,sub-223,1,stroop_test,59.916871355371605,
,,,,19.0,7.0,1.0,,,,,,,,,,,,,gelb,red,r,0.0,r,1.0,0.7357682001311332,,,,,,,,,,1.0,7.0,19.0,8.0,185.02643179986623,,,,,,,,,,,,,,,,,185.01170190004632,185.3763128998689,186.17635939992036,186.160580100026,,,,,,,,,,,,,,,,,,,,,,,,,,,,,,,,,,,186.16546950000335,186.17635939992036,186.17635939992036,186.9277921998873,r,1.0,0.7357682001311332,,,,,,sub-223,1,stroop_test,59.916871355371605,
,,,,20.0,8.0,1.0,,,,,,,,,,,,,blau,red,r,0.0,r,1.0,0.464717400027439,,,,,,,,,,1.0,8.0,20.0,4.0,186.94303269986997,,,,,,,,,,,,,,,,,186.9283165000379,187.7429070000071,188.54293629992756,188.52715780003928,,,,,,,,,,,,,,,,,,,,,,,,,,,,,,,,,,,188.5309405999724,188.54293629992756,188.54293629992756,189.01152430009097,r,1.0,0.464717400027439,,,,,,sub-223,1,stroop_test,59.916871355371605,
,,,,21.0,9.0,1.0,,,,,,,,,,,,,rot,red,r,1.0,r,1.0,0.463877199916169,,,,,,,,,,1.0,9.0,21.0,0.0,189.0261822000612,,,,,,,,,,,,,,,,,189.01204130006957,189.82622159994207,190.6261799000204,190.6105923000723,,,,,,,,,,,,,,,,,,,,,,,,,,,,,,,,,,,190.6152937000152,190.6261799000204,190.6261799000204,191.0945415000897,r,1.0,0.463877199916169,,,,,,sub-223,1,stroop_test,59.916871355371605,
,,,,22.0,10.0,1.0,,,,,,,,,,,,,blau,yellow,g,0.0,g,1.0,0.6840117000974715,,,,,,,,,,1.0,10.0,22.0,7.0,191.10939009999856,,,,,,,,,,,,,,,,,191.09509499999692,191.45942809991536,192.25956239993684,192.24397179996595,,,,,,,,,,,,,,,,,,,,,,,,,,,,,,,,,,,192.2492511998862,192.25956239993684,192.25956239993684,192.96088590007275,g,1.0,0.6840117000974715,,,,,,sub-223,1,stroop_test,59.916871355371605,
,,,,23.0,11.0,1.0,,,,,,,,,,,,,gelb,yellow,g,1.0,b,0.0,0.3257502999622375,,,,,,,,,,1.0,11.0,23.0,10.0,192.97612000000663,,,,,,,,,,,,,,,,,192.96137510007247,193.32603539992124,194.1260490999557,194.1100423000753,,,,,,,,,,,,,,,,,,,,,,,,,,,,,,,,,,,194.11380609986367,194.1260490999557,194.1260490999557,194.4608825999312,b,0.0,0.3257502999622375,,,,,,sub-223,1,stroop_test,59.916871355371605,
,,,,24.0,0.0,2.0,,,,,,,,,,,,,gelb,yellow,g,1.0,g,1.0,0.5578436001669616,,,,,,,,,,2.0,0.0,24.0,10.0,194.4759466999676,,,,,,,,,,,,,,,,,194.4613729000557,194.57705760002136,195.3926093999762,195.3767315999139,,,,,,,,,,,,,,,,,,,,,,,,,,,,,,,,,,,195.3773207999766,195.3926093999762,195.3926093999762,195.96064909989943,g,1.0,0.5578436001669616,,,,,,sub-223,1,stroop_test,59.916871355371605,
,,,,25.0,1.0,2.0,,,,,,,,,,,,,blau,red,r,0.0,r,1.0,0.94815930002369,,,,,,,,,,2.0,1.0,25.0,4.0,195.9758407000918,,,,,,,,,,,,,,,,,195.96113920002244,196.7758408000227,197.57596529996957,197.5598792999517,,,,,,,,,,,,,,,,,,,,,,,,,,,,,,,,,,,197.56422349996865,197.57596529996957,197.57596529996957,198.52771020005457,r,1.0,0.94815930002369,,,,,,sub-223,1,stroop_test,59.916871355371605,
,,,,26.0,2.0,2.0,,,,,,,,,,,,,blau,blue,b,1.0,b,1.0,0.4732615000102669,,,,,,,,,,2.0,2.0,26.0,5.0,198.54244079999623,,,,,,,,,,,,,,,,,198.52817979990505,199.34244999988005,200.14239819999784,200.12636029999703,,,,,,,,,,,,,,,,,,,,,,,,,,,,,,,,,,,200.12695659999736,200.14239819999784,200.14239819999784,200.6274615000002,b,1.0,0.4732615000102669,,,,,,sub-223,1,stroop_test,59.916871355371605,
,,,,27.0,3.0,2.0,,,,,,,,,,,,,gelb,yellow,g,1.0,g,1.0,0.501874899957329,,,,,,,,,,2.0,3.0,27.0,11.0,200.64234149991532,,,,,,,,,,,,,,,,,200.62789030000567,201.84283489990048,202.64242689986716,202.6265225999523,,,,,,,,,,,,,,,,,,,,,,,,,,,,,,,,,,,202.63024939992465,202.64242689986716,202.64242689986716,203.1608961999882,g,1.0,0.501874899957329,,,,,,sub-223,1,stroop_test,59.916871355371605,
,,,,28.0,4.0,2.0,,,,,,,,,,,,,rot,red,r,1.0,r,1.0,0.4177104001864791,,,,,,,,,,2.0,4.0,28.0,0.0,203.17569350008853,,,,,,,,,,,,,,,,,203.16138279996807,203.5257304999977,204.3255844998639,204.3098514999729,,,,,,,,,,,,,,,,,,,,,,,,,,,,,,,,,,,204.31390350009315,204.3255844998639,204.3255844998639,204.75977419991975,r,1.0,0.4177104001864791,,,,,,sub-223,1,stroop_test,59.916871355371605,
,,,,29.0,5.0,2.0,,,,,,,,,,,,,blau,yellow,g,0.0,g,1.0,0.5361803998239338,,,,,,,,,,2.0,5.0,29.0,7.0,204.77581720007583,,,,,,,,,,,,,,,,,204.76023570005785,205.12547850003463,205.92555489996448,205.9098658999428,,,,,,,,,,,,,,,,,,,,,,,,,,,,,,,,,,,205.9146000999026,205.92555489996448,205.92555489996448,206.4768699000124,g,1.0,0.5361803998239338,,,,,,sub-223,1,stroop_test,59.916871355371605,
,,,,30.0,6.0,2.0,,,,,,,,,,,,,rot,red,r,1.0,r,1.0,0.5995435998775065,,,,,,,,,,2.0,6.0,30.0,1.0,206.49216850008816,,,,,,,,,,,,,,,,,206.47740829992108,207.6921774998773,208.4922905000858,208.47660419996828,,,,,,,,,,,,,,,,,,,,,,,,,,,,,,,,,,,208.48130890005268,208.4922905000858,208.4922905000858,209.0946370998863,r,1.0,0.5995435998775065,,,,,,sub-223,1,stroop_test,59.916871355371605,
,,,,31.0,7.0,2.0,,,,,,,,,,,,,rot,blue,b,0.0,b,1.0,0.5425616998691112,,,,,,,,,,2.0,7.0,31.0,2.0,209.10875010001476,,,,,,,,,,,,,,,,,209.09521110006608,209.90865839994512,210.7087065000087,210.6929607000202,,,,,,,,,,,,,,,,,,,,,,,,,,,,,,,,,,,210.69354870007373,210.7087065000087,210.7087065000087,211.259957900038,b,1.0,0.5425616998691112,,,,,,sub-223,1,stroop_test,59.916871355371605,
,,,,32.0,8.0,2.0,,,,,,,,,,,,,gelb,red,r,0.0,r,1.0,0.7579127999488264,,,,,,,,,,2.0,8.0,32.0,8.0,211.27514589997008,,,,,,,,,,,,,,,,,211.2604366999585,212.07540569989945,212.8751523999963,212.8595064999536,,,,,,,,,,,,,,,,,,,,,,,,,,,,,,,,,,,212.86346219992265,212.8751523999963,212.8751523999963,213.64308379986323,r,1.0,0.7579127999488264,,,,,,sub-223,1,stroop_test,59.916871355371605,
,,,,33.0,9.0,2.0,,,,,,,,,,,,,rot,yellow,g,0.0,g,1.0,0.882624999852851,,,,,,,,,,2.0,9.0,33.0,3.0,213.65841110004112,,,,,,,,,,,,,,,,,213.6435481000226,214.85854960000145,215.6583569999784,215.64224840002132,,,,,,,,,,,,,,,,,,,,,,,,,,,,,,,,,,,215.6458678999916,215.6583569999784,215.6583569999784,216.5441205999814,g,1.0,0.882624999852851,,,,,,sub-223,1,stroop_test,59.916871355371605,
,,,,34.0,10.0,2.0,,,,,,,,,,,,,blau,blue,b,1.0,b,1.0,0.5068401000462472,,,,,,,,,,2.0,10.0,34.0,6.0,216.5582924000919,,,,,,,,,,,,,,,,,216.54472879995592,217.3582951999269,218.15822859993204,218.1426087000873,,,,,,,,,,,,,,,,,,,,,,,,,,,,,,,,,,,218.14653700008057,218.15822859993204,218.15822859993204,218.67642750008963,b,1.0,0.5068401000462472,,,,,,sub-223,1,stroop_test,59.916871355371605,
,,,,35.0,11.0,2.0,,,,,,,,,,,,,gelb,blue,b,0.0,b,1.0,0.7350905002094805,,,,,,,,,,2.0,11.0,35.0,9.0,218.69156669988297,,,,,,,,,,,,,,,,,218.6769025998656,219.0416178999003,219.8414922999218,219.825553300092,,,,,,,,,,,,,,,,,,,,,,,,,,,,,,,,,,,219.82953280000947,219.8414922999218,219.8414922999218,220.59336719987917,b,1.0,0.7350905002094805,,,,,,sub-223,1,stroop_test,59.916871355371605,
,,,,36.0,0.0,3.0,,,,,,,,,,,,,rot,blue,b,0.0,b,1.0,0.5595597000792623,,,,,,,,,,3.0,0.0,36.0,2.0,220.6082194999326,,,,,,,,,,,,,,,,,220.5939028998837,220.9581514999736,221.75814540009011,221.74211700004523,,,,,,,,,,,,,,,,,,,,,,,,,,,,,,,,,,,221.74706640001384,221.75814540009011,221.75814540009011,222.32637979998253,b,1.0,0.5595597000792623,,,,,,sub-223,1,stroop_test,59.916871355371605,
,,,,37.0,1.0,3.0,,,,,,,,,,,,,gelb,yellow,g,1.0,g,1.0,0.3594390000216663,,,,,,,,,,3.0,1.0,37.0,11.0,222.3413897000719,,,,,,,,,,,,,,,,,222.3268985000905,223.54129959992133,224.3414771000389,224.32580429990776,,,,,,,,,,,,,,,,,,,,,,,,,,,,,,,,,,,224.3296208998654,224.3414771000389,224.3414771000389,224.70945329987444,g,1.0,0.3594390000216663,,,,,,sub-223,1,stroop_test,59.916871355371605,
,,,,38.0,2.0,3.0,,,,,,,,,,,,,gelb,red,r,0.0,g,0.0,0.6561325001530349,,,,,,,,,,3.0,2.0,38.0,8.0,224.724571299972,,,,,,,,,,,,,,,,,224.7099637000356,225.524623000063,226.32466929988004,226.3087430000305,,,,,,,,,,,,,,,,,,,,,,,,,,,,,,,,,,,226.30930149997585,226.32466929988004,226.32466929988004,226.9927922000643,g,0.0,0.6561325001530349,,,,,,sub-223,1,stroop_test,59.916871355371605,
,,,,39.0,3.0,3.0,,,,,,,,,,,,,rot,red,r,1.0,r,1.0,0.4274780999403447,,,,,,,,,,3.0,3.0,39.0,0.0,227.00776549987492,,,,,,,,,,,,,,,,,226.99328060005791,228.20789110008627,229.0077227000147,228.99177409987897,,,,,,,,,,,,,,,,,,,,,,,,,,,,,,,,,,,228.9959724000655,229.0077227000147,229.0077227000147,229.4422571999021,r,1.0,0.4274780999403447,,,,,,sub-223,1,stroop_test,59.916871355371605,
,,,,40.0,4.0,3.0,,,,,,,,,,,,,blau,blue,b,1.0,b,1.0,0.5233302998822182,,,,,,,,,,3.0,4.0,40.0,5.0,229.45766939991157,,,,,,,,,,,,,,,,,229.44272090005688,229.5578052999917,230.357841799967,230.3421440999955,,,,,,,,,,,,,,,,,,,,,,,,,,,,,,,,,,,230.3462193000596,230.357841799967,230.357841799967,230.89290439989415,b,1.0,0.5233302998822182,,,,,,sub-223,1,stroop_test,59.916871355371605,
,,,,41.0,5.0,3.0,,,,,,,,,,,,,blau,red,r,0.0,r,1.0,0.4932252999860793,,,,,,,,,,3.0,5.0,41.0,4.0,230.90766769996844,,,,,,,,,,,,,,,,,230.89343330007975,231.00781199987975,231.80772319994867,231.79189169988967,,,,,,,,,,,,,,,,,,,,,,,,,,,,,,,,,,,231.79248220007867,231.80772319994867,231.80772319994867,232.30940799997188,r,1.0,0.4932252999860793,,,,,,sub-223,1,stroop_test,59.916871355371605,
,,,,42.0,6.0,3.0,,,,,,,,,,,,,gelb,blue,b,0.0,b,1.0,0.5964538999833167,,,,,,,,,,3.0,6.0,42.0,9.0,232.3242401999887,,,,,,,,,,,,,,,,,232.30989499995485,233.5241374000907,234.32434910000305,234.3090456998907,,,,,,,,,,,,,,,,,,,,,,,,,,,,,,,,,,,234.3130824000109,234.32434910000305,234.32434910000305,234.9255925999023,b,1.0,0.5964538999833167,,,,,,sub-223,1,stroop_test,59.916871355371605,
,,,,43.0,7.0,3.0,,,,,,,,,,,,,gelb,yellow,g,1.0,g,1.0,0.8344177999533713,,,,,,,,,,3.0,7.0,43.0,10.0,234.9407957999501,,,,,,,,,,,,,,,,,234.9260992000345,236.14075009990484,236.94073130004108,236.925032600062,,,,,,,,,,,,,,,,,,,,,,,,,,,,,,,,,,,236.92562430002727,236.94073130004108,236.94073130004108,237.7920792999212,g,1.0,0.8344177999533713,,,,,,sub-223,1,stroop_test,59.916871355371605,
,,,,44.0,8.0,3.0,,,,,,,,,,,,,rot,yellow,g,0.0,g,1.0,0.761113699991256,,,,,,,,,,3.0,8.0,44.0,3.0,237.8072146000341,,,,,,,,,,,,,,,,,237.79254369996488,238.15740850009024,238.95748339989223,238.94194990000688,,,,,,,,,,,,,,,,,,,,,,,,,,,,,,,,,,,238.94741269992664,238.95748339989223,238.95748339989223,239.7261175999884,g,1.0,0.761113699991256,,,,,,sub-223,1,stroop_test,59.916871355371605,
,,,,45.0,9.0,3.0,,,,,,,,,,,,,blau,blue,b,1.0,b,1.0,0.5017317000310868,,,,,,,,,,3.0,9.0,45.0,6.0,239.7405622000806,,,,,,,,,,,,,,,,,239.7266991999932,240.9404623999726,241.7404507000465,241.72453029989265,,,,,,,,,,,,,,,,,,,,,,,,,,,,,,,,,,,241.72836260008623,241.7404507000465,241.7404507000465,242.25880230008624,b,1.0,0.5017317000310868,,,,,,sub-223,1,stroop_test,59.916871355371605,
,,,,46.0,10.0,3.0,,,,,,,,,,,,,blau,yellow,g,0.0,g,1.0,0.6778053999878466,,,,,,,,,,3.0,10.0,46.0,7.0,242.2738552999217,,,,,,,,,,,,,,,,,242.25926079996864,243.0738111999817,243.873852299992,243.85814919997935,,,,,,,,,,,,,,,,,,,,,,,,,,,,,,,,,,,243.8587740000803,243.873852299992,243.873852299992,244.55870279995725,g,1.0,0.6778053999878466,,,,,,sub-223,1,stroop_test,59.916871355371605,
,,,,47.0,11.0,3.0,,,,,,,,,,,,,rot,red,r,1.0,r,1.0,0.5191027000546455,,,,,,,,,,3.0,11.0,47.0,1.0,244.57376939989624,,,,,,,,,,,,,,,,,244.5593159000855,245.37369409995156,246.17359229992144,246.1577781999949,,,,,,,,,,,,,,,,,,,,,,,,,,,,,,,,,,,246.16139020002447,246.17359229992144,246.17359229992144,246.70818339986727,r,1.0,0.5191027000546455,,,,,,sub-223,1,stroop_test,59.916871355371605,
,,,,48.0,0.0,4.0,,,,,,,,,,,,,gelb,yellow,g,1.0,g,1.0,0.5716712998691946,,,,,,,,,,4.0,0.0,48.0,10.0,246.72354350006208,,,,,,,,,,,,,,,,,246.70868219994009,247.0734687000513,247.8735209000297,247.85795129998587,,,,,,,,,,,,,,,,,,,,,,,,,,,,,,,,,,,247.8620563000441,247.8735209000297,247.8735209000297,248.45826149987988,g,1.0,0.5716712998691946,,,,,,sub-223,1,stroop_test,59.916871355371605,
,,,,49.0,1.0,4.0,,,,,,,,,,,,,rot,red,r,1.0,r,1.0,0.5740117998793721,,,,,,,,,,4.0,1.0,49.0,1.0,248.4734654999338,,,,,,,,,,,,,,,,,248.45878400001675,249.67347140004856,250.4733909999486,250.4572866000235,,,,,,,,,,,,,,,,,,,,,,,,,,,,,,,,,,,250.4609000000637,250.4733909999486,250.4733909999486,251.0581511000637,r,1.0,0.5740117998793721,,,,,,sub-223,1,stroop_test,59.916871355371605,
,,,,50.0,2.0,4.0,,,,,,,,,,,,,blau,blue,b,1.0,b,1.0,0.5061366001609713,,,,,,,,,,4.0,2.0,50.0,5.0,251.07330839987844,,,,,,,,,,,,,,,,,251.0586218999233,252.2733191999141,253.07333249994556,253.05740540008992,,,,,,,,,,,,,,,,,,,,,,,,,,,,,,,,,,,253.06205770000813,253.07333249994556,253.07333249994556,253.5913259999361,b,1.0,0.5061366001609713,,,,,,sub-223,1,stroop_test,59.916871355371605,
,,,,51.0,3.0,4.0,,,,,,,,,,,,,gelb,red,r,0.0,r,1.0,0.9046281999908388,,,,,,,,,,4.0,3.0,51.0,8.0,253.6067907998804,,,,,,,,,,,,,,,,,253.59184719994664,253.70653309999037,254.5065693000797,254.49072850006635,,,,,,,,,,,,,,,,,,,,,,,,,,,,,,,,,,,254.4952608998865,254.5065693000797,254.5065693000797,255.42463260004297,r,1.0,0.9046281999908388,,,,,,sub-223,1,stroop_test,59.916871355371605,
,,,,52.0,4.0,4.0,,,,,,,,,,,,,blau,red,r,0.0,r,1.0,0.6566993999294937,,,,,,,,,,4.0,4.0,52.0,4.0,255.43974770000204,,,,,,,,,,,,,,,,,255.4251357999165,256.63978349999525,257.4397764999885,257.42396719986573,,,,,,,,,,,,,,,,,,,,,,,,,,,,,,,,,,,257.42763389996253,257.4397764999885,257.4397764999885,258.1078848000616,r,1.0,0.6566993999294937,,,,,,sub-223,1,stroop_test,59.916871355371605,
,,,,53.0,5.0,4.0,,,,,,,,,,,,,blau,blue,b,1.0,b,1.0,0.5786985999438912,,,,,,,,,,4.0,5.0,53.0,6.0,258.1229934999719,,,,,,,,,,,,,,,,,258.1083768000826,258.92296879994683,259.7230928998906,259.70704980008304,,,,,,,,,,,,,,,,,,,,,,,,,,,,,,,,,,,259.7076171999797,259.7230928998906,259.7230928998906,260.30799699993804,b,1.0,0.5786985999438912,,,,,,sub-223,1,stroop_test,59.916871355371605,
,,,,54.0,6.0,4.0,,,,,,,,,,,,,blau,yellow,g,0.0,g,1.0,0.9098328000400216,,,,,,,,,,4.0,6.0,54.0,7.0,260.3228808999993,,,,,,,,,,,,,,,,,260.30845599994063,261.5228196999524,262.32282979995944,262.30707879993133,,,,,,,,,,,,,,,,,,,,,,,,,,,,,,,,,,,262.3076305000577,262.32282979995944,262.32282979995944,263.24081790004857,g,1.0,0.9098328000400216,,,,,,sub-223,1,stroop_test,59.916871355371605,
,,,,55.0,7.0,4.0,,,,,,,,,,,,,gelb,yellow,g,1.0,g,1.0,0.5020427000708878,,,,,,,,,,4.0,7.0,55.0,11.0,263.256097599864,,,,,,,,,,,,,,,,,263.2414269999136,264.0561754000373,264.85632040002383,264.84024440008216,,,,,,,,,,,,,,,,,,,,,,,,,,,,,,,,,,,264.84437779989094,264.85632040002383,264.85632040002383,265.3745862999931,g,1.0,0.5020427000708878,,,,,,sub-223,1,stroop_test,59.916871355371605,
,,,,56.0,8.0,4.0,,,,,,,,,,,,,rot,red,r,1.0,r,1.0,0.5542874000966549,,,,,,,,,,4.0,8.0,56.0,0.0,265.38969009998254,,,,,,,,,,,,,,,,,265.3751592999324,266.18954949988984,266.989355500089,266.9735361998901,,,,,,,,,,,,,,,,,,,,,,,,,,,,,,,,,,,266.9777075999882,266.989355500089,266.989355500089,267.55804349994287,r,1.0,0.5542874000966549,,,,,,sub-223,1,stroop_test,59.916871355371605,
,,,,57.0,9.0,4.0,,,,,,,,,,,,,gelb,blue,b,0.0,b,1.0,0.6093997000716627,,,,,,,,,,4.0,9.0,57.0,9.0,267.57275970000774,,,,,,,,,,,,,,,,,267.5585690999869,267.92271549999714,268.72268050001003,268.7066440000199,,,,,,,,,,,,,,,,,,,,,,,,,,,,,,,,,,,268.7106401999481,268.72268050001003,268.72268050001003,269.34044509986416,b,1.0,0.6093997000716627,,,,,,sub-223,1,stroop_test,59.916871355371605,
,,,,58.0,10.0,4.0,,,,,,,,,,,,,rot,blue,b,0.0,b,1.0,0.4954806000459939,,,,,,,,,,4.0,10.0,58.0,2.0,269.3559053998906,,,,,,,,,,,,,,,,,269.34093829989433,269.45602929987945,270.25586419994943,270.2401012000628,,,,,,,,,,,,,,,,,,,,,,,,,,,,,,,,,,,270.24495500000194,270.25586419994943,270.25586419994943,270.7574670999311,b,1.0,0.4954806000459939,,,,,,sub-223,1,stroop_test,59.916871355371605,
,,,,59.0,11.0,4.0,,,,,,,,,,,,,rot,yellow,g,0.0,g,1.0,0.835872600087896,,,,,,,,,,4.0,11.0,59.0,3.0,270.7724134000018,,,,,,,,,,,,,,,,,270.7579904999584,270.8724592998624,271.67244590003975,271.65682190004736,,,,,,,,,,,,,,,,,,,,,,,,,,,,,,,,,,,271.65765319997445,271.67244590003975,271.67244590003975,272.5241831999738,g,1.0,0.835872600087896,,,,,,sub-223,1,stroop_test,59.916871355371605,
,,,,60.0,0.0,5.0,,,,,,,,,,,,,rot,blue,b,0.0,b,1.0,0.6944123001303524,,,,,,,,,,5.0,0.0,60.0,2.0,272.53913900000043,,,,,,,,,,,,,,,,,272.5248052999377,273.7390751999337,274.53904559998773,274.5230783999432,,,,,,,,,,,,,,,,,,,,,,,,,,,,,,,,,,,274.5237258998677,274.53904559998773,274.53904559998773,275.2402987999376,b,1.0,0.6944123001303524,,,,,,sub-223,1,stroop_test,59.916871355371605,
,,,,61.0,1.0,5.0,,,,,,,,,,,,,gelb,yellow,g,1.0,g,1.0,0.5344128999859095,,,,,,,,,,5.0,1.0,61.0,10.0,275.255623199977,,,,,,,,,,,,,,,,,275.24083560006693,276.4557222998701,277.2557437000796,277.2404628000222,,,,,,,,,,,,,,,,,,,,,,,,,,,,,,,,,,,277.24563360004686,277.2557437000796,277.2557437000796,277.80658950004727,g,1.0,0.5344128999859095,,,,,,sub-223,1,stroop_test,59.916871355371605,
,,,,62.0,2.0,5.0,,,,,,,,,,,,,blau,yellow,g,0.0,g,1.0,0.3960098999086767,,,,,,,,,,5.0,2.0,62.0,7.0,277.82207789993845,,,,,,,,,,,,,,,,,277.80707590002567,279.02224750001915,279.8221366999205,279.806592799956,,,,,,,,,,,,,,,,,,,,,,,,,,,,,,,,,,,279.81059250002727,279.8221366999205,279.8221366999205,280.2243844999466,g,1.0,0.3960098999086767,,,,,,sub-223,1,stroop_test,59.916871355371605,
,,,,63.0,3.0,5.0,,,,,,,,,,,,,rot,red,r,1.0,r,1.0,0.5234141000546515,,,,,,,,,,5.0,3.0,63.0,0.0,280.2386222998612,,,,,,,,,,,,,,,,,280.22493500006385,280.58883820008487,281.388954800088,281.37335489992984,,,,,,,,,,,,,,,,,,,,,,,,,,,,,,,,,,,281.3772277000826,281.388954800088,281.388954800088,281.92321899998933,r,1.0,0.5234141000546515,,,,,,sub-223,1,stroop_test,59.916871355371605,
,,,,64.0,4.0,5.0,,,,,,,,,,,,,rot,yellow,g,0.0,g,1.0,0.356988999992609,,,,,,,,,,5.0,4.0,64.0,3.0,281.93857249990106,,,,,,,,,,,,,,,,,281.92372169997543,282.7388182000723,283.5385145000182,283.52288189996034,,,,,,,,,,,,,,,,,,,,,,,,,,,,,,,,,,,283.5234936999623,283.5385145000182,283.5385145000182,283.9068328998983,g,1.0,0.356988999992609,,,,,,sub-223,1,stroop_test,59.916871355371605,
,,,,65.0,5.0,5.0,,,,,,,,,,,,,gelb,red,r,0.0,r,1.0,0.3675657999701798,,,,,,,,,,5.0,5.0,65.0,8.0,283.9219589999411,,,,,,,,,,,,,,,,,283.9072962999344,284.27185550006106,285.0723297998775,285.05625779996626,,,,,,,,,,,,,,,,,,,,,,,,,,,,,,,,,,,285.0603132999968,285.0723297998775,285.0723297998775,285.4565967998933,r,1.0,0.3675657999701798,,,,,,sub-223,1,stroop_test,59.916871355371605,
,,,,66.0,6.0,5.0,,,,,,,,,,,,,rot,red,r,1.0,r,1.0,0.4651410998776555,,,,,,,,,,5.0,6.0,66.0,1.0,285.4717681000475,,,,,,,,,,,,,,,,,285.4571217999328,285.57177320006303,286.37195389997214,286.3563528000377,,,,,,,,,,,,,,,,,,,,,,,,,,,,,,,,,,,286.36107570002787,286.37195389997214,286.37195389997214,286.84071139991283,r,1.0,0.4651410998776555,,,,,,sub-223,1,stroop_test,59.916871355371605,
,,,,67.0,7.0,5.0,,,,,,,,,,,,,gelb,yellow,g,1.0,g,1.0,0.5426208002027124,,,,,,,,,,5.0,7.0,67.0,11.0,286.8551630999428,,,,,,,,,,,,,,,,,286.8412091000937,288.05526769999415,288.8551272000186,288.8393931000028,,,,,,,,,,,,,,,,,,,,,,,,,,,,,,,,,,,288.8434438998811,288.8551272000186,288.8551272000186,289.406345800031,g,1.0,0.5426208002027124,,,,,,sub-223,1,stroop_test,59.916871355371605,
,,,,68.0,8.0,5.0,,,,,,,,,,,,,blau,blue,b,1.0,b,1.0,0.6613117998931557,,,,,,,,,,5.0,8.0,68.0,6.0,289.4216408999637,,,,,,,,,,,,,,,,,289.4068475998938,290.6216831000056,291.4215311999433,291.4057430999819,,,,,,,,,,,,,,,,,,,,,,,,,,,,,,,,,,,291.4102346000727,291.4215311999433,291.4215311999433,292.0899020000361,b,1.0,0.6613117998931557,,,,,,sub-223,1,stroop_test,59.916871355371605,
,,,,69.0,9.0,5.0,,,,,,,,,,,,,gelb,blue,b,0.0,b,1.0,0.474140599835664,,,,,,,,,,5.0,9.0,69.0,9.0,292.1048161999788,,,,,,,,,,,,,,,,,292.0904226000421,292.90498799993657,293.7047295998782,293.68893469986506,,,,,,,,,,,,,,,,,,,,,,,,,,,,,,,,,,,293.6929367000703,293.7047295998782,293.7047295998782,294.1901946000289,b,1.0,0.474140599835664,,,,,,sub-223,1,stroop_test,59.916871355371605,
,,,,70.0,10.0,5.0,,,,,,,,,,,,,blau,red,r,0.0,r,1.0,0.5189769000280648,,,,,,,,,,5.0,10.0,70.0,4.0,294.20504210004583,,,,,,,,,,,,,,,,,294.19069919991307,294.55478130001575,295.35475070006214,295.3393884999677,,,,,,,,,,,,,,,,,,,,,,,,,,,,,,,,,,,295.34410379990004,295.35475070006214,295.35475070006214,295.8892776998691,r,1.0,0.5189769000280648,,,,,,sub-223,1,stroop_test,59.916871355371605,
,,,,71.0,11.0,5.0,,,,,,,,,,,,,blau,blue,b,1.0,b,1.0,0.492322799982503,,,,,,,,,,5.0,11.0,71.0,5.0,295.9046102000866,,,,,,,,,,,,,,,,,295.88979470008053,297.1045343999285,297.90452750003897,297.8887761000078,,,,,,,,,,,,,,,,,,,,,,,,,,,,,,,,,,,297.88930949987844,297.90452750003897,297.90452750003897,298.4058232998941,b,1.0,0.492322799982503,,,,,,sub-223,1,stroop_test,59.916871355371605,
,,,,72.0,0.0,6.0,,,,,,,,,,,,,rot,blue,b,0.0,b,1.0,0.706874999916181,,,,,,,,,,6.0,0.0,72.0,2.0,298.4211341000628,,,,,,,,,,,,,,,,,298.4063329000492,298.5211559999734,299.3211364999879,299.3059976999648,,,,,,,,,,,,,,,,,,,,,,,,,,,,,,,,,,,299.31105830008164,299.3211364999879,299.3211364999879,300.0393844998908,b,1.0,0.706874999916181,,,,,,sub-223,1,stroop_test,59.916871355371605,
,,,,73.0,1.0,6.0,,,,,,,,,,,,,gelb,yellow,g,1.0,g,1.0,0.4393898998387158,,,,,,,,,,6.0,1.0,73.0,11.0,300.0544616000261,,,,,,,,,,,,,,,,,300.03986099991016,300.8543088999577,301.65446359990165,301.63896719994955,,,,,,,,,,,,,,,,,,,,,,,,,,,,,,,,,,,301.6438347999938,301.65446359990165,301.65446359990165,302.1060671999585,g,1.0,0.4393898998387158,,,,,,sub-223,1,stroop_test,59.916871355371605,
,,,,74.0,2.0,6.0,,,,,,,,,,,,,rot,red,r,1.0,r,1.0,0.4532733999658376,,,,,,,,,,6.0,2.0,74.0,0.0,302.1210846998729,,,,,,,,,,,,,,,,,302.10663400008343,302.2209989998955,303.02116829995066,303.005192700075,,,,,,,,,,,,,,,,,,,,,,,,,,,,,,,,,,,303.00957369990647,303.02116829995066,303.02116829995066,303.48927360004745,r,1.0,0.4532733999658376,,,,,,sub-223,1,stroop_test,59.916871355371605,
,,,,75.0,3.0,6.0,,,,,,,,,,,,,blau,yellow,g,0.0,g,1.0,0.9048486999236048,,,,,,,,,,6.0,3.0,75.0,7.0,303.5043049000669,,,,,,,,,,,,,,,,,303.48981529986486,303.8546788999811,304.6544878000859,304.63847070001066,,,,,,,,,,,,,,,,,,,,,,,,,,,,,,,,,,,304.6423029000871,304.6544878000859,304.6544878000859,305.5716194999404,g,1.0,0.9048486999236048,,,,,,sub-223,1,stroop_test,59.916871355371605,
,,,,76.0,4.0,6.0,,,,,,,,,,,,,blau,blue,b,1.0,b,1.0,0.592410100158304,,,,,,,,,,6.0,4.0,76.0,5.0,305.5873849999625,,,,,,,,,,,,,,,,,305.5718111998867,306.7708123999182,307.5707990999799,307.5552228000015,,,,,,,,,,,,,,,,,,,,,,,,,,,,,,,,,,,307.55553420004435,307.5707990999799,307.5707990999799,308.1717528998852,b,1.0,0.592410100158304,,,,,,sub-223,1,stroop_test,59.916871355371605,
,,,,77.0,5.0,6.0,,,,,,,,,,,,,blau,blue,b,1.0,b,1.0,0.4854298999998718,,,,,,,,,,6.0,5.0,77.0,6.0,308.1874510999769,,,,,,,,,,,,,,,,,308.1719649999868,309.37076449999586,310.17063609999605,310.15456529986113,,,,,,,,,,,,,,,,,,,,,,,,,,,,,,,,,,,310.15509860008024,310.17063609999605,310.17063609999605,310.6716696000658,b,1.0,0.4854298999998718,,,,,,sub-223,1,stroop_test,59.916871355371605,
,,,,78.0,6.0,6.0,,,,,,,,,,,,,gelb,yellow,g,1.0,g,1.0,0.6469415000174195,,,,,,,,,,6.0,6.0,78.0,10.0,310.6872175000608,,,,,,,,,,,,,,,,,310.67214610008523,311.0372832000721,311.837341999868,311.82147690001875,,,,,,,,,,,,,,,,,,,,,,,,,,,,,,,,,,,311.82565349992365,311.837341999868,311.837341999868,312.4888428000268,g,1.0,0.6469415000174195,,,,,,sub-223,1,stroop_test,59.916871355371605,
,,,,79.0,7.0,6.0,,,,,,,,,,,,,blau,red,r,0.0,r,1.0,0.2813110998831689,,,,,,,,,,6.0,7.0,79.0,4.0,312.5038840000052,,,,,,,,,,,,,,,,,312.48929479997605,313.30396809987724,314.1039072999265,314.08919400000013,,,,,,,,,,,,,,,,,,,,,,,,,,,,,,,,,,,314.0931545998901,314.1039072999265,314.1039072999265,314.3894372000359,r,1.0,0.2813110998831689,,,,,,sub-223,1,stroop_test,59.916871355371605,
,,,,80.0,8.0,6.0,,,,,,,,,,,,,rot,yellow,g,0.0,g,1.0,0.411835600156337,,,,,,,,,,6.0,8.0,80.0,3.0,314.40379499993287,,,,,,,,,,,,,,,,,314.3905050000176,314.7537831000518,315.5538232999388,315.53803499997593,,,,,,,,,,,,,,,,,,,,,,,,,,,,,,,,,,,315.54325339989737,315.5538232999388,315.5538232999388,315.97177230007946,g,1.0,0.411835600156337,,,,,,sub-223,1,stroop_test,59.916871355371605,
,,,,81.0,9.0,6.0,,,,,,,,,,,,,rot,red,r,1.0,r,1.0,0.5969418999738991,,,,,,,,,,6.0,9.0,81.0,1.0,315.9870654998813,,,,,,,,,,,,,,,,,315.9721947000362,316.0870916999411,316.88709510001354,316.87181110004894,,,,,,,,,,,,,,,,,,,,,,,,,,,,,,,,,,,316.87239809986204,316.88709510001354,316.88709510001354,317.48830060008913,r,1.0,0.5969418999738991,,,,,,sub-223,1,stroop_test,59.916871355371605,
,,,,82.0,10.0,6.0,,,,,,,,,,,,,gelb,blue,b,0.0,b,1.0,0.5087003998924047,,,,,,,,,,6.0,10.0,82.0,9.0,317.50361480005085,,,,,,,,,,,,,,,,,317.4887423999608,317.60386759997346,318.40370759996586,318.3881256999448,,,,,,,,,,,,,,,,,,,,,,,,,,,,,,,,,,,318.3918934999965,318.40370759996586,318.40370759996586,318.9221212998964,b,1.0,0.5087003998924047,,,,,,sub-223,1,stroop_test,59.916871355371605,
,,,,83.0,11.0,6.0,,,,,,,,,,,,,gelb,red,r,0.0,r,1.0,0.8720811000093818,,,,,,,,,,6.0,11.0,83.0,8.0,318.93703570007347,,,,,,,,,,,,,,,,,318.92258609994315,319.2870867000893,320.0870002999436,320.0717664998956,,,,,,,,,,,,,,,,,,,,,,,,,,,,,,,,,,,320.0723755999934,320.0870002999436,320.0870002999436,320.9719666000456,r,1.0,0.8720811000093818,,,,,,sub-223,1,stroop_test,59.916871355371605,
,,,,84.0,0.0,7.0,,,,,,,,,,,,,gelb,yellow,g,1.0,g,1.0,0.8110835000406951,,,,,,,,,,7.0,0.0,84.0,11.0,320.9868061000016,,,,,,,,,,,,,,,,,320.9724852000363,322.1867867000401,322.9867763998918,322.9708483000286,,,,,,,,,,,,,,,,,,,,,,,,,,,,,,,,,,,322.9714444000274,322.9867763998918,322.9867763998918,323.8055316999089,g,1.0,0.8110835000406951,,,,,,sub-223,1,stroop_test,59.916871355371605,
,,,,85.0,1.0,7.0,,,,,,,,,,,,,blau,yellow,g,0.0,g,1.0,0.6990757000166923,,,,,,,,,,7.0,1.0,85.0,7.0,323.8199779000133,,,,,,,,,,,,,,,,,323.80602109991014,325.0199206999969,325.81995590007864,325.80407539987937,,,,,,,,,,,,,,,,,,,,,,,,,,,,,,,,,,,325.8082586999517,325.81995590007864,325.81995590007864,326.5216357000172,g,1.0,0.6990757000166923,,,,,,sub-223,1,stroop_test,59.916871355371605,
,,,,86.0,2.0,7.0,,,,,,,,,,,,,blau,red,r,0.0,r,1.0,0.6370269998442382,,,,,,,,,,7.0,2.0,86.0,4.0,326.5364993000403,,,,,,,,,,,,,,,,,326.5221679999959,327.3366634999402,328.136810899945,328.1206972000655,,,,,,,,,,,,,,,,,,,,,,,,,,,,,,,,,,,328.1213112999685,328.136810899945,328.136810899945,328.7879329000134,r,1.0,0.6370269998442382,,,,,,sub-223,1,stroop_test,59.916871355371605,
,,,,87.0,3.0,7.0,,,,,,,,,,,,,rot,red,r,1.0,r,1.0,0.612423200160265,,,,,,,,,,7.0,3.0,87.0,1.0,328.80321779986843,,,,,,,,,,,,,,,,,328.78841189993545,329.60314649995416,330.4030112000182,330.38775720004924,,,,,,,,,,,,,,,,,,,,,,,,,,,,,,,,,,,330.39210200007074,330.4030112000182,330.4030112000182,331.02205629996024,r,1.0,0.612423200160265,,,,,,sub-223,1,stroop_test,59.916871355371605,
,,,,88.0,4.0,7.0,,,,,,,,,,,,,rot,red,r,1.0,r,1.0,0.5288962000049651,,,,,,,,,,7.0,4.0,88.0,0.0,331.03648160002194,,,,,,,,,,,,,,,,,331.0226902998984,331.3864623999689,332.1864773000125,332.17090229992755,,,,,,,,,,,,,,,,,,,,,,,,,,,,,,,,,,,332.1714860000648,332.1864773000125,332.1864773000125,332.72110580001026,r,1.0,0.5288962000049651,,,,,,sub-223,1,stroop_test,59.916871355371605,
,,,,89.0,5.0,7.0,,,,,,,,,,,,,rot,yellow,g,0.0,g,1.0,0.4784794999286532,,,,,,,,,,7.0,5.0,89.0,3.0,332.7363134000916,,,,,,,,,,,,,,,,,332.72163060004823,332.83650660002604,333.6361435998697,333.6207854000386,,,,,,,,,,,,,,,,,,,,,,,,,,,,,,,,,,,333.621460699942,333.6361435998697,333.6361435998697,334.12104679993354,g,1.0,0.4784794999286532,,,,,,sub-223,1,stroop_test,59.916871355371605,
,,,,90.0,6.0,7.0,,,,,,,,,,,,,gelb,red,r,0.0,r,1.0,0.5696169999428093,,,,,,,,,,7.0,6.0,90.0,8.0,334.13625340000726,,,,,,,,,,,,,,,,,334.12152160005644,335.33624530001543,336.1362405999098,336.12065809988417,,,,,,,,,,,,,,,,,,,,,,,,,,,,,,,,,,,336.12529870006256,336.1362405999098,336.1362405999098,336.72092029987834,r,1.0,0.5696169999428093,,,,,,sub-223,1,stroop_test,59.916871355371605,
,,,,91.0,7.0,7.0,,,,,,,,,,,,,blau,blue,b,1.0,b,1.0,0.5360856999177486,,,,,,,,,,7.0,7.0,91.0,5.0,336.7360346999485,,,,,,,,,,,,,,,,,336.72146099992096,336.8362545000855,337.63608259987086,337.6202422999777,,,,,,,,,,,,,,,,,,,,,,,,,,,,,,,,,,,337.6240459999535,337.63608259987086,337.63608259987086,338.1878325000871,b,1.0,0.5360856999177486,,,,,,sub-223,1,stroop_test,59.916871355371605,
,,,,92.0,8.0,7.0,,,,,,,,,,,,,gelb,blue,b,0.0,b,1.0,0.5602088999003172,,,,,,,,,,7.0,8.0,92.0,9.0,338.2026374998968,,,,,,,,,,,,,,,,,338.188348100055,339.40269270003773,340.20274839992635,340.1871879999526,,,,,,,,,,,,,,,,,,,,,,,,,,,,,,,,,,,340.1909769000485,340.20274839992635,340.20274839992635,340.770881799981,b,1.0,0.5602088999003172,,,,,,sub-223,1,stroop_test,59.916871355371605,
,,,,93.0,9.0,7.0,,,,,,,,,,,,,gelb,yellow,g,1.0,g,1.0,0.3335714000277221,,,,,,,,,,7.0,9.0,93.0,10.0,340.7858823998831,,,,,,,,,,,,,,,,,340.7715004000347,341.1358405998908,341.93603079998866,341.9203715000767,,,,,,,,,,,,,,,,,,,,,,,,,,,,,,,,,,,341.92104050004855,341.93603079998866,341.93603079998866,342.2718338998966,g,1.0,0.3335714000277221,,,,,,sub-223,1,stroop_test,59.916871355371605,
,,,,94.0,10.0,7.0,,,,,,,,,,,,,rot,blue,b,0.0,r,0.0,0.37015730002895,,,,,,,,,,7.0,10.0,94.0,2.0,342.2859740999993,,,,,,,,,,,,,,,,,342.27231690008193,343.48584700003266,344.2859034999274,344.27001539990306,,,,,,,,,,,,,,,,,,,,,,,,,,,,,,,,,,,344.27405050001107,344.2859034999274,344.2859034999274,344.67041249992326,r,0.0,0.37015730002895,,,,,,sub-223,1,stroop_test,59.916871355371605,
,,,,95.0,11.0,7.0,,,,,,,,,,,,,blau,blue,b,1.0,b,1.0,0.721042999997735,,,,,,,,,,7.0,11.0,95.0,6.0,344.6856921000872,,,,,,,,,,,,,,,,,344.67091089999303,345.0358323000837,345.83572189998813,345.82026729988866,,,,,,,,,,,,,,,,,,,,,,,,,,,,,,,,,,,345.8246200000867,345.83572189998813,345.83572189998813,346.5709301000461,b,1.0,0.721042999997735,,,,,,sub-223,1,stroop_test,59.916871355371605,
,,,,96.0,0.0,8.0,,,,,,,,,,,,,rot,red,r,1.0,r,1.0,0.5388954998925328,,,,,,,,,,8.0,0.0,96.0,0.0,346.5855908000376,,,,,,,,,,,,,,,,,346.57143809995614,346.93586239987053,347.7357337998692,347.7200847999193,,,,,,,,,,,,,,,,,,,,,,,,,,,,,,,,,,,347.7244577999227,347.7357337998692,347.7357337998692,348.28692919993773,r,1.0,0.5388954998925328,,,,,,sub-223,1,stroop_test,59.916871355371605,
,,,,97.0,1.0,8.0,,,,,,,,,,,,,gelb,red,r,0.0,r,1.0,0.549097100039944,,,,,,,,,,8.0,1.0,97.0,8.0,348.3021968998946,,,,,,,,,,,,,,,,,348.2874324999284,349.1023196999449,349.90239559998736,349.88685079989955,,,,,,,,,,,,,,,,,,,,,,,,,,,,,,,,,,,349.89404059993103,349.90239559998736,349.90239559998736,350.45473990007304,r,1.0,0.549097100039944,,,,,,sub-223,1,stroop_test,59.916871355371605,
,,,,98.0,2.0,8.0,,,,,,,,,,,,,rot,yellow,g,0.0,g,1.0,0.5273190999869257,,,,,,,,,,8.0,2.0,98.0,3.0,350.46897320006974,,,,,,,,,,,,,,,,,350.4552486999892,351.26887389994226,352.0687164000701,352.05312979989685,,,,,,,,,,,,,,,,,,,,,,,,,,,,,,,,,,,352.0571510998998,352.0687164000701,352.0687164000701,352.6037651000079,g,1.0,0.5273190999869257,,,,,,sub-223,1,stroop_test,59.916871355371605,
,,,,99.0,3.0,8.0,,,,,,,,,,,,,gelb,blue,b,0.0,b,1.0,0.7389018000103533,,,,,,,,,,8.0,3.0,99.0,9.0,352.6187467998825,,,,,,,,,,,,,,,,,352.6042760000564,352.96876459987834,353.7687774999067,353.75325639988296,,,,,,,,,,,,,,,,,,,,,,,,,,,,,,,,,,,353.7573679999914,353.7687774999067,353.7687774999067,354.52003640006296,b,1.0,0.7389018000103533,,,,,,sub-223,1,stroop_test,59.916871355371605,
,,,,100.0,4.0,8.0,,,,,,,,,,,,,blau,blue,b,1.0,b,1.0,0.581963999895379,,,,,,,,,,8.0,4.0,100.0,6.0,354.53534989990294,,,,,,,,,,,,,,,,,354.52051639999263,354.8852852000855,355.685209200019,355.66988419997506,,,,,,,,,,,,,,,,,,,,,,,,,,,,,,,,,,,355.67145209992304,355.685209200019,355.685209200019,356.2702422000002,b,1.0,0.581963999895379,,,,,,sub-223,1,stroop_test,59.916871355371605,
,,,,101.0,5.0,8.0,,,,,,,,,,,,,gelb,yellow,g,1.0,g,1.0,1.1328294000122696,,,,,,,,,,8.0,5.0,101.0,10.0,356.28527510003187,,,,,,,,,,,,,,,,,356.2707169998903,357.08530090004206,357.88511219993234,357.86930219992064,,,,,,,,,,,,,,,,,,,,,,,,,,,,,,,,,,,357.8733317998704,357.88511219993234,357.88511219993234,359.0210458000656,g,1.0,1.1328294000122696,,,,,,sub-223,1,stroop_test,59.916871355371605,
,,,,102.0,6.0,8.0,,,,,,,,,,,,,rot,red,r,1.0,r,1.0,0.5002886999864131,,,,,,,,,,8.0,6.0,102.0,1.0,359.0350325999316,,,,,,,,,,,,,,,,,359.02157530002296,359.38509980007075,360.1850495999679,360.16908919997513,,,,,,,,,,,,,,,,,,,,,,,,,,,,,,,,,,,360.172656300012,360.1850495999679,360.1850495999679,360.68770530004986,r,1.0,0.5002886999864131,,,,,,sub-223,1,stroop_test,59.916871355371605,
,,,,103.0,7.0,8.0,,,,,,,,,,,,,rot,blue,b,0.0,b,1.0,0.8984578000381589,,,,,,,,,,8.0,7.0,103.0,2.0,360.7019464999903,,,,,,,,,,,,,,,,,360.6881655000616,361.50162129988894,362.3016669000499,362.2859434999991,,,,,,,,,,,,,,,,,,,,,,,,,,,,,,,,,,,362.2865156999324,362.3016669000499,362.3016669000499,363.2045756999869,b,1.0,0.8984578000381589,,,,,,sub-223,1,stroop_test,59.916871355371605,
,,,,104.0,8.0,8.0,,,,,,,,,,,,,blau,red,r,0.0,r,1.0,1.2331616999581456,,,,,,,,,,8.0,8.0,104.0,4.0,363.21820629993454,,,,,,,,,,,,,,,,,363.2051373999566,364.4181433999911,365.2183483000845,365.2022037000861,,,,,,,,,,,,,,,,,,,,,,,,,,,,,,,,,,,365.2067301000934,365.2183483000845,365.2183483000845,366.45443399995565,r,1.0,1.2331616999581456,,,,,,sub-223,1,stroop_test,59.916871355371605,
,,,,105.0,9.0,8.0,,,,,,,,,,,,,blau,blue,b,1.0,b,1.0,0.5355179000180215,,,,,,,,,,8.0,9.0,105.0,5.0,366.4680846000556,,,,,,,,,,,,,,,,,366.4549207999371,367.6680212998763,368.4679646000732,368.4526583000552,,,,,,,,,,,,,,,,,,,,,,,,,,,,,,,,,,,368.4536248999648,368.4679646000732,368.4679646000732,369.0193129000254,b,1.0,0.5355179000180215,,,,,,sub-223,1,stroop_test,59.916871355371605,
,,,,106.0,10.0,8.0,,,,,,,,,,,,,blau,yellow,g,0.0,g,1.0,0.7437325001228601,,,,,,,,,,8.0,10.0,106.0,7.0,369.0345514998771,,,,,,,,,,,,,,,,,369.020091699902,370.2346075999085,371.0344905999955,371.0187381999567,,,,,,,,,,,,,,,,,,,,,,,,,,,,,,,,,,,371.01935279998,371.0344905999955,371.0344905999955,371.7861653000582,g,1.0,0.7437325001228601,,,,,,sub-223,1,stroop_test,59.916871355371605,
,,,,107.0,11.0,8.0,,,,,,,,,,,,,gelb,yellow,g,1.0,g,1.0,0.4700346000026911,,,,,,,,,,8.0,11.0,107.0,11.0,371.8011894999072,,,,,,,,,,,,,,,,,371.7866849999409,372.1511802000459,372.9511283999309,372.9358810998965,,,,,,,,,,,,,,,,,,,,,,,,,,,,,,,,,,,372.9404601000715,372.9511283999309,372.9511283999309,373.43576800008304,g,1.0,0.4700346000026911,,,,,,sub-223,1,stroop_test,59.916871355371605,
,,,,108.0,0.0,9.0,,,,,,,,,,,,,blau,blue,b,1.0,b,1.0,0.5865482001099735,,,,,,,,,,9.0,0.0,108.0,5.0,373.4511688000057,,,,,,,,,,,,,,,,,373.436289699981,374.6510073998943,375.451117800083,375.43507999996655,,,,,,,,,,,,,,,,,,,,,,,,,,,,,,,,,,,375.43949749995954,375.451117800083,375.451117800083,376.0525881999638,b,1.0,0.5865482001099735,,,,,,sub-223,1,stroop_test,59.916871355371605,
,,,,109.0,1.0,9.0,,,,,,,,,,,,,blau,yellow,g,0.0,g,1.0,0.5277303999755532,,,,,,,,,,9.0,1.0,109.0,7.0,376.0675564999692,,,,,,,,,,,,,,,,,376.0530657998752,376.1677866000682,376.96784509997815,376.9520562998951,,,,,,,,,,,,,,,,,,,,,,,,,,,,,,,,,,,376.9526368000079,376.96784509997815,376.96784509997815,377.502132399939,g,1.0,0.5277303999755532,,,,,,sub-223,1,stroop_test,59.916871355371605,
,,,,110.0,2.0,9.0,,,,,,,,,,,,,rot,red,r,1.0,r,1.0,0.4411704000085592,,,,,,,,,,9.0,2.0,110.0,1.0,377.517555099912,,,,,,,,,,,,,,,,,377.502633899916,377.6177121000365,378.4176062999759,378.4015979999676,,,,,,,,,,,,,,,,,,,,,,,,,,,,,,,,,,,378.40526310005225,378.4176062999759,378.4176062999759,378.8688878999092,r,1.0,0.4411704000085592,,,,,,sub-223,1,stroop_test,59.916871355371605,
,,,,111.0,3.0,9.0,,,,,,,,,,,,,rot,blue,b,0.0,b,1.0,0.452662399969995,,,,,,,,,,9.0,3.0,111.0,2.0,378.8840568000451,,,,,,,,,,,,,,,,,378.8693750000093,379.6840439999942,380.4840639000759,380.4683310000692,,,,,,,,,,,,,,,,,,,,,,,,,,,,,,,,,,,380.4689752999693,380.4840639000759,380.4840639000759,380.9523428999819,b,1.0,0.452662399969995,,,,,,sub-223,1,stroop_test,59.916871355371605,
,,,,112.0,4.0,9.0,,,,,,,,,,,,,blau,red,r,0.0,r,1.0,0.5806208997964859,,,,,,,,,,9.0,4.0,112.0,4.0,380.96740909991786,,,,,,,,,,,,,,,,,380.952841399936,382.1673024999909,382.9673232000787,382.9518305999227,,,,,,,,,,,,,,,,,,,,,,,,,,,,,,,,,,,382.9560207000468,382.9673232000787,382.9673232000787,383.5522189999465,r,1.0,0.5806208997964859,,,,,,sub-223,1,stroop_test,59.916871355371605,
,,,,113.0,5.0,9.0,,,,,,,,,,,,,gelb,blue,b,0.0,b,1.0,0.41542649990879,,,,,,,,,,9.0,5.0,113.0,9.0,383.5672074998729,,,,,,,,,,,,,,,,,383.5526876000222,384.7672734998632,385.5673672999256,385.551519599976,,,,,,,,,,,,,,,,,,,,,,,,,,,,,,,,,,,385.5565605999436,385.5673672999256,385.5673672999256,385.9859112000559,b,1.0,0.41542649990879,,,,,,sub-223,1,stroop_test,59.916871355371605,
,,,,114.0,6.0,9.0,,,,,,,,,,,,,rot,red,r,1.0,r,1.0,0.6627615001052618,,,,,,,,,,9.0,6.0,114.0,0.0,386.00047129997984,,,,,,,,,,,,,,,,,385.9863827000372,387.2004189998843,388.0004308000207,387.9845960999373,,,,,,,,,,,,,,,,,,,,,,,,,,,,,,,,,,,387.9883965998888,388.0004308000207,388.0004308000207,388.6689929000568,r,1.0,0.6627615001052618,,,,,,sub-223,1,stroop_test,59.916871355371605,
,,,,115.0,7.0,9.0,,,,,,,,,,,,,gelb,red,r,0.0,r,1.0,0.4181405000854283,,,,,,,,,,9.0,7.0,115.0,8.0,388.68367039994337,,,,,,,,,,,,,,,,,388.66950519988313,389.8837528000586,390.6838406000752,390.6679207999259,,,,,,,,,,,,,,,,,,,,,,,,,,,,,,,,,,,390.6716646000277,390.6838406000752,390.6838406000752,391.1182488000486,r,1.0,0.4181405000854283,,,,,,sub-223,1,stroop_test,59.916871355371605,
,,,,116.0,8.0,9.0,,,,,,,,,,,,,rot,yellow,g,0.0,g,1.0,0.3464277999009937,,,,,,,,,,9.0,8.0,116.0,3.0,391.1335773998872,,,,,,,,,,,,,,,,,391.11866099992767,391.9337430000305,392.73350009997375,392.71773119992577,,,,,,,,,,,,,,,,,,,,,,,,,,,,,,,,,,,392.7219215000514,392.73350009997375,392.73350009997375,393.08540780004114,g,1.0,0.3464277999009937,,,,,,sub-223,1,stroop_test,59.916871355371605,
,,,,117.0,9.0,9.0,,,,,,,,,,,,,gelb,yellow,g,1.0,g,1.0,0.5005751999560744,,,,,,,,,,9.0,9.0,117.0,10.0,393.10010470007546,,,,,,,,,,,,,,,,,393.0859417999163,393.9003139999695,394.7003206999507,394.6844832000788,,,,,,,,,,,,,,,,,,,,,,,,,,,,,,,,,,,394.6882529000286,394.7003206999507,394.7003206999507,395.218267200049,g,1.0,0.5005751999560744,,,,,,sub-223,1,stroop_test,59.916871355371605,
,,,,118.0,10.0,9.0,,,,,,,,,,,,,blau,blue,b,1.0,b,1.0,0.483564900001511,,,,,,,,,,9.0,10.0,118.0,6.0,395.2333400000352,,,,,,,,,,,,,,,,,395.2188363000751,396.0334934000857,396.8340636999346,396.8178425000515,,,,,,,,,,,,,,,,,,,,,,,,,,,,,,,,,,,396.8218427998945,396.8340636999346,396.8340636999346,397.3344489999581,b,1.0,0.483564900001511,,,,,,sub-223,1,stroop_test,59.916871355371605,
,,,,119.0,11.0,9.0,,,,,,,,,,,,,gelb,yellow,g,1.0,g,1.0,0.5173448999412358,,,,,,,,,,9.0,11.0,119.0,11.0,397.3499519000761,,,,,,,,,,,,,,,,,397.33495060005225,397.6833375999704,398.48335179989226,398.46806259988807,,,,,,,,,,,,,,,,,,,,,,,,,,,,,,,,,,,398.47297069989145,398.48335179989226,398.48335179989226,399.01757819997147,g,1.0,0.5173448999412358,,,,,,sub-223,1,stroop_test,59.916871355371605,
,,,,,,,,,,,,,,,,,,,,,,,,,,,,,,,,,,,,,,,,,,,,,,,,,,,,,,,,,,,,,,,,,,,,,,,,,,,,,,,,,,,,,,,,,,,,,,,,,,,,,,399.0177825000137,399.0333871999756,404.03294870001264,404.0175258999225,sub-223,1,stroop_test,59.916871355371605,
