wordCTK,colorCTK,corrAnsCTK,congruentCTK,thisN,thisTrialN,thisRepN,keyResp_CTK.keys,keyResp_CTK.corr,keyResp_CTK.rt,keyResp_CTK.duration,wordPractice,colorPractice,corrAnsPractice,congruentPractice,respPractice.keys,respPractice.corr,respPractice.rt,respPractice.duration,word,color,corrAns,congruent,keyResp_test_run.keys,keyResp_test_run.corr,keyResp_test_run.rt,keyResp_test_run.duration,trials_CTK.thisRepN,trials_CTK.thisTrialN,trials_CTK.thisN,trials_CTK.thisIndex,trials_practice.thisRepN,trials_practice.thisTrialN,trials_practice.thisN,trials_practice.thisIndex,trials_test.thisRepN,trials_test.thisTrialN,trials_test.thisN,trials_test.thisIndex,thisRow.t,notes,instruction.started,instr_text.started,instr_image.started,instr_resp.started,instruction.stopped,instr_resp.keys,instr_resp.rt,instr_resp.duration,instr_color_to_key.started,instr_ctk.started,resp_ctk.started,instr_color_to_key.stopped,resp_ctk.keys,resp_ctk.rt,resp_ctk.duration,ITI.started,fixcross.started,fixcross.stopped,ITI.stopped,color_to_key_run.started,stimulus_CTK.started,keyResp_CTK.started,color_to_key_run.stopped,trials_CTK.keyResp_CTK.keys,trials_CTK.keyResp_CTK.corr,trials_CTK.keyResp_CTK.rt,trials_CTK.keyResp_CTK.duration,instr_practice.started,instr_practice_text.started,instr_practice_resp.started,instr_practice.stopped,instr_practice_resp.keys,instr_practice_resp.rt,instr_practice_resp.duration,practice_run.started,stimulus_practice.started,respPractice.started,practice_run.stopped,trials_practice.respPractice.keys,trials_practice.respPractice.corr,trials_practice.respPractice.rt,trials_practice.respPractice.duration,feedback.started,textFeedback.started,feedback.stopped,textFeedback.stopped,instr_test.started,instr_test_text.started,instr_test_resp.started,instr_test.stopped,instr_test_resp.keys,instr_test_resp.rt,instr_test_resp.duration,test_run.started,stimulus_test_run.started,keyResp_test_run.started,test_run.stopped,trials_test.keyResp_test_run.keys,trials_test.keyResp_test_run.corr,trials_test.keyResp_test_run.rt,trials_test.keyResp_test_run.duration,goodbye.started,textGoodbye.started,textGoodbye.stopped,goodbye.stopped,participant,session,expName,frameRate,Unnamed: 113
,,,,,,,,,,,,,,,,,,,,,,,,,,,,,,,,,,,,,,,,,0.002549200085923,0.0223594999406486,0.0223594999406486,0.0223594999406486,45.65988179994747,space,45.54432419990189,,,,,,,,,,,,,,,,,,,,,,,,,,,,,,,,,,,,,,,,,,,,,,,,,,,,,,,,,,,sub-224,1,stroop_test,60.20958964945675,
,,,,,,,,,,,,,,,,,,,,,,,,,,,,,,,,,,,,,,,,,,,,,,,,,45.65999000007287,45.66715270001441,45.66715270001441,48.35189950000495,space,2.6805477999150757,,,,,,,,,,,,,,,,,,,,,,,,,,,,,,,,,,,,,,,,,,,,,,,,,,,,sub-224,1,stroop_test,60.20958964945675,
test,blue,b,1.0,0.0,0.0,0.0,b,1.0,1.292525599943474,,,,,,,,,,,,,,,,,,0.0,0.0,0.0,2.0,,,,,,,,,48.38274569995701,,,,,,,,,,,,,,,,,48.37862309999764,48.716819500084966,49.51645929994993,49.500736200017855,49.51176539994776,49.51645929994993,49.51645929994993,50.81816709996201,b,1.0,1.292525599943474,,,,,,,,,,,,,,,,,,,,,,,,,,,,,,,,,,,,,,,,sub-224,1,stroop_test,60.20958964945675,
test,red,r,1.0,1.0,1.0,0.0,r,1.0,1.1557986999396237,,,,,,,,,,,,,,,,,,0.0,1.0,1.0,0.0,,,,,,,,,50.83278420008719,,,,,,,,,,,,,,,,,50.818651099922135,50.93351499992423,51.73256910010241,51.71688849991188,51.71772850002162,51.73256910010241,51.73256910010241,52.90173700009473,r,1.0,1.1557986999396237,,,,,,,,,,,,,,,,,,,,,,,,,,,,,,,,,,,,,,,,sub-224,1,stroop_test,60.20958964945675,
test,yellow,g,1.0,2.0,2.0,0.0,g,1.0,1.8970909998752177,,,,,,,,,,,,,,,,,,0.0,2.0,2.0,1.0,,,,,,,,,52.91650900011882,,,,,,,,,,,,,,,,,52.90219129994512,53.71580159990117,54.5167145000305,54.50070740003139,54.501523199956864,54.5167145000305,54.5167145000305,56.41825200011954,g,1.0,1.8970909998752177,,,,,,,,,,,,,,,,,,,,,,,,,,,,,,,,,,,,,,,,sub-224,1,stroop_test,60.20958964945675,
test,blue,b,1.0,3.0,0.0,1.0,b,1.0,0.453501199837774,,,,,,,,,,,,,,,,,,1.0,0.0,3.0,2.0,,,,,,,,,56.432771400082856,,,,,,,,,,,,,,,,,56.41875010007061,57.23275319999084,58.03248900012113,58.01757710007951,58.01839810004458,58.03248900012113,58.03248900012113,58.501875299960375,b,1.0,0.453501199837774,,,,,,,,,,,,,,,,,,,,,,,,,,,,,,,,,,,,,,,,sub-224,1,stroop_test,60.20958964945675,
test,red,r,1.0,4.0,1.0,1.0,r,1.0,1.3894791000057012,,,,,,,,,,,,,,,,,,1.0,1.0,4.0,0.0,,,,,,,,,58.51581169990823,,,,,,,,,,,,,,,,,58.50241490011104,59.3157478000503,60.115466699935496,60.0998690999113,60.100682500051335,60.115466699935496,60.115466699935496,61.51888650003821,r,1.0,1.3894791000057012,,,,,,,,,,,,,,,,,,,,,,,,,,,,,,,,,,,,,,,,sub-224,1,stroop_test,60.20958964945675,
test,yellow,g,1.0,5.0,2.0,1.0,g,1.0,0.4055747999809682,,,,,,,,,,,,,,,,,,1.0,2.0,5.0,1.0,,,,,,,,,61.5322138001211,,,,,,,,,,,,,,,,,61.51949229999445,62.73256399994716,63.53285580012016,63.51769359991886,63.5187613000162,63.53285580012016,63.53285580012016,63.951279799919575,g,1.0,0.4055747999809682,,,,,,,,,,,,,,,,,,,,,,,,,,,,,,,,,,,,,,,,sub-224,1,stroop_test,60.20958964945675,
test,yellow,g,1.0,6.0,0.0,2.0,g,1.0,0.7467343998141587,,,,,,,,,,,,,,,,,,2.0,0.0,6.0,1.0,,,,,,,,,63.96649289992638,,,,,,,,,,,,,,,,,63.951809799997136,64.7655601000879,65.5655376999639,65.55075010005385,65.5515360001009,65.5655376999639,65.5655376999639,66.31757070007734,g,1.0,0.7467343998141587,,,,,,,,,,,,,,,,,,,,,,,,,,,,,,,,,,,,,,,,sub-224,1,stroop_test,60.20958964945675,
test,red,r,1.0,7.0,1.0,2.0,r,1.0,0.54542600014247,,,,,,,,,,,,,,,,,,2.0,1.0,7.0,0.0,,,,,,,,,66.33226009993814,,,,,,,,,,,,,,,,,66.31797920004465,66.43190270010382,67.23253899998963,67.21694039995782,67.21775300009176,67.23253899998963,67.23253899998963,67.78449620003812,r,1.0,0.54542600014247,,,,,,,,,,,,,,,,,,,,,,,,,,,,,,,,,,,,,,,,sub-224,1,stroop_test,60.20958964945675,
test,blue,b,1.0,8.0,2.0,2.0,b,1.0,0.4261640000622719,,,,,,,,,,,,,,,,,,2.0,2.0,8.0,2.0,,,,,,,,,67.79903950006701,,,,,,,,,,,,,,,,,67.78503430006094,68.59898349992,69.39878279995173,69.38377399998717,69.38448909996077,69.39878279995173,69.39878279995173,69.83474120008759,b,1.0,0.4261640000622719,,,,,,,,,,,,,,,,,,,,,,,,,,,,,,,,,,,,,,,,sub-224,1,stroop_test,60.20958964945675,
test,blue,b,1.0,9.0,0.0,3.0,b,1.0,0.5459197999443859,,,,,,,,,,,,,,,,,,3.0,0.0,9.0,2.0,,,,,,,,,69.84912370005623,,,,,,,,,,,,,,,,,69.83529759990051,70.64875739999115,71.44831699994393,71.43408480007201,71.43501559994183,71.44831699994393,71.44831699994393,72.00383329996839,b,1.0,0.5459197999443859,,,,,,,,,,,,,,,,,,,,,,,,,,,,,,,,,,,,,,,,sub-224,1,stroop_test,60.20958964945675,
test,red,r,1.0,10.0,1.0,3.0,r,1.0,0.864413799950853,,,,,,,,,,,,,,,,,,3.0,1.0,10.0,0.0,,,,,,,,,72.01542280009016,,,,,,,,,,,,,,,,,72.0047514999751,72.36531509994529,73.16541170002893,73.15061450004578,73.15143109997734,73.16541170002893,73.16541170002893,74.03421660000458,r,1.0,0.864413799950853,,,,,,,,,,,,,,,,,,,,,,,,,,,,,,,,,,,,,,,,sub-224,1,stroop_test,60.20958964945675,
test,yellow,g,1.0,11.0,2.0,3.0,g,1.0,0.4415253999177366,,,,,,,,,,,,,,,,,,3.0,2.0,11.0,1.0,,,,,,,,,74.04839099990204,,,,,,,,,,,,,,,,,74.03471449995413,74.39873689995147,75.19888080004603,75.18371389992535,75.18453390011564,75.19888080004603,75.19888080004603,75.65098890010267,g,1.0,0.4415253999177366,,,,,,,,,,,,,,,,,,,,,,,,,,,,,,,,,,,,,,,,sub-224,1,stroop_test,60.20958964945675,
,,,,,,,,,,,,,,,,,,,,,,,,,,,,,,,,,,,,,,,,,,,,,,,,,,,,,,,,,,,,,,,,,,,,75.65123050007969,75.66557199996896,75.66557199996896,82.86741359997541,space,7.192639700137079,,,,,,,,,,,,,,,,,,,,,,,,,,,,,,,,,sub-224,1,stroop_test,60.20958964945675,
,,,,0.0,0.0,0.0,,,,,rot,yellow,g,0.0,g,1.0,2.3332331001292914,,,,,,,,,,,,,,0.0,0.0,0.0,3.0,,,,,82.88558680005372,,,,,,,,,,,,,,,,,82.88176400004886,82.98186860000715,83.78201439999975,83.76677009998821,,,,,,,,,,,,,,,,83.77694200002588,83.78201439999975,83.78201439999975,86.12058710004203,g,1.0,2.3332331001292914,,86.14026780007407,86.1469898999203,87.1323569000233,,,,,,,,,,,,,,,,,,,,,sub-224,1,stroop_test,60.20958964945675,
,,,,1.0,1.0,0.0,,,,,gelb,red,r,0.0,r,1.0,2.4725675999652594,,,,,,,,,,,,,,0.0,1.0,1.0,8.0,,,,,87.14816970005631,,,,,,,,,,,,,,,,,87.13311840011738,87.9316052000504,88.73100199992768,88.71640680008568,,,,,,,,,,,,,,,,88.72371970000677,88.73100199992768,88.73100199992768,91.21642370009796,r,1.0,2.4725675999652594,,91.21730930008924,91.23126480006611,92.21572620002551,92.23096200008877,,,,,,,,,,,,,,,,,,,,sub-224,1,stroop_test,60.20958964945675,
,,,,2.0,2.0,0.0,,,,,blau,yellow,g,0.0,g,1.0,2.2662135001737624,,,,,,,,,,,,,,0.0,2.0,2.0,7.0,,,,,92.23096200008877,,,,,,,,,,,,,,,,,92.21623459993862,92.33093230007216,93.13197200000286,93.1159574999474,,,,,,,,,,,,,,,,93.12587510002776,93.13197200000286,93.13197200000286,95.40162670006976,g,1.0,2.2662135001737624,,95.4023937000893,95.41439180006272,96.39947120007128,96.41407510009594,,,,,,,,,,,,,,,,,,,,sub-224,1,stroop_test,60.20958964945675,
,,,,3.0,3.0,0.0,,,,,blau,blue,b,1.0,b,1.0,1.5867868000641463,,,,,,,,,,,,,,0.0,3.0,3.0,5.0,,,,,96.41407510009594,,,,,,,,,,,,,,,,,96.39999999990688,96.76401069993152,97.5642009000294,97.55050559993832,,,,,,,,,,,,,,,,97.55181040009484,97.5642009000294,97.5642009000294,99.16633190005086,b,1.0,1.5867868000641463,,99.16724340012296,99.1809026999399,100.16570309991948,100.18053409992716,,,,,,,,,,,,,,,,,,,,sub-224,1,stroop_test,60.20958964945675,
,,,,4.0,4.0,0.0,,,,,gelb,yellow,g,1.0,g,1.0,1.131430400069803,,,,,,,,,,,,,,0.0,4.0,4.0,11.0,,,,,100.18053409992716,,,,,,,,,,,,,,,,,100.16622969997115,100.28088250011206,101.0808643999044,101.06551479990594,,,,,,,,,,,,,,,,101.07049870002083,101.0808643999044,101.0808643999044,102.21704929997212,g,1.0,1.131430400069803,,102.21782099991104,102.23042259993964,103.21466180006972,103.23023080010898,,,,,,,,,,,,,,,,,,,,sub-224,1,stroop_test,60.20958964945675,
,,,,5.0,5.0,0.0,,,,,rot,red,r,1.0,r,1.0,0.7693411000072956,,,,,,,,,,,,,,0.0,5.0,5.0,0.0,,,,,103.23023080010898,,,,,,,,,,,,,,,,,103.21534270001575,103.33098440011965,104.13034770009108,104.115630999906,,,,,,,,,,,,,,,,104.12043939996512,104.13034770009108,104.13034770009108,104.91566270007752,r,1.0,0.7693411000072956,,104.91652540001088,104.93053049989976,105.91490580001846,105.93032560008578,,,,,,,,,,,,,,,,,,,,sub-224,1,stroop_test,60.20958964945675,
,,,,6.0,6.0,0.0,,,,,rot,red,r,1.0,r,1.0,0.865177399944514,,,,,,,,,,,,,,0.0,6.0,6.0,1.0,,,,,105.93032560008578,,,,,,,,,,,,,,,,,105.91531589999796,106.03064420004377,106.83066720003262,106.81502040009946,,,,,,,,,,,,,,,,106.8158342000097,106.83066720003262,106.83066720003262,107.6996846999973,r,1.0,0.865177399944514,,107.70061279996298,107.71351790009066,108.69873400009236,108.71370390010998,,,,,,,,,,,,,,,,,,,,sub-224,1,stroop_test,60.20958964945675,
,,,,7.0,7.0,0.0,,,,,rot,blue,b,0.0,b,1.0,1.4140818000305444,,,,,,,,,,,,,,0.0,7.0,7.0,2.0,,,,,108.71370390010998,,,,,,,,,,,,,,,,,108.69931069994344,109.91385819995776,110.71349649992771,110.69853459997104,,,,,,,,,,,,,,,,110.69938199990428,110.71349649992771,110.71349649992771,112.13208490004764,b,1.0,1.4140818000305444,,112.13295280002058,112.14707210008056,113.1316688999068,113.14685950009152,,,,,,,,,,,,,,,,,,,,sub-224,1,stroop_test,60.20958964945675,
,,,,8.0,8.0,0.0,,,,,blau,red,r,0.0,r,1.0,1.2989926000591367,,,,,,,,,,,,,,0.0,8.0,8.0,4.0,,,,,113.14685950009152,,,,,,,,,,,,,,,,,113.13219380006194,113.49652980011888,114.29689490003511,114.28161290008576,,,,,,,,,,,,,,,,114.28590420004912,114.29689490003511,114.29689490003511,115.60006650001742,r,1.0,1.2989926000591367,,115.60092979995534,115.61362960003316,116.59807560010812,116.61346630007029,,,,,,,,,,,,,,,,,,,,sub-224,1,stroop_test,60.20958964945675,
,,,,9.0,9.0,0.0,,,,,gelb,yellow,g,1.0,g,1.0,0.7356670999433845,,,,,,,,,,,,,,0.0,9.0,9.0,10.0,,,,,116.61346630007029,,,,,,,,,,,,,,,,,116.5985811999999,116.7132985999342,117.5171070001088,117.50036370009184,,,,,,,,,,,,,,,,117.50834619998932,117.5171070001088,117.5171070001088,118.26573020010257,g,1.0,0.7356670999433845,,118.26647559995764,118.27979709999636,119.26473270007408,119.280025199987,,,,,,,,,,,,,,,,,,,,sub-224,1,stroop_test,60.20958964945675,
,,,,10.0,10.0,0.0,,,,,blau,blue,b,1.0,b,1.0,0.5412337998859584,,,,,,,,,,,,,,0.0,10.0,10.0,6.0,,,,,119.280025199987,,,,,,,,,,,,,,,,,119.26528530009092,120.47958449996077,121.27942769997752,121.26441509998403,,,,,,,,,,,,,,,,121.26884340005928,121.27942769997752,121.27942769997752,121.8321829000488,b,1.0,0.5412337998859584,,121.8329270000104,121.8465712000616,122.83114210003988,122.84617469995284,,,,,,,,,,,,,,,,,,,,sub-224,1,stroop_test,60.20958964945675,
,,,,11.0,11.0,0.0,,,,,gelb,blue,b,0.0,b,1.0,0.7321351999416947,,,,,,,,,,,,,,0.0,11.0,11.0,9.0,,,,,122.84617469995284,,,,,,,,,,,,,,,,,122.8316424000077,122.94584119995125,123.74594349996188,123.7312765000388,,,,,,,,,,,,,,,,123.73633529990911,123.74594349996188,123.74594349996188,124.4818162000738,b,1.0,0.7321351999416947,,124.48277179989964,124.49589599994944,125.4814073999878,125.49608010007069,,,,,,,,,,,,,,,,,,,,sub-224,1,stroop_test,60.20958964945675,
,,,,12.0,0.0,1.0,,,,,gelb,yellow,g,1.0,g,1.0,1.7245785999111831,,,,,,,,,,,,,,1.0,0.0,12.0,11.0,,,,,125.49608010007069,,,,,,,,,,,,,,,,,125.48193180002272,125.59624120010994,126.3964422000572,126.38202379993164,,,,,,,,,,,,,,,,126.38313170010224,126.3964422000572,126.3964422000572,128.1318300999701,g,1.0,1.7245785999111831,,128.13265060004778,128.14589149993844,129.131106399931,129.14605420012958,,,,,,,,,,,,,,,,,,,,sub-224,1,stroop_test,60.20958964945675,
,,,,13.0,1.0,1.0,,,,,gelb,yellow,g,1.0,g,1.0,0.8668690999038517,,,,,,,,,,,,,,1.0,1.0,13.0,10.0,,,,,129.14605420012958,,,,,,,,,,,,,,,,,129.13164189993404,129.24644210003316,130.04598570009694,130.0311344000511,,,,,,,,,,,,,,,,130.03272429993376,130.04598570009694,130.04598570009694,130.91626440011896,g,1.0,0.8668690999038517,,130.91707250010222,130.92868870007806,131.91461280011572,131.92902939999476,,,,,,,,,,,,,,,,,,,,sub-224,1,stroop_test,60.20958964945675,
,,,,14.0,2.0,1.0,,,,,gelb,red,r,0.0,r,1.0,1.1694557000882924,,,,,,,,,,,,,,1.0,2.0,14.0,8.0,,,,,131.92902939999476,,,,,,,,,,,,,,,,,131.91525229997933,132.72905980003998,133.52888719993643,133.51343869999982,,,,,,,,,,,,,,,,133.51430979999714,133.52888719993643,133.52888719993643,134.7147500999272,r,1.0,1.1694557000882924,,134.71579549997114,134.72925650002435,135.71299370005727,135.72863920009695,,,,,,,,,,,,,,,,,,,,sub-224,1,stroop_test,60.20958964945675,
,,,,15.0,3.0,1.0,,,,,blau,yellow,g,0.0,g,1.0,1.4247467000968754,,,,,,,,,,,,,,1.0,3.0,15.0,7.0,,,,,135.72863920009695,,,,,,,,,,,,,,,,,135.71343720005825,136.5289674999658,137.32870110007934,137.3139810001012,,,,,,,,,,,,,,,,137.31901489989832,137.32870110007934,137.32870110007934,138.7638195999898,g,1.0,1.4247467000968754,,138.7646349000279,138.77838220004924,139.76339820004068,139.77868609991856,,,,,,,,,,,,,,,,,,,,sub-224,1,stroop_test,60.20958964945675,
,,,,16.0,4.0,1.0,,,,,rot,blue,b,0.0,b,1.0,1.497106899973005,,,,,,,,,,,,,,1.0,4.0,16.0,2.0,,,,,139.77868609991856,,,,,,,,,,,,,,,,,139.7638507001102,140.97887210012414,141.77883310010657,141.762794499984,,,,,,,,,,,,,,,,141.7672079000622,141.77883310010657,141.77883310010657,143.2808926999569,b,1.0,1.497106899973005,,143.28182610007934,143.295075800037,144.27962299995124,144.29519440000877,,,,,,,,,,,,,,,,,,,,sub-224,1,stroop_test,60.20958964945675,
,,,,17.0,5.0,1.0,,,,,blau,blue,b,1.0,b,1.0,0.6907758999150246,,,,,,,,,,,,,,1.0,5.0,17.0,5.0,,,,,144.29519440000877,,,,,,,,,,,,,,,,,144.280057300115,145.49510170007125,146.29523400007747,146.28035959997214,,,,,,,,,,,,,,,,146.28485579998232,146.29523400007747,146.29523400007747,146.99757040012628,b,1.0,0.6907758999150246,,146.99844190012664,147.01163169997744,147.99646329996176,148.01193160004914,,,,,,,,,,,,,,,,,,,,sub-224,1,stroop_test,60.20958964945675,
,,,,18.0,6.0,1.0,,,,,rot,red,r,1.0,r,1.0,1.0992381998803469,,,,,,,,,,,,,,1.0,6.0,18.0,0.0,,,,,148.01193160004914,,,,,,,,,,,,,,,,,147.99691250012256,148.81187579990365,149.61158029991202,149.5967516999226,,,,,,,,,,,,,,,,149.60186000005342,149.61158029991202,149.61158029991202,150.7142898000311,r,1.0,1.0992381998803469,,150.71513619995676,150.72815759992227,151.71502740005965,151.72844509989957,,,,,,,,,,,,,,,,,,,,sub-224,1,stroop_test,60.20958964945675,
,,,,19.0,7.0,1.0,,,,,blau,red,r,0.0,r,1.0,1.652764700120315,,,,,,,,,,,,,,1.0,7.0,19.0,4.0,,,,,151.72844509989957,,,,,,,,,,,,,,,,,151.71677609998733,152.92835310008377,153.7287493001204,153.7133663999848,,,,,,,,,,,,,,,,153.71830850001425,153.7287493001204,153.7287493001204,155.39701370010152,r,1.0,1.652764700120315,,155.39796760003082,155.41162959998474,156.3957746999804,156.4109817999415,,,,,,,,,,,,,,,,,,,,sub-224,1,stroop_test,60.20958964945675,
,,,,20.0,8.0,1.0,,,,,gelb,blue,b,0.0,b,1.0,0.8996429000981152,,,,,,,,,,,,,,1.0,8.0,20.0,9.0,,,,,156.4109817999415,,,,,,,,,,,,,,,,,156.3963425999973,156.5111615001224,157.31143780006096,157.29616450006142,,,,,,,,,,,,,,,,157.30109669989906,157.31143780006096,157.31143780006096,158.21493340004236,b,1.0,0.8996429000981152,,158.21569099999033,158.2279245001264,159.21392050012946,159.22817860008217,,,,,,,,,,,,,,,,,,,,sub-224,1,stroop_test,60.20958964945675,
,,,,21.0,9.0,1.0,,,,,rot,yellow,g,0.0,g,1.0,0.4785817000083625,,,,,,,,,,,,,,1.0,9.0,21.0,3.0,,,,,159.22817860008217,,,,,,,,,,,,,,,,,159.21445349999703,160.02757030003704,160.8274644999765,160.81287660007365,,,,,,,,,,,,,,,,160.81844049994834,160.8274644999765,160.8274644999765,161.3154776999727,g,1.0,0.4785817000083625,,161.31679959991015,161.32781079993583,162.31438879994676,162.32794220000503,,,,,,,,,,,,,,,,,,,,sub-224,1,stroop_test,60.20958964945675,
,,,,22.0,10.0,1.0,,,,,blau,blue,b,1.0,b,1.0,0.7246101999189705,,,,,,,,,,,,,,1.0,10.0,22.0,6.0,,,,,162.32794220000503,,,,,,,,,,,,,,,,,162.3152213001158,163.52749740006402,164.327103999909,164.31145359994844,,,,,,,,,,,,,,,,164.31423699995503,164.327103999909,164.327103999909,165.06292459997348,b,1.0,0.7246101999189705,,165.06378319999203,165.0774131999351,166.06165169994347,166.07742110011168,,,,,,,,,,,,,,,,,,,,sub-224,1,stroop_test,60.20958964945675,
,,,,23.0,11.0,1.0,,,,,rot,red,r,1.0,r,1.0,0.7804066999815404,,,,,,,,,,,,,,1.0,11.0,23.0,1.0,,,,,166.07742110011168,,,,,,,,,,,,,,,,,166.06242129998282,166.42789019993506,167.22797699994408,167.21249649999663,,,,,,,,,,,,,,,,167.21662550000474,167.22797699994408,167.22797699994408,168.0130419000052,r,1.0,0.7804066999815404,,168.01387510006316,168.02789489994757,169.0126044000499,169.0279280000832,,,,,,,,,,,,,,,,,,,,sub-224,1,stroop_test,60.20958964945675,
,,,,,,,,,,,,,,,,,,,,,,,,,,,,,,,,,,,,,,,,,,,,,,,,,,,,,,,,,,,,,,,,,,,,,,,,,,,,,,,,,,,,,,,169.01280970009975,169.0279280000832,169.0279280000832,172.6651928999927,space,3.633196100126952,,,,,,,,,,,,,,sub-224,1,stroop_test,60.20958964945675,
,,,,0.0,0.0,0.0,,,,,,,,,,,,,gelb,yellow,g,1.0,g,1.0,1.5950400000438094,,,,,,,,,,0.0,0.0,0.0,11.0,172.68718290003017,,,,,,,,,,,,,,,,,172.68314450001344,173.02717539994046,173.82714619999751,173.81229620007798,,,,,,,,,,,,,,,,,,,,,,,,,,,,,,,,,,,173.8166936999187,173.82714619999751,173.82714619999751,175.4295346001163,g,1.0,1.5950400000438094,,,,,,sub-224,1,stroop_test,60.20958964945675,
,,,,1.0,1.0,0.0,,,,,,,,,,,,,blau,yellow,g,0.0,g,1.0,1.2345413002185524,,,,,,,,,,0.0,1.0,1.0,7.0,175.4437424999196,,,,,,,,,,,,,,,,,175.43007949995808,176.64406420011073,177.45217510010116,177.42942639999092,,,,,,,,,,,,,,,,,,,,,,,,,,,,,,,,,,,177.43789840000682,177.45217510010116,177.45217510010116,178.6963142999448,g,1.0,1.2345413002185524,,,,,,sub-224,1,stroop_test,60.20958964945675,
,,,,2.0,2.0,0.0,,,,,,,,,,,,,gelb,blue,b,0.0,b,1.0,0.759391900151968,,,,,,,,,,0.0,2.0,2.0,9.0,178.71076899999753,,,,,,,,,,,,,,,,,178.69689829996787,179.51051990012638,180.31024989997968,180.2946919000242,,,,,,,,,,,,,,,,,,,,,,,,,,,,,,,,,,,180.29967839992605,180.31024989997968,180.31024989997968,181.07948429998945,b,1.0,0.759391900151968,,,,,,sub-224,1,stroop_test,60.20958964945675,
,,,,3.0,3.0,0.0,,,,,,,,,,,,,rot,red,r,1.0,r,1.0,0.6259906999766827,,,,,,,,,,0.0,3.0,3.0,0.0,181.09383950009945,,,,,,,,,,,,,,,,,181.0801294001285,182.293605200015,183.0961973001249,183.07997469999827,,,,,,,,,,,,,,,,,,,,,,,,,,,,,,,,,,,183.0874974001199,183.0961973001249,183.0961973001249,183.7293662999291,r,1.0,0.6259906999766827,,,,,,sub-224,1,stroop_test,60.20958964945675,
,,,,4.0,4.0,0.0,,,,,,,,,,,,,blau,blue,b,1.0,b,1.0,0.6601447998546064,,,,,,,,,,0.0,4.0,4.0,5.0,183.74358600005507,,,,,,,,,,,,,,,,,183.729890699964,184.09392739995383,184.89343980001289,184.87802860001105,,,,,,,,,,,,,,,,,,,,,,,,,,,,,,,,,,,184.88309859996664,184.89343980001289,184.89343980001289,185.56223600008525,b,1.0,0.6601447998546064,,,,,,sub-224,1,stroop_test,60.20958964945675,
,,,,5.0,5.0,0.0,,,,,,,,,,,,,rot,red,r,1.0,r,1.0,0.8096041001845151,,,,,,,,,,0.0,5.0,5.0,1.0,185.57710140012205,,,,,,,,,,,,,,,,,185.5628208999988,185.6766912001185,186.4967815000564,186.4834950000513,,,,,,,,,,,,,,,,,,,,,,,,,,,,,,,,,,,186.49039900000207,186.4967815000564,186.4967815000564,187.31233430001885,r,1.0,0.8096041001845151,,,,,,sub-224,1,stroop_test,60.20958964945675,
,,,,6.0,6.0,0.0,,,,,,,,,,,,,blau,red,r,0.0,r,1.0,0.8862542000133544,,,,,,,,,,0.0,6.0,6.0,4.0,187.32627520011735,,,,,,,,,,,,,,,,,187.31288080010563,187.42663719994016,188.2318021999672,188.21271639992483,,,,,,,,,,,,,,,,,,,,,,,,,,,,,,,,,,,188.22188080009076,188.2318021999672,188.2318021999672,189.1293971000705,r,1.0,0.8862542000133544,,,,,,sub-224,1,stroop_test,60.20958964945675,
,,,,7.0,7.0,0.0,,,,,,,,,,,,,rot,yellow,g,0.0,g,1.0,0.599499500123784,,,,,,,,,,0.0,7.0,7.0,3.0,189.142957800068,,,,,,,,,,,,,,,,,189.12999849999323,189.49323019990695,190.29340480011888,190.2781036000233,,,,,,,,,,,,,,,,,,,,,,,,,,,,,,,,,,,190.2830239001196,190.29340480011888,190.29340480011888,190.89632269996216,g,1.0,0.599499500123784,,,,,,sub-224,1,stroop_test,60.20958964945675,
,,,,8.0,8.0,0.0,,,,,,,,,,,,,rot,blue,b,0.0,b,1.0,0.8148746001534164,,,,,,,,,,0.0,8.0,8.0,2.0,190.9097400000319,,,,,,,,,,,,,,,,,190.89695330010727,191.26021440001205,192.0599406999536,192.0452483999543,,,,,,,,,,,,,,,,,,,,,,,,,,,,,,,,,,,192.04609180008995,192.0599406999536,192.0599406999536,192.87895220005885,b,1.0,0.8148746001534164,,,,,,sub-224,1,stroop_test,60.20958964945675,
,,,,9.0,9.0,0.0,,,,,,,,,,,,,gelb,red,r,0.0,r,1.0,2.008279199944809,,,,,,,,,,0.0,9.0,9.0,8.0,192.8932151000481,,,,,,,,,,,,,,,,,192.87962129991504,194.0926181001123,194.89279050007465,194.8770441999659,,,,,,,,,,,,,,,,,,,,,,,,,,,,,,,,,,,194.88210660009645,194.89279050007465,194.89279050007465,196.91217359993607,r,1.0,2.008279199944809,,,,,,sub-224,1,stroop_test,60.20958964945675,
,,,,10.0,10.0,0.0,,,,,,,,,,,,,gelb,yellow,g,1.0,g,1.0,0.7929366999305785,,,,,,,,,,0.0,10.0,10.0,10.0,196.92628040001728,,,,,,,,,,,,,,,,,196.9127513000276,197.02625020011328,197.8261967999861,197.81113109993748,,,,,,,,,,,,,,,,,,,,,,,,,,,,,,,,,,,197.81201789993796,197.8261967999861,197.8261967999861,198.6283217000309,g,1.0,0.7929366999305785,,,,,,sub-224,1,stroop_test,60.20958964945675,
,,,,11.0,11.0,0.0,,,,,,,,,,,,,blau,blue,b,1.0,b,1.0,0.764853399945423,,,,,,,,,,0.0,11.0,11.0,6.0,198.6425622999668,,,,,,,,,,,,,,,,,198.62885980005376,199.84245060011744,200.6429930001032,200.62788780010305,,,,,,,,,,,,,,,,,,,,,,,,,,,,,,,,,,,200.6324767000042,200.6429930001032,200.6429930001032,201.4120265999809,b,1.0,0.764853399945423,,,,,,sub-224,1,stroop_test,60.20958964945675,
,,,,12.0,0.0,1.0,,,,,,,,,,,,,gelb,blue,b,0.0,b,1.0,0.935821200022474,,,,,,,,,,1.0,0.0,12.0,9.0,201.42641380010173,,,,,,,,,,,,,,,,,201.41253659990616,201.5261429999955,202.326185700018,202.3104677000083,,,,,,,,,,,,,,,,,,,,,,,,,,,,,,,,,,,202.316428600112,202.326185700018,202.326185700018,203.27819560002536,b,1.0,0.935821200022474,,,,,,sub-224,1,stroop_test,60.20958964945675,
,,,,13.0,1.0,1.0,,,,,,,,,,,,,rot,yellow,g,0.0,g,1.0,1.758626600028947,,,,,,,,,,1.0,1.0,13.0,3.0,203.2927433999721,,,,,,,,,,,,,,,,,203.278708799975,203.6422991999425,204.44280550000255,204.42744920006956,,,,,,,,,,,,,,,,,,,,,,,,,,,,,,,,,,,204.43187299999408,204.44280550000255,204.44280550000255,206.21155799995176,g,1.0,1.758626600028947,,,,,,sub-224,1,stroop_test,60.20958964945675,
,,,,14.0,2.0,1.0,,,,,,,,,,,,,blau,blue,b,1.0,b,1.0,0.7139566999394447,,,,,,,,,,1.0,2.0,14.0,5.0,206.22591649997048,,,,,,,,,,,,,,,,,206.2121671000496,206.32571050012484,207.1259027000051,207.110522700008,,,,,,,,,,,,,,,,,,,,,,,,,,,,,,,,,,,207.1153194999788,207.1259027000051,207.1259027000051,207.8485797001049,b,1.0,0.7139566999394447,,,,,,sub-224,1,stroop_test,60.20958964945675,
,,,,15.0,3.0,1.0,,,,,,,,,,,,,rot,red,r,1.0,r,1.0,0.6893058000132442,,,,,,,,,,1.0,3.0,15.0,1.0,207.8595885001123,,,,,,,,,,,,,,,,,207.84946099994704,207.9593823000323,208.75907110003757,208.74374600010924,,,,,,,,,,,,,,,,,,,,,,,,,,,,,,,,,,,208.74907559994608,208.75907110003757,208.75907110003757,209.4611591999419,r,1.0,0.6893058000132442,,,,,,sub-224,1,stroop_test,60.20958964945675,
,,,,16.0,4.0,1.0,,,,,,,,,,,,,blau,red,r,0.0,b,0.0,1.4252108000218868,,,,,,,,,,1.0,4.0,16.0,4.0,209.4761123000644,,,,,,,,,,,,,,,,,209.461731800111,210.2756155000534,211.0757361999713,211.0606682000216,,,,,,,,,,,,,,,,,,,,,,,,,,,,,,,,,,,211.0655243000947,211.0757361999713,211.0757361999713,212.51139279990457,b,0.0,1.4252108000218868,,,,,,sub-224,1,stroop_test,60.20958964945675,
,,,,17.0,5.0,1.0,,,,,,,,,,,,,rot,blue,b,0.0,b,1.0,1.188757200026885,,,,,,,,,,1.0,5.0,17.0,2.0,212.52544920006767,,,,,,,,,,,,,,,,,212.51202329993248,212.87546800007112,213.67557190009396,213.6616929001175,,,,,,,,,,,,,,,,,,,,,,,,,,,,,,,,,,,213.66788630001247,213.67557190009396,213.67557190009396,214.878118700115,b,1.0,1.188757200026885,,,,,,sub-224,1,stroop_test,60.20958964945675,
,,,,18.0,6.0,1.0,,,,,,,,,,,,,gelb,yellow,g,1.0,g,1.0,1.1394881999585778,,,,,,,,,,1.0,6.0,18.0,11.0,214.8923206999898,,,,,,,,,,,,,,,,,214.87870409991592,215.6919233000372,216.4917880001012,216.4766081001144,,,,,,,,,,,,,,,,,,,,,,,,,,,,,,,,,,,216.4817204999272,216.4917880001012,216.4917880001012,217.64363990002312,g,1.0,1.1394881999585778,,,,,,sub-224,1,stroop_test,60.20958964945675,
,,,,19.0,7.0,1.0,,,,,,,,,,,,,gelb,red,r,0.0,r,1.0,1.1847847998142242,,,,,,,,,,1.0,7.0,19.0,8.0,217.658818700118,,,,,,,,,,,,,,,,,217.64415320008996,217.75850709993392,218.55828090012076,218.5437012000475,,,,,,,,,,,,,,,,,,,,,,,,,,,,,,,,,,,218.54453670000655,218.55828090012076,218.55828090012076,219.76088499999605,r,1.0,1.1847847998142242,,,,,,sub-224,1,stroop_test,60.20958964945675,
,,,,20.0,8.0,1.0,,,,,,,,,,,,,blau,blue,b,1.0,b,1.0,0.6848598001524806,,,,,,,,,,1.0,8.0,20.0,6.0,219.77469170000404,,,,,,,,,,,,,,,,,219.7614907999523,220.12501799990423,220.9253374999389,220.9097488000989,,,,,,,,,,,,,,,,,,,,,,,,,,,,,,,,,,,220.9144788000267,220.9253374999389,220.9253374999389,221.6275913999416,b,1.0,0.6848598001524806,,,,,,sub-224,1,stroop_test,60.20958964945675,
,,,,21.0,9.0,1.0,,,,,,,,,,,,,rot,red,r,1.0,r,1.0,0.9823520998470484,,,,,,,,,,1.0,9.0,21.0,0.0,221.64158460008912,,,,,,,,,,,,,,,,,221.62819309998304,221.7415597999934,222.54178859991956,222.5268290000968,,,,,,,,,,,,,,,,,,,,,,,,,,,,,,,,,,,222.5324464000296,222.54178859991956,222.54178859991956,223.52847969997677,r,1.0,0.9823520998470484,,,,,,sub-224,1,stroop_test,60.20958964945675,
,,,,22.0,10.0,1.0,,,,,,,,,,,,,blau,yellow,g,0.0,g,1.0,0.9609864999074488,,,,,,,,,,1.0,10.0,22.0,7.0,223.54165900009684,,,,,,,,,,,,,,,,,223.52907940000296,223.891675400082,224.69154040003195,224.67640929995105,,,,,,,,,,,,,,,,,,,,,,,,,,,,,,,,,,,224.6812809000257,224.69154040003195,224.69154040003195,225.6613799999468,g,1.0,0.9609864999074488,,,,,,sub-224,1,stroop_test,60.20958964945675,
,,,,23.0,11.0,1.0,,,,,,,,,,,,,gelb,yellow,g,1.0,g,1.0,0.6951383000705391,,,,,,,,,,1.0,11.0,23.0,10.0,225.6745249999221,,,,,,,,,,,,,,,,,225.6619653000962,226.02463530004025,226.829220399959,226.81177620007657,,,,,,,,,,,,,,,,,,,,,,,,,,,,,,,,,,,226.82011400000192,226.829220399959,226.829220399959,227.52776359999552,g,1.0,0.6951383000705391,,,,,,sub-224,1,stroop_test,60.20958964945675,
,,,,24.0,0.0,2.0,,,,,,,,,,,,,blau,yellow,g,0.0,g,1.0,0.5794820999726653,,,,,,,,,,2.0,0.0,24.0,7.0,227.54126400011592,,,,,,,,,,,,,,,,,227.52833810006268,227.89155600010417,228.6915661999956,228.6765930000693,,,,,,,,,,,,,,,,,,,,,,,,,,,,,,,,,,,228.68111389991827,228.6915661999956,228.6915661999956,229.2769412000198,g,1.0,0.5794820999726653,,,,,,sub-224,1,stroop_test,60.20958964945675,
,,,,25.0,1.0,2.0,,,,,,,,,,,,,rot,red,r,1.0,r,1.0,0.681936000008136,,,,,,,,,,2.0,1.0,25.0,1.0,229.2917484000791,,,,,,,,,,,,,,,,,229.27754119993187,230.0916784000583,230.89157190010883,230.8762441999279,,,,,,,,,,,,,,,,,,,,,,,,,,,,,,,,,,,230.88119719992392,230.89157190010883,230.89157190010883,231.57774870004505,r,1.0,0.681936000008136,,,,,,sub-224,1,stroop_test,60.20958964945675,
,,,,26.0,2.0,2.0,,,,,,,,,,,,,rot,yellow,g,0.0,g,1.0,1.928887700196356,,,,,,,,,,2.0,2.0,26.0,3.0,231.5910974999424,,,,,,,,,,,,,,,,,231.57835830003023,232.39137730002403,233.1909688001033,233.17576029989868,,,,,,,,,,,,,,,,,,,,,,,,,,,,,,,,,,,233.17638400010765,233.1909688001033,233.1909688001033,235.1272972999141,g,1.0,1.928887700196356,,,,,,sub-224,1,stroop_test,60.20958964945675,
,,,,27.0,3.0,2.0,,,,,,,,,,,,,gelb,yellow,g,1.0,g,1.0,0.6504522999748588,,,,,,,,,,2.0,3.0,27.0,11.0,235.14178499998525,,,,,,,,,,,,,,,,,235.12801559991203,235.4908177999314,236.29157399991527,236.27623339998536,,,,,,,,,,,,,,,,,,,,,,,,,,,,,,,,,,,236.2817704000045,236.29157399991527,236.29157399991527,236.945245299954,g,1.0,0.6504522999748588,,,,,,sub-224,1,stroop_test,60.20958964945675,
,,,,28.0,4.0,2.0,,,,,,,,,,,,,blau,blue,b,1.0,b,1.0,0.4797322999220341,,,,,,,,,,2.0,4.0,28.0,6.0,236.95783889992163,,,,,,,,,,,,,,,,,236.94575159996748,238.1577383999247,238.95747489994392,238.94257059996016,,,,,,,,,,,,,,,,,,,,,,,,,,,,,,,,,,,238.94765820004977,238.95747489994392,238.95747489994392,239.4427674999461,b,1.0,0.4797322999220341,,,,,,sub-224,1,stroop_test,60.20958964945675,
,,,,29.0,5.0,2.0,,,,,,,,,,,,,blau,red,r,0.0,r,1.0,1.348724199924618,,,,,,,,,,2.0,5.0,29.0,4.0,239.45738200005144,,,,,,,,,,,,,,,,,239.44327910011637,240.65755199990235,241.45741009991616,241.442832400091,,,,,,,,,,,,,,,,,,,,,,,,,,,,,,,,,,,241.44370810012333,241.45741009991616,241.45741009991616,242.810104199918,r,1.0,1.348724199924618,,,,,,sub-224,1,stroop_test,60.20958964945675,
,,,,30.0,6.0,2.0,,,,,,,,,,,,,blau,blue,b,1.0,b,1.0,0.7164582000114024,,,,,,,,,,2.0,6.0,30.0,5.0,242.8242005000357,,,,,,,,,,,,,,,,,242.81061060004868,244.0240559999365,244.82439410011284,244.8089803000912,,,,,,,,,,,,,,,,,,,,,,,,,,,,,,,,,,,244.80994240008292,244.82439410011284,244.82439410011284,245.5442729999777,b,1.0,0.7164582000114024,,,,,,sub-224,1,stroop_test,60.20958964945675,
,,,,31.0,7.0,2.0,,,,,,,,,,,,,gelb,red,r,0.0,r,1.0,1.2654197998344898,,,,,,,,,,2.0,7.0,31.0,8.0,245.5572744999081,,,,,,,,,,,,,,,,,245.5448628000449,245.9073964001145,246.70720129995607,246.69222309999168,,,,,,,,,,,,,,,,,,,,,,,,,,,,,,,,,,,246.6973777001258,246.70720129995607,246.70720129995607,247.97622400010005,r,1.0,1.2654197998344898,,,,,,sub-224,1,stroop_test,60.20958964945675,
,,,,32.0,8.0,2.0,,,,,,,,,,,,,rot,red,r,1.0,r,1.0,0.947740999981761,,,,,,,,,,2.0,8.0,32.0,0.0,247.99034020002,,,,,,,,,,,,,,,,,247.97678850009103,248.34007079992443,249.1401420000475,249.12438250007108,,,,,,,,,,,,,,,,,,,,,,,,,,,,,,,,,,,249.128109900048,249.1401420000475,249.1401420000475,250.0932235000655,r,1.0,0.947740999981761,,,,,,sub-224,1,stroop_test,60.20958964945675,
,,,,33.0,9.0,2.0,,,,,,,,,,,,,gelb,yellow,g,1.0,g,1.0,0.5515310000628233,,,,,,,,,,2.0,9.0,33.0,10.0,250.106813600054,,,,,,,,,,,,,,,,,250.09384440002032,251.30746149993504,252.10648069996387,252.0909510999918,,,,,,,,,,,,,,,,,,,,,,,,,,,,,,,,,,,252.0963030999992,252.10648069996387,252.10648069996387,252.66379059990868,g,1.0,0.5515310000628233,,,,,,sub-224,1,stroop_test,60.20958964945675,
,,,,34.0,10.0,2.0,,,,,,,,,,,,,gelb,blue,b,0.0,b,1.0,0.6899311000015587,,,,,,,,,,2.0,10.0,34.0,9.0,252.6737866001204,,,,,,,,,,,,,,,,,252.66462910012345,252.77371810004115,253.57395270001143,253.5583349999506,,,,,,,,,,,,,,,,,,,,,,,,,,,,,,,,,,,253.55913590011187,253.57395270001143,253.57395270001143,254.27548899990504,b,1.0,0.6899311000015587,,,,,,sub-224,1,stroop_test,60.20958964945675,
,,,,35.0,11.0,2.0,,,,,,,,,,,,,rot,blue,b,0.0,b,1.0,1.531063899863511,,,,,,,,,,2.0,11.0,35.0,2.0,254.2900340999477,,,,,,,,,,,,,,,,,254.27611159998924,254.3898601999972,255.19574140012264,255.17650990001857,,,,,,,,,,,,,,,,,,,,,,,,,,,,,,,,,,,255.18641730002128,255.19574140012264,255.19574140012264,256.74163480009884,b,1.0,1.531063899863511,,,,,,sub-224,1,stroop_test,60.20958964945675,
,,,,36.0,0.0,3.0,,,,,,,,,,,,,blau,blue,b,1.0,b,1.0,0.7434749000240117,,,,,,,,,,3.0,0.0,36.0,6.0,256.7567348999437,,,,,,,,,,,,,,,,,256.74227529997006,257.1070501001086,257.90658730012365,257.8918385000434,,,,,,,,,,,,,,,,,,,,,,,,,,,,,,,,,,,257.89628070010804,257.90658730012365,257.90658730012365,258.65827909996733,b,1.0,0.7434749000240117,,,,,,sub-224,1,stroop_test,60.20958964945675,
,,,,37.0,1.0,3.0,,,,,,,,,,,,,blau,yellow,g,0.0,g,1.0,1.2377449001651255,,,,,,,,,,3.0,1.0,37.0,7.0,258.6736848000437,,,,,,,,,,,,,,,,,258.6588503001258,259.0232343000825,259.82326860004105,259.808030199958,,,,,,,,,,,,,,,,,,,,,,,,,,,,,,,,,,,259.80895609990694,259.82326860004105,259.82326860004105,261.0751571999863,g,1.0,1.2377449001651255,,,,,,sub-224,1,stroop_test,60.20958964945675,
,,,,38.0,2.0,3.0,,,,,,,,,,,,,gelb,yellow,g,1.0,g,1.0,0.5154047000687569,,,,,,,,,,3.0,2.0,38.0,11.0,261.0895966999233,,,,,,,,,,,,,,,,,261.07568460004404,262.29020960000344,263.0897421000991,263.0747293999884,,,,,,,,,,,,,,,,,,,,,,,,,,,,,,,,,,,263.07984869997017,263.0897421000991,263.0897421000991,263.6092858000193,g,1.0,0.5154047000687569,,,,,,sub-224,1,stroop_test,60.20958964945675,
,,,,39.0,3.0,3.0,,,,,,,,,,,,,rot,yellow,g,0.0,g,1.0,0.504579900065437,,,,,,,,,,3.0,3.0,39.0,3.0,263.6234870001208,,,,,,,,,,,,,,,,,263.6097969999537,264.8229988999665,265.6226361000445,265.6082452000119,,,,,,,,,,,,,,,,,,,,,,,,,,,,,,,,,,,265.61384440003894,265.6226361000445,265.6226361000445,266.1424483000301,g,1.0,0.504579900065437,,,,,,sub-224,1,stroop_test,60.20958964945675,
,,,,40.0,4.0,3.0,,,,,,,,,,,,,gelb,red,r,0.0,r,1.0,0.9047769999597222,,,,,,,,,,3.0,4.0,40.0,8.0,266.1566858000588,,,,,,,,,,,,,,,,,266.14304389990866,266.25674919993617,267.05650110007264,267.0405467001256,,,,,,,,,,,,,,,,,,,,,,,,,,,,,,,,,,,267.0472715999931,267.05650110007264,267.05650110007264,267.97431139997207,r,1.0,0.9047769999597222,,,,,,sub-224,1,stroop_test,60.20958964945675,
,,,,41.0,5.0,3.0,,,,,,,,,,,,,rot,blue,b,0.0,b,1.0,1.1788724998477846,,,,,,,,,,3.0,5.0,41.0,2.0,267.9892361001112,,,,,,,,,,,,,,,,,267.9748229000252,269.1898787000682,269.9897882000077,269.97487060003914,,,,,,,,,,,,,,,,,,,,,,,,,,,,,,,,,,,269.98047089995816,269.9897882000077,269.9897882000077,271.1746501999441,b,1.0,1.1788724998477846,,,,,,sub-224,1,stroop_test,60.20958964945675,
,,,,42.0,6.0,3.0,,,,,,,,,,,,,rot,red,r,1.0,r,1.0,0.8263892000541091,,,,,,,,,,3.0,6.0,42.0,1.0,271.1896562001202,,,,,,,,,,,,,,,,,271.17524289991707,271.53974410006776,272.3393488000147,272.3242556999903,,,,,,,,,,,,,,,,,,,,,,,,,,,,,,,,,,,272.32497179997154,272.3393488000147,272.3393488000147,273.17794919991866,r,1.0,0.8263892000541091,,,,,,sub-224,1,stroop_test,60.20958964945675,
,,,,43.0,7.0,3.0,,,,,,,,,,,,,gelb,yellow,g,1.0,g,1.0,0.7385281999595463,,,,,,,,,,3.0,7.0,43.0,10.0,273.18947300012223,,,,,,,,,,,,,,,,,273.1787411000114,273.53959690011106,274.34609159990214,274.3257593000308,,,,,,,,,,,,,,,,,,,,,,,,,,,,,,,,,,,274.3349468000233,274.34609159990214,274.34609159990214,275.09261219995096,g,1.0,0.7385281999595463,,,,,,sub-224,1,stroop_test,60.20958964945675,
,,,,44.0,8.0,3.0,,,,,,,,,,,,,blau,blue,b,1.0,b,1.0,0.4876749999821186,,,,,,,,,,3.0,8.0,44.0,5.0,275.1058277999982,,,,,,,,,,,,,,,,,275.0931303000543,275.9061285001226,276.7058031000197,276.6910475001205,,,,,,,,,,,,,,,,,,,,,,,,,,,,,,,,,,,276.69597060000524,276.7058031000197,276.7058031000197,277.20785490004346,b,1.0,0.4876749999821186,,,,,,sub-224,1,stroop_test,60.20958964945675,
,,,,45.0,9.0,3.0,,,,,,,,,,,,,blau,red,r,0.0,r,1.0,1.3701410999055952,,,,,,,,,,3.0,9.0,45.0,4.0,277.22248349990696,,,,,,,,,,,,,,,,,277.2084770000074,277.57273690006696,278.372619099915,278.35876709991135,,,,,,,,,,,,,,,,,,,,,,,,,,,,,,,,,,,278.36035589990206,278.372619099915,278.372619099915,279.75812099990435,r,1.0,1.3701410999055952,,,,,,sub-224,1,stroop_test,60.20958964945675,
,,,,46.0,10.0,3.0,,,,,,,,,,,,,rot,red,r,1.0,r,1.0,0.7107808000873774,,,,,,,,,,3.0,10.0,46.0,0.0,279.7725021999795,,,,,,,,,,,,,,,,,279.75867619994096,280.97226390009746,281.77225759997964,281.7571338999551,,,,,,,,,,,,,,,,,,,,,,,,,,,,,,,,,,,281.76272460003383,281.77225759997964,281.77225759997964,282.49008699995466,r,1.0,0.7107808000873774,,,,,,sub-224,1,stroop_test,60.20958964945675,
,,,,47.0,11.0,3.0,,,,,,,,,,,,,gelb,blue,b,0.0,b,1.0,0.6776703000068665,,,,,,,,,,3.0,11.0,47.0,9.0,282.5054862999823,,,,,,,,,,,,,,,,,282.49055429990403,283.3054210001137,284.1054913001135,284.09012509998865,,,,,,,,,,,,,,,,,,,,,,,,,,,,,,,,,,,284.0960649000481,284.1054913001135,284.1054913001135,284.79023079993203,b,1.0,0.6776703000068665,,,,,,sub-224,1,stroop_test,60.20958964945675,
,,,,48.0,0.0,4.0,,,,,,,,,,,,,gelb,blue,b,0.0,b,1.0,0.4870982998982072,,,,,,,,,,4.0,0.0,48.0,9.0,284.8052968000993,,,,,,,,,,,,,,,,,284.79076560004614,285.15547650004737,285.9554109000601,285.94053109991364,,,,,,,,,,,,,,,,,,,,,,,,,,,,,,,,,,,285.94133109995164,285.9554109000601,285.9554109000601,286.4570232999977,b,1.0,0.4870982998982072,,,,,,sub-224,1,stroop_test,60.20958964945675,
,,,,49.0,1.0,4.0,,,,,,,,,,,,,gelb,yellow,g,1.0,g,1.0,0.764374100137502,,,,,,,,,,4.0,1.0,49.0,10.0,286.4718222999945,,,,,,,,,,,,,,,,,286.4575916000176,287.2719692001119,288.0720393001102,288.0564395999536,,,,,,,,,,,,,,,,,,,,,,,,,,,,,,,,,,,288.0572415001225,288.0720393001102,288.0720393001102,288.84125420008786,g,1.0,0.764374100137502,,,,,,sub-224,1,stroop_test,60.20958964945675,
,,,,50.0,2.0,4.0,,,,,,,,,,,,,rot,yellow,g,0.0,g,1.0,1.6451270000543443,,,,,,,,,,4.0,2.0,50.0,3.0,288.8555050999857,,,,,,,,,,,,,,,,,288.84220089996234,289.205503199948,290.00546890008263,289.9899752000347,,,,,,,,,,,,,,,,,,,,,,,,,,,,,,,,,,,289.9947818000801,290.00546890008263,290.00546890008263,291.65744119999,g,1.0,1.6451270000543443,,,,,,sub-224,1,stroop_test,60.20958964945675,
,,,,51.0,3.0,4.0,,,,,,,,,,,,,rot,red,r,1.0,r,1.0,0.6889029000885785,,,,,,,,,,4.0,3.0,51.0,0.0,291.67148860008456,,,,,,,,,,,,,,,,,291.6580479000695,292.8720668000169,293.67166170012206,293.65636790008284,,,,,,,,,,,,,,,,,,,,,,,,,,,,,,,,,,,293.6571478000842,293.67166170012206,293.67166170012206,294.3741818999406,r,1.0,0.6889029000885785,,,,,,sub-224,1,stroop_test,60.20958964945675,
,,,,52.0,4.0,4.0,,,,,,,,,,,,,gelb,red,r,0.0,r,1.0,0.524421000154689,,,,,,,,,,4.0,4.0,52.0,8.0,294.3887052999344,,,,,,,,,,,,,,,,,294.3747433999088,295.5883281999268,296.38856160012074,296.372747000074,,,,,,,,,,,,,,,,,,,,,,,,,,,,,,,,,,,296.3776273999829,296.38856160012074,296.38856160012074,296.92331569991075,r,1.0,0.524421000154689,,,,,,sub-224,1,stroop_test,60.20958964945675,
,,,,53.0,5.0,4.0,,,,,,,,,,,,,blau,blue,b,1.0,b,1.0,0.5605764999054372,,,,,,,,,,4.0,5.0,53.0,5.0,296.9386788001284,,,,,,,,,,,,,,,,,296.9238641001284,298.13843789999373,298.9385814999696,298.9230023000855,,,,,,,,,,,,,,,,,,,,,,,,,,,,,,,,,,,298.9281081999652,298.9385814999696,298.9385814999696,299.50736920000054,b,1.0,0.5605764999054372,,,,,,sub-224,1,stroop_test,60.20958964945675,
,,,,54.0,6.0,4.0,,,,,,,,,,,,,blau,yellow,g,0.0,g,1.0,1.4769083000719547,,,,,,,,,,4.0,6.0,54.0,7.0,299.52216459997,,,,,,,,,,,,,,,,,299.5079574000556,300.3214529999532,301.1218066001311,301.1070554000325,,,,,,,,,,,,,,,,,,,,,,,,,,,,,,,,,,,301.1080624999013,301.1218066001311,301.1218066001311,302.6071806999389,g,1.0,1.4769083000719547,,,,,,sub-224,1,stroop_test,60.20958964945675,
,,,,55.0,7.0,4.0,,,,,,,,,,,,,rot,blue,b,0.0,b,1.0,0.8939435000065714,,,,,,,,,,4.0,7.0,55.0,2.0,302.6217219000682,,,,,,,,,,,,,,,,,302.6077578999102,302.971672100015,303.7710762999486,303.7567745000124,,,,,,,,,,,,,,,,,,,,,,,,,,,,,,,,,,,303.76172609999776,303.7710762999486,303.7710762999486,304.6737168999389,b,1.0,0.8939435000065714,,,,,,sub-224,1,stroop_test,60.20958964945675,
,,,,56.0,8.0,4.0,,,,,,,,,,,,,blau,red,r,0.0,r,1.0,1.2768808000255376,,,,,,,,,,4.0,8.0,56.0,4.0,304.6882515999023,,,,,,,,,,,,,,,,,304.67433640011586,305.8881866999436,306.68824469996616,306.67264540004544,,,,,,,,,,,,,,,,,,,,,,,,,,,,,,,,,,,306.6779241999611,306.68824469996616,306.68824469996616,307.9738233999815,r,1.0,1.2768808000255376,,,,,,sub-224,1,stroop_test,60.20958964945675,
,,,,57.0,9.0,4.0,,,,,,,,,,,,,gelb,yellow,g,1.0,g,1.0,0.6700363999698311,,,,,,,,,,4.0,9.0,57.0,11.0,307.98782290006056,,,,,,,,,,,,,,,,,307.9744194999803,308.33762710005976,309.1379492999986,309.12277900008485,,,,,,,,,,,,,,,,,,,,,,,,,,,,,,,,,,,309.1280173000414,309.1379492999986,309.1379492999986,309.8233656000812,g,1.0,0.6700363999698311,,,,,,sub-224,1,stroop_test,60.20958964945675,
,,,,58.0,10.0,4.0,,,,,,,,,,,,,blau,blue,b,1.0,b,1.0,0.6525842999108136,,,,,,,,,,4.0,10.0,58.0,6.0,309.83744470006786,,,,,,,,,,,,,,,,,309.8239448000677,309.9380240000319,310.737794799963,310.722294999985,,,,,,,,,,,,,,,,,,,,,,,,,,,,,,,,,,,310.7272860999219,310.737794799963,310.737794799963,311.4092093000654,b,1.0,0.6525842999108136,,,,,,sub-224,1,stroop_test,60.20958964945675,
,,,,59.0,11.0,4.0,,,,,,,,,,,,,rot,red,r,1.0,r,1.0,0.7995486999861896,,,,,,,,,,4.0,11.0,59.0,1.0,311.4213974999729,,,,,,,,,,,,,,,,,311.4101885999553,312.6208625000436,313.421170799993,313.40524389990605,,,,,,,,,,,,,,,,,,,,,,,,,,,,,,,,,,,313.41114569990896,313.421170799993,313.421170799993,314.22375390003435,r,1.0,0.7995486999861896,,,,,,sub-224,1,stroop_test,60.20958964945675,
,,,,60.0,0.0,5.0,,,,,,,,,,,,,gelb,red,r,0.0,r,1.0,0.7920580999925733,,,,,,,,,,5.0,0.0,60.0,8.0,314.23769180011004,,,,,,,,,,,,,,,,,314.2242725000251,315.43741240003146,316.2377128000371,316.2219730000943,,,,,,,,,,,,,,,,,,,,,,,,,,,,,,,,,,,316.22657059994526,316.2377128000371,316.2377128000371,317.03992630005814,r,1.0,0.7920580999925733,,,,,,sub-224,1,stroop_test,60.20958964945675,
,,,,61.0,1.0,5.0,,,,,,,,,,,,,blau,red,r,0.0,r,1.0,0.8256553998216987,,,,,,,,,,5.0,1.0,61.0,4.0,317.05401750002056,,,,,,,,,,,,,,,,,317.0405385000631,317.1537222999614,317.95419450011104,317.9390467000194,,,,,,,,,,,,,,,,,,,,,,,,,,,,,,,,,,,317.9433492999524,317.95419450011104,317.95419450011104,318.78968459996395,r,1.0,0.8256553998216987,,,,,,sub-224,1,stroop_test,60.20958964945675,
,,,,62.0,2.0,5.0,,,,,,,,,,,,,blau,yellow,g,0.0,g,1.0,1.5517661001067609,,,,,,,,,,5.0,2.0,62.0,7.0,318.8041836000048,,,,,,,,,,,,,,,,,318.7902540001087,318.9043475999497,319.70344229997136,319.687744300114,,,,,,,,,,,,,,,,,,,,,,,,,,,,,,,,,,,319.68850530008785,319.70344229997136,319.70344229997136,321.2752801000606,g,1.0,1.5517661001067609,,,,,,sub-224,1,stroop_test,60.20958964945675,
,,,,63.0,3.0,5.0,,,,,,,,,,,,,blau,blue,b,1.0,b,1.0,0.6792870999779552,,,,,,,,,,5.0,3.0,63.0,5.0,321.2872955999337,,,,,,,,,,,,,,,,,321.27633609995246,321.3871685001068,322.1873037000187,322.1718202000484,,,,,,,,,,,,,,,,,,,,,,,,,,,,,,,,,,,322.17262699990533,322.1873037000187,322.1873037000187,322.87245190003887,b,1.0,0.6792870999779552,,,,,,sub-224,1,stroop_test,60.20958964945675,
,,,,64.0,4.0,5.0,,,,,,,,,,,,,rot,blue,b,0.0,b,1.0,1.4504314998630434,,,,,,,,,,5.0,4.0,64.0,2.0,322.88728699996136,,,,,,,,,,,,,,,,,322.8732519999612,323.68715450004674,324.4869214000646,324.47208740003407,,,,,,,,,,,,,,,,,,,,,,,,,,,,,,,,,,,324.4773846999742,324.4869214000646,324.4869214000646,325.94112129998393,b,1.0,1.4504314998630434,,,,,,sub-224,1,stroop_test,60.20958964945675,
,,,,65.0,5.0,5.0,,,,,,,,,,,,,rot,red,r,1.0,r,1.0,0.8377222002018243,,,,,,,,,,5.0,5.0,65.0,1.0,325.9538301001303,,,,,,,,,,,,,,,,,325.94173550000414,326.7534320000559,327.5536195000168,327.5388962000143,,,,,,,,,,,,,,,,,,,,,,,,,,,,,,,,,,,327.539722800022,327.5536195000168,327.5536195000168,328.4063786000479,r,1.0,0.8377222002018243,,,,,,sub-224,1,stroop_test,60.20958964945675,
,,,,66.0,6.0,5.0,,,,,,,,,,,,,gelb,yellow,g,1.0,g,1.0,0.8347301001194865,,,,,,,,,,5.0,6.0,66.0,11.0,328.4202256000135,,,,,,,,,,,,,,,,,328.4069672999904,328.5203090000432,329.3201751001179,329.3046991999727,,,,,,,,,,,,,,,,,,,,,,,,,,,,,,,,,,,329.3098414000124,329.3201751001179,329.3201751001179,330.1727102000732,g,1.0,0.8347301001194865,,,,,,sub-224,1,stroop_test,60.20958964945675,
,,,,67.0,7.0,5.0,,,,,,,,,,,,,blau,blue,b,1.0,b,1.0,0.7092610998079181,,,,,,,,,,5.0,7.0,67.0,6.0,330.1868388999719,,,,,,,,,,,,,,,,,330.1733641999308,330.2870932999067,331.0869444999844,331.07155629992485,,,,,,,,,,,,,,,,,,,,,,,,,,,,,,,,,,,331.07635030010715,331.0869444999844,331.0869444999844,331.80612590000965,b,1.0,0.7092610998079181,,,,,,sub-224,1,stroop_test,60.20958964945675,
,,,,68.0,8.0,5.0,,,,,,,,,,,,,rot,red,r,1.0,r,1.0,1.1909252000041306,,,,,,,,,,5.0,8.0,68.0,0.0,331.82001750008203,,,,,,,,,,,,,,,,,331.8066805000417,331.9203947000205,332.7200410000514,332.70540120010264,,,,,,,,,,,,,,,,,,,,,,,,,,,,,,,,,,,332.71017240011133,332.7200410000514,332.7200410000514,333.92210490000434,r,1.0,1.1909252000041306,,,,,,sub-224,1,stroop_test,60.20958964945675,
,,,,69.0,9.0,5.0,,,,,,,,,,,,,gelb,yellow,g,1.0,g,1.0,0.6651006999891251,,,,,,,,,,5.0,9.0,69.0,10.0,333.9363142000512,,,,,,,,,,,,,,,,,333.9227706999518,334.03648600005545,334.83627470000647,334.82151179993525,,,,,,,,,,,,,,,,,,,,,,,,,,,,,,,,,,,334.8266350000631,334.83627470000647,334.83627470000647,335.50561630004086,g,1.0,0.6651006999891251,,,,,,sub-224,1,stroop_test,60.20958964945675,
,,,,70.0,10.0,5.0,,,,,,,,,,,,,rot,yellow,g,0.0,g,1.0,1.3097127000801263,,,,,,,,,,5.0,10.0,70.0,3.0,335.5194721000735,,,,,,,,,,,,,,,,,335.50612240005285,335.6201037000865,336.41988840000704,336.40469340002164,,,,,,,,,,,,,,,,,,,,,,,,,,,,,,,,,,,336.4090839000419,336.41988840000704,336.41988840000704,337.7398143999744,g,1.0,1.3097127000801263,,,,,,sub-224,1,stroop_test,60.20958964945675,
,,,,71.0,11.0,5.0,,,,,,,,,,,,,gelb,blue,b,0.0,b,1.0,0.4748176001012325,,,,,,,,,,5.0,11.0,71.0,9.0,337.752872900106,,,,,,,,,,,,,,,,,337.74043680005707,338.5531492000446,339.3527716000099,339.3373461000156,,,,,,,,,,,,,,,,,,,,,,,,,,,,,,,,,,,339.3433407000266,339.3527716000099,339.3527716000099,339.8387541999109,b,1.0,0.4748176001012325,,,,,,sub-224,1,stroop_test,60.20958964945675,
,,,,72.0,0.0,6.0,,,,,,,,,,,,,rot,yellow,g,0.0,g,1.0,0.8154549999162555,,,,,,,,,,6.0,0.0,72.0,3.0,339.8528956999071,,,,,,,,,,,,,,,,,339.83935440005735,341.0529527000617,341.85352850006893,341.837783300085,,,,,,,,,,,,,,,,,,,,,,,,,,,,,,,,,,,341.8420017999597,341.85352850006893,341.85352850006893,342.6726589000318,g,1.0,0.8154549999162555,,,,,,sub-224,1,stroop_test,60.20958964945675,
,,,,73.0,1.0,6.0,,,,,,,,,,,,,blau,blue,b,1.0,b,1.0,0.6159437000751495,,,,,,,,,,6.0,1.0,73.0,6.0,342.6867110999301,,,,,,,,,,,,,,,,,342.6732616000809,343.8863854999654,344.68620779993944,344.671194500057,,,,,,,,,,,,,,,,,,,,,,,,,,,,,,,,,,,344.6762574999593,344.68620779993944,344.68620779993944,345.3054647999816,b,1.0,0.6159437000751495,,,,,,sub-224,1,stroop_test,60.20958964945675,
,,,,74.0,2.0,6.0,,,,,,,,,,,,,gelb,red,r,0.0,r,1.0,1.330732800066471,,,,,,,,,,6.0,2.0,74.0,8.0,345.3190407999791,,,,,,,,,,,,,,,,,345.3059924999252,345.41965970001183,346.21951419999823,346.2044649999589,,,,,,,,,,,,,,,,,,,,,,,,,,,,,,,,,,,346.2093549000565,346.21951419999823,346.21951419999823,347.555279500084,r,1.0,1.330732800066471,,,,,,sub-224,1,stroop_test,60.20958964945675,
,,,,75.0,3.0,6.0,,,,,,,,,,,,,rot,red,r,1.0,r,1.0,0.6107600999530405,,,,,,,,,,6.0,3.0,75.0,0.0,347.5695197999012,,,,,,,,,,,,,,,,,347.55587340006605,348.76907010003924,349.5695617001038,349.55434089992195,,,,,,,,,,,,,,,,,,,,,,,,,,,,,,,,,,,349.55923480005004,349.5695617001038,349.5695617001038,350.1884640001226,r,1.0,0.6107600999530405,,,,,,sub-224,1,stroop_test,60.20958964945675,
,,,,76.0,4.0,6.0,,,,,,,,,,,,,rot,red,r,1.0,r,1.0,0.8006881000474095,,,,,,,,,,6.0,4.0,76.0,1.0,350.2030440000817,,,,,,,,,,,,,,,,,350.1890573001001,350.5523300000932,351.3525928000454,351.3375039999373,,,,,,,,,,,,,,,,,,,,,,,,,,,,,,,,,,,351.33830790012144,351.3525928000454,351.3525928000454,352.15632800012827,r,1.0,0.8006881000474095,,,,,,sub-224,1,stroop_test,60.20958964945675,
,,,,77.0,5.0,6.0,,,,,,,,,,,,,gelb,yellow,g,1.0,g,1.0,0.5770670999772847,,,,,,,,,,6.0,5.0,77.0,11.0,352.16930700000376,,,,,,,,,,,,,,,,,352.156897299923,352.5186739999335,353.3198806999717,353.3058662000112,,,,,,,,,,,,,,,,,,,,,,,,,,,,,,,,,,,353.3135536001064,353.3198806999717,353.3198806999717,353.9045951999724,g,1.0,0.5770670999772847,,,,,,sub-224,1,stroop_test,60.20958964945675,
,,,,78.0,6.0,6.0,,,,,,,,,,,,,gelb,blue,b,0.0,b,1.0,0.6049210999626666,,,,,,,,,,6.0,6.0,78.0,9.0,353.9192073000595,,,,,,,,,,,,,,,,,353.90516970003955,354.7194368999917,355.5190276999492,355.50408670003526,,,,,,,,,,,,,,,,,,,,,,,,,,,,,,,,,,,355.50477329990827,355.5190276999492,355.5190276999492,356.13812769996,b,1.0,0.6049210999626666,,,,,,sub-224,1,stroop_test,60.20958964945675,
,,,,79.0,7.0,6.0,,,,,,,,,,,,,blau,blue,b,1.0,b,1.0,0.5286386001389474,,,,,,,,,,6.0,7.0,79.0,5.0,356.1523506001104,,,,,,,,,,,,,,,,,356.13877040008083,356.95216240012087,357.75188439991325,357.7367523999419,,,,,,,,,,,,,,,,,,,,,,,,,,,,,,,,,,,357.74111680011265,357.75188439991325,357.75188439991325,358.2879482000135,b,1.0,0.5286386001389474,,,,,,sub-224,1,stroop_test,60.20958964945675,
,,,,80.0,8.0,6.0,,,,,,,,,,,,,rot,blue,b,0.0,b,1.0,0.5304594000335783,,,,,,,,,,6.0,8.0,80.0,2.0,358.3021768999752,,,,,,,,,,,,,,,,,358.28845570003614,359.1021646000445,359.9076638999395,359.88842050009407,,,,,,,,,,,,,,,,,,,,,,,,,,,,,,,,,,,359.8982806999702,359.9076638999395,359.9076638999395,360.45430639991537,b,1.0,0.5304594000335783,,,,,,sub-224,1,stroop_test,60.20958964945675,
,,,,81.0,9.0,6.0,,,,,,,,,,,,,blau,red,r,0.0,r,1.0,1.798121300060302,,,,,,,,,,6.0,9.0,81.0,4.0,360.4689076000359,,,,,,,,,,,,,,,,,360.454758200096,360.8184909999836,361.6189596999902,361.6037771000993,,,,,,,,,,,,,,,,,,,,,,,,,,,,,,,,,,,361.6081439999398,361.6189596999902,361.6189596999902,363.4209285001271,r,1.0,1.798121300060302,,,,,,sub-224,1,stroop_test,60.20958964945675,
,,,,82.0,10.0,6.0,,,,,,,,,,,,,gelb,yellow,g,1.0,g,1.0,0.650633699959144,,,,,,,,,,6.0,10.0,82.0,10.0,363.4349696999416,,,,,,,,,,,,,,,,,363.42147830012254,363.5355068999343,364.3348477000836,364.3197862999514,,,,,,,,,,,,,,,,,,,,,,,,,,,,,,,,,,,364.3249763001222,364.3348477000836,364.3348477000836,364.98891879990697,g,1.0,0.650633699959144,,,,,,sub-224,1,stroop_test,60.20958964945675,
,,,,83.0,11.0,6.0,,,,,,,,,,,,,blau,yellow,g,0.0,b,0.0,0.736722300061956,,,,,,,,,,6.0,11.0,83.0,7.0,365.0017413001042,,,,,,,,,,,,,,,,,364.98943200008944,365.3516506999731,366.15177130000666,366.1363103000913,,,,,,,,,,,,,,,,,,,,,,,,,,,,,,,,,,,366.1413080999628,366.15177130000666,366.15177130000666,366.9035575001035,b,0.0,0.736722300061956,,,,,,sub-224,1,stroop_test,60.20958964945675,
,,,,84.0,0.0,7.0,,,,,,,,,,,,,gelb,yellow,g,1.0,g,1.0,1.1504623000510037,,,,,,,,,,7.0,0.0,84.0,11.0,366.918127699988,,,,,,,,,,,,,,,,,366.9041168000549,367.2683669999242,368.0681239000987,368.0529885001015,,,,,,,,,,,,,,,,,,,,,,,,,,,,,,,,,,,368.05800530011766,368.0681239000987,368.0681239000987,369.2221850999631,g,1.0,1.1504623000510037,,,,,,sub-224,1,stroop_test,60.20958964945675,
,,,,85.0,1.0,7.0,,,,,,,,,,,,,blau,yellow,g,0.0,b,0.0,0.9431722001172602,,,,,,,,,,7.0,1.0,85.0,7.0,369.2348070000298,,,,,,,,,,,,,,,,,369.2227759999223,369.5847050999291,370.38492750003934,370.3699060000945,,,,,,,,,,,,,,,,,,,,,,,,,,,,,,,,,,,370.3749850001186,370.38492750003934,370.38492750003934,371.3371912001167,b,0.0,0.9431722001172602,,,,,,sub-224,1,stroop_test,60.20958964945675,
,,,,86.0,2.0,7.0,,,,,,,,,,,,,blau,blue,b,1.0,b,1.0,0.6791133000515401,,,,,,,,,,7.0,2.0,86.0,5.0,371.3510908999015,,,,,,,,,,,,,,,,,371.3377892000135,372.5514525000472,373.3511302000843,373.3355972999707,,,,,,,,,,,,,,,,,,,,,,,,,,,,,,,,,,,373.3362948000431,373.3511302000843,373.3511302000843,374.0391287999228,b,1.0,0.6791133000515401,,,,,,sub-224,1,stroop_test,60.20958964945675,
,,,,87.0,3.0,7.0,,,,,,,,,,,,,rot,red,r,1.0,r,1.0,0.7576840999536216,,,,,,,,,,7.0,3.0,87.0,0.0,374.0512910999824,,,,,,,,,,,,,,,,,374.0398178000469,374.4015931999311,375.201085699955,375.18623799993657,,,,,,,,,,,,,,,,,,,,,,,,,,,,,,,,,,,375.1911792000756,375.201085699955,375.201085699955,375.973346499959,r,1.0,0.7576840999536216,,,,,,sub-224,1,stroop_test,60.20958964945675,
,,,,88.0,4.0,7.0,,,,,,,,,,,,,rot,red,r,1.0,r,1.0,0.5657286001369357,,,,,,,,,,7.0,4.0,88.0,1.0,375.9845531999599,,,,,,,,,,,,,,,,,375.9740943999496,377.1845150999725,377.9845139000099,377.9694688001182,,,,,,,,,,,,,,,,,,,,,,,,,,,,,,,,,,,377.9702779999934,377.9845139000099,377.9845139000099,378.55441779992543,r,1.0,0.5657286001369357,,,,,,sub-224,1,stroop_test,60.20958964945675,
,,,,89.0,5.0,7.0,,,,,,,,,,,,,blau,blue,b,1.0,b,1.0,0.8265217998996377,,,,,,,,,,7.0,5.0,89.0,6.0,378.5675123000983,,,,,,,,,,,,,,,,,378.5549987000413,378.9178728999104,379.7178935999982,379.70290830009617,,,,,,,,,,,,,,,,,,,,,,,,,,,,,,,,,,,379.7078092000447,379.7178935999982,379.7178935999982,380.5534401999321,b,1.0,0.8265217998996377,,,,,,sub-224,1,stroop_test,60.20958964945675,
,,,,90.0,6.0,7.0,,,,,,,,,,,,,gelb,red,r,0.0,r,1.0,0.7664040999952704,,,,,,,,,,7.0,6.0,90.0,8.0,380.5675222000573,,,,,,,,,,,,,,,,,380.5540493000299,381.3676770001184,382.16788380010985,382.1526083999779,,,,,,,,,,,,,,,,,,,,,,,,,,,,,,,,,,,382.1576497000642,382.16788380010985,382.16788380010985,382.9387837999966,r,1.0,0.7664040999952704,,,,,,sub-224,1,stroop_test,60.20958964945675,
,,,,91.0,7.0,7.0,,,,,,,,,,,,,rot,blue,b,0.0,b,1.0,0.7424745999742299,,,,,,,,,,7.0,7.0,91.0,2.0,382.9507911000401,,,,,,,,,,,,,,,,,382.9393833000213,383.7508358999621,384.5507827999536,384.5357276999857,,,,,,,,,,,,,,,,,,,,,,,,,,,,,,,,,,,384.5415785999503,384.5507827999536,384.5507827999536,385.3055610000156,b,1.0,0.7424745999742299,,,,,,sub-224,1,stroop_test,60.20958964945675,
,,,,92.0,8.0,7.0,,,,,,,,,,,,,blau,red,r,0.0,r,1.0,1.494440200040117,,,,,,,,,,7.0,8.0,92.0,4.0,385.3175162000116,,,,,,,,,,,,,,,,,385.30623119999655,385.667891100049,386.4671956000384,386.45243000006303,,,,,,,,,,,,,,,,,,,,,,,,,,,,,,,,,,,386.4572850000113,386.4671956000384,386.4671956000384,387.9693048999179,r,1.0,1.494440200040117,,,,,,sub-224,1,stroop_test,60.20958964945675,
,,,,93.0,9.0,7.0,,,,,,,,,,,,,gelb,blue,b,0.0,b,1.0,0.6363264999818057,,,,,,,,,,7.0,9.0,93.0,9.0,387.9841720000841,,,,,,,,,,,,,,,,,387.9699896001257,388.78381980001,389.5838582001161,389.5688455000054,,,,,,,,,,,,,,,,,,,,,,,,,,,,,,,,,,,389.57425429997966,389.5838582001161,389.5838582001161,390.2360936999321,b,1.0,0.6363264999818057,,,,,,sub-224,1,stroop_test,60.20958964945675,
,,,,94.0,10.0,7.0,,,,,,,,,,,,,gelb,yellow,g,1.0,g,1.0,0.8132425001822412,,,,,,,,,,7.0,10.0,94.0,10.0,390.2501721000299,,,,,,,,,,,,,,,,,390.23664249992,390.6007093000226,391.4006505999714,391.385399099905,,,,,,,,,,,,,,,,,,,,,,,,,,,,,,,,,,,391.3862560000271,391.4006505999714,391.4006505999714,392.2193976999261,g,1.0,0.8132425001822412,,,,,,sub-224,1,stroop_test,60.20958964945675,
,,,,95.0,11.0,7.0,,,,,,,,,,,,,rot,yellow,g,0.0,g,1.0,0.6662590000778437,,,,,,,,,,7.0,11.0,95.0,3.0,392.2338666000869,,,,,,,,,,,,,,,,,392.219993100036,392.5837691000197,393.3839843000751,393.3692147000693,,,,,,,,,,,,,,,,,,,,,,,,,,,,,,,,,,,393.3737971999217,393.3839843000751,393.3839843000751,394.0570428001229,g,1.0,0.6662590000778437,,,,,,sub-224,1,stroop_test,60.20958964945675,
,,,,96.0,0.0,8.0,,,,,,,,,,,,,rot,red,r,1.0,r,1.0,0.8112604999914765,,,,,,,,,,8.0,0.0,96.0,1.0,394.0674099000171,,,,,,,,,,,,,,,,,394.05787210003473,394.16734590008855,394.9671201000456,394.9521363999229,,,,,,,,,,,,,,,,,,,,,,,,,,,,,,,,,,,394.9530225000344,394.9671201000456,394.9671201000456,395.7859821000602,r,1.0,0.8112604999914765,,,,,,sub-224,1,stroop_test,60.20958964945675,
,,,,97.0,1.0,8.0,,,,,,,,,,,,,gelb,red,r,0.0,r,1.0,1.1179949999786911,,,,,,,,,,8.0,1.0,97.0,8.0,395.8003833000548,,,,,,,,,,,,,,,,,395.7864912999794,395.9004075999837,396.7000853999052,396.6852102000266,,,,,,,,,,,,,,,,,,,,,,,,,,,,,,,,,,,396.69073370005935,396.7000853999052,396.7000853999052,397.8357059999835,r,1.0,1.1179949999786911,,,,,,sub-224,1,stroop_test,60.20958964945675,
,,,,98.0,2.0,8.0,,,,,,,,,,,,,blau,blue,b,1.0,b,1.0,0.6909776998218149,,,,,,,,,,8.0,2.0,98.0,6.0,397.8501798000652,,,,,,,,,,,,,,,,,397.8363034001086,397.9499115999788,398.7503532001283,398.73555979994126,,,,,,,,,,,,,,,,,,,,,,,,,,,,,,,,,,,398.7413657000288,398.7503532001283,398.7503532001283,399.4549078000709,b,1.0,0.6909776998218149,,,,,,sub-224,1,stroop_test,60.20958964945675,
,,,,99.0,3.0,8.0,,,,,,,,,,,,,gelb,blue,b,0.0,b,1.0,0.8165794000960886,,,,,,,,,,8.0,3.0,99.0,9.0,399.4670347000938,,,,,,,,,,,,,,,,,399.4555053000804,400.6670858999714,401.4670168999583,401.4512406000868,,,,,,,,,,,,,,,,,,,,,,,,,,,,,,,,,,,401.456046000123,401.4670168999583,401.4670168999583,402.28772059991024,b,1.0,0.8165794000960886,,,,,,sub-224,1,stroop_test,60.20958964945675,
,,,,100.0,4.0,8.0,,,,,,,,,,,,,blau,blue,b,1.0,b,1.0,0.6052286000922322,,,,,,,,,,8.0,4.0,100.0,5.0,402.3002724999096,,,,,,,,,,,,,,,,,402.2883115999866,402.400184799917,403.200140299974,403.1853251000866,,,,,,,,,,,,,,,,,,,,,,,,,,,,,,,,,,,403.1905322999228,403.200140299974,403.200140299974,403.8191998000257,b,1.0,0.6052286000922322,,,,,,sub-224,1,stroop_test,60.20958964945675,
,,,,101.0,5.0,8.0,,,,,,,,,,,,,blau,red,r,0.0,r,1.0,1.3488010000437498,,,,,,,,,,8.0,5.0,101.0,4.0,403.8330038001295,,,,,,,,,,,,,,,,,403.8197737999726,404.18350280006416,404.98321340000257,404.9733726000413,,,,,,,,,,,,,,,,,,,,,,,,,,,,,,,,,,,404.9742096001282,404.98321340000257,404.98321340000257,406.3357661999762,r,1.0,1.3488010000437498,,,,,,sub-224,1,stroop_test,60.20958964945675,
,,,,102.0,6.0,8.0,,,,,,,,,,,,,rot,blue,b,0.0,b,1.0,0.8232044000178576,,,,,,,,,,8.0,6.0,102.0,2.0,406.3499445000198,,,,,,,,,,,,,,,,,406.33635489991866,407.5496066000778,408.3494049999863,408.3341830999125,,,,,,,,,,,,,,,,,,,,,,,,,,,,,,,,,,,408.3388086000923,408.3494049999863,408.3494049999863,409.1849090999458,b,1.0,0.8232044000178576,,,,,,sub-224,1,stroop_test,60.20958964945675,
,,,,103.0,7.0,8.0,,,,,,,,,,,,,gelb,yellow,g,1.0,g,1.0,0.8234134998638183,,,,,,,,,,8.0,7.0,103.0,11.0,409.1998962000944,,,,,,,,,,,,,,,,,409.1853694999591,409.29994850000367,410.0999636000488,410.08479250012897,,,,,,,,,,,,,,,,,,,,,,,,,,,,,,,,,,,410.08999829995446,410.0999636000488,410.0999636000488,410.9347516999114,g,1.0,0.8234134998638183,,,,,,sub-224,1,stroop_test,60.20958964945675,
,,,,104.0,8.0,8.0,,,,,,,,,,,,,blau,yellow,g,0.0,g,1.0,0.6738396999426186,,,,,,,,,,8.0,8.0,104.0,7.0,410.94995489995927,,,,,,,,,,,,,,,,,410.9352889000438,411.7498296000995,412.54988309997134,412.53472100012,,,,,,,,,,,,,,,,,,,,,,,,,,,,,,,,,,,412.53904740000144,412.54988309997134,412.54988309997134,413.2354127999861,g,1.0,0.6738396999426186,,,,,,sub-224,1,stroop_test,60.20958964945675,
,,,,105.0,9.0,8.0,,,,,,,,,,,,,rot,yellow,g,0.0,g,1.0,0.916161400033161,,,,,,,,,,8.0,9.0,105.0,3.0,413.2502902999986,,,,,,,,,,,,,,,,,413.2359585000668,413.59993340005167,414.3994354999159,414.3845073999837,,,,,,,,,,,,,,,,,,,,,,,,,,,,,,,,,,,414.3897621999495,414.3994354999159,414.3994354999159,415.31992430007085,g,1.0,0.916161400033161,,,,,,sub-224,1,stroop_test,60.20958964945675,
,,,,106.0,10.0,8.0,,,,,,,,,,,,,gelb,yellow,g,1.0,g,1.0,0.5710223999340087,,,,,,,,,,8.0,10.0,106.0,10.0,415.33303420012817,,,,,,,,,,,,,,,,,415.3205311999191,416.1325165999588,416.9329840999562,416.91782220010646,,,,,,,,,,,,,,,,,,,,,,,,,,,,,,,,,,,416.9229168000165,416.9329840999562,416.9329840999562,417.5180230000988,g,1.0,0.5710223999340087,,,,,,sub-224,1,stroop_test,60.20958964945675,
,,,,107.0,11.0,8.0,,,,,,,,,,,,,rot,red,r,1.0,r,1.0,0.672036699950695,,,,,,,,,,8.0,11.0,107.0,0.0,417.5328875000123,,,,,,,,,,,,,,,,,417.51868250011466,418.73224060004577,419.5399587999564,419.5213830000721,,,,,,,,,,,,,,,,,,,,,,,,,,,,,,,,,,,419.52996070007794,419.5399587999564,419.5399587999564,420.218902300112,r,1.0,0.672036699950695,,,,,,sub-224,1,stroop_test,60.20958964945675,
,,,,108.0,0.0,9.0,,,,,,,,,,,,,rot,red,r,1.0,r,1.0,0.8183384998701513,,,,,,,,,,9.0,0.0,108.0,1.0,420.2327556000091,,,,,,,,,,,,,,,,,420.21957339998335,421.43224440002814,422.2322869000491,422.2173397000879,,,,,,,,,,,,,,,,,,,,,,,,,,,,,,,,,,,422.2181355000939,422.2322869000491,422.2322869000491,423.0678807001095,r,1.0,0.8183384998701513,,,,,,sub-224,1,stroop_test,60.20958964945675,
,,,,109.0,1.0,9.0,,,,,,,,,,,,,gelb,blue,b,0.0,b,1.0,0.679350099992007,,,,,,,,,,9.0,1.0,109.0,9.0,423.0824840001296,,,,,,,,,,,,,,,,,423.0685417999048,424.2827173001133,425.0835057999939,425.0672142000403,,,,,,,,,,,,,,,,,,,,,,,,,,,,,,,,,,,425.0730169999879,425.0835057999939,425.0835057999939,425.7677106000483,b,1.0,0.679350099992007,,,,,,sub-224,1,stroop_test,60.20958964945675,
,,,,110.0,2.0,9.0,,,,,,,,,,,,,gelb,yellow,g,1.0,g,1.0,0.9745366999413818,,,,,,,,,,9.0,2.0,110.0,11.0,425.7822994000744,,,,,,,,,,,,,,,,,425.76830519991927,426.5824380000122,427.3829985000193,427.3683891000692,,,,,,,,,,,,,,,,,,,,,,,,,,,,,,,,,,,427.3702159000095,427.3829985000193,427.3829985000193,428.3680157999042,g,1.0,0.9745366999413818,,,,,,sub-224,1,stroop_test,60.20958964945675,
,,,,111.0,3.0,9.0,,,,,,,,,,,,,blau,blue,b,1.0,b,1.0,0.656052100006491,,,,,,,,,,9.0,3.0,111.0,5.0,428.38211139990017,,,,,,,,,,,,,,,,,428.3686049999669,428.4822060998995,429.2818412999623,429.2666621999815,,,,,,,,,,,,,,,,,,,,,,,,,,,,,,,,,,,429.2723656001035,429.2818412999623,429.2818412999623,429.9541438999586,b,1.0,0.656052100006491,,,,,,sub-224,1,stroop_test,60.20958964945675,
,,,,112.0,4.0,9.0,,,,,,,,,,,,,rot,blue,b,0.0,b,1.0,0.8386997999623418,,,,,,,,,,9.0,4.0,112.0,2.0,429.9659728000406,,,,,,,,,,,,,,,,,429.9548528001178,430.31577889993787,431.1151400001254,431.1002929999959,,,,,,,,,,,,,,,,,,,,,,,,,,,,,,,,,,,431.1062996999826,431.1151400001254,431.1151400001254,431.967246199958,b,1.0,0.8386997999623418,,,,,,sub-224,1,stroop_test,60.20958964945675,
,,,,113.0,5.0,9.0,,,,,,,,,,,,,rot,red,r,1.0,r,1.0,0.6833116000052541,,,,,,,,,,9.0,5.0,113.0,0.0,431.9821124000009,,,,,,,,,,,,,,,,,431.96807479998097,433.1820626999252,433.981986900093,433.9678889000788,,,,,,,,,,,,,,,,,,,,,,,,,,,,,,,,,,,433.9687972001266,433.981986900093,433.981986900093,434.6687561001163,r,1.0,0.6833116000052541,,,,,,sub-224,1,stroop_test,60.20958964945675,
,,,,114.0,6.0,9.0,,,,,,,,,,,,,blau,red,r,0.0,r,1.0,1.0836257999762893,,,,,,,,,,9.0,6.0,114.0,4.0,434.6819168000948,,,,,,,,,,,,,,,,,434.6693961999845,434.7821492999792,435.5816031999421,435.5667038999964,,,,,,,,,,,,,,,,,,,,,,,,,,,,,,,,,,,435.57159360009246,435.5816031999421,435.5816031999421,436.6689764999319,r,1.0,1.0836257999762893,,,,,,sub-224,1,stroop_test,60.20958964945675,
,,,,115.0,7.0,9.0,,,,,,,,,,,,,rot,yellow,g,0.0,g,1.0,0.8365875999443233,,,,,,,,,,9.0,7.0,115.0,3.0,436.681919200113,,,,,,,,,,,,,,,,,436.669512799941,437.48153329989873,438.2871723999269,438.2672323998995,,,,,,,,,,,,,,,,,,,,,,,,,,,,,,,,,,,438.2743695999961,438.2871723999269,438.2871723999269,439.13467160006985,g,1.0,0.8365875999443233,,,,,,sub-224,1,stroop_test,60.20958964945675,
,,,,116.0,8.0,9.0,,,,,,,,,,,,,blau,blue,b,1.0,b,1.0,0.8272987001109868,,,,,,,,,,9.0,8.0,116.0,6.0,439.1482903999277,,,,,,,,,,,,,,,,,439.1352288001217,439.4984033000656,440.2981279999949,440.2830491000786,,,,,,,,,,,,,,,,,,,,,,,,,,,,,,,,,,,440.2879409000743,440.2981279999949,440.2981279999949,441.1339281999972,b,1.0,0.8272987001109868,,,,,,sub-224,1,stroop_test,60.20958964945675,
,,,,117.0,9.0,9.0,,,,,,,,,,,,,gelb,red,r,0.0,r,1.0,1.1454969998449087,,,,,,,,,,9.0,9.0,117.0,8.0,441.1485403000843,,,,,,,,,,,,,,,,,441.1345049000811,441.4981667001266,442.2982121000532,442.282919399906,,,,,,,,,,,,,,,,,,,,,,,,,,,,,,,,,,,442.2884659001138,442.2982121000532,442.2982121000532,443.4502238999121,r,1.0,1.1454969998449087,,,,,,sub-224,1,stroop_test,60.20958964945675,
,,,,118.0,10.0,9.0,,,,,,,,,,,,,gelb,yellow,g,1.0,g,1.0,0.9778998999390752,,,,,,,,,,9.0,10.0,118.0,10.0,443.4647898999974,,,,,,,,,,,,,,,,,443.4507397001144,443.8152717999183,444.61463560000993,444.6000022001099,,,,,,,,,,,,,,,,,,,,,,,,,,,,,,,,,,,444.6008113001008,444.61463560000993,444.61463560000993,445.60033549997024,g,1.0,0.9778998999390752,,,,,,sub-224,1,stroop_test,60.20958964945675,
,,,,119.0,11.0,9.0,,,,,,,,,,,,,blau,yellow,g,0.0,g,1.0,1.359472299925983,,,,,,,,,,9.0,11.0,119.0,7.0,445.6149144000374,,,,,,,,,,,,,,,,,445.6009013000876,446.4147981000133,447.21433370001614,447.19884920003824,,,,,,,,,,,,,,,,,,,,,,,,,,,,,,,,,,,447.20423220004886,447.21433370001614,447.21433370001614,448.5835655000992,g,1.0,1.359472299925983,,,,,,sub-224,1,stroop_test,60.20958964945675,
,,,,,,,,,,,,,,,,,,,,,,,,,,,,,,,,,,,,,,,,,,,,,,,,,,,,,,,,,,,,,,,,,,,,,,,,,,,,,,,,,,,,,,,,,,,,,,,,,,,,,,448.583844000008,448.5978753999807,453.597395000048,453.5823999000713,sub-224,1,stroop_test,60.20958964945675,
