wordCTK,colorCTK,corrAnsCTK,congruentCTK,thisN,thisTrialN,thisRepN,keyResp_CTK.keys,keyResp_CTK.corr,keyResp_CTK.rt,keyResp_CTK.duration,wordPractice,colorPractice,corrAnsPractice,congruentPractice,respPractice.keys,respPractice.corr,respPractice.rt,respPractice.duration,word,color,corrAns,congruent,keyResp_test_run.keys,keyResp_test_run.corr,keyResp_test_run.rt,keyResp_test_run.duration,trials_CTK.thisRepN,trials_CTK.thisTrialN,trials_CTK.thisN,trials_CTK.thisIndex,trials_practice.thisRepN,trials_practice.thisTrialN,trials_practice.thisN,trials_practice.thisIndex,trials_test.thisRepN,trials_test.thisTrialN,trials_test.thisN,trials_test.thisIndex,thisRow.t,notes,instruction.started,instr_text.started,instr_image.started,instr_resp.started,instruction.stopped,instr_resp.keys,instr_resp.rt,instr_resp.duration,instr_color_to_key.started,instr_ctk.started,resp_ctk.started,instr_color_to_key.stopped,resp_ctk.keys,resp_ctk.rt,resp_ctk.duration,ITI.started,fixcross.started,fixcross.stopped,ITI.stopped,color_to_key_run.started,stimulus_CTK.started,keyResp_CTK.started,color_to_key_run.stopped,trials_CTK.keyResp_CTK.keys,trials_CTK.keyResp_CTK.corr,trials_CTK.keyResp_CTK.rt,trials_CTK.keyResp_CTK.duration,instr_practice.started,instr_practice_text.started,instr_practice_resp.started,instr_practice.stopped,instr_practice_resp.keys,instr_practice_resp.rt,instr_practice_resp.duration,practice_run.started,stimulus_practice.started,respPractice.started,practice_run.stopped,trials_practice.respPractice.keys,trials_practice.respPractice.corr,trials_practice.respPractice.rt,trials_practice.respPractice.duration,feedback.started,textFeedback.started,feedback.stopped,textFeedback.stopped,instr_test.started,instr_test_text.started,instr_test_resp.started,instr_test.stopped,instr_test_resp.keys,instr_test_resp.rt,instr_test_resp.duration,test_run.started,stimulus_test_run.started,keyResp_test_run.started,test_run.stopped,trials_test.keyResp_test_run.keys,trials_test.keyResp_test_run.corr,trials_test.keyResp_test_run.rt,trials_test.keyResp_test_run.duration,goodbye.started,textGoodbye.started,goodbye.stopped,participant,session,expName,frameRate,Unnamed: 112
,,,,,,,,,,,,,,,,,,,,,,,,,,,,,,,,,,,,,,,,,0.0036718000046676,0.0364034000085666,0.0364034000085666,0.0364034000085666,9.226018900008055,space,9.169393899996066,,,,,,,,,,,,,,,,,,,,,,,,,,,,,,,,,,,,,,,,,,,,,,,,,,,,,,,,,,sub-133,1,stroop_test,59.885403289374,
,,,,,,,,,,,,,,,,,,,,,,,,,,,,,,,,,,,,,,,,,,,,,,,,,9.226195000010192,9.23509770000237,9.23509770000237,15.782823800007463,space,6.530838699996821,,,,,,,,,,,,,,,,,,,,,,,,,,,,,,,,,,,,,,,,,,,,,,,,,,,sub-133,1,stroop_test,59.885403289374,
test,yellow,g,1.0,0.0,0.0,0.0,g,1.0,0.9169436000083806,,,,,,,,,,,,,,,,,,0.0,0.0,0.0,1.0,,,,,,,,,15.833620500008692,,,,,,,,,,,,,,,,,15.830793700006325,15.897732800003723,16.699684699997306,16.68232710000302,16.694249799998943,16.699684699997306,16.699684699997306,17.633348200004548,g,1.0,0.9169436000083806,,,,,,,,,,,,,,,,,,,,,,,,,,,,,,,,,,,,,,,sub-133,1,stroop_test,59.885403289374,
test,blue,b,1.0,1.0,1.0,0.0,b,1.0,0.6225619999895571,,,,,,,,,,,,,,,,,,0.0,1.0,1.0,2.0,,,,,,,,,17.648769899999024,,,,,,,,,,,,,,,,,17.63382060000731,18.8332786999963,19.633464600003208,19.61767740000505,19.61816080000426,19.633464600003208,19.633464600003208,20.26985969999805,b,1.0,0.6225619999895571,,,,,,,,,,,,,,,,,,,,,,,,,,,,,,,,,,,,,,,sub-133,1,stroop_test,59.885403289374,
test,red,r,1.0,2.0,2.0,0.0,r,1.0,0.6114165000035428,,,,,,,,,,,,,,,,,,0.0,2.0,2.0,0.0,,,,,,,,,20.2841511000006,,,,,,,,,,,,,,,,,20.27039089999744,20.38430590000644,21.184538900008192,21.168643099998008,21.16924740000104,21.184538900008192,21.184538900008192,21.803726500002085,r,1.0,0.6114165000035428,,,,,,,,,,,,,,,,,,,,,,,,,,,,,,,,,,,,,,,sub-133,1,stroop_test,59.885403289374,
test,blue,b,1.0,3.0,0.0,1.0,b,1.0,0.4462884000095073,,,,,,,,,,,,,,,,,,1.0,0.0,3.0,2.0,,,,,,,,,21.818656700008432,,,,,,,,,,,,,,,,,21.804099100001626,22.168751799996244,22.969451700002537,22.95395910000661,22.95500170000014,22.969451700002537,22.969451700002537,23.42134139999689,b,1.0,0.4462884000095073,,,,,,,,,,,,,,,,,,,,,,,,,,,,,,,,,,,,,,,sub-133,1,stroop_test,59.885403289374,
test,yellow,g,1.0,4.0,1.0,1.0,g,1.0,0.6156858000031207,,,,,,,,,,,,,,,,,,1.0,1.0,4.0,1.0,,,,,,,,,23.43624500000442,,,,,,,,,,,,,,,,,23.42189060000237,24.220089100010227,25.020696100007623,25.00535910000326,25.006205700003196,25.020696100007623,25.020696100007623,25.63973320000514,g,1.0,0.6156858000031207,,,,,,,,,,,,,,,,,,,,,,,,,,,,,,,,,,,,,,,sub-133,1,stroop_test,59.885403289374,
test,red,r,1.0,5.0,2.0,1.0,b,0.0,0.4317337999964366,,,,,,,,,,,,,,,,,,1.0,2.0,5.0,0.0,,,,,,,,,25.65475270000752,,,,,,,,,,,,,,,,,25.64032770000631,26.455313600003137,27.255778799997643,27.2401314000017,27.24135850000312,27.255778799997643,27.255778799997643,27.69115490000695,b,0.0,0.4317337999964366,,,,,,,,,,,,,,,,,,,,,,,,,,,,,,,,,,,,,,,sub-133,1,stroop_test,59.885403289374,
test,yellow,g,1.0,6.0,0.0,2.0,g,1.0,0.6993040000088513,,,,,,,,,,,,,,,,,,2.0,0.0,6.0,1.0,,,,,,,,,27.705824600008786,,,,,,,,,,,,,,,,,27.691733400002704,27.806103499999157,28.60647910000989,28.59078070000396,28.59160700000939,28.60647910000989,28.60647910000989,29.308828200009884,g,1.0,0.6993040000088513,,,,,,,,,,,,,,,,,,,,,,,,,,,,,,,,,,,,,,,sub-133,1,stroop_test,59.885403289374,
test,blue,b,1.0,7.0,1.0,2.0,b,1.0,0.6324414999980945,,,,,,,,,,,,,,,,,,2.0,1.0,7.0,2.0,,,,,,,,,29.323763100008364,,,,,,,,,,,,,,,,,29.30937560000166,30.52439890000096,31.32503100000031,31.309001800007536,31.30958250000549,31.32503100000031,31.32503100000031,31.960647400002927,b,1.0,0.6324414999980945,,,,,,,,,,,,,,,,,,,,,,,,,,,,,,,,,,,,,,,sub-133,1,stroop_test,59.885403289374,
test,red,r,1.0,8.0,2.0,2.0,r,1.0,0.580669900009525,,,,,,,,,,,,,,,,,,2.0,2.0,8.0,0.0,,,,,,,,,31.975599199999124,,,,,,,,,,,,,,,,,31.961033400002638,32.07565769999928,32.876443500004825,32.861089099998935,32.861850300003425,32.876443500004825,32.876443500004825,33.4622173000098,r,1.0,0.580669900009525,,,,,,,,,,,,,,,,,,,,,,,,,,,,,,,,,,,,,,,sub-133,1,stroop_test,59.885403289374,
test,yellow,g,1.0,9.0,0.0,3.0,g,1.0,0.8380042000062531,,,,,,,,,,,,,,,,,,3.0,0.0,9.0,1.0,,,,,,,,,33.476544300006935,,,,,,,,,,,,,,,,,33.4629200000054,34.67733170000429,35.477993400010746,35.46234130000812,35.463165100009064,35.477993400010746,35.477993400010746,36.33112480001,g,1.0,0.8380042000062531,,,,,,,,,,,,,,,,,,,,,,,,,,,,,,,,,,,,,,,sub-133,1,stroop_test,59.885403289374,
test,red,r,1.0,10.0,1.0,3.0,r,1.0,0.8204099000140559,,,,,,,,,,,,,,,,,,3.0,1.0,10.0,0.0,,,,,,,,,36.34524429999874,,,,,,,,,,,,,,,,,36.331732100006775,36.69573350000428,37.49616130000504,37.480569100007415,37.48126080000657,37.49616130000504,37.49616130000504,38.33179730000848,r,1.0,0.8204099000140559,,,,,,,,,,,,,,,,,,,,,,,,,,,,,,,,,,,,,,,sub-133,1,stroop_test,59.885403289374,
test,blue,b,1.0,11.0,2.0,3.0,b,1.0,0.5395901000010781,,,,,,,,,,,,,,,,,,3.0,2.0,11.0,2.0,,,,,,,,,38.34670770000957,,,,,,,,,,,,,,,,,38.33228220000456,38.69695320000756,39.49708329999703,39.48102150000341,39.48159640000085,39.49708329999703,39.49708329999703,40.04914840000856,b,1.0,0.5395901000010781,,,,,,,,,,,,,,,,,,,,,,,,,,,,,,,,,,,,,,,sub-133,1,stroop_test,59.885403289374,
,,,,,,,,,,,,,,,,,,,,,,,,,,,,,,,,,,,,,,,,,,,,,,,,,,,,,,,,,,,,,,,,,,,,40.04936250000901,40.06439390000014,40.06439390000014,42.95174640000914,space,2.8821651000034763,,,,,,,,,,,,,,,,,,,,,,,,,,,,,,,,sub-133,1,stroop_test,59.885403289374,
,,,,0.0,0.0,0.0,,,,,blau,yellow,g,0.0,g,1.0,1.3366340000065975,,,,,,,,,,,,,,0.0,0.0,0.0,7.0,,,,,42.99878069999977,,,,,,,,,,,,,,,,,42.99375609999697,43.06676010000229,43.88048040001013,43.85144140000921,,,,,,,,,,,,,,,,43.87335449999955,43.88048040001013,43.88048040001013,45.2199580000015,g,1.0,1.3366340000065975,,45.24146640000981,45.24979560000065,46.23550219999743,,,,,,,,,,,,,,,,,,,,sub-133,1,stroop_test,59.885403289374,
,,,,1.0,1.0,0.0,,,,,gelb,yellow,g,1.0,g,1.0,0.6378875999944285,,,,,,,,,,,,,,0.0,1.0,1.0,11.0,,,,,46.25209310000355,,,,,,,,,,,,,,,,,46.23605510000198,46.335459699999774,47.138327499997104,47.12056419999863,,,,,,,,,,,,,,,,47.129078600002686,47.138327499997104,47.138327499997104,47.78850640000019,g,1.0,0.6378875999944285,,47.789348899998,47.80325150000863,48.78831669999636,48.80381009999837,,,,,,,,,,,,,,,,,,,sub-133,1,stroop_test,59.885403289374,
,,,,2.0,2.0,0.0,,,,,blau,red,r,0.0,r,1.0,0.6924551999982214,,,,,,,,,,,,,,0.0,2.0,2.0,4.0,,,,,48.80381009999837,,,,,,,,,,,,,,,,,48.78878620000614,48.90389359999972,49.70429090000107,49.68818920000922,,,,,,,,,,,,,,,,49.69218730001012,49.70429090000107,49.70429090000107,50.40578070000629,r,1.0,0.6924551999982214,,50.406299299997045,50.42145419999724,51.40649080000003,51.42237020000175,,,,,,,,,,,,,,,,,,,sub-133,1,stroop_test,59.885403289374,
,,,,3.0,3.0,0.0,,,,,rot,yellow,g,0.0,g,1.0,1.120773200003896,,,,,,,,,,,,,,0.0,3.0,3.0,3.0,,,,,51.42237020000175,,,,,,,,,,,,,,,,,51.40701670000272,51.50547610000649,52.30616860000009,52.290517800007365,,,,,,,,,,,,,,,,52.29721450000943,52.30616860000009,52.30616860000009,53.44154770000023,g,1.0,1.120773200003896,,53.4423228000087,53.45684349999647,54.44231150000997,54.45772020000732,,,,,,,,,,,,,,,,,,,sub-133,1,stroop_test,59.885403289374,
,,,,4.0,4.0,0.0,,,,,rot,blue,b,0.0,b,1.0,0.446444800007157,,,,,,,,,,,,,,0.0,4.0,4.0,2.0,,,,,54.45772020000732,,,,,,,,,,,,,,,,,54.44280479999725,54.54121500000474,55.34173520001059,55.32607399999688,,,,,,,,,,,,,,,,55.32676360000914,55.34173520001059,55.34173520001059,55.79407309999806,b,1.0,0.446444800007157,,55.79498120000062,55.80871060000209,56.79390020000574,56.80934220000927,,,,,,,,,,,,,,,,,,,sub-133,1,stroop_test,59.885403289374,
,,,,5.0,5.0,0.0,,,,,gelb,red,r,0.0,r,1.0,0.8627200000046287,,,,,,,,,,,,,,0.0,5.0,5.0,8.0,,,,,56.80934220000927,,,,,,,,,,,,,,,,,56.79443470000115,57.59317239999655,58.39532239999971,58.37873820000095,,,,,,,,,,,,,,,,58.38508970000839,58.39532239999971,58.39532239999971,59.26309550000588,r,1.0,0.8627200000046287,,59.26404789999651,59.27773220000381,60.262965300004,60.278379700001096,,,,,,,,,,,,,,,,,,,sub-133,1,stroop_test,59.885403289374,
,,,,6.0,6.0,0.0,,,,,rot,red,r,1.0,r,1.0,0.50850489998993,,,,,,,,,,,,,,0.0,6.0,6.0,1.0,,,,,60.278379700001096,,,,,,,,,,,,,,,,,60.263658800002304,61.07895380000991,61.87958249999792,61.86370990000432,,,,,,,,,,,,,,,,61.8688264000084,61.87958249999792,61.87958249999792,62.39807930000825,r,1.0,0.50850489998993,,62.39878970000427,62.41308189999836,63.39820320000581,63.41375430001062,,,,,,,,,,,,,,,,,,,sub-133,1,stroop_test,59.885403289374,
,,,,7.0,7.0,0.0,,,,,gelb,yellow,g,1.0,g,1.0,0.5587064999999711,,,,,,,,,,,,,,0.0,7.0,7.0,10.0,,,,,63.41375430001062,,,,,,,,,,,,,,,,,63.39866120000079,64.19780619999801,64.99838810000801,64.98276310000801,,,,,,,,,,,,,,,,64.98863570000685,64.99838810000801,64.99838810000801,65.56713979999768,g,1.0,0.5587064999999711,,65.56796810000378,65.58217449999938,66.56666440000117,66.58262549999927,,,,,,,,,,,,,,,,,,,sub-133,1,stroop_test,59.885403289374,
,,,,8.0,8.0,0.0,,,,,blau,blue,b,1.0,b,1.0,0.4948815999960061,,,,,,,,,,,,,,0.0,8.0,8.0,6.0,,,,,66.58262549999927,,,,,,,,,,,,,,,,,66.56713640000089,66.93276579999656,67.7335110999993,67.71779850000166,,,,,,,,,,,,,,,,67.72304170001007,67.7335110999993,67.7335110999993,68.23630590000539,b,1.0,0.4948815999960061,,68.23713940000744,68.25078990000475,69.23596689999977,69.25138180000067,,,,,,,,,,,,,,,,,,,sub-133,1,stroop_test,59.885403289374,
,,,,9.0,9.0,0.0,,,,,rot,red,r,1.0,g,0.0,0.6153614999930141,,,,,,,,,,,,,,0.0,9.0,9.0,0.0,,,,,69.25138180000067,,,,,,,,,,,,,,,,,69.23655200000212,70.45186790000298,71.25270040000032,71.23647499999788,,,,,,,,,,,,,,,,71.24023910000687,71.25270040000032,71.25270040000032,71.87152280000737,g,0.0,0.6153614999930141,,71.88300729999901,71.89135489999899,72.88736100000096,,,,,,,,,,,,,,,,,,,,sub-133,1,stroop_test,59.885403289374,
,,,,10.0,10.0,0.0,,,,,blau,blue,b,1.0,r,0.0,1.0069692999968538,,,,,,,,,,,,,,0.0,10.0,10.0,5.0,,,,,72.90391340000497,,,,,,,,,,,,,,,,,72.88792560000729,73.67072330000519,74.47162189999653,74.45585920001031,,,,,,,,,,,,,,,,74.46129629999632,74.47162189999653,74.47162189999653,75.49085360000026,r,0.0,1.0069692999968538,,75.49171460000798,75.50552410000819,76.49069690000033,76.50643020001007,,,,,,,,,,,,,,,,,,,sub-133,1,stroop_test,59.885403289374,
,,,,11.0,11.0,0.0,,,,,gelb,blue,b,0.0,b,1.0,0.8602175999985775,,,,,,,,,,,,,,0.0,11.0,11.0,9.0,,,,,76.50643020001007,,,,,,,,,,,,,,,,,76.49119500000961,76.60662400000729,77.4070006999973,77.39146749999782,,,,,,,,,,,,,,,,77.39761830000498,77.4070006999973,77.4070006999973,78.27640250000695,b,1.0,0.8602175999985775,,78.28357620000315,78.2963005000056,79.29205620000721,,,,,,,,,,,,,,,,,,,,sub-133,1,stroop_test,59.885403289374,
,,,,12.0,0.0,1.0,,,,,rot,blue,b,0.0,b,1.0,0.6963465000008,,,,,,,,,,,,,,1.0,0.0,12.0,2.0,,,,,79.30822730000364,,,,,,,,,,,,,,,,,79.2926032999967,79.3916109999991,80.19228499999736,80.17661260000023,,,,,,,,,,,,,,,,80.18069890000334,80.19228499999736,80.19228499999736,80.89413880000939,b,1.0,0.6963465000008,,80.89504620000662,80.9091219999973,81.89453839999624,81.91013499999826,,,,,,,,,,,,,,,,,,,sub-133,1,stroop_test,59.885403289374,
,,,,13.0,1.0,1.0,,,,,rot,red,r,1.0,r,1.0,0.693419699993683,,,,,,,,,,,,,,1.0,1.0,13.0,0.0,,,,,81.91013499999826,,,,,,,,,,,,,,,,,81.89500530000078,82.24361859999772,83.04416650001076,83.02882000000682,,,,,,,,,,,,,,,,83.0299234999984,83.04416650001076,83.04416650001076,83.74663730000611,r,1.0,0.693419699993683,,83.74727940000594,83.76144119999663,84.74689460000081,84.76205430000846,,,,,,,,,,,,,,,,,,,sub-133,1,stroop_test,59.885403289374,
,,,,14.0,2.0,1.0,,,,,blau,blue,b,1.0,b,1.0,0.5212950999994064,,,,,,,,,,,,,,1.0,2.0,14.0,5.0,,,,,84.76205430000846,,,,,,,,,,,,,,,,,84.7476478000026,85.94626690000587,86.74663439999858,86.73128849999921,,,,,,,,,,,,,,,,86.7382806000096,86.74663439999858,86.74663439999858,87.28230170000461,b,1.0,0.5212950999994064,,87.28343589999713,87.29709809999622,88.28231720000622,88.29767169999832,,,,,,,,,,,,,,,,,,,sub-133,1,stroop_test,59.885403289374,
,,,,15.0,3.0,1.0,,,,,gelb,yellow,g,1.0,g,1.0,0.4049580999999307,,,,,,,,,,,,,,1.0,3.0,15.0,10.0,,,,,88.29767169999832,,,,,,,,,,,,,,,,,88.28285519999918,89.4820497000037,90.2824483000004,90.2671496999974,,,,,,,,,,,,,,,,90.27262099999643,90.2824483000004,90.2824483000004,90.70049630000722,g,1.0,0.4049580999999307,,90.70098740000684,90.71603809999942,91.70153910000226,91.7168820000079,,,,,,,,,,,,,,,,,,,sub-133,1,stroop_test,59.885403289374,
,,,,16.0,4.0,1.0,,,,,rot,red,r,1.0,r,1.0,0.5470608000032371,,,,,,,,,,,,,,1.0,4.0,16.0,1.0,,,,,91.7168820000079,,,,,,,,,,,,,,,,,91.70199760000104,91.80010680000125,92.60055689999716,92.58469580000384,,,,,,,,,,,,,,,,92.5895920000039,92.60055689999716,92.60055689999716,93.15299879999657,r,1.0,0.5470608000032371,,93.15392180001072,93.16785900000832,94.1530602999992,94.1684149000066,,,,,,,,,,,,,,,,,,,sub-133,1,stroop_test,59.885403289374,
,,,,17.0,5.0,1.0,,,,,gelb,blue,b,0.0,b,1.0,1.0157379000011133,,,,,,,,,,,,,,1.0,5.0,17.0,9.0,,,,,94.1684149000066,,,,,,,,,,,,,,,,,94.15371949999826,94.2684861000016,95.07248770000297,95.05384170000616,,,,,,,,,,,,,,,,95.05995910000638,95.07248770000297,95.07248770000297,96.10488980000082,b,1.0,1.0157379000011133,,96.10565209999912,96.1198565000086,97.10487619999913,97.12050499999896,,,,,,,,,,,,,,,,,,,sub-133,1,stroop_test,59.885403289374,
,,,,18.0,6.0,1.0,,,,,gelb,yellow,g,1.0,g,1.0,0.7824237999884645,,,,,,,,,,,,,,1.0,6.0,18.0,11.0,,,,,97.12050499999896,,,,,,,,,,,,,,,,,97.10543009999674,98.30486650000968,99.10521609999704,99.09006190000218,,,,,,,,,,,,,,,,99.0909313000011,99.10521609999704,99.10521609999704,99.89094550001028,g,1.0,0.7824237999884645,,99.89144880000094,99.90583400000467,100.89145599999756,100.90651899999648,,,,,,,,,,,,,,,,,,,sub-133,1,stroop_test,59.885403289374,
,,,,19.0,7.0,1.0,,,,,rot,yellow,g,0.0,g,1.0,0.3783920999994734,,,,,,,,,,,,,,1.0,7.0,19.0,3.0,,,,,100.90651899999648,,,,,,,,,,,,,,,,,100.8922542000073,101.25664289999986,102.05949210000108,102.04168629999911,,,,,,,,,,,,,,,,102.04985609999858,102.05949210000108,102.05949210000108,102.44264790001034,g,1.0,0.3783920999994734,,102.443282799999,102.45762580000157,103.4425348000077,103.45811320000212,,,,,,,,,,,,,,,,,,,sub-133,1,stroop_test,59.885403289374,
,,,,20.0,8.0,1.0,,,,,blau,yellow,g,0.0,g,1.0,0.8437765999988187,,,,,,,,,,,,,,1.0,8.0,20.0,7.0,,,,,103.45811320000212,,,,,,,,,,,,,,,,,103.4429758000042,104.64231520000612,105.4437850999966,105.4275357000006,,,,,,,,,,,,,,,,105.4358845000097,105.4437850999966,105.4437850999966,106.29546370000752,g,1.0,0.8437765999988187,,106.29651490000832,106.31028520000108,107.29539620000288,107.31084510000072,,,,,,,,,,,,,,,,,,,sub-133,1,stroop_test,59.885403289374,
,,,,21.0,9.0,1.0,,,,,blau,blue,b,1.0,b,1.0,0.5163503999938257,,,,,,,,,,,,,,1.0,9.0,21.0,6.0,,,,,107.31084510000072,,,,,,,,,,,,,,,,,107.2959348000004,107.4109682999988,108.21161929999651,108.19582680000168,,,,,,,,,,,,,,,,108.19666100000904,108.21161929999651,108.21161929999651,108.73071560000244,b,1.0,0.5163503999938257,,108.73183220000648,108.74521980001008,109.73058210000454,109.74574880000728,,,,,,,,,,,,,,,,,,,sub-133,1,stroop_test,59.885403289374,
,,,,22.0,10.0,1.0,,,,,gelb,red,r,0.0,r,1.0,0.6905918999982532,,,,,,,,,,,,,,1.0,10.0,22.0,8.0,,,,,109.74574880000728,,,,,,,,,,,,,,,,,109.73106790000747,109.84625830000732,110.64645080000628,110.63079650000144,,,,,,,,,,,,,,,,110.63677219999954,110.64645080000628,110.64645080000628,111.34882630000357,r,1.0,0.6905918999982532,,111.34974689999945,111.36395530001028,112.34851140000684,112.36437999999907,,,,,,,,,,,,,,,,,,,sub-133,1,stroop_test,59.885403289374,
,,,,23.0,11.0,1.0,,,,,blau,red,r,0.0,r,1.0,1.179568499996094,,,,,,,,,,,,,,1.0,11.0,23.0,4.0,,,,,112.36437999999907,,,,,,,,,,,,,,,,,112.34885460000078,112.69811749999644,113.49854670000786,113.48318219999784,,,,,,,,,,,,,,,,113.4891682000016,113.49854670000786,113.49854670000786,114.68444470000397,r,1.0,1.179568499996094,,114.68524890000116,114.69942150000134,115.68457120000676,115.69998340000166,,,,,,,,,,,,,,,,,,,sub-133,1,stroop_test,59.885403289374,
,,,,,,,,,,,,,,,,,,,,,,,,,,,,,,,,,,,,,,,,,,,,,,,,,,,,,,,,,,,,,,,,,,,,,,,,,,,,,,,,,,,,,,,115.68506669999624,115.69998340000166,115.69998340000166,121.38864679999824,space,5.677350300000398,,,,,,,,,,,,,sub-133,1,stroop_test,59.885403289374,
,,,,0.0,0.0,0.0,,,,,,,,,,,,,rot,blue,b,0.0,b,1.0,0.929017799993744,,,,,,,,,,0.0,0.0,0.0,2.0,121.5272610999964,,,,,,,,,,,,,,,,,121.5217724999966,121.5272610999964,122.33808030000364,122.322379300007,,,,,,,,,,,,,,,,,,,,,,,,,,,,,,,,,,,122.32596850000846,122.33808030000364,122.33808030000364,123.273211599997,b,1.0,0.929017799993744,,,,,sub-133,1,stroop_test,59.885403289374,
,,,,1.0,1.0,0.0,,,,,,,,,,,,,rot,red,r,1.0,r,1.0,1.174204800001462,,,,,,,,,,0.0,1.0,1.0,1.0,123.2884575000062,,,,,,,,,,,,,,,,,123.27364680000755,124.47284180000132,125.27341310000338,125.25760750001064,,,,,,,,,,,,,,,,,,,,,,,,,,,,,,,,,,,125.25836210000853,125.27341310000338,125.27341310000338,126.45937019999838,r,1.0,1.174204800001462,,,,,sub-133,1,stroop_test,59.885403289374,
,,,,2.0,2.0,0.0,,,,,,,,,,,,,blau,red,r,0.0,r,1.0,0.6825812999886693,,,,,,,,,,0.0,2.0,2.0,4.0,126.47437429999992,,,,,,,,,,,,,,,,,126.45999149999987,127.674963700003,128.47556600000826,128.45986699999776,,,,,,,,,,,,,,,,,,,,,,,,,,,,,,,,,,,128.46611520000442,128.47556600000826,128.47556600000826,129.1613269000081,r,1.0,0.6825812999886693,,,,,sub-133,1,stroop_test,59.885403289374,
,,,,3.0,3.0,0.0,,,,,,,,,,,,,blau,yellow,g,0.0,g,1.0,0.978391600001487,,,,,,,,,,0.0,3.0,3.0,7.0,129.17622390000906,,,,,,,,,,,,,,,,,129.16190600000846,130.3602952000074,131.1605903000018,131.1449045000045,,,,,,,,,,,,,,,,,,,,,,,,,,,,,,,,,,,131.1455477999989,131.1605903000018,131.1605903000018,132.1465898000024,g,1.0,0.978391600001487,,,,,sub-133,1,stroop_test,59.885403289374,
,,,,4.0,4.0,0.0,,,,,,,,,,,,,blau,blue,b,1.0,b,1.0,0.6270924999989802,,,,,,,,,,0.0,4.0,4.0,5.0,132.16121590000694,,,,,,,,,,,,,,,,,132.14731280000706,132.26150880000205,133.06229950000125,133.04671080000116,,,,,,,,,,,,,,,,,,,,,,,,,,,,,,,,,,,133.0473944999976,133.06229950000125,133.06229950000125,133.6980426000082,b,1.0,0.6270924999989802,,,,,sub-133,1,stroop_test,59.885403289374,
,,,,5.0,5.0,0.0,,,,,,,,,,,,,gelb,red,r,0.0,r,1.0,0.6048762999998871,,,,,,,,,,0.0,5.0,5.0,8.0,133.71251280000433,,,,,,,,,,,,,,,,,133.69880530000955,134.0627036000078,134.86343460000353,134.84817949999706,,,,,,,,,,,,,,,,,,,,,,,,,,,,,,,,,,,134.85425099999702,134.86343460000353,134.86343460000353,135.48220610000135,r,1.0,0.6048762999998871,,,,,sub-133,1,stroop_test,59.885403289374,
,,,,6.0,6.0,0.0,,,,,,,,,,,,,blau,blue,b,1.0,b,1.0,0.6011632000008831,,,,,,,,,,0.0,6.0,6.0,6.0,135.4974280000024,,,,,,,,,,,,,,,,,135.48275770001055,135.5971062000026,136.39759809999669,136.38187930001004,,,,,,,,,,,,,,,,,,,,,,,,,,,,,,,,,,,136.38738630000444,136.39759809999669,136.39759809999669,137.0007578000077,b,1.0,0.6011632000008831,,,,,sub-133,1,stroop_test,59.885403289374,
,,,,7.0,7.0,0.0,,,,,,,,,,,,,rot,red,r,1.0,r,1.0,0.6831428000004962,,,,,,,,,,0.0,7.0,7.0,0.0,137.01491030000034,,,,,,,,,,,,,,,,,137.00153190000856,138.21605210000416,139.0160584999976,139.00042720000783,,,,,,,,,,,,,,,,,,,,,,,,,,,,,,,,,,,139.00606159999734,139.0160584999976,139.0160584999976,139.7018126000039,r,1.0,0.6831428000004962,,,,,sub-133,1,stroop_test,59.885403289374,
,,,,8.0,8.0,0.0,,,,,,,,,,,,,rot,yellow,g,0.0,b,0.0,0.5609275000024354,,,,,,,,,,0.0,8.0,8.0,3.0,139.71668209999916,,,,,,,,,,,,,,,,,139.70256710000103,140.0668896999996,140.86772590001056,140.85190639999928,,,,,,,,,,,,,,,,,,,,,,,,,,,,,,,,,,,140.85269590000098,140.86772590001056,140.86772590001056,141.43744550000702,b,0.0,0.5609275000024354,,,,,sub-133,1,stroop_test,59.885403289374,
,,,,9.0,9.0,0.0,,,,,,,,,,,,,gelb,blue,b,0.0,b,1.0,0.6066339999961201,,,,,,,,,,0.0,9.0,9.0,9.0,141.45111950000864,,,,,,,,,,,,,,,,,141.43840790000104,141.80135720000544,142.60178579999774,142.5865480000066,,,,,,,,,,,,,,,,,,,,,,,,,,,,,,,,,,,142.5939444000105,142.60178579999774,142.60178579999774,143.22074210000574,b,1.0,0.6066339999961201,,,,,sub-133,1,stroop_test,59.885403289374,
,,,,10.0,10.0,0.0,,,,,,,,,,,,,gelb,yellow,g,1.0,r,0.0,0.6234676000021864,,,,,,,,,,0.0,10.0,10.0,10.0,143.23573600000236,,,,,,,,,,,,,,,,,143.22125129999768,143.33587010001065,144.13633760000812,144.1207604000083,,,,,,,,,,,,,,,,,,,,,,,,,,,,,,,,,,,144.12144630000694,144.13633760000812,144.13633760000812,144.77189230000658,r,0.0,0.6234676000021864,,,,,sub-133,1,stroop_test,59.885403289374,
,,,,11.0,11.0,0.0,,,,,,,,,,,,,gelb,yellow,g,1.0,g,1.0,0.6114568000048166,,,,,,,,,,0.0,11.0,11.0,11.0,144.78683789999923,,,,,,,,,,,,,,,,,144.7724625999981,145.1371288000082,145.9375837999978,145.92173070000717,,,,,,,,,,,,,,,,,,,,,,,,,,,,,,,,,,,145.9224940999993,145.9375837999978,145.9375837999978,146.55674179999914,g,1.0,0.6114568000048166,,,,,sub-133,1,stroop_test,59.885403289374,
,,,,12.0,0.0,1.0,,,,,,,,,,,,,blau,blue,b,1.0,b,1.0,0.4668107000034069,,,,,,,,,,1.0,0.0,12.0,6.0,146.5713767999987,,,,,,,,,,,,,,,,,146.55729209999845,146.92191699999967,147.72217649999948,147.70654820000345,,,,,,,,,,,,,,,,,,,,,,,,,,,,,,,,,,,147.71189459999732,147.72217649999948,147.72217649999948,148.19148200000927,b,1.0,0.4668107000034069,,,,,sub-133,1,stroop_test,59.885403289374,
,,,,13.0,1.0,1.0,,,,,,,,,,,,,gelb,blue,b,0.0,b,1.0,0.7837613000010606,,,,,,,,,,1.0,1.0,13.0,9.0,148.2061110000068,,,,,,,,,,,,,,,,,148.19213320000563,148.30590649999797,149.10641110000142,149.0909563000023,,,,,,,,,,,,,,,,,,,,,,,,,,,,,,,,,,,149.09718510000675,149.10641110000142,149.10641110000142,149.89195930000278,b,1.0,0.7837613000010606,,,,,sub-133,1,stroop_test,59.885403289374,
,,,,14.0,2.0,1.0,,,,,,,,,,,,,blau,red,r,0.0,r,1.0,0.6503852000023471,,,,,,,,,,1.0,2.0,14.0,4.0,149.90676270000404,,,,,,,,,,,,,,,,,149.89247299999988,150.70729520000168,151.50785069999984,151.49249099999724,,,,,,,,,,,,,,,,,,,,,,,,,,,,,,,,,,,151.49683930000174,151.50785069999984,151.50785069999984,152.1602913000097,r,1.0,0.6503852000023471,,,,,sub-133,1,stroop_test,59.885403289374,
,,,,15.0,3.0,1.0,,,,,,,,,,,,,rot,yellow,g,0.0,g,1.0,0.3590337000059662,,,,,,,,,,1.0,3.0,15.0,3.0,152.17525030000252,,,,,,,,,,,,,,,,,152.16081329999724,153.35939140000846,154.1600579000078,154.14443500000925,,,,,,,,,,,,,,,,,,,,,,,,,,,,,,,,,,,154.15033519999997,154.1600579000078,154.1600579000078,154.52898149999965,g,1.0,0.3590337000059662,,,,,sub-133,1,stroop_test,59.885403289374,
,,,,16.0,4.0,1.0,,,,,,,,,,,,,blau,blue,b,1.0,b,1.0,0.5340395999955945,,,,,,,,,,1.0,4.0,16.0,5.0,154.5436350000091,,,,,,,,,,,,,,,,,154.52954480001063,154.6432754999987,155.44436540000606,155.42866610000783,,,,,,,,,,,,,,,,,,,,,,,,,,,,,,,,,,,155.43479700000898,155.44436540000606,155.44436540000606,155.98038980001002,b,1.0,0.5340395999955945,,,,,sub-133,1,stroop_test,59.885403289374,
,,,,17.0,5.0,1.0,,,,,,,,,,,,,rot,red,r,1.0,r,1.0,0.5641974000027403,,,,,,,,,,1.0,5.0,17.0,1.0,155.99469540000428,,,,,,,,,,,,,,,,,155.98147810000228,156.09489400000894,156.89513920000172,156.87960490000842,,,,,,,,,,,,,,,,,,,,,,,,,,,,,,,,,,,156.88525430001027,156.89513920000172,156.89513920000172,157.4639513000002,r,1.0,0.5641974000027403,,,,,sub-133,1,stroop_test,59.885403289374,
,,,,18.0,6.0,1.0,,,,,,,,,,,,,gelb,yellow,g,1.0,g,1.0,0.6191153999970993,,,,,,,,,,1.0,6.0,18.0,11.0,157.47897219999868,,,,,,,,,,,,,,,,,157.46462189999875,158.2796165000036,159.07995450000453,159.06449430000794,,,,,,,,,,,,,,,,,,,,,,,,,,,,,,,,,,,159.0702350000065,159.07995450000453,159.07995450000453,159.7155946999992,g,1.0,0.6191153999970993,,,,,sub-133,1,stroop_test,59.885403289374,
,,,,19.0,7.0,1.0,,,,,,,,,,,,,rot,red,r,1.0,r,1.0,1.1092988000018522,,,,,,,,,,1.0,7.0,19.0,0.0,159.7306704000075,,,,,,,,,,,,,,,,,159.71619320000173,160.53120740001032,161.33907319999707,161.31625299999723,,,,,,,,,,,,,,,,,,,,,,,,,,,,,,,,,,,161.32367500000692,161.33907319999707,161.33907319999707,162.45071600000665,r,1.0,1.1092988000018522,,,,,sub-133,1,stroop_test,59.885403289374,
,,,,20.0,8.0,1.0,,,,,,,,,,,,,gelb,yellow,g,1.0,g,1.0,0.6186419000005117,,,,,,,,,,1.0,8.0,20.0,10.0,162.46564890000445,,,,,,,,,,,,,,,,,162.45117250000476,163.6499743000022,164.45058580000477,164.4349302000046,,,,,,,,,,,,,,,,,,,,,,,,,,,,,,,,,,,164.44125390000409,164.45058580000477,164.45058580000477,165.0859134000057,g,1.0,0.6186419000005117,,,,,sub-133,1,stroop_test,59.885403289374,
,,,,21.0,9.0,1.0,,,,,,,,,,,,,gelb,red,r,0.0,b,0.0,1.0772886000049766,,,,,,,,,,1.0,9.0,21.0,8.0,165.10079740000947,,,,,,,,,,,,,,,,,165.08655500000168,165.45117090000713,166.25178760000563,166.23605810001027,,,,,,,,,,,,,,,,,,,,,,,,,,,,,,,,,,,166.23676179999893,166.25178760000563,166.25178760000563,167.33773559999827,b,0.0,1.0772886000049766,,,,,sub-133,1,stroop_test,59.885403289374,
,,,,22.0,10.0,1.0,,,,,,,,,,,,,blau,yellow,g,0.0,b,0.0,0.9371531000069808,,,,,,,,,,1.0,10.0,22.0,7.0,167.3523131999973,,,,,,,,,,,,,,,,,167.33840000000782,168.55342810000002,169.37120819999836,169.3382988000085,,,,,,,,,,,,,,,,,,,,,,,,,,,,,,,,,,,169.34467620000942,169.37120819999836,169.37120819999836,170.32360640000843,b,0.0,0.9371531000069808,,,,,sub-133,1,stroop_test,59.885403289374,
,,,,23.0,11.0,1.0,,,,,,,,,,,,,rot,blue,b,0.0,b,1.0,0.790782100011711,,,,,,,,,,1.0,11.0,23.0,2.0,170.33776160000707,,,,,,,,,,,,,,,,,170.3244551000098,170.68794000000344,171.48844960000133,171.47228660000837,,,,,,,,,,,,,,,,,,,,,,,,,,,,,,,,,,,171.4769540999987,171.48844960000133,171.48844960000133,172.29132850001042,b,1.0,0.790782100011711,,,,,sub-133,1,stroop_test,59.885403289374,
,,,,24.0,0.0,2.0,,,,,,,,,,,,,blau,blue,b,1.0,b,1.0,0.7225589000008767,,,,,,,,,,2.0,0.0,24.0,6.0,172.3057919999992,,,,,,,,,,,,,,,,,172.29207060000044,173.50677429999632,174.30715079999936,174.29196260000754,,,,,,,,,,,,,,,,,,,,,,,,,,,,,,,,,,,174.29770540000754,174.30715079999936,174.30715079999936,175.0429713000049,b,1.0,0.7225589000008767,,,,,sub-133,1,stroop_test,59.885403289374,
,,,,25.0,1.0,2.0,,,,,,,,,,,,,gelb,yellow,g,1.0,g,1.0,1.0292128000000955,,,,,,,,,,2.0,1.0,25.0,10.0,175.05780760000926,,,,,,,,,,,,,,,,,175.0436117000063,175.15771680000762,175.95963450000272,175.94274030000088,,,,,,,,,,,,,,,,,,,,,,,,,,,,,,,,,,,175.9507231000025,175.95963450000272,175.95963450000272,176.9943485999975,g,1.0,1.0292128000000955,,,,,sub-133,1,stroop_test,59.885403289374,
,,,,26.0,2.0,2.0,,,,,,,,,,,,,gelb,blue,b,0.0,b,1.0,0.6383933000033721,,,,,,,,,,2.0,2.0,26.0,9.0,177.0090487999987,,,,,,,,,,,,,,,,,176.99499040000956,178.20981559999927,179.0104435999965,178.99473330000183,,,,,,,,,,,,,,,,,,,,,,,,,,,,,,,,,,,178.99557470000582,179.0104435999965,179.0104435999965,179.66281850000087,b,1.0,0.6383933000033721,,,,,sub-133,1,stroop_test,59.885403289374,
,,,,27.0,3.0,2.0,,,,,,,,,,,,,gelb,yellow,g,1.0,g,1.0,0.5976490000030026,,,,,,,,,,2.0,3.0,27.0,11.0,179.6777587000106,,,,,,,,,,,,,,,,,179.66335940000135,180.86189100000772,181.66227539999815,181.6465267000021,,,,,,,,,,,,,,,,,,,,,,,,,,,,,,,,,,,181.64726630000223,181.66227539999815,181.66227539999815,182.2650660000072,g,1.0,0.5976490000030026,,,,,sub-133,1,stroop_test,59.885403289374,
,,,,28.0,4.0,2.0,,,,,,,,,,,,,blau,yellow,g,0.0,g,1.0,0.6381359000079101,,,,,,,,,,2.0,4.0,28.0,7.0,182.27945580000232,,,,,,,,,,,,,,,,,182.2655870000017,183.4799750000093,184.28066650000983,184.2652759000048,,,,,,,,,,,,,,,,,,,,,,,,,,,,,,,,,,,184.2715844000049,184.28066650000983,184.28066650000983,184.9330191000045,g,1.0,0.6381359000079101,,,,,sub-133,1,stroop_test,59.885403289374,
,,,,29.0,5.0,2.0,,,,,,,,,,,,,rot,red,r,1.0,r,1.0,0.5299643000034848,,,,,,,,,,2.0,5.0,29.0,1.0,184.9480087999982,,,,,,,,,,,,,,,,,184.93359329999657,185.298143100008,186.0987072999997,186.0832947000017,,,,,,,,,,,,,,,,,,,,,,,,,,,,,,,,,,,186.0903573000105,186.0987072999997,186.0987072999997,186.6337407999963,r,1.0,0.5299643000034848,,,,,sub-133,1,stroop_test,59.885403289374,
,,,,30.0,6.0,2.0,,,,,,,,,,,,,rot,red,r,1.0,r,1.0,0.5285313999920618,,,,,,,,,,2.0,6.0,30.0,0.0,186.6488803999964,,,,,,,,,,,,,,,,,186.63434360000247,186.99892670000557,187.79992160000256,187.7845497000089,,,,,,,,,,,,,,,,,,,,,,,,,,,,,,,,,,,187.78528950001052,187.79992160000256,187.79992160000256,188.3349309000041,r,1.0,0.5285313999920618,,,,,sub-133,1,stroop_test,59.885403289374,
,,,,31.0,7.0,2.0,,,,,,,,,,,,,blau,blue,b,1.0,b,1.0,0.6149967999954242,,,,,,,,,,2.0,7.0,31.0,5.0,188.3501030000043,,,,,,,,,,,,,,,,,188.3353497000062,189.1342775000085,189.9345699999976,189.91883500000404,,,,,,,,,,,,,,,,,,,,,,,,,,,,,,,,,,,189.9236241000035,189.9345699999976,189.9345699999976,190.55385379999643,b,1.0,0.6149967999954242,,,,,sub-133,1,stroop_test,59.885403289374,
,,,,32.0,8.0,2.0,,,,,,,,,,,,,gelb,red,r,0.0,r,1.0,1.2792468999978155,,,,,,,,,,2.0,8.0,32.0,8.0,190.568577500002,,,,,,,,,,,,,,,,,190.55438420000428,191.3691222000052,192.1694317000074,192.1542180999968,,,,,,,,,,,,,,,,,,,,,,,,,,,,,,,,,,,192.16271080001025,192.1694317000074,192.1694317000074,193.4551419000054,r,1.0,1.2792468999978155,,,,,sub-133,1,stroop_test,59.885403289374,
,,,,33.0,9.0,2.0,,,,,,,,,,,,,rot,yellow,g,0.0,g,1.0,0.778607500004,,,,,,,,,,2.0,9.0,33.0,3.0,193.47055040000123,,,,,,,,,,,,,,,,,193.45557830001053,193.57062840000435,194.3711822000041,194.35540919999767,,,,,,,,,,,,,,,,,,,,,,,,,,,,,,,,,,,194.36149440000008,194.3711822000041,194.3711822000041,195.1574571000092,g,1.0,0.778607500004,,,,,sub-133,1,stroop_test,59.885403289374,
,,,,34.0,10.0,2.0,,,,,,,,,,,,,blau,red,r,0.0,b,0.0,0.6162758999998914,,,,,,,,,,2.0,10.0,34.0,4.0,195.1714981999976,,,,,,,,,,,,,,,,,195.15814300000784,195.9721475999977,196.77299640000277,196.75721530000737,,,,,,,,,,,,,,,,,,,,,,,,,,,,,,,,,,,196.76272700000845,196.77299640000277,196.77299640000277,197.39223060000225,b,0.0,0.6162758999998914,,,,,sub-133,1,stroop_test,59.885403289374,
,,,,35.0,11.0,2.0,,,,,,,,,,,,,rot,blue,b,0.0,b,1.0,0.7787152000091737,,,,,,,,,,2.0,11.0,35.0,2.0,197.4067254999973,,,,,,,,,,,,,,,,,197.3929416000028,198.60722620000888,199.40983270001016,199.39306860000943,,,,,,,,,,,,,,,,,,,,,,,,,,,,,,,,,,,199.40215300000276,199.40983270001016,199.40983270001016,200.19402860000264,b,1.0,0.7787152000091737,,,,,sub-133,1,stroop_test,59.885403289374,
,,,,36.0,0.0,3.0,,,,,,,,,,,,,blau,blue,b,1.0,b,1.0,0.5596865999978036,,,,,,,,,,3.0,0.0,36.0,6.0,200.20815580000635,,,,,,,,,,,,,,,,,200.194542600002,200.55868400000327,201.35935430000245,201.34396169999675,,,,,,,,,,,,,,,,,,,,,,,,,,,,,,,,,,,201.34926780000387,201.35935430000245,201.35935430000245,201.9289138000022,b,1.0,0.5596865999978036,,,,,sub-133,1,stroop_test,59.885403289374,
,,,,37.0,1.0,3.0,,,,,,,,,,,,,gelb,yellow,g,1.0,g,1.0,0.6848210000025574,,,,,,,,,,3.0,1.0,37.0,11.0,201.94314160000067,,,,,,,,,,,,,,,,,201.92949350000708,202.29331350000572,203.09400170001027,203.0782543000096,,,,,,,,,,,,,,,,,,,,,,,,,,,,,,,,,,,203.08430529999896,203.09400170001027,203.09400170001027,203.7960652000038,g,1.0,0.6848210000025574,,,,,sub-133,1,stroop_test,59.885403289374,
,,,,38.0,2.0,3.0,,,,,,,,,,,,,gelb,red,r,0.0,r,1.0,0.5974661000072956,,,,,,,,,,3.0,2.0,38.0,8.0,203.81095020000063,,,,,,,,,,,,,,,,,203.7966530999984,204.1613370999985,204.96188170000096,204.94615709999923,,,,,,,,,,,,,,,,,,,,,,,,,,,,,,,,,,,204.94696270000716,204.96188170000096,204.96188170000096,205.56399370000872,r,1.0,0.5974661000072956,,,,,sub-133,1,stroop_test,59.885403289374,
,,,,39.0,3.0,3.0,,,,,,,,,,,,,blau,red,r,0.0,r,1.0,0.658737799996743,,,,,,,,,,3.0,3.0,39.0,4.0,205.5787993999984,,,,,,,,,,,,,,,,,205.56464670000423,206.77993550000247,207.58056509999733,207.5645191000076,,,,,,,,,,,,,,,,,,,,,,,,,,,,,,,,,,,207.56988419999837,207.58056509999733,207.58056509999733,208.24915129999863,r,1.0,0.658737799996743,,,,,sub-133,1,stroop_test,59.885403289374,
,,,,40.0,4.0,3.0,,,,,,,,,,,,,blau,yellow,g,0.0,g,1.0,0.7032955000031507,,,,,,,,,,3.0,4.0,40.0,7.0,208.26407540000216,,,,,,,,,,,,,,,,,208.2497697000072,209.06460740001057,209.86513269999705,209.8497025000106,,,,,,,,,,,,,,,,,,,,,,,,,,,,,,,,,,,209.85048560000723,209.86513269999705,209.86513269999705,210.58423560000665,g,1.0,0.7032955000031507,,,,,sub-133,1,stroop_test,59.885403289374,
,,,,41.0,5.0,3.0,,,,,,,,,,,,,gelb,blue,b,0.0,b,1.0,0.668979499998386,,,,,,,,,,3.0,5.0,41.0,9.0,210.59907009999733,,,,,,,,,,,,,,,,,210.5848626000079,210.94911370000045,211.7496919999976,211.73422769999888,,,,,,,,,,,,,,,,,,,,,,,,,,,,,,,,,,,211.74033519999648,211.7496919999976,211.7496919999976,212.4354391000088,b,1.0,0.668979499998386,,,,,sub-133,1,stroop_test,59.885403289374,
,,,,42.0,6.0,3.0,,,,,,,,,,,,,rot,blue,b,0.0,r,0.0,2.327656699999352,,,,,,,,,,3.0,6.0,42.0,2.0,212.45019480001065,,,,,,,,,,,,,,,,,212.43607409999825,212.55034549999985,213.35081679999712,213.33541890000924,,,,,,,,,,,,,,,,,,,,,,,,,,,,,,,,,,,213.342561700003,213.35081679999712,213.35081679999712,215.6877649000089,r,0.0,2.327656699999352,,,,,sub-133,1,stroop_test,59.885403289374,
,,,,43.0,7.0,3.0,,,,,,,,,,,,,blau,blue,b,1.0,b,1.0,0.5356401000026381,,,,,,,,,,3.0,7.0,43.0,5.0,215.7026069999993,,,,,,,,,,,,,,,,,215.68832939999996,216.90336820000084,217.7039100999973,217.68854990000543,,,,,,,,,,,,,,,,,,,,,,,,,,,,,,,,,,,217.6950041000091,217.7039100999973,217.7039100999973,218.25597969999944,b,1.0,0.5356401000026381,,,,,sub-133,1,stroop_test,59.885403289374,
,,,,44.0,8.0,3.0,,,,,,,,,,,,,rot,yellow,g,0.0,g,1.0,0.6981440000090515,,,,,,,,,,3.0,8.0,44.0,3.0,218.27096750000783,,,,,,,,,,,,,,,,,218.2565966999973,219.4550955000013,220.26200160000008,220.24030960000528,,,,,,,,,,,,,,,,,,,,,,,,,,,,,,,,,,,220.2474597999972,220.26200160000008,220.26200160000008,220.9747492000024,g,1.0,0.6981440000090515,,,,,sub-133,1,stroop_test,59.885403289374,
,,,,45.0,9.0,3.0,,,,,,,,,,,,,rot,red,r,1.0,r,1.0,0.6088933999999426,,,,,,,,,,3.0,9.0,45.0,0.0,220.989539400005,,,,,,,,,,,,,,,,,220.97531110000276,221.78994650000823,222.59071380000387,222.57539070000348,,,,,,,,,,,,,,,,,,,,,,,,,,,,,,,,,,,222.5761311000097,222.59071380000387,222.59071380000387,223.2095244000084,r,1.0,0.6088933999999426,,,,,sub-133,1,stroop_test,59.885403289374,
,,,,46.0,10.0,3.0,,,,,,,,,,,,,rot,red,r,1.0,r,1.0,0.4153729999961797,,,,,,,,,,3.0,10.0,46.0,1.0,223.22458809999807,,,,,,,,,,,,,,,,,223.21008260000963,224.02499070001068,224.82558190000415,224.80993620000663,,,,,,,,,,,,,,,,,,,,,,,,,,,,,,,,,,,224.8108018000057,224.82558190000415,224.82558190000415,225.24444180000864,r,1.0,0.4153729999961797,,,,,sub-133,1,stroop_test,59.885403289374,
,,,,47.0,11.0,3.0,,,,,,,,,,,,,gelb,yellow,g,1.0,g,1.0,0.5102001000050223,,,,,,,,,,3.0,11.0,47.0,10.0,225.25913180000495,,,,,,,,,,,,,,,,,225.24507250000897,226.459858000002,227.2605987999996,227.2445264999988,,,,,,,,,,,,,,,,,,,,,,,,,,,,,,,,,,,227.25041700000293,227.2605987999996,227.2605987999996,227.7795702000003,g,1.0,0.5102001000050223,,,,,sub-133,1,stroop_test,59.885403289374,
,,,,48.0,0.0,4.0,,,,,,,,,,,,,blau,blue,b,1.0,b,1.0,0.5546695999946678,,,,,,,,,,4.0,0.0,48.0,5.0,227.7943607000052,,,,,,,,,,,,,,,,,227.78011459999837,228.59481080000117,229.39520150001044,229.37934939999832,,,,,,,,,,,,,,,,,,,,,,,,,,,,,,,,,,,229.38437230000272,229.39520150001044,229.39520150001044,229.96459709999908,b,1.0,0.5546695999946678,,,,,sub-133,1,stroop_test,59.885403289374,
,,,,49.0,1.0,4.0,,,,,,,,,,,,,gelb,blue,b,0.0,b,1.0,0.7285023000004003,,,,,,,,,,4.0,1.0,49.0,9.0,229.9787834000017,,,,,,,,,,,,,,,,,229.96534650000103,230.77984830000787,231.58097730000736,231.56436630000823,,,,,,,,,,,,,,,,,,,,,,,,,,,,,,,,,,,231.5716359000071,231.58097730000736,231.58097730000736,232.3163896000042,b,1.0,0.7285023000004003,,,,,sub-133,1,stroop_test,59.885403289374,
,,,,50.0,2.0,4.0,,,,,,,,,,,,,blau,blue,b,1.0,b,1.0,0.4675824999867473,,,,,,,,,,4.0,2.0,50.0,6.0,232.33050029999868,,,,,,,,,,,,,,,,,232.3169590000034,233.5313851999963,234.33213270000124,234.31639449999784,,,,,,,,,,,,,,,,,,,,,,,,,,,,,,,,,,,234.3225892000046,234.33213270000124,234.33213270000124,234.8016896000045,b,1.0,0.4675824999867473,,,,,sub-133,1,stroop_test,59.885403289374,
,,,,51.0,3.0,4.0,,,,,,,,,,,,,rot,red,r,1.0,r,1.0,0.6609600000083447,,,,,,,,,,4.0,3.0,51.0,1.0,234.81582309999797,,,,,,,,,,,,,,,,,234.80241930000196,235.16601240000452,235.9699452000059,235.95097570000507,,,,,,,,,,,,,,,,,,,,,,,,,,,,,,,,,,,235.95740850000584,235.9699452000059,235.9699452000059,236.63568320000195,r,1.0,0.6609600000083447,,,,,sub-133,1,stroop_test,59.885403289374,
,,,,52.0,4.0,4.0,,,,,,,,,,,,,gelb,red,r,0.0,r,1.0,0.9475318999902812,,,,,,,,,,4.0,4.0,52.0,8.0,236.65055830001077,,,,,,,,,,,,,,,,,236.63633020001,236.7506987000088,237.5534314999968,237.5352972999972,,,,,,,,,,,,,,,,,,,,,,,,,,,,,,,,,,,237.5420802000008,237.5534314999968,237.5534314999968,238.5039991000085,r,1.0,0.9475318999902812,,,,,sub-133,1,stroop_test,59.885403289374,
,,,,53.0,5.0,4.0,,,,,,,,,,,,,rot,yellow,g,0.0,g,1.0,0.6757981999980984,,,,,,,,,,4.0,5.0,53.0,3.0,238.51842600000964,,,,,,,,,,,,,,,,,238.50461020000512,239.31881630000132,240.12390920000323,240.10375019999628,,,,,,,,,,,,,,,,,,,,,,,,,,,,,,,,,,,240.11073900001065,240.12390920000323,240.12390920000323,240.80500069999837,g,1.0,0.6757981999980984,,,,,sub-133,1,stroop_test,59.885403289374,
,,,,54.0,6.0,4.0,,,,,,,,,,,,,gelb,yellow,g,1.0,g,1.0,0.3689424000040162,,,,,,,,,,4.0,6.0,54.0,11.0,240.81999600000563,,,,,,,,,,,,,,,,,240.80564920000324,241.17014860000927,241.97063530000744,241.95540780000735,,,,,,,,,,,,,,,,,,,,,,,,,,,,,,,,,,,241.96238560001075,241.97063530000744,241.97063530000744,242.3560132999992,g,1.0,0.3689424000040162,,,,,sub-133,1,stroop_test,59.885403289374,
,,,,55.0,7.0,4.0,,,,,,,,,,,,,blau,red,r,0.0,b,0.0,0.8385102000029292,,,,,,,,,,4.0,7.0,55.0,4.0,242.37099170000877,,,,,,,,,,,,,,,,,242.3565586000041,242.72116760000063,243.52175810000332,243.50615280000784,,,,,,,,,,,,,,,,,,,,,,,,,,,,,,,,,,,243.5117832000105,243.52175810000332,243.52175810000332,244.3740792000026,b,0.0,0.8385102000029292,,,,,sub-133,1,stroop_test,59.885403289374,
,,,,56.0,8.0,4.0,,,,,,,,,,,,,gelb,yellow,g,1.0,g,1.0,0.7003545000043232,,,,,,,,,,4.0,8.0,56.0,10.0,244.38903020000728,,,,,,,,,,,,,,,,,244.37472659999912,244.7392835000064,245.53981000000203,245.52413160000287,,,,,,,,,,,,,,,,,,,,,,,,,,,,,,,,,,,245.53021930000975,245.53981000000203,245.53981000000203,246.24251900000672,g,1.0,0.7003545000043232,,,,,sub-133,1,stroop_test,59.885403289374,
,,,,57.0,9.0,4.0,,,,,,,,,,,,,blau,yellow,g,0.0,g,1.0,0.6520372999948449,,,,,,,,,,4.0,9.0,57.0,7.0,246.2572456000053,,,,,,,,,,,,,,,,,246.24319350000587,247.45786399999636,248.2583386000042,248.24282300000775,,,,,,,,,,,,,,,,,,,,,,,,,,,,,,,,,,,248.24823800000013,248.2583386000042,248.2583386000042,248.92745679999643,g,1.0,0.6520372999948449,,,,,sub-133,1,stroop_test,59.885403289374,
,,,,58.0,10.0,4.0,,,,,,,,,,,,,rot,red,r,1.0,r,1.0,0.5776870999980019,,,,,,,,,,4.0,10.0,58.0,0.0,248.9420070000051,,,,,,,,,,,,,,,,,248.92808880000663,249.0424592000054,249.84278350000383,249.8269702000107,,,,,,,,,,,,,,,,,,,,,,,,,,,,,,,,,,,249.83281089999943,249.84278350000383,249.84278350000383,250.42843189999985,r,1.0,0.5776870999980019,,,,,sub-133,1,stroop_test,59.885403289374,
,,,,59.0,11.0,4.0,,,,,,,,,,,,,rot,blue,b,0.0,b,1.0,0.4956835000048158,,,,,,,,,,4.0,11.0,59.0,2.0,250.44325120000576,,,,,,,,,,,,,,,,,250.42903559999831,250.54318920000517,251.34390669999996,251.32829930000295,,,,,,,,,,,,,,,,,,,,,,,,,,,,,,,,,,,251.32924690000075,251.34390669999996,251.34390669999996,251.846065500009,b,1.0,0.4956835000048158,,,,,sub-133,1,stroop_test,59.885403289374,
,,,,60.0,0.0,5.0,,,,,,,,,,,,,blau,blue,b,1.0,b,1.0,0.5288979000033578,,,,,,,,,,5.0,0.0,60.0,6.0,251.86076850000245,,,,,,,,,,,,,,,,,251.84684820000257,252.21099639999736,253.01165450000556,252.9958478000044,,,,,,,,,,,,,,,,,,,,,,,,,,,,,,,,,,,253.00197209999897,253.01165450000556,253.01165450000556,253.5471863999992,b,1.0,0.5288979000033578,,,,,sub-133,1,stroop_test,59.885403289374,
,,,,61.0,1.0,5.0,,,,,,,,,,,,,rot,red,r,1.0,r,1.0,0.8648396999924444,,,,,,,,,,5.0,1.0,61.0,0.0,253.56212680001045,,,,,,,,,,,,,,,,,253.5477575999976,254.76291400000628,255.56570439999632,255.54808390000835,,,,,,,,,,,,,,,,,,,,,,,,,,,,,,,,,,,255.55437900000837,255.56570439999632,255.56570439999632,256.43322730000364,r,1.0,0.8648396999924444,,,,,sub-133,1,stroop_test,59.885403289374,
,,,,62.0,2.0,5.0,,,,,,,,,,,,,gelb,red,r,0.0,r,1.0,0.7004181999946013,,,,,,,,,,5.0,2.0,62.0,8.0,256.44736269999703,,,,,,,,,,,,,,,,,256.4338553999987,257.648148200009,258.4502378000034,258.4330867000099,,,,,,,,,,,,,,,,,,,,,,,,,,,,,,,,,,,258.4395549000037,258.4502378000034,258.4502378000034,259.1677475000033,r,1.0,0.7004181999946013,,,,,sub-133,1,stroop_test,59.885403289374,
,,,,63.0,3.0,5.0,,,,,,,,,,,,,gelb,blue,b,0.0,b,1.0,0.5671392999938689,,,,,,,,,,5.0,3.0,63.0,9.0,259.1826669000002,,,,,,,,,,,,,,,,,259.1683015000017,259.5327868000022,260.3331603999977,260.31781750000664,,,,,,,,,,,,,,,,,,,,,,,,,,,,,,,,,,,260.3186168000102,260.3331603999977,260.3331603999977,260.9025236000016,b,1.0,0.5671392999938689,,,,,sub-133,1,stroop_test,59.885403289374,
,,,,64.0,4.0,5.0,,,,,,,,,,,,,rot,yellow,g,0.0,g,1.0,2.5715955999912694,,,,,,,,,,5.0,4.0,64.0,3.0,260.91727340000216,,,,,,,,,,,,,,,,,260.9031490000052,261.7178484000033,262.51822460000403,262.50261730000784,,,,,,,,,,,,,,,,,,,,,,,,,,,,,,,,,,,262.5087593000062,262.51822460000403,262.51822460000403,265.10492690000683,g,1.0,2.5715955999912694,,,,,sub-133,1,stroop_test,59.885403289374,
,,,,65.0,5.0,5.0,,,,,,,,,,,,,blau,red,r,0.0,r,1.0,0.8396364000072936,,,,,,,,,,5.0,5.0,65.0,4.0,265.1199905999965,,,,,,,,,,,,,,,,,265.1055209000042,265.22024229999806,266.0205552999978,266.00514490000205,,,,,,,,,,,,,,,,,,,,,,,,,,,,,,,,,,,266.01092820000486,266.0205552999978,266.0205552999978,266.87312390000443,r,1.0,0.8396364000072936,,,,,sub-133,1,stroop_test,59.885403289374,
,,,,66.0,6.0,5.0,,,,,,,,,,,,,gelb,yellow,g,1.0,g,1.0,2.2015468000026885,,,,,,,,,,5.0,6.0,66.0,10.0,266.8879902000044,,,,,,,,,,,,,,,,,266.8737458000105,267.6883977999969,268.48870600000373,268.4731981000077,,,,,,,,,,,,,,,,,,,,,,,,,,,,,,,,,,,268.480816299998,268.48870600000373,268.48870600000373,270.6928856000013,g,1.0,2.2015468000026885,,,,,sub-133,1,stroop_test,59.885403289374,
,,,,67.0,7.0,5.0,,,,,,,,,,,,,blau,yellow,g,0.0,g,1.0,0.6409993999986909,,,,,,,,,,5.0,7.0,67.0,7.0,270.7070670000103,,,,,,,,,,,,,,,,,270.69350999999733,271.9080285000091,272.7085681000026,272.692913100007,,,,,,,,,,,,,,,,,,,,,,,,,,,,,,,,,,,272.6979132999986,272.7085681000026,272.7085681000026,273.3608977999975,g,1.0,0.6409993999986909,,,,,sub-133,1,stroop_test,59.885403289374,
,,,,68.0,8.0,5.0,,,,,,,,,,,,,blau,blue,b,1.0,b,1.0,0.5395215000025928,,,,,,,,,,5.0,8.0,68.0,5.0,273.37565899999754,,,,,,,,,,,,,,,,,273.3616241999989,274.55992450000485,275.3605208000081,275.34495920001063,,,,,,,,,,,,,,,,,,,,,,,,,,,,,,,,,,,275.34577140001056,275.3605208000081,275.3605208000081,275.91286290000426,b,1.0,0.5395215000025928,,,,,sub-133,1,stroop_test,59.885403289374,
,,,,69.0,9.0,5.0,,,,,,,,,,,,,gelb,yellow,g,1.0,g,1.0,0.511334100010572,,,,,,,,,,5.0,9.0,69.0,11.0,275.92732820000674,,,,,,,,,,,,,,,,,275.9134316999989,276.2779956000013,277.0783070000034,277.0627695000003,,,,,,,,,,,,,,,,,,,,,,,,,,,,,,,,,,,277.06932960000995,277.0783070000034,277.0783070000034,277.5972741000005,g,1.0,0.511334100010572,,,,,sub-133,1,stroop_test,59.885403289374,
,,,,70.0,10.0,5.0,,,,,,,,,,,,,rot,red,r,1.0,r,1.0,0.5960200999979861,,,,,,,,,,5.0,10.0,70.0,1.0,277.6119260999985,,,,,,,,,,,,,,,,,277.59784149999905,277.7120086000068,278.5140642000042,278.4969756000064,,,,,,,,,,,,,,,,,,,,,,,,,,,,,,,,,,,278.50297950000095,278.5140642000042,278.5140642000042,279.11474750000343,r,1.0,0.5960200999979861,,,,,sub-133,1,stroop_test,59.885403289374,
,,,,71.0,11.0,5.0,,,,,,,,,,,,,rot,blue,b,0.0,b,1.0,0.8498218000022462,,,,,,,,,,5.0,11.0,71.0,2.0,279.1295868000016,,,,,,,,,,,,,,,,,279.1154378000065,279.2297161000024,280.03035770000133,280.0147849000059,,,,,,,,,,,,,,,,,,,,,,,,,,,,,,,,,,,280.01546450000023,280.03035770000133,280.03035770000133,280.88298999999824,b,1.0,0.8498218000022462,,,,,sub-133,1,stroop_test,59.885403289374,
,,,,72.0,0.0,6.0,,,,,,,,,,,,,rot,red,r,1.0,r,1.0,1.331402000010712,,,,,,,,,,6.0,0.0,72.0,1.0,280.8974845000048,,,,,,,,,,,,,,,,,280.88365450000856,282.0982536000083,282.8989275000058,282.8834426999965,,,,,,,,,,,,,,,,,,,,,,,,,,,,,,,,,,,282.8841102000006,282.8989275000058,282.8989275000058,284.2349608000077,r,1.0,1.331402000010712,,,,,sub-133,1,stroop_test,59.885403289374,
,,,,73.0,1.0,6.0,,,,,,,,,,,,,blau,blue,b,1.0,b,1.0,0.6696276000002399,,,,,,,,,,6.0,1.0,73.0,6.0,284.24981839999964,,,,,,,,,,,,,,,,,284.2355413000041,284.600099400006,285.4007531000097,285.3850676000002,,,,,,,,,,,,,,,,,,,,,,,,,,,,,,,,,,,285.3916151000012,285.4007531000097,285.4007531000097,286.0861095,b,1.0,0.6696276000002399,,,,,sub-133,1,stroop_test,59.885403289374,
,,,,74.0,2.0,6.0,,,,,,,,,,,,,gelb,yellow,g,1.0,g,1.0,0.554294999994454,,,,,,,,,,6.0,2.0,74.0,11.0,286.1013701000047,,,,,,,,,,,,,,,,,286.0866638000007,286.9016572999972,287.7062955000001,287.6869961000048,,,,,,,,,,,,,,,,,,,,,,,,,,,,,,,,,,,287.69341249999707,287.7062955000001,287.7062955000001,288.27112459999626,g,1.0,0.554294999994454,,,,,sub-133,1,stroop_test,59.885403289374,
,,,,75.0,3.0,6.0,,,,,,,,,,,,,gelb,yellow,g,1.0,g,1.0,0.5733514000021387,,,,,,,,,,6.0,3.0,75.0,10.0,288.2859812000097,,,,,,,,,,,,,,,,,288.27181440001004,288.63640030000533,289.4369713000051,289.4215822999977,,,,,,,,,,,,,,,,,,,,,,,,,,,,,,,,,,,289.4225224999973,289.4369713000051,289.4369713000051,290.02241720000166,g,1.0,0.5733514000021387,,,,,sub-133,1,stroop_test,59.885403289374,
,,,,76.0,4.0,6.0,,,,,,,,,,,,,blau,red,r,0.0,r,1.0,1.6620623999915551,,,,,,,,,,6.0,4.0,76.0,4.0,290.0370762000093,,,,,,,,,,,,,,,,,290.0230645999982,291.2382987000019,292.03881209999963,292.0229055000091,,,,,,,,,,,,,,,,,,,,,,,,,,,,,,,,,,,292.0284280000051,292.03881209999963,292.03881209999963,293.7086219000048,r,1.0,1.6620623999915551,,,,,sub-133,1,stroop_test,59.885403289374,
,,,,77.0,5.0,6.0,,,,,,,,,,,,,blau,yellow,g,0.0,g,1.0,1.8967038999981012,,,,,,,,,,6.0,5.0,77.0,7.0,293.72322270000586,,,,,,,,,,,,,,,,,293.70923170000606,294.9240761999972,295.724535500005,295.7091006999981,,,,,,,,,,,,,,,,,,,,,,,,,,,,,,,,,,,295.7098795000056,295.724535500005,295.724535500005,297.6274876000098,g,1.0,1.8967038999981012,,,,,sub-133,1,stroop_test,59.885403289374,
,,,,78.0,6.0,6.0,,,,,,,,,,,,,rot,blue,b,0.0,r,0.0,0.7493064000009326,,,,,,,,,,6.0,6.0,78.0,2.0,297.642371599999,,,,,,,,,,,,,,,,,297.62803220000933,297.9927658000088,298.7934971000068,298.7778197000007,,,,,,,,,,,,,,,,,,,,,,,,,,,,,,,,,,,298.7848112000065,298.7934971000068,298.7934971000068,299.54556169999705,r,0.0,0.7493064000009326,,,,,sub-133,1,stroop_test,59.885403289374,
,,,,79.0,7.0,6.0,,,,,,,,,,,,,blau,blue,b,1.0,b,1.0,0.3691375000053085,,,,,,,,,,6.0,7.0,79.0,5.0,299.56030140000803,,,,,,,,,,,,,,,,,299.54620370001066,300.7613524000044,301.5618225000071,301.5461945999996,,,,,,,,,,,,,,,,,,,,,,,,,,,,,,,,,,,301.55237659999693,301.5618225000071,301.5618225000071,301.9474323000032,b,1.0,0.3691375000053085,,,,,sub-133,1,stroop_test,59.885403289374,
,,,,80.0,8.0,6.0,,,,,,,,,,,,,rot,red,r,1.0,r,1.0,0.7375682999991113,,,,,,,,,,6.0,8.0,80.0,0.0,301.96209070000623,,,,,,,,,,,,,,,,,301.9480418000021,303.1629709999979,303.9634859000071,303.9478497000091,,,,,,,,,,,,,,,,,,,,,,,,,,,,,,,,,,,303.95502350000606,303.9634859000071,303.9634859000071,304.71593310000026,r,1.0,0.7375682999991113,,,,,sub-133,1,stroop_test,59.885403289374,
,,,,81.0,9.0,6.0,,,,,,,,,,,,,gelb,red,r,0.0,g,0.0,0.7164447000104701,,,,,,,,,,6.0,9.0,81.0,8.0,304.7306421000103,,,,,,,,,,,,,,,,,304.71656950000033,305.53111060000083,306.33435220000683,306.3164051000058,,,,,,,,,,,,,,,,,,,,,,,,,,,,,,,,,,,306.32347319999826,306.33435220000683,306.33435220000683,307.06737689999864,g,0.0,0.7164447000104701,,,,,sub-133,1,stroop_test,59.885403289374,
,,,,82.0,10.0,6.0,,,,,,,,,,,,,rot,yellow,g,0.0,g,1.0,1.028787100003683,,,,,,,,,,6.0,10.0,82.0,3.0,307.08215319999726,,,,,,,,,,,,,,,,,307.0679536000098,308.2667497000075,309.082524700003,309.0514480999991,,,,,,,,,,,,,,,,,,,,,,,,,,,,,,,,,,,309.0573399999994,309.082524700003,309.082524700003,310.1196915000037,g,1.0,1.028787100003683,,,,,sub-133,1,stroop_test,59.885403289374,
,,,,83.0,11.0,6.0,,,,,,,,,,,,,gelb,blue,b,0.0,b,1.0,0.5363662999880034,,,,,,,,,,6.0,11.0,83.0,9.0,310.1344960999995,,,,,,,,,,,,,,,,,310.12035990000004,310.4845537000074,311.2853754000098,311.269552800004,,,,,,,,,,,,,,,,,,,,,,,,,,,,,,,,,,,311.275953999997,311.2853754000098,311.2853754000098,311.83777500000724,b,1.0,0.5363662999880034,,,,,sub-133,1,stroop_test,59.885403289374,
,,,,84.0,0.0,7.0,,,,,,,,,,,,,blau,red,r,0.0,r,1.0,0.6885497000039322,,,,,,,,,,7.0,0.0,84.0,4.0,311.8521638000093,,,,,,,,,,,,,,,,,311.8383709000045,311.9522702999966,312.75280210000346,312.7373842000088,,,,,,,,,,,,,,,,,,,,,,,,,,,,,,,,,,,312.74308759999985,312.75280210000346,312.75280210000346,313.4555293000012,r,1.0,0.6885497000039322,,,,,sub-133,1,stroop_test,59.885403289374,
,,,,85.0,1.0,7.0,,,,,,,,,,,,,blau,blue,b,1.0,b,1.0,0.6115970999962883,,,,,,,,,,7.0,1.0,85.0,5.0,313.4700729000033,,,,,,,,,,,,,,,,,313.4561110000068,313.57004259999667,314.37067790000583,314.3553066000022,,,,,,,,,,,,,,,,,,,,,,,,,,,,,,,,,,,314.3560293000046,314.37067790000583,314.37067790000583,314.9898317000043,b,1.0,0.6115970999962883,,,,,sub-133,1,stroop_test,59.885403289374,
,,,,86.0,2.0,7.0,,,,,,,,,,,,,gelb,yellow,g,1.0,g,1.0,0.446673099999316,,,,,,,,,,7.0,2.0,86.0,10.0,315.0047457000037,,,,,,,,,,,,,,,,,314.99038630000723,315.35477700000047,316.15519340000174,316.13975450000726,,,,,,,,,,,,,,,,,,,,,,,,,,,,,,,,,,,316.14652999999817,316.15519340000174,316.15519340000174,316.6079080000054,g,1.0,0.446673099999316,,,,,sub-133,1,stroop_test,59.885403289374,
,,,,87.0,3.0,7.0,,,,,,,,,,,,,rot,blue,b,0.0,b,1.0,0.4764374000078533,,,,,,,,,,7.0,3.0,87.0,2.0,316.6222134999989,,,,,,,,,,,,,,,,,316.60844440000074,316.72256619999825,317.52486400000635,317.50757760000124,,,,,,,,,,,,,,,,,,,,,,,,,,,,,,,,,,,317.5138445000048,317.52486400000635,317.52486400000635,318.0086660000088,b,1.0,0.4764374000078533,,,,,sub-133,1,stroop_test,59.885403289374,
,,,,88.0,4.0,7.0,,,,,,,,,,,,,gelb,blue,b,0.0,b,1.0,0.625564599991776,,,,,,,,,,7.0,4.0,88.0,9.0,318.023090600007,,,,,,,,,,,,,,,,,318.00926489999983,318.37352490000194,319.1764628000092,319.1584709000017,,,,,,,,,,,,,,,,,,,,,,,,,,,,,,,,,,,319.16394189999846,319.1764628000092,319.1764628000092,319.80987769999774,b,1.0,0.625564599991776,,,,,sub-133,1,stroop_test,59.885403289374,
,,,,89.0,5.0,7.0,,,,,,,,,,,,,gelb,red,r,0.0,r,1.0,0.5356256999948528,,,,,,,,,,7.0,5.0,89.0,8.0,319.8244338000077,,,,,,,,,,,,,,,,,319.8104960000055,321.025380200008,321.82598029999644,321.8104522000067,,,,,,,,,,,,,,,,,,,,,,,,,,,,,,,,,,,321.8111887999985,321.82598029999644,321.82598029999644,322.37807079999766,r,1.0,0.5356256999948528,,,,,sub-133,1,stroop_test,59.885403289374,
,,,,90.0,6.0,7.0,,,,,,,,,,,,,rot,yellow,g,0.0,g,1.0,0.6159053000010317,,,,,,,,,,7.0,6.0,90.0,3.0,322.3928162000084,,,,,,,,,,,,,,,,,322.3789061999996,322.74320640000224,323.5454641999968,323.52796059999673,,,,,,,,,,,,,,,,,,,,,,,,,,,,,,,,,,,323.5344522000087,323.5454641999968,323.5454641999968,324.16325399999914,g,1.0,0.6159053000010317,,,,,sub-133,1,stroop_test,59.885403289374,
,,,,91.0,7.0,7.0,,,,,,,,,,,,,blau,yellow,g,0.0,g,1.0,0.4635894000093685,,,,,,,,,,7.0,7.0,91.0,7.0,324.17737119999947,,,,,,,,,,,,,,,,,324.1638163000025,324.2777502000099,325.0782571000018,325.06256510000094,,,,,,,,,,,,,,,,,,,,,,,,,,,,,,,,,,,325.06819070001075,325.0782571000018,325.0782571000018,325.54694500000915,g,1.0,0.4635894000093685,,,,,sub-133,1,stroop_test,59.885403289374,
,,,,92.0,8.0,7.0,,,,,,,,,,,,,gelb,yellow,g,1.0,g,1.0,0.416686500000651,,,,,,,,,,7.0,8.0,92.0,11.0,325.5616958000028,,,,,,,,,,,,,,,,,325.5475718000089,326.3623310999974,327.16441179999674,327.1471098000038,,,,,,,,,,,,,,,,,,,,,,,,,,,,,,,,,,,327.15397420000227,327.16441179999674,327.16441179999674,327.5981396999996,g,1.0,0.416686500000651,,,,,sub-133,1,stroop_test,59.885403289374,
,,,,93.0,9.0,7.0,,,,,,,,,,,,,rot,red,r,1.0,r,1.0,0.6273519999958808,,,,,,,,,,7.0,9.0,93.0,0.0,327.61317890000646,,,,,,,,,,,,,,,,,327.5987201000098,327.71319490000315,328.5139569000021,328.4982401000016,,,,,,,,,,,,,,,,,,,,,,,,,,,,,,,,,,,328.5033916000102,328.5139569000021,328.5139569000021,329.1494929000037,r,1.0,0.6273519999958808,,,,,sub-133,1,stroop_test,59.885403289374,
,,,,94.0,10.0,7.0,,,,,,,,,,,,,rot,red,r,1.0,r,1.0,0.6260327999916626,,,,,,,,,,7.0,10.0,94.0,1.0,329.1644381000078,,,,,,,,,,,,,,,,,329.1500589000061,329.2644987000094,330.06466669999645,330.0487100000028,,,,,,,,,,,,,,,,,,,,,,,,,,,,,,,,,,,330.04924819999724,330.06466669999645,330.06466669999645,330.6996579999977,r,1.0,0.6260327999916626,,,,,sub-133,1,stroop_test,59.885403289374,
,,,,95.0,11.0,7.0,,,,,,,,,,,,,blau,blue,b,1.0,b,1.0,0.4019141000026138,,,,,,,,,,7.0,11.0,95.0,6.0,330.71508449999965,,,,,,,,,,,,,,,,,330.69996700000775,331.89932650000264,332.7002827999968,332.684373600001,,,,,,,,,,,,,,,,,,,,,,,,,,,,,,,,,,,332.69047729999875,332.7002827999968,332.7002827999968,333.11907719999726,b,1.0,0.4019141000026138,,,,,sub-133,1,stroop_test,59.885403289374,
,,,,96.0,0.0,8.0,,,,,,,,,,,,,gelb,yellow,g,1.0,g,1.0,0.5369101999967825,,,,,,,,,,8.0,0.0,96.0,11.0,333.1336291000043,,,,,,,,,,,,,,,,,333.11970049999945,333.48386200000823,334.28442840000207,334.26893550000386,,,,,,,,,,,,,,,,,,,,,,,,,,,,,,,,,,,334.2753112000064,334.28442840000207,334.28442840000207,334.8366567000048,g,1.0,0.5369101999967825,,,,,sub-133,1,stroop_test,59.885403289374,
,,,,97.0,1.0,8.0,,,,,,,,,,,,,rot,red,r,1.0,r,1.0,0.5900333000026876,,,,,,,,,,8.0,1.0,97.0,1.0,334.85137190000387,,,,,,,,,,,,,,,,,334.83720310000353,334.95180720000644,335.7520455000049,335.73649809999915,,,,,,,,,,,,,,,,,,,,,,,,,,,,,,,,,,,335.74262410000665,335.7520455000049,335.7520455000049,336.35454339999706,r,1.0,0.5900333000026876,,,,,sub-133,1,stroop_test,59.885403289374,
,,,,98.0,2.0,8.0,,,,,,,,,,,,,gelb,yellow,g,1.0,g,1.0,0.5893519999954151,,,,,,,,,,8.0,2.0,98.0,10.0,336.36936110000534,,,,,,,,,,,,,,,,,336.3552936000051,337.5703742000041,338.3725781999965,338.3549551000033,,,,,,,,,,,,,,,,,,,,,,,,,,,,,,,,,,,338.3624639000045,338.3725781999965,338.3725781999965,338.9729566000024,g,1.0,0.5893519999954151,,,,,sub-133,1,stroop_test,59.885403289374,
,,,,99.0,3.0,8.0,,,,,,,,,,,,,blau,yellow,g,0.0,g,1.0,0.4131829999969341,,,,,,,,,,8.0,3.0,99.0,7.0,338.98741750000045,,,,,,,,,,,,,,,,,338.9735112000053,339.78831020000507,340.5891171999974,340.5732720000087,,,,,,,,,,,,,,,,,,,,,,,,,,,,,,,,,,,340.5784515999985,340.5891171999974,340.5891171999974,341.00787760000094,g,1.0,0.4131829999969341,,,,,sub-133,1,stroop_test,59.885403289374,
,,,,100.0,4.0,8.0,,,,,,,,,,,,,rot,yellow,g,0.0,g,1.0,0.5293850999878487,,,,,,,,,,8.0,4.0,100.0,3.0,341.0224392000091,,,,,,,,,,,,,,,,,341.0087417000032,341.122437500002,341.9232061000075,341.90729000000283,,,,,,,,,,,,,,,,,,,,,,,,,,,,,,,,,,,341.9130121000053,341.9232061000075,341.9232061000075,342.45914469999843,g,1.0,0.5293850999878487,,,,,sub-133,1,stroop_test,59.885403289374,
,,,,101.0,5.0,8.0,,,,,,,,,,,,,blau,blue,b,1.0,b,1.0,0.5377183999953559,,,,,,,,,,8.0,5.0,101.0,6.0,342.47354940000514,,,,,,,,,,,,,,,,,342.4596901000041,342.573704800001,343.3739961000101,343.3584092000092,,,,,,,,,,,,,,,,,,,,,,,,,,,,,,,,,,,343.36390969999775,343.3739961000101,343.3739961000101,343.92659470000945,b,1.0,0.5377183999953559,,,,,sub-133,1,stroop_test,59.885403289374,
,,,,102.0,6.0,8.0,,,,,,,,,,,,,gelb,red,r,0.0,r,1.0,0.6597362000029534,,,,,,,,,,8.0,6.0,102.0,8.0,343.9410881000076,,,,,,,,,,,,,,,,,343.92719860000943,344.7416564000014,345.5421575000073,345.5267910999973,,,,,,,,,,,,,,,,,,,,,,,,,,,,,,,,,,,345.53222020000976,345.5421575000073,345.5421575000073,346.2109603999997,r,1.0,0.6597362000029534,,,,,sub-133,1,stroop_test,59.885403289374,
,,,,103.0,7.0,8.0,,,,,,,,,,,,,blau,red,r,0.0,r,1.0,0.8338234999973793,,,,,,,,,,8.0,7.0,103.0,4.0,346.22617999999784,,,,,,,,,,,,,,,,,346.21177180000814,347.0266013000073,347.8277620000008,347.8115022999991,,,,,,,,,,,,,,,,,,,,,,,,,,,,,,,,,,,347.8180469000072,347.8277620000008,347.8277620000008,348.66354870000214,r,1.0,0.8338234999973793,,,,,sub-133,1,stroop_test,59.885403289374,
,,,,104.0,8.0,8.0,,,,,,,,,,,,,blau,blue,b,1.0,b,1.0,0.5528639000112889,,,,,,,,,,8.0,8.0,104.0,5.0,348.67756240000017,,,,,,,,,,,,,,,,,348.6641468000016,349.02807120000944,349.8286294999998,349.8130547000037,,,,,,,,,,,,,,,,,,,,,,,,,,,,,,,,,,,349.81379919999745,349.8286294999998,349.8286294999998,350.3973912000074,b,1.0,0.5528639000112889,,,,,sub-133,1,stroop_test,59.885403289374,
,,,,105.0,9.0,8.0,,,,,,,,,,,,,rot,blue,b,0.0,b,1.0,0.4884890999965137,,,,,,,,,,8.0,9.0,105.0,2.0,350.4123132000095,,,,,,,,,,,,,,,,,350.39810299999954,351.21301530000346,352.03344300000754,351.9977144000004,,,,,,,,,,,,,,,,,,,,,,,,,,,,,,,,,,,352.00443899999664,352.03344300000754,352.03344300000754,352.5320448999992,b,1.0,0.4884890999965137,,,,,sub-133,1,stroop_test,59.885403289374,
,,,,106.0,10.0,8.0,,,,,,,,,,,,,gelb,blue,b,0.0,b,1.0,0.389436299999943,,,,,,,,,,8.0,10.0,106.0,9.0,352.547003700005,,,,,,,,,,,,,,,,,352.53260859999864,353.7310527000081,354.5316542000073,354.5159918999998,,,,,,,,,,,,,,,,,,,,,,,,,,,,,,,,,,,354.5215867000079,354.5316542000073,354.5316542000073,354.934227100006,b,1.0,0.389436299999943,,,,,sub-133,1,stroop_test,59.885403289374,
,,,,107.0,11.0,8.0,,,,,,,,,,,,,rot,red,r,1.0,r,1.0,0.6889109000039753,,,,,,,,,,8.0,11.0,107.0,0.0,354.94862809999904,,,,,,,,,,,,,,,,,354.93476220000593,355.74941299999773,356.55238819999795,356.5341861000052,,,,,,,,,,,,,,,,,,,,,,,,,,,,,,,,,,,356.54054929999984,356.55238819999795,356.55238819999795,357.25235000000976,r,1.0,0.6889109000039753,,,,,sub-133,1,stroop_test,59.885403289374,
,,,,108.0,0.0,9.0,,,,,,,,,,,,,blau,blue,b,1.0,b,1.0,0.4835884999920381,,,,,,,,,,9.0,0.0,108.0,5.0,357.26665600000706,,,,,,,,,,,,,,,,,357.2529673000099,357.6172171000071,358.41762170000584,358.4021261000016,,,,,,,,,,,,,,,,,,,,,,,,,,,,,,,,,,,358.4096834000084,358.41762170000584,358.41762170000584,358.9040151000081,b,1.0,0.4835884999920381,,,,,sub-133,1,stroop_test,59.885403289374,
,,,,109.0,1.0,9.0,,,,,,,,,,,,,gelb,yellow,g,1.0,g,1.0,0.6429270000080578,,,,,,,,,,9.0,1.0,109.0,10.0,358.9179700000095,,,,,,,,,,,,,,,,,358.904658200001,359.71873269999924,360.51914470001066,360.50361100000737,,,,,,,,,,,,,,,,,,,,,,,,,,,,,,,,,,,360.5107676000043,360.51914470001066,360.51914470001066,361.1715511000075,g,1.0,0.6429270000080578,,,,,sub-133,1,stroop_test,59.885403289374,
,,,,110.0,2.0,9.0,,,,,,,,,,,,,gelb,red,r,0.0,r,1.0,0.5700705999915954,,,,,,,,,,9.0,2.0,110.0,8.0,361.186515399997,,,,,,,,,,,,,,,,,361.1721064000012,362.3705908999982,363.1709550000087,363.155574000004,,,,,,,,,,,,,,,,,,,,,,,,,,,,,,,,,,,363.1563248000021,363.1709550000087,363.1709550000087,363.7567839999974,r,1.0,0.5700705999915954,,,,,sub-133,1,stroop_test,59.885403289374,
,,,,111.0,3.0,9.0,,,,,,,,,,,,,blau,blue,b,1.0,b,1.0,0.5486320000054548,,,,,,,,,,9.0,3.0,111.0,6.0,363.7714121000026,,,,,,,,,,,,,,,,,363.7574894999998,364.9725347000058,365.7730703999987,365.7575867999985,,,,,,,,,,,,,,,,,,,,,,,,,,,,,,,,,,,365.7634401999967,365.7730703999987,365.7730703999987,366.3249347000092,b,1.0,0.5486320000054548,,,,,sub-133,1,stroop_test,59.885403289374,
,,,,112.0,4.0,9.0,,,,,,,,,,,,,gelb,yellow,g,1.0,g,1.0,0.5313295999949332,,,,,,,,,,9.0,4.0,112.0,11.0,366.33989770000335,,,,,,,,,,,,,,,,,366.3255059000076,366.6901906999992,367.4907097000105,367.47513869999966,,,,,,,,,,,,,,,,,,,,,,,,,,,,,,,,,,,367.481491700004,367.4907097000105,367.4907097000105,368.0264139000065,g,1.0,0.5313295999949332,,,,,sub-133,1,stroop_test,59.885403289374,
,,,,113.0,5.0,9.0,,,,,,,,,,,,,rot,red,r,1.0,r,1.0,0.5690612000034889,,,,,,,,,,9.0,5.0,113.0,1.0,368.04153990000486,,,,,,,,,,,,,,,,,368.0271247000055,368.1412073999964,368.9420155999978,368.9263648000051,,,,,,,,,,,,,,,,,,,,,,,,,,,,,,,,,,,368.93406369999866,368.9420155999978,368.9420155999978,369.5272341000091,r,1.0,0.5690612000034889,,,,,sub-133,1,stroop_test,59.885403289374,
,,,,114.0,6.0,9.0,,,,,,,,,,,,,rot,blue,b,0.0,b,1.0,0.679342400006135,,,,,,,,,,9.0,6.0,114.0,2.0,369.5420324000006,,,,,,,,,,,,,,,,,369.5278236000013,369.89246950000233,370.6929831000016,370.6775336999999,,,,,,,,,,,,,,,,,,,,,,,,,,,,,,,,,,,370.67830980000144,370.6929831000016,370.6929831000016,371.37856550001015,b,1.0,0.679342400006135,,,,,sub-133,1,stroop_test,59.885403289374,
,,,,115.0,7.0,9.0,,,,,,,,,,,,,gelb,blue,b,0.0,b,1.0,0.4775397000048542,,,,,,,,,,9.0,7.0,115.0,9.0,371.3933382000105,,,,,,,,,,,,,,,,,371.37919020000845,371.4935285999964,372.2940502999991,372.2786518000066,,,,,,,,,,,,,,,,,,,,,,,,,,,,,,,,,,,372.2856911999989,372.2940502999991,372.2940502999991,372.7799450000021,b,1.0,0.4775397000048542,,,,,sub-133,1,stroop_test,59.885403289374,
,,,,116.0,8.0,9.0,,,,,,,,,,,,,blau,red,r,0.0,r,1.0,0.5458935999922687,,,,,,,,,,9.0,8.0,116.0,4.0,372.79437660000985,,,,,,,,,,,,,,,,,372.78058109999984,373.9953475000075,374.7958884999971,374.7801754999964,,,,,,,,,,,,,,,,,,,,,,,,,,,,,,,,,,,374.78595000000496,374.7958884999971,374.7958884999971,375.3480233000009,r,1.0,0.5458935999922687,,,,,sub-133,1,stroop_test,59.885403289374,
,,,,117.0,9.0,9.0,,,,,,,,,,,,,rot,yellow,g,0.0,g,1.0,0.4719975000043632,,,,,,,,,,9.0,9.0,117.0,3.0,375.3627403999999,,,,,,,,,,,,,,,,,375.3486411000049,376.5637063000031,377.3803151000029,377.3484729000047,,,,,,,,,,,,,,,,,,,,,,,,,,,,,,,,,,,377.35444340000686,377.3803151000029,377.3803151000029,377.86556089999794,g,1.0,0.4719975000043632,,,,,sub-133,1,stroop_test,59.885403289374,
,,,,118.0,10.0,9.0,,,,,,,,,,,,,rot,red,r,1.0,r,1.0,0.5969279999990249,,,,,,,,,,9.0,10.0,118.0,0.0,377.880833800009,,,,,,,,,,,,,,,,,377.8660018000082,379.0650580000074,379.86591790000966,379.85037700000976,,,,,,,,,,,,,,,,,,,,,,,,,,,,,,,,,,,379.8510811000015,379.86591790000966,379.86591790000966,380.46823090000544,r,1.0,0.5969279999990249,,,,,sub-133,1,stroop_test,59.885403289374,
,,,,119.0,11.0,9.0,,,,,,,,,,,,,blau,yellow,g,0.0,g,1.0,0.5891064999887021,,,,,,,,,,9.0,11.0,119.0,7.0,380.4830373000004,,,,,,,,,,,,,,,,,380.4688282999996,380.83326850000594,381.6337373999995,381.618632800004,,,,,,,,,,,,,,,,,,,,,,,,,,,,,,,,,,,381.6247138000035,381.6337373999995,381.6337373999995,382.23652190000576,g,1.0,0.5891064999887021,,,,,sub-133,1,stroop_test,59.885403289374,
,,,,,,,,,,,,,,,,,,,,,,,,,,,,,,,,,,,,,,,,,,,,,,,,,,,,,,,,,,,,,,,,,,,,,,,,,,,,,,,,,,,,,,,,,,,,,,,,,,,,,,382.236934600005,382.2509971999971,387.2379263000039,sub-133,1,stroop_test,59.885403289374,
