wordCTK,colorCTK,corrAnsCTK,congruentCTK,thisN,thisTrialN,thisRepN,keyResp_CTK.keys,keyResp_CTK.corr,keyResp_CTK.rt,keyResp_CTK.duration,wordPractice,colorPractice,corrAnsPractice,congruentPractice,respPractice.keys,respPractice.corr,respPractice.rt,respPractice.duration,word,color,corrAns,congruent,keyResp_test_run.keys,keyResp_test_run.corr,keyResp_test_run.rt,keyResp_test_run.duration,trials_CTK.thisRepN,trials_CTK.thisTrialN,trials_CTK.thisN,trials_CTK.thisIndex,trials_practice.thisRepN,trials_practice.thisTrialN,trials_practice.thisN,trials_practice.thisIndex,trials_test.thisRepN,trials_test.thisTrialN,trials_test.thisN,trials_test.thisIndex,thisRow.t,notes,instruction.started,instr_text.started,instr_image.started,instr_resp.started,instruction.stopped,instr_resp.keys,instr_resp.rt,instr_resp.duration,instr_color_to_key.started,instr_ctk.started,resp_ctk.started,instr_color_to_key.stopped,resp_ctk.keys,resp_ctk.rt,resp_ctk.duration,ITI.started,fixcross.started,fixcross.stopped,ITI.stopped,color_to_key_run.started,stimulus_CTK.started,keyResp_CTK.started,color_to_key_run.stopped,trials_CTK.keyResp_CTK.keys,trials_CTK.keyResp_CTK.corr,trials_CTK.keyResp_CTK.rt,trials_CTK.keyResp_CTK.duration,instr_practice.started,instr_practice_text.started,instr_practice_resp.started,instr_practice.stopped,instr_practice_resp.keys,instr_practice_resp.rt,instr_practice_resp.duration,practice_run.started,stimulus_practice.started,respPractice.started,practice_run.stopped,trials_practice.respPractice.keys,trials_practice.respPractice.corr,trials_practice.respPractice.rt,trials_practice.respPractice.duration,feedback.started,textFeedback.started,textFeedback.stopped,feedback.stopped,instr_test.started,instr_test_text.started,instr_test_resp.started,instr_test.stopped,instr_test_resp.keys,instr_test_resp.rt,instr_test_resp.duration,test_run.started,stimulus_test_run.started,keyResp_test_run.started,test_run.stopped,trials_test.keyResp_test_run.keys,trials_test.keyResp_test_run.corr,trials_test.keyResp_test_run.rt,trials_test.keyResp_test_run.duration,goodbye.started,textGoodbye.started,textGoodbye.stopped,goodbye.stopped,participant,session,expName,frameRate,Unnamed: 113
,,,,,,,,,,,,,,,,,,,,,,,,,,,,,,,,,,,,,,,,,0.0063933559868019,0.0263414529908914,0.0263414529908914,0.0263414529908914,35.259206021000864,space,35.13342570801615,,,,,,,,,,,,,,,,,,,,,,,,,,,,,,,,,,,,,,,,,,,,,,,,,,,,,,,,,,,sub-082,1,stroop_test,,
,,,,,,,,,,,,,,,,,,,,,,,,,,,,,,,,,,,,,,,,,,,,,,,,,35.25925257999916,35.2728580669791,35.2728580669791,37.20382235900615,space,1.9294682359904984,,,,,,,,,,,,,,,,,,,,,,,,,,,,,,,,,,,,,,,,,,,,,,,,,,,,sub-082,1,stroop_test,,
test,red,r,1.0,0.0,0.0,0.0,r,1.0,0.4917442440055311,,,,,,,,,,,,,,,,,,0.0,0.0,0.0,0.0,,,,,,,,,37.226497473981,,,,,,,,,,,,,,,,,37.21491793400492,38.0026148709876,38.80059360599262,38.78587669899571,38.79247040799237,38.80059360599262,38.80059360599262,39.30333773099119,r,1.0,0.4917442440055311,,,,,,,,,,,,,,,,,,,,,,,,,,,,,,,,,,,,,,,,sub-082,1,stroop_test,,
test,blue,b,1.0,1.0,1.0,0.0,b,1.0,0.5264742379949894,,,,,,,,,,,,,,,,,,0.0,1.0,1.0,2.0,,,,,,,,,39.31153436898603,,,,,,,,,,,,,,,,,39.30357758299215,39.64433537199511,40.4387158259924,40.427918607980246,40.42895220199716,40.4387158259924,40.4387158259924,40.97042068399605,b,1.0,0.5264742379949894,,,,,,,,,,,,,,,,,,,,,,,,,,,,,,,,,,,,,,,,sub-082,1,stroop_test,,
test,yellow,g,1.0,2.0,2.0,0.0,g,1.0,0.4963327240257058,,,,,,,,,,,,,,,,,,0.0,2.0,2.0,1.0,,,,,,,,,40.97829531499883,,,,,,,,,,,,,,,,,40.97064080499695,42.15908247299376,42.95292710600188,42.94315668399213,42.944055142987054,42.95292710600188,42.95292710600188,43.45362386998022,g,1.0,0.4963327240257058,,,,,,,,,,,,,,,,,,,,,,,,,,,,,,,,,,,,,,,,sub-082,1,stroop_test,,
test,red,r,1.0,3.0,0.0,1.0,r,1.0,0.49344870497589,,,,,,,,,,,,,,,,,,1.0,0.0,3.0,0.0,,,,,,,,,43.46232658499503,,,,,,,,,,,,,,,,,43.45388368400745,44.243367051007226,45.04386604900356,45.03630874198279,45.03698303800775,45.04386604900356,45.04386604900356,45.5451390639937,r,1.0,0.49344870497589,,,,,,,,,,,,,,,,,,,,,,,,,,,,,,,,,,,,,,,,sub-082,1,stroop_test,,
test,blue,b,1.0,4.0,1.0,1.0,g,0.0,0.4234822369762696,,,,,,,,,,,,,,,,,,1.0,1.0,4.0,2.0,,,,,,,,,45.56816322100349,,,,,,,,,,,,,,,,,45.54535241299891,45.891959929984296,46.68577459899825,46.67592498098384,46.67678079000325,46.68577459899825,46.68577459899825,47.12007283398998,g,0.0,0.4234822369762696,,,,,,,,,,,,,,,,,,,,,,,,,,,,,,,,,,,,,,,,sub-082,1,stroop_test,,
test,yellow,g,1.0,5.0,2.0,1.0,g,1.0,0.497698848019354,,,,,,,,,,,,,,,,,,1.0,2.0,5.0,1.0,,,,,,,,,47.12740512899472,,,,,,,,,,,,,,,,,47.120364166999934,47.21954170698882,48.01955981898936,48.00503939500777,48.00628531698021,48.01955981898936,48.01955981898936,48.520066322002094,g,1.0,0.497698848019354,,,,,,,,,,,,,,,,,,,,,,,,,,,,,,,,,,,,,,,,sub-082,1,stroop_test,,
test,blue,b,1.0,6.0,0.0,2.0,b,1.0,0.7855687480187044,,,,,,,,,,,,,,,,,,2.0,0.0,6.0,2.0,,,,,,,,,48.52658211698872,,,,,,,,,,,,,,,,,48.52028199698543,49.70870809498592,50.503670448000776,50.493747679982334,50.4946002009965,50.503670448000776,50.503670448000776,51.29369449499063,b,1.0,0.7855687480187044,,,,,,,,,,,,,,,,,,,,,,,,,,,,,,,,,,,,,,,,sub-082,1,stroop_test,,
test,yellow,g,1.0,7.0,1.0,2.0,r,0.0,0.8152669869887177,,,,,,,,,,,,,,,,,,2.0,1.0,7.0,1.0,,,,,,,,,51.30320859097992,,,,,,,,,,,,,,,,,51.293956084991805,51.6356588449853,52.43040945500252,52.42130251400522,52.422049371001776,52.43040945500252,52.43040945500252,53.25413663699874,r,0.0,0.8152669869887177,,,,,,,,,,,,,,,,,,,,,,,,,,,,,,,,,,,,,,,,sub-082,1,stroop_test,,
test,red,r,1.0,8.0,2.0,2.0,r,1.0,0.5294748620071914,,,,,,,,,,,,,,,,,,2.0,2.0,8.0,0.0,,,,,,,,,53.261180472996784,,,,,,,,,,,,,,,,,53.254341192980064,54.05403778198525,54.852869675989496,54.84227096399991,54.84332806800376,54.852869675989496,54.852869675989496,55.38812553999014,r,1.0,0.5294748620071914,,,,,,,,,,,,,,,,,,,,,,,,,,,,,,,,,,,,,,,,sub-082,1,stroop_test,,
test,blue,b,1.0,9.0,0.0,3.0,b,1.0,0.6976222170051187,,,,,,,,,,,,,,,,,,3.0,0.0,9.0,2.0,,,,,,,,,55.39664878498297,,,,,,,,,,,,,,,,,55.38849486398976,56.18568339099875,56.9777281289862,56.96998820899171,56.97063704900211,56.9777281289862,56.9777281289862,57.67778326600092,b,1.0,0.6976222170051187,,,,,,,,,,,,,,,,,,,,,,,,,,,,,,,,,,,,,,,,sub-082,1,stroop_test,,
test,yellow,g,1.0,10.0,1.0,3.0,g,1.0,0.9976228690065908,,,,,,,,,,,,,,,,,,3.0,1.0,10.0,1.0,,,,,,,,,57.68623266799841,,,,,,,,,,,,,,,,,57.67801359199802,57.77626620497904,58.57172246399568,58.56090418799431,58.56193510399317,58.57172246399568,58.57172246399568,59.57044780498836,g,1.0,0.9976228690065908,,,,,,,,,,,,,,,,,,,,,,,,,,,,,,,,,,,,,,,,sub-082,1,stroop_test,,
test,red,r,1.0,11.0,2.0,3.0,r,1.0,0.3518891749845352,,,,,,,,,,,,,,,,,,3.0,2.0,11.0,0.0,,,,,,,,,59.577250812988495,,,,,,,,,,,,,,,,,59.57068164998782,60.76020014300593,61.56145344898687,61.55325615598122,61.55391064399737,61.56145344898687,61.56145344898687,61.91985893799574,r,1.0,0.3518891749845352,,,,,,,,,,,,,,,,,,,,,,,,,,,,,,,,,,,,,,,,sub-082,1,stroop_test,,
,,,,,,,,,,,,,,,,,,,,,,,,,,,,,,,,,,,,,,,,,,,,,,,,,,,,,,,,,,,,,,,,,,,,61.91995652398328,61.92768263499602,61.92768263499602,71.3392580949876,space,9.409047219989588,,,,,,,,,,,,,,,,,,,,,,,,,,,,,,,,,sub-082,1,stroop_test,,
,,,,0.0,0.0,0.0,,,,,rot,red,r,1.0,r,1.0,0.7059089580143336,,,,,,,,,,,,,,0.0,0.0,0.0,0.0,,,,,71.356534585997,,,,,,,,,,,,,,,,,71.34763754700543,71.43576109097921,72.23016927699791,72.2189511449833,,,,,,,,,,,,,,,,72.22234817099525,72.23016927699791,72.23016927699791,72.9436809939798,r,1.0,0.7059089580143336,,72.9480388519878,72.9568380159908,73.95236404499155,73.942965558992,,,,,,,,,,,,,,,,,,,,sub-082,1,stroop_test,,
,,,,1.0,1.0,0.0,,,,,gelb,yellow,g,1.0,g,1.0,0.5242190379940439,,,,,,,,,,,,,,0.0,1.0,1.0,10.0,,,,,73.95236404499155,,,,,,,,,,,,,,,,,73.94371356099145,74.04354984799284,74.8520721209934,74.83755487398594,,,,,,,,,,,,,,,,74.84419575400534,74.8520721209934,74.8520721209934,75.38589299100568,g,1.0,0.5242190379940439,,75.3862257769797,75.39513232599711,,76.38722317200154,,,,,,,,,,,,,,,,,,,,sub-082,1,stroop_test,,
,,,,2.0,2.0,0.0,,,,,rot,blue,b,0.0,g,0.0,0.607270101987524,,,,,,,,,,,,,,0.0,2.0,2.0,2.0,,,,,76.39331591100199,,,,,,,,,,,,,,,,,76.38768689899007,76.72571318899281,77.52092975500273,77.50856915200711,,,,,,,,,,,,,,,,77.51146837198758,77.52092975500273,77.52092975500273,78.13618635298917,g,0.0,0.607270101987524,,78.1390424289857,78.14712196498294,79.14244879898615,79.13634080000338,,,,,,,,,,,,,,,,,,,,sub-082,1,stroop_test,,
,,,,3.0,3.0,0.0,,,,,rot,red,r,1.0,r,1.0,1.4825306919810828,,,,,,,,,,,,,,0.0,3.0,3.0,1.0,,,,,79.14244879898615,,,,,,,,,,,,,,,,,79.1369099279982,79.47644615799072,80.27484852200723,80.26889065699652,,,,,,,,,,,,,,,,80.26916988400626,80.27484852200723,80.27484852200723,81.76077410698053,r,1.0,1.4825306919810828,,81.76315834399429,81.77177002598182,82.76865185800125,82.75998922198778,,,,,,,,,,,,,,,,,,,,sub-082,1,stroop_test,,
,,,,4.0,4.0,0.0,,,,,gelb,blue,b,0.0,b,1.0,1.1317781090037895,,,,,,,,,,,,,,0.0,4.0,4.0,9.0,,,,,82.76865185800125,,,,,,,,,,,,,,,,,82.76064346899511,83.95918028499,84.7563757429889,84.74275259699789,,,,,,,,,,,,,,,,84.7480059749796,84.7563757429889,84.7563757429889,85.89443213300547,b,1.0,1.1317781090037895,,85.8950489529816,85.9052340159833,86.90343633500743,86.89234320598189,,,,,,,,,,,,,,,,,,,,sub-082,1,stroop_test,,
,,,,5.0,5.0,0.0,,,,,blau,yellow,g,0.0,g,1.0,0.7249264829733875,,,,,,,,,,,,,,0.0,5.0,5.0,7.0,,,,,86.90343633500743,,,,,,,,,,,,,,,,,86.89306548898458,87.24359298899071,88.05125202599447,88.03719975799322,,,,,,,,,,,,,,,,88.04257540899562,88.05125202599447,88.05125202599447,88.78566684498219,g,1.0,0.7249264829733875,,88.78599505798775,88.79345570900477,89.79192766398774,89.78595028599375,,,,,,,,,,,,,,,,,,,,sub-082,1,stroop_test,,
,,,,6.0,6.0,0.0,,,,,blau,blue,b,1.0,b,1.0,0.9659905309963506,,,,,,,,,,,,,,0.0,6.0,6.0,5.0,,,,,89.79192766398774,,,,,,,,,,,,,,,,,89.78631807598867,90.9766122349829,91.7773316509847,91.76953599698028,,,,,,,,,,,,,,,,91.77017005899688,91.7773316509847,91.7773316509847,92.75278491599602,b,1.0,0.9659905309963506,,92.7531270670006,92.76135400598288,,93.75370877998648,,,,,,,,,,,,,,,,,,,,sub-082,1,stroop_test,,
,,,,7.0,7.0,0.0,,,,,rot,yellow,g,0.0,g,1.0,0.6427760910009965,,,,,,,,,,,,,,0.0,7.0,7.0,3.0,,,,,93.7599968709983,,,,,,,,,,,,,,,,,93.7542158169963,94.54335837700636,95.34545981299016,95.33546833798756,,,,,,,,,,,,,,,,95.33861837399309,95.34545981299016,95.34545981299016,95.99365965698962,g,1.0,0.6427760910009965,,95.99410603998696,96.00399632699556,97.00190055198618,96.99214466498232,,,,,,,,,,,,,,,,,,,,sub-082,1,stroop_test,,
,,,,8.0,8.0,0.0,,,,,blau,blue,b,1.0,b,1.0,0.6236524469859432,,,,,,,,,,,,,,0.0,8.0,8.0,6.0,,,,,97.00190055198618,,,,,,,,,,,,,,,,,96.99263836198952,98.19144982899888,98.98859615900436,98.9752600019856,,,,,,,,,,,,,,,,98.9798465060012,98.98859615900436,98.98859615900436,99.61948167698574,b,1.0,0.6236524469859432,,99.6197878459934,99.62754554100684,100.62571360799484,100.61930124100763,,,,,,,,,,,,,,,,,,,,sub-082,1,stroop_test,,
,,,,9.0,9.0,0.0,,,,,gelb,red,r,0.0,g,0.0,0.757822846993804,,,,,,,,,,,,,,0.0,9.0,9.0,8.0,,,,,100.62571360799484,,,,,,,,,,,,,,,,,100.61984083699645,100.95820264000211,101.75550497000222,101.7422261069878,,,,,,,,,,,,,,,,101.74690976997954,101.75550497000222,101.75550497000222,102.519366944005,g,0.0,0.757822846993804,,102.52125523600262,102.5299401730008,103.52556750399526,103.51951961198938,,,,,,,,,,,,,,,,,,,,sub-082,1,stroop_test,,
,,,,10.0,10.0,0.0,,,,,gelb,yellow,g,1.0,g,1.0,0.5493335379869677,,,,,,,,,,,,,,0.0,10.0,10.0,11.0,,,,,103.52556750399526,,,,,,,,,,,,,,,,,103.52003410298494,104.70821553698624,105.50293175099068,105.49310877799871,,,,,,,,,,,,,,,,105.49398574599763,105.50293175099068,105.50293175099068,106.0539967759978,g,1.0,0.5493335379869677,,106.05648150498746,106.06434634700418,107.05826308898396,107.052299123985,,,,,,,,,,,,,,,,,,,,sub-082,1,stroop_test,,
,,,,11.0,11.0,0.0,,,,,blau,red,r,0.0,r,1.0,0.5999637999921106,,,,,,,,,,,,,,0.0,11.0,11.0,4.0,,,,,107.05826308898396,,,,,,,,,,,,,,,,,107.05272285200772,107.39298716999474,108.20844223399764,108.18686561798675,,,,,,,,,,,,,,,,108.1908755750046,108.20844223399764,108.20844223399764,108.81012677398394,r,1.0,0.5999637999921106,,108.81047492299696,108.83519723199424,,109.82016855999244,,,,,,,,,,,,,,,,,,,,sub-082,1,stroop_test,,
,,,,12.0,0.0,1.0,,,,,rot,blue,b,0.0,g,0.0,1.4817693649965804,,,,,,,,,,,,,,1.0,0.0,12.0,2.0,,,,,109.82687264200648,,,,,,,,,,,,,,,,,109.82086848199832,110.60981197998626,111.40640955898562,111.39375707798172,,,,,,,,,,,,,,,,111.39866932100269,111.40640955898562,111.40640955898562,112.89491671000724,g,0.0,1.4817693649965804,,112.89742182500775,112.90634403697914,113.90296334499726,113.89182946100482,,,,,,,,,,,,,,,,,,,,sub-082,1,stroop_test,,
,,,,13.0,1.0,1.0,,,,,blau,blue,b,1.0,g,0.0,0.9065704179811293,,,,,,,,,,,,,,1.0,1.0,13.0,6.0,,,,,113.90296334499726,,,,,,,,,,,,,,,,,113.89255803299602,113.99166924599558,114.78980673800106,114.77636215099484,,,,,,,,,,,,,,,,114.78134389797924,114.78980673800106,114.78980673800106,115.7025613639853,g,0.0,0.9065704179811293,,115.70306746600544,115.71183971199208,116.70863934399677,116.70263018799596,,,,,,,,,,,,,,,,,,,,sub-082,1,stroop_test,,
,,,,14.0,2.0,1.0,,,,,blau,blue,b,1.0,b,1.0,0.5539781819970813,,,,,,,,,,,,,,1.0,2.0,14.0,5.0,,,,,116.70863934399677,,,,,,,,,,,,,,,,,116.70311299298191,116.7922386819846,117.59348921399214,117.58568309500696,,,,,,,,,,,,,,,,117.58631345498723,117.59348921399214,117.59348921399214,118.15275839000242,b,1.0,0.5539781819970813,,118.15482337999856,118.16265709398432,119.15790036797988,119.1518896810012,,,,,,,,,,,,,,,,,,,,sub-082,1,stroop_test,,
,,,,15.0,3.0,1.0,,,,,gelb,red,r,0.0,r,1.0,0.6721224960056134,,,,,,,,,,,,,,1.0,3.0,15.0,8.0,,,,,119.15790036797988,,,,,,,,,,,,,,,,,119.15231907798444,120.35463564499514,121.1550713799952,121.14175682299538,,,,,,,,,,,,,,,,121.14629575097932,121.1550713799952,121.1550713799952,121.8364338550018,r,1.0,0.6721224960056134,,121.83702741999878,121.8463243499864,,122.8376788799942,,,,,,,,,,,,,,,,,,,,sub-082,1,stroop_test,,
,,,,16.0,4.0,1.0,,,,,gelb,blue,b,0.0,b,1.0,0.6982116980070714,,,,,,,,,,,,,,1.0,4.0,16.0,9.0,,,,,122.85458916900096,,,,,,,,,,,,,,,,,122.838357014989,122.93653374299174,123.73495808200096,123.72487766499398,,,,,,,,,,,,,,,,123.72571415800483,123.73495808200096,123.73495808200096,124.4359511549992,b,1.0,0.6982116980070714,,124.4362979590078,124.44438478999656,125.44234323999262,125.43568587998745,,,,,,,,,,,,,,,,,,,,sub-082,1,stroop_test,,
,,,,17.0,5.0,1.0,,,,,rot,red,r,1.0,r,1.0,0.482822018006118,,,,,,,,,,,,,,1.0,5.0,17.0,0.0,,,,,125.44234323999262,,,,,,,,,,,,,,,,,125.43634688100428,125.52460406298631,126.32244496198835,126.30895396499544,,,,,,,,,,,,,,,,126.31360285700066,126.32244496198835,126.32244496198835,126.81098094399204,r,1.0,0.482822018006118,,126.8113390840008,126.82103584698052,127.8184653009812,127.80955219297904,,,,,,,,,,,,,,,,,,,,sub-082,1,stroop_test,,
,,,,18.0,6.0,1.0,,,,,gelb,yellow,g,1.0,g,1.0,0.3365531500021461,,,,,,,,,,,,,,1.0,6.0,18.0,10.0,,,,,127.8184653009812,,,,,,,,,,,,,,,,,127.81032540099112,128.1579108260048,128.95677396497922,128.94331020198297,,,,,,,,,,,,,,,,128.94824858999343,128.95677396497922,128.95677396497922,129.3023978319834,g,1.0,0.3365531500021461,,129.30273022098118,129.3112280560017,,130.30309397098608,,,,,,,,,,,,,,,,,,,,sub-082,1,stroop_test,,
,,,,19.0,7.0,1.0,,,,,rot,red,r,1.0,r,1.0,0.3263697029906325,,,,,,,,,,,,,,1.0,7.0,19.0,1.0,,,,,130.30959729797905,,,,,,,,,,,,,,,,,130.30378580000252,131.4913757169852,132.28607085498516,132.2753708990058,,,,,,,,,,,,,,,,132.27756080700783,132.28607085498516,132.28607085498516,132.61894309098716,r,1.0,0.3263697029906325,,132.6193334889831,132.62686866198783,133.62399585699313,133.61809321399778,,,,,,,,,,,,,,,,,,,,sub-082,1,stroop_test,,
,,,,20.0,8.0,1.0,,,,,rot,yellow,g,0.0,g,1.0,1.1845803239848465,,,,,,,,,,,,,,1.0,8.0,20.0,3.0,,,,,133.62399585699313,,,,,,,,,,,,,,,,,133.61840984699666,133.95771189098014,134.75385698498576,134.7413623110042,,,,,,,,,,,,,,,,134.7424233229831,134.75385698498576,134.75385698498576,135.9431768189825,g,1.0,1.1845803239848465,,135.94371823998517,135.95375127598527,136.9524569149944,136.94108574598795,,,,,,,,,,,,,,,,,,,,sub-082,1,stroop_test,,
,,,,21.0,9.0,1.0,,,,,blau,red,r,0.0,r,1.0,0.817842816002667,,,,,,,,,,,,,,1.0,9.0,21.0,4.0,,,,,136.9524569149944,,,,,,,,,,,,,,,,,136.94163263900555,138.14120332099264,138.94861534098163,138.93561510299332,,,,,,,,,,,,,,,,138.94044863799354,138.94861534098163,138.94861534098163,139.76935878299992,r,1.0,0.817842816002667,,139.76970586599782,139.77862390800146,140.77471435099142,140.76854406599887,,,,,,,,,,,,,,,,,,,,sub-082,1,stroop_test,,
,,,,22.0,10.0,1.0,,,,,blau,yellow,g,0.0,g,1.0,0.6946362069866154,,,,,,,,,,,,,,1.0,10.0,22.0,7.0,,,,,140.77471435099142,,,,,,,,,,,,,,,,,140.76889740899787,141.55911109398585,142.36072631098796,142.35297417698894,,,,,,,,,,,,,,,,142.35361772298347,142.36072631098796,142.36072631098796,143.05894480500135,g,1.0,0.6946362069866154,,143.0592914680019,143.08389506198,,144.05956383500595,,,,,,,,,,,,,,,,,,,,sub-082,1,stroop_test,,
,,,,23.0,11.0,1.0,,,,,gelb,yellow,g,1.0,g,1.0,0.5442357680003624,,,,,,,,,,,,,,1.0,11.0,23.0,11.0,,,,,144.06817192200106,,,,,,,,,,,,,,,,,144.0602101830009,145.2559721019934,146.05622286399012,146.0427895009925,,,,,,,,,,,,,,,,146.04763558600098,146.05622286399012,146.05622286399012,146.60246652099886,g,1.0,0.5442357680003624,,146.60281491000205,146.61236878298223,147.6093937740079,147.60171651098062,,,,,,,,,,,,,,,,,,,,sub-082,1,stroop_test,,
,,,,,,,,,,,,,,,,,,,,,,,,,,,,,,,,,,,,,,,,,,,,,,,,,,,,,,,,,,,,,,,,,,,,,,,,,,,,,,,,,,,,,,,147.60180815600324,147.6093937740079,147.6093937740079,173.77022624900565,space,26.14999624999473,,,,,,,,,,,,,,sub-082,1,stroop_test,,
,,,,0.0,0.0,0.0,,,,,,,,,,,,,rot,red,r,1.0,r,1.0,0.5077532579889521,,,,,,,,,,0.0,0.0,0.0,0.0,173.78788862700458,,,,,,,,,,,,,,,,,173.77938620798523,173.8677565169928,174.66632288199617,174.65285898098955,,,,,,,,,,,,,,,,,,,,,,,,,,,,,,,,,,,174.6578851059894,174.66632288199617,174.66632288199617,175.17599192800117,r,1.0,0.5077532579889521,,,,,,sub-082,1,stroop_test,,
,,,,1.0,1.0,0.0,,,,,,,,,,,,,blau,red,r,0.0,r,1.0,0.6160638050059788,,,,,,,,,,0.0,1.0,1.0,4.0,175.18405056398478,,,,,,,,,,,,,,,,,175.17625361098908,176.37505962199066,177.17595702499966,177.1677112680045,,,,,,,,,,,,,,,,,,,,,,,,,,,,,,,,,,,177.16945386998125,177.17595702499966,177.17595702499966,177.80139918698114,r,1.0,0.6160638050059788,,,,,,sub-082,1,stroop_test,,
,,,,2.0,2.0,0.0,,,,,,,,,,,,,gelb,blue,b,0.0,b,1.0,0.8824066670204047,,,,,,,,,,0.0,2.0,2.0,9.0,177.80889598699287,,,,,,,,,,,,,,,,,177.80162046299665,177.89178677200107,178.69458435699926,178.68470817999332,,,,,,,,,,,,,,,,,,,,,,,,,,,,,,,,,,,178.68793053898844,178.69458435699926,178.69458435699926,179.5850386839884,b,1.0,0.8824066670204047,,,,,,sub-082,1,stroop_test,,
,,,,3.0,3.0,0.0,,,,,,,,,,,,,rot,yellow,g,0.0,g,1.0,0.3149000779958442,,,,,,,,,,0.0,3.0,3.0,3.0,179.59269065898843,,,,,,,,,,,,,,,,,179.58530511098795,180.37602301099105,181.1810794429912,181.168908800988,,,,,,,,,,,,,,,,,,,,,,,,,,,,,,,,,,,181.17263885599093,181.1810794429912,181.1810794429912,181.5020365039818,g,1.0,0.3149000779958442,,,,,,sub-082,1,stroop_test,,
,,,,4.0,4.0,0.0,,,,,,,,,,,,,gelb,yellow,g,1.0,g,1.0,0.5025558570050634,,,,,,,,,,0.0,4.0,4.0,10.0,181.50949016498635,,,,,,,,,,,,,,,,,181.5022573749884,181.84038555898587,182.63845512800617,182.62465968899775,,,,,,,,,,,,,,,,,,,,,,,,,,,,,,,,,,,182.62864346499555,182.63845512800617,182.63845512800617,183.1518809639965,g,1.0,0.5025558570050634,,,,,,sub-082,1,stroop_test,,
,,,,5.0,5.0,0.0,,,,,,,,,,,,,gelb,yellow,g,1.0,g,1.0,0.4390604860091116,,,,,,,,,,0.0,5.0,5.0,11.0,183.1612102299987,,,,,,,,,,,,,,,,,183.1522871319903,183.49087461997988,184.2859804109903,184.27543380498537,,,,,,,,,,,,,,,,,,,,,,,,,,,,,,,,,,,184.27618439798243,184.2859804109903,184.2859804109903,184.7347663099936,g,1.0,0.4390604860091116,,,,,,sub-082,1,stroop_test,,
,,,,6.0,6.0,0.0,,,,,,,,,,,,,blau,yellow,g,0.0,g,1.0,0.3920986719895154,,,,,,,,,,0.0,6.0,6.0,7.0,184.74218505999303,,,,,,,,,,,,,,,,,184.73501312898588,185.9251326569938,186.72204433198203,186.7089618970058,,,,,,,,,,,,,,,,,,,,,,,,,,,,,,,,,,,186.71367151700545,186.72204433198203,186.72204433198203,187.11989186998107,g,1.0,0.3920986719895154,,,,,,sub-082,1,stroop_test,,
,,,,7.0,7.0,0.0,,,,,,,,,,,,,rot,red,r,1.0,b,0.0,0.5028056039882358,,,,,,,,,,0.0,7.0,7.0,1.0,187.128425228002,,,,,,,,,,,,,,,,,187.12015185598284,187.9174719529983,188.7102826219925,188.7011309590016,,,,,,,,,,,,,,,,,,,,,,,,,,,,,,,,,,,188.703295793006,188.7102826219925,188.7102826219925,189.2181113580009,b,0.0,0.5028056039882358,,,,,,sub-082,1,stroop_test,,
,,,,8.0,8.0,0.0,,,,,,,,,,,,,blau,blue,b,1.0,b,1.0,0.9282875530188904,,,,,,,,,,0.0,8.0,8.0,5.0,189.2262316950073,,,,,,,,,,,,,,,,,189.21835929199003,189.30667317300689,190.11681682799824,190.0908142529952,,,,,,,,,,,,,,,,,,,,,,,,,,,,,,,,,,,190.09363820799624,190.11681682799824,190.11681682799824,191.05121860199145,b,1.0,0.9282875530188904,,,,,,sub-082,1,stroop_test,,
,,,,9.0,9.0,0.0,,,,,,,,,,,,,gelb,red,r,0.0,r,1.0,0.5381273270177189,,,,,,,,,,0.0,9.0,9.0,8.0,191.05847902499957,,,,,,,,,,,,,,,,,191.05152762000216,191.1518811629794,191.9499507209985,191.93592434900347,,,,,,,,,,,,,,,,,,,,,,,,,,,,,,,,,,,191.9408171440009,191.9499507209985,191.9499507209985,192.4924447730009,r,1.0,0.5381273270177189,,,,,,sub-082,1,stroop_test,,
,,,,10.0,10.0,0.0,,,,,,,,,,,,,rot,blue,b,0.0,g,0.0,0.8989052679971792,,,,,,,,,,0.0,10.0,10.0,2.0,192.51638722600185,,,,,,,,,,,,,,,,,192.49283435198595,192.58936047600585,193.38920608299668,193.37558268097928,,,,,,,,,,,,,,,,,,,,,,,,,,,,,,,,,,,193.38106493500527,193.38920608299668,193.38920608299668,194.29176545300288,g,0.0,0.8989052679971792,,,,,,sub-082,1,stroop_test,,
,,,,11.0,11.0,0.0,,,,,,,,,,,,,blau,blue,b,1.0,b,1.0,0.5154904029914178,,,,,,,,,,0.0,11.0,11.0,6.0,194.3000087130058,,,,,,,,,,,,,,,,,194.292025303992,194.3915885030001,195.1896228489932,195.1757461600064,,,,,,,,,,,,,,,,,,,,,,,,,,,,,,,,,,,195.18062302898036,195.1896228489932,195.1896228489932,195.70877444298824,b,1.0,0.5154904029914178,,,,,,sub-082,1,stroop_test,,
,,,,12.0,0.0,1.0,,,,,,,,,,,,,gelb,yellow,g,1.0,r,0.0,0.5060492870106827,,,,,,,,,,1.0,0.0,12.0,10.0,195.71828286600064,,,,,,,,,,,,,,,,,195.70908594698997,196.05864524599747,196.8562588149798,196.84257296999567,,,,,,,,,,,,,,,,,,,,,,,,,,,,,,,,,,,196.84795863798357,196.8562588149798,196.8562588149798,197.37008435599276,r,0.0,0.5060492870106827,,,,,,sub-082,1,stroop_test,,
,,,,13.0,1.0,1.0,,,,,,,,,,,,,blau,blue,b,1.0,b,1.0,1.732888953993097,,,,,,,,,,1.0,1.0,13.0,5.0,197.3845419639838,,,,,,,,,,,,,,,,,197.37033689100645,197.7173289299826,198.51323016898823,198.5012909729849,,,,,,,,,,,,,,,,,,,,,,,,,,,,,,,,,,,198.50525148698944,198.51323016898823,198.51323016898823,200.2517324599903,b,1.0,1.732888953993097,,,,,,sub-082,1,stroop_test,,
,,,,14.0,2.0,1.0,,,,,,,,,,,,,blau,blue,b,1.0,b,1.0,0.4726605930190999,,,,,,,,,,1.0,2.0,14.0,6.0,200.2594044809812,,,,,,,,,,,,,,,,,200.2520603580051,200.34145316598008,201.14043429499725,201.1338232400012,,,,,,,,,,,,,,,,,,,,,,,,,,,,,,,,,,,201.1341784980032,201.14043429499725,201.14043429499725,201.6197279820044,b,1.0,0.4726605930190999,,,,,,sub-082,1,stroop_test,,
,,,,15.0,3.0,1.0,,,,,,,,,,,,,gelb,red,r,0.0,r,1.0,0.738887737999903,,,,,,,,,,1.0,3.0,15.0,8.0,201.62735782199888,,,,,,,,,,,,,,,,,201.62005435099127,201.7184823509888,202.52123364599535,202.50730358899452,,,,,,,,,,,,,,,,,,,,,,,,,,,,,,,,,,,202.5116943460016,202.52123364599535,202.52123364599535,203.2682737919968,r,1.0,0.738887737999903,,,,,,sub-082,1,stroop_test,,
,,,,16.0,4.0,1.0,,,,,,,,,,,,,blau,red,r,0.0,r,1.0,1.0378349270031322,,,,,,,,,,1.0,4.0,16.0,4.0,203.27954290999327,,,,,,,,,,,,,,,,,203.26869000997976,204.0582726739813,204.85560874000657,204.84188877500128,,,,,,,,,,,,,,,,,,,,,,,,,,,,,,,,,,,204.84721699598597,204.85560874000657,204.85560874000657,205.90177731600124,r,1.0,1.0378349270031322,,,,,,sub-082,1,stroop_test,,
,,,,17.0,5.0,1.0,,,,,,,,,,,,,gelb,blue,b,0.0,b,1.0,0.9198661440168509,,,,,,,,,,1.0,5.0,17.0,9.0,205.9099219169875,,,,,,,,,,,,,,,,,205.9019971799862,206.2505509519833,207.04719188899617,207.0346800849948,,,,,,,,,,,,,,,,,,,,,,,,,,,,,,,,,,,207.038572741003,207.04719188899617,207.04719188899617,207.96900555398315,b,1.0,0.9198661440168509,,,,,,sub-082,1,stroop_test,,
,,,,18.0,6.0,1.0,,,,,,,,,,,,,gelb,yellow,g,1.0,g,1.0,0.6893502160091884,,,,,,,,,,1.0,6.0,18.0,11.0,207.975340806006,,,,,,,,,,,,,,,,,207.9694392659876,208.768652002007,209.5596856790071,209.5521393349918,,,,,,,,,,,,,,,,,,,,,,,,,,,,,,,,,,,209.5527783370053,209.5596856790071,209.5596856790071,210.25125877000391,g,1.0,0.6893502160091884,,,,,,sub-082,1,stroop_test,,
,,,,19.0,7.0,1.0,,,,,,,,,,,,,rot,blue,b,0.0,b,1.0,0.5723837459809147,,,,,,,,,,1.0,7.0,19.0,2.0,210.2567120690073,,,,,,,,,,,,,,,,,210.2515159629984,211.0398405620072,211.83876756799876,211.8251923380012,,,,,,,,,,,,,,,,,,,,,,,,,,,,,,,,,,,211.83055688798777,211.83876756799876,211.83876756799876,212.4184751340072,b,1.0,0.5723837459809147,,,,,,sub-082,1,stroop_test,,
,,,,20.0,8.0,1.0,,,,,,,,,,,,,blau,yellow,g,0.0,g,1.0,0.7166134490107652,,,,,,,,,,1.0,8.0,20.0,7.0,212.42959067199263,,,,,,,,,,,,,,,,,212.4189410599938,212.7581407020043,213.56454526100424,213.55136493698228,,,,,,,,,,,,,,,,,,,,,,,,,,,,,,,,,,,213.55559652400552,213.56454526100424,213.56454526100424,214.28517062898027,g,1.0,0.7166134490107652,,,,,,sub-082,1,stroop_test,,
,,,,21.0,9.0,1.0,,,,,,,,,,,,,rot,yellow,g,0.0,g,1.0,0.5897954399988521,,,,,,,,,,1.0,9.0,21.0,3.0,214.29345067500253,,,,,,,,,,,,,,,,,214.2855282980017,214.6252366839908,215.4293641090044,215.4177576219954,,,,,,,,,,,,,,,,,,,,,,,,,,,,,,,,,,,215.4214548940072,215.4293641090044,215.4293641090044,216.0253876799834,g,1.0,0.5897954399988521,,,,,,sub-082,1,stroop_test,,
,,,,22.0,10.0,1.0,,,,,,,,,,,,,rot,red,r,1.0,r,1.0,0.375823490001494,,,,,,,,,,1.0,10.0,22.0,1.0,216.03466924998796,,,,,,,,,,,,,,,,,216.02561275899643,216.8253081709845,217.62518350000028,217.61773984599856,,,,,,,,,,,,,,,,,,,,,,,,,,,,,,,,,,,217.6183574809984,217.62518350000028,217.62518350000028,218.00801309099188,r,1.0,0.375823490001494,,,,,,sub-082,1,stroop_test,,
,,,,23.0,11.0,1.0,,,,,,,,,,,,,rot,red,r,1.0,r,1.0,0.4880449069896713,,,,,,,,,,1.0,11.0,23.0,0.0,218.01730336499168,,,,,,,,,,,,,,,,,218.00826757098548,218.1004217129957,218.89107420298387,218.8840340419847,,,,,,,,,,,,,,,,,,,,,,,,,,,,,,,,,,,218.8844567030028,218.89107420298387,218.89107420298387,219.3848605809908,r,1.0,0.4880449069896713,,,,,,sub-082,1,stroop_test,,
,,,,24.0,0.0,2.0,,,,,,,,,,,,,blau,red,r,0.0,r,1.0,0.35381079299259,,,,,,,,,,2.0,0.0,24.0,4.0,219.39257142698625,,,,,,,,,,,,,,,,,219.3851909530058,220.1739684609929,220.971332666988,220.95707953698,,,,,,,,,,,,,,,,,,,,,,,,,,,,,,,,,,,220.96192810399225,220.971332666988,220.971332666988,221.333902407001,r,1.0,0.35381079299259,,,,,,sub-082,1,stroop_test,,
,,,,25.0,1.0,2.0,,,,,,,,,,,,,blau,blue,b,1.0,b,1.0,0.8668293819937389,,,,,,,,,,2.0,1.0,25.0,6.0,221.3412073100044,,,,,,,,,,,,,,,,,221.33414586400613,222.124841612007,222.9193075739895,222.90886498297917,,,,,,,,,,,,,,,,,,,,,,,,,,,,,,,,,,,222.9098899810051,222.9193075739895,222.9193075739895,223.79250327998307,b,1.0,0.8668293819937389,,,,,,sub-082,1,stroop_test,,
,,,,26.0,2.0,2.0,,,,,,,,,,,,,gelb,yellow,g,1.0,g,1.0,0.5685744950023945,,,,,,,,,,2.0,2.0,26.0,11.0,223.8169638849795,,,,,,,,,,,,,,,,,223.79274564099612,224.60055767098677,225.3955987709924,225.3840689320059,,,,,,,,,,,,,,,,,,,,,,,,,,,,,,,,,,,225.38765455398243,225.3955987709924,225.3955987709924,225.96848720498383,g,1.0,0.5685744950023945,,,,,,sub-082,1,stroop_test,,
,,,,27.0,3.0,2.0,,,,,,,,,,,,,rot,yellow,g,0.0,g,1.0,0.4150480139942374,,,,,,,,,,2.0,3.0,27.0,3.0,225.97623168799328,,,,,,,,,,,,,,,,,225.968886105984,226.31716387800407,227.11403356099615,227.1010714540025,,,,,,,,,,,,,,,,,,,,,,,,,,,,,,,,,,,227.1051941199985,227.11403356099615,227.11403356099615,227.53598577799855,g,1.0,0.4150480139942374,,,,,,sub-082,1,stroop_test,,
,,,,28.0,4.0,2.0,,,,,,,,,,,,,blau,yellow,g,0.0,g,1.0,0.3549018439953215,,,,,,,,,,2.0,4.0,28.0,7.0,227.54338508000365,,,,,,,,,,,,,,,,,227.53633429697948,228.7348997619993,229.537222487008,229.52350037399447,,,,,,,,,,,,,,,,,,,,,,,,,,,,,,,,,,,229.52747096298845,229.537222487008,229.537222487008,229.90195324100205,g,1.0,0.3549018439953215,,,,,,sub-082,1,stroop_test,,
,,,,29.0,5.0,2.0,,,,,,,,,,,,,gelb,red,r,0.0,r,1.0,0.5219408450066112,,,,,,,,,,2.0,5.0,29.0,8.0,229.91150601799015,,,,,,,,,,,,,,,,,229.9023447590007,230.25022237398665,231.04636696199304,231.0341321839951,,,,,,,,,,,,,,,,,,,,,,,,,,,,,,,,,,,231.03823426400777,231.04636696199304,231.04636696199304,231.57034533799745,r,1.0,0.5219408450066112,,,,,,sub-082,1,stroop_test,,
,,,,30.0,6.0,2.0,,,,,,,,,,,,,rot,blue,b,0.0,b,1.0,0.5486299409822095,,,,,,,,,,2.0,6.0,30.0,2.0,231.5833657280018,,,,,,,,,,,,,,,,,231.57059754399236,231.6670874560077,232.46468482198543,232.4521722270001,,,,,,,,,,,,,,,,,,,,,,,,,,,,,,,,,,,232.45591803698332,232.46468482198543,232.46468482198543,233.01899547100768,b,1.0,0.5486299409822095,,,,,,sub-082,1,stroop_test,,
,,,,31.0,7.0,2.0,,,,,,,,,,,,,blau,blue,b,1.0,b,1.0,0.4256466079968959,,,,,,,,,,2.0,7.0,31.0,5.0,233.02659332798797,,,,,,,,,,,,,,,,,233.01939057800337,233.11825624099583,233.91448433199548,233.9020624299883,,,,,,,,,,,,,,,,,,,,,,,,,,,,,,,,,,,233.9061701610044,233.91448433199548,233.91448433199548,234.3511064729828,b,1.0,0.4256466079968959,,,,,,sub-082,1,stroop_test,,
,,,,32.0,8.0,2.0,,,,,,,,,,,,,rot,red,r,1.0,g,0.0,0.4651029969973024,,,,,,,,,,2.0,8.0,32.0,1.0,234.35932225498252,,,,,,,,,,,,,,,,,234.35133653497903,235.1410763080057,235.93933578499127,235.9253734899976,,,,,,,,,,,,,,,,,,,,,,,,,,,,,,,,,,,235.9306798299949,235.93933578499127,235.93933578499127,236.4083196159918,g,0.0,0.4651029969973024,,,,,,sub-082,1,stroop_test,,
,,,,33.0,9.0,2.0,,,,,,,,,,,,,rot,red,r,1.0,r,1.0,0.4130025079939514,,,,,,,,,,2.0,9.0,33.0,0.0,236.4188530349929,,,,,,,,,,,,,,,,,236.4086843219993,237.60836942400783,238.40325820699215,238.3916650559986,,,,,,,,,,,,,,,,,,,,,,,,,,,,,,,,,,,238.3927222499915,238.40325820699215,238.40325820699215,238.81885819497984,r,1.0,0.4130025079939514,,,,,,sub-082,1,stroop_test,,
,,,,34.0,10.0,2.0,,,,,,,,,,,,,gelb,blue,b,0.0,b,1.0,0.584903871989809,,,,,,,,,,2.0,10.0,34.0,9.0,238.82491437200224,,,,,,,,,,,,,,,,,238.81918589299312,240.0075447690033,240.804371375998,240.7919441910053,,,,,,,,,,,,,,,,,,,,,,,,,,,,,,,,,,,240.79615527699931,240.804371375998,240.804371375998,241.3908347149845,b,1.0,0.584903871989809,,,,,,sub-082,1,stroop_test,,
,,,,35.0,11.0,2.0,,,,,,,,,,,,,gelb,yellow,g,1.0,g,1.0,0.4107934850035235,,,,,,,,,,2.0,11.0,35.0,10.0,241.39973291798375,,,,,,,,,,,,,,,,,241.39109796698904,241.49128008200205,242.2943825929833,242.2850959339994,,,,,,,,,,,,,,,,,,,,,,,,,,,,,,,,,,,242.28585470299004,242.2943825929833,242.2943825929833,242.70932857398293,g,1.0,0.4107934850035235,,,,,,sub-082,1,stroop_test,,
,,,,36.0,0.0,3.0,,,,,,,,,,,,,gelb,blue,b,0.0,b,1.0,0.8331847570079844,,,,,,,,,,3.0,0.0,36.0,9.0,242.7188116789912,,,,,,,,,,,,,,,,,242.70974162299532,243.0584240059834,243.8610572089965,243.85188084997932,,,,,,,,,,,,,,,,,,,,,,,,,,,,,,,,,,,243.85265646499465,243.8610572089965,243.8610572089965,244.70156955500715,b,1.0,0.8331847570079844,,,,,,sub-082,1,stroop_test,,
,,,,37.0,1.0,3.0,,,,,,,,,,,,,rot,red,r,1.0,r,1.0,0.6053591840027366,,,,,,,,,,3.0,1.0,37.0,0.0,244.70864804598384,,,,,,,,,,,,,,,,,244.7017945449916,244.7902778360003,245.58695808798075,245.5733828509983,,,,,,,,,,,,,,,,,,,,,,,,,,,,,,,,,,,245.57867465697927,245.58695808798075,245.58695808798075,246.20092680398372,r,1.0,0.6053591840027366,,,,,,sub-082,1,stroop_test,,
,,,,38.0,2.0,3.0,,,,,,,,,,,,,rot,blue,b,0.0,b,1.0,0.3193034559953958,,,,,,,,,,3.0,2.0,38.0,2.0,246.2091473820037,,,,,,,,,,,,,,,,,246.2011774679995,247.38971087298705,248.18493952200515,248.17508833800093,,,,,,,,,,,,,,,,,,,,,,,,,,,,,,,,,,,248.1759210449818,248.18493952200515,248.18493952200515,248.50810563599225,b,1.0,0.3193034559953958,,,,,,sub-082,1,stroop_test,,
,,,,39.0,3.0,3.0,,,,,,,,,,,,,gelb,yellow,g,1.0,g,1.0,0.4469346090045292,,,,,,,,,,3.0,3.0,39.0,11.0,248.532623111998,,,,,,,,,,,,,,,,,248.5083594409807,248.5998894609802,249.39629717898788,249.38426140899537,,,,,,,,,,,,,,,,,,,,,,,,,,,,,,,,,,,249.3879626900016,249.39629717898788,249.39629717898788,249.8504803199903,g,1.0,0.4469346090045292,,,,,,sub-082,1,stroop_test,,
,,,,40.0,4.0,3.0,,,,,,,,,,,,,rot,red,r,1.0,r,1.0,0.632909687992651,,,,,,,,,,3.0,4.0,40.0,1.0,249.8577487879957,,,,,,,,,,,,,,,,,249.85072361299532,249.93960676598363,250.7362979449972,250.72327818899063,,,,,,,,,,,,,,,,,,,,,,,,,,,,,,,,,,,250.7275340159831,250.7362979449972,250.7362979449972,251.375352854986,r,1.0,0.632909687992651,,,,,,sub-082,1,stroop_test,,
,,,,41.0,5.0,3.0,,,,,,,,,,,,,blau,blue,b,1.0,b,1.0,0.5414504960062914,,,,,,,,,,3.0,5.0,41.0,6.0,251.3845722039987,,,,,,,,,,,,,,,,,251.37560767299144,251.4736043669982,252.27979513298487,252.268373177998,,,,,,,,,,,,,,,,,,,,,,,,,,,,,,,,,,,252.2720602419868,252.27979513298487,252.27979513298487,252.82621552998896,b,1.0,0.5414504960062914,,,,,,sub-082,1,stroop_test,,
,,,,42.0,6.0,3.0,,,,,,,,,,,,,gelb,yellow,g,1.0,g,1.0,0.530136528017465,,,,,,,,,,3.0,6.0,42.0,10.0,252.8360613049881,,,,,,,,,,,,,,,,,252.82652750000125,252.93573467599344,253.73798843999973,253.7230982320034,,,,,,,,,,,,,,,,,,,,,,,,,,,,,,,,,,,253.72733279998647,253.73798843999973,253.73798843999973,254.26928047998808,g,1.0,0.530136528017465,,,,,,sub-082,1,stroop_test,,
,,,,43.0,7.0,3.0,,,,,,,,,,,,,blau,yellow,g,0.0,g,1.0,0.563480233977316,,,,,,,,,,3.0,7.0,43.0,7.0,254.27508958498947,,,,,,,,,,,,,,,,,254.26953294000123,254.3667042589805,255.1627170020074,255.15124328399543,,,,,,,,,,,,,,,,,,,,,,,,,,,,,,,,,,,255.15497830999084,255.1627170020074,255.1627170020074,255.73407477600267,g,1.0,0.563480233977316,,,,,,sub-082,1,stroop_test,,
,,,,44.0,8.0,3.0,,,,,,,,,,,,,gelb,red,r,0.0,r,1.0,0.4100450820114929,,,,,,,,,,3.0,8.0,44.0,8.0,255.7421621829853,,,,,,,,,,,,,,,,,255.734292677982,256.9343707189837,257.7292582539958,257.71717892598826,,,,,,,,,,,,,,,,,,,,,,,,,,,,,,,,,,,257.7208924239967,257.7292582539958,257.7292582539958,258.14253458799794,r,1.0,0.4100450820114929,,,,,,sub-082,1,stroop_test,,
,,,,45.0,9.0,3.0,,,,,,,,,,,,,blau,blue,b,1.0,b,1.0,0.460975141992094,,,,,,,,,,3.0,9.0,45.0,5.0,258.14997120798216,,,,,,,,,,,,,,,,,258.14279091500794,259.33958224600065,260.137294472981,260.1233380470076,,,,,,,,,,,,,,,,,,,,,,,,,,,,,,,,,,,260.1279758269957,260.137294472981,260.137294472981,260.60088558399,b,1.0,0.460975141992094,,,,,,sub-082,1,stroop_test,,
,,,,46.0,10.0,3.0,,,,,,,,,,,,,rot,yellow,g,0.0,g,1.0,0.7461525669787079,,,,,,,,,,3.0,10.0,46.0,3.0,260.6064274119853,,,,,,,,,,,,,,,,,260.6011395389796,260.7000027470058,261.49615541798994,261.4847574659798,,,,,,,,,,,,,,,,,,,,,,,,,,,,,,,,,,,261.4884334069793,261.49615541798994,261.49615541798994,262.2505150109937,g,1.0,0.7461525669787079,,,,,,sub-082,1,stroop_test,,
,,,,47.0,11.0,3.0,,,,,,,,,,,,,blau,red,r,0.0,r,1.0,0.3547014670039061,,,,,,,,,,3.0,11.0,47.0,4.0,262.2575724500057,,,,,,,,,,,,,,,,,262.25073606998194,263.44033062600647,264.2495532099856,264.2368130859977,,,,,,,,,,,,,,,,,,,,,,,,,,,,,,,,,,,264.24128509199363,264.2495532099856,264.2495532099856,264.60720352098,r,1.0,0.3547014670039061,,,,,,sub-082,1,stroop_test,,
,,,,48.0,0.0,4.0,,,,,,,,,,,,,gelb,red,r,0.0,r,1.0,0.5632358620059676,,,,,,,,,,4.0,0.0,48.0,8.0,264.6166093990032,,,,,,,,,,,,,,,,,264.60744644800434,264.7189101529948,265.5200038999901,265.5065613719926,,,,,,,,,,,,,,,,,,,,,,,,,,,,,,,,,,,265.51016412099125,265.5200038999901,265.5200038999901,266.08432798000285,r,1.0,0.5632358620059676,,,,,,sub-082,1,stroop_test,,
,,,,49.0,1.0,4.0,,,,,,,,,,,,,rot,yellow,g,0.0,g,1.0,0.4872567509883083,,,,,,,,,,4.0,1.0,49.0,3.0,266.0900518370036,,,,,,,,,,,,,,,,,266.08458232099656,266.4331521949789,267.2330283729825,267.2198705140036,,,,,,,,,,,,,,,,,,,,,,,,,,,,,,,,,,,267.22443986398866,267.2330283729825,267.2330283729825,267.7246782129805,g,1.0,0.4872567509883083,,,,,,sub-082,1,stroop_test,,
,,,,50.0,2.0,4.0,,,,,,,,,,,,,blau,blue,b,1.0,b,1.0,0.6586158239806537,,,,,,,,,,4.0,2.0,50.0,6.0,267.74903603398707,,,,,,,,,,,,,,,,,267.7251246109954,268.0726272930042,268.87075127699063,268.8577861269878,,,,,,,,,,,,,,,,,,,,,,,,,,,,,,,,,,,268.8624695269973,268.87075127699063,268.87075127699063,269.5353792879905,b,1.0,0.6586158239806537,,,,,,sub-082,1,stroop_test,,
,,,,51.0,3.0,4.0,,,,,,,,,,,,,gelb,yellow,g,1.0,g,1.0,0.937082383024972,,,,,,,,,,4.0,3.0,51.0,10.0,269.542690036993,,,,,,,,,,,,,,,,,269.5356439879979,269.8832241790078,270.6742520989792,270.66643033598666,,,,,,,,,,,,,,,,,,,,,,,,,,,,,,,,,,,270.6683648409962,270.6742520989792,270.6742520989792,271.61832159999176,g,1.0,0.937082383024972,,,,,,sub-082,1,stroop_test,,
,,,,52.0,4.0,4.0,,,,,,,,,,,,,rot,red,r,1.0,r,1.0,0.579903778998414,,,,,,,,,,4.0,4.0,52.0,0.0,271.62584200600395,,,,,,,,,,,,,,,,,271.6185852139897,272.8164526229957,273.61532695399364,273.6015624199936,,,,,,,,,,,,,,,,,,,,,,,,,,,,,,,,,,,273.60734581798897,273.61532695399364,273.61532695399364,274.20228049799334,r,1.0,0.579903778998414,,,,,,sub-082,1,stroop_test,,
,,,,53.0,5.0,4.0,,,,,,,,,,,,,rot,red,r,1.0,r,1.0,0.4323303010023664,,,,,,,,,,4.0,5.0,53.0,1.0,274.2098314019968,,,,,,,,,,,,,,,,,274.2026130959857,274.29999808600405,275.09986093398766,275.0857602650067,,,,,,,,,,,,,,,,,,,,,,,,,,,,,,,,,,,275.086696835002,275.09986093398766,275.09986093398766,275.5349557489972,r,1.0,0.4323303010023664,,,,,,sub-082,1,stroop_test,,
,,,,54.0,6.0,4.0,,,,,,,,,,,,,blau,yellow,g,0.0,b,0.0,0.4618093309982214,,,,,,,,,,4.0,6.0,54.0,7.0,275.5408309889899,,,,,,,,,,,,,,,,,275.5352066259948,275.8841996679839,276.6823978049797,276.6726200339908,,,,,,,,,,,,,,,,,,,,,,,,,,,,,,,,,,,276.6752003619913,276.6823978049797,276.6823978049797,277.15020675200503,b,0.0,0.4618093309982214,,,,,,sub-082,1,stroop_test,,
,,,,55.0,7.0,4.0,,,,,,,,,,,,,gelb,yellow,g,1.0,g,1.0,0.4866083700035233,,,,,,,,,,4.0,7.0,55.0,11.0,277.1583709139959,,,,,,,,,,,,,,,,,277.15047739999136,277.93920957497903,278.7497376709944,278.72297851598705,,,,,,,,,,,,,,,,,,,,,,,,,,,,,,,,,,,278.7260158449935,278.7497376709944,278.7497376709944,279.2413030040043,g,1.0,0.4866083700035233,,,,,,sub-082,1,stroop_test,,
,,,,56.0,8.0,4.0,,,,,,,,,,,,,blau,red,r,0.0,r,1.0,0.5214622379862703,,,,,,,,,,4.0,8.0,56.0,4.0,279.2510202309932,,,,,,,,,,,,,,,,,279.2415695379896,280.0382827559952,280.8362575279898,280.82306442499976,,,,,,,,,,,,,,,,,,,,,,,,,,,,,,,,,,,280.8276795329876,280.8362575279898,280.8362575279898,281.3689956269809,r,1.0,0.5214622379862703,,,,,,sub-082,1,stroop_test,,
,,,,57.0,9.0,4.0,,,,,,,,,,,,,blau,blue,b,1.0,b,1.0,0.6438185849983711,,,,,,,,,,4.0,9.0,57.0,5.0,281.38002945599146,,,,,,,,,,,,,,,,,281.369521162007,282.1664837699791,282.9605125189992,282.9513705529971,,,,,,,,,,,,,,,,,,,,,,,,,,,,,,,,,,,282.95211234499584,282.9605125189992,282.9605125189992,283.60861713200575,b,1.0,0.6438185849983711,,,,,,sub-082,1,stroop_test,,
,,,,58.0,10.0,4.0,,,,,,,,,,,,,rot,blue,b,0.0,b,1.0,0.5813518130162265,,,,,,,,,,4.0,10.0,58.0,2.0,283.61814440999296,,,,,,,,,,,,,,,,,283.609100614005,283.7059121459897,284.5038755589921,284.4896845610056,,,,,,,,,,,,,,,,,,,,,,,,,,,,,,,,,,,284.494355472998,284.5038755589921,284.5038755589921,285.09129802999087,b,1.0,0.5813518130162265,,,,,,sub-082,1,stroop_test,,
,,,,59.0,11.0,4.0,,,,,,,,,,,,,gelb,blue,b,0.0,b,1.0,0.5879911000083666,,,,,,,,,,4.0,11.0,59.0,9.0,285.10087943900726,,,,,,,,,,,,,,,,,285.0915731189889,285.19010993500706,285.98837559999083,285.9745048019977,,,,,,,,,,,,,,,,,,,,,,,,,,,,,,,,,,,285.97902292298386,285.98837559999083,285.98837559999083,286.5836859229894,b,1.0,0.5879911000083666,,,,,,sub-082,1,stroop_test,,
,,,,60.0,0.0,5.0,,,,,,,,,,,,,rot,red,r,1.0,r,1.0,0.6184834899904672,,,,,,,,,,5.0,0.0,60.0,1.0,286.5911594890058,,,,,,,,,,,,,,,,,286.5839486049954,287.7826733769907,288.5790182519995,288.56669705099193,,,,,,,,,,,,,,,,,,,,,,,,,,,,,,,,,,,288.57107637199806,288.5790182519995,288.5790182519995,289.200422141992,r,1.0,0.6184834899904672,,,,,,sub-082,1,stroop_test,,
,,,,61.0,1.0,5.0,,,,,,,,,,,,,gelb,yellow,g,1.0,g,1.0,0.4824381669750437,,,,,,,,,,5.0,1.0,61.0,10.0,289.2082333290018,,,,,,,,,,,,,,,,,289.2006699939957,289.54031051998027,290.34580804099096,290.3335103149875,,,,,,,,,,,,,,,,,,,,,,,,,,,,,,,,,,,290.33742757097934,290.34580804099096,290.34580804099096,290.8349483009952,g,1.0,0.4824381669750437,,,,,,sub-082,1,stroop_test,,
,,,,62.0,2.0,5.0,,,,,,,,,,,,,gelb,yellow,g,1.0,g,1.0,0.4147345250239596,,,,,,,,,,5.0,2.0,62.0,11.0,290.8422262069944,,,,,,,,,,,,,,,,,290.8352207269927,291.6240679280017,292.4268669179873,292.4178630829847,,,,,,,,,,,,,,,,,,,,,,,,,,,,,,,,,,,292.4185301149846,292.4268669179873,292.4268669179873,292.8528659879812,g,1.0,0.4147345250239596,,,,,,sub-082,1,stroop_test,,
,,,,63.0,3.0,5.0,,,,,,,,,,,,,gelb,red,r,0.0,r,1.0,0.9846829949819949,,,,,,,,,,5.0,3.0,63.0,8.0,292.8660126790055,,,,,,,,,,,,,,,,,292.85328169100103,292.9494225560047,293.742025154992,293.7330147059984,,,,,,,,,,,,,,,,,,,,,,,,,,,,,,,,,,,293.73365762099274,293.742025154992,293.742025154992,294.73744842398446,r,1.0,0.9846829949819949,,,,,,sub-082,1,stroop_test,,
,,,,64.0,4.0,5.0,,,,,,,,,,,,,blau,blue,b,1.0,b,1.0,0.6739183070021681,,,,,,,,,,5.0,4.0,64.0,5.0,294.7455020759953,,,,,,,,,,,,,,,,,294.73796596800094,295.0851230380067,295.88738553400617,295.8730592929933,,,,,,,,,,,,,,,,,,,,,,,,,,,,,,,,,,,295.877310787997,295.88738553400617,295.88738553400617,296.5672904259991,b,1.0,0.6739183070021681,,,,,,sub-082,1,stroop_test,,
,,,,65.0,5.0,5.0,,,,,,,,,,,,,rot,blue,b,0.0,b,1.0,0.4477269479830283,,,,,,,,,,5.0,5.0,65.0,2.0,296.5757418709982,,,,,,,,,,,,,,,,,296.5675831529952,296.6567268339859,297.4627304750029,297.45076317500207,,,,,,,,,,,,,,,,,,,,,,,,,,,,,,,,,,,297.45450307498686,297.4627304750029,297.4627304750029,297.9165425709798,b,1.0,0.4477269479830283,,,,,,sub-082,1,stroop_test,,
,,,,66.0,6.0,5.0,,,,,,,,,,,,,blau,blue,b,1.0,b,1.0,0.6724831550091039,,,,,,,,,,5.0,6.0,66.0,6.0,297.92503829600173,,,,,,,,,,,,,,,,,297.91680700698635,299.1072868469928,299.91392317498685,299.90120014498825,,,,,,,,,,,,,,,,,,,,,,,,,,,,,,,,,,,299.90513113699853,299.91392317498685,299.91392317498685,300.5907934579882,b,1.0,0.6724831550091039,,,,,,sub-082,1,stroop_test,,
,,,,67.0,7.0,5.0,,,,,,,,,,,,,blau,red,r,0.0,r,1.0,0.7547615450166631,,,,,,,,,,5.0,7.0,67.0,4.0,300.6002964929794,,,,,,,,,,,,,,,,,300.5911935920012,300.9323297079827,301.7255590999848,301.7166203619854,,,,,,,,,,,,,,,,,,,,,,,,,,,,,,,,,,,301.7172793929931,301.7255590999848,301.7255590999848,302.4836202099977,r,1.0,0.7547615450166631,,,,,,sub-082,1,stroop_test,,
,,,,68.0,8.0,5.0,,,,,,,,,,,,,gelb,blue,b,0.0,b,1.0,1.153549501002999,,,,,,,,,,5.0,8.0,68.0,9.0,302.4914403879957,,,,,,,,,,,,,,,,,302.4838689029857,302.5738475919934,303.3701212309825,303.3571882079996,,,,,,,,,,,,,,,,,,,,,,,,,,,,,,,,,,,303.36207172300783,303.3701212309825,303.3701212309825,304.5332384459907,b,1.0,1.153549501002999,,,,,,sub-082,1,stroop_test,,
,,,,69.0,9.0,5.0,,,,,,,,,,,,,rot,yellow,g,0.0,g,1.0,0.6506682530161925,,,,,,,,,,5.0,9.0,69.0,3.0,304.54060017099255,,,,,,,,,,,,,,,,,304.53346235500067,305.7234627860016,306.51971521400264,306.5070881290012,,,,,,,,,,,,,,,,,,,,,,,,,,,,,,,,,,,306.51139614300337,306.51971521400264,306.51971521400264,307.1756608930009,g,1.0,0.6506682530161925,,,,,,sub-082,1,stroop_test,,
,,,,70.0,10.0,5.0,,,,,,,,,,,,,blau,yellow,g,0.0,g,1.0,0.488848314009374,,,,,,,,,,5.0,10.0,70.0,7.0,307.18497391900746,,,,,,,,,,,,,,,,,307.1759294899821,307.5221733500075,308.32233680499485,308.3076433829847,,,,,,,,,,,,,,,,,,,,,,,,,,,,,,,,,,,308.31226068598335,308.32233680499485,308.32233680499485,308.8168223279936,g,1.0,0.488848314009374,,,,,,sub-082,1,stroop_test,,
,,,,71.0,11.0,5.0,,,,,,,,,,,,,rot,red,r,1.0,r,1.0,0.5360895750054624,,,,,,,,,,5.0,11.0,71.0,0.0,308.82598934398266,,,,,,,,,,,,,,,,,308.8172507889976,308.91716837498825,309.7153486140014,309.7030371929868,,,,,,,,,,,,,,,,,,,,,,,,,,,,,,,,,,,309.7070616279961,309.7153486140014,309.7153486140014,310.258949843992,r,1.0,0.5360895750054624,,,,,,sub-082,1,stroop_test,,
,,,,72.0,0.0,6.0,,,,,,,,,,,,,rot,blue,b,0.0,b,1.0,0.7974340209912043,,,,,,,,,,6.0,0.0,72.0,2.0,310.26815010097926,,,,,,,,,,,,,,,,,310.25916919499286,310.3564873590076,311.1589392460009,311.14987891798955,,,,,,,,,,,,,,,,,,,,,,,,,,,,,,,,,,,311.1505116430053,311.1589392460009,311.1589392460009,311.9671344579838,b,1.0,0.7974340209912043,,,,,,sub-082,1,stroop_test,,
,,,,73.0,1.0,6.0,,,,,,,,,,,,,blau,blue,b,1.0,b,1.0,0.5432022589957342,,,,,,,,,,6.0,1.0,73.0,5.0,311.97702807499445,,,,,,,,,,,,,,,,,311.9675522219913,312.05686418598634,312.85721134999767,312.8488454229955,,,,,,,,,,,,,,,,,,,,,,,,,,,,,,,,,,,312.8508676170022,312.85721134999767,312.85721134999767,313.40778333498747,b,1.0,0.5432022589957342,,,,,,sub-082,1,stroop_test,,
,,,,74.0,2.0,6.0,,,,,,,,,,,,,rot,red,r,1.0,r,1.0,0.613348220998887,,,,,,,,,,6.0,2.0,74.0,0.0,313.4171073180041,,,,,,,,,,,,,,,,,313.40802466499736,313.5152223460027,314.3131027589843,314.30109468399314,,,,,,,,,,,,,,,,,,,,,,,,,,,,,,,,,,,314.3048478529963,314.3131027589843,314.3131027589843,314.9328550969949,r,1.0,0.613348220998887,,,,,,sub-082,1,stroop_test,,
,,,,75.0,3.0,6.0,,,,,,,,,,,,,gelb,yellow,g,1.0,g,1.0,0.745456757984357,,,,,,,,,,6.0,3.0,75.0,11.0,314.94013667598483,,,,,,,,,,,,,,,,,314.933195154008,315.27211850398453,316.070865888003,316.0572418119991,,,,,,,,,,,,,,,,,,,,,,,,,,,,,,,,,,,316.0623811259866,316.070865888003,316.070865888003,316.8240284799831,g,1.0,0.745456757984357,,,,,,sub-082,1,stroop_test,,
,,,,76.0,4.0,6.0,,,,,,,,,,,,,rot,red,r,1.0,r,1.0,0.673797099996591,,,,,,,,,,6.0,4.0,76.0,1.0,316.83329250800307,,,,,,,,,,,,,,,,,316.8242513489968,316.9226782039914,317.7195830169949,317.706335380004,,,,,,,,,,,,,,,,,,,,,,,,,,,,,,,,,,,317.71087944399915,317.7195830169949,317.7195830169949,318.39983950697933,r,1.0,0.673797099996591,,,,,,sub-082,1,stroop_test,,
,,,,77.0,5.0,6.0,,,,,,,,,,,,,gelb,blue,b,0.0,b,1.0,0.9565604039817116,,,,,,,,,,6.0,5.0,77.0,9.0,318.40793513698736,,,,,,,,,,,,,,,,,318.400174157985,318.490583871986,319.2869719649898,319.2737755209964,,,,,,,,,,,,,,,,,,,,,,,,,,,,,,,,,,,319.27908352098893,319.2869719649898,319.2869719649898,320.2499609660008,b,1.0,0.9565604039817116,,,,,,sub-082,1,stroop_test,,
,,,,78.0,6.0,6.0,,,,,,,,,,,,,rot,yellow,g,0.0,r,0.0,0.6879812970000785,,,,,,,,,,6.0,6.0,78.0,3.0,320.25766913298867,,,,,,,,,,,,,,,,,320.2502858339867,320.3400644749927,321.14649737699074,321.1343018189946,,,,,,,,,,,,,,,,,,,,,,,,,,,,,,,,,,,321.13823213099386,321.14649737699074,321.14649737699074,321.8359358969901,r,0.0,0.6879812970000785,,,,,,sub-082,1,stroop_test,,
,,,,79.0,7.0,6.0,,,,,,,,,,,,,gelb,yellow,g,1.0,g,1.0,0.625888209004188,,,,,,,,,,6.0,7.0,79.0,10.0,321.8485953990021,,,,,,,,,,,,,,,,,321.8361908999796,322.6324370520015,323.4275268869824,323.4160194779979,,,,,,,,,,,,,,,,,,,,,,,,,,,,,,,,,,,323.4197259109933,323.4275268869824,323.4275268869824,324.0585808419856,g,1.0,0.625888209004188,,,,,,sub-082,1,stroop_test,,
,,,,80.0,8.0,6.0,,,,,,,,,,,,,blau,yellow,g,0.0,g,1.0,0.4496584020089358,,,,,,,,,,6.0,8.0,80.0,7.0,324.0681751499942,,,,,,,,,,,,,,,,,324.0588649229903,324.4063584889809,325.21297989599407,325.20088744399254,,,,,,,,,,,,,,,,,,,,,,,,,,,,,,,,,,,325.2047133760061,325.21297989599407,325.21297989599407,325.6679230569862,g,1.0,0.4496584020089358,,,,,,sub-082,1,stroop_test,,
,,,,81.0,9.0,6.0,,,,,,,,,,,,,blau,blue,b,1.0,b,1.0,0.5986012519861106,,,,,,,,,,6.0,9.0,81.0,6.0,325.675266175007,,,,,,,,,,,,,,,,,325.6681952069921,326.8568710999971,327.6598275959841,327.65077313798247,,,,,,,,,,,,,,,,,,,,,,,,,,,,,,,,,,,327.65154384999187,327.6598275959841,327.6598275959841,328.2664585500024,b,1.0,0.5986012519861106,,,,,,sub-082,1,stroop_test,,
,,,,82.0,10.0,6.0,,,,,,,,,,,,,gelb,red,r,0.0,r,1.0,0.6606768209894653,,,,,,,,,,6.0,10.0,82.0,8.0,328.27478457498364,,,,,,,,,,,,,,,,,328.2667001799855,328.6056151299854,329.4019230819831,329.38886182999704,,,,,,,,,,,,,,,,,,,,,,,,,,,,,,,,,,,329.39335324498825,329.4019230819831,329.4019230819831,330.06792559300084,r,1.0,0.6606768209894653,,,,,,sub-082,1,stroop_test,,
,,,,83.0,11.0,6.0,,,,,,,,,,,,,blau,red,r,0.0,r,1.0,0.4325536440010182,,,,,,,,,,6.0,11.0,83.0,4.0,330.07603145600297,,,,,,,,,,,,,,,,,330.0682962629944,330.8656812380068,331.6650456979987,331.651113008993,,,,,,,,,,,,,,,,,,,,,,,,,,,,,,,,,,,331.6559025019815,331.6650456979987,331.6650456979987,332.1010334309831,r,1.0,0.4325536440010182,,,,,,sub-082,1,stroop_test,,
,,,,84.0,0.0,7.0,,,,,,,,,,,,,gelb,yellow,g,1.0,g,1.0,0.5119515809928998,,,,,,,,,,7.0,0.0,84.0,10.0,332.1091859230073,,,,,,,,,,,,,,,,,332.1013342659862,332.1983968770073,332.99451876300736,332.98282965799444,,,,,,,,,,,,,,,,,,,,,,,,,,,,,,,,,,,332.9868392139906,332.99451876300736,332.99451876300736,333.5160566919949,g,1.0,0.5119515809928998,,,,,,sub-082,1,stroop_test,,
,,,,85.0,1.0,7.0,,,,,,,,,,,,,blau,blue,b,1.0,b,1.0,0.540004570997553,,,,,,,,,,7.0,1.0,85.0,5.0,333.52313995099394,,,,,,,,,,,,,,,,,333.5162780130049,334.7066885539971,335.5133788549865,335.4994559059851,,,,,,,,,,,,,,,,,,,,,,,,,,,,,,,,,,,335.5048420809908,335.5133788549865,335.5133788549865,336.0588432329823,b,1.0,0.540004570997553,,,,,,sub-082,1,stroop_test,,
,,,,86.0,2.0,7.0,,,,,,,,,,,,,blau,blue,b,1.0,b,1.0,0.6626060899870936,,,,,,,,,,7.0,2.0,86.0,6.0,336.0680943799962,,,,,,,,,,,,,,,,,336.0591630639974,337.2561491139932,338.0647106539982,338.0397849550063,,,,,,,,,,,,,,,,,,,,,,,,,,,,,,,,,,,338.0408319720009,338.0647106539982,338.0647106539982,338.73327361798147,b,1.0,0.6626060899870936,,,,,,sub-082,1,stroop_test,,
,,,,87.0,3.0,7.0,,,,,,,,,,,,,blau,red,r,0.0,r,1.0,0.4572592820040881,,,,,,,,,,7.0,3.0,87.0,4.0,338.74180839199107,,,,,,,,,,,,,,,,,338.7337303629902,339.52314515499165,340.3232542710029,340.31578556398745,,,,,,,,,,,,,,,,,,,,,,,,,,,,,,,,,,,340.3163118819939,340.3232542710029,340.3232542710029,340.7831121929921,r,1.0,0.4572592820040881,,,,,,sub-082,1,stroop_test,,
,,,,88.0,4.0,7.0,,,,,,,,,,,,,gelb,yellow,g,1.0,g,1.0,0.358324769011233,,,,,,,,,,7.0,4.0,88.0,11.0,340.7885824969853,,,,,,,,,,,,,,,,,340.78337423698395,341.97297738998896,342.78016881400254,342.7680239900073,,,,,,,,,,,,,,,,,,,,,,,,,,,,,,,,,,,342.7718914329889,342.78016881400254,342.78016881400254,343.14935389498714,g,1.0,0.358324769011233,,,,,,sub-082,1,stroop_test,,
,,,,89.0,5.0,7.0,,,,,,,,,,,,,rot,blue,b,0.0,b,1.0,0.446686862007482,,,,,,,,,,7.0,5.0,89.0,2.0,343.15761461798684,,,,,,,,,,,,,,,,,343.1496078099881,344.3384952019842,345.13574706899817,345.12265778699657,,,,,,,,,,,,,,,,,,,,,,,,,,,,,,,,,,,345.1272164899856,345.13574706899817,345.13574706899817,345.5836445199966,b,1.0,0.446686862007482,,,,,,sub-082,1,stroop_test,,
,,,,90.0,6.0,7.0,,,,,,,,,,,,,gelb,red,r,0.0,g,0.0,0.5370696159952786,,,,,,,,,,7.0,6.0,90.0,8.0,345.589995361981,,,,,,,,,,,,,,,,,345.5839155839931,346.781985507987,347.5783487499866,347.56687384299585,,,,,,,,,,,,,,,,,,,,,,,,,,,,,,,,,,,347.5706294020056,347.5783487499866,347.5783487499866,348.1169224779878,g,0.0,0.5370696159952786,,,,,,sub-082,1,stroop_test,,
,,,,91.0,7.0,7.0,,,,,,,,,,,,,gelb,blue,b,0.0,b,1.0,1.0893228459754027,,,,,,,,,,7.0,7.0,91.0,9.0,348.12405053700786,,,,,,,,,,,,,,,,,348.1173473469971,349.3156371289806,350.10831198998494,350.09918820799794,,,,,,,,,,,,,,,,,,,,,,,,,,,,,,,,,,,350.100044093997,350.10831198998494,350.10831198998494,351.2023952569871,b,1.0,1.0893228459754027,,,,,,sub-082,1,stroop_test,,
,,,,92.0,8.0,7.0,,,,,,,,,,,,,rot,red,r,1.0,r,1.0,0.5404465509927832,,,,,,,,,,7.0,8.0,92.0,1.0,351.21507610799745,,,,,,,,,,,,,,,,,351.20268336799927,351.2998087239976,352.0951321669854,352.08367686599377,,,,,,,,,,,,,,,,,,,,,,,,,,,,,,,,,,,352.08737378098886,352.0951321669854,352.0951321669854,352.6396775239846,r,1.0,0.5404465509927832,,,,,,sub-082,1,stroop_test,,
,,,,93.0,9.0,7.0,,,,,,,,,,,,,rot,yellow,g,0.0,g,1.0,0.8895024679950438,,,,,,,,,,7.0,9.0,93.0,3.0,352.6492937360017,,,,,,,,,,,,,,,,,352.64003533200594,353.8381967119931,354.6490946929844,354.62327106299927,,,,,,,,,,,,,,,,,,,,,,,,,,,,,,,,,,,354.6242812499986,354.6490946929844,354.6490946929844,355.5407798329834,g,1.0,0.8895024679950438,,,,,,sub-082,1,stroop_test,,
,,,,94.0,10.0,7.0,,,,,,,,,,,,,rot,red,r,1.0,r,1.0,0.7248768110002857,,,,,,,,,,7.0,10.0,94.0,0.0,355.549190944992,,,,,,,,,,,,,,,,,355.5410309769795,355.6375791360042,356.4316078919801,356.42130824300693,,,,,,,,,,,,,,,,,,,,,,,,,,,,,,,,,,,356.4220215929963,356.4316078919801,356.4316078919801,357.1657169459795,r,1.0,0.7248768110002857,,,,,,sub-082,1,stroop_test,,
,,,,95.0,11.0,7.0,,,,,,,,,,,,,blau,yellow,g,0.0,g,1.0,0.5420879909943324,,,,,,,,,,7.0,11.0,95.0,7.0,357.1728498619923,,,,,,,,,,,,,,,,,357.1659567139868,358.3564106169797,359.1644633959804,359.1499739429855,,,,,,,,,,,,,,,,,,,,,,,,,,,,,,,,,,,359.1554588940053,359.1644633959804,359.1644633959804,359.71557751798537,g,1.0,0.5420879909943324,,,,,,sub-082,1,stroop_test,,
,,,,96.0,0.0,8.0,,,,,,,,,,,,,blau,yellow,g,0.0,g,1.0,1.0948779140016995,,,,,,,,,,8.0,0.0,96.0,7.0,359.72263525999733,,,,,,,,,,,,,,,,,359.71580210799584,360.5178889549861,361.31470894798986,361.3041254080017,,,,,,,,,,,,,,,,,,,,,,,,,,,,,,,,,,,361.3047041700047,361.31470894798986,361.31470894798986,362.416497719998,g,1.0,1.0948779140016995,,,,,,sub-082,1,stroop_test,,
,,,,97.0,1.0,8.0,,,,,,,,,,,,,gelb,yellow,g,1.0,g,1.0,0.5027944999746978,,,,,,,,,,8.0,1.0,97.0,10.0,362.4274323440041,,,,,,,,,,,,,,,,,362.4170341989957,363.6164152849815,364.4177887209808,364.404960579006,,,,,,,,,,,,,,,,,,,,,,,,,,,,,,,,,,,364.4093950789829,364.4177887209808,364.4177887209808,364.9222767509928,g,1.0,0.5027944999746978,,,,,,sub-082,1,stroop_test,,
,,,,98.0,2.0,8.0,,,,,,,,,,,,,gelb,yellow,g,1.0,g,1.0,0.4211792990099638,,,,,,,,,,8.0,2.0,98.0,11.0,364.9312082740071,,,,,,,,,,,,,,,,,364.9225325830048,366.1151194569829,366.9084276109934,366.9005478679901,,,,,,,,,,,,,,,,,,,,,,,,,,,,,,,,,,,366.90120236898656,366.9084276109934,366.9084276109934,367.3323893119814,g,1.0,0.4211792990099638,,,,,,sub-082,1,stroop_test,,
,,,,99.0,3.0,8.0,,,,,,,,,,,,,rot,blue,b,0.0,b,1.0,0.8329175559920259,,,,,,,,,,8.0,3.0,99.0,2.0,367.3410740139952,,,,,,,,,,,,,,,,,367.3326738580072,367.6726938500069,368.4776655189926,368.4655780089961,,,,,,,,,,,,,,,,,,,,,,,,,,,,,,,,,,,368.4692418630002,368.4776655189926,368.4776655189926,369.3163981130056,b,1.0,0.8329175559920259,,,,,,sub-082,1,stroop_test,,
,,,,100.0,4.0,8.0,,,,,,,,,,,,,blau,red,r,0.0,r,1.0,0.5322287500021048,,,,,,,,,,8.0,4.0,100.0,4.0,369.3246257819992,,,,,,,,,,,,,,,,,369.3167382669926,369.666696226981,370.46132946998114,370.4498141630029,,,,,,,,,,,,,,,,,,,,,,,,,,,,,,,,,,,370.4535136129998,370.46132946998114,370.46132946998114,371.0010630929901,r,1.0,0.5322287500021048,,,,,,sub-082,1,stroop_test,,
,,,,101.0,5.0,8.0,,,,,,,,,,,,,blau,blue,b,1.0,b,1.0,0.4641315779881552,,,,,,,,,,8.0,5.0,101.0,5.0,371.0148086169793,,,,,,,,,,,,,,,,,371.00129806098994,372.1995178780053,372.9894326500071,372.9821712010016,,,,,,,,,,,,,,,,,,,,,,,,,,,,,,,,,,,372.9824808310077,372.9894326500071,372.9894326500071,373.4571301999968,b,1.0,0.4641315779881552,,,,,,sub-082,1,stroop_test,,
,,,,102.0,6.0,8.0,,,,,,,,,,,,,rot,yellow,g,0.0,g,1.0,0.5721873849979602,,,,,,,,,,8.0,6.0,102.0,3.0,373.4646716729912,,,,,,,,,,,,,,,,,373.4573874269845,374.65581354498863,375.4644276759937,375.4514290129882,,,,,,,,,,,,,,,,,,,,,,,,,,,,,,,,,,,375.4552536219999,375.4644276759937,375.4644276759937,376.04073494600016,g,1.0,0.5721873849979602,,,,,,sub-082,1,stroop_test,,
,,,,103.0,7.0,8.0,,,,,,,,,,,,,rot,red,r,1.0,r,1.0,0.667434383998625,,,,,,,,,,8.0,7.0,103.0,0.0,376.05047511699377,,,,,,,,,,,,,,,,,376.0411476339796,376.8392778919952,377.63300970199634,377.6226108679839,,,,,,,,,,,,,,,,,,,,,,,,,,,,,,,,,,,377.6237676129968,377.63300970199634,377.63300970199634,378.3077152739861,r,1.0,0.667434383998625,,,,,,sub-082,1,stroop_test,,
,,,,104.0,8.0,8.0,,,,,,,,,,,,,blau,blue,b,1.0,b,1.0,0.976726568012964,,,,,,,,,,8.0,8.0,104.0,6.0,378.3169750389934,,,,,,,,,,,,,,,,,378.3079574400035,379.50618325098185,380.3020573880058,380.2892354909855,,,,,,,,,,,,,,,,,,,,,,,,,,,,,,,,,,,380.2932094029966,380.3020573880058,380.3020573880058,381.2837552980054,b,1.0,0.976726568012964,,,,,,sub-082,1,stroop_test,,
,,,,105.0,9.0,8.0,,,,,,,,,,,,,gelb,blue,b,0.0,g,0.0,0.6356740260089282,,,,,,,,,,8.0,9.0,105.0,9.0,381.2919957609847,,,,,,,,,,,,,,,,,381.2840236229822,382.4828282039962,383.2850356849958,383.2716927620058,,,,,,,,,,,,,,,,,,,,,,,,,,,,,,,,,,,383.2765726869984,383.2850356849958,383.2850356849958,383.923363651993,g,0.0,0.6356740260089282,,,,,,sub-082,1,stroop_test,,
,,,,106.0,10.0,8.0,,,,,,,,,,,,,gelb,red,r,0.0,r,1.0,0.7366666430025361,,,,,,,,,,8.0,10.0,106.0,8.0,383.9310511100048,,,,,,,,,,,,,,,,,383.9236171139928,384.72247811499983,385.53107890699175,385.505817636993,,,,,,,,,,,,,,,,,,,,,,,,,,,,,,,,,,,385.5069908970036,385.53107890699175,385.53107890699175,386.27282342800754,r,1.0,0.7366666430025361,,,,,,sub-082,1,stroop_test,,
,,,,107.0,11.0,8.0,,,,,,,,,,,,,rot,red,r,1.0,r,1.0,0.6723867679829709,,,,,,,,,,8.0,11.0,107.0,1.0,386.2821307900013,,,,,,,,,,,,,,,,,386.2731532449834,387.0649254659948,387.8602727940015,387.84877932298696,,,,,,,,,,,,,,,,,,,,,,,,,,,,,,,,,,,387.8525077739905,387.8602727940015,387.8602727940015,388.5397063859855,r,1.0,0.6723867679829709,,,,,,sub-082,1,stroop_test,,
,,,,108.0,0.0,9.0,,,,,,,,,,,,,gelb,blue,b,0.0,b,1.0,2.0140690430125687,,,,,,,,,,9.0,0.0,108.0,9.0,388.5491185679857,,,,,,,,,,,,,,,,,388.5399703749863,389.73747819298296,390.5365289280016,390.5229717519833,,,,,,,,,,,,,,,,,,,,,,,,,,,,,,,,,,,390.5281302710064,390.5365289280016,390.5365289280016,392.5572486919991,b,1.0,2.0140690430125687,,,,,,sub-082,1,stroop_test,,
,,,,109.0,1.0,9.0,,,,,,,,,,,,,rot,red,r,1.0,r,1.0,0.6862488560145721,,,,,,,,,,9.0,1.0,109.0,1.0,392.5666796049918,,,,,,,,,,,,,,,,,392.55750706099207,393.3542568119883,394.16049763499177,394.1486603049853,,,,,,,,,,,,,,,,,,,,,,,,,,,,,,,,,,,394.1524456710031,394.16049763499177,394.16049763499177,394.8487332990044,r,1.0,0.6862488560145721,,,,,,sub-082,1,stroop_test,,
,,,,110.0,2.0,9.0,,,,,,,,,,,,,blau,red,r,0.0,r,1.0,0.6516951530065853,,,,,,,,,,9.0,2.0,110.0,4.0,394.8544961139851,,,,,,,,,,,,,,,,,394.8489851809864,394.93913806800265,395.7359983070055,395.722470209992,,,,,,,,,,,,,,,,,,,,,,,,,,,,,,,,,,,395.7275111640047,395.7359983070055,395.7359983070055,396.3894651989976,r,1.0,0.6516951530065853,,,,,,sub-082,1,stroop_test,,
,,,,111.0,3.0,9.0,,,,,,,,,,,,,gelb,red,r,0.0,r,1.0,0.495165372005431,,,,,,,,,,9.0,3.0,111.0,8.0,396.39743488898966,,,,,,,,,,,,,,,,,396.3897240780061,397.5882593529823,398.3844541069993,398.37115407700185,,,,,,,,,,,,,,,,,,,,,,,,,,,,,,,,,,,398.3755680859904,398.3844541069993,398.3844541069993,398.88259632498375,r,1.0,0.495165372005431,,,,,,sub-082,1,stroop_test,,
,,,,112.0,4.0,9.0,,,,,,,,,,,,,rot,yellow,g,0.0,g,1.0,0.9458729589823632,,,,,,,,,,9.0,4.0,112.0,3.0,398.8917431730079,,,,,,,,,,,,,,,,,398.8829397469817,398.9726200719888,399.77883901898167,399.76672871399205,,,,,,,,,,,,,,,,,,,,,,,,,,,,,,,,,,,399.7705162299972,399.77883901898167,399.77883901898167,400.7315995459794,g,1.0,0.9458729589823632,,,,,,sub-082,1,stroop_test,,
,,,,113.0,5.0,9.0,,,,,,,,,,,,,rot,red,r,1.0,r,1.0,0.913023726985557,,,,,,,,,,9.0,5.0,113.0,0.0,400.7387718149985,,,,,,,,,,,,,,,,,400.731836269988,401.0701326109993,401.8646749900072,401.8545643420075,,,,,,,,,,,,,,,,,,,,,,,,,,,,,,,,,,,401.8554192589945,401.8646749900072,401.8646749900072,402.7821432259807,r,1.0,0.913023726985557,,,,,,sub-082,1,stroop_test,,
,,,,114.0,6.0,9.0,,,,,,,,,,,,,blau,blue,b,1.0,b,1.0,0.6097763880097773,,,,,,,,,,9.0,6.0,114.0,6.0,402.7899000739853,,,,,,,,,,,,,,,,,402.7824355579796,402.8725804160058,403.6770305369864,403.6650600739813,,,,,,,,,,,,,,,,,,,,,,,,,,,,,,,,,,,403.6692200370017,403.6770305369864,403.6770305369864,404.2886280689854,b,1.0,0.6097763880097773,,,,,,sub-082,1,stroop_test,,
,,,,115.0,7.0,9.0,,,,,,,,,,,,,blau,blue,b,1.0,b,1.0,0.4599407080095261,,,,,,,,,,9.0,7.0,115.0,5.0,404.2973612709902,,,,,,,,,,,,,,,,,404.288881941,405.4887027849909,406.2838177399826,406.2729184879863,,,,,,,,,,,,,,,,,,,,,,,,,,,,,,,,,,,406.2739794189984,406.2838177399826,406.2838177399826,406.749261022982,b,1.0,0.4599407080095261,,,,,,sub-082,1,stroop_test,,
,,,,116.0,8.0,9.0,,,,,,,,,,,,,gelb,yellow,g,1.0,g,1.0,1.5983320379746149,,,,,,,,,,9.0,8.0,116.0,11.0,406.7578154389921,,,,,,,,,,,,,,,,,406.7495058589848,407.5382978259877,408.3363525309833,408.3227471319842,,,,,,,,,,,,,,,,,,,,,,,,,,,,,,,,,,,408.3278821049898,408.3363525309833,408.3363525309833,409.9387708040013,g,1.0,1.5983320379746149,,,,,,sub-082,1,stroop_test,,
,,,,117.0,9.0,9.0,,,,,,,,,,,,,gelb,yellow,g,1.0,g,1.0,0.4553669810120482,,,,,,,,,,9.0,9.0,117.0,10.0,409.94746183100506,,,,,,,,,,,,,,,,,409.9390390839835,410.28093015999184,411.0816016960016,411.0673244819918,,,,,,,,,,,,,,,,,,,,,,,,,,,,,,,,,,,411.0680073160038,411.0816016960016,411.0816016960016,411.5393643119896,g,1.0,0.4553669810120482,,,,,,sub-082,1,stroop_test,,
,,,,118.0,10.0,9.0,,,,,,,,,,,,,rot,blue,b,0.0,b,1.0,0.8107714070065413,,,,,,,,,,9.0,10.0,118.0,2.0,411.5475297810044,,,,,,,,,,,,,,,,,411.53966024599504,411.8874404929811,412.6799151109881,412.6708808919939,,,,,,,,,,,,,,,,,,,,,,,,,,,,,,,,,,,412.6732377769949,412.6799151109881,412.6799151109881,413.4981824719871,b,1.0,0.8107714070065413,,,,,,sub-082,1,stroop_test,,
,,,,119.0,11.0,9.0,,,,,,,,,,,,,blau,yellow,g,0.0,g,1.0,0.7525624500121921,,,,,,,,,,9.0,11.0,119.0,7.0,413.5065805540071,,,,,,,,,,,,,,,,,413.4984169600066,413.8386732439976,414.6442202629987,414.6328559579852,,,,,,,,,,,,,,,,,,,,,,,,,,,,,,,,,,,414.6365547169989,414.6442202629987,414.6442202629987,415.39871246999246,g,1.0,0.7525624500121921,,,,,,sub-082,1,stroop_test,,
,,,,,,,,,,,,,,,,,,,,,,,,,,,,,,,,,,,,,,,,,,,,,,,,,,,,,,,,,,,,,,,,,,,,,,,,,,,,,,,,,,,,,,,,,,,,,,,,,,,,,,415.3988356280024,415.4069776379911,420.40406015500776,420.397997817985,sub-082,1,stroop_test,,
