wordCTK,colorCTK,corrAnsCTK,congruentCTK,thisN,thisTrialN,thisRepN,keyResp_CTK.keys,keyResp_CTK.corr,keyResp_CTK.rt,keyResp_CTK.duration,wordPractice,colorPractice,corrAnsPractice,congruentPractice,respPractice.keys,respPractice.corr,respPractice.rt,respPractice.duration,word,color,corrAns,congruent,keyResp_test_run.keys,keyResp_test_run.corr,keyResp_test_run.rt,keyResp_test_run.duration,trials_CTK.thisRepN,trials_CTK.thisTrialN,trials_CTK.thisN,trials_CTK.thisIndex,trials_practice.thisRepN,trials_practice.thisTrialN,trials_practice.thisN,trials_practice.thisIndex,trials_test.thisRepN,trials_test.thisTrialN,trials_test.thisN,trials_test.thisIndex,thisRow.t,notes,instruction.started,instr_text.started,instr_image.started,instr_resp.started,instruction.stopped,instr_resp.keys,instr_resp.rt,instr_resp.duration,instr_color_to_key.started,instr_ctk.started,resp_ctk.started,instr_color_to_key.stopped,resp_ctk.keys,resp_ctk.rt,resp_ctk.duration,ITI.started,fixcross.started,fixcross.stopped,ITI.stopped,color_to_key_run.started,stimulus_CTK.started,keyResp_CTK.started,color_to_key_run.stopped,trials_CTK.keyResp_CTK.keys,trials_CTK.keyResp_CTK.corr,trials_CTK.keyResp_CTK.rt,trials_CTK.keyResp_CTK.duration,instr_practice.started,instr_practice_text.started,instr_practice_resp.started,instr_practice.stopped,instr_practice_resp.keys,instr_practice_resp.rt,instr_practice_resp.duration,practice_run.started,stimulus_practice.started,respPractice.started,practice_run.stopped,trials_practice.respPractice.keys,trials_practice.respPractice.corr,trials_practice.respPractice.rt,trials_practice.respPractice.duration,feedback.started,textFeedback.started,textFeedback.stopped,feedback.stopped,instr_test.started,instr_test_text.started,instr_test_resp.started,instr_test.stopped,instr_test_resp.keys,instr_test_resp.rt,instr_test_resp.duration,test_run.started,stimulus_test_run.started,keyResp_test_run.started,test_run.stopped,trials_test.keyResp_test_run.keys,trials_test.keyResp_test_run.corr,trials_test.keyResp_test_run.rt,trials_test.keyResp_test_run.duration,goodbye.started,textGoodbye.started,textGoodbye.stopped,goodbye.stopped,participant,session,expName,frameRate,Unnamed: 113
,,,,,,,,,,,,,,,,,,,,,,,,,,,,,,,,,,,,,,,,,0.0073384999996051,0.0160658749955473,0.0160658749955473,0.0160658749955473,25.055488541998784,space,25.009355583002616,,,,,,,,,,,,,,,,,,,,,,,,,,,,,,,,,,,,,,,,,,,,,,,,,,,,,,,,,,,sub-068,1,stroop_test,,
,,,,,,,,,,,,,,,,,,,,,,,,,,,,,,,,,,,,,,,,,,,,,,,,,25.055549917000462,25.062111582999933,25.062111582999933,33.30115362499782,space,8.2326352079981,,,,,,,,,,,,,,,,,,,,,,,,,,,,,,,,,,,,,,,,,,,,,,,,,,,,sub-068,1,stroop_test,,
test,blue,b,1.0,0.0,0.0,0.0,b,1.0,1.2283228750020498,,,,,,,,,,,,,,,,,,0.0,0.0,0.0,2.0,,,,,,,,,33.32956537499558,,,,,,,,,,,,,,,,,33.313986332999775,34.10006829199847,34.89914158299507,34.8840800830003,34.89071758299542,34.89914158299507,34.89914158299507,36.130040541997005,b,1.0,1.2283228750020498,,,,,,,,,,,,,,,,,,,,,,,,,,,,,,,,,,,,,,,,sub-068,1,stroop_test,,
test,red,r,1.0,1.0,1.0,0.0,r,1.0,1.0350325830004294,,,,,,,,,,,,,,,,,,0.0,1.0,1.0,0.0,,,,,,,,,36.13875837499654,,,,,,,,,,,,,,,,,36.13056504199631,36.476884457995766,37.26953029199649,37.26131795800029,37.26195062499755,37.26953029199649,37.26953029199649,38.31302770799812,r,1.0,1.0350325830004294,,,,,,,,,,,,,,,,,,,,,,,,,,,,,,,,,,,,,,,,sub-068,1,stroop_test,,
test,yellow,g,1.0,2.0,2.0,0.0,g,1.0,0.6251903750016936,,,,,,,,,,,,,,,,,,0.0,2.0,2.0,1.0,,,,,,,,,38.32183095799701,,,,,,,,,,,,,,,,,38.31359920799878,38.40985974999785,39.20277433299634,39.194598750000296,39.19506362499669,39.20277433299634,39.20277433299634,39.84085591699841,g,1.0,0.6251903750016936,,,,,,,,,,,,,,,,,,,,,,,,,,,,,,,,,,,,,,,,sub-068,1,stroop_test,,
test,blue,b,1.0,3.0,0.0,1.0,b,1.0,0.8463810000030207,,,,,,,,,,,,,,,,,,1.0,0.0,3.0,2.0,,,,,,,,,39.84637808299885,,,,,,,,,,,,,,,,,39.84120020800037,41.03409733299486,41.83629408299748,41.82812608299719,41.82881783299672,41.83629408299748,41.83629408299748,42.68501779199869,b,1.0,0.8463810000030207,,,,,,,,,,,,,,,,,,,,,,,,,,,,,,,,,,,,,,,,sub-068,1,stroop_test,,
test,red,r,1.0,4.0,1.0,1.0,r,1.0,0.4433867089974228,,,,,,,,,,,,,,,,,,1.0,1.0,4.0,0.0,,,,,,,,,42.69381295800122,,,,,,,,,,,,,,,,,42.68540179199772,43.03450608300045,43.82640399999946,43.81771137499891,43.81833075000032,43.82640399999946,43.82640399999946,44.27942520799843,r,1.0,0.4433867089974228,,,,,,,,,,,,,,,,,,,,,,,,,,,,,,,,,,,,,,,,sub-068,1,stroop_test,,
test,yellow,g,1.0,5.0,2.0,1.0,g,1.0,0.5121198749984615,,,,,,,,,,,,,,,,,,1.0,2.0,5.0,1.0,,,,,,,,,44.28812458299944,,,,,,,,,,,,,,,,,44.27989329199772,45.07747474999633,45.86991124999622,45.86157166699559,45.86234620799951,45.86991124999622,45.86991124999622,46.38489466699684,g,1.0,0.5121198749984615,,,,,,,,,,,,,,,,,,,,,,,,,,,,,,,,,,,,,,,,sub-068,1,stroop_test,,
test,yellow,g,1.0,6.0,0.0,2.0,g,1.0,0.8522855829942273,,,,,,,,,,,,,,,,,,2.0,0.0,6.0,1.0,,,,,,,,,46.39370116699865,,,,,,,,,,,,,,,,,46.38540604199807,46.72723516699625,47.51943349999783,47.51139879199764,47.51211258299736,47.51943349999783,47.51943349999783,48.379473458000575,g,1.0,0.8522855829942273,,,,,,,,,,,,,,,,,,,,,,,,,,,,,,,,,,,,,,,,sub-068,1,stroop_test,,
test,blue,b,1.0,7.0,1.0,2.0,b,1.0,0.2752792500032228,,,,,,,,,,,,,,,,,,2.0,1.0,7.0,2.0,,,,,,,,,48.38991074999649,,,,,,,,,,,,,,,,,48.379993541995646,49.17782712500048,49.96929170799558,49.9613434579951,49.96192170799623,49.96929170799558,49.96929170799558,50.25802695799939,b,1.0,0.2752792500032228,,,,,,,,,,,,,,,,,,,,,,,,,,,,,,,,,,,,,,,,sub-068,1,stroop_test,,
test,red,r,1.0,8.0,2.0,2.0,r,1.0,0.413414875001763,,,,,,,,,,,,,,,,,,2.0,2.0,8.0,0.0,,,,,,,,,50.2642166250007,,,,,,,,,,,,,,,,,50.25863974999811,50.60083704199496,51.40271012499579,51.39465729199583,51.39519741699769,51.40271012499579,51.40271012499579,51.818286207999336,r,1.0,0.413414875001763,,,,,,,,,,,,,,,,,,,,,,,,,,,,,,,,,,,,,,,,sub-068,1,stroop_test,,
test,blue,b,1.0,9.0,0.0,3.0,b,1.0,0.5362692080016132,,,,,,,,,,,,,,,,,,3.0,0.0,9.0,2.0,,,,,,,,,51.82704312499845,,,,,,,,,,,,,,,,,51.8186229579951,51.916978957997344,52.70908620800037,52.700751416996354,52.70130829199479,52.70908620800037,52.70908620800037,53.252962457998365,b,1.0,0.5362692080016132,,,,,,,,,,,,,,,,,,,,,,,,,,,,,,,,,,,,,,,,sub-068,1,stroop_test,,
test,yellow,g,1.0,10.0,1.0,3.0,g,1.0,0.4741917909996118,,,,,,,,,,,,,,,,,,3.0,1.0,10.0,1.0,,,,,,,,,53.27701204199548,,,,,,,,,,,,,,,,,53.2534690829998,53.601336583000375,54.40286383299826,54.39472166699852,54.39531304199773,54.40286383299826,54.40286383299826,54.885916457998974,g,1.0,0.4741917909996118,,,,,,,,,,,,,,,,,,,,,,,,,,,,,,,,,,,,,,,,sub-068,1,stroop_test,,
test,red,r,1.0,11.0,2.0,3.0,r,1.0,0.4595859580003889,,,,,,,,,,,,,,,,,,3.0,2.0,11.0,0.0,,,,,,,,,54.894215041997086,,,,,,,,,,,,,,,,,54.88647908299754,54.983104250000906,55.776563791994704,55.767959958000574,55.76847216700117,55.776563791994704,55.776563791994704,56.24650524999743,r,1.0,0.4595859580003889,,,,,,,,,,,,,,,,,,,,,,,,,,,,,,,,,,,,,,,,sub-068,1,stroop_test,,
,,,,,,,,,,,,,,,,,,,,,,,,,,,,,,,,,,,,,,,,,,,,,,,,,,,,,,,,,,,,,,,,,,,,56.24671174999821,56.25473045800027,56.25473045800027,61.77943895800127,space,5.515619832993252,,,,,,,,,,,,,,,,,,,,,,,,,,,,,,,,,sub-068,1,stroop_test,,
,,,,0.0,0.0,0.0,,,,,gelb,yellow,g,1.0,g,1.0,0.6438222500000848,,,,,,,,,,,,,,0.0,0.0,0.0,11.0,,,,,61.800732208001136,,,,,,,,,,,,,,,,,61.79336320799485,61.87746825000068,62.67639587500162,62.66130529200018,,,,,,,,,,,,,,,,62.66792579199682,62.67639587500162,62.67639587500162,63.32875375000003,g,1.0,0.6438222500000848,,63.33374545799597,63.34136349999608,64.33449216699955,64.32793487500021,,,,,,,,,,,,,,,,,,,,sub-068,1,stroop_test,,
,,,,1.0,1.0,0.0,,,,,blau,yellow,g,0.0,g,1.0,1.5703489589941455,,,,,,,,,,,,,,0.0,1.0,1.0,7.0,,,,,64.33449216699955,,,,,,,,,,,,,,,,,64.32846687499841,65.52741783300007,66.32465087500168,66.31150791699474,,,,,,,,,,,,,,,,66.31694920799782,66.32465087500168,66.32465087500168,67.9081824169989,g,1.0,1.5703489589941455,,67.90919600000052,67.91640362500038,68.91054512499977,68.90128099999856,,,,,,,,,,,,,,,,,,,,sub-068,1,stroop_test,,
,,,,2.0,2.0,0.0,,,,,rot,blue,b,0.0,b,1.0,1.094837707998522,,,,,,,,,,,,,,0.0,2.0,2.0,2.0,,,,,68.91054512499977,,,,,,,,,,,,,,,,,68.90169516699825,69.0016255829978,69.8107481670013,69.79460033299983,,,,,,,,,,,,,,,,69.79959954199876,69.8107481670013,69.8107481670013,70.91280333299801,b,1.0,1.094837707998522,,70.91359604199533,70.92540879199805,71.91569499999605,71.90964558300038,,,,,,,,,,,,,,,,,,,,sub-068,1,stroop_test,,
,,,,3.0,3.0,0.0,,,,,rot,yellow,g,0.0,g,1.0,0.9282415839988972,,,,,,,,,,,,,,0.0,3.0,3.0,3.0,,,,,71.91569499999605,,,,,,,,,,,,,,,,,71.90998604199558,72.26086995800142,73.05325187499693,73.04490974999499,,,,,,,,,,,,,,,,73.04576341700158,73.05325187499693,73.05325187499693,73.98642058300175,g,1.0,0.9282415839988972,,73.98721074999776,73.99884412499523,74.99397075000161,74.98423908300174,,,,,,,,,,,,,,,,,,,,sub-068,1,stroop_test,,
,,,,4.0,4.0,0.0,,,,,gelb,yellow,g,1.0,g,1.0,0.6233215829997789,,,,,,,,,,,,,,0.0,4.0,4.0,10.0,,,,,74.99397075000161,,,,,,,,,,,,,,,,,74.98459124999499,76.18472070799908,76.98976841699914,76.97787524999876,,,,,,,,,,,,,,,,76.98213216699514,76.98976841699914,76.98976841699914,77.61933295799827,g,1.0,0.6233215829997789,,77.62011245799658,77.62927549999586,78.62762595799722,78.61737266699492,,,,,,,,,,,,,,,,,,,,sub-068,1,stroop_test,,
,,,,5.0,5.0,0.0,,,,,blau,blue,b,1.0,b,1.0,0.8526425419986481,,,,,,,,,,,,,,0.0,5.0,5.0,5.0,,,,,78.62762595799722,,,,,,,,,,,,,,,,,78.6176212499995,78.9682472919958,79.76359112499631,79.75173483300023,,,,,,,,,,,,,,,,79.75509304199659,79.76359112499631,79.76359112499631,80.61973104199569,b,1.0,0.8526425419986481,,80.62051649999921,80.63215658300032,81.62745458299469,81.61792887499905,,,,,,,,,,,,,,,,,,,,sub-068,1,stroop_test,,
,,,,6.0,6.0,0.0,,,,,blau,red,r,0.0,r,1.0,0.8629504170021391,,,,,,,,,,,,,,0.0,6.0,6.0,4.0,,,,,81.62745458299469,,,,,,,,,,,,,,,,,81.61827079200157,82.81788087500172,83.61040320799657,83.60153854199598,,,,,,,,,,,,,,,,83.602140666997,83.61040320799657,83.61040320799657,84.47981304199493,r,1.0,0.8629504170021391,,84.48023445799481,84.4885967079972,85.48483312499593,85.4779208330001,,,,,,,,,,,,,,,,,,,,sub-068,1,stroop_test,,
,,,,7.0,7.0,0.0,,,,,rot,red,r,1.0,r,1.0,0.6898175840033218,,,,,,,,,,,,,,0.0,7.0,7.0,1.0,,,,,85.48483312499593,,,,,,,,,,,,,,,,,85.47863116699591,85.57754566700169,86.37660779200087,86.36140791700018,,,,,,,,,,,,,,,,86.36504074999539,86.37660779200087,86.37660779200087,87.06919591699989,r,1.0,0.6898175840033218,,87.0699435419956,87.07927008299885,88.07774954199704,88.0677316250003,,,,,,,,,,,,,,,,,,,,sub-068,1,stroop_test,,
,,,,8.0,8.0,0.0,,,,,rot,red,r,1.0,r,1.0,0.917935541998304,,,,,,,,,,,,,,0.0,8.0,8.0,0.0,,,,,88.07774954199704,,,,,,,,,,,,,,,,,88.06798695799807,88.41828674999852,89.21081370799948,89.20240745799674,,,,,,,,,,,,,,,,89.20289533300092,89.21081370799948,89.21081370799948,90.13488341699848,r,1.0,0.917935541998304,,90.13530204199924,90.14420408300066,91.1341175829948,91.1279640829962,,,,,,,,,,,,,,,,,,,,sub-068,1,stroop_test,,
,,,,9.0,9.0,0.0,,,,,blau,blue,b,1.0,b,1.0,0.406830332998652,,,,,,,,,,,,,,0.0,9.0,9.0,6.0,,,,,91.1341175829948,,,,,,,,,,,,,,,,,91.12834729199676,91.9275050829965,92.7236913749948,92.71153866699753,,,,,,,,,,,,,,,,92.71597945800022,92.7236913749948,92.7236913749948,93.13701149999542,b,1.0,0.406830332998652,,93.13785999999529,93.15002229200036,94.14311462499607,94.1348607079999,,,,,,,,,,,,,,,,,,,,sub-068,1,stroop_test,,
,,,,10.0,10.0,0.0,,,,,gelb,blue,b,0.0,g,0.0,0.929163000000699,,,,,,,,,,,,,,0.0,10.0,10.0,9.0,,,,,94.14311462499607,,,,,,,,,,,,,,,,,94.13533933299914,94.9352700419986,95.74082674999954,95.72856354199756,,,,,,,,,,,,,,,,95.73304362499766,95.74082674999954,95.74082674999954,96.67962008299946,g,0.0,0.929163000000699,,96.68572795799992,96.69580275000044,,97.68350087499856,,,,,,,,,,,,,,,,,,,,sub-068,1,stroop_test,,
,,,,11.0,11.0,0.0,,,,,gelb,red,r,0.0,r,1.0,1.2640114589958102,,,,,,,,,,,,,,0.0,11.0,11.0,8.0,,,,,97.69421541699558,,,,,,,,,,,,,,,,,97.68396366699744,98.47755533299642,99.26952149999852,99.26149662499664,,,,,,,,,,,,,,,,99.26225204199729,99.26952149999852,99.26952149999852,100.54601945800096,r,1.0,1.2640114589958102,,100.54918570799782,100.55704837499798,101.55094654199638,101.54477662499994,,,,,,,,,,,,,,,,,,,,sub-068,1,stroop_test,,
,,,,12.0,0.0,1.0,,,,,gelb,red,r,0.0,r,1.0,1.4254594580052071,,,,,,,,,,,,,,1.0,0.0,12.0,8.0,,,,,101.55094654199638,,,,,,,,,,,,,,,,,101.54521562499576,102.74374845800048,103.5358990829991,103.5279162079969,,,,,,,,,,,,,,,,103.5284935419986,103.5358990829991,103.5358990829991,104.9644643749998,r,1.0,1.4254594580052071,,104.96527754199631,104.97474345799856,105.96777799999836,105.96144958299556,,,,,,,,,,,,,,,,,,,,sub-068,1,stroop_test,,
,,,,13.0,1.0,1.0,,,,,blau,blue,b,1.0,b,1.0,0.7835152499974356,,,,,,,,,,,,,,1.0,1.0,13.0,5.0,,,,,105.96777799999836,,,,,,,,,,,,,,,,,105.96184941699904,106.31079108300035,107.10581283299688,107.094645707999,,,,,,,,,,,,,,,,107.09817920799831,107.10581283299688,107.10581283299688,107.89586662499642,b,1.0,0.7835152499974356,,107.8962585420013,107.9033502079983,108.90097716699528,108.89482937499996,,,,,,,,,,,,,,,,,,,,sub-068,1,stroop_test,,
,,,,14.0,2.0,1.0,,,,,rot,blue,b,0.0,b,1.0,1.2904460419958923,,,,,,,,,,,,,,1.0,2.0,14.0,2.0,,,,,108.90097716699528,,,,,,,,,,,,,,,,,108.89522004199534,109.24431724999886,110.04242320799676,110.02778541699809,,,,,,,,,,,,,,,,110.03167770800064,110.04242320799676,110.04242320799676,111.3348129579972,b,1.0,1.2904460419958923,,111.33520062499883,111.34392208299688,112.33450825000182,112.32826629199552,,,,,,,,,,,,,,,,,,,,sub-068,1,stroop_test,,
,,,,15.0,3.0,1.0,,,,,blau,yellow,g,0.0,g,1.0,1.0656680419997429,,,,,,,,,,,,,,1.0,3.0,15.0,7.0,,,,,112.33450825000182,,,,,,,,,,,,,,,,,112.32867579199956,112.42751999999746,113.2227563330016,113.21134404199984,,,,,,,,,,,,,,,,113.21479591699608,113.2227563330016,113.2227563330016,114.29499045800183,g,1.0,1.0656680419997429,,114.2953176250012,114.30244895799842,115.3016387079988,115.29515287499817,,,,,,,,,,,,,,,,,,,,sub-068,1,stroop_test,,
,,,,16.0,4.0,1.0,,,,,rot,red,r,1.0,r,1.0,0.722050374999526,,,,,,,,,,,,,,1.0,4.0,16.0,0.0,,,,,115.3016387079988,,,,,,,,,,,,,,,,,115.29565479199664,115.38429612499748,116.18121566699848,116.16809170800116,,,,,,,,,,,,,,,,116.17150554199908,116.18121566699848,116.18121566699848,116.9129891670018,r,1.0,0.722050374999526,,116.91358637499798,116.92114033299733,117.9178624999986,117.91075524999906,,,,,,,,,,,,,,,,,,,,sub-068,1,stroop_test,,
,,,,17.0,5.0,1.0,,,,,gelb,yellow,g,1.0,g,1.0,0.7541306659986731,,,,,,,,,,,,,,1.0,5.0,17.0,10.0,,,,,117.9178624999986,,,,,,,,,,,,,,,,,117.91144933299802,118.2609540830017,119.05710570800149,119.04487425000116,,,,,,,,,,,,,,,,119.04923108300136,119.05710570800149,119.05710570800149,119.8143644169977,g,1.0,0.7541306659986731,,119.8151324579958,119.82622170799732,120.818035874996,120.81153441700008,,,,,,,,,,,,,,,,,,,,sub-068,1,stroop_test,,
,,,,18.0,6.0,1.0,,,,,gelb,yellow,g,1.0,g,1.0,0.6519613749987911,,,,,,,,,,,,,,1.0,6.0,18.0,11.0,,,,,120.818035874996,,,,,,,,,,,,,,,,,120.81192716700023,121.61101870799756,122.40455354200094,122.39567758300107,,,,,,,,,,,,,,,,122.39671533300134,122.40455354200094,122.40455354200094,123.06405124999584,g,1.0,0.6519613749987911,,123.06485087500188,123.0771137499978,124.06767920799756,124.06142012499912,,,,,,,,,,,,,,,,,,,,sub-068,1,stroop_test,,
,,,,19.0,7.0,1.0,,,,,rot,red,r,1.0,r,1.0,0.7932291250035632,,,,,,,,,,,,,,1.0,7.0,19.0,1.0,,,,,124.06767920799756,,,,,,,,,,,,,,,,,124.06182341699603,124.41078199999902,125.21032683299563,125.19494237499748,,,,,,,,,,,,,,,,125.19856983299542,125.21032683299563,125.21032683299563,126.01306199999816,r,1.0,0.7932291250035632,,126.0136566250003,126.02204695800174,127.01781908299743,127.01153533299656,,,,,,,,,,,,,,,,,,,,sub-068,1,stroop_test,,
,,,,20.0,8.0,1.0,,,,,blau,blue,b,1.0,b,1.0,0.6212204999974347,,,,,,,,,,,,,,1.0,8.0,20.0,6.0,,,,,127.01781908299743,,,,,,,,,,,,,,,,,127.01192316699598,127.81093037499522,128.60716116699768,128.59520266699838,,,,,,,,,,,,,,,,128.59917454199604,128.60716116699768,128.60716116699768,129.23485254199477,b,1.0,0.6212204999974347,,129.23533633299667,129.24458183300158,130.2338065829972,130.2278894580013,,,,,,,,,,,,,,,,,,,,sub-068,1,stroop_test,,
,,,,21.0,9.0,1.0,,,,,blau,red,r,0.0,b,0.0,0.7893713749945164,,,,,,,,,,,,,,1.0,9.0,21.0,4.0,,,,,130.2338065829972,,,,,,,,,,,,,,,,,130.22822045799694,130.3340778749989,131.12754937499994,131.11816362499667,,,,,,,,,,,,,,,,131.11884520799504,131.12754937499994,131.12754937499994,131.919594125,b,0.0,0.7893713749945164,,131.92369883300125,131.93523741699755,132.92588762499508,132.9192967919953,,,,,,,,,,,,,,,,,,,,sub-068,1,stroop_test,,
,,,,22.0,10.0,1.0,,,,,rot,yellow,g,0.0,g,1.0,0.8560712079997757,,,,,,,,,,,,,,1.0,10.0,22.0,3.0,,,,,132.92588762499508,,,,,,,,,,,,,,,,,132.91968562499824,133.26715474999946,134.0652104999972,134.05136974999914,,,,,,,,,,,,,,,,134.05504149999615,134.0652104999972,134.0652104999972,134.9289953749976,g,1.0,0.8560712079997757,,134.9318259579959,134.94061158299883,135.93502033299592,135.9282817919957,,,,,,,,,,,,,,,,,,,,sub-068,1,stroop_test,,
,,,,23.0,11.0,1.0,,,,,gelb,blue,b,0.0,b,1.0,1.3820950000008452,,,,,,,,,,,,,,1.0,11.0,23.0,9.0,,,,,135.93502033299592,,,,,,,,,,,,,,,,,135.92874604200188,136.27766379199602,137.07288775000052,137.06174749999627,,,,,,,,,,,,,,,,137.06497020799725,137.07288775000052,137.07288775000052,138.4623972499976,b,1.0,1.3820950000008452,,138.46275975000026,138.4704508750001,139.47093929199764,139.462141582997,,,,,,,,,,,,,,,,,,,,sub-068,1,stroop_test,,
,,,,,,,,,,,,,,,,,,,,,,,,,,,,,,,,,,,,,,,,,,,,,,,,,,,,,,,,,,,,,,,,,,,,,,,,,,,,,,,,,,,,,,,139.4624184169952,139.47093929199764,139.47093929199764,144.11809008300042,space,4.644975791998149,,,,,,,,,,,,,,sub-068,1,stroop_test,,
,,,,0.0,0.0,0.0,,,,,,,,,,,,,blau,yellow,g,0.0,g,1.0,1.207961833999434,,,,,,,,,,0.0,0.0,0.0,7.0,144.12974654199934,,,,,,,,,,,,,,,,,144.12332970799616,144.460996875001,145.25550154200027,145.2447142079982,,,,,,,,,,,,,,,,,,,,,,,,,,,,,,,,,,,145.24793487499846,145.25550154200027,145.25550154200027,146.46877462499833,g,1.0,1.207961833999434,,,,,,sub-068,1,stroop_test,,
,,,,1.0,1.0,0.0,,,,,,,,,,,,,blau,blue,b,1.0,b,1.0,0.793625541999063,,,,,,,,,,0.0,1.0,1.0,5.0,146.47735112499504,,,,,,,,,,,,,,,,,146.46915633299795,147.6686695419994,148.47090262499842,148.46224587500183,,,,,,,,,,,,,,,,,,,,,,,,,,,,,,,,,,,148.46323095799744,148.47090262499842,148.47090262499842,149.26919108299626,b,1.0,0.793625541999063,,,,,,sub-068,1,stroop_test,,
,,,,2.0,2.0,0.0,,,,,,,,,,,,,rot,blue,b,0.0,b,1.0,1.1913161249976838,,,,,,,,,,0.0,2.0,2.0,2.0,149.27954141699593,,,,,,,,,,,,,,,,,149.26974158299709,150.0681132919999,150.86515591699572,150.8515576669961,,,,,,,,,,,,,,,,,,,,,,,,,,,,,,,,,,,150.8550229579996,150.86515591699572,150.86515591699572,152.06200149999495,b,1.0,1.1913161249976838,,,,,,sub-068,1,stroop_test,,
,,,,3.0,3.0,0.0,,,,,,,,,,,,,blau,blue,b,1.0,b,1.0,1.3727909580047708,,,,,,,,,,0.0,3.0,3.0,6.0,152.06958412499807,,,,,,,,,,,,,,,,,152.06233566699666,152.1514077920001,152.9466660420003,152.934648208,,,,,,,,,,,,,,,,,,,,,,,,,,,,,,,,,,,152.93817083299655,152.9466660420003,152.9466660420003,154.32993816700036,b,1.0,1.3727909580047708,,,,,,sub-068,1,stroop_test,,
,,,,4.0,4.0,0.0,,,,,,,,,,,,,rot,red,r,1.0,r,1.0,0.7495764580016839,,,,,,,,,,0.0,4.0,4.0,0.0,154.3379129169989,,,,,,,,,,,,,,,,,154.33052520799538,155.5276924169957,156.33251237499644,156.31716233299812,,,,,,,,,,,,,,,,,,,,,,,,,,,,,,,,,,,156.3210508330012,156.33251237499644,156.33251237499644,157.08453358300176,r,1.0,0.7495764580016839,,,,,,sub-068,1,stroop_test,,
,,,,5.0,5.0,0.0,,,,,,,,,,,,,gelb,yellow,g,1.0,g,1.0,0.5975371250024182,,,,,,,,,,0.0,5.0,5.0,10.0,157.0929302079967,,,,,,,,,,,,,,,,,157.08486487499613,158.27772170800017,159.0738979999951,159.06184045800185,,,,,,,,,,,,,,,,,,,,,,,,,,,,,,,,,,,159.06571858299867,159.0738979999951,159.0738979999951,159.68007762499474,g,1.0,0.5975371250024182,,,,,,sub-068,1,stroop_test,,
,,,,6.0,6.0,0.0,,,,,,,,,,,,,rot,yellow,g,0.0,g,1.0,0.92314379200252,,,,,,,,,,0.0,6.0,6.0,3.0,159.69069412499812,,,,,,,,,,,,,,,,,159.68068333299743,159.77778858300007,160.5783110830016,160.56163345799723,,,,,,,,,,,,,,,,,,,,,,,,,,,,,,,,,,,160.56647641699965,160.5783110830016,160.5783110830016,161.51347795799666,g,1.0,0.92314379200252,,,,,,sub-068,1,stroop_test,,
,,,,7.0,7.0,0.0,,,,,,,,,,,,,blau,red,r,0.0,r,1.0,1.1484565419959836,,,,,,,,,,0.0,7.0,7.0,4.0,161.5243850830011,,,,,,,,,,,,,,,,,161.5140628329973,161.61051395799586,162.40636245800124,162.39488741700188,,,,,,,,,,,,,,,,,,,,,,,,,,,,,,,,,,,162.39849541700096,162.40636245800124,162.40636245800124,163.56242499999644,r,1.0,1.1484565419959836,,,,,,sub-068,1,stroop_test,,
,,,,8.0,8.0,0.0,,,,,,,,,,,,,rot,red,r,1.0,r,1.0,0.7253197499958333,,,,,,,,,,0.0,8.0,8.0,1.0,163.5695623749998,,,,,,,,,,,,,,,,,163.56272624999838,164.3609480419982,165.16107245799503,165.14494779199595,,,,,,,,,,,,,,,,,,,,,,,,,,,,,,,,,,,165.14925412499724,165.16107245799503,165.16107245799503,165.8966072080002,r,1.0,0.7253197499958333,,,,,,sub-068,1,stroop_test,,
,,,,9.0,9.0,0.0,,,,,,,,,,,,,gelb,yellow,g,1.0,g,1.0,0.8115698749970761,,,,,,,,,,0.0,9.0,9.0,11.0,165.90450599999895,,,,,,,,,,,,,,,,,165.89709129199764,166.2444415419959,167.04147024999838,167.02903495799546,,,,,,,,,,,,,,,,,,,,,,,,,,,,,,,,,,,167.03338341700146,167.04147024999838,167.04147024999838,167.8630794579949,g,1.0,0.8115698749970761,,,,,,sub-068,1,stroop_test,,
,,,,10.0,10.0,0.0,,,,,,,,,,,,,gelb,red,r,0.0,r,1.0,1.1422650419990532,,,,,,,,,,0.0,10.0,10.0,8.0,167.87084437500016,,,,,,,,,,,,,,,,,167.86368187500193,168.66132837499754,169.4528690829975,169.44491954199475,,,,,,,,,,,,,,,,,,,,,,,,,,,,,,,,,,,169.44547229199816,169.4528690829975,169.4528690829975,170.60220579199813,r,1.0,1.1422650419990532,,,,,,sub-068,1,stroop_test,,
,,,,11.0,11.0,0.0,,,,,,,,,,,,,gelb,blue,b,0.0,b,1.0,1.0551662919970113,,,,,,,,,,0.0,11.0,11.0,9.0,170.61033379199944,,,,,,,,,,,,,,,,,170.60254137499578,171.40136854199957,172.19435758300096,172.185625332997,,,,,,,,,,,,,,,,,,,,,,,,,,,,,,,,,,,172.18617904200073,172.19435758300096,172.19435758300096,173.2523007080017,b,1.0,1.0551662919970113,,,,,,sub-068,1,stroop_test,,
,,,,12.0,0.0,1.0,,,,,,,,,,,,,rot,red,r,1.0,r,1.0,0.8035198750003474,,,,,,,,,,1.0,0.0,12.0,0.0,173.26132962499833,,,,,,,,,,,,,,,,,173.25268466700072,174.45180570799857,175.248204042,175.23500720800075,,,,,,,,,,,,,,,,,,,,,,,,,,,,,,,,,,,175.2383351669996,175.248204042,175.248204042,176.0629533329993,r,1.0,0.8035198750003474,,,,,,sub-068,1,stroop_test,,
,,,,13.0,1.0,1.0,,,,,,,,,,,,,blau,blue,b,1.0,b,1.0,0.8486235840027803,,,,,,,,,,1.0,1.0,13.0,6.0,176.07330150000053,,,,,,,,,,,,,,,,,176.0635037079992,177.26125324999884,178.05754391699884,178.04513800000132,,,,,,,,,,,,,,,,,,,,,,,,,,,,,,,,,,,178.04960408299667,178.05754391699884,178.05754391699884,178.91262991699475,b,1.0,0.8486235840027803,,,,,,sub-068,1,stroop_test,,
,,,,14.0,2.0,1.0,,,,,,,,,,,,,gelb,yellow,g,1.0,g,1.0,0.8724275830027182,,,,,,,,,,1.0,2.0,14.0,10.0,178.92087416700087,,,,,,,,,,,,,,,,,178.91313191699737,179.0093421249985,179.80577020799683,179.7933825,,,,,,,,,,,,,,,,,,,,,,,,,,,,,,,,,,,179.79776599999605,179.80577020799683,179.80577020799683,180.68507862499973,g,1.0,0.8724275830027182,,,,,,sub-068,1,stroop_test,,
,,,,15.0,3.0,1.0,,,,,,,,,,,,,blau,red,r,0.0,r,1.0,0.7529701249950449,,,,,,,,,,1.0,3.0,15.0,4.0,180.69270920800045,,,,,,,,,,,,,,,,,180.68538320800144,181.47727379199927,182.27497520799807,182.2621707079961,,,,,,,,,,,,,,,,,,,,,,,,,,,,,,,,,,,182.26689325000189,182.27497520799807,182.27497520799807,183.03008641699853,r,1.0,0.7529701249950449,,,,,,sub-068,1,stroop_test,,
,,,,16.0,4.0,1.0,,,,,,,,,,,,,blau,yellow,g,0.0,g,1.0,0.7022630409992416,,,,,,,,,,1.0,4.0,16.0,7.0,183.0378145829964,,,,,,,,,,,,,,,,,183.03054899999552,183.1276752080012,183.9197412499998,183.91171737499823,,,,,,,,,,,,,,,,,,,,,,,,,,,,,,,,,,,183.91228141699685,183.9197412499998,183.9197412499998,184.6291118329973,g,1.0,0.7022630409992416,,,,,,sub-068,1,stroop_test,,
,,,,17.0,5.0,1.0,,,,,,,,,,,,,rot,red,r,1.0,r,1.0,0.7052978329957114,,,,,,,,,,1.0,5.0,17.0,1.0,184.63618179199693,,,,,,,,,,,,,,,,,184.62936454200096,185.4278747499993,186.22643637500005,186.21153366699585,,,,,,,,,,,,,,,,,,,,,,,,,,,,,,,,,,,186.2148627499992,186.22643637500005,186.22643637500005,186.9367801249973,r,1.0,0.7052978329957114,,,,,,sub-068,1,stroop_test,,
,,,,18.0,6.0,1.0,,,,,,,,,,,,,gelb,red,r,0.0,r,1.0,0.6320553330006078,,,,,,,,,,1.0,6.0,18.0,8.0,186.94740679200183,,,,,,,,,,,,,,,,,186.93731812499755,187.2849892919985,188.0797246669972,188.06802049999533,,,,,,,,,,,,,,,,,,,,,,,,,,,,,,,,,,,188.07130058299663,188.0797246669972,188.0797246669972,188.72189004199757,r,1.0,0.6320553330006078,,,,,,sub-068,1,stroop_test,,
,,,,19.0,7.0,1.0,,,,,,,,,,,,,gelb,yellow,g,1.0,g,1.0,0.7414593749999767,,,,,,,,,,1.0,7.0,19.0,11.0,188.7278914579947,,,,,,,,,,,,,,,,,188.7221981670009,189.5178597080012,190.31097841700105,190.3022198749968,,,,,,,,,,,,,,,,,,,,,,,,,,,,,,,,,,,190.30278979199647,190.31097841700105,190.31097841700105,191.06214162499964,g,1.0,0.7414593749999767,,,,,,sub-068,1,stroop_test,,
,,,,20.0,8.0,1.0,,,,,,,,,,,,,blau,blue,b,1.0,b,1.0,0.6995937500032596,,,,,,,,,,1.0,8.0,20.0,5.0,191.06985458300187,,,,,,,,,,,,,,,,,191.06265166700177,192.2520822079969,193.05606962499587,193.044884582996,,,,,,,,,,,,,,,,,,,,,,,,,,,,,,,,,,,193.048286833,193.05606962499587,193.05606962499587,193.7632819999999,b,1.0,0.6995937500032596,,,,,,sub-068,1,stroop_test,,
,,,,21.0,9.0,1.0,,,,,,,,,,,,,rot,blue,b,0.0,b,1.0,1.00121645899344,,,,,,,,,,1.0,9.0,21.0,2.0,193.7741849999948,,,,,,,,,,,,,,,,,193.76387458299723,193.86114737499884,194.66618929199467,194.64965237499564,,,,,,,,,,,,,,,,,,,,,,,,,,,,,,,,,,,194.6529022920004,194.66618929199467,194.66618929199467,195.67015929199988,b,1.0,1.00121645899344,,,,,,sub-068,1,stroop_test,,
,,,,22.0,10.0,1.0,,,,,,,,,,,,,rot,yellow,g,0.0,g,1.0,0.7342472500022268,,,,,,,,,,1.0,10.0,22.0,3.0,195.68100699999923,,,,,,,,,,,,,,,,,195.6707591250015,195.76790849999816,196.5594156669977,196.55088862499545,,,,,,,,,,,,,,,,,,,,,,,,,,,,,,,,,,,196.5514772079987,196.5594156669977,196.5594156669977,197.29589087500065,g,1.0,0.7342472500022268,,,,,,sub-068,1,stroop_test,,
,,,,23.0,11.0,1.0,,,,,,,,,,,,,gelb,blue,b,0.0,b,1.0,0.785550583001168,,,,,,,,,,1.0,11.0,23.0,9.0,197.3035062499985,,,,,,,,,,,,,,,,,197.2962615829965,198.4944865419966,199.29269024999667,199.2789727499985,,,,,,,,,,,,,,,,,,,,,,,,,,,,,,,,,,,199.2843084999986,199.29269024999667,199.29269024999667,200.0861833329982,b,1.0,0.785550583001168,,,,,,sub-068,1,stroop_test,,
,,,,24.0,0.0,2.0,,,,,,,,,,,,,gelb,red,r,0.0,r,1.0,0.7197064590000082,,,,,,,,,,2.0,0.0,24.0,8.0,200.0973382919983,,,,,,,,,,,,,,,,,200.0867776250016,201.28494299999875,202.07634224999487,202.06820204199903,,,,,,,,,,,,,,,,,,,,,,,,,,,,,,,,,,,202.06869612499577,202.07634224999487,202.07634224999487,202.8016482919993,r,1.0,0.7197064590000082,,,,,,sub-068,1,stroop_test,,
,,,,25.0,1.0,2.0,,,,,,,,,,,,,rot,red,r,1.0,r,1.0,0.6759132079969277,,,,,,,,,,2.0,1.0,25.0,1.0,202.81052087499847,,,,,,,,,,,,,,,,,202.80203958299532,202.90148995799973,203.69704283299507,203.68495633299608,,,,,,,,,,,,,,,,,,,,,,,,,,,,,,,,,,,203.68788958300135,203.69704283299507,203.69704283299507,204.37972737499516,r,1.0,0.6759132079969277,,,,,,sub-068,1,stroop_test,,
,,,,26.0,2.0,2.0,,,,,,,,,,,,,blau,blue,b,1.0,b,1.0,0.6388141669958713,,,,,,,,,,2.0,2.0,26.0,6.0,204.3887603330004,,,,,,,,,,,,,,,,,204.3802339169997,204.47786104199625,205.2725606249951,205.26161924999903,,,,,,,,,,,,,,,,,,,,,,,,,,,,,,,,,,,205.26488495800004,205.2725606249951,205.2725606249951,205.92232883299585,b,1.0,0.6388141669958713,,,,,,sub-068,1,stroop_test,,
,,,,27.0,3.0,2.0,,,,,,,,,,,,,blau,red,r,0.0,r,1.0,1.0165791670006,,,,,,,,,,2.0,3.0,27.0,4.0,205.9286005419999,,,,,,,,,,,,,,,,,205.92268820799652,207.11523650000163,207.91026683300151,207.89907883299747,,,,,,,,,,,,,,,,,,,,,,,,,,,,,,,,,,,207.8994700420008,207.91026683300151,207.91026683300151,208.92842220799503,r,1.0,1.0165791670006,,,,,,sub-068,1,stroop_test,,
,,,,28.0,4.0,2.0,,,,,,,,,,,,,rot,red,r,1.0,r,1.0,0.8713970000026166,,,,,,,,,,2.0,4.0,28.0,0.0,208.9355668329954,,,,,,,,,,,,,,,,,208.92874250000023,210.11883145799948,210.91595049999887,210.90178120799828,,,,,,,,,,,,,,,,,,,,,,,,,,,,,,,,,,,210.9051254579972,210.91595049999887,210.91595049999887,211.79477729200156,r,1.0,0.8713970000026166,,,,,,sub-068,1,stroop_test,,
,,,,29.0,5.0,2.0,,,,,,,,,,,,,blau,yellow,g,0.0,g,1.0,0.6985033329983708,,,,,,,,,,2.0,5.0,29.0,7.0,211.8047318329991,,,,,,,,,,,,,,,,,211.7953014999948,211.88453462500183,212.68002870799685,212.66858724999477,,,,,,,,,,,,,,,,,,,,,,,,,,,,,,,,,,,212.6718624999994,212.68002870799685,212.68002870799685,213.38588479199825,g,1.0,0.6985033329983708,,,,,,sub-068,1,stroop_test,,
,,,,30.0,6.0,2.0,,,,,,,,,,,,,gelb,yellow,g,1.0,g,1.0,0.7239643749999232,,,,,,,,,,2.0,6.0,30.0,10.0,213.39438983299624,,,,,,,,,,,,,,,,,213.38620579199775,213.73449770799925,214.53067329199985,214.5188559169983,,,,,,,,,,,,,,,,,,,,,,,,,,,,,,,,,,,214.52228620799724,214.53067329199985,214.53067329199985,215.2633371670017,g,1.0,0.7239643749999232,,,,,,sub-068,1,stroop_test,,
,,,,31.0,7.0,2.0,,,,,,,,,,,,,rot,yellow,g,0.0,g,1.0,0.6678167499994743,,,,,,,,,,2.0,7.0,31.0,3.0,215.27362620799977,,,,,,,,,,,,,,,,,215.26397808299956,215.36141150000185,216.16022449999585,216.1454215830017,,,,,,,,,,,,,,,,,,,,,,,,,,,,,,,,,,,216.14924579199575,216.16022449999585,216.16022449999585,216.83124704199872,g,1.0,0.6678167499994743,,,,,,sub-068,1,stroop_test,,
,,,,32.0,8.0,2.0,,,,,,,,,,,,,gelb,blue,b,0.0,b,1.0,0.7337330839945935,,,,,,,,,,2.0,8.0,32.0,9.0,216.84207474999857,,,,,,,,,,,,,,,,,216.83186512500103,217.17816770799985,217.97415795800043,217.96166791699943,,,,,,,,,,,,,,,,,,,,,,,,,,,,,,,,,,,217.9663020829976,217.97415795800043,217.97415795800043,218.7138044169988,b,1.0,0.7337330839945935,,,,,,sub-068,1,stroop_test,,
,,,,33.0,9.0,2.0,,,,,,,,,,,,,blau,blue,b,1.0,b,1.0,1.0881280419998802,,,,,,,,,,2.0,9.0,33.0,5.0,218.7244969169988,,,,,,,,,,,,,,,,,218.71439379199728,219.51130074999676,220.3067485419961,220.2951376249985,,,,,,,,,,,,,,,,,,,,,,,,,,,,,,,,,,,220.2990025420004,220.3067485419961,220.3067485419961,221.39756283300085,b,1.0,1.0881280419998802,,,,,,sub-068,1,stroop_test,,
,,,,34.0,10.0,2.0,,,,,,,,,,,,,rot,blue,b,0.0,b,1.0,0.7672297089957283,,,,,,,,,,2.0,10.0,34.0,2.0,221.40828754199904,,,,,,,,,,,,,,,,,221.39818470799943,222.59466220800093,223.3939864579952,223.37837049999507,,,,,,,,,,,,,,,,,,,,,,,,,,,,,,,,,,,223.38179700000185,223.3939864579952,223.3939864579952,224.16269429199747,b,1.0,0.7672297089957283,,,,,,sub-068,1,stroop_test,,
,,,,35.0,11.0,2.0,,,,,,,,,,,,,gelb,yellow,g,1.0,g,1.0,0.5541048330051126,,,,,,,,,,2.0,11.0,35.0,11.0,224.16807329199943,,,,,,,,,,,,,,,,,224.1630323329955,225.36132804199588,226.15787362500123,226.14533445800043,,,,,,,,,,,,,,,,,,,,,,,,,,,,,,,,,,,226.14985820799484,226.15787362500123,226.15787362500123,226.72512837500108,g,1.0,0.5541048330051126,,,,,,sub-068,1,stroop_test,,
,,,,36.0,0.0,3.0,,,,,,,,,,,,,gelb,blue,b,0.0,b,1.0,0.858066916000098,,,,,,,,,,3.0,0.0,36.0,9.0,226.731955999996,,,,,,,,,,,,,,,,,226.7256336249993,226.8184238749964,227.62033141699797,227.61188054199735,,,,,,,,,,,,,,,,,,,,,,,,,,,,,,,,,,,227.6126140829947,227.62033141699797,227.62033141699797,228.4914080419985,b,1.0,0.858066916000098,,,,,,sub-068,1,stroop_test,,
,,,,37.0,1.0,3.0,,,,,,,,,,,,,blau,red,r,0.0,r,1.0,0.626400957997248,,,,,,,,,,3.0,1.0,37.0,4.0,228.49716104199612,,,,,,,,,,,,,,,,,228.49188733299525,228.8350063329999,229.62993650000132,229.61864537499787,,,,,,,,,,,,,,,,,,,,,,,,,,,,,,,,,,,229.62185925000085,229.62993650000132,229.62993650000132,230.26353254199785,r,1.0,0.626400957997248,,,,,,sub-068,1,stroop_test,,
,,,,38.0,2.0,3.0,,,,,,,,,,,,,blau,blue,b,1.0,b,1.0,0.5176664999962668,,,,,,,,,,3.0,2.0,38.0,5.0,230.27409966699636,,,,,,,,,,,,,,,,,230.2641294579953,231.46142316699843,232.25341116699565,232.2452094170003,,,,,,,,,,,,,,,,,,,,,,,,,,,,,,,,,,,232.2458499169952,232.25341116699565,232.25341116699565,232.77933091700103,b,1.0,0.5176664999962668,,,,,,sub-068,1,stroop_test,,
,,,,39.0,3.0,3.0,,,,,,,,,,,,,gelb,yellow,g,1.0,g,1.0,0.5853719160004403,,,,,,,,,,3.0,3.0,39.0,11.0,232.78987716700067,,,,,,,,,,,,,,,,,232.77996458300183,232.87792787500075,233.67318687499937,233.66163699999743,,,,,,,,,,,,,,,,,,,,,,,,,,,,,,,,,,,233.6651985829958,233.67318687499937,233.67318687499937,234.26367699999537,g,1.0,0.5853719160004403,,,,,,sub-068,1,stroop_test,,
,,,,40.0,4.0,3.0,,,,,,,,,,,,,blau,blue,b,1.0,b,1.0,0.6375725409961888,,,,,,,,,,3.0,4.0,40.0,6.0,234.2740859170008,,,,,,,,,,,,,,,,,234.26424645799847,235.061547917001,235.857662208,235.8452291249996,,,,,,,,,,,,,,,,,,,,,,,,,,,,,,,,,,,235.85012799999825,235.857662208,235.857662208,236.50932250000187,b,1.0,0.6375725409961888,,,,,,sub-068,1,stroop_test,,
,,,,41.0,5.0,3.0,,,,,,,,,,,,,rot,red,r,1.0,r,1.0,0.5127497499997844,,,,,,,,,,3.0,5.0,41.0,1.0,236.5151831670009,,,,,,,,,,,,,,,,,236.50976483299743,237.70102370799577,238.49824899999655,238.48508566700184,,,,,,,,,,,,,,,,,,,,,,,,,,,,,,,,,,,238.4886574580014,238.49824899999655,238.49824899999655,239.01862379199883,r,1.0,0.5127497499997844,,,,,,sub-068,1,stroop_test,,
,,,,42.0,6.0,3.0,,,,,,,,,,,,,rot,yellow,g,0.0,g,1.0,1.0049923749975278,,,,,,,,,,3.0,6.0,42.0,3.0,239.02980529199704,,,,,,,,,,,,,,,,,239.01919624999573,239.8182101249986,240.61017958299635,240.60191545799896,,,,,,,,,,,,,,,,,,,,,,,,,,,,,,,,,,,240.6024347079947,240.61017958299635,240.61017958299635,241.62042500000095,g,1.0,1.0049923749975278,,,,,,sub-068,1,stroop_test,,
,,,,43.0,7.0,3.0,,,,,,,,,,,,,gelb,red,r,0.0,r,1.0,0.5760117500030901,,,,,,,,,,3.0,7.0,43.0,8.0,241.63083987499704,,,,,,,,,,,,,,,,,241.6209840829979,242.8187933750014,243.6241399579958,243.61223074999725,,,,,,,,,,,,,,,,,,,,,,,,,,,,,,,,,,,243.61674862499785,243.6241399579958,243.6241399579958,244.2027366249968,r,1.0,0.5760117500030901,,,,,,sub-068,1,stroop_test,,
,,,,44.0,8.0,3.0,,,,,,,,,,,,,rot,red,r,1.0,r,1.0,0.657179540998186,,,,,,,,,,3.0,8.0,44.0,0.0,244.2137819999989,,,,,,,,,,,,,,,,,244.20332908300043,245.4015519999957,246.1983216669978,246.18503466699624,,,,,,,,,,,,,,,,,,,,,,,,,,,,,,,,,,,246.1882946670012,246.1983216669978,246.1983216669978,246.8635587079989,r,1.0,0.657179540998186,,,,,,sub-068,1,stroop_test,,
,,,,45.0,9.0,3.0,,,,,,,,,,,,,rot,blue,b,0.0,b,1.0,0.5765079589982633,,,,,,,,,,3.0,9.0,45.0,2.0,246.87424783299505,,,,,,,,,,,,,,,,,246.86413245799488,247.21139050000056,248.00434416699864,247.9957369170006,,,,,,,,,,,,,,,,,,,,,,,,,,,,,,,,,,,247.99674233300172,248.00434416699864,248.00434416699864,248.58779541699917,b,1.0,0.5765079589982633,,,,,,sub-068,1,stroop_test,,
,,,,46.0,10.0,3.0,,,,,,,,,,,,,blau,yellow,g,0.0,g,1.0,0.6013212500038208,,,,,,,,,,3.0,10.0,46.0,7.0,248.5978916669992,,,,,,,,,,,,,,,,,248.5883609579978,249.38512141699903,250.190907917,250.1791057079972,,,,,,,,,,,,,,,,,,,,,,,,,,,,,,,,,,,250.18347945799903,250.190907917,250.190907917,250.7968349169969,g,1.0,0.6013212500038208,,,,,,sub-068,1,stroop_test,,
,,,,47.0,11.0,3.0,,,,,,,,,,,,,gelb,yellow,g,1.0,g,1.0,0.6709726659973967,,,,,,,,,,3.0,11.0,47.0,10.0,250.8070614169992,,,,,,,,,,,,,,,,,250.79740416699497,251.9946207920002,252.79075458299485,252.7789502079977,,,,,,,,,,,,,,,,,,,,,,,,,,,,,,,,,,,252.7831668750005,252.79075458299485,252.79075458299485,253.4647299169956,g,1.0,0.6709726659973967,,,,,,sub-068,1,stroop_test,,
,,,,48.0,0.0,4.0,,,,,,,,,,,,,gelb,yellow,g,1.0,g,1.0,0.4736747499991907,,,,,,,,,,4.0,0.0,48.0,10.0,253.47518970799865,,,,,,,,,,,,,,,,,253.46532395800023,253.56135533299675,254.35420133300067,254.3457460829959,,,,,,,,,,,,,,,,,,,,,,,,,,,,,,,,,,,254.34674833299505,254.35420133300067,254.35420133300067,254.84079624999868,g,1.0,0.4736747499991907,,,,,,sub-068,1,stroop_test,,
,,,,49.0,1.0,4.0,,,,,,,,,,,,,gelb,yellow,g,1.0,g,1.0,0.5187380839997786,,,,,,,,,,4.0,1.0,49.0,11.0,254.8473529170005,,,,,,,,,,,,,,,,,254.8412250830006,256.0340129169999,256.8270086670018,256.81844320800155,,,,,,,,,,,,,,,,,,,,,,,,,,,,,,,,,,,256.8190585830016,256.8270086670018,256.8270086670018,257.3530516669998,g,1.0,0.5187380839997786,,,,,,sub-068,1,stroop_test,,
,,,,50.0,2.0,4.0,,,,,,,,,,,,,blau,yellow,g,0.0,b,0.0,0.606883291999111,,,,,,,,,,4.0,2.0,50.0,7.0,257.36410291699576,,,,,,,,,,,,,,,,,257.35365170799923,257.45171554199624,258.2495384169961,258.2354924999963,,,,,,,,,,,,,,,,,,,,,,,,,,,,,,,,,,,258.24168220799766,258.2495384169961,258.2495384169961,258.8633792920009,b,0.0,0.606883291999111,,,,,,sub-068,1,stroop_test,,
,,,,51.0,3.0,4.0,,,,,,,,,,,,,blau,blue,b,1.0,b,1.0,0.535116332997859,,,,,,,,,,4.0,3.0,51.0,6.0,258.87370612499944,,,,,,,,,,,,,,,,,258.8639535420007,258.9614660419975,259.753491083,259.74529683299625,,,,,,,,,,,,,,,,,,,,,,,,,,,,,,,,,,,259.74598358300136,259.753491083,259.753491083,260.29679249999754,b,1.0,0.535116332997859,,,,,,sub-068,1,stroop_test,,
,,,,52.0,4.0,4.0,,,,,,,,,,,,,blau,blue,b,1.0,b,1.0,0.6098574999996345,,,,,,,,,,4.0,4.0,52.0,5.0,260.3073279579985,,,,,,,,,,,,,,,,,260.2973699579961,260.3946354169966,261.1875531670012,261.1789071669991,,,,,,,,,,,,,,,,,,,,,,,,,,,,,,,,,,,261.17953887499607,261.1875531670012,261.1875531670012,261.8039565829968,b,1.0,0.6098574999996345,,,,,,sub-068,1,stroop_test,,
,,,,53.0,5.0,4.0,,,,,,,,,,,,,gelb,red,r,0.0,r,1.0,0.7324847079944448,,,,,,,,,,4.0,5.0,53.0,8.0,261.81443208299606,,,,,,,,,,,,,,,,,261.8045357079973,262.60087974999624,263.39698804199725,263.3853164169996,,,,,,,,,,,,,,,,,,,,,,,,,,,,,,,,,,,263.3889063329989,263.39698804199725,263.39698804199725,264.1334185829983,r,1.0,0.7324847079944448,,,,,,sub-068,1,stroop_test,,
,,,,54.0,6.0,4.0,,,,,,,,,,,,,rot,blue,b,0.0,b,1.0,0.8731640000041807,,,,,,,,,,4.0,6.0,54.0,2.0,264.144712041998,,,,,,,,,,,,,,,,,264.134037374999,264.2280034169962,265.0274613329966,265.01220991699665,,,,,,,,,,,,,,,,,,,,,,,,,,,,,,,,,,,265.0166935419984,265.0274613329966,265.0274613329966,265.90404541699536,b,1.0,0.8731640000041807,,,,,,sub-068,1,stroop_test,,
,,,,55.0,7.0,4.0,,,,,,,,,,,,,gelb,blue,b,0.0,b,1.0,0.8534404580059345,,,,,,,,,,4.0,7.0,55.0,9.0,265.91445949999616,,,,,,,,,,,,,,,,,265.90461312499974,266.0010026249947,266.79772687499644,266.78553933299554,,,,,,,,,,,,,,,,,,,,,,,,,,,,,,,,,,,266.7894461670003,266.79772687499644,266.79772687499644,267.6643777499994,b,1.0,0.8534404580059345,,,,,,sub-068,1,stroop_test,,
,,,,56.0,8.0,4.0,,,,,,,,,,,,,rot,red,r,1.0,r,1.0,0.5465559579970432,,,,,,,,,,4.0,8.0,56.0,1.0,267.6781662499998,,,,,,,,,,,,,,,,,267.6647720420005,267.7615055419956,268.5602836249964,268.54536912500043,,,,,,,,,,,,,,,,,,,,,,,,,,,,,,,,,,,268.54928924999695,268.5602836249964,268.5602836249964,269.1147245419997,r,1.0,0.5465559579970432,,,,,,sub-068,1,stroop_test,,
,,,,57.0,9.0,4.0,,,,,,,,,,,,,rot,red,r,1.0,r,1.0,0.6116050419950625,,,,,,,,,,4.0,9.0,57.0,0.0,269.1253516249999,,,,,,,,,,,,,,,,,269.11539487499977,269.2115038330012,270.0041870829955,269.9957382079956,,,,,,,,,,,,,,,,,,,,,,,,,,,,,,,,,,,269.9965067919984,270.0041870829955,270.0041870829955,270.62054754199926,r,1.0,0.6116050419950625,,,,,,sub-068,1,stroop_test,,
,,,,58.0,10.0,4.0,,,,,,,,,,,,,blau,red,r,0.0,r,1.0,0.651545291999355,,,,,,,,,,4.0,10.0,58.0,4.0,270.63112179200107,,,,,,,,,,,,,,,,,270.6211608329977,271.41770362499665,272.21435049999855,272.2026335420014,,,,,,,,,,,,,,,,,,,,,,,,,,,,,,,,,,,272.2066154579952,272.21435049999855,272.21435049999855,272.87000658299803,r,1.0,0.651545291999355,,,,,,sub-068,1,stroop_test,,
,,,,59.0,11.0,4.0,,,,,,,,,,,,,rot,yellow,g,0.0,g,1.0,0.5971787919988856,,,,,,,,,,4.0,11.0,59.0,3.0,272.8808913749963,,,,,,,,,,,,,,,,,272.8705719999998,273.6684825420016,274.46547208300035,274.45141333300126,,,,,,,,,,,,,,,,,,,,,,,,,,,,,,,,,,,274.45601416700083,274.46547208300035,274.46547208300035,275.07049133299734,g,1.0,0.5971787919988856,,,,,,sub-068,1,stroop_test,,
,,,,60.0,0.0,5.0,,,,,,,,,,,,,gelb,yellow,g,1.0,g,1.0,0.5320493749968591,,,,,,,,,,5.0,0.0,60.0,10.0,275.0810087079953,,,,,,,,,,,,,,,,,275.07106179199764,275.8675314169959,276.66338704199734,276.6516092499951,,,,,,,,,,,,,,,,,,,,,,,,,,,,,,,,,,,276.65527075000136,276.66338704199734,276.66338704199734,277.20961791699665,g,1.0,0.5320493749968591,,,,,,sub-068,1,stroop_test,,
,,,,61.0,1.0,5.0,,,,,,,,,,,,,blau,blue,b,1.0,b,1.0,0.8941876250028145,,,,,,,,,,5.0,1.0,61.0,6.0,277.21559829200123,,,,,,,,,,,,,,,,,277.2100666249971,278.40162191700074,279.20697112500056,279.1955064579961,,,,,,,,,,,,,,,,,,,,,,,,,,,,,,,,,,,279.1991019999987,279.20697112500056,279.20697112500056,280.10423716699734,b,1.0,0.8941876250028145,,,,,,sub-068,1,stroop_test,,
,,,,62.0,2.0,5.0,,,,,,,,,,,,,gelb,yellow,g,1.0,g,1.0,0.6388444999975036,,,,,,,,,,5.0,2.0,62.0,11.0,280.1143500420003,,,,,,,,,,,,,,,,,280.1048061249967,280.4518830829984,281.24709508299566,281.2354528329961,,,,,,,,,,,,,,,,,,,,,,,,,,,,,,,,,,,281.23906537499715,281.24709508299566,281.24709508299566,281.8975752080005,g,1.0,0.6388444999975036,,,,,,sub-068,1,stroop_test,,
,,,,63.0,3.0,5.0,,,,,,,,,,,,,rot,red,r,1.0,r,1.0,0.5246866669986048,,,,,,,,,,5.0,3.0,63.0,0.0,281.9080605419949,,,,,,,,,,,,,,,,,281.898145332998,281.9941335830008,282.7938573329957,282.7789793330012,,,,,,,,,,,,,,,,,,,,,,,,,,,,,,,,,,,282.7831553750002,282.7938573329957,282.7938573329957,283.3211717079976,r,1.0,0.5246866669986048,,,,,,sub-068,1,stroop_test,,
,,,,64.0,4.0,5.0,,,,,,,,,,,,,rot,red,r,1.0,r,1.0,0.6751248330037924,,,,,,,,,,5.0,4.0,64.0,1.0,283.33127729199623,,,,,,,,,,,,,,,,,283.3217736669976,284.5187325829975,285.3211832079978,285.31234995799605,,,,,,,,,,,,,,,,,,,,,,,,,,,,,,,,,,,285.3133400000006,285.3211832079978,285.3211832079978,286.00403870800073,r,1.0,0.6751248330037924,,,,,,sub-068,1,stroop_test,,
,,,,65.0,5.0,5.0,,,,,,,,,,,,,blau,yellow,g,0.0,g,1.0,0.5419159579978441,,,,,,,,,,5.0,5.0,65.0,7.0,286.0143910420011,,,,,,,,,,,,,,,,,286.00462054200034,286.1019696669973,286.896943791995,286.8854366250016,,,,,,,,,,,,,,,,,,,,,,,,,,,,,,,,,,,286.8890303329972,286.896943791995,286.896943791995,287.4470991249982,g,1.0,0.5419159579978441,,,,,,sub-068,1,stroop_test,,
,,,,66.0,6.0,5.0,,,,,,,,,,,,,blau,red,r,0.0,r,1.0,0.6131187089995365,,,,,,,,,,5.0,6.0,66.0,4.0,287.45744716699846,,,,,,,,,,,,,,,,,287.44766991699726,287.54491762499674,288.3381007499993,288.3290090419978,,,,,,,,,,,,,,,,,,,,,,,,,,,,,,,,,,,288.32990741699905,288.3381007499993,288.3381007499993,288.9540512919993,r,1.0,0.6131187089995365,,,,,,sub-068,1,stroop_test,,
,,,,67.0,7.0,5.0,,,,,,,,,,,,,gelb,blue,b,0.0,b,1.0,0.4205168749977019,,,,,,,,,,5.0,7.0,67.0,9.0,288.96458841699496,,,,,,,,,,,,,,,,,288.9546488330016,289.0550934999992,289.8577824169988,289.84572800000024,,,,,,,,,,,,,,,,,,,,,,,,,,,,,,,,,,,289.85024454200175,289.8577824169988,289.8577824169988,290.28126945799886,b,1.0,0.4205168749977019,,,,,,sub-068,1,stroop_test,,
,,,,68.0,8.0,5.0,,,,,,,,,,,,,rot,yellow,g,0.0,g,1.0,1.2246036249998724,,,,,,,,,,5.0,8.0,68.0,3.0,290.2916305830004,,,,,,,,,,,,,,,,,290.281866917001,291.0782204999996,291.8827401669987,291.8626014580004,,,,,,,,,,,,,,,,,,,,,,,,,,,,,,,,,,,291.86763291699754,291.8827401669987,291.8827401669987,293.1139407919982,g,1.0,1.2246036249998724,,,,,,sub-068,1,stroop_test,,
,,,,69.0,9.0,5.0,,,,,,,,,,,,,rot,blue,b,0.0,b,1.0,0.6818683339952258,,,,,,,,,,5.0,9.0,69.0,2.0,293.12445829199714,,,,,,,,,,,,,,,,,293.11454370799765,294.31154112499644,295.1033362079979,295.0953628749994,,,,,,,,,,,,,,,,,,,,,,,,,,,,,,,,,,,295.0960808749951,295.1033362079979,295.1033362079979,295.79877504199976,b,1.0,0.6818683339952258,,,,,,sub-068,1,stroop_test,,
,,,,70.0,10.0,5.0,,,,,,,,,,,,,blau,blue,b,1.0,b,1.0,0.7220546669996111,,,,,,,,,,5.0,10.0,70.0,5.0,295.81152999999904,,,,,,,,,,,,,,,,,295.79922145800083,295.89491004199954,296.69005712500075,296.678679042001,,,,,,,,,,,,,,,,,,,,,,,,,,,,,,,,,,,296.68251824999606,296.69005712500075,296.69005712500075,297.42518016699614,b,1.0,0.7220546669996111,,,,,,sub-068,1,stroop_test,,
,,,,71.0,11.0,5.0,,,,,,,,,,,,,gelb,red,r,0.0,r,1.0,0.7075596249997034,,,,,,,,,,5.0,11.0,71.0,8.0,297.43084758299665,,,,,,,,,,,,,,,,,297.4256432080001,297.520882124998,298.3230300419964,298.3120903329982,,,,,,,,,,,,,,,,,,,,,,,,,,,,,,,,,,,298.3157068750006,298.3230300419964,298.3230300419964,299.0371682080004,r,1.0,0.7075596249997034,,,,,,sub-068,1,stroop_test,,
,,,,72.0,0.0,6.0,,,,,,,,,,,,,blau,blue,b,1.0,b,1.0,0.548559082999418,,,,,,,,,,6.0,0.0,72.0,5.0,299.04765320799925,,,,,,,,,,,,,,,,,299.03773604199523,299.13512808299856,299.9303714999987,299.91860370799986,,,,,,,,,,,,,,,,,,,,,,,,,,,,,,,,,,,299.9223806669979,299.9303714999987,299.9303714999987,300.4868313749976,b,1.0,0.548559082999418,,,,,,sub-068,1,stroop_test,,
,,,,73.0,1.0,6.0,,,,,,,,,,,,,blau,blue,b,1.0,b,1.0,0.701164708007127,,,,,,,,,,6.0,1.0,73.0,6.0,300.4976205829953,,,,,,,,,,,,,,,,,300.4874118329972,300.5853754999989,301.37757737499487,301.368975999998,,,,,,,,,,,,,,,,,,,,,,,,,,,,,,,,,,,301.3695844169997,301.37757737499487,301.37757737499487,302.0864876669948,b,1.0,0.701164708007127,,,,,,sub-068,1,stroop_test,,
,,,,74.0,2.0,6.0,,,,,,,,,,,,,gelb,yellow,g,1.0,g,1.0,0.4147474170022178,,,,,,,,,,6.0,2.0,74.0,11.0,302.09768529199937,,,,,,,,,,,,,,,,,302.0870606669996,302.4351654999992,303.23041129199555,303.21836724999594,,,,,,,,,,,,,,,,,,,,,,,,,,,,,,,,,,,303.22228650000034,303.23041129199555,303.23041129199555,303.64826612499746,g,1.0,0.4147474170022178,,,,,,sub-068,1,stroop_test,,
,,,,75.0,3.0,6.0,,,,,,,,,,,,,blau,yellow,g,0.0,g,1.0,1.142156084002636,,,,,,,,,,6.0,3.0,75.0,7.0,303.65868816700095,,,,,,,,,,,,,,,,,303.64884062499914,303.74480854199646,304.5409983329955,304.529143957996,,,,,,,,,,,,,,,,,,,,,,,,,,,,,,,,,,,304.5334799170014,304.5409983329955,304.5409983329955,305.68748375,g,1.0,1.142156084002636,,,,,,sub-068,1,stroop_test,,
,,,,76.0,4.0,6.0,,,,,,,,,,,,,gelb,red,r,0.0,r,1.0,0.9820900419945248,,,,,,,,,,6.0,4.0,76.0,8.0,305.6977382920013,,,,,,,,,,,,,,,,,305.6880506250018,306.8854264170004,307.6919907499978,307.6791022920006,,,,,,,,,,,,,,,,,,,,,,,,,,,,,,,,,,,307.68454479199863,307.6919907499978,307.6919907499978,308.6803152079956,r,1.0,0.9820900419945248,,,,,,sub-068,1,stroop_test,,
,,,,77.0,5.0,6.0,,,,,,,,,,,,,rot,red,r,1.0,r,1.0,0.6173042500013253,,,,,,,,,,6.0,5.0,77.0,0.0,308.6910898749993,,,,,,,,,,,,,,,,,308.680915207995,309.47810037499585,310.27773958299804,310.26234383299743,,,,,,,,,,,,,,,,,,,,,,,,,,,,,,,,,,,310.26661225000134,310.27773958299804,310.27773958299804,310.89815237499715,r,1.0,0.6173042500013253,,,,,,sub-068,1,stroop_test,,
,,,,78.0,6.0,6.0,,,,,,,,,,,,,blau,red,r,0.0,r,1.0,0.5787879999988945,,,,,,,,,,6.0,6.0,78.0,4.0,310.908634499996,,,,,,,,,,,,,,,,,310.89873216699925,311.24487699999736,312.0405114999958,312.02888591699593,,,,,,,,,,,,,,,,,,,,,,,,,,,,,,,,,,,312.0330349579963,312.0405114999958,312.0405114999958,312.63016666699696,r,1.0,0.5787879999988945,,,,,,sub-068,1,stroop_test,,
,,,,79.0,7.0,6.0,,,,,,,,,,,,,rot,yellow,g,0.0,g,1.0,0.7805764579970855,,,,,,,,,,6.0,7.0,79.0,3.0,312.64074683299987,,,,,,,,,,,,,,,,,312.63076141700003,313.82825316699746,314.627682833001,314.6123162919976,,,,,,,,,,,,,,,,,,,,,,,,,,,,,,,,,,,314.6168036250019,314.627682833001,314.627682833001,315.4141873749977,g,1.0,0.7805764579970855,,,,,,sub-068,1,stroop_test,,
,,,,80.0,8.0,6.0,,,,,,,,,,,,,rot,blue,b,0.0,b,1.0,1.178469792001124,,,,,,,,,,6.0,8.0,80.0,2.0,315.4249163749992,,,,,,,,,,,,,,,,,315.4148432919974,315.7615959169998,316.5544909169985,316.54565820800053,,,,,,,,,,,,,,,,,,,,,,,,,,,,,,,,,,,316.54667541699746,316.5544909169985,316.5544909169985,317.7369567499991,b,1.0,1.178469792001124,,,,,,sub-068,1,stroop_test,,
,,,,81.0,9.0,6.0,,,,,,,,,,,,,gelb,blue,b,0.0,b,1.0,0.5942729579983279,,,,,,,,,,6.0,9.0,81.0,9.0,317.7479211249956,,,,,,,,,,,,,,,,,317.73752712499845,317.8354016669982,318.63089583299734,318.6191051669957,,,,,,,,,,,,,,,,,,,,,,,,,,,,,,,,,,,318.6224394999954,318.63089583299734,318.63089583299734,319.23040516699984,b,1.0,0.5942729579983279,,,,,,sub-068,1,stroop_test,,
,,,,82.0,10.0,6.0,,,,,,,,,,,,,gelb,yellow,g,1.0,g,1.0,0.5394767500038142,,,,,,,,,,6.0,10.0,82.0,10.0,319.24077258299803,,,,,,,,,,,,,,,,,319.2309948749971,320.4282879579987,321.2210647079992,321.21242620799603,,,,,,,,,,,,,,,,,,,,,,,,,,,,,,,,,,,321.21331816699967,321.2210647079992,321.2210647079992,321.7638237499996,g,1.0,0.5394767500038142,,,,,,sub-068,1,stroop_test,,
,,,,83.0,11.0,6.0,,,,,,,,,,,,,rot,red,r,1.0,r,1.0,0.4297205839975504,,,,,,,,,,6.0,11.0,83.0,1.0,321.7744678329982,,,,,,,,,,,,,,,,,321.764396999999,321.8616804999984,322.6593931249954,322.6455830420018,,,,,,,,,,,,,,,,,,,,,,,,,,,,,,,,,,,322.6492344169965,322.6593931249954,322.6593931249954,323.0978762079976,r,1.0,0.4297205839975504,,,,,,sub-068,1,stroop_test,,
,,,,84.0,0.0,7.0,,,,,,,,,,,,,gelb,yellow,g,1.0,g,1.0,0.6273923749977257,,,,,,,,,,7.0,0.0,84.0,11.0,323.1085504579969,,,,,,,,,,,,,,,,,323.0985365000015,323.894922624997,324.6905558750004,324.67865612499736,,,,,,,,,,,,,,,,,,,,,,,,,,,,,,,,,,,324.6830449170011,324.6905558750004,324.6905558750004,325.3205647499999,g,1.0,0.6273923749977257,,,,,,sub-068,1,stroop_test,,
,,,,85.0,1.0,7.0,,,,,,,,,,,,,rot,red,r,1.0,r,1.0,0.6336207080021268,,,,,,,,,,7.0,1.0,85.0,1.0,325.3311794170004,,,,,,,,,,,,,,,,,325.32114012500097,325.667885750001,326.4653274579978,326.4521009579985,,,,,,,,,,,,,,,,,,,,,,,,,,,,,,,,,,,326.45560595799907,326.4653274579978,326.4653274579978,327.1045564579981,r,1.0,0.6336207080021268,,,,,,sub-068,1,stroop_test,,
,,,,86.0,2.0,7.0,,,,,,,,,,,,,rot,yellow,g,0.0,g,1.0,0.5796287079938338,,,,,,,,,,7.0,2.0,86.0,3.0,327.1147088750004,,,,,,,,,,,,,,,,,327.1051295419966,327.9019850830009,328.7038780419971,328.6956840829953,,,,,,,,,,,,,,,,,,,,,,,,,,,,,,,,,,,328.69656583300093,328.7038780419971,328.7038780419971,329.28735099999903,g,1.0,0.5796287079938338,,,,,,sub-068,1,stroop_test,,
,,,,87.0,3.0,7.0,,,,,,,,,,,,,blau,red,r,0.0,r,1.0,0.933203084001434,,,,,,,,,,7.0,3.0,87.0,4.0,329.2979599579994,,,,,,,,,,,,,,,,,329.2879179579977,330.08540379199985,330.88016320799943,330.86826891700184,,,,,,,,,,,,,,,,,,,,,,,,,,,,,,,,,,,330.8719198749968,330.88016320799943,330.88016320799943,331.8201437499956,r,1.0,0.933203084001434,,,,,,sub-068,1,stroop_test,,
,,,,88.0,4.0,7.0,,,,,,,,,,,,,blau,blue,b,1.0,b,1.0,0.4352189999990514,,,,,,,,,,7.0,4.0,88.0,5.0,331.83111949999875,,,,,,,,,,,,,,,,,331.82072183299897,332.1688551249972,332.9609279169963,332.95261016699806,,,,,,,,,,,,,,,,,,,,,,,,,,,,,,,,,,,332.9532296670004,332.9609279169963,332.9609279169963,333.4036135419956,b,1.0,0.4352189999990514,,,,,,sub-068,1,stroop_test,,
,,,,89.0,5.0,7.0,,,,,,,,,,,,,gelb,yellow,g,1.0,g,1.0,0.8493091249983991,,,,,,,,,,7.0,5.0,89.0,10.0,333.4145432919977,,,,,,,,,,,,,,,,,333.4041917079958,334.6021722919977,335.39730599999893,335.3856787920013,,,,,,,,,,,,,,,,,,,,,,,,,,,,,,,,,,,335.3891995419981,335.39730599999893,335.39730599999893,336.2600783329981,g,1.0,0.8493091249983991,,,,,,sub-068,1,stroop_test,,
,,,,90.0,6.0,7.0,,,,,,,,,,,,,gelb,blue,b,0.0,r,0.0,0.7642612910058233,,,,,,,,,,7.0,6.0,90.0,9.0,336.2658328749967,,,,,,,,,,,,,,,,,336.26044762499805,337.0515800419962,337.84452862499893,337.83583591700153,,,,,,,,,,,,,,,,,,,,,,,,,,,,,,,,,,,337.8365165829964,337.84452862499893,337.84452862499893,338.6130461669964,r,0.0,0.7642612910058233,,,,,,sub-068,1,stroop_test,,
,,,,91.0,7.0,7.0,,,,,,,,,,,,,rot,blue,b,0.0,b,1.0,0.97649904100399,,,,,,,,,,7.0,7.0,91.0,2.0,338.6236982920018,,,,,,,,,,,,,,,,,338.613763041998,339.4117029580011,340.20973733299616,340.1955655419952,,,,,,,,,,,,,,,,,,,,,,,,,,,,,,,,,,,340.1991558329973,340.20973733299616,340.20973733299616,341.1972952079959,b,1.0,0.97649904100399,,,,,,sub-068,1,stroop_test,,
,,,,92.0,8.0,7.0,,,,,,,,,,,,,blau,blue,b,1.0,b,1.0,0.5131237079986022,,,,,,,,,,7.0,8.0,92.0,6.0,341.2079400829971,,,,,,,,,,,,,,,,,341.1979464169999,341.2951467919993,342.09033241699944,342.07897899999807,,,,,,,,,,,,,,,,,,,,,,,,,,,,,,,,,,,342.0829276669974,342.09033241699944,342.09033241699944,342.6137823329991,b,1.0,0.5131237079986022,,,,,,sub-068,1,stroop_test,,
,,,,93.0,9.0,7.0,,,,,,,,,,,,,rot,red,r,1.0,r,1.0,0.5922920419980073,,,,,,,,,,7.0,9.0,93.0,0.0,342.6242017499972,,,,,,,,,,,,,,,,,342.6143728749957,343.41165233300126,344.2121289169954,344.1959214999952,,,,,,,,,,,,,,,,,,,,,,,,,,,,,,,,,,,344.20121791699785,344.2121289169954,344.2121289169954,344.81265429199993,r,1.0,0.5922920419980073,,,,,,sub-068,1,stroop_test,,
,,,,94.0,10.0,7.0,,,,,,,,,,,,,gelb,red,r,0.0,r,1.0,1.4052814160022535,,,,,,,,,,7.0,10.0,94.0,8.0,344.823536332995,,,,,,,,,,,,,,,,,344.81323858299584,346.0116588749952,346.807807707999,346.79584195799544,,,,,,,,,,,,,,,,,,,,,,,,,,,,,,,,,,,346.80018658300105,346.807807707999,346.807807707999,348.22058445799485,r,1.0,1.4052814160022535,,,,,,sub-068,1,stroop_test,,
,,,,95.0,11.0,7.0,,,,,,,,,,,,,blau,yellow,g,0.0,g,1.0,0.7095310000004247,,,,,,,,,,7.0,11.0,95.0,7.0,348.2312493749996,,,,,,,,,,,,,,,,,348.2211525829989,348.5676947079992,349.3637285829973,349.35171999999875,,,,,,,,,,,,,,,,,,,,,,,,,,,,,,,,,,,349.3556079170012,349.3637285829973,349.3637285829973,350.08082495800045,g,1.0,0.7095310000004247,,,,,,sub-068,1,stroop_test,,
,,,,96.0,0.0,8.0,,,,,,,,,,,,,blau,blue,b,1.0,b,1.0,0.7686269999976503,,,,,,,,,,8.0,0.0,96.0,6.0,350.09124766699824,,,,,,,,,,,,,,,,,350.08139237499563,350.17846754199854,350.97141787500004,350.96282729200175,,,,,,,,,,,,,,,,,,,,,,,,,,,,,,,,,,,350.96380741699977,350.97141787500004,350.97141787500004,351.7470282919967,b,1.0,0.7686269999976503,,,,,,sub-068,1,stroop_test,,
,,,,97.0,1.0,8.0,,,,,,,,,,,,,gelb,blue,b,0.0,b,1.0,0.9209404160064878,,,,,,,,,,8.0,1.0,97.0,9.0,351.7573969169971,,,,,,,,,,,,,,,,,351.7475960829979,352.9450859999997,353.74160508299974,353.7292734169969,,,,,,,,,,,,,,,,,,,,,,,,,,,,,,,,,,,353.7339099169985,353.74160508299974,353.74160508299974,354.67001045800134,b,1.0,0.9209404160064878,,,,,,sub-068,1,stroop_test,,
,,,,98.0,2.0,8.0,,,,,,,,,,,,,blau,yellow,g,0.0,g,1.0,0.664543249993585,,,,,,,,,,8.0,2.0,98.0,7.0,354.6808630000014,,,,,,,,,,,,,,,,,354.670580375001,355.4687941669981,356.26406208299886,356.2523502920012,,,,,,,,,,,,,,,,,,,,,,,,,,,,,,,,,,,356.2559906249953,356.26406208299886,356.26406208299886,356.93171466700005,g,1.0,0.664543249993585,,,,,,sub-068,1,stroop_test,,
,,,,99.0,3.0,8.0,,,,,,,,,,,,,blau,red,r,0.0,r,1.0,0.50009391700587,,,,,,,,,,8.0,3.0,99.0,4.0,356.941997957998,,,,,,,,,,,,,,,,,356.9322728749976,357.0287672919949,357.82013195799664,357.8121310419956,,,,,,,,,,,,,,,,,,,,,,,,,,,,,,,,,,,357.8127788329948,357.82013195799664,357.82013195799664,358.3308123329989,r,1.0,0.50009391700587,,,,,,sub-068,1,stroop_test,,
,,,,100.0,4.0,8.0,,,,,,,,,,,,,rot,blue,b,0.0,b,1.0,0.9923373339988756,,,,,,,,,,8.0,4.0,100.0,2.0,358.3411987919972,,,,,,,,,,,,,,,,,358.3313733749965,358.42853233299684,359.22746379199816,359.2124842080011,,,,,,,,,,,,,,,,,,,,,,,,,,,,,,,,,,,359.2168044169957,359.22746379199816,359.22746379199816,360.23045516699494,b,1.0,0.9923373339988756,,,,,,sub-068,1,stroop_test,,
,,,,101.0,5.0,8.0,,,,,,,,,,,,,rot,yellow,g,0.0,g,1.0,0.5502577500010375,,,,,,,,,,8.0,5.0,101.0,3.0,360.2408484999978,,,,,,,,,,,,,,,,,360.23105291699903,361.0285136669991,361.8207465000014,361.8121767919947,,,,,,,,,,,,,,,,,,,,,,,,,,,,,,,,,,,361.81283579199953,361.8207465000014,361.8207465000014,362.3808086249992,g,1.0,0.5502577500010375,,,,,,sub-068,1,stroop_test,,
,,,,102.0,6.0,8.0,,,,,,,,,,,,,blau,blue,b,1.0,b,1.0,0.7584415420060395,,,,,,,,,,8.0,6.0,102.0,5.0,362.391253875001,,,,,,,,,,,,,,,,,362.3813920829998,362.72837204200187,363.5249662499991,363.5122250829954,,,,,,,,,,,,,,,,,,,,,,,,,,,,,,,,,,,363.51739879199886,363.5249662499991,363.5249662499991,364.287085457996,b,1.0,0.7584415420060395,,,,,,sub-068,1,stroop_test,,
,,,,103.0,7.0,8.0,,,,,,,,,,,,,rot,red,r,1.0,r,1.0,0.6712517499981914,,,,,,,,,,8.0,7.0,103.0,1.0,364.2980354169995,,,,,,,,,,,,,,,,,364.2877105419975,364.3853124999951,365.1822738749979,365.16918483300105,,,,,,,,,,,,,,,,,,,,,,,,,,,,,,,,,,,365.17281329199614,365.1822738749979,365.1822738749979,365.8637759580015,r,1.0,0.6712517499981914,,,,,,sub-068,1,stroop_test,,
,,,,104.0,8.0,8.0,,,,,,,,,,,,,gelb,red,r,0.0,r,1.0,0.7391895420005312,,,,,,,,,,8.0,8.0,104.0,8.0,365.8741900829991,,,,,,,,,,,,,,,,,365.8643661249953,366.2117762499984,367.0070521250018,366.99565762499697,,,,,,,,,,,,,,,,,,,,,,,,,,,,,,,,,,,366.9993535829999,367.0070521250018,367.0070521250018,367.7543293749986,r,1.0,0.7391895420005312,,,,,,sub-068,1,stroop_test,,
,,,,105.0,9.0,8.0,,,,,,,,,,,,,rot,red,r,1.0,r,1.0,0.4730176250013755,,,,,,,,,,8.0,9.0,105.0,0.0,367.7646580829969,,,,,,,,,,,,,,,,,367.7549789580007,368.552084707997,369.3486240419952,369.33556566699554,,,,,,,,,,,,,,,,,,,,,,,,,,,,,,,,,,,369.3390319169994,369.3486240419952,369.3486240419952,369.8304762080006,r,1.0,0.4730176250013755,,,,,,sub-068,1,stroop_test,,
,,,,106.0,10.0,8.0,,,,,,,,,,,,,gelb,yellow,g,1.0,g,1.0,0.5386762089983677,,,,,,,,,,8.0,10.0,106.0,10.0,369.84091945800174,,,,,,,,,,,,,,,,,369.8310608749962,369.9285072919956,370.7245791669993,370.7125339580016,,,,,,,,,,,,,,,,,,,,,,,,,,,,,,,,,,,370.7168856249991,370.7245791669993,370.7245791669993,371.2702320829994,g,1.0,0.5386762089983677,,,,,,sub-068,1,stroop_test,,
,,,,107.0,11.0,8.0,,,,,,,,,,,,,gelb,yellow,g,1.0,g,1.0,0.3570329590002075,,,,,,,,,,8.0,11.0,107.0,11.0,371.2812862079954,,,,,,,,,,,,,,,,,371.2708024169988,371.61906887499936,372.4111385419965,372.4024013329981,,,,,,,,,,,,,,,,,,,,,,,,,,,,,,,,,,,372.4030827919996,372.4111385419965,372.4111385419965,372.7708122080003,g,1.0,0.3570329590002075,,,,,,sub-068,1,stroop_test,,
,,,,108.0,0.0,9.0,,,,,,,,,,,,,gelb,yellow,g,1.0,g,1.0,0.4347862080030609,,,,,,,,,,9.0,0.0,108.0,10.0,372.7813359579959,,,,,,,,,,,,,,,,,372.77138125000056,372.86881387500034,373.6608403749997,373.6524022919984,,,,,,,,,,,,,,,,,,,,,,,,,,,,,,,,,,,373.6530666249964,373.6608403749997,373.6608403749997,374.0993909579993,g,1.0,0.4347862080030609,,,,,,sub-068,1,stroop_test,,
,,,,109.0,1.0,9.0,,,,,,,,,,,,,blau,red,r,0.0,r,1.0,0.6711960419997922,,,,,,,,,,9.0,1.0,109.0,4.0,374.1097022499962,,,,,,,,,,,,,,,,,374.0999657919965,374.4452174170001,375.24064633299713,375.2290559999965,,,,,,,,,,,,,,,,,,,,,,,,,,,,,,,,,,,375.2330749579996,375.24064633299713,375.24064633299713,375.9148312920006,r,1.0,0.6711960419997922,,,,,,sub-068,1,stroop_test,,
,,,,110.0,2.0,9.0,,,,,,,,,,,,,blau,yellow,g,0.0,g,1.0,0.5500993749956251,,,,,,,,,,9.0,2.0,110.0,7.0,375.9253549169953,,,,,,,,,,,,,,,,,375.9154542920005,376.7116393749966,377.5039568749999,377.4957216670009,,,,,,,,,,,,,,,,,,,,,,,,,,,,,,,,,,,377.49645645800047,377.5039568749999,377.5039568749999,378.0638030830014,g,1.0,0.5500993749956251,,,,,,sub-068,1,stroop_test,,
,,,,111.0,3.0,9.0,,,,,,,,,,,,,gelb,blue,b,0.0,b,1.0,0.391150709001522,,,,,,,,,,9.0,3.0,111.0,9.0,378.0741221249991,,,,,,,,,,,,,,,,,378.0643596669979,379.2616572920015,380.0591546669966,380.0460734169974,,,,,,,,,,,,,,,,,,,,,,,,,,,,,,,,,,,380.0515076669981,380.0591546669966,380.0591546669966,380.4539244999978,b,1.0,0.391150709001522,,,,,,sub-068,1,stroop_test,,
,,,,112.0,4.0,9.0,,,,,,,,,,,,,blau,blue,b,1.0,b,1.0,0.4712743330019293,,,,,,,,,,9.0,4.0,112.0,5.0,380.464776791996,,,,,,,,,,,,,,,,,380.45449708299566,380.5517845419963,381.3480012079963,381.3360919580009,,,,,,,,,,,,,,,,,,,,,,,,,,,,,,,,,,,381.33991524999874,381.3480012079963,381.3480012079963,381.8218444169979,b,1.0,0.4712743330019293,,,,,,sub-068,1,stroop_test,,
,,,,113.0,5.0,9.0,,,,,,,,,,,,,rot,red,r,1.0,r,1.0,0.5479508339994936,,,,,,,,,,9.0,5.0,113.0,1.0,381.8324347499947,,,,,,,,,,,,,,,,,381.8224211249981,382.1687744169976,382.96512950000033,382.9518971669968,,,,,,,,,,,,,,,,,,,,,,,,,,,,,,,,,,,382.9554614169974,382.96512950000033,382.96512950000033,383.5204493329948,r,1.0,0.5479508339994936,,,,,,sub-068,1,stroop_test,,
,,,,114.0,6.0,9.0,,,,,,,,,,,,,gelb,red,r,0.0,r,1.0,0.6303597500009346,,,,,,,,,,9.0,6.0,114.0,8.0,383.5314033329996,,,,,,,,,,,,,,,,,383.521015792001,384.3189525829948,385.114765499995,385.1026665829995,,,,,,,,,,,,,,,,,,,,,,,,,,,,,,,,,,,385.1065396249978,385.114765499995,385.114765499995,385.74834195799485,r,1.0,0.6303597500009346,,,,,,sub-068,1,stroop_test,,
,,,,115.0,7.0,9.0,,,,,,,,,,,,,rot,yellow,g,0.0,g,1.0,0.4607383750044391,,,,,,,,,,9.0,7.0,115.0,3.0,385.7588919170012,,,,,,,,,,,,,,,,,385.74893862500176,386.09517620800034,386.89289049999934,386.8789716669999,,,,,,,,,,,,,,,,,,,,,,,,,,,,,,,,,,,386.8827246669971,386.89289049999934,386.89289049999934,387.36381816699577,g,1.0,0.4607383750044391,,,,,,sub-068,1,stroop_test,,
,,,,116.0,8.0,9.0,,,,,,,,,,,,,gelb,yellow,g,1.0,g,1.0,1.099826375000703,,,,,,,,,,9.0,8.0,116.0,11.0,387.3741457079959,,,,,,,,,,,,,,,,,387.36439154199616,387.4618690829957,388.2570549169977,388.2456493329955,,,,,,,,,,,,,,,,,,,,,,,,,,,,,,,,,,,388.2496626669963,388.2570549169977,388.2570549169977,389.3641080829984,g,1.0,1.099826375000703,,,,,,sub-068,1,stroop_test,,
,,,,117.0,9.0,9.0,,,,,,,,,,,,,rot,red,r,1.0,r,1.0,0.5959389580020797,,,,,,,,,,9.0,9.0,117.0,0.0,389.3747729999959,,,,,,,,,,,,,,,,,389.3646878750005,390.16176512499806,390.9607564580001,390.94581095800095,,,,,,,,,,,,,,,,,,,,,,,,,,,,,,,,,,,390.9497754999975,390.9607564580001,390.9607564580001,391.5643051250008,r,1.0,0.5959389580020797,,,,,,sub-068,1,stroop_test,,
,,,,118.0,10.0,9.0,,,,,,,,,,,,,blau,blue,b,1.0,b,1.0,0.7207033329978003,,,,,,,,,,9.0,10.0,118.0,6.0,391.5748086669992,,,,,,,,,,,,,,,,,391.5648812500003,392.76188445799926,393.55935033300193,393.5461186249959,,,,,,,,,,,,,,,,,,,,,,,,,,,,,,,,,,,393.55182987499575,393.55935033300193,393.55935033300193,394.2873934579984,b,1.0,0.7207033329978003,,,,,,sub-068,1,stroop_test,,
,,,,119.0,11.0,9.0,,,,,,,,,,,,,rot,blue,b,0.0,b,1.0,0.8087470840036985,,,,,,,,,,9.0,11.0,119.0,2.0,394.2981573750003,,,,,,,,,,,,,,,,,394.28796420800063,395.0846417499997,395.8820403749996,395.86865691699495,,,,,,,,,,,,,,,,,,,,,,,,,,,,,,,,,,,395.8722097919963,395.8820403749996,395.8820403749996,396.6977368329972,b,1.0,0.8087470840036985,,,,,,sub-068,1,stroop_test,,
,,,,,,,,,,,,,,,,,,,,,,,,,,,,,,,,,,,,,,,,,,,,,,,,,,,,,,,,,,,,,,,,,,,,,,,,,,,,,,,,,,,,,,,,,,,,,,,,,,,,,,396.6980442079948,396.7106993749985,401.7016684170012,401.6960978329953,sub-068,1,stroop_test,,
