wordCTK,colorCTK,corrAnsCTK,congruentCTK,thisN,thisTrialN,thisRepN,keyResp_CTK.keys,keyResp_CTK.corr,keyResp_CTK.rt,keyResp_CTK.duration,wordPractice,colorPractice,corrAnsPractice,congruentPractice,respPractice.keys,respPractice.corr,respPractice.rt,respPractice.duration,word,color,corrAns,congruent,keyResp_test_run.keys,keyResp_test_run.corr,keyResp_test_run.rt,keyResp_test_run.duration,trials_CTK.thisRepN,trials_CTK.thisTrialN,trials_CTK.thisN,trials_CTK.thisIndex,trials_practice.thisRepN,trials_practice.thisTrialN,trials_practice.thisN,trials_practice.thisIndex,trials_test.thisRepN,trials_test.thisTrialN,trials_test.thisN,trials_test.thisIndex,thisRow.t,notes,instruction.started,instr_text.started,instr_image.started,instr_resp.started,instruction.stopped,instr_resp.keys,instr_resp.rt,instr_resp.duration,instr_color_to_key.started,instr_ctk.started,resp_ctk.started,instr_color_to_key.stopped,resp_ctk.keys,resp_ctk.rt,resp_ctk.duration,ITI.started,fixcross.started,fixcross.stopped,ITI.stopped,color_to_key_run.started,stimulus_CTK.started,keyResp_CTK.started,color_to_key_run.stopped,trials_CTK.keyResp_CTK.keys,trials_CTK.keyResp_CTK.corr,trials_CTK.keyResp_CTK.rt,trials_CTK.keyResp_CTK.duration,instr_practice.started,instr_practice_text.started,instr_practice_resp.started,instr_practice.stopped,instr_practice_resp.keys,instr_practice_resp.rt,instr_practice_resp.duration,practice_run.started,stimulus_practice.started,respPractice.started,practice_run.stopped,trials_practice.respPractice.keys,trials_practice.respPractice.corr,trials_practice.respPractice.rt,trials_practice.respPractice.duration,feedback.started,textFeedback.started,feedback.stopped,textFeedback.stopped,instr_test.started,instr_test_text.started,instr_test_resp.started,instr_test.stopped,instr_test_resp.keys,instr_test_resp.rt,instr_test_resp.duration,test_run.started,stimulus_test_run.started,keyResp_test_run.started,test_run.stopped,trials_test.keyResp_test_run.keys,trials_test.keyResp_test_run.corr,trials_test.keyResp_test_run.rt,trials_test.keyResp_test_run.duration,goodbye.started,textGoodbye.started,textGoodbye.stopped,goodbye.stopped,participant,session,expName,frameRate,Unnamed: 113
,,,,,,,,,,,,,,,,,,,,,,,,,,,,,,,,,,,,,,,,,0.0051099999982398,0.1781572000181768,0.1781572000181768,0.1781572000181768,48.47286490001716,space,48.13713200000348,,,,,,,,,,,,,,,,,,,,,,,,,,,,,,,,,,,,,,,,,,,,,,,,,,,,,,,,,,,sub-041,1,stroop_test,59.94729434225683,
,,,,,,,,,,,,,,,,,,,,,,,,,,,,,,,,,,,,,,,,,,,,,,,,,48.47298760002013,48.48268260000623,48.48268260000623,60.90084870002465,space,12.404659400024684,,,,,,,,,,,,,,,,,,,,,,,,,,,,,,,,,,,,,,,,,,,,,,,,,,,,sub-041,1,stroop_test,59.94729434225683,
test,blue,b,1.0,0.0,0.0,0.0,b,1.0,1.4739446000021417,,,,,,,,,,,,,,,,,,0.0,0.0,0.0,2.0,,,,,,,,,60.94455500002368,,,,,,,,,,,,,,,,,60.93846420000773,62.10693219999666,62.91023219999624,62.89136690000305,62.90313420002349,62.91023219999624,62.91023219999624,64.39255410002079,b,1.0,1.4739446000021417,,,,,,,,,,,,,,,,,,,,,,,,,,,,,,,,,,,,,,,,sub-041,1,stroop_test,59.94729434225683,
test,yellow,g,1.0,1.0,1.0,0.0,g,1.0,0.7312002000107896,,,,,,,,,,,,,,,,,,0.0,1.0,1.0,1.0,,,,,,,,,64.40700940001989,,,,,,,,,,,,,,,,,64.39299809999648,64.75721209999756,65.55698770002346,65.54137350001838,65.5419768000138,65.55698770002346,65.55698770002346,66.29212950001238,g,1.0,0.7312002000107896,,,,,,,,,,,,,,,,,,,,,,,,,,,,,,,,,,,,,,,,sub-041,1,stroop_test,59.94729434225683,
test,red,r,1.0,2.0,2.0,0.0,r,1.0,0.5015680000069551,,,,,,,,,,,,,,,,,,0.0,2.0,2.0,0.0,,,,,,,,,66.30677809999906,,,,,,,,,,,,,,,,,66.29262730001938,67.1069453000091,67.90730390002136,67.89121709999745,67.89184080000268,67.90730390002136,67.90730390002136,68.42537490001996,r,1.0,0.5015680000069551,,,,,,,,,,,,,,,,,,,,,,,,,,,,,,,,,,,,,,,,sub-041,1,stroop_test,59.94729434225683,
test,yellow,g,1.0,3.0,0.0,1.0,g,1.0,0.5463256000075489,,,,,,,,,,,,,,,,,,1.0,0.0,3.0,1.0,,,,,,,,,68.4401724000054,,,,,,,,,,,,,,,,,68.42581820001942,68.79042970002047,69.59076670001377,69.5747908000194,69.5754151000001,69.59076670001377,69.59076670001377,70.14211820001947,g,1.0,0.5463256000075489,,,,,,,,,,,,,,,,,,,,,,,,,,,,,,,,,,,,,,,,sub-041,1,stroop_test,59.94729434225683,
test,blue,b,1.0,4.0,1.0,1.0,b,1.0,0.4877694000024348,,,,,,,,,,,,,,,,,,1.0,1.0,4.0,2.0,,,,,,,,,70.15670280001359,,,,,,,,,,,,,,,,,70.14254020000226,70.25714290002361,71.0567467000219,71.04120110001531,71.0419186000072,71.0567467000219,71.0567467000219,71.55862769999658,b,1.0,0.4877694000024348,,,,,,,,,,,,,,,,,,,,,,,,,,,,,,,,,,,,,,,,sub-041,1,stroop_test,59.94729434225683,
test,red,r,1.0,5.0,2.0,1.0,r,1.0,0.4494812999910209,,,,,,,,,,,,,,,,,,1.0,2.0,5.0,0.0,,,,,,,,,71.57343450002372,,,,,,,,,,,,,,,,,71.5590618000133,71.92361610001535,72.72382010001456,72.70799930000794,72.70868430001428,72.72382010001456,72.72382010001456,73.17588610001258,r,1.0,0.4494812999910209,,,,,,,,,,,,,,,,,,,,,,,,,,,,,,,,,,,,,,,,sub-041,1,stroop_test,59.94729434225683,
test,blue,b,1.0,6.0,0.0,2.0,b,1.0,0.4302116000035312,,,,,,,,,,,,,,,,,,2.0,0.0,6.0,2.0,,,,,,,,,73.19001790002221,,,,,,,,,,,,,,,,,73.1763106000144,73.54044080001768,74.3401356000104,74.32455630000914,74.32540490000974,74.3401356000104,74.3401356000104,74.77538460001233,b,1.0,0.4302116000035312,,,,,,,,,,,,,,,,,,,,,,,,,,,,,,,,,,,,,,,,sub-041,1,stroop_test,59.94729434225683,
test,red,r,1.0,7.0,1.0,2.0,r,1.0,0.8848188999982085,,,,,,,,,,,,,,,,,,2.0,1.0,7.0,0.0,,,,,,,,,74.79008430000977,,,,,,,,,,,,,,,,,74.77595989999827,75.99030910001602,76.79019320002408,76.77468190001673,76.7755676000088,76.79019320002408,76.79019320002408,77.6918404000171,r,1.0,0.8848188999982085,,,,,,,,,,,,,,,,,,,,,,,,,,,,,,,,,,,,,,,,sub-041,1,stroop_test,59.94729434225683,
test,yellow,g,1.0,8.0,2.0,2.0,g,1.0,0.4921181999961845,,,,,,,,,,,,,,,,,,2.0,2.0,8.0,1.0,,,,,,,,,77.70698660000926,,,,,,,,,,,,,,,,,77.69245910001337,77.80696370001533,78.60686620001798,78.5911366000073,78.59186030001729,78.60686620001798,78.60686620001798,79.10851510000066,g,1.0,0.4921181999961845,,,,,,,,,,,,,,,,,,,,,,,,,,,,,,,,,,,,,,,,sub-041,1,stroop_test,59.94729434225683,
test,red,r,1.0,9.0,0.0,3.0,g,0.0,0.4467306000005919,,,,,,,,,,,,,,,,,,3.0,0.0,9.0,0.0,,,,,,,,,79.12350830002106,,,,,,,,,,,,,,,,,79.10905430000275,80.3236286000174,81.12362749999738,81.1078361000109,81.10858810000354,81.12362749999738,81.12362749999738,81.57669870002428,g,0.0,0.4467306000005919,,,,,,,,,,,,,,,,,,,,,,,,,,,,,,,,,,,,,,,,sub-041,1,stroop_test,59.94729434225683,
test,blue,b,1.0,10.0,1.0,3.0,b,1.0,0.4953276000160258,,,,,,,,,,,,,,,,,,3.0,1.0,10.0,2.0,,,,,,,,,81.59142969999812,,,,,,,,,,,,,,,,,81.57743520001532,81.94010890001664,82.74016519999714,82.72472040000139,82.72538790002,82.74016519999714,82.74016519999714,83.24201860002358,b,1.0,0.4953276000160258,,,,,,,,,,,,,,,,,,,,,,,,,,,,,,,,,,,,,,,,sub-041,1,stroop_test,59.94729434225683,
test,yellow,g,1.0,11.0,2.0,3.0,g,1.0,0.4437883000064175,,,,,,,,,,,,,,,,,,3.0,2.0,11.0,1.0,,,,,,,,,83.2565758000128,,,,,,,,,,,,,,,,,83.24254990002373,84.45693800001754,85.25675550001324,85.24122890000581,85.2420076999988,85.25675550001324,85.25675550001324,85.70921500000986,g,1.0,0.4437883000064175,,,,,,,,,,,,,,,,,,,,,,,,,,,,,,,,,,,,,,,,sub-041,1,stroop_test,59.94729434225683,
,,,,,,,,,,,,,,,,,,,,,,,,,,,,,,,,,,,,,,,,,,,,,,,,,,,,,,,,,,,,,,,,,,,,85.70948340001632,85.72364410001319,85.72364410001319,109.9425395000144,space,24.216313499986427,,,,,,,,,,,,,,,,,,,,,,,,,,,,,,,,,sub-041,1,stroop_test,59.94729434225683,
,,,,0.0,0.0,0.0,,,,,gelb,blue,b,0.0,b,1.0,0.5938986999972258,,,,,,,,,,,,,,0.0,0.0,0.0,9.0,,,,,109.96373310001218,,,,,,,,,,,,,,,,,109.95748710000773,110.30657730001258,111.10906770001748,111.09090629999992,,,,,,,,,,,,,,,,111.10201689999668,111.10906770001748,111.10906770001748,111.70860230000108,b,1.0,0.5938986999972258,,111.72168660000898,111.73024500001338,112.7235564000148,,,,,,,,,,,,,,,,,,,,,sub-041,1,stroop_test,59.94729434225683,
,,,,1.0,1.0,0.0,,,,,rot,yellow,g,0.0,g,1.0,0.5422404000128154,,,,,,,,,,,,,,0.0,1.0,1.0,3.0,,,,,112.74003760001506,,,,,,,,,,,,,,,,,112.72410180000588,113.07312660000753,113.87314550002338,113.85766520001926,,,,,,,,,,,,,,,,113.86534519999988,113.87314550002338,113.87314550002338,114.42538820000482,g,1.0,0.5422404000128154,,114.42605020001064,114.43998080000163,115.42439960001502,115.4397354000248,,,,,,,,,,,,,,,,,,,,sub-041,1,stroop_test,59.94729434225683,
,,,,2.0,2.0,0.0,,,,,rot,blue,b,0.0,b,1.0,0.5103512000059709,,,,,,,,,,,,,,0.0,2.0,2.0,2.0,,,,,115.4397354000248,,,,,,,,,,,,,,,,,115.42484710001736,115.79006330002449,116.58987890000571,116.5750306000118,,,,,,,,,,,,,,,,116.57574470000692,116.58987890000571,116.58987890000571,117.1089132000052,b,1.0,0.5103512000059709,,117.10959639999784,117.12365160000628,118.10805360000812,118.12340540002332,,,,,,,,,,,,,,,,,,,,sub-041,1,stroop_test,59.94729434225683,
,,,,3.0,3.0,0.0,,,,,blau,red,r,0.0,r,1.0,0.3984328000224195,,,,,,,,,,,,,,0.0,3.0,3.0,4.0,,,,,118.12340540002332,,,,,,,,,,,,,,,,,118.1085965000093,119.32325780001702,120.12328240001808,120.10749190000934,,,,,,,,,,,,,,,,120.11610230000224,120.12328240001808,120.12328240001808,120.5252884000074,r,1.0,0.3984328000224195,,120.52594600000884,120.540499499999,121.52445160000934,121.53983750002226,,,,,,,,,,,,,,,,,,,,sub-041,1,stroop_test,59.94729434225683,
,,,,4.0,4.0,0.0,,,,,blau,blue,b,1.0,b,1.0,0.3383854999847244,,,,,,,,,,,,,,0.0,4.0,4.0,5.0,,,,,121.53983750002226,,,,,,,,,,,,,,,,,121.52489910001168,122.3398492000124,123.14009650002116,123.1246409000014,,,,,,,,,,,,,,,,123.125400000019,123.14009650002116,123.14009650002116,123.49225190002473,b,1.0,0.3383854999847244,,123.49291810000432,123.5067687999981,124.49109060000046,124.50682670000242,,,,,,,,,,,,,,,,,,,,sub-041,1,stroop_test,59.94729434225683,
,,,,5.0,5.0,0.0,,,,,gelb,yellow,g,1.0,g,1.0,0.4050347000011243,,,,,,,,,,,,,,0.0,5.0,5.0,11.0,,,,,124.50682670000242,,,,,,,,,,,,,,,,,124.49150600002032,124.85676409999724,125.65663080001832,125.64139270002488,,,,,,,,,,,,,,,,125.64532619999954,125.65663080001832,125.65663080001832,126.07491080000182,g,1.0,0.4050347000011243,,126.07557350001298,126.09004960002494,127.07427140002255,127.0902339000022,,,,,,,,,,,,,,,,,,,,sub-041,1,stroop_test,59.94729434225683,
,,,,6.0,6.0,0.0,,,,,blau,blue,b,1.0,b,1.0,0.4085086999984924,,,,,,,,,,,,,,0.0,6.0,6.0,6.0,,,,,127.0902339000022,,,,,,,,,,,,,,,,,127.07477520001704,128.2898818000103,129.09004390001064,129.0741489000211,,,,,,,,,,,,,,,,129.07915040000807,129.09004390001064,129.09004390001064,129.50863789999858,b,1.0,0.4085086999984924,,129.5092805000022,129.5234406000236,130.50785630001337,130.5232261000201,,,,,,,,,,,,,,,,,,,,sub-041,1,stroop_test,59.94729434225683,
,,,,7.0,7.0,0.0,,,,,gelb,yellow,g,1.0,g,1.0,0.4827311999979429,,,,,,,,,,,,,,0.0,7.0,7.0,10.0,,,,,130.5232261000201,,,,,,,,,,,,,,,,,130.5083853000251,131.32318190002115,132.12369750000653,132.1077884999977,,,,,,,,,,,,,,,,132.1131556000037,132.12369750000653,132.12369750000653,132.60921039999812,g,1.0,0.4827311999979429,,132.60986769999727,132.62318670001696,133.6081142000039,133.62316780001856,,,,,,,,,,,,,,,,,,,,sub-041,1,stroop_test,59.94729434225683,
,,,,8.0,8.0,0.0,,,,,rot,red,r,1.0,r,1.0,0.4493267000070773,,,,,,,,,,,,,,0.0,8.0,8.0,1.0,,,,,133.62316780001856,,,,,,,,,,,,,,,,,133.6086291000247,134.42359290001332,135.22361190000083,135.20778379999683,,,,,,,,,,,,,,,,135.21188970000367,135.22361190000083,135.22361190000083,135.6757665000041,r,1.0,0.4493267000070773,,135.67647299999953,135.68980880000163,136.67449649999617,136.68994530002237,,,,,,,,,,,,,,,,,,,,sub-041,1,stroop_test,59.94729434225683,
,,,,9.0,9.0,0.0,,,,,gelb,red,r,0.0,r,1.0,0.9058067000005394,,,,,,,,,,,,,,0.0,9.0,9.0,8.0,,,,,136.68994530002237,,,,,,,,,,,,,,,,,136.67495890002465,136.79017770002247,137.5897338000068,137.5744937999989,,,,,,,,,,,,,,,,137.57882300001802,137.5897338000068,137.5897338000068,138.50843670000904,r,1.0,0.9058067000005394,,138.50912440000684,138.52338900000905,139.5077481000044,139.5230012999964,,,,,,,,,,,,,,,,,,,,sub-041,1,stroop_test,59.94729434225683,
,,,,10.0,10.0,0.0,,,,,blau,yellow,g,0.0,g,1.0,0.3803847999952268,,,,,,,,,,,,,,0.0,10.0,10.0,7.0,,,,,139.5230012999964,,,,,,,,,,,,,,,,,139.5081737000146,139.6233814000152,140.4230721000058,140.4074290000135,,,,,,,,,,,,,,,,140.41181089999736,140.4230721000058,140.4230721000058,140.80851010000333,g,1.0,0.3803847999952268,,140.80947900001777,140.82321040000534,141.807889800024,141.82327580000856,,,,,,,,,,,,,,,,,,,,sub-041,1,stroop_test,59.94729434225683,
,,,,11.0,11.0,0.0,,,,,rot,red,r,1.0,r,1.0,0.3936379000078887,,,,,,,,,,,,,,0.0,11.0,11.0,0.0,,,,,141.82327580000856,,,,,,,,,,,,,,,,,141.80849789999775,142.1731738000235,142.97321009999723,142.95880680001574,,,,,,,,,,,,,,,,142.963103600021,142.97321009999723,142.97321009999723,143.3750098000164,r,1.0,0.3936379000078887,,143.37580510001862,143.3897619000054,144.37417320001987,144.38964790001046,,,,,,,,,,,,,,,,,,,,sub-041,1,stroop_test,59.94729434225683,
,,,,12.0,0.0,1.0,,,,,blau,blue,b,1.0,b,1.0,0.3373677999770734,,,,,,,,,,,,,,1.0,0.0,12.0,5.0,,,,,144.38964790001046,,,,,,,,,,,,,,,,,144.37462080002297,145.18993839999894,145.9897908999992,145.97431310001411,,,,,,,,,,,,,,,,145.98007400002098,145.9897908999992,145.9897908999992,146.34173909999663,b,1.0,0.3373677999770734,,146.34257780000917,146.35677100002067,147.34058519999962,147.35640099999728,,,,,,,,,,,,,,,,,,,,sub-041,1,stroop_test,59.94729434225683,
,,,,13.0,1.0,1.0,,,,,blau,red,r,0.0,r,1.0,0.5072252000099979,,,,,,,,,,,,,,1.0,1.0,13.0,4.0,,,,,147.35640099999728,,,,,,,,,,,,,,,,,147.34103589999722,147.70646159999887,148.50640310000745,148.4908778000099,,,,,,,,,,,,,,,,148.4915818000154,148.50640310000745,148.50640310000745,149.02493730001152,r,1.0,0.5072252000099979,,149.02561219999916,149.0397370000137,150.02438410001923,150.04198880001786,,,,,,,,,,,,,,,,,,,,sub-041,1,stroop_test,59.94729434225683,
,,,,14.0,2.0,1.0,,,,,rot,yellow,g,0.0,g,1.0,0.4189563000109046,,,,,,,,,,,,,,1.0,2.0,14.0,3.0,,,,,150.04198880001786,,,,,,,,,,,,,,,,,150.02486640002462,151.24000140000135,152.0396118000208,152.02414059999865,,,,,,,,,,,,,,,,152.02825070000836,152.0396118000208,152.0396118000208,152.47518820001278,g,1.0,0.4189563000109046,,152.47610800000257,152.48966970000765,153.4747856000031,153.4895746000111,,,,,,,,,,,,,,,,,,,,sub-041,1,stroop_test,59.94729434225683,
,,,,15.0,3.0,1.0,,,,,gelb,yellow,g,1.0,g,1.0,0.3711760999867692,,,,,,,,,,,,,,1.0,3.0,15.0,11.0,,,,,153.4895746000111,,,,,,,,,,,,,,,,,153.4754301000212,154.6899573999981,155.48976620001486,155.47420150000835,,,,,,,,,,,,,,,,155.47935770000913,155.48976620001486,155.48976620001486,155.87593910002033,g,1.0,0.3711760999867692,,155.87658870001906,155.88955200000782,156.87453060000553,156.8898715999967,,,,,,,,,,,,,,,,,,,,sub-041,1,stroop_test,59.94729434225683,
,,,,16.0,4.0,1.0,,,,,blau,blue,b,1.0,b,1.0,0.4195978000061586,,,,,,,,,,,,,,1.0,4.0,16.0,6.0,,,,,156.8898715999967,,,,,,,,,,,,,,,,,156.87508040000102,158.08977449999657,158.88982609999948,158.8745273000095,,,,,,,,,,,,,,,,158.8783567000064,158.88982609999948,158.88982609999948,159.32575330001418,b,1.0,0.4195978000061586,,159.3264163999993,159.33987409999827,160.32446050000726,160.33967200000188,,,,,,,,,,,,,,,,,,,,sub-041,1,stroop_test,59.94729434225683,
,,,,17.0,5.0,1.0,,,,,rot,red,r,1.0,r,1.0,0.4520150999887846,,,,,,,,,,,,,,1.0,5.0,17.0,1.0,,,,,160.33967200000188,,,,,,,,,,,,,,,,,160.32495880001807,161.5399137000204,162.3396691000089,162.32409370000823,,,,,,,,,,,,,,,,162.32806450000498,162.3396691000089,162.3396691000089,162.80864580001798,r,1.0,0.4520150999887846,,162.80944760001148,162.82348590000765,163.80776630001492,163.82313230002185,,,,,,,,,,,,,,,,,,,,sub-041,1,stroop_test,59.94729434225683,
,,,,18.0,6.0,1.0,,,,,gelb,red,r,0.0,r,1.0,0.5477425999997649,,,,,,,,,,,,,,1.0,6.0,18.0,8.0,,,,,163.82313230002185,,,,,,,,,,,,,,,,,163.80829919999815,165.0235956000106,165.8229119000025,165.80745469999965,,,,,,,,,,,,,,,,165.8120317000139,165.8229119000025,165.8229119000025,166.37488529999973,r,1.0,0.5477425999997649,,166.37559550002334,166.39012140000705,167.37425059999805,167.3903341999976,,,,,,,,,,,,,,,,,,,,sub-041,1,stroop_test,59.94729434225683,
,,,,19.0,7.0,1.0,,,,,rot,red,r,1.0,r,1.0,0.566816700011259,,,,,,,,,,,,,,1.0,7.0,19.0,0.0,,,,,167.3903341999976,,,,,,,,,,,,,,,,,167.3747529000102,167.73971910000546,168.5395044000179,168.52427980001085,,,,,,,,,,,,,,,,168.52995670001835,168.5395044000179,168.5395044000179,169.1089789000107,r,1.0,0.566816700011259,,169.10968670001603,169.12294319999637,170.10731740001938,170.12283350000507,,,,,,,,,,,,,,,,,,,,sub-041,1,stroop_test,59.94729434225683,
,,,,20.0,8.0,1.0,,,,,gelb,yellow,g,1.0,g,1.0,0.3679542999889236,,,,,,,,,,,,,,1.0,8.0,20.0,10.0,,,,,170.12283350000507,,,,,,,,,,,,,,,,,170.10772400000133,171.3238096999994,172.12305240001297,172.10797510002158,,,,,,,,,,,,,,,,172.1124549000233,172.12305240001297,172.12305240001297,172.50783159999992,g,1.0,0.3679542999889236,,172.5086213000177,172.52312220001477,173.50827449999633,173.52339000001666,,,,,,,,,,,,,,,,,,,,sub-041,1,stroop_test,59.94729434225683,
,,,,21.0,9.0,1.0,,,,,rot,blue,b,0.0,b,1.0,0.3802720000094268,,,,,,,,,,,,,,1.0,9.0,21.0,2.0,,,,,173.52339000001666,,,,,,,,,,,,,,,,,173.5087695000111,174.72318990001804,175.52299720002338,175.50737279999885,,,,,,,,,,,,,,,,175.51241350002238,175.52299720002338,175.52299720002338,175.90863980000722,b,1.0,0.3802720000094268,,175.90927689999808,175.92328810002073,176.90788020001492,176.9233310999989,,,,,,,,,,,,,,,,,,,,sub-041,1,stroop_test,59.94729434225683,
,,,,22.0,10.0,1.0,,,,,blau,yellow,g,0.0,g,1.0,0.4340620999864768,,,,,,,,,,,,,,1.0,10.0,22.0,7.0,,,,,176.9233310999989,,,,,,,,,,,,,,,,,176.90829000002122,177.7233240000205,178.52334070001962,178.50752410001587,,,,,,,,,,,,,,,,178.51187850002316,178.52334070001962,178.52334070001962,178.9743773000082,g,1.0,0.4340620999864768,,178.97511040000245,178.98968620001688,179.97407730002303,179.98941740000737,,,,,,,,,,,,,,,,,,,,sub-041,1,stroop_test,59.94729434225683,
,,,,23.0,11.0,1.0,,,,,gelb,blue,b,0.0,b,1.0,0.4242981000279542,,,,,,,,,,,,,,1.0,11.0,23.0,9.0,,,,,179.98941740000737,,,,,,,,,,,,,,,,,179.9745986000053,180.0899255000113,180.8894799000118,180.8741992000141,,,,,,,,,,,,,,,,180.8790784000012,180.8894799000118,180.8894799000118,181.32506550001565,b,1.0,0.4242981000279542,,181.32581570002367,181.3394787000143,182.32412790000672,182.33969960000832,,,,,,,,,,,,,,,,,,,,sub-041,1,stroop_test,59.94729434225683,
,,,,,,,,,,,,,,,,,,,,,,,,,,,,,,,,,,,,,,,,,,,,,,,,,,,,,,,,,,,,,,,,,,,,,,,,,,,,,,,,,,,,,,,182.32429360001697,182.33969960000832,182.33969960000832,192.77516640000977,space,10.41953139999532,,,,,,,,,,,,,,sub-041,1,stroop_test,59.94729434225683,
,,,,0.0,0.0,0.0,,,,,,,,,,,,,rot,red,r,1.0,r,1.0,0.5375907999987248,,,,,,,,,,0.0,0.0,0.0,0.0,192.80412390001584,,,,,,,,,,,,,,,,,192.79837500001304,193.59007180001936,194.3901432999992,194.3747162000218,,,,,,,,,,,,,,,,,,,,,,,,,,,,,,,,,,,194.37899740002467,194.3901432999992,194.3901432999992,194.9418036999996,r,1.0,0.5375907999987248,,,,,,sub-041,1,stroop_test,59.94729434225683,
,,,,1.0,1.0,0.0,,,,,,,,,,,,,rot,red,r,1.0,r,1.0,0.7483401999925263,,,,,,,,,,0.0,1.0,1.0,1.0,194.9566582000116,,,,,,,,,,,,,,,,,194.94234430001237,195.30665680000675,196.10717570001725,196.091299599997,,,,,,,,,,,,,,,,,,,,,,,,,,,,,,,,,,,196.09192090001304,196.10717570001725,196.10717570001725,196.8590752000164,r,1.0,0.7483401999925263,,,,,,sub-041,1,stroop_test,59.94729434225683,
,,,,2.0,2.0,0.0,,,,,,,,,,,,,gelb,yellow,g,1.0,g,1.0,0.8070449999941047,,,,,,,,,,0.0,2.0,2.0,11.0,196.8733478000213,,,,,,,,,,,,,,,,,196.85963330001687,197.22366430002148,198.02351790000105,198.0077962000214,,,,,,,,,,,,,,,,,,,,,,,,,,,,,,,,,,,198.0118054000195,198.02351790000105,198.02351790000105,198.84188140000333,g,1.0,0.8070449999941047,,,,,,sub-041,1,stroop_test,59.94729434225683,
,,,,3.0,3.0,0.0,,,,,,,,,,,,,gelb,blue,b,0.0,b,1.0,0.7575958000088576,,,,,,,,,,0.0,3.0,3.0,9.0,198.8565034000203,,,,,,,,,,,,,,,,,198.84241700000712,199.65717180000505,200.45701610000103,200.44118069999968,,,,,,,,,,,,,,,,,,,,,,,,,,,,,,,,,,,200.44193240001917,200.45701610000103,200.45701610000103,201.22495600002003,b,1.0,0.7575958000088576,,,,,,sub-041,1,stroop_test,59.94729434225683,
,,,,4.0,4.0,0.0,,,,,,,,,,,,,blau,blue,b,1.0,b,1.0,0.5014855999907013,,,,,,,,,,0.0,4.0,4.0,6.0,201.24016780001693,,,,,,,,,,,,,,,,,201.22543530000257,201.58993650000772,202.3900984000065,202.37432200001783,,,,,,,,,,,,,,,,,,,,,,,,,,,,,,,,,,,202.3782027999987,202.3900984000065,202.3900984000065,202.90918020001843,b,1.0,0.5014855999907013,,,,,,sub-041,1,stroop_test,59.94729434225683,
,,,,5.0,5.0,0.0,,,,,,,,,,,,,gelb,yellow,g,1.0,g,1.0,0.5015438999980688,,,,,,,,,,0.0,5.0,5.0,10.0,202.9234121000045,,,,,,,,,,,,,,,,,202.90977790000036,203.7232566000021,204.52325730002485,204.50769749999745,,,,,,,,,,,,,,,,,,,,,,,,,,,,,,,,,,,204.51331030001165,204.52325730002485,204.52325730002485,205.04150810002463,g,1.0,0.5015438999980688,,,,,,sub-041,1,stroop_test,59.94729434225683,
,,,,6.0,6.0,0.0,,,,,,,,,,,,,blau,blue,b,1.0,b,1.0,0.466137899988098,,,,,,,,,,0.0,6.0,6.0,5.0,205.05645830000867,,,,,,,,,,,,,,,,,205.0419804000121,205.1566316000244,205.9567733000149,205.9411432000052,,,,,,,,,,,,,,,,,,,,,,,,,,,,,,,,,,,205.94481480002287,205.9567733000149,205.9567733000149,206.4257137000095,b,1.0,0.466137899988098,,,,,,sub-041,1,stroop_test,59.94729434225683,
,,,,7.0,7.0,0.0,,,,,,,,,,,,,blau,red,r,0.0,r,1.0,0.6782916999945883,,,,,,,,,,0.0,7.0,7.0,4.0,206.4400622000103,,,,,,,,,,,,,,,,,206.4261911000067,207.2398654000135,208.0400160000136,208.02488470001845,,,,,,,,,,,,,,,,,,,,,,,,,,,,,,,,,,,208.02581540000392,208.0400160000136,208.0400160000136,208.7257060999982,r,1.0,0.6782916999945883,,,,,,sub-041,1,stroop_test,59.94729434225683,
,,,,8.0,8.0,0.0,,,,,,,,,,,,,rot,yellow,g,0.0,g,1.0,0.5861733999918215,,,,,,,,,,0.0,8.0,8.0,3.0,208.73983340000268,,,,,,,,,,,,,,,,,208.72620580001967,209.09064800001212,209.8900211,209.87408170002163,,,,,,,,,,,,,,,,,,,,,,,,,,,,,,,,,,,209.8781329000194,209.8900211,209.8900211,210.4919056000072,g,1.0,0.5861733999918215,,,,,,sub-041,1,stroop_test,59.94729434225683,
,,,,9.0,9.0,0.0,,,,,,,,,,,,,gelb,red,r,0.0,r,1.0,0.4702053999935742,,,,,,,,,,0.0,9.0,9.0,8.0,210.50690860001487,,,,,,,,,,,,,,,,,210.4924513000005,210.60656440001912,211.40669080000956,211.39131639999687,,,,,,,,,,,,,,,,,,,,,,,,,,,,,,,,,,,211.39510220001105,211.40669080000956,211.40669080000956,211.8916591000161,r,1.0,0.4702053999935742,,,,,,sub-041,1,stroop_test,59.94729434225683,
,,,,10.0,10.0,0.0,,,,,,,,,,,,,blau,yellow,g,0.0,g,1.0,0.6831915000220761,,,,,,,,,,0.0,10.0,10.0,7.0,211.90672340002493,,,,,,,,,,,,,,,,,211.8921277000045,213.10686190001437,213.90627289999972,213.89081219999932,,,,,,,,,,,,,,,,,,,,,,,,,,,,,,,,,,,213.89527730000555,213.90627289999972,213.90627289999972,214.59251480002425,g,1.0,0.6831915000220761,,,,,,sub-041,1,stroop_test,59.94729434225683,
,,,,11.0,11.0,0.0,,,,,,,,,,,,,rot,blue,b,0.0,b,1.0,0.4814853999996558,,,,,,,,,,0.0,11.0,11.0,2.0,214.606334400014,,,,,,,,,,,,,,,,,214.59315420000348,215.8065395000158,216.60682430001907,216.59106679999968,,,,,,,,,,,,,,,,,,,,,,,,,,,,,,,,,,,216.5962617000041,216.60682430001907,216.60682430001907,217.09184210002425,b,1.0,0.4814853999996558,,,,,,sub-041,1,stroop_test,59.94729434225683,
,,,,12.0,0.0,1.0,,,,,,,,,,,,,gelb,blue,b,0.0,b,1.0,0.5357858000206761,,,,,,,,,,1.0,0.0,12.0,9.0,217.10642960001127,,,,,,,,,,,,,,,,,217.0924685000209,217.9068205000076,218.706989600003,218.69088720000585,,,,,,,,,,,,,,,,,,,,,,,,,,,,,,,,,,,218.6946363000025,218.706989600003,218.706989600003,219.25834200001557,b,1.0,0.5357858000206761,,,,,,sub-041,1,stroop_test,59.94729434225683,
,,,,13.0,1.0,1.0,,,,,,,,,,,,,rot,red,r,1.0,r,1.0,0.4865199000050779,,,,,,,,,,1.0,1.0,13.0,1.0,219.27338930001133,,,,,,,,,,,,,,,,,219.25887499999956,219.37322300000235,220.1731384000159,220.1576144999999,,,,,,,,,,,,,,,,,,,,,,,,,,,,,,,,,,,220.16175990001648,220.1731384000159,220.1731384000159,220.67487100002472,r,1.0,0.4865199000050779,,,,,,sub-041,1,stroop_test,59.94729434225683,
,,,,14.0,2.0,1.0,,,,,,,,,,,,,rot,red,r,1.0,r,1.0,0.4154966000060085,,,,,,,,,,1.0,2.0,14.0,0.0,220.68983980000485,,,,,,,,,,,,,,,,,220.67540420001023,220.78989450001973,221.58990710001672,221.5744886000175,,,,,,,,,,,,,,,,,,,,,,,,,,,,,,,,,,,221.57511299999896,221.58990710001672,221.58990710001672,222.0100820000225,r,1.0,0.4154966000060085,,,,,,sub-041,1,stroop_test,59.94729434225683,
,,,,15.0,3.0,1.0,,,,,,,,,,,,,blau,yellow,g,0.0,g,1.0,0.526355899986811,,,,,,,,,,1.0,3.0,15.0,7.0,222.0230397999985,,,,,,,,,,,,,,,,,222.01063980002075,222.12348840001505,222.92323350001243,222.90762600000016,,,,,,,,,,,,,,,,,,,,,,,,,,,,,,,,,,,222.9114261000068,222.92323350001243,222.92323350001243,223.4581324000028,g,1.0,0.526355899986811,,,,,,sub-041,1,stroop_test,59.94729434225683,
,,,,16.0,4.0,1.0,,,,,,,,,,,,,rot,yellow,g,0.0,g,1.0,0.4544662999978754,,,,,,,,,,1.0,4.0,16.0,3.0,223.47308840000187,,,,,,,,,,,,,,,,,223.4588641000155,223.57351210000343,224.37313990000985,224.35777360000063,,,,,,,,,,,,,,,,,,,,,,,,,,,,,,,,,,,224.362352199998,224.37313990000985,224.37313990000985,224.8417938000057,g,1.0,0.4544662999978754,,,,,,sub-041,1,stroop_test,59.94729434225683,
,,,,17.0,5.0,1.0,,,,,,,,,,,,,gelb,red,r,0.0,r,1.0,0.4777807999926153,,,,,,,,,,1.0,5.0,17.0,8.0,224.8569340000104,,,,,,,,,,,,,,,,,224.8424075000221,225.6563638000225,226.45709120001996,226.4410576000228,,,,,,,,,,,,,,,,,,,,,,,,,,,,,,,,,,,226.44605769999907,226.45709120001996,226.45709120001996,226.94204930000703,r,1.0,0.4777807999926153,,,,,,sub-041,1,stroop_test,59.94729434225683,
,,,,18.0,6.0,1.0,,,,,,,,,,,,,gelb,yellow,g,1.0,g,1.0,0.4590355000109412,,,,,,,,,,1.0,6.0,18.0,10.0,226.95646760001543,,,,,,,,,,,,,,,,,226.94259880000027,227.0572860000248,227.85658730001887,227.84090440001452,,,,,,,,,,,,,,,,,,,,,,,,,,,,,,,,,,,227.8416181000066,227.85658730001887,227.85658730001887,228.3247337000212,g,1.0,0.4590355000109412,,,,,,sub-041,1,stroop_test,59.94729434225683,
,,,,19.0,7.0,1.0,,,,,,,,,,,,,gelb,yellow,g,1.0,g,1.0,0.4426450000028126,,,,,,,,,,1.0,7.0,19.0,11.0,228.33967899999695,,,,,,,,,,,,,,,,,228.32529050001176,229.1400682000094,229.9400421000028,229.9248729000101,,,,,,,,,,,,,,,,,,,,,,,,,,,,,,,,,,,229.92563260000315,229.9400421000028,229.9400421000028,230.39171690001967,g,1.0,0.4426450000028126,,,,,,sub-041,1,stroop_test,59.94729434225683,
,,,,20.0,8.0,1.0,,,,,,,,,,,,,rot,blue,b,0.0,b,1.0,0.5759645999933127,,,,,,,,,,1.0,8.0,20.0,2.0,230.40691980000705,,,,,,,,,,,,,,,,,230.39222229999723,230.75678960001096,231.55633760002087,231.5406515000213,,,,,,,,,,,,,,,,,,,,,,,,,,,,,,,,,,,231.5447454000241,231.55633760002087,231.55633760002087,232.1419043000205,b,1.0,0.5759645999933127,,,,,,sub-041,1,stroop_test,59.94729434225683,
,,,,21.0,9.0,1.0,,,,,,,,,,,,,blau,blue,b,1.0,b,1.0,0.3579486000235192,,,,,,,,,,1.0,9.0,21.0,6.0,232.1563618000073,,,,,,,,,,,,,,,,,232.1425217000069,233.3567661000125,234.15638820000456,234.14095729999823,,,,,,,,,,,,,,,,,,,,,,,,,,,,,,,,,,,234.14495330001228,234.15638820000456,234.15638820000456,234.52487020002445,b,1.0,0.3579486000235192,,,,,,sub-041,1,stroop_test,59.94729434225683,
,,,,22.0,10.0,1.0,,,,,,,,,,,,,blau,blue,b,1.0,b,1.0,0.3533557999762706,,,,,,,,,,1.0,10.0,22.0,5.0,234.5396340000152,,,,,,,,,,,,,,,,,234.52545370001465,234.88982949999627,235.69005289999768,235.67441220002365,,,,,,,,,,,,,,,,,,,,,,,,,,,,,,,,,,,235.6750297000108,235.69005289999768,235.69005289999768,236.0582300000242,b,1.0,0.3533557999762706,,,,,,sub-041,1,stroop_test,59.94729434225683,
,,,,23.0,11.0,1.0,,,,,,,,,,,,,blau,red,r,0.0,r,1.0,0.4854774000123143,,,,,,,,,,1.0,11.0,23.0,4.0,236.0739872000122,,,,,,,,,,,,,,,,,236.0588271000015,236.1730064000003,236.9737115000025,236.95743470001617,,,,,,,,,,,,,,,,,,,,,,,,,,,,,,,,,,,236.9581264000153,236.9737115000025,236.9737115000025,237.47488770002383,r,1.0,0.4854774000123143,,,,,,sub-041,1,stroop_test,59.94729434225683,
,,,,24.0,0.0,2.0,,,,,,,,,,,,,gelb,blue,b,0.0,b,1.0,0.5309630999981891,,,,,,,,,,2.0,0.0,24.0,9.0,237.49156409999705,,,,,,,,,,,,,,,,,237.4753880000208,237.58978420001225,238.3908571000211,238.37430890000545,,,,,,,,,,,,,,,,,,,,,,,,,,,,,,,,,,,238.3791629000043,238.3908571000211,238.3908571000211,238.92518040002324,b,1.0,0.5309630999981891,,,,,,sub-041,1,stroop_test,59.94729434225683,
,,,,25.0,1.0,2.0,,,,,,,,,,,,,rot,red,r,1.0,r,1.0,0.3910095999890473,,,,,,,,,,2.0,1.0,25.0,0.0,238.93989000000877,,,,,,,,,,,,,,,,,238.92567710002183,239.28990760000303,240.0897714000021,240.07485590002037,,,,,,,,,,,,,,,,,,,,,,,,,,,,,,,,,,,240.079149600002,240.0897714000021,240.0897714000021,240.491554600012,r,1.0,0.3910095999890473,,,,,,sub-041,1,stroop_test,59.94729434225683,
,,,,26.0,2.0,2.0,,,,,,,,,,,,,blau,yellow,g,0.0,g,1.0,0.3319945000112057,,,,,,,,,,2.0,2.0,26.0,7.0,240.506383800006,,,,,,,,,,,,,,,,,240.4921074000013,241.7064217000152,242.50671710001188,242.4909893000149,,,,,,,,,,,,,,,,,,,,,,,,,,,,,,,,,,,242.49551580002296,242.50671710001188,242.50671710001188,242.841983899998,g,1.0,0.3319945000112057,,,,,,sub-041,1,stroop_test,59.94729434225683,
,,,,27.0,3.0,2.0,,,,,,,,,,,,,rot,red,r,1.0,r,1.0,0.4238635000074282,,,,,,,,,,2.0,3.0,27.0,1.0,242.85622159999912,,,,,,,,,,,,,,,,,242.84246400001572,244.05768840000383,244.85676180000883,244.8412220000173,,,,,,,,,,,,,,,,,,,,,,,,,,,,,,,,,,,244.8463870999985,244.85676180000883,244.85676180000883,245.29168580000987,r,1.0,0.4238635000074282,,,,,,sub-041,1,stroop_test,59.94729434225683,
,,,,28.0,4.0,2.0,,,,,,,,,,,,,blau,blue,b,1.0,b,1.0,0.471807699999772,,,,,,,,,,2.0,4.0,28.0,5.0,245.3061633000034,,,,,,,,,,,,,,,,,245.2921558000089,245.40672620001715,246.2070217000146,246.19100089999847,,,,,,,,,,,,,,,,,,,,,,,,,,,,,,,,,,,246.1948350000021,246.2070217000146,246.2070217000146,246.6921348000178,b,1.0,0.471807699999772,,,,,,sub-041,1,stroop_test,59.94729434225683,
,,,,29.0,5.0,2.0,,,,,,,,,,,,,rot,yellow,g,0.0,g,1.0,0.4103962999943178,,,,,,,,,,2.0,5.0,29.0,3.0,246.70684670002083,,,,,,,,,,,,,,,,,246.69260090001623,247.0565475000185,247.85631950001695,247.84078430000227,,,,,,,,,,,,,,,,,,,,,,,,,,,,,,,,,,,247.8449307999981,247.85631950001695,247.85631950001695,248.2747663000191,g,1.0,0.4103962999943178,,,,,,sub-041,1,stroop_test,59.94729434225683,
,,,,30.0,6.0,2.0,,,,,,,,,,,,,gelb,yellow,g,1.0,g,1.0,0.4645590999862179,,,,,,,,,,2.0,6.0,30.0,10.0,248.28963210000077,,,,,,,,,,,,,,,,,248.27536280002096,248.3899700000184,249.189752300008,249.1742947000021,,,,,,,,,,,,,,,,,,,,,,,,,,,,,,,,,,,249.17836170000373,249.189752300008,249.189752300008,249.65824420002173,g,1.0,0.4645590999862179,,,,,,sub-041,1,stroop_test,59.94729434225683,
,,,,31.0,7.0,2.0,,,,,,,,,,,,,blau,blue,b,1.0,b,1.0,0.4910763000079896,,,,,,,,,,2.0,7.0,31.0,6.0,249.67356570000996,,,,,,,,,,,,,,,,,249.65871970000444,249.7727679000236,250.5732530000096,250.5573856999981,,,,,,,,,,,,,,,,,,,,,,,,,,,,,,,,,,,250.56170370001928,250.5732530000096,250.5732530000096,251.07470140000805,b,1.0,0.4910763000079896,,,,,,sub-041,1,stroop_test,59.94729434225683,
,,,,32.0,8.0,2.0,,,,,,,,,,,,,blau,red,r,0.0,r,1.0,0.4370093000179622,,,,,,,,,,2.0,8.0,32.0,4.0,251.0894184000208,,,,,,,,,,,,,,,,,251.0752278,252.28990480001085,253.0899846000248,253.07430200002275,,,,,,,,,,,,,,,,,,,,,,,,,,,,,,,,,,,253.07493380000236,253.0899846000248,253.0899846000248,253.5415489000152,r,1.0,0.4370093000179622,,,,,,sub-041,1,stroop_test,59.94729434225683,
,,,,33.0,9.0,2.0,,,,,,,,,,,,,gelb,red,r,0.0,r,1.0,0.3536458000016864,,,,,,,,,,2.0,9.0,33.0,8.0,253.5568874000164,,,,,,,,,,,,,,,,,253.54215290001596,254.7566601000144,255.55650930001863,255.54101929999888,,,,,,,,,,,,,,,,,,,,,,,,,,,,,,,,,,,255.5447982000187,255.55650930001863,255.55650930001863,255.9245436000056,r,1.0,0.3536458000016864,,,,,,sub-041,1,stroop_test,59.94729434225683,
,,,,34.0,10.0,2.0,,,,,,,,,,,,,gelb,yellow,g,1.0,g,1.0,0.4982928999816067,,,,,,,,,,2.0,10.0,34.0,11.0,255.93946620001225,,,,,,,,,,,,,,,,,255.92503260000376,256.0397731999983,256.8397295000032,256.82411050001974,,,,,,,,,,,,,,,,,,,,,,,,,,,,,,,,,,,256.82472940001753,256.8397295000032,256.8397295000032,257.3422147000092,g,1.0,0.4982928999816067,,,,,,sub-041,1,stroop_test,59.94729434225683,
,,,,35.0,11.0,2.0,,,,,,,,,,,,,rot,blue,b,0.0,b,1.0,0.409242699999595,,,,,,,,,,2.0,11.0,35.0,2.0,257.35625880002044,,,,,,,,,,,,,,,,,257.3426784000185,258.5564365000173,259.35648149999906,259.3404869000078,,,,,,,,,,,,,,,,,,,,,,,,,,,,,,,,,,,259.34479410000495,259.35648149999906,259.35648149999906,259.7747239000164,b,1.0,0.409242699999595,,,,,,sub-041,1,stroop_test,59.94729434225683,
,,,,36.0,0.0,3.0,,,,,,,,,,,,,gelb,yellow,g,1.0,g,1.0,0.4825052999949548,,,,,,,,,,3.0,0.0,36.0,11.0,259.78938030000427,,,,,,,,,,,,,,,,,259.7752354000113,260.9895285000093,261.79001890000654,261.7743172000046,,,,,,,,,,,,,,,,,,,,,,,,,,,,,,,,,,,261.7781781000085,261.79001890000654,261.79001890000654,262.2752307000046,g,1.0,0.4825052999949548,,,,,,sub-041,1,stroop_test,59.94729434225683,
,,,,37.0,1.0,3.0,,,,,,,,,,,,,gelb,blue,b,0.0,b,1.0,0.6179409000033047,,,,,,,,,,3.0,1.0,37.0,9.0,262.28934960000333,,,,,,,,,,,,,,,,,262.27607590000844,262.3898603999987,263.18974590001744,263.1738469999982,,,,,,,,,,,,,,,,,,,,,,,,,,,,,,,,,,,263.1745768999972,263.18974590001744,263.18974590001744,263.809811300016,b,1.0,0.6179409000033047,,,,,,sub-041,1,stroop_test,59.94729434225683,
,,,,38.0,2.0,3.0,,,,,,,,,,,,,blau,blue,b,1.0,b,1.0,0.429020399984438,,,,,,,,,,3.0,2.0,38.0,6.0,263.82287970001926,,,,,,,,,,,,,,,,,263.81042620001244,265.02301640002406,265.8231021999964,265.80766330001643,,,,,,,,,,,,,,,,,,,,,,,,,,,,,,,,,,,265.81211769999936,265.8231021999964,265.8231021999964,266.2581768000091,b,1.0,0.429020399984438,,,,,,sub-041,1,stroop_test,59.94729434225683,
,,,,39.0,3.0,3.0,,,,,,,,,,,,,blau,blue,b,1.0,b,1.0,0.3837534000049345,,,,,,,,,,3.0,3.0,39.0,5.0,266.27287310000975,,,,,,,,,,,,,,,,,266.25869539999985,266.3731325000117,267.1730333000014,267.1573027000122,,,,,,,,,,,,,,,,,,,,,,,,,,,,,,,,,,,267.1578846000193,267.1730333000014,267.1730333000014,267.5593801000214,b,1.0,0.3837534000049345,,,,,,sub-041,1,stroop_test,59.94729434225683,
,,,,40.0,4.0,3.0,,,,,,,,,,,,,rot,blue,b,0.0,r,0.0,0.4596815999830141,,,,,,,,,,3.0,4.0,40.0,2.0,267.57302720000735,,,,,,,,,,,,,,,,,267.5598702999996,267.9227816000057,268.7231906000234,268.7074214000022,,,,,,,,,,,,,,,,,,,,,,,,,,,,,,,,,,,268.7123418000119,268.7231906000234,268.7231906000234,269.1913100000238,r,0.0,0.4596815999830141,,,,,,sub-041,1,stroop_test,59.94729434225683,
,,,,41.0,5.0,3.0,,,,,,,,,,,,,blau,yellow,g,0.0,g,1.0,0.6587780999834649,,,,,,,,,,3.0,5.0,41.0,7.0,269.20648059999803,,,,,,,,,,,,,,,,,269.19186120000086,269.55632020000485,270.3564920000208,270.34095800001523,,,,,,,,,,,,,,,,,,,,,,,,,,,,,,,,,,,270.3451907999988,270.3564920000208,270.3564920000208,271.0247715000005,g,1.0,0.6587780999834649,,,,,,sub-041,1,stroop_test,59.94729434225683,
,,,,42.0,6.0,3.0,,,,,,,,,,,,,rot,red,r,1.0,r,1.0,0.4195043999934569,,,,,,,,,,3.0,6.0,42.0,1.0,271.0394555000239,,,,,,,,,,,,,,,,,271.0252820000169,272.239467300009,273.03954019999946,273.023845800024,,,,,,,,,,,,,,,,,,,,,,,,,,,,,,,,,,,273.0277722000028,273.03954019999946,273.03954019999946,273.47475029999623,r,1.0,0.4195043999934569,,,,,,sub-041,1,stroop_test,59.94729434225683,
,,,,43.0,7.0,3.0,,,,,,,,,,,,,rot,red,r,1.0,r,1.0,0.4296717999968678,,,,,,,,,,3.0,7.0,43.0,0.0,273.48994710002444,,,,,,,,,,,,,,,,,273.47524620001786,274.2895685000112,275.08974970001145,275.07392260001507,,,,,,,,,,,,,,,,,,,,,,,,,,,,,,,,,,,275.0745466000226,275.08974970001145,275.08974970001145,275.5243888999976,r,1.0,0.4296717999968678,,,,,,sub-041,1,stroop_test,59.94729434225683,
,,,,44.0,8.0,3.0,,,,,,,,,,,,,gelb,yellow,g,1.0,g,1.0,0.4523166000144556,,,,,,,,,,3.0,8.0,44.0,10.0,275.5395111000107,,,,,,,,,,,,,,,,,275.52485750001506,276.73949140001787,277.5396914000157,277.5238812000025,,,,,,,,,,,,,,,,,,,,,,,,,,,,,,,,,,,277.5282400000142,277.5396914000157,277.5396914000157,278.0081571000046,g,1.0,0.4523166000144556,,,,,,sub-041,1,stroop_test,59.94729434225683,
,,,,45.0,9.0,3.0,,,,,,,,,,,,,blau,red,r,0.0,b,0.0,0.4869627000007313,,,,,,,,,,3.0,9.0,45.0,4.0,278.0227226999996,,,,,,,,,,,,,,,,,278.00875570002245,278.8232165000227,279.62279809999745,279.6069986000075,,,,,,,,,,,,,,,,,,,,,,,,,,,,,,,,,,,279.6109286000137,279.62279809999745,279.62279809999745,280.12468400000944,b,0.0,0.4869627000007313,,,,,,sub-041,1,stroop_test,59.94729434225683,
,,,,46.0,10.0,3.0,,,,,,,,,,,,,rot,yellow,g,0.0,g,1.0,0.7699162999924738,,,,,,,,,,3.0,10.0,46.0,3.0,280.1396771,,,,,,,,,,,,,,,,,280.12525830001687,280.94021800000337,281.73997470000177,281.72381730002235,,,,,,,,,,,,,,,,,,,,,,,,,,,,,,,,,,,281.728648600023,281.73997470000177,281.73997470000177,282.5248169999977,g,1.0,0.7699162999924738,,,,,,sub-041,1,stroop_test,59.94729434225683,
,,,,47.0,11.0,3.0,,,,,,,,,,,,,gelb,red,r,0.0,r,1.0,0.7459345000097528,,,,,,,,,,3.0,11.0,47.0,8.0,282.53943240002263,,,,,,,,,,,,,,,,,282.5252940000209,282.88946240002406,283.6897915000154,283.6738615000213,,,,,,,,,,,,,,,,,,,,,,,,,,,,,,,,,,,283.67804369999794,283.6897915000154,283.6897915000154,284.4415435999981,r,1.0,0.7459345000097528,,,,,,sub-041,1,stroop_test,59.94729434225683,
,,,,48.0,0.0,4.0,,,,,,,,,,,,,gelb,red,r,0.0,r,1.0,0.7124942999798805,,,,,,,,,,4.0,0.0,48.0,8.0,284.4561633999984,,,,,,,,,,,,,,,,,284.442191500013,284.5561387000198,285.35651000001235,285.3408944999974,,,,,,,,,,,,,,,,,,,,,,,,,,,,,,,,,,,285.3416319000244,285.35651000001235,285.35651000001235,286.0747409000178,r,1.0,0.7124942999798805,,,,,,sub-041,1,stroop_test,59.94729434225683,
,,,,49.0,1.0,4.0,,,,,,,,,,,,,rot,blue,b,0.0,b,1.0,0.4170798000122886,,,,,,,,,,4.0,1.0,49.0,2.0,286.08941800001776,,,,,,,,,,,,,,,,,286.07524190002005,286.43942840001546,287.2398114000098,287.22389260001364,,,,,,,,,,,,,,,,,,,,,,,,,,,,,,,,,,,287.22805830001016,287.2398114000098,287.2398114000098,287.65919880001456,b,1.0,0.4170798000122886,,,,,,sub-041,1,stroop_test,59.94729434225683,
,,,,50.0,2.0,4.0,,,,,,,,,,,,,gelb,yellow,g,1.0,g,1.0,0.559694399998989,,,,,,,,,,4.0,2.0,50.0,10.0,287.6726367000083,,,,,,,,,,,,,,,,,287.6596659000206,288.47304680000525,289.27311710000504,289.2573192999989,,,,,,,,,,,,,,,,,,,,,,,,,,,,,,,,,,,289.2612888000149,289.27311710000504,289.27311710000504,289.8415532000072,g,1.0,0.559694399998989,,,,,,sub-041,1,stroop_test,59.94729434225683,
,,,,51.0,3.0,4.0,,,,,,,,,,,,,blau,blue,b,1.0,b,1.0,0.5363225999753922,,,,,,,,,,4.0,3.0,51.0,6.0,289.85602330000256,,,,,,,,,,,,,,,,,289.84208680002484,289.95653700002003,290.75658600000315,290.7407619000005,,,,,,,,,,,,,,,,,,,,,,,,,,,,,,,,,,,290.7453474000213,290.75658600000315,290.75658600000315,291.3080860000045,b,1.0,0.5363225999753922,,,,,,sub-041,1,stroop_test,59.94729434225683,
,,,,52.0,4.0,4.0,,,,,,,,,,,,,blau,red,r,0.0,r,1.0,0.400358499988215,,,,,,,,,,4.0,4.0,52.0,4.0,291.3228586000041,,,,,,,,,,,,,,,,,291.3087003999972,292.12277040001936,292.92276260000654,292.90760430000955,,,,,,,,,,,,,,,,,,,,,,,,,,,,,,,,,,,292.9083058000251,292.92276260000654,292.92276260000654,293.325436300016,r,1.0,0.400358499988215,,,,,,sub-041,1,stroop_test,59.94729434225683,
,,,,53.0,5.0,4.0,,,,,,,,,,,,,blau,blue,b,1.0,b,1.0,0.5262558000104036,,,,,,,,,,4.0,5.0,53.0,5.0,293.33934659999795,,,,,,,,,,,,,,,,,293.32591100002173,293.68992210002034,294.4894681000151,294.4743897000153,,,,,,,,,,,,,,,,,,,,,,,,,,,,,,,,,,,294.47498080000514,294.4894681000151,294.4894681000151,295.02442290002364,b,1.0,0.5262558000104036,,,,,,sub-041,1,stroop_test,59.94729434225683,
,,,,54.0,6.0,4.0,,,,,,,,,,,,,rot,yellow,g,0.0,g,1.0,0.5628813999937847,,,,,,,,,,4.0,6.0,54.0,3.0,295.0391582000011,,,,,,,,,,,,,,,,,295.0250132000074,296.2396056000144,297.0393673000217,297.02433080002083,,,,,,,,,,,,,,,,,,,,,,,,,,,,,,,,,,,297.0297013000236,297.0393673000217,297.0393673000217,297.608246400021,g,1.0,0.5628813999937847,,,,,,sub-041,1,stroop_test,59.94729434225683,
,,,,55.0,7.0,4.0,,,,,,,,,,,,,gelb,yellow,g,1.0,g,1.0,0.5426444000040647,,,,,,,,,,4.0,7.0,55.0,11.0,297.6227015000186,,,,,,,,,,,,,,,,,297.60883850001846,298.42315870002494,299.22295550000854,299.2072287000192,,,,,,,,,,,,,,,,,,,,,,,,,,,,,,,,,,,299.2110267000098,299.22295550000854,299.22295550000854,299.77500290001626,g,1.0,0.5426444000040647,,,,,,sub-041,1,stroop_test,59.94729434225683,
,,,,56.0,8.0,4.0,,,,,,,,,,,,,gelb,blue,b,0.0,b,1.0,0.4413783999916632,,,,,,,,,,4.0,8.0,56.0,9.0,299.7892330000177,,,,,,,,,,,,,,,,,299.77563940000255,300.9893252000038,301.78940780000994,301.7738284000079,,,,,,,,,,,,,,,,,,,,,,,,,,,,,,,,,,,301.7744686000224,301.78940780000994,301.78940780000994,302.2411064000044,b,1.0,0.4413783999916632,,,,,,sub-041,1,stroop_test,59.94729434225683,
,,,,57.0,9.0,4.0,,,,,,,,,,,,,rot,red,r,1.0,r,1.0,0.4353895999956876,,,,,,,,,,4.0,9.0,57.0,1.0,302.2560999999987,,,,,,,,,,,,,,,,,302.24159750001854,302.6065443000116,303.4061369000119,303.3910997000057,,,,,,,,,,,,,,,,,,,,,,,,,,,,,,,,,,,303.3951162000012,303.4061369000119,303.4061369000119,303.8578798000235,r,1.0,0.4353895999956876,,,,,,sub-041,1,stroop_test,59.94729434225683,
,,,,58.0,10.0,4.0,,,,,,,,,,,,,blau,yellow,g,0.0,g,1.0,0.7258985000080429,,,,,,,,,,4.0,10.0,58.0,7.0,303.8728709999996,,,,,,,,,,,,,,,,,303.8583996000234,304.22269680001773,305.022910700005,305.00706360000186,,,,,,,,,,,,,,,,,,,,,,,,,,,,,,,,,,,305.0109519000107,305.022910700005,305.022910700005,305.7577418000146,g,1.0,0.7258985000080429,,,,,,sub-041,1,stroop_test,59.94729434225683,
,,,,59.0,11.0,4.0,,,,,,,,,,,,,rot,red,r,1.0,r,1.0,0.5398136000148952,,,,,,,,,,4.0,11.0,59.0,0.0,305.77260330002173,,,,,,,,,,,,,,,,,305.75825870002154,306.57285690002027,307.3729336000106,307.35734650000813,,,,,,,,,,,,,,,,,,,,,,,,,,,,,,,,,,,307.3618781999976,307.3729336000106,307.3729336000106,307.92481430000043,r,1.0,0.5398136000148952,,,,,,sub-041,1,stroop_test,59.94729434225683,
,,,,60.0,0.0,5.0,,,,,,,,,,,,,gelb,blue,b,0.0,b,1.0,0.7101839000242762,,,,,,,,,,5.0,0.0,60.0,9.0,307.93903830001364,,,,,,,,,,,,,,,,,307.9253546000109,309.1393591000233,309.9393812000053,309.9240398000111,,,,,,,,,,,,,,,,,,,,,,,,,,,,,,,,,,,309.92941569999675,309.9393812000053,309.9393812000053,310.6580957999977,b,1.0,0.7101839000242762,,,,,,sub-041,1,stroop_test,59.94729434225683,
,,,,61.0,1.0,5.0,,,,,,,,,,,,,blau,red,r,0.0,r,1.0,0.962780500005465,,,,,,,,,,5.0,1.0,61.0,4.0,310.6730117000116,,,,,,,,,,,,,,,,,310.6588481000217,311.4727525000053,312.2726647000236,312.2570148000086,,,,,,,,,,,,,,,,,,,,,,,,,,,,,,,,,,,312.2608808000223,312.2726647000236,312.2726647000236,313.2412113000173,r,1.0,0.962780500005465,,,,,,sub-041,1,stroop_test,59.94729434225683,
,,,,62.0,2.0,5.0,,,,,,,,,,,,,gelb,yellow,g,1.0,g,1.0,0.5695018999977037,,,,,,,,,,5.0,2.0,62.0,11.0,313.255876500014,,,,,,,,,,,,,,,,,313.2416915000067,313.35637490000227,314.15611510002054,314.14042900002096,,,,,,,,,,,,,,,,,,,,,,,,,,,,,,,,,,,314.1443091999972,314.15611510002054,314.15611510002054,314.7410037000081,g,1.0,0.5695018999977037,,,,,,sub-041,1,stroop_test,59.94729434225683,
,,,,63.0,3.0,5.0,,,,,,,,,,,,,blau,blue,b,1.0,b,1.0,0.4892440999974496,,,,,,,,,,5.0,3.0,63.0,6.0,314.75601660000393,,,,,,,,,,,,,,,,,314.74148620001506,314.8559026000148,315.65632910002023,315.64044380001724,,,,,,,,,,,,,,,,,,,,,,,,,,,,,,,,,,,315.6447221999988,315.65632910002023,315.65632910002023,316.1578298000095,b,1.0,0.4892440999974496,,,,,,sub-041,1,stroop_test,59.94729434225683,
,,,,64.0,4.0,5.0,,,,,,,,,,,,,gelb,yellow,g,1.0,g,1.0,0.6534748000267427,,,,,,,,,,5.0,4.0,64.0,10.0,316.1724418000085,,,,,,,,,,,,,,,,,316.1584331000049,316.5227813000092,317.3254281000118,317.3073508000234,,,,,,,,,,,,,,,,,,,,,,,,,,,,,,,,,,,317.31136980000883,317.3254281000118,317.3254281000118,317.99102050001966,g,1.0,0.6534748000267427,,,,,,sub-041,1,stroop_test,59.94729434225683,
,,,,65.0,5.0,5.0,,,,,,,,,,,,,blau,blue,b,1.0,b,1.0,0.5249633000057656,,,,,,,,,,5.0,5.0,65.0,5.0,318.0060537000245,,,,,,,,,,,,,,,,,317.99156390002463,318.8061998000194,319.6059507000027,319.59039810000104,,,,,,,,,,,,,,,,,,,,,,,,,,,,,,,,,,,319.59454650001135,319.6059507000027,319.6059507000027,320.14119540000684,b,1.0,0.5249633000057656,,,,,,sub-041,1,stroop_test,59.94729434225683,
,,,,66.0,6.0,5.0,,,,,,,,,,,,,rot,red,r,1.0,r,1.0,0.3799897000135388,,,,,,,,,,5.0,6.0,66.0,0.0,320.1559830000042,,,,,,,,,,,,,,,,,320.14174800002365,321.3560429000063,322.15588690000004,322.14145560000907,,,,,,,,,,,,,,,,,,,,,,,,,,,,,,,,,,,322.1461098,322.15588690000004,322.15588690000004,322.5411307000031,r,1.0,0.3799897000135388,,,,,,sub-041,1,stroop_test,59.94729434225683,
,,,,67.0,7.0,5.0,,,,,,,,,,,,,blau,yellow,g,0.0,g,1.0,0.3958300999947823,,,,,,,,,,5.0,7.0,67.0,7.0,322.55642600002466,,,,,,,,,,,,,,,,,322.5417222999968,323.7558635000023,324.5560553999967,324.54046519999974,,,,,,,,,,,,,,,,,,,,,,,,,,,,,,,,,,,324.54429640001035,324.5560553999967,324.5560553999967,324.9575430999976,g,1.0,0.3958300999947823,,,,,,sub-041,1,stroop_test,59.94729434225683,
,,,,68.0,8.0,5.0,,,,,,,,,,,,,rot,red,r,1.0,r,1.0,0.585702999989735,,,,,,,,,,5.0,8.0,68.0,1.0,324.97412620001705,,,,,,,,,,,,,,,,,324.9580436999968,325.0723801999993,325.8729582000233,325.85727090001456,,,,,,,,,,,,,,,,,,,,,,,,,,,,,,,,,,,325.86210420000134,325.8729582000233,325.8729582000233,326.47429080001893,r,1.0,0.585702999989735,,,,,,sub-041,1,stroop_test,59.94729434225683,
,,,,69.0,9.0,5.0,,,,,,,,,,,,,rot,blue,b,0.0,b,1.0,0.5079100000148173,,,,,,,,,,5.0,9.0,69.0,2.0,326.48949760000687,,,,,,,,,,,,,,,,,326.4748764000251,327.2896526000113,328.08933630000683,328.07363260001875,,,,,,,,,,,,,,,,,,,,,,,,,,,,,,,,,,,328.0743339000037,328.08933630000683,328.08933630000683,328.6081481000001,b,1.0,0.5079100000148173,,,,,,sub-041,1,stroop_test,59.94729434225683,
,,,,70.0,10.0,5.0,,,,,,,,,,,,,rot,yellow,g,0.0,g,1.0,0.494066399987787,,,,,,,,,,5.0,10.0,70.0,3.0,328.62241490001907,,,,,,,,,,,,,,,,,328.6086364000221,329.82255989999976,330.62260200001765,330.607398000022,,,,,,,,,,,,,,,,,,,,,,,,,,,,,,,,,,,330.6080141999992,330.62260200001765,330.62260200001765,331.1250078000012,g,1.0,0.494066399987787,,,,,,sub-041,1,stroop_test,59.94729434225683,
,,,,71.0,11.0,5.0,,,,,,,,,,,,,gelb,red,r,0.0,r,1.0,0.3716207999968901,,,,,,,,,,5.0,11.0,71.0,8.0,331.13926140000694,,,,,,,,,,,,,,,,,331.12547389999963,331.4897788000235,332.2892578000028,332.27403760000016,,,,,,,,,,,,,,,,,,,,,,,,,,,,,,,,,,,332.2783347000077,332.2892578000028,332.2892578000028,332.67487200000323,r,1.0,0.3716207999968901,,,,,,sub-041,1,stroop_test,59.94729434225683,
,,,,72.0,0.0,6.0,,,,,,,,,,,,,gelb,yellow,g,1.0,g,1.0,0.4777406000066548,,,,,,,,,,6.0,0.0,72.0,10.0,332.68946360002155,,,,,,,,,,,,,,,,,332.6754224000033,333.48953650001204,334.2890991000168,334.2737958000216,,,,,,,,,,,,,,,,,,,,,,,,,,,,,,,,,,,334.2745663000096,334.2890991000168,334.2890991000168,334.77484280001954,g,1.0,0.4777406000066548,,,,,,sub-041,1,stroop_test,59.94729434225683,
,,,,73.0,1.0,6.0,,,,,,,,,,,,,gelb,yellow,g,1.0,g,1.0,0.3841583000030368,,,,,,,,,,6.0,1.0,73.0,11.0,334.7893585000129,,,,,,,,,,,,,,,,,334.775335000013,335.9890510000114,336.7895843000151,336.7737540000235,,,,,,,,,,,,,,,,,,,,,,,,,,,,,,,,,,,336.77442830000655,336.7895843000151,336.7895843000151,337.19050450000213,g,1.0,0.3841583000030368,,,,,,sub-041,1,stroop_test,59.94729434225683,
,,,,74.0,2.0,6.0,,,,,,,,,,,,,gelb,red,r,0.0,r,1.0,0.5733382999897003,,,,,,,,,,6.0,2.0,74.0,8.0,337.20574060000945,,,,,,,,,,,,,,,,,337.1911017000093,338.405780400004,339.20643890000065,339.1904639000131,,,,,,,,,,,,,,,,,,,,,,,,,,,,,,,,,,,339.1912126000097,339.20643890000065,339.20643890000065,339.79071250002016,r,1.0,0.5733382999897003,,,,,,sub-041,1,stroop_test,59.94729434225683,
,,,,75.0,3.0,6.0,,,,,,,,,,,,,rot,red,r,1.0,r,1.0,0.4501441000029444,,,,,,,,,,6.0,3.0,75.0,1.0,339.80610539999907,,,,,,,,,,,,,,,,,339.79131410000264,339.9062540000013,340.70560580000165,340.69040950000635,,,,,,,,,,,,,,,,,,,,,,,,,,,,,,,,,,,340.6966382000246,340.70560580000165,340.70560580000165,341.1584755000076,r,1.0,0.4501441000029444,,,,,,sub-041,1,stroop_test,59.94729434225683,
,,,,76.0,4.0,6.0,,,,,,,,,,,,,gelb,blue,b,0.0,b,1.0,0.5096936999761965,,,,,,,,,,6.0,4.0,76.0,9.0,341.1723790000251,,,,,,,,,,,,,,,,,341.1590512999974,342.3726373000245,343.17289810001967,343.1574034000223,,,,,,,,,,,,,,,,,,,,,,,,,,,,,,,,,,,343.16128080000635,343.17289810001967,343.17289810001967,343.6912101000198,b,1.0,0.5096936999761965,,,,,,sub-041,1,stroop_test,59.94729434225683,
,,,,77.0,5.0,6.0,,,,,,,,,,,,,rot,red,r,1.0,r,1.0,0.4813873000093736,,,,,,,,,,6.0,5.0,77.0,0.0,343.70577890001005,,,,,,,,,,,,,,,,,343.69180090000737,344.506091200019,345.3056329000101,345.29059070002404,,,,,,,,,,,,,,,,,,,,,,,,,,,,,,,,,,,345.2956430000195,345.3056329000101,345.3056329000101,345.7910032000218,r,1.0,0.4813873000093736,,,,,,sub-041,1,stroop_test,59.94729434225683,
,,,,78.0,6.0,6.0,,,,,,,,,,,,,blau,blue,b,1.0,b,1.0,0.6679604999953881,,,,,,,,,,6.0,6.0,78.0,6.0,345.80562030000146,,,,,,,,,,,,,,,,,345.7916134000116,345.9057815000124,346.70572970001376,346.6903985000099,,,,,,,,,,,,,,,,,,,,,,,,,,,,,,,,,,,346.6942787000153,346.70572970001376,346.70572970001376,347.3907704000012,b,1.0,0.6679604999953881,,,,,,sub-041,1,stroop_test,59.94729434225683,
,,,,79.0,7.0,6.0,,,,,,,,,,,,,blau,yellow,g,0.0,g,1.0,0.7791164999944158,,,,,,,,,,6.0,7.0,79.0,7.0,347.4058932000189,,,,,,,,,,,,,,,,,347.3913963000232,347.75570780001,348.5558350000065,348.54063309999765,,,,,,,,,,,,,,,,,,,,,,,,,,,,,,,,,,,348.5412570000044,348.5558350000065,348.5558350000065,349.3409733000153,g,1.0,0.7791164999944158,,,,,,sub-041,1,stroop_test,59.94729434225683,
,,,,80.0,8.0,6.0,,,,,,,,,,,,,blau,red,r,0.0,r,1.0,0.3813503000128548,,,,,,,,,,6.0,8.0,80.0,4.0,349.35572839999804,,,,,,,,,,,,,,,,,349.34147149999626,350.15594220001367,350.9558680000191,350.94019320001826,,,,,,,,,,,,,,,,,,,,,,,,,,,,,,,,,,,350.9409421000164,350.9558680000191,350.9558680000191,351.34126090002246,r,1.0,0.3813503000128548,,,,,,sub-041,1,stroop_test,59.94729434225683,
,,,,81.0,9.0,6.0,,,,,,,,,,,,,blau,blue,b,1.0,b,1.0,0.4082189000037033,,,,,,,,,,6.0,9.0,81.0,5.0,351.3555661000137,,,,,,,,,,,,,,,,,351.3417975000048,352.55651890000445,353.3559645000205,353.3402627000178,,,,,,,,,,,,,,,,,,,,,,,,,,,,,,,,,,,353.34095900002285,353.3559645000205,353.3559645000205,353.7740280000144,b,1.0,0.4082189000037033,,,,,,sub-041,1,stroop_test,59.94729434225683,
,,,,82.0,10.0,6.0,,,,,,,,,,,,,rot,yellow,g,0.0,g,1.0,0.5750183000054676,,,,,,,,,,6.0,10.0,82.0,3.0,353.78935970002203,,,,,,,,,,,,,,,,,353.7746245000162,354.58932930001174,355.38912530001835,355.374085700023,,,,,,,,,,,,,,,,,,,,,,,,,,,,,,,,,,,355.3790494000132,355.38912530001835,355.38912530001835,355.974117100006,g,1.0,0.5750183000054676,,,,,,sub-041,1,stroop_test,59.94729434225683,
,,,,83.0,11.0,6.0,,,,,,,,,,,,,rot,blue,b,0.0,b,1.0,0.4579760000051465,,,,,,,,,,6.0,11.0,83.0,2.0,355.9890035999997,,,,,,,,,,,,,,,,,355.9747018000053,356.78922850001254,357.5896515000204,357.5737175999966,,,,,,,,,,,,,,,,,,,,,,,,,,,,,,,,,,,357.5744589000242,357.5896515000204,357.5896515000204,358.0572999000142,b,1.0,0.4579760000051465,,,,,,sub-041,1,stroop_test,59.94729434225683,
,,,,84.0,0.0,7.0,,,,,,,,,,,,,rot,red,r,1.0,g,0.0,0.4686377000180073,,,,,,,,,,7.0,0.0,84.0,0.0,358.0723058000149,,,,,,,,,,,,,,,,,358.057948200003,358.87237510000705,359.6727231999976,359.6571632999985,,,,,,,,,,,,,,,,,,,,,,,,,,,,,,,,,,,359.65798080002423,359.6727231999976,359.6727231999976,360.1576946999994,g,0.0,0.4686377000180073,,,,,,sub-041,1,stroop_test,59.94729434225683,
,,,,85.0,1.0,7.0,,,,,,,,,,,,,blau,yellow,g,0.0,g,1.0,0.4888174000079743,,,,,,,,,,7.0,1.0,85.0,7.0,360.1728713000193,,,,,,,,,,,,,,,,,360.1581609999994,360.5226930000063,361.3225388000137,361.30706819999614,,,,,,,,,,,,,,,,,,,,,,,,,,,,,,,,,,,361.31139670000994,361.3225388000137,361.3225388000137,361.8241112000251,g,1.0,0.4888174000079743,,,,,,sub-041,1,stroop_test,59.94729434225683,
,,,,86.0,2.0,7.0,,,,,,,,,,,,,gelb,yellow,g,1.0,g,1.0,0.486052499996731,,,,,,,,,,7.0,2.0,86.0,11.0,361.83908120001433,,,,,,,,,,,,,,,,,361.8247057000117,362.6393037000089,363.4391136000049,363.4236442999973,,,,,,,,,,,,,,,,,,,,,,,,,,,,,,,,,,,363.4286226000113,363.4391136000049,363.4391136000049,363.9406555000169,g,1.0,0.486052499996731,,,,,,sub-041,1,stroop_test,59.94729434225683,
,,,,87.0,3.0,7.0,,,,,,,,,,,,,rot,yellow,g,0.0,g,1.0,0.4222336000239011,,,,,,,,,,7.0,3.0,87.0,3.0,363.9555313000165,,,,,,,,,,,,,,,,,363.94134560000384,365.1558192000084,365.9560031000001,365.9401757000014,,,,,,,,,,,,,,,,,,,,,,,,,,,,,,,,,,,365.9444034000044,365.9560031000001,365.9560031000001,366.3911411000008,g,1.0,0.4222336000239011,,,,,,sub-041,1,stroop_test,59.94729434225683,
,,,,88.0,4.0,7.0,,,,,,,,,,,,,gelb,blue,b,0.0,b,1.0,0.436980800004676,,,,,,,,,,7.0,4.0,88.0,9.0,366.4059993000119,,,,,,,,,,,,,,,,,366.39160490001086,367.6057553999999,368.4059253000014,368.3900424000167,,,,,,,,,,,,,,,,,,,,,,,,,,,,,,,,,,,368.394059400016,368.4059253000014,368.4059253000014,368.8575068000064,b,1.0,0.436980800004676,,,,,,sub-041,1,stroop_test,59.94729434225683,
,,,,89.0,5.0,7.0,,,,,,,,,,,,,blau,red,r,0.0,r,1.0,0.6347377000201959,,,,,,,,,,7.0,5.0,89.0,4.0,368.87272539999685,,,,,,,,,,,,,,,,,368.8581215000013,368.97224630002165,369.7730866000056,369.75684400001774,,,,,,,,,,,,,,,,,,,,,,,,,,,,,,,,,,,369.7607904000033,369.7730866000056,369.7730866000056,370.4242901999969,r,1.0,0.6347377000201959,,,,,,sub-041,1,stroop_test,59.94729434225683,
,,,,90.0,6.0,7.0,,,,,,,,,,,,,blau,blue,b,1.0,b,1.0,0.4862867999763693,,,,,,,,,,7.0,6.0,90.0,6.0,370.4387095000129,,,,,,,,,,,,,,,,,370.4248685000057,371.63908049999736,372.4390970000241,372.4233027000155,,,,,,,,,,,,,,,,,,,,,,,,,,,,,,,,,,,372.42394490001607,372.4390970000241,372.4390970000241,372.9408709999989,b,1.0,0.4862867999763693,,,,,,sub-041,1,stroop_test,59.94729434225683,
,,,,91.0,7.0,7.0,,,,,,,,,,,,,blau,blue,b,1.0,b,1.0,0.4665721000055782,,,,,,,,,,7.0,7.0,91.0,5.0,372.95591780002,,,,,,,,,,,,,,,,,372.9414670999977,374.1554000000178,374.9555936999968,374.94031480001286,,,,,,,,,,,,,,,,,,,,,,,,,,,,,,,,,,,374.9409023000044,374.9555936999968,374.9555936999968,375.4248578000115,b,1.0,0.4665721000055782,,,,,,sub-041,1,stroop_test,59.94729434225683,
,,,,92.0,8.0,7.0,,,,,,,,,,,,,rot,red,r,1.0,r,1.0,0.4946901999937836,,,,,,,,,,7.0,8.0,92.0,1.0,375.4391474000004,,,,,,,,,,,,,,,,,375.4253396000131,375.5393991000019,376.33923100002,376.32327809999697,,,,,,,,,,,,,,,,,,,,,,,,,,,,,,,,,,,376.3298742000188,376.33923100002,376.33923100002,376.8408080000081,r,1.0,0.4946901999937836,,,,,,sub-041,1,stroop_test,59.94729434225683,
,,,,93.0,9.0,7.0,,,,,,,,,,,,,gelb,yellow,g,1.0,g,1.0,0.5177552000095602,,,,,,,,,,7.0,9.0,93.0,10.0,376.85567560000345,,,,,,,,,,,,,,,,,376.8413009000069,376.9389295000001,377.7390427000064,377.723400900024,,,,,,,,,,,,,,,,,,,,,,,,,,,,,,,,,,,377.72713670000667,377.7390427000064,377.7390427000064,378.2738008000015,g,1.0,0.5177552000095602,,,,,,sub-041,1,stroop_test,59.94729434225683,
,,,,94.0,10.0,7.0,,,,,,,,,,,,,gelb,red,r,0.0,r,1.0,0.5208300000231247,,,,,,,,,,7.0,10.0,94.0,8.0,378.2889347000164,,,,,,,,,,,,,,,,,378.2743841000192,378.63958090002416,379.4389624000178,379.4234103000199,,,,,,,,,,,,,,,,,,,,,,,,,,,,,,,,,,,379.4240021000151,379.4389624000178,379.4389624000178,379.9745457000099,r,1.0,0.5208300000231247,,,,,,sub-041,1,stroop_test,59.94729434225683,
,,,,95.0,11.0,7.0,,,,,,,,,,,,,rot,blue,b,0.0,b,1.0,0.5249208000022918,,,,,,,,,,7.0,11.0,95.0,2.0,379.988871700014,,,,,,,,,,,,,,,,,379.9751171000244,380.33875700001954,381.1393975999963,381.1235498000169,,,,,,,,,,,,,,,,,,,,,,,,,,,,,,,,,,,381.12842180000735,381.1393975999963,381.1393975999963,381.67412320000585,b,1.0,0.5249208000022918,,,,,,sub-041,1,stroop_test,59.94729434225683,
,,,,96.0,0.0,8.0,,,,,,,,,,,,,blau,blue,b,1.0,b,1.0,0.458789299998898,,,,,,,,,,8.0,0.0,96.0,6.0,381.6887175000156,,,,,,,,,,,,,,,,,381.674594400014,382.0391971000063,382.83899710001424,382.8235566000221,,,,,,,,,,,,,,,,,,,,,,,,,,,,,,,,,,,382.8274412000028,382.83899710001424,382.83899710001424,383.3073280000244,b,1.0,0.458789299998898,,,,,,sub-041,1,stroop_test,59.94729434225683,
,,,,97.0,1.0,8.0,,,,,,,,,,,,,rot,blue,b,0.0,b,1.0,0.62185589998262,,,,,,,,,,8.0,1.0,97.0,2.0,383.3222098000115,,,,,,,,,,,,,,,,,383.3078593999962,383.6722937000159,384.4729139000119,384.4565969000105,,,,,,,,,,,,,,,,,,,,,,,,,,,,,,,,,,,384.4607065000164,384.4729139000119,384.4729139000119,385.1077386999968,b,1.0,0.62185589998262,,,,,,sub-041,1,stroop_test,59.94729434225683,
,,,,98.0,2.0,8.0,,,,,,,,,,,,,gelb,yellow,g,1.0,g,1.0,0.535203499981435,,,,,,,,,,8.0,2.0,98.0,10.0,385.1220508000115,,,,,,,,,,,,,,,,,385.10821320000105,385.4722299000132,386.27795519999927,386.25698500001454,,,,,,,,,,,,,,,,,,,,,,,,,,,,,,,,,,,386.2616831000196,386.27795519999927,386.27795519999927,386.8240586000029,g,1.0,0.535203499981435,,,,,,sub-041,1,stroop_test,59.94729434225683,
,,,,99.0,3.0,8.0,,,,,,,,,,,,,gelb,yellow,g,1.0,g,1.0,0.4242165999894496,,,,,,,,,,8.0,3.0,99.0,11.0,386.8386715000088,,,,,,,,,,,,,,,,,386.82465280001634,386.9393907000194,387.7390184999968,387.7232440000225,,,,,,,,,,,,,,,,,,,,,,,,,,,,,,,,,,,387.7238707000215,387.7390184999968,387.7390184999968,388.1739567000186,g,1.0,0.4242165999894496,,,,,,sub-041,1,stroop_test,59.94729434225683,
,,,,100.0,4.0,8.0,,,,,,,,,,,,,rot,red,r,1.0,r,1.0,0.5137046000163537,,,,,,,,,,8.0,4.0,100.0,1.0,388.1901864000247,,,,,,,,,,,,,,,,,388.1744500000205,388.539712400001,389.33911630001967,389.3233453000139,,,,,,,,,,,,,,,,,,,,,,,,,,,,,,,,,,,389.3280168000201,389.33911630001967,389.33911630001967,389.8578420999984,r,1.0,0.5137046000163537,,,,,,sub-041,1,stroop_test,59.94729434225683,
,,,,101.0,5.0,8.0,,,,,,,,,,,,,blau,yellow,g,0.0,g,1.0,0.5023548000026494,,,,,,,,,,8.0,5.0,101.0,7.0,389.8724016000051,,,,,,,,,,,,,,,,,389.8583392000001,390.6728373000224,391.4725473000144,391.4566096000199,,,,,,,,,,,,,,,,,,,,,,,,,,,,,,,,,,,391.4603994000063,391.4725473000144,391.4725473000144,391.9905670000008,g,1.0,0.5023548000026494,,,,,,sub-041,1,stroop_test,59.94729434225683,
,,,,102.0,6.0,8.0,,,,,,,,,,,,,rot,yellow,g,0.0,g,1.0,0.3872693000012077,,,,,,,,,,8.0,6.0,102.0,3.0,392.0054741000058,,,,,,,,,,,,,,,,,391.9912503000232,392.8057734000031,393.60561379999854,393.5900701000064,,,,,,,,,,,,,,,,,,,,,,,,,,,,,,,,,,,393.5941481000045,393.60561379999854,393.60561379999854,394.0072710000095,g,1.0,0.3872693000012077,,,,,,sub-041,1,stroop_test,59.94729434225683,
,,,,103.0,7.0,8.0,,,,,,,,,,,,,rot,red,r,1.0,r,1.0,0.5360698000004049,,,,,,,,,,8.0,7.0,103.0,0.0,394.0222779000178,,,,,,,,,,,,,,,,,394.00782009999966,394.8225071000052,395.6225760000234,395.60644610002055,,,,,,,,,,,,,,,,,,,,,,,,,,,,,,,,,,,395.607402499998,395.6225760000234,395.6225760000234,396.17400630001794,r,1.0,0.5360698000004049,,,,,,sub-041,1,stroop_test,59.94729434225683,
,,,,104.0,8.0,8.0,,,,,,,,,,,,,blau,red,r,0.0,r,1.0,0.6047750000143424,,,,,,,,,,8.0,8.0,104.0,4.0,396.18885220002267,,,,,,,,,,,,,,,,,396.1745058000088,396.53894460000447,397.3394904000161,397.32323259999976,,,,,,,,,,,,,,,,,,,,,,,,,,,,,,,,,,,397.3273747000203,397.3394904000161,397.3394904000161,397.9570762000221,r,1.0,0.6047750000143424,,,,,,sub-041,1,stroop_test,59.94729434225683,
,,,,105.0,9.0,8.0,,,,,,,,,,,,,blau,blue,b,1.0,b,1.0,0.4275170000037178,,,,,,,,,,8.0,9.0,105.0,5.0,397.9719601000252,,,,,,,,,,,,,,,,,397.9576069000177,398.3221864000079,399.1226200000092,399.1067313000094,,,,,,,,,,,,,,,,,,,,,,,,,,,,,,,,,,,399.1076493000146,399.1226200000092,399.1226200000092,399.55788160001975,b,1.0,0.4275170000037178,,,,,,sub-041,1,stroop_test,59.94729434225683,
,,,,106.0,10.0,8.0,,,,,,,,,,,,,gelb,red,r,0.0,r,1.0,0.5956133000145201,,,,,,,,,,8.0,10.0,106.0,8.0,399.5722439000092,,,,,,,,,,,,,,,,,399.5584465000138,400.7722928000149,401.5724526999984,401.5568687000196,,,,,,,,,,,,,,,,,,,,,,,,,,,,,,,,,,,401.5615578000143,401.5724526999984,401.5724526999984,402.1742908000015,r,1.0,0.5956133000145201,,,,,,sub-041,1,stroop_test,59.94729434225683,
,,,,107.0,11.0,8.0,,,,,,,,,,,,,gelb,blue,b,0.0,b,1.0,0.5926465000084136,,,,,,,,,,8.0,11.0,107.0,9.0,402.1887898000132,,,,,,,,,,,,,,,,,402.17476720002014,402.28900230000727,403.0890042000101,403.07324009999866,,,,,,,,,,,,,,,,,,,,,,,,,,,,,,,,,,,403.0739673000062,403.0890042000101,403.0890042000101,403.690714700002,b,1.0,0.5926465000084136,,,,,,sub-041,1,stroop_test,59.94729434225683,
,,,,108.0,0.0,9.0,,,,,,,,,,,,,gelb,yellow,g,1.0,g,1.0,0.5492584999883547,,,,,,,,,,9.0,0.0,108.0,11.0,403.7096015000134,,,,,,,,,,,,,,,,,403.6913260000001,404.0558672000189,404.85550510001485,404.84011810002266,,,,,,,,,,,,,,,,,,,,,,,,,,,,,,,,,,,404.840817600023,404.85550510001485,404.85550510001485,405.4076942000247,g,1.0,0.5492584999883547,,,,,,sub-041,1,stroop_test,59.94729434225683,
,,,,109.0,1.0,9.0,,,,,,,,,,,,,blau,blue,b,1.0,b,1.0,0.507420199981425,,,,,,,,,,9.0,1.0,109.0,5.0,405.4221221000189,,,,,,,,,,,,,,,,,405.4083263000066,405.7724014999985,406.573036900023,406.5571568000014,,,,,,,,,,,,,,,,,,,,,,,,,,,,,,,,,,,406.56098060001386,406.573036900023,406.573036900023,407.0907513000129,b,1.0,0.507420199981425,,,,,,sub-041,1,stroop_test,59.94729434225683,
,,,,110.0,2.0,9.0,,,,,,,,,,,,,rot,yellow,g,0.0,g,1.0,0.9562243999971544,,,,,,,,,,9.0,2.0,110.0,3.0,407.1054894000117,,,,,,,,,,,,,,,,,407.0912668000092,407.4555314000172,408.2552580000192,408.2400321000023,,,,,,,,,,,,,,,,,,,,,,,,,,,,,,,,,,,408.2447194000124,408.2552580000192,408.2552580000192,409.22378930001287,g,1.0,0.9562243999971544,,,,,,sub-041,1,stroop_test,59.94729434225683,
,,,,111.0,3.0,9.0,,,,,,,,,,,,,gelb,yellow,g,1.0,g,1.0,0.4346369999984745,,,,,,,,,,9.0,3.0,111.0,10.0,409.2388571000192,,,,,,,,,,,,,,,,,409.2243943000212,410.4388510000135,411.23893360001966,411.2231029999966,,,,,,,,,,,,,,,,,,,,,,,,,,,,,,,,,,,411.227017600002,411.23893360001966,411.23893360001966,411.6903444000054,g,1.0,0.4346369999984745,,,,,,sub-041,1,stroop_test,59.94729434225683,
,,,,112.0,4.0,9.0,,,,,,,,,,,,,rot,red,r,1.0,r,1.0,0.3906496999843512,,,,,,,,,,9.0,4.0,112.0,0.0,411.7056113000144,,,,,,,,,,,,,,,,,411.6909474999993,411.7894123000151,412.58943100000033,412.5737418000063,,,,,,,,,,,,,,,,,,,,,,,,,,,,,,,,,,,412.5780560999992,412.58943100000033,412.58943100000033,412.9903480000212,r,1.0,0.3906496999843512,,,,,,sub-041,1,stroop_test,59.94729434225683,
,,,,113.0,5.0,9.0,,,,,,,,,,,,,blau,yellow,g,0.0,g,1.0,0.5291650999861304,,,,,,,,,,9.0,5.0,113.0,7.0,413.005324400001,,,,,,,,,,,,,,,,,412.9908887000056,413.1058273000235,413.9053886000184,413.8897025000188,,,,,,,,,,,,,,,,,,,,,,,,,,,,,,,,,,,413.8942197000142,413.9053886000184,413.9053886000184,414.4412562000216,g,1.0,0.5291650999861304,,,,,,sub-041,1,stroop_test,59.94729434225683,
,,,,114.0,6.0,9.0,,,,,,,,,,,,,blau,blue,b,1.0,b,1.0,0.5261996999906842,,,,,,,,,,9.0,6.0,114.0,6.0,414.4557676000113,,,,,,,,,,,,,,,,,414.4417389000009,414.8056677000132,415.605650100013,415.5902396000165,,,,,,,,,,,,,,,,,,,,,,,,,,,,,,,,,,,415.5909822000249,415.605650100013,415.605650100013,416.1405339000048,b,1.0,0.5261996999906842,,,,,,sub-041,1,stroop_test,59.94729434225683,
,,,,115.0,7.0,9.0,,,,,,,,,,,,,rot,red,r,1.0,r,1.0,0.5213313999993261,,,,,,,,,,9.0,7.0,115.0,1.0,416.1553745999991,,,,,,,,,,,,,,,,,416.141257100011,416.5053719000134,417.30651550000766,417.2897438000073,,,,,,,,,,,,,,,,,,,,,,,,,,,,,,,,,,,417.2938428000198,417.30651550000766,417.30651550000766,417.8405541000248,r,1.0,0.5213313999993261,,,,,,sub-041,1,stroop_test,59.94729434225683,
,,,,116.0,8.0,9.0,,,,,,,,,,,,,gelb,red,r,0.0,r,1.0,0.4579491000040434,,,,,,,,,,9.0,8.0,116.0,8.0,417.8554807000037,,,,,,,,,,,,,,,,,417.8410636000044,418.20552580000367,419.0056257999968,418.9896510000108,,,,,,,,,,,,,,,,,,,,,,,,,,,,,,,,,,,418.9941598000005,419.0056257999968,419.0056257999968,419.474449900008,r,1.0,0.4579491000040434,,,,,,sub-041,1,stroop_test,59.94729434225683,
,,,,117.0,9.0,9.0,,,,,,,,,,,,,blau,red,r,0.0,r,1.0,0.3959730000060517,,,,,,,,,,9.0,9.0,117.0,4.0,419.4885623000155,,,,,,,,,,,,,,,,,419.4749576000031,420.2895941000024,421.0888214000152,421.07331360000535,,,,,,,,,,,,,,,,,,,,,,,,,,,,,,,,,,,421.07731250001234,421.0888214000152,421.0888214000152,421.4908755000215,r,1.0,0.3959730000060517,,,,,,sub-041,1,stroop_test,59.94729434225683,
,,,,118.0,10.0,9.0,,,,,,,,,,,,,gelb,blue,b,0.0,b,1.0,0.3934709999884944,,,,,,,,,,9.0,10.0,118.0,9.0,421.50587860000087,,,,,,,,,,,,,,,,,421.4913805000251,421.8553826000134,422.655230400007,422.6397194000019,,,,,,,,,,,,,,,,,,,,,,,,,,,,,,,,,,,422.6437692000181,422.655230400007,422.655230400007,423.0575907000166,b,1.0,0.3934709999884944,,,,,,sub-041,1,stroop_test,59.94729434225683,
,,,,119.0,11.0,9.0,,,,,,,,,,,,,rot,blue,b,0.0,b,1.0,0.5384026000101585,,,,,,,,,,9.0,11.0,119.0,2.0,423.071941400005,,,,,,,,,,,,,,,,,423.0581442000112,423.1721510000061,423.9724037999986,423.9565189999994,,,,,,,,,,,,,,,,,,,,,,,,,,,,,,,,,,,423.96129180002026,423.9724037999986,423.9724037999986,424.5237446000101,b,1.0,0.5384026000101585,,,,,,sub-041,1,stroop_test,59.94729434225683,
,,,,,,,,,,,,,,,,,,,,,,,,,,,,,,,,,,,,,,,,,,,,,,,,,,,,,,,,,,,,,,,,,,,,,,,,,,,,,,,,,,,,,,,,,,,,,,,,,,,,,,424.5239682000247,424.53900080002495,429.5386303999985,429.523262200004,sub-041,1,stroop_test,59.94729434225683,
