wordCTK,colorCTK,corrAnsCTK,congruentCTK,thisN,thisTrialN,thisRepN,keyResp_CTK.keys,keyResp_CTK.corr,keyResp_CTK.rt,keyResp_CTK.duration,wordPractice,colorPractice,corrAnsPractice,congruentPractice,respPractice.keys,respPractice.corr,respPractice.rt,respPractice.duration,word,color,corrAns,congruent,keyResp_test_run.keys,keyResp_test_run.corr,keyResp_test_run.rt,keyResp_test_run.duration,trials_CTK.thisRepN,trials_CTK.thisTrialN,trials_CTK.thisN,trials_CTK.thisIndex,trials_practice.thisRepN,trials_practice.thisTrialN,trials_practice.thisN,trials_practice.thisIndex,trials_test.thisRepN,trials_test.thisTrialN,trials_test.thisN,trials_test.thisIndex,thisRow.t,notes,instruction.started,instr_text.started,instr_image.started,instr_resp.started,instruction.stopped,instr_resp.keys,instr_resp.rt,instr_resp.duration,instr_color_to_key.started,instr_ctk.started,resp_ctk.started,instr_color_to_key.stopped,resp_ctk.keys,resp_ctk.rt,resp_ctk.duration,ITI.started,fixcross.started,fixcross.stopped,ITI.stopped,color_to_key_run.started,stimulus_CTK.started,keyResp_CTK.started,color_to_key_run.stopped,trials_CTK.keyResp_CTK.keys,trials_CTK.keyResp_CTK.corr,trials_CTK.keyResp_CTK.rt,trials_CTK.keyResp_CTK.duration,instr_practice.started,instr_practice_text.started,instr_practice_resp.started,instr_practice.stopped,instr_practice_resp.keys,instr_practice_resp.rt,instr_practice_resp.duration,practice_run.started,stimulus_practice.started,respPractice.started,practice_run.stopped,trials_practice.respPractice.keys,trials_practice.respPractice.corr,trials_practice.respPractice.rt,trials_practice.respPractice.duration,feedback.started,textFeedback.started,feedback.stopped,textFeedback.stopped,instr_test.started,instr_test_text.started,instr_test_resp.started,instr_test.stopped,instr_test_resp.keys,instr_test_resp.rt,instr_test_resp.duration,test_run.started,stimulus_test_run.started,keyResp_test_run.started,test_run.stopped,trials_test.keyResp_test_run.keys,trials_test.keyResp_test_run.corr,trials_test.keyResp_test_run.rt,trials_test.keyResp_test_run.duration,goodbye.started,textGoodbye.started,goodbye.stopped,participant,session,date,expName,psychopyVersion,frameRate,expStart
,,,,,,,,,,,,,,,,,,,,,,,,,,,,,,,,,,,,,,,,,0.0083724,0.0247887,0.0247887,0.0247887,11.9580128,space,11.9111362,None,,,,,,,,,,,,,,,,,,,,,,,,,,,,,,,,,,,,,,,,,,,,,,,,,,,,,,,,,sub-157,1,2025-03-11_10h57.30.460,stroop_test,04.02.2024,60.09377031,2025-03-11 10h57.55.965262 +0100
,,,,,,,,,,,,,,,,,,,,,,,,,,,,,,,,,,,,,,,,,,,,,,,,,11.9581312,11.981442,11.981442,21.1250628,space,9.1309398,None,,,,,,,,,,,,,,,,,,,,,,,,,,,,,,,,,,,,,,,,,,,,,,,,,,sub-157,1,2025-03-11_10h57.30.460,stroop_test,04.02.2024,60.09377031,2025-03-11 10h57.55.965262 +0100
test,blue,b,1,0,0,0,b,1,1.2299521,None,,,,,,,,,,,,,,,,,0,0,0,2,,,,,,,,,21.1731469,,,,,,,,,,,,,,,,,21.1543046,21.4895867,22.3054897,22.2731855,22.2847338,22.3054897,22.3054897,23.5402305,b,1,1.2299521,None,,,,,,,,,,,,,,,,,,,,,,,,,,,,,,,,,,,,,,sub-157,1,2025-03-11_10h57.30.460,stroop_test,04.02.2024,60.09377031,2025-03-11 10h57.55.965262 +0100
test,yellow,g,1,1,1,0,g,1,1.5141127,None,,,,,,,,,,,,,,,,,0,1,1,1,,,,,,,,,23.5544224,,,,,,,,,,,,,,,,,23.5407559,24.7534055,25.5526191,25.5369785,25.5378227,25.5526191,25.5526191,27.0698567,g,1,1.5141127,None,,,,,,,,,,,,,,,,,,,,,,,,,,,,,,,,,,,,,,sub-157,1,2025-03-11_10h57.30.460,stroop_test,04.02.2024,60.09377031,2025-03-11 10h57.55.965262 +0100
test,red,r,1,2,2,0,r,1,0.8358868,None,,,,,,,,,,,,,,,,,0,2,2,0,,,,,,,,,27.0845952,,,,,,,,,,,,,,,,,27.0703634,27.4344868,28.2337157,28.2179621,28.2191456,28.2337157,28.2337157,29.0846517,r,1,0.8358868,None,,,,,,,,,,,,,,,,,,,,,,,,,,,,,,,,,,,,,,sub-157,1,2025-03-11_10h57.30.460,stroop_test,04.02.2024,60.09377031,2025-03-11 10h57.55.965262 +0100
test,red,r,1,3,0,1,r,1,1.4874764,None,,,,,,,,,,,,,,,,,1,0,3,0,,,,,,,,,29.1001777,,,,,,,,,,,,,,,,,29.0851575,29.8988057,30.6982932,30.6824356,30.6832133,30.6982932,30.6982932,32.1984533,r,1,1.4874764,None,,,,,,,,,,,,,,,,,,,,,,,,,,,,,,,,,,,,,,sub-157,1,2025-03-11_10h57.30.460,stroop_test,04.02.2024,60.09377031,2025-03-11 10h57.55.965262 +0100
test,blue,b,1,4,1,1,b,1,0.8532362,None,,,,,,,,,,,,,,,,,1,1,4,2,,,,,,,,,32.2134691,,,,,,,,,,,,,,,,,32.1989728,33.4127827,34.2286515,34.213084,34.2138496,34.2286515,34.2286515,35.0959961,b,1,0.8532362,None,,,,,,,,,,,,,,,,,,,,,,,,,,,,,,,,,,,,,,sub-157,1,2025-03-11_10h57.30.460,stroop_test,04.02.2024,60.09377031,2025-03-11 10h57.55.965262 +0100
test,yellow,g,1,5,2,1,g,1,0.8438915,None,,,,,,,,,,,,,,,,,1,2,5,1,,,,,,,,,35.1112365,,,,,,,,,,,,,,,,,35.0965069,35.4605032,36.2600118,36.244202,36.2450003,36.2600118,36.2600118,37.1111954,g,1,0.8438915,None,,,,,,,,,,,,,,,,,,,,,,,,,,,,,,,,,,,,,,sub-157,1,2025-03-11_10h57.30.460,stroop_test,04.02.2024,60.09377031,2025-03-11 10h57.55.965262 +0100
test,yellow,g,1,6,0,2,g,1,0.7545143,None,,,,,,,,,,,,,,,,,2,0,6,1,,,,,,,,,37.1257561,,,,,,,,,,,,,,,,,37.1117037,38.3241458,39.1239572,39.1084101,39.1091931,39.1239572,39.1239572,39.8919785,g,1,0.7545143,None,,,,,,,,,,,,,,,,,,,,,,,,,,,,,,,,,,,,,,sub-157,1,2025-03-11_10h57.30.460,stroop_test,04.02.2024,60.09377031,2025-03-11 10h57.55.965262 +0100
test,red,r,1,7,1,2,r,1,0.5024059,None,,,,,,,,,,,,,,,,,2,1,7,0,,,,,,,,,39.9067073,,,,,,,,,,,,,,,,,39.89249,41.1055919,41.9049854,41.8892578,41.8900477,41.9049854,41.9049854,42.4230326,r,1,0.5024059,None,,,,,,,,,,,,,,,,,,,,,,,,,,,,,,,,,,,,,,sub-157,1,2025-03-11_10h57.30.460,stroop_test,04.02.2024,60.09377031,2025-03-11 10h57.55.965262 +0100
test,blue,b,1,8,2,2,b,1,0.6183019,None,,,,,,,,,,,,,,,,,2,2,8,2,,,,,,,,,42.4379367,,,,,,,,,,,,,,,,,42.4235641,43.6362466,44.4361537,44.4203224,44.4210784,44.4361537,44.4361537,45.0705023,b,1,0.6183019,None,,,,,,,,,,,,,,,,,,,,,,,,,,,,,,,,,,,,,,sub-157,1,2025-03-11_10h57.30.460,stroop_test,04.02.2024,60.09377031,2025-03-11 10h57.55.965262 +0100
test,yellow,g,1,9,0,3,g,1,0.6434792,None,,,,,,,,,,,,,,,,,3,0,9,1,,,,,,,,,45.0855424,,,,,,,,,,,,,,,,,45.0710124,45.4352581,46.2506443,46.2346286,46.2351854,46.2506443,46.2506443,46.902674,g,1,0.6434792,None,,,,,,,,,,,,,,,,,,,,,,,,,,,,,,,,,,,,,,sub-157,1,2025-03-11_10h57.30.460,stroop_test,04.02.2024,60.09377031,2025-03-11 10h57.55.965262 +0100
test,blue,b,1,10,1,3,b,1,0.8352322,None,,,,,,,,,,,,,,,,,3,1,10,2,,,,,,,,,46.9171398,,,,,,,,,,,,,,,,,46.9031905,47.7170401,48.5318459,48.5159568,48.5164659,48.5318459,48.5318459,49.3835289,b,1,0.8352322,None,,,,,,,,,,,,,,,,,,,,,,,,,,,,,,,,,,,,,,sub-157,1,2025-03-11_10h57.30.460,stroop_test,04.02.2024,60.09377031,2025-03-11 10h57.55.965262 +0100
test,red,r,1,11,2,3,r,1,0.626554,None,,,,,,,,,,,,,,,,,3,2,11,0,,,,,,,,,49.3983427,,,,,,,,,,,,,,,,,49.3840408,50.5977606,51.3969384,51.3811453,51.3822577,51.3969384,51.3969384,52.0314137,r,1,0.626554,None,,,,,,,,,,,,,,,,,,,,,,,,,,,,,,,,,,,,,,sub-157,1,2025-03-11_10h57.30.460,stroop_test,04.02.2024,60.09377031,2025-03-11 10h57.55.965262 +0100
,,,,,,,,,,,,,,,,,,,,,,,,,,,,,,,,,,,,,,,,,,,,,,,,,,,,,,,,,,,,,,,,,,,,52.031681,52.045874,52.045874,58.0423254,space,5.9930708,None,,,,,,,,,,,,,,,,,,,,,,,,,,,,,,,sub-157,1,2025-03-11_10h57.30.460,stroop_test,04.02.2024,60.09377031,2025-03-11 10h57.55.965262 +0100
,,,,0,0,0,,,,,gelb,yellow,g,1,g,1,1.5573121,None,,,,,,,,,,,,,0,0,0,11,,,,,58.0734857,,,,,,,,,,,,,,,,,58.0539869,58.4070337,59.2233449,59.2073727,,,,,,,,,,,,,,,,59.2155078,59.2233449,59.2233449,60.7928493,g,1,1.5573121,None,60.8044491,60.8211037,61.8039681,,,,,,,,,,,,,,,,,,,,sub-157,1,2025-03-11_10h57.30.460,stroop_test,04.02.2024,60.09377031,2025-03-11 10h57.55.965262 +0100
,,,,1,1,0,,,,,gelb,red,r,0,r,1,0.6480843,None,,,,,,,,,,,,,0,1,1,8,,,,,61.8205622,,,,,,,,,,,,,,,,,61.8043393,62.1534685,62.9525568,62.9368332,,,,,,,,,,,,,,,,62.9374092,62.9525568,62.9525568,63.6048815,r,1,0.6480843,None,63.6059043,63.618843,64.6021653,64.6178504,,,,,,,,,,,,,,,,,,,sub-157,1,2025-03-11_10h57.30.460,stroop_test,04.02.2024,60.09377031,2025-03-11 10h57.55.965262 +0100
,,,,2,2,0,,,,,blau,blue,b,1,b,1,1.0711043,None,,,,,,,,,,,,,0,2,2,6,,,,,64.6178504,,,,,,,,,,,,,,,,,64.6024912,64.9676138,65.783524,65.7510574,,,,,,,,,,,,,,,,65.7622957,65.783524,65.783524,66.867397,b,1,1.0711043,None,66.8679478,66.8824705,67.8665342,67.8819188,,,,,,,,,,,,,,,,,,,sub-157,1,2025-03-11_10h57.30.460,stroop_test,04.02.2024,60.09377031,2025-03-11 10h57.55.965262 +0100
,,,,3,3,0,,,,,rot,blue,b,0,b,1,1.7162977,None,,,,,,,,,,,,,0,3,3,2,,,,,67.8819188,,,,,,,,,,,,,,,,,67.86717,68.6807456,69.4820582,69.4649881,,,,,,,,,,,,,,,,69.4728834,69.4820582,69.4820582,71.2001344,b,1,1.7162977,None,71.2007108,71.2154286,72.1989166,72.2143242,,,,,,,,,,,,,,,,,,,sub-157,1,2025-03-11_10h57.30.460,stroop_test,04.02.2024,60.09377031,2025-03-11 10h57.55.965262 +0100
,,,,4,4,0,,,,,rot,yellow,g,0,g,1,1.4089647,None,,,,,,,,,,,,,0,4,4,3,,,,,72.2143242,,,,,,,,,,,,,,,,,72.1994028,72.3142587,73.1138084,73.0979367,,,,,,,,,,,,,,,,73.098583,73.1138084,73.1138084,74.530688,g,1,1.4089647,None,74.5313287,74.5457445,75.5294289,75.5449415,,,,,,,,,,,,,,,,,,,sub-157,1,2025-03-11_10h57.30.460,stroop_test,04.02.2024,60.09377031,2025-03-11 10h57.55.965262 +0100
,,,,5,5,0,,,,,rot,red,r,1,r,1,1.0281505,None,,,,,,,,,,,,,0,5,5,1,,,,,75.5449415,,,,,,,,,,,,,,,,,75.5299383,76.7437527,77.5432234,77.5272773,,,,,,,,,,,,,,,,77.5277999,77.5432234,77.5432234,78.5766836,r,1,1.0281505,None,78.5772635,78.5921064,79.5753392,79.5911482,,,,,,,,,,,,,,,,,,,sub-157,1,2025-03-11_10h57.30.460,stroop_test,04.02.2024,60.09377031,2025-03-11 10h57.55.965262 +0100
,,,,6,6,0,,,,,blau,red,r,0,r,1,1.2046792,None,,,,,,,,,,,,,0,6,6,4,,,,,79.5911482,,,,,,,,,,,,,,,,,79.575659,80.3905381,81.1898741,81.1743018,,,,,,,,,,,,,,,,81.1775431,81.1898741,81.1898741,82.4070986,r,1,1.2046792,None,82.4076563,82.422169,83.4212985,,,,,,,,,,,,,,,,,,,,sub-157,1,2025-03-11_10h57.30.460,stroop_test,04.02.2024,60.09377031,2025-03-11 10h57.55.965262 +0100
,,,,7,7,0,,,,,blau,blue,b,1,b,1,0.9966206,None,,,,,,,,,,,,,0,7,7,5,,,,,83.4377356,,,,,,,,,,,,,,,,,83.421683,83.5210142,84.3203426,84.3045449,,,,,,,,,,,,,,,,84.3050345,84.3203426,84.3203426,85.3208416,b,1,0.9966206,None,85.3214021,85.3362826,86.3194472,86.3352421,,,,,,,,,,,,,,,,,,,sub-157,1,2025-03-11_10h57.30.460,stroop_test,04.02.2024,60.09377031,2025-03-11 10h57.55.965262 +0100
,,,,8,8,0,,,,,gelb,yellow,g,1,g,1,0.6741762,None,,,,,,,,,,,,,0,8,8,10,,,,,86.3352421,,,,,,,,,,,,,,,,,86.3197838,87.5341972,88.3334829,88.3179252,,,,,,,,,,,,,,,,88.3229184,88.3334829,88.3334829,89.0176793,g,1,0.6741762,None,89.0182406,89.0330412,90.0164208,90.0320515,,,,,,,,,,,,,,,,,,,sub-157,1,2025-03-11_10h57.30.460,stroop_test,04.02.2024,60.09377031,2025-03-11 10h57.55.965262 +0100
,,,,9,9,0,,,,,gelb,blue,b,0,b,1,1.2017047,None,,,,,,,,,,,,,0,9,9,9,,,,,90.0320515,,,,,,,,,,,,,,,,,90.0169393,90.3817059,91.1810101,91.1653414,,,,,,,,,,,,,,,,91.1659699,91.1810101,91.1810101,92.3984318,b,1,1.2017047,None,92.3992488,92.4132792,93.3965592,93.4121874,,,,,,,,,,,,,,,,,,,sub-157,1,2025-03-11_10h57.30.460,stroop_test,04.02.2024,60.09377031,2025-03-11 10h57.55.965262 +0100
,,,,10,10,0,,,,,rot,red,r,1,r,1,0.7712671,None,,,,,,,,,,,,,0,10,10,0,,,,,93.4121874,,,,,,,,,,,,,,,,,93.3970762,93.7619783,94.5613007,94.5454991,,,,,,,,,,,,,,,,94.5487309,94.5613007,94.5613007,95.3463121,r,1,0.7712671,None,95.3471721,95.3610262,96.3600337,,,,,,,,,,,,,,,,,,,,sub-157,1,2025-03-11_10h57.30.460,stroop_test,04.02.2024,60.09377031,2025-03-11 10h57.55.965262 +0100
,,,,11,11,0,,,,,blau,yellow,g,0,g,1,1.1613656,None,,,,,,,,,,,,,0,11,11,7,,,,,96.3763524,,,,,,,,,,,,,,,,,96.3605254,96.4596753,97.2594284,97.2436073,,,,,,,,,,,,,,,,97.2486152,97.2594284,97.2594284,98.4264209,g,1,1.1613656,None,98.4272511,98.4419116,99.4406818,,,,,,,,,,,,,,,,,,,,sub-157,1,2025-03-11_10h57.30.460,stroop_test,04.02.2024,60.09377031,2025-03-11 10h57.55.965262 +0100
,,,,12,0,1,,,,,rot,red,r,1,r,1,0.784456,None,,,,,,,,,,,,,1,0,12,1,,,,,99.4570118,,,,,,,,,,,,,,,,,99.4411714,100.6400336,101.4553068,101.4397164,,,,,,,,,,,,,,,,101.4445882,101.4553068,101.4553068,102.2563449,r,1,0.784456,None,102.2571652,102.2714563,103.2551006,103.2703501,,,,,,,,,,,,,,,,,,,sub-157,1,2025-03-11_10h57.30.460,stroop_test,04.02.2024,60.09377031,2025-03-11 10h57.55.965262 +0100
,,,,13,1,1,,,,,gelb,yellow,g,1,g,1,0.9614111,None,,,,,,,,,,,,,1,1,13,11,,,,,103.2703501,,,,,,,,,,,,,,,,,103.2555815,103.6201924,104.4195509,104.4039538,,,,,,,,,,,,,,,,104.4083571,104.4195509,104.4195509,105.3870529,g,1,0.9614111,None,105.3878778,105.4023901,106.4015136,,,,,,,,,,,,,,,,,,,,sub-157,1,2025-03-11_10h57.30.460,stroop_test,04.02.2024,60.09377031,2025-03-11 10h57.55.965262 +0100
,,,,14,2,1,,,,,rot,red,r,1,r,1,0.7232845,None,,,,,,,,,,,,,1,2,14,0,,,,,106.4175972,,,,,,,,,,,,,,,,,106.4020087,106.5009445,107.300117,107.2845476,,,,,,,,,,,,,,,,107.2901824,107.300117,107.300117,108.0346266,r,1,0.7232845,None,108.0354538,108.0494715,109.0331994,109.0485072,,,,,,,,,,,,,,,,,,,sub-157,1,2025-03-11_10h57.30.460,stroop_test,04.02.2024,60.09377031,2025-03-11 10h57.55.965262 +0100
,,,,15,3,1,,,,,gelb,yellow,g,1,g,1,0.8490048,None,,,,,,,,,,,,,1,3,15,10,,,,,109.0485072,,,,,,,,,,,,,,,,,109.0336907,109.3984948,110.1976527,110.1819862,,,,,,,,,,,,,,,,110.1863071,110.1976527,110.1976527,111.0489853,g,1,0.8490048,None,111.0498155,111.0635158,112.0470397,112.0625399,,,,,,,,,,,,,,,,,,,sub-157,1,2025-03-11_10h57.30.460,stroop_test,04.02.2024,60.09377031,2025-03-11 10h57.55.965262 +0100
,,,,16,4,1,,,,,blau,red,r,0,r,1,1.0880874,None,,,,,,,,,,,,,1,4,16,4,,,,,112.0625399,,,,,,,,,,,,,,,,,112.0475366,113.2615726,114.0610725,114.0455661,,,,,,,,,,,,,,,,114.0503021,114.0610725,114.0610725,115.1617299,r,1,1.0880874,None,115.1625506,115.1770147,116.1760029,,,,,,,,,,,,,,,,,,,,sub-157,1,2025-03-11_10h57.30.460,stroop_test,04.02.2024,60.09377031,2025-03-11 10h57.55.965262 +0100
,,,,17,5,1,,,,,rot,blue,b,0,b,1,0.9143568,None,,,,,,,,,,,,,1,5,17,2,,,,,116.1921843,,,,,,,,,,,,,,,,,116.1765016,116.9753412,117.7879209,117.7586787,,,,,,,,,,,,,,,,117.7657183,117.7879209,117.7879209,118.705565,b,1,0.9143568,None,118.7063817,118.7203369,119.7040773,119.7194653,,,,,,,,,,,,,,,,,,,sub-157,1,2025-03-11_10h57.30.460,stroop_test,04.02.2024,60.09377031,2025-03-11 10h57.55.965262 +0100
,,,,18,6,1,,,,,blau,blue,b,1,b,1,0.8466192,None,,,,,,,,,,,,,1,6,18,6,,,,,119.7194653,,,,,,,,,,,,,,,,,119.7045715,120.518893,121.3181274,121.3027437,,,,,,,,,,,,,,,,121.3085074,121.3181274,121.3181274,122.1691882,b,1,0.8466192,None,122.1700071,122.1840009,123.167598,123.1831503,,,,,,,,,,,,,,,,,,,sub-157,1,2025-03-11_10h57.30.460,stroop_test,04.02.2024,60.09377031,2025-03-11 10h57.55.965262 +0100
,,,,19,7,1,,,,,rot,yellow,g,0,g,1,0.9794838,None,,,,,,,,,,,,,1,7,19,3,,,,,123.1831503,,,,,,,,,,,,,,,,,123.1680867,124.3823284,125.1815158,125.1656689,,,,,,,,,,,,,,,,125.1705229,125.1815158,125.1815158,126.1655744,g,1,0.9794838,None,126.1664229,126.1808786,127.1797698,,,,,,,,,,,,,,,,,,,,sub-157,1,2025-03-11_10h57.30.460,stroop_test,04.02.2024,60.09377031,2025-03-11 10h57.55.965262 +0100
,,,,20,8,1,,,,,gelb,red,r,0,r,1,1.0048741,None,,,,,,,,,,,,,1,8,20,8,,,,,127.196199,,,,,,,,,,,,,,,,,127.1802653,128.3785124,129.178027,129.1622965,,,,,,,,,,,,,,,,129.1672738,129.178027,129.178027,130.1957917,r,1,1.0048741,None,130.1972438,130.2113497,131.1967901,131.2123598,,,,,,,,,,,,,,,,,,,sub-157,1,2025-03-11_10h57.30.460,stroop_test,04.02.2024,60.09377031,2025-03-11 10h57.55.965262 +0100
,,,,21,9,1,,,,,blau,yellow,g,0,g,1,1.046471,None,,,,,,,,,,,,,1,9,21,7,,,,,131.2123598,,,,,,,,,,,,,,,,,131.1973184,131.9950036,132.8078376,132.7916688,,,,,,,,,,,,,,,,132.7967794,132.8078376,132.8078376,133.858203,g,1,1.046471,None,133.8587888,133.8737078,134.8723325,,,,,,,,,,,,,,,,,,,,sub-157,1,2025-03-11_10h57.30.460,stroop_test,04.02.2024,60.09377031,2025-03-11 10h57.55.965262 +0100
,,,,22,10,1,,,,,gelb,blue,b,0,b,1,0.9432843,None,,,,,,,,,,,,,1,10,22,9,,,,,134.8893295,,,,,,,,,,,,,,,,,134.8726702,134.9727201,135.7723474,135.7566954,,,,,,,,,,,,,,,,135.7610558,135.7723474,135.7723474,136.723159,b,1,0.9432843,None,136.7239776,136.7377911,137.7213121,137.7369037,,,,,,,,,,,,,,,,,,,sub-157,1,2025-03-11_10h57.30.460,stroop_test,04.02.2024,60.09377031,2025-03-11 10h57.55.965262 +0100
,,,,23,11,1,,,,,blau,blue,b,1,b,1,1.0534934,None,,,,,,,,,,,,,1,11,23,5,,,,,137.7369037,,,,,,,,,,,,,,,,,137.7218034,138.0865647,138.8861958,138.8706467,,,,,,,,,,,,,,,,138.8754602,138.8861958,138.8861958,139.9534455,b,1,1.0534934,None,139.9542774,139.9682524,140.9518155,140.9675283,,,,,,,,,,,,,,,,,,,sub-157,1,2025-03-11_10h57.30.460,stroop_test,04.02.2024,60.09377031,2025-03-11 10h57.55.965262 +0100
,,,,,,,,,,,,,,,,,,,,,,,,,,,,,,,,,,,,,,,,,,,,,,,,,,,,,,,,,,,,,,,,,,,,,,,,,,,,,,,,,,,,,,,140.9520229,140.9675283,140.9675283,145.2158451,space,4.2420902,None,,,,,,,,,,,,sub-157,1,2025-03-11_10h57.30.460,stroop_test,04.02.2024,60.09377031,2025-03-11 10h57.55.965262 +0100
,,,,0,0,0,,,,,,,,,,,,,gelb,yellow,g,1,g,1,0.6857078,None,,,,,,,,,0,0,0,10,145.2970591,,,,,,,,,,,,,,,,,145.2753138,145.5799336,146.3793746,146.3636299,,,,,,,,,,,,,,,,,,,,,,,,,,,,,,,,,,,146.3681522,146.3793746,146.3793746,147.0807767,g,1,0.6857078,None,,,,sub-157,1,2025-03-11_10h57.30.460,stroop_test,04.02.2024,60.09377031,2025-03-11 10h57.55.965262 +0100
,,,,1,1,0,,,,,,,,,,,,,rot,blue,b,0,b,1,1.0125406,None,,,,,,,,,0,1,1,2,147.0953047,,,,,,,,,,,,,,,,,147.081362,147.445033,148.246012,148.2286856,,,,,,,,,,,,,,,,,,,,,,,,,,,,,,,,,,,148.2351045,148.246012,148.246012,149.2650471,b,1,1.0125406,None,,,,sub-157,1,2025-03-11_10h57.30.460,stroop_test,04.02.2024,60.09377031,2025-03-11 10h57.55.965262 +0100
,,,,2,2,0,,,,,,,,,,,,,gelb,blue,b,0,b,1,1.0635579,None,,,,,,,,,0,2,2,9,149.2797583,,,,,,,,,,,,,,,,,149.2656137,149.6293987,150.4289698,150.4128402,,,,,,,,,,,,,,,,,,,,,,,,,,,,,,,,,,,150.4156273,150.4289698,150.4289698,151.4962454,b,1,1.0635579,None,,,,sub-157,1,2025-03-11_10h57.30.460,stroop_test,04.02.2024,60.09377031,2025-03-11 10h57.55.965262 +0100
,,,,3,3,0,,,,,,,,,,,,,gelb,red,r,0,r,1,1.0155014,None,,,,,,,,,0,3,3,8,151.5109379,,,,,,,,,,,,,,,,,151.4969793,151.6109729,152.4109919,152.3946359,,,,,,,,,,,,,,,,,,,,,,,,,,,,,,,,,,,152.395408,152.4109919,152.4109919,153.4284759,r,1,1.0155014,None,,,,sub-157,1,2025-03-11_10h57.30.460,stroop_test,04.02.2024,60.09377031,2025-03-11 10h57.55.965262 +0100
,,,,4,4,0,,,,,,,,,,,,,rot,red,r,1,r,1,0.9146324,None,,,,,,,,,0,4,4,1,153.4427441,,,,,,,,,,,,,,,,,153.4290398,154.6420006,155.4713677,155.4425578,,,,,,,,,,,,,,,,,,,,,,,,,,,,,,,,,,,155.4473252,155.4713677,155.4713677,156.3890467,r,1,0.9146324,None,,,,sub-157,1,2025-03-11_10h57.30.460,stroop_test,04.02.2024,60.09377031,2025-03-11 10h57.55.965262 +0100
,,,,5,5,0,,,,,,,,,,,,,blau,red,r,0,r,1,0.8249548,None,,,,,,,,,0,5,5,4,156.4037397,,,,,,,,,,,,,,,,,156.3898367,156.5041422,157.3198829,157.3046154,,,,,,,,,,,,,,,,,,,,,,,,,,,,,,,,,,,157.3093317,157.3198829,157.3198829,158.1545467,r,1,0.8249548,None,,,,sub-157,1,2025-03-11_10h57.30.460,stroop_test,04.02.2024,60.09377031,2025-03-11 10h57.55.965262 +0100
,,,,6,6,0,,,,,,,,,,,,,gelb,yellow,g,1,g,1,0.6978886,None,,,,,,,,,0,6,6,11,158.1695385,,,,,,,,,,,,,,,,,158.155109,158.2687939,159.0682294,159.052795,,,,,,,,,,,,,,,,,,,,,,,,,,,,,,,,,,,159.0570629,159.0682294,159.0682294,159.7693975,g,1,0.6978886,None,,,,sub-157,1,2025-03-11_10h57.30.460,stroop_test,04.02.2024,60.09377031,2025-03-11 10h57.55.965262 +0100
,,,,7,7,0,,,,,,,,,,,,,blau,blue,b,1,b,1,0.6228037,None,,,,,,,,,0,7,7,5,159.7843072,,,,,,,,,,,,,,,,,159.7699509,160.5837271,161.3829861,161.3673911,,,,,,,,,,,,,,,,,,,,,,,,,,,,,,,,,,,161.3722137,161.3829861,161.3829861,162.0172774,b,1,0.6228037,None,,,,sub-157,1,2025-03-11_10h57.30.460,stroop_test,04.02.2024,60.09377031,2025-03-11 10h57.55.965262 +0100
,,,,8,8,0,,,,,,,,,,,,,rot,red,r,1,r,1,0.7842224,None,,,,,,,,,0,8,8,0,162.0321453,,,,,,,,,,,,,,,,,162.0178384,162.3818663,163.1811772,163.1658133,,,,,,,,,,,,,,,,,,,,,,,,,,,,,,,,,,,163.171348,163.1811772,163.1811772,163.9825082,r,1,0.7842224,None,,,,sub-157,1,2025-03-11_10h57.30.460,stroop_test,04.02.2024,60.09377031,2025-03-11 10h57.55.965262 +0100
,,,,9,9,0,,,,,,,,,,,,,rot,yellow,g,0,g,1,0.9014124,None,,,,,,,,,0,9,9,3,163.9974776,,,,,,,,,,,,,,,,,163.9830671,164.3467654,165.1463597,165.1304289,,,,,,,,,,,,,,,,,,,,,,,,,,,,,,,,,,,165.1311951,165.1463597,165.1463597,166.0636485,g,1,0.9014124,None,,,,sub-157,1,2025-03-11_10h57.30.460,stroop_test,04.02.2024,60.09377031,2025-03-11 10h57.55.965262 +0100
,,,,10,10,0,,,,,,,,,,,,,blau,blue,b,1,b,1,0.6694542,None,,,,,,,,,0,10,10,6,166.0785518,,,,,,,,,,,,,,,,,166.0642018,166.1785411,166.9778978,166.9621416,,,,,,,,,,,,,,,,,,,,,,,,,,,,,,,,,,,166.9669233,166.9778978,166.9778978,167.6631973,b,1,0.6694542,None,,,,sub-157,1,2025-03-11_10h57.30.460,stroop_test,04.02.2024,60.09377031,2025-03-11 10h57.55.965262 +0100
,,,,11,11,0,,,,,,,,,,,,,blau,yellow,g,0,g,1,0.956171,None,,,,,,,,,0,11,11,7,167.6771697,,,,,,,,,,,,,,,,,167.6637641,168.4764409,169.2757447,169.2601485,,,,,,,,,,,,,,,,,,,,,,,,,,,,,,,,,,,169.2609154,169.2757447,169.2757447,170.2434734,g,1,0.956171,None,,,,sub-157,1,2025-03-11_10h57.30.460,stroop_test,04.02.2024,60.09377031,2025-03-11 10h57.55.965262 +0100
,,,,12,0,1,,,,,,,,,,,,,gelb,yellow,g,1,g,1,0.7749461,None,,,,,,,,,1,0,12,11,170.2582592,,,,,,,,,,,,,,,,,170.244051,170.6084859,171.4241707,171.4082057,,,,,,,,,,,,,,,,,,,,,,,,,,,,,,,,,,,171.4124727,171.4241707,171.4241707,172.2090947,g,1,0.7749461,None,,,,sub-157,1,2025-03-11_10h57.30.460,stroop_test,04.02.2024,60.09377031,2025-03-11 10h57.55.965262 +0100
,,,,13,1,1,,,,,,,,,,,,,rot,red,r,1,r,1,0.6218131,None,,,,,,,,,1,1,13,0,172.2233393,,,,,,,,,,,,,,,,,172.2097123,173.4226236,174.2389524,174.2231112,,,,,,,,,,,,,,,,,,,,,,,,,,,,,,,,,,,174.2280153,174.2389524,174.2389524,174.8725752,r,1,0.6218131,None,,,,sub-157,1,2025-03-11_10h57.30.460,stroop_test,04.02.2024,60.09377031,2025-03-11 10h57.55.965262 +0100
,,,,14,2,1,,,,,,,,,,,,,gelb,blue,b,0,b,1,1.0984563,None,,,,,,,,,1,2,14,9,174.8874988,,,,,,,,,,,,,,,,,174.8731477,174.9874381,175.7869058,175.7710248,,,,,,,,,,,,,,,,,,,,,,,,,,,,,,,,,,,175.7752854,175.7869058,175.7869058,176.8878995,b,1,1.0984563,None,,,,sub-157,1,2025-03-11_10h57.30.460,stroop_test,04.02.2024,60.09377031,2025-03-11 10h57.55.965262 +0100
,,,,15,3,1,,,,,,,,,,,,,blau,yellow,g,0,g,1,0.9631922,None,,,,,,,,,1,3,15,7,176.9024135,,,,,,,,,,,,,,,,,176.8884554,177.2522519,178.0516793,178.0359586,,,,,,,,,,,,,,,,,,,,,,,,,,,,,,,,,,,178.0406981,178.0516793,178.0516793,179.0191305,g,1,0.9631922,None,,,,sub-157,1,2025-03-11_10h57.30.460,stroop_test,04.02.2024,60.09377031,2025-03-11 10h57.55.965262 +0100
,,,,16,4,1,,,,,,,,,,,,,rot,yellow,g,0,g,1,0.8539112,None,,,,,,,,,1,4,16,3,179.0338124,,,,,,,,,,,,,,,,,179.0196999,180.2327753,181.0325334,181.0164481,,,,,,,,,,,,,,,,,,,,,,,,,,,,,,,,,,,181.0220634,181.0325334,181.0325334,181.8999056,g,1,0.8539112,None,,,,sub-157,1,2025-03-11_10h57.30.460,stroop_test,04.02.2024,60.09377031,2025-03-11 10h57.55.965262 +0100
,,,,17,5,1,,,,,,,,,,,,,gelb,red,r,0,r,1,1.0393507,None,,,,,,,,,1,5,17,8,181.9146544,,,,,,,,,,,,,,,,,181.90046,182.7138906,183.5132739,183.4978266,,,,,,,,,,,,,,,,,,,,,,,,,,,,,,,,,,,183.5021241,183.5132739,183.5132739,184.5643729,r,1,1.0393507,None,,,,sub-157,1,2025-03-11_10h57.30.460,stroop_test,04.02.2024,60.09377031,2025-03-11 10h57.55.965262 +0100
,,,,18,6,1,,,,,,,,,,,,,blau,red,r,0,r,1,0.9362481,None,,,,,,,,,1,6,18,4,184.5789037,,,,,,,,,,,,,,,,,184.5649448,184.9291593,185.744745,185.7289152,,,,,,,,,,,,,,,,,,,,,,,,,,,,,,,,,,,185.7336951,185.744745,185.744745,186.6952812,r,1,0.9362481,None,,,,sub-157,1,2025-03-11_10h57.30.460,stroop_test,04.02.2024,60.09377031,2025-03-11 10h57.55.965262 +0100
,,,,19,7,1,,,,,,,,,,,,,rot,blue,b,0,b,1,0.9700238,None,,,,,,,,,1,7,19,2,186.7107661,,,,,,,,,,,,,,,,,186.6958334,187.509675,188.3091521,188.2933458,,,,,,,,,,,,,,,,,,,,,,,,,,,,,,,,,,,188.2980921,188.3091521,188.3091521,189.2937161,b,1,0.9700238,None,,,,sub-157,1,2025-03-11_10h57.30.460,stroop_test,04.02.2024,60.09377031,2025-03-11 10h57.55.965262 +0100
,,,,20,8,1,,,,,,,,,,,,,rot,red,r,1,r,1,0.8754331,None,,,,,,,,,1,8,20,1,189.3081815,,,,,,,,,,,,,,,,,189.2942815,189.6580649,190.4573061,190.4416071,,,,,,,,,,,,,,,,,,,,,,,,,,,,,,,,,,,190.4423794,190.4573061,190.4573061,191.3414436,r,1,0.8754331,None,,,,sub-157,1,2025-03-11_10h57.30.460,stroop_test,04.02.2024,60.09377031,2025-03-11 10h57.55.965262 +0100
,,,,21,9,1,,,,,,,,,,,,,gelb,yellow,g,1,g,1,0.5977479,None,,,,,,,,,1,9,21,10,191.3563844,,,,,,,,,,,,,,,,,191.3420027,192.1555647,192.9552259,192.9392465,,,,,,,,,,,,,,,,,,,,,,,,,,,,,,,,,,,192.94357,192.9552259,192.9552259,193.5562697,g,1,0.5977479,None,,,,sub-157,1,2025-03-11_10h57.30.460,stroop_test,04.02.2024,60.09377031,2025-03-11 10h57.55.965262 +0100
,,,,22,10,1,,,,,,,,,,,,,blau,blue,b,1,b,1,0.9184394,None,,,,,,,,,1,10,22,5,193.5709635,,,,,,,,,,,,,,,,,193.5568254,194.7699507,195.5701059,195.5540192,,,,,,,,,,,,,,,,,,,,,,,,,,,,,,,,,,,195.5587435,195.5701059,195.5701059,196.5025947,b,1,0.9184394,None,,,,sub-157,1,2025-03-11_10h57.30.460,stroop_test,04.02.2024,60.09377031,2025-03-11 10h57.55.965262 +0100
,,,,23,11,1,,,,,,,,,,,,,blau,blue,b,1,b,1,0.6905522,None,,,,,,,,,1,11,23,6,196.5188104,,,,,,,,,,,,,,,,,196.5029649,196.6017525,197.4011134,197.3853519,,,,,,,,,,,,,,,,,,,,,,,,,,,,,,,,,,,197.3861161,197.4011134,197.4011134,198.1021638,b,1,0.6905522,None,,,,sub-157,1,2025-03-11_10h57.30.460,stroop_test,04.02.2024,60.09377031,2025-03-11 10h57.55.965262 +0100
,,,,24,0,2,,,,,,,,,,,,,blau,blue,b,1,b,1,0.7274217,None,,,,,,,,,2,0,24,5,198.1171816,,,,,,,,,,,,,,,,,198.1027179,198.4667359,199.2659816,199.2508539,,,,,,,,,,,,,,,,,,,,,,,,,,,,,,,,,,,199.2515999,199.2659816,199.2659816,200.000367,b,1,0.7274217,None,,,,sub-157,1,2025-03-11_10h57.30.460,stroop_test,04.02.2024,60.09377031,2025-03-11 10h57.55.965262 +0100
,,,,25,1,2,,,,,,,,,,,,,gelb,blue,b,0,b,1,0.9644834,None,,,,,,,,,2,1,25,9,200.0155057,,,,,,,,,,,,,,,,,200.0009275,200.1152422,200.9151475,200.8997445,,,,,,,,,,,,,,,,,,,,,,,,,,,,,,,,,,,200.9051335,200.9151475,200.9151475,201.8822948,b,1,0.9644834,None,,,,sub-157,1,2025-03-11_10h57.30.460,stroop_test,04.02.2024,60.09377031,2025-03-11 10h57.55.965262 +0100
,,,,26,2,2,,,,,,,,,,,,,rot,red,r,1,r,1,0.6479021,None,,,,,,,,,2,2,26,1,201.8969487,,,,,,,,,,,,,,,,,201.8828506,201.9970501,202.7971431,202.7810221,,,,,,,,,,,,,,,,,,,,,,,,,,,,,,,,,,,202.7858896,202.7971431,202.7971431,203.4476216,r,1,0.6479021,None,,,,sub-157,1,2025-03-11_10h57.30.460,stroop_test,04.02.2024,60.09377031,2025-03-11 10h57.55.965262 +0100
,,,,27,3,2,,,,,,,,,,,,,rot,blue,b,0,b,1,0.9651727,None,,,,,,,,,2,3,27,2,203.4622805,,,,,,,,,,,,,,,,,203.4481883,204.6616675,205.4772058,205.4615284,,,,,,,,,,,,,,,,,,,,,,,,,,,,,,,,,,,205.4622739,205.4772058,205.4772058,206.4449817,b,1,0.9651727,None,,,,sub-157,1,2025-03-11_10h57.30.460,stroop_test,04.02.2024,60.09377031,2025-03-11 10h57.55.965262 +0100
,,,,28,4,2,,,,,,,,,,,,,gelb,yellow,g,1,g,1,0.7828943,None,,,,,,,,,2,4,28,10,206.4596362,,,,,,,,,,,,,,,,,206.4455402,206.8092751,207.6087091,207.5932645,,,,,,,,,,,,,,,,,,,,,,,,,,,,,,,,,,,207.5975186,207.6087091,207.6087091,208.3935558,g,1,0.7828943,None,,,,sub-157,1,2025-03-11_10h57.30.460,stroop_test,04.02.2024,60.09377031,2025-03-11 10h57.55.965262 +0100
,,,,29,5,2,,,,,,,,,,,,,blau,blue,b,1,b,1,0.9719455,None,,,,,,,,,2,5,29,6,208.4082032,,,,,,,,,,,,,,,,,208.3941138,209.6070424,210.4062816,210.3904927,,,,,,,,,,,,,,,,,,,,,,,,,,,,,,,,,,,210.3952537,210.4062816,210.4062816,211.3917501,b,1,0.9719455,None,,,,sub-157,1,2025-03-11_10h57.30.460,stroop_test,04.02.2024,60.09377031,2025-03-11 10h57.55.965262 +0100
,,,,30,6,2,,,,,,,,,,,,,gelb,red,r,0,r,1,0.8874779,None,,,,,,,,,2,6,30,8,211.4054105,,,,,,,,,,,,,,,,,211.392311,211.7550693,212.554436,212.5391628,,,,,,,,,,,,,,,,,,,,,,,,,,,,,,,,,,,212.5434703,212.554436,212.554436,213.455253,r,1,0.8874779,None,,,,sub-157,1,2025-03-11_10h57.30.460,stroop_test,04.02.2024,60.09377031,2025-03-11 10h57.55.965262 +0100
,,,,31,7,2,,,,,,,,,,,,,blau,red,r,0,r,1,0.9226918,None,,,,,,,,,2,7,31,4,213.4701174,,,,,,,,,,,,,,,,,213.455813,214.2693827,215.068845,215.0533448,,,,,,,,,,,,,,,,,,,,,,,,,,,,,,,,,,,215.058078,215.068845,215.068845,216.0030347,r,1,0.9226918,None,,,,sub-157,1,2025-03-11_10h57.30.460,stroop_test,04.02.2024,60.09377031,2025-03-11 10h57.55.965262 +0100
,,,,32,8,2,,,,,,,,,,,,,rot,yellow,g,0,g,1,1.3430969,None,,,,,,,,,2,8,32,3,216.0179015,,,,,,,,,,,,,,,,,216.0036016,216.3687136,217.1835601,217.1682547,,,,,,,,,,,,,,,,,,,,,,,,,,,,,,,,,,,217.1738203,217.1835601,217.1835601,218.5340412,g,1,1.3430969,None,,,,sub-157,1,2025-03-11_10h57.30.460,stroop_test,04.02.2024,60.09377031,2025-03-11 10h57.55.965262 +0100
,,,,33,9,2,,,,,,,,,,,,,gelb,yellow,g,1,g,1,3.8812879,None,,,,,,,,,2,9,33,11,218.5489182,,,,,,,,,,,,,,,,,218.53459,219.7479069,220.5471271,220.5314926,,,,,,,,,,,,,,,,,,,,,,,,,,,,,,,,,,,220.5358471,220.5471271,220.5471271,224.4459408,g,1,3.8812879,None,,,,sub-157,1,2025-03-11_10h57.30.460,stroop_test,04.02.2024,60.09377031,2025-03-11 10h57.55.965262 +0100
,,,,34,10,2,,,,,,,,,,,,,blau,yellow,g,0,g,1,0.7765774,None,,,,,,,,,2,10,34,7,224.4603878,,,,,,,,,,,,,,,,,224.4465041,224.5603172,225.3602058,225.3439924,,,,,,,,,,,,,,,,,,,,,,,,,,,,,,,,,,,225.3487253,225.3602058,225.3602058,226.1441248,g,1,0.7765774,None,,,,sub-157,1,2025-03-11_10h57.30.460,stroop_test,04.02.2024,60.09377031,2025-03-11 10h57.55.965262 +0100
,,,,35,11,2,,,,,,,,,,,,,rot,red,r,1,r,1,0.7467901,None,,,,,,,,,2,11,35,0,226.1589205,,,,,,,,,,,,,,,,,226.1446798,227.3578616,228.1572675,228.1418118,,,,,,,,,,,,,,,,,,,,,,,,,,,,,,,,,,,228.1465858,228.1572675,228.1572675,228.9086386,r,1,0.7467901,None,,,,sub-157,1,2025-03-11_10h57.30.460,stroop_test,04.02.2024,60.09377031,2025-03-11 10h57.55.965262 +0100
,,,,36,0,3,,,,,,,,,,,,,blau,yellow,g,0,g,1,1.9253444,None,,,,,,,,,3,0,36,7,228.9231357,,,,,,,,,,,,,,,,,228.9092061,229.2728885,230.0721905,230.0563809,,,,,,,,,,,,,,,,,,,,,,,,,,,,,,,,,,,230.0611342,230.0721905,230.0721905,232.0054467,g,1,1.9253444,None,,,,sub-157,1,2025-03-11_10h57.30.460,stroop_test,04.02.2024,60.09377031,2025-03-11 10h57.55.965262 +0100
,,,,37,1,3,,,,,,,,,,,,,rot,yellow,g,0,g,1,0.8583299,None,,,,,,,,,3,1,37,3,232.0204602,,,,,,,,,,,,,,,,,232.0060098,232.1204061,232.9202047,232.9039279,,,,,,,,,,,,,,,,,,,,,,,,,,,,,,,,,,,232.9088118,232.9202047,232.9202047,233.7872355,g,1,0.8583299,None,,,,sub-157,1,2025-03-11_10h57.30.460,stroop_test,04.02.2024,60.09377031,2025-03-11 10h57.55.965262 +0100
,,,,38,2,3,,,,,,,,,,,,,gelb,blue,b,0,b,1,1.2848001,None,,,,,,,,,3,2,38,9,233.8022355,,,,,,,,,,,,,,,,,233.7878071,234.6014287,235.400863,235.3850904,,,,,,,,,,,,,,,,,,,,,,,,,,,,,,,,,,,235.3903038,235.400863,235.400863,236.701485,b,1,1.2848001,None,,,,sub-157,1,2025-03-11_10h57.30.460,stroop_test,04.02.2024,60.09377031,2025-03-11 10h57.55.965262 +0100
,,,,39,3,3,,,,,,,,,,,,,rot,red,r,1,r,1,0.6424581,None,,,,,,,,,3,3,39,0,236.7162398,,,,,,,,,,,,,,,,,236.7020472,237.0662669,237.8820318,237.8668384,,,,,,,,,,,,,,,,,,,,,,,,,,,,,,,,,,,237.8715864,237.8820318,237.8820318,238.5330878,r,1,0.6424581,None,,,,sub-157,1,2025-03-11_10h57.30.460,stroop_test,04.02.2024,60.09377031,2025-03-11 10h57.55.965262 +0100
,,,,40,4,3,,,,,,,,,,,,,gelb,yellow,g,1,g,1,0.680572,None,,,,,,,,,3,4,40,11,238.5481879,,,,,,,,,,,,,,,,,238.5336523,239.3476297,240.1470153,240.1310248,,,,,,,,,,,,,,,,,,,,,,,,,,,,,,,,,,,240.1355622,240.1470153,240.1470153,240.8311063,g,1,0.680572,None,,,,sub-157,1,2025-03-11_10h57.30.460,stroop_test,04.02.2024,60.09377031,2025-03-11 10h57.55.965262 +0100
,,,,41,5,3,,,,,,,,,,,,,rot,red,r,1,r,1,0.5327756,None,,,,,,,,,3,5,41,1,240.8463009,,,,,,,,,,,,,,,,,240.8316543,242.0450648,242.8443034,242.8285467,,,,,,,,,,,,,,,,,,,,,,,,,,,,,,,,,,,242.8335496,242.8443034,242.8443034,243.3791958,r,1,0.5327756,None,,,,sub-157,1,2025-03-11_10h57.30.460,stroop_test,04.02.2024,60.09377031,2025-03-11 10h57.55.965262 +0100
,,,,42,6,3,,,,,,,,,,,,,blau,blue,b,1,b,1,0.6168579,None,,,,,,,,,3,6,42,6,243.3938489,,,,,,,,,,,,,,,,,243.3797527,243.4936067,244.2930069,244.2774312,,,,,,,,,,,,,,,,,,,,,,,,,,,,,,,,,,,244.2821609,244.2930069,244.2930069,244.9273026,b,1,0.6168579,None,,,,sub-157,1,2025-03-11_10h57.30.460,stroop_test,04.02.2024,60.09377031,2025-03-11 10h57.55.965262 +0100
,,,,43,7,3,,,,,,,,,,,,,blau,red,r,0,r,1,1.0729898,None,,,,,,,,,3,7,43,4,244.9426657,,,,,,,,,,,,,,,,,244.9278605,245.7418132,246.5411112,246.5252822,,,,,,,,,,,,,,,,,,,,,,,,,,,,,,,,,,,246.5260525,246.5411112,246.5411112,247.625013,r,1,1.0729898,None,,,,sub-157,1,2025-03-11_10h57.30.460,stroop_test,04.02.2024,60.09377031,2025-03-11 10h57.55.965262 +0100
,,,,44,8,3,,,,,,,,,,,,,rot,blue,b,0,b,1,1.3417914,None,,,,,,,,,3,8,44,2,247.6402337,,,,,,,,,,,,,,,,,247.6255648,248.8388997,249.6384669,249.6225984,,,,,,,,,,,,,,,,,,,,,,,,,,,,,,,,,,,249.6273451,249.6384669,249.6384669,250.9882371,b,1,1.3417914,None,,,,sub-157,1,2025-03-11_10h57.30.460,stroop_test,04.02.2024,60.09377031,2025-03-11 10h57.55.965262 +0100
,,,,45,9,3,,,,,,,,,,,,,gelb,yellow,g,1,g,1,0.7175095,None,,,,,,,,,3,9,45,10,251.0035764,,,,,,,,,,,,,,,,,250.9885976,251.3534074,252.1529275,252.1369224,,,,,,,,,,,,,,,,,,,,,,,,,,,,,,,,,,,252.1420012,252.1529275,252.1529275,252.8875914,g,1,0.7175095,None,,,,sub-157,1,2025-03-11_10h57.30.460,stroop_test,04.02.2024,60.09377031,2025-03-11 10h57.55.965262 +0100
,,,,46,10,3,,,,,,,,,,,,,gelb,red,r,0,r,1,0.8351122,None,,,,,,,,,3,10,46,8,252.9019294,,,,,,,,,,,,,,,,,252.8881504,253.0018579,253.8011401,253.7855627,,,,,,,,,,,,,,,,,,,,,,,,,,,,,,,,,,,253.7863189,253.8011401,253.8011401,254.6521765,r,1,0.8351122,None,,,,sub-157,1,2025-03-11_10h57.30.460,stroop_test,04.02.2024,60.09377031,2025-03-11 10h57.55.965262 +0100
,,,,47,11,3,,,,,,,,,,,,,blau,blue,b,1,b,1,0.6767914,None,,,,,,,,,3,11,47,5,254.6670994,,,,,,,,,,,,,,,,,254.6527299,255.8660585,256.6663993,256.6498075,,,,,,,,,,,,,,,,,,,,,,,,,,,,,,,,,,,256.6550937,256.6663993,256.6663993,257.3499997,b,1,0.6767914,None,,,,sub-157,1,2025-03-11_10h57.30.460,stroop_test,04.02.2024,60.09377031,2025-03-11 10h57.55.965262 +0100
,,,,48,0,4,,,,,,,,,,,,,rot,yellow,g,0,g,1,0.9301434,None,,,,,,,,,4,0,48,3,257.3647894,,,,,,,,,,,,,,,,,257.3505546,258.1641865,258.963524,258.9477359,,,,,,,,,,,,,,,,,,,,,,,,,,,,,,,,,,,258.9525354,258.963524,258.963524,259.8977059,g,1,0.9301434,None,,,,sub-157,1,2025-03-11_10h57.30.460,stroop_test,04.02.2024,60.09377031,2025-03-11 10h57.55.965262 +0100
,,,,49,1,4,,,,,,,,,,,,,blau,blue,b,1,b,1,0.7863802,None,,,,,,,,,4,1,49,6,259.9124755,,,,,,,,,,,,,,,,,259.8982618,260.262131,261.0626608,261.0457229,,,,,,,,,,,,,,,,,,,,,,,,,,,,,,,,,,,261.0504324,261.0626608,261.0626608,261.862568,b,1,0.7863802,None,,,,sub-157,1,2025-03-11_10h57.30.460,stroop_test,04.02.2024,60.09377031,2025-03-11 10h57.55.965262 +0100
,,,,50,2,4,,,,,,,,,,,,,gelb,yellow,g,1,g,1,1.2105109,None,,,,,,,,,4,2,50,10,261.8773953,,,,,,,,,,,,,,,,,261.8631286,262.6769822,263.4760724,263.4605384,,,,,,,,,,,,,,,,,,,,,,,,,,,,,,,,,,,263.464829,263.4760724,263.4760724,264.6934958,g,1,1.2105109,None,,,,sub-157,1,2025-03-11_10h57.30.460,stroop_test,04.02.2024,60.09377031,2025-03-11 10h57.55.965262 +0100
,,,,51,3,4,,,,,,,,,,,,,rot,red,r,1,r,1,0.7588489,None,,,,,,,,,4,3,51,1,264.7082979,,,,,,,,,,,,,,,,,264.694053,265.9070946,266.7065707,266.6908481,,,,,,,,,,,,,,,,,,,,,,,,,,,,,,,,,,,266.6955945,266.7065707,266.7065707,267.4741709,r,1,0.7588489,None,,,,sub-157,1,2025-03-11_10h57.30.460,stroop_test,04.02.2024,60.09377031,2025-03-11 10h57.55.965262 +0100
,,,,52,4,4,,,,,,,,,,,,,gelb,yellow,g,1,g,1,1.2583548,None,,,,,,,,,4,4,52,11,267.4891676,,,,,,,,,,,,,,,,,267.4747193,268.6882768,269.4877543,269.4717093,,,,,,,,,,,,,,,,,,,,,,,,,,,,,,,,,,,269.4768005,269.4877543,269.4877543,270.7546616,g,1,1.2583548,None,,,,sub-157,1,2025-03-11_10h57.30.460,stroop_test,04.02.2024,60.09377031,2025-03-11 10h57.55.965262 +0100
,,,,53,5,4,,,,,,,,,,,,,rot,red,r,1,r,1,0.8201491,None,,,,,,,,,4,5,53,0,270.7700215,,,,,,,,,,,,,,,,,270.7552189,271.9684721,272.7681403,272.7520932,,,,,,,,,,,,,,,,,,,,,,,,,,,,,,,,,,,272.7568634,272.7681403,272.7681403,273.6021603,r,1,0.8201491,None,,,,sub-157,1,2025-03-11_10h57.30.460,stroop_test,04.02.2024,60.09377031,2025-03-11 10h57.55.965262 +0100
,,,,54,6,4,,,,,,,,,,,,,gelb,red,r,0,r,1,0.9853115,None,,,,,,,,,4,6,54,8,273.6169714,,,,,,,,,,,,,,,,,273.6027195,273.717087,274.5163849,274.5010405,,,,,,,,,,,,,,,,,,,,,,,,,,,,,,,,,,,274.5054858,274.5163849,274.5163849,275.5171967,r,1,0.9853115,None,,,,sub-157,1,2025-03-11_10h57.30.460,stroop_test,04.02.2024,60.09377031,2025-03-11 10h57.55.965262 +0100
,,,,55,7,4,,,,,,,,,,,,,blau,yellow,g,0,g,1,1.9925898,None,,,,,,,,,4,7,55,7,275.5319637,,,,,,,,,,,,,,,,,275.5177705,275.6319962,276.4313814,276.4158364,,,,,,,,,,,,,,,,,,,,,,,,,,,,,,,,,,,276.4208936,276.4313814,276.4313814,278.4315257,g,1,1.9925898,None,,,,sub-157,1,2025-03-11_10h57.30.460,stroop_test,04.02.2024,60.09377031,2025-03-11 10h57.55.965262 +0100
,,,,56,8,4,,,,,,,,,,,,,blau,blue,b,1,b,1,0.7408978,None,,,,,,,,,4,8,56,5,278.4460738,,,,,,,,,,,,,,,,,278.4320859,279.6449474,280.4444371,280.4291519,,,,,,,,,,,,,,,,,,,,,,,,,,,,,,,,,,,280.4298997,280.4444371,280.4444371,281.1954796,b,1,0.7408978,None,,,,sub-157,1,2025-03-11_10h57.30.460,stroop_test,04.02.2024,60.09377031,2025-03-11 10h57.55.965262 +0100
,,,,57,9,4,,,,,,,,,,,,,blau,red,r,0,r,1,1.6306087,None,,,,,,,,,4,9,57,4,281.2103789,,,,,,,,,,,,,,,,,281.1960239,281.5599986,282.3594237,282.3438018,,,,,,,,,,,,,,,,,,,,,,,,,,,,,,,,,,,282.3446581,282.3594237,282.3594237,283.9930967,r,1,1.6306087,None,,,,sub-157,1,2025-03-11_10h57.30.460,stroop_test,04.02.2024,60.09377031,2025-03-11 10h57.55.965262 +0100
,,,,58,10,4,,,,,,,,,,,,,rot,blue,b,0,b,1,0.8351492,None,,,,,,,,,4,10,58,2,284.0079317,,,,,,,,,,,,,,,,,283.9936517,284.1077512,284.9073214,284.8919622,,,,,,,,,,,,,,,,,,,,,,,,,,,,,,,,,,,284.8968612,284.9073214,284.9073214,285.7581118,b,1,0.8351492,None,,,,sub-157,1,2025-03-11_10h57.30.460,stroop_test,04.02.2024,60.09377031,2025-03-11 10h57.55.965262 +0100
,,,,59,11,4,,,,,,,,,,,,,gelb,blue,b,0,b,1,1.0337327,None,,,,,,,,,4,11,59,9,285.7729599,,,,,,,,,,,,,,,,,285.7586604,285.8740855,286.6890984,286.6734891,,,,,,,,,,,,,,,,,,,,,,,,,,,,,,,,,,,286.677824,286.6890984,286.6890984,287.739745,b,1,1.0337327,None,,,,sub-157,1,2025-03-11_10h57.30.460,stroop_test,04.02.2024,60.09377031,2025-03-11 10h57.55.965262 +0100
,,,,60,0,5,,,,,,,,,,,,,blau,yellow,g,0,g,1,0.9450688,None,,,,,,,,,5,0,60,7,287.7545162,,,,,,,,,,,,,,,,,287.7402995,287.8544165,288.670529,288.6395378,,,,,,,,,,,,,,,,,,,,,,,,,,,,,,,,,,,288.6459621,288.670529,288.670529,289.621805,g,1,0.9450688,None,,,,sub-157,1,2025-03-11_10h57.30.460,stroop_test,04.02.2024,60.09377031,2025-03-11 10h57.55.965262 +0100
,,,,61,1,5,,,,,,,,,,,,,rot,red,r,1,r,1,0.7380028,None,,,,,,,,,5,1,61,1,289.6361896,,,,,,,,,,,,,,,,,289.6227231,290.8351459,291.6345435,291.6186889,,,,,,,,,,,,,,,,,,,,,,,,,,,,,,,,,,,291.6234103,291.6345435,291.6345435,292.3855516,r,1,0.7380028,None,,,,sub-157,1,2025-03-11_10h57.30.460,stroop_test,04.02.2024,60.09377031,2025-03-11 10h57.55.965262 +0100
,,,,62,2,5,,,,,,,,,,,,,blau,blue,b,1,b,1,0.9050678,None,,,,,,,,,5,2,62,5,292.4004003,,,,,,,,,,,,,,,,,292.3861127,293.199759,293.9993071,293.9833019,,,,,,,,,,,,,,,,,,,,,,,,,,,,,,,,,,,293.9879777,293.9993071,293.9993071,294.9198183,b,1,0.9050678,None,,,,sub-157,1,2025-03-11_10h57.30.460,stroop_test,04.02.2024,60.09377031,2025-03-11 10h57.55.965262 +0100
,,,,63,3,5,,,,,,,,,,,,,rot,yellow,g,0,g,1,1.0850455,None,,,,,,,,,5,3,63,3,294.934567,,,,,,,,,,,,,,,,,294.9203626,295.284425,296.0835028,296.0678664,,,,,,,,,,,,,,,,,,,,,,,,,,,,,,,,,,,296.0725955,296.0835028,296.0835028,297.184719,g,1,1.0850455,None,,,,sub-157,1,2025-03-11_10h57.30.460,stroop_test,04.02.2024,60.09377031,2025-03-11 10h57.55.965262 +0100
,,,,64,4,5,,,,,,,,,,,,,rot,red,r,1,r,1,0.7776687,None,,,,,,,,,5,4,64,0,297.1995452,,,,,,,,,,,,,,,,,297.1853356,297.9984462,298.7977957,298.7821197,,,,,,,,,,,,,,,,,,,,,,,,,,,,,,,,,,,298.7828738,298.7977957,298.7977957,299.5824713,r,1,0.7776687,None,,,,sub-157,1,2025-03-11_10h57.30.460,stroop_test,04.02.2024,60.09377031,2025-03-11 10h57.55.965262 +0100
,,,,65,5,5,,,,,,,,,,,,,blau,red,r,0,r,1,1.021606,None,,,,,,,,,5,5,65,4,299.5970893,,,,,,,,,,,,,,,,,299.5830579,299.9472649,300.7627496,300.7472043,,,,,,,,,,,,,,,,,,,,,,,,,,,,,,,,,,,300.7519297,300.7627496,300.7627496,301.7968899,r,1,1.021606,None,,,,sub-157,1,2025-03-11_10h57.30.460,stroop_test,04.02.2024,60.09377031,2025-03-11 10h57.55.965262 +0100
,,,,66,6,5,,,,,,,,,,,,,gelb,yellow,g,1,g,1,0.8308627,None,,,,,,,,,5,6,66,10,301.8122065,,,,,,,,,,,,,,,,,301.7974391,301.9122107,302.7276264,302.7120665,,,,,,,,,,,,,,,,,,,,,,,,,,,,,,,,,,,302.7165084,302.7276264,302.7276264,303.5615871,g,1,0.8308627,None,,,,sub-157,1,2025-03-11_10h57.30.460,stroop_test,04.02.2024,60.09377031,2025-03-11 10h57.55.965262 +0100
,,,,67,7,5,,,,,,,,,,,,,gelb,blue,b,0,b,1,1.4845119,None,,,,,,,,,5,7,67,9,303.576869,,,,,,,,,,,,,,,,,303.5619632,303.9265374,304.726327,304.7108556,,,,,,,,,,,,,,,,,,,,,,,,,,,,,,,,,,,304.7116068,304.726327,304.726327,306.2263398,b,1,1.4845119,None,,,,sub-157,1,2025-03-11_10h57.30.460,stroop_test,04.02.2024,60.09377031,2025-03-11 10h57.55.965262 +0100
,,,,68,8,5,,,,,,,,,,,,,gelb,yellow,g,1,g,1,0.7489517,None,,,,,,,,,5,8,68,11,306.2419753,,,,,,,,,,,,,,,,,306.2268819,306.341122,307.1405538,307.1252705,,,,,,,,,,,,,,,,,,,,,,,,,,,,,,,,,,,307.1260215,307.1405538,307.1405538,307.8919264,g,1,0.7489517,None,,,,sub-157,1,2025-03-11_10h57.30.460,stroop_test,04.02.2024,60.09377031,2025-03-11 10h57.55.965262 +0100
,,,,69,9,5,,,,,,,,,,,,,rot,blue,b,0,b,1,1.5438539,None,,,,,,,,,5,9,69,2,307.9063487,,,,,,,,,,,,,,,,,307.8925197,309.1054941,309.9045832,309.8889252,,,,,,,,,,,,,,,,,,,,,,,,,,,,,,,,,,,309.8945008,309.9045832,309.9045832,311.4557338,b,1,1.5438539,None,,,,sub-157,1,2025-03-11_10h57.30.460,stroop_test,04.02.2024,60.09377031,2025-03-11 10h57.55.965262 +0100
,,,,70,10,5,,,,,,,,,,,,,gelb,red,r,0,r,1,0.86107,None,,,,,,,,,5,10,70,8,311.4703139,,,,,,,,,,,,,,,,,311.456312,311.819703,312.6189593,312.6037663,,,,,,,,,,,,,,,,,,,,,,,,,,,,,,,,,,,312.6080805,312.6189593,312.6189593,313.4865981,r,1,0.86107,None,,,,sub-157,1,2025-03-11_10h57.30.460,stroop_test,04.02.2024,60.09377031,2025-03-11 10h57.55.965262 +0100
,,,,71,11,5,,,,,,,,,,,,,blau,blue,b,1,b,1,0.6595369,None,,,,,,,,,5,11,71,6,313.5014295,,,,,,,,,,,,,,,,,313.4871533,314.3008175,315.1000575,315.0846575,,,,,,,,,,,,,,,,,,,,,,,,,,,,,,,,,,,315.0893689,315.1000575,315.1000575,315.7681099,b,1,0.6595369,None,,,,sub-157,1,2025-03-11_10h57.30.460,stroop_test,04.02.2024,60.09377031,2025-03-11 10h57.55.965262 +0100
,,,,72,0,6,,,,,,,,,,,,,rot,red,r,1,r,1,0.9436368,None,,,,,,,,,6,0,72,1,315.7827401,,,,,,,,,,,,,,,,,315.7686639,316.1330135,316.9484956,316.9328523,,,,,,,,,,,,,,,,,,,,,,,,,,,,,,,,,,,316.937587,316.9484956,316.9484956,317.8993825,r,1,0.9436368,None,,,,sub-157,1,2025-03-11_10h57.30.460,stroop_test,04.02.2024,60.09377031,2025-03-11 10h57.55.965262 +0100
,,,,73,1,6,,,,,,,,,,,,,blau,red,r,0,r,1,1.0537318,None,,,,,,,,,6,1,73,4,317.9141842,,,,,,,,,,,,,,,,,317.8999453,318.2639731,319.0632463,319.0480589,,,,,,,,,,,,,,,,,,,,,,,,,,,,,,,,,,,319.0527691,319.0632463,319.0632463,320.1309035,r,1,1.0537318,None,,,,sub-157,1,2025-03-11_10h57.30.460,stroop_test,04.02.2024,60.09377031,2025-03-11 10h57.55.965262 +0100
,,,,74,2,6,,,,,,,,,,,,,gelb,yellow,g,1,g,1,0.8862298,None,,,,,,,,,6,2,74,10,320.1455914,,,,,,,,,,,,,,,,,320.1314535,320.9448707,321.7442205,321.728628,,,,,,,,,,,,,,,,,,,,,,,,,,,,,,,,,,,321.7330216,321.7442205,321.7442205,322.645222,g,1,0.8862298,None,,,,sub-157,1,2025-03-11_10h57.30.460,stroop_test,04.02.2024,60.09377031,2025-03-11 10h57.55.965262 +0100
,,,,75,3,6,,,,,,,,,,,,,blau,yellow,g,0,g,1,0.9840481,None,,,,,,,,,6,3,75,7,322.6599538,,,,,,,,,,,,,,,,,322.6458305,323.8599366,324.6749891,324.6592461,,,,,,,,,,,,,,,,,,,,,,,,,,,,,,,,,,,324.6647666,324.6749891,324.6749891,325.6757963,g,1,0.9840481,None,,,,sub-157,1,2025-03-11_10h57.30.460,stroop_test,04.02.2024,60.09377031,2025-03-11 10h57.55.965262 +0100
,,,,76,4,6,,,,,,,,,,,,,gelb,yellow,g,1,g,1,1.1937446,None,,,,,,,,,6,4,76,11,325.6906612,,,,,,,,,,,,,,,,,325.6763538,326.0407202,326.8534696,326.8243128,,,,,,,,,,,,,,,,,,,,,,,,,,,,,,,,,,,326.8303196,326.8534696,326.8534696,328.0541728,g,1,1.1937446,None,,,,sub-157,1,2025-03-11_10h57.30.460,stroop_test,04.02.2024,60.09377031,2025-03-11 10h57.55.965262 +0100
,,,,77,5,6,,,,,,,,,,,,,rot,yellow,g,0,g,1,0.9060844,None,,,,,,,,,6,5,77,3,328.0690428,,,,,,,,,,,,,,,,,328.0547371,328.1689235,328.9691434,328.9541178,,,,,,,,,,,,,,,,,,,,,,,,,,,,,,,,,,,328.9596519,328.9691434,328.9691434,329.8887992,g,1,0.9060844,None,,,,sub-157,1,2025-03-11_10h57.30.460,stroop_test,04.02.2024,60.09377031,2025-03-11 10h57.55.965262 +0100
,,,,78,6,6,,,,,,,,,,,,,rot,blue,b,0,b,1,1.1001115,None,,,,,,,,,6,6,78,2,329.903812,,,,,,,,,,,,,,,,,329.889361,330.2533773,331.0526664,331.037412,,,,,,,,,,,,,,,,,,,,,,,,,,,,,,,,,,,331.0381652,331.0526664,331.0526664,332.1701404,b,1,1.1001115,None,,,,sub-157,1,2025-03-11_10h57.30.460,stroop_test,04.02.2024,60.09377031,2025-03-11 10h57.55.965262 +0100
,,,,79,7,6,,,,,,,,,,,,,rot,red,r,1,r,1,0.6869681,None,,,,,,,,,6,7,79,0,332.1851252,,,,,,,,,,,,,,,,,332.1706985,332.2849433,333.0841412,333.0689424,,,,,,,,,,,,,,,,,,,,,,,,,,,,,,,,,,,333.0696976,333.0841412,333.0841412,333.7853264,r,1,0.6869681,None,,,,sub-157,1,2025-03-11_10h57.30.460,stroop_test,04.02.2024,60.09377031,2025-03-11 10h57.55.965262 +0100
,,,,80,8,6,,,,,,,,,,,,,gelb,red,r,0,r,1,0.8604908,None,,,,,,,,,6,8,80,8,333.8005716,,,,,,,,,,,,,,,,,333.7858834,333.9000995,334.7000388,334.6838933,,,,,,,,,,,,,,,,,,,,,,,,,,,,,,,,,,,334.6886556,334.7000388,334.7000388,335.5673102,r,1,0.8604908,None,,,,sub-157,1,2025-03-11_10h57.30.460,stroop_test,04.02.2024,60.09377031,2025-03-11 10h57.55.965262 +0100
,,,,81,9,6,,,,,,,,,,,,,blau,blue,b,1,b,1,0.6383805,None,,,,,,,,,6,9,81,5,335.5821207,,,,,,,,,,,,,,,,,335.5678838,336.3812724,337.1805757,337.1649382,,,,,,,,,,,,,,,,,,,,,,,,,,,,,,,,,,,337.1696497,337.1805757,337.1805757,337.8322227,b,1,0.6383805,None,,,,sub-157,1,2025-03-11_10h57.30.460,stroop_test,04.02.2024,60.09377031,2025-03-11 10h57.55.965262 +0100
,,,,82,10,6,,,,,,,,,,,,,gelb,blue,b,0,b,1,0.9849361,None,,,,,,,,,6,10,82,9,337.8470115,,,,,,,,,,,,,,,,,337.8327818,339.0455519,339.844992,339.8292303,,,,,,,,,,,,,,,,,,,,,,,,,,,,,,,,,,,339.8334917,339.844992,339.844992,340.8463104,b,1,0.9849361,None,,,,sub-157,1,2025-03-11_10h57.30.460,stroop_test,04.02.2024,60.09377031,2025-03-11 10h57.55.965262 +0100
,,,,83,11,6,,,,,,,,,,,,,blau,blue,b,1,b,1,0.771167,None,,,,,,,,,6,11,83,6,340.8609472,,,,,,,,,,,,,,,,,340.8468635,342.0596773,342.8725814,342.8437327,,,,,,,,,,,,,,,,,,,,,,,,,,,,,,,,,,,342.8493298,342.8725814,342.8725814,343.6571609,b,1,0.771167,None,,,,sub-157,1,2025-03-11_10h57.30.460,stroop_test,04.02.2024,60.09377031,2025-03-11 10h57.55.965262 +0100
,,,,84,0,7,,,,,,,,,,,,,gelb,red,r,0,r,1,1.0969765,None,,,,,,,,,7,0,84,8,343.6718645,,,,,,,,,,,,,,,,,343.6577246,343.7717177,344.5710817,344.5554314,,,,,,,,,,,,,,,,,,,,,,,,,,,,,,,,,,,344.5597555,344.5710817,344.5710817,345.6719917,r,1,1.0969765,None,,,,sub-157,1,2025-03-11_10h57.30.460,stroop_test,04.02.2024,60.09377031,2025-03-11 10h57.55.965262 +0100
,,,,85,1,7,,,,,,,,,,,,,rot,red,r,1,r,1,0.6601861,None,,,,,,,,,7,1,85,0,345.6867346,,,,,,,,,,,,,,,,,345.6725537,346.8856052,347.6859012,347.6692997,,,,,,,,,,,,,,,,,,,,,,,,,,,,,,,,,,,347.6743289,347.6859012,347.6859012,348.3518489,r,1,0.6601861,None,,,,sub-157,1,2025-03-11_10h57.30.460,stroop_test,04.02.2024,60.09377031,2025-03-11 10h57.55.965262 +0100
,,,,86,2,7,,,,,,,,,,,,,gelb,yellow,g,1,g,1,1.3711425,None,,,,,,,,,7,2,86,10,348.3680188,,,,,,,,,,,,,,,,,348.352216,348.717925,349.5330386,349.516794,,,,,,,,,,,,,,,,,,,,,,,,,,,,,,,,,,,349.5195324,349.5330386,349.5330386,350.9179837,g,1,1.3711425,None,,,,sub-157,1,2025-03-11_10h57.30.460,stroop_test,04.02.2024,60.09377031,2025-03-11 10h57.55.965262 +0100
,,,,87,3,7,,,,,,,,,,,,,rot,blue,b,0,b,1,1.0012882,None,,,,,,,,,7,3,87,2,350.9320925,,,,,,,,,,,,,,,,,350.9188151,351.7313442,352.5309126,352.51521,,,,,,,,,,,,,,,,,,,,,,,,,,,,,,,,,,,352.5199863,352.5309126,352.5309126,353.5482295,b,1,1.0012882,None,,,,sub-157,1,2025-03-11_10h57.30.460,stroop_test,04.02.2024,60.09377031,2025-03-11 10h57.55.965262 +0100
,,,,88,4,7,,,,,,,,,,,,,rot,yellow,g,0,g,1,1.2581299,None,,,,,,,,,7,4,88,3,353.5630915,,,,,,,,,,,,,,,,,353.5487894,353.9129914,354.7117096,354.6962647,,,,,,,,,,,,,,,,,,,,,,,,,,,,,,,,,,,354.6971353,354.7117096,354.7117096,355.9794236,g,1,1.2581299,None,,,,sub-157,1,2025-03-11_10h57.30.460,stroop_test,04.02.2024,60.09377031,2025-03-11 10h57.55.965262 +0100
,,,,89,5,7,,,,,,,,,,,,,blau,blue,b,1,b,1,0.6439023,None,,,,,,,,,7,5,89,6,355.9944326,,,,,,,,,,,,,,,,,355.9800028,356.7937562,357.5939749,357.5772563,,,,,,,,,,,,,,,,,,,,,,,,,,,,,,,,,,,357.5822106,357.5939749,357.5939749,358.2440446,b,1,0.6439023,None,,,,sub-157,1,2025-03-11_10h57.30.460,stroop_test,04.02.2024,60.09377031,2025-03-11 10h57.55.965262 +0100
,,,,90,6,7,,,,,,,,,,,,,rot,red,r,1,r,1,0.9980197,None,,,,,,,,,7,6,90,1,358.2590079,,,,,,,,,,,,,,,,,358.2446074,359.0582991,359.8584295,359.842062,,,,,,,,,,,,,,,,,,,,,,,,,,,,,,,,,,,359.8490407,359.8584295,359.8584295,360.8615822,r,1,0.9980197,None,,,,sub-157,1,2025-03-11_10h57.30.460,stroop_test,04.02.2024,60.09377031,2025-03-11 10h57.55.965262 +0100
,,,,91,7,7,,,,,,,,,,,,,blau,red,r,0,r,1,0.9583332,None,,,,,,,,,7,7,91,4,360.8767898,,,,,,,,,,,,,,,,,360.8621586,361.2260113,362.0253686,362.009736,,,,,,,,,,,,,,,,,,,,,,,,,,,,,,,,,,,362.0145137,362.0253686,362.0253686,362.9930032,r,1,0.9583332,None,,,,sub-157,1,2025-03-11_10h57.30.460,stroop_test,04.02.2024,60.09377031,2025-03-11 10h57.55.965262 +0100
,,,,92,8,7,,,,,,,,,,,,,gelb,yellow,g,1,g,1,0.6915927,None,,,,,,,,,7,8,92,11,363.0081323,,,,,,,,,,,,,,,,,362.9935882,363.8070321,364.6068697,364.5913992,,,,,,,,,,,,,,,,,,,,,,,,,,,,,,,,,,,364.5956516,364.6068697,364.6068697,365.30764,g,1,0.6915927,None,,,,sub-157,1,2025-03-11_10h57.30.460,stroop_test,04.02.2024,60.09377031,2025-03-11 10h57.55.965262 +0100
,,,,93,9,7,,,,,,,,,,,,,blau,blue,b,1,b,1,0.5768877,None,,,,,,,,,7,9,93,5,365.3223346,,,,,,,,,,,,,,,,,365.3081967,366.1217122,366.9213878,366.9056781,,,,,,,,,,,,,,,,,,,,,,,,,,,,,,,,,,,366.9104622,366.9213878,366.9213878,367.5060727,b,1,0.5768877,None,,,,sub-157,1,2025-03-11_10h57.30.460,stroop_test,04.02.2024,60.09377031,2025-03-11 10h57.55.965262 +0100
,,,,94,10,7,,,,,,,,,,,,,gelb,blue,b,0,b,1,2.4056193,None,,,,,,,,,7,10,94,9,367.5204413,,,,,,,,,,,,,,,,,367.5066558,368.3197505,369.1191214,369.1033099,,,,,,,,,,,,,,,,,,,,,,,,,,,,,,,,,,,369.1075742,369.1191214,369.1191214,371.5353256,b,1,2.4056193,None,,,,sub-157,1,2025-03-11_10h57.30.460,stroop_test,04.02.2024,60.09377031,2025-03-11 10h57.55.965262 +0100
,,,,95,11,7,,,,,,,,,,,,,blau,yellow,g,0,g,1,1.7658678,None,,,,,,,,,7,11,95,7,371.5501357,,,,,,,,,,,,,,,,,371.5358871,372.3495431,373.149223,373.1335279,,,,,,,,,,,,,,,,,,,,,,,,,,,,,,,,,,,373.1383131,373.149223,373.149223,374.9326259,g,1,1.7658678,None,,,,sub-157,1,2025-03-11_10h57.30.460,stroop_test,04.02.2024,60.09377031,2025-03-11 10h57.55.965262 +0100
,,,,96,0,8,,,,,,,,,,,,,gelb,yellow,g,1,g,1,0.7179259,None,,,,,,,,,8,0,96,11,374.9475772,,,,,,,,,,,,,,,,,374.9332008,375.296832,376.0962954,376.0807643,,,,,,,,,,,,,,,,,,,,,,,,,,,,,,,,,,,376.0849782,376.0962954,376.0962954,376.8307385,g,1,0.7179259,None,,,,sub-157,1,2025-03-11_10h57.30.460,stroop_test,04.02.2024,60.09377031,2025-03-11 10h57.55.965262 +0100
,,,,97,1,8,,,,,,,,,,,,,gelb,blue,b,0,b,1,0.9509333,None,,,,,,,,,8,1,97,9,376.8455959,,,,,,,,,,,,,,,,,376.8312988,377.1952276,377.9951707,377.9789057,,,,,,,,,,,,,,,,,,,,,,,,,,,,,,,,,,,377.9796463,377.9951707,377.9951707,378.9623686,b,1,0.9509333,None,,,,sub-157,1,2025-03-11_10h57.30.460,stroop_test,04.02.2024,60.09377031,2025-03-11 10h57.55.965262 +0100
,,,,98,2,8,,,,,,,,,,,,,blau,yellow,g,0,g,1,1.0575269,None,,,,,,,,,8,2,98,7,378.9771695,,,,,,,,,,,,,,,,,378.962928,380.1763715,380.9918717,380.976214,,,,,,,,,,,,,,,,,,,,,,,,,,,,,,,,,,,380.9818054,380.9918717,380.9918717,382.0597897,g,1,1.0575269,None,,,,sub-157,1,2025-03-11_10h57.30.460,stroop_test,04.02.2024,60.09377031,2025-03-11 10h57.55.965262 +0100
,,,,99,3,8,,,,,,,,,,,,,rot,red,r,1,r,1,0.5765618,None,,,,,,,,,8,3,99,1,382.0745951,,,,,,,,,,,,,,,,,382.0603474,382.4239978,383.2232873,383.2076653,,,,,,,,,,,,,,,,,,,,,,,,,,,,,,,,,,,383.2123992,383.2232873,383.2232873,383.807807,r,1,0.5765618,None,,,,sub-157,1,2025-03-11_10h57.30.460,stroop_test,04.02.2024,60.09377031,2025-03-11 10h57.55.965262 +0100
,,,,100,4,8,,,,,,,,,,,,,gelb,red,r,0,r,1,0.8228417,None,,,,,,,,,8,4,100,8,383.8231387,,,,,,,,,,,,,,,,,383.8083624,383.9230483,384.7386156,384.7236336,,,,,,,,,,,,,,,,,,,,,,,,,,,,,,,,,,,384.7280751,384.7386156,384.7386156,385.5732277,r,1,0.8228417,None,,,,sub-157,1,2025-03-11_10h57.30.460,stroop_test,04.02.2024,60.09377031,2025-03-11 10h57.55.965262 +0100
,,,,101,5,8,,,,,,,,,,,,,blau,blue,b,1,b,1,0.9262887,None,,,,,,,,,8,5,101,5,385.5878008,,,,,,,,,,,,,,,,,385.5738078,386.3871045,387.1864553,387.1708874,,,,,,,,,,,,,,,,,,,,,,,,,,,,,,,,,,,387.175773,387.1864553,387.1864553,388.1209543,b,1,0.9262887,None,,,,sub-157,1,2025-03-11_10h57.30.460,stroop_test,04.02.2024,60.09377031,2025-03-11 10h57.55.965262 +0100
,,,,102,6,8,,,,,,,,,,,,,rot,blue,b,0,r,0,1.3256692,None,,,,,,,,,8,6,102,2,388.1355272,,,,,,,,,,,,,,,,,388.1215092,388.9352581,389.734642,389.7186186,,,,,,,,,,,,,,,,,,,,,,,,,,,,,,,,,,,389.7233663,389.734642,389.734642,391.0682478,r,0,1.3256692,None,,,,sub-157,1,2025-03-11_10h57.30.460,stroop_test,04.02.2024,60.09377031,2025-03-11 10h57.55.965262 +0100
,,,,103,7,8,,,,,,,,,,,,,blau,blue,b,1,b,1,2.0454386,None,,,,,,,,,8,7,103,6,391.0829924,,,,,,,,,,,,,,,,,391.0688115,391.4330555,392.2486033,392.2334068,,,,,,,,,,,,,,,,,,,,,,,,,,,,,,,,,,,392.2381168,392.2486033,392.2486033,394.299121,b,1,2.0454386,None,,,,sub-157,1,2025-03-11_10h57.30.460,stroop_test,04.02.2024,60.09377031,2025-03-11 10h57.55.965262 +0100
,,,,104,8,8,,,,,,,,,,,,,rot,red,r,1,r,1,0.7143842,None,,,,,,,,,8,8,104,0,394.3133499,,,,,,,,,,,,,,,,,394.2996742,394.6635278,395.4623911,395.447173,,,,,,,,,,,,,,,,,,,,,,,,,,,,,,,,,,,395.4527885,395.4623911,395.4623911,396.18066,r,1,0.7143842,None,,,,sub-157,1,2025-03-11_10h57.30.460,stroop_test,04.02.2024,60.09377031,2025-03-11 10h57.55.965262 +0100
,,,,105,9,8,,,,,,,,,,,,,blau,red,r,0,r,1,0.8693988,None,,,,,,,,,8,9,105,4,396.195486,,,,,,,,,,,,,,,,,396.1812082,396.5448597,397.3442345,397.329098,,,,,,,,,,,,,,,,,,,,,,,,,,,,,,,,,,,397.333795,397.3442345,397.3442345,398.2285609,r,1,0.8693988,None,,,,sub-157,1,2025-03-11_10h57.30.460,stroop_test,04.02.2024,60.09377031,2025-03-11 10h57.55.965262 +0100
,,,,106,10,8,,,,,,,,,,,,,gelb,yellow,g,1,g,1,1.0307044,None,,,,,,,,,8,10,106,10,398.2438046,,,,,,,,,,,,,,,,,398.2291263,398.593075,399.4063843,399.3769317,,,,,,,,,,,,,,,,,,,,,,,,,,,,,,,,,,,399.3833382,399.4063843,399.4063843,400.4395583,g,1,1.0307044,None,,,,sub-157,1,2025-03-11_10h57.30.460,stroop_test,04.02.2024,60.09377031,2025-03-11 10h57.55.965262 +0100
,,,,107,11,8,,,,,,,,,,,,,rot,yellow,g,0,g,1,0.9670143,None,,,,,,,,,8,11,107,3,400.4550654,,,,,,,,,,,,,,,,,400.4400439,401.655555,402.4720153,402.4543763,,,,,,,,,,,,,,,,,,,,,,,,,,,,,,,,,,,402.4610985,402.4720153,402.4720153,403.4410783,g,1,0.9670143,None,,,,sub-157,1,2025-03-11_10h57.30.460,stroop_test,04.02.2024,60.09377031,2025-03-11 10h57.55.965262 +0100
,,,,108,0,9,,,,,,,,,,,,,rot,red,r,1,r,1,0.6718048,None,,,,,,,,,9,0,108,1,403.4553331,,,,,,,,,,,,,,,,,403.441633,404.6543542,405.4536541,405.4384319,,,,,,,,,,,,,,,,,,,,,,,,,,,,,,,,,,,405.4392123,405.4536541,405.4536541,406.1385795,r,1,0.6718048,None,,,,sub-157,1,2025-03-11_10h57.30.460,stroop_test,04.02.2024,60.09377031,2025-03-11 10h57.55.965262 +0100
,,,,109,1,9,,,,,,,,,,,,,gelb,yellow,g,1,g,1,1.8029212,None,,,,,,,,,9,1,109,11,406.1529368,,,,,,,,,,,,,,,,,406.1391444,406.502753,407.3019949,407.2865303,,,,,,,,,,,,,,,,,,,,,,,,,,,,,,,,,,,407.2908913,407.3019949,407.3019949,409.1190046,g,1,1.8029212,None,,,,sub-157,1,2025-03-11_10h57.30.460,stroop_test,04.02.2024,60.09377031,2025-03-11 10h57.55.965262 +0100
,,,,110,2,9,,,,,,,,,,,,,gelb,red,r,0,r,1,1.3991734,None,,,,,,,,,9,2,110,8,409.1342583,,,,,,,,,,,,,,,,,409.1195719,410.3327165,411.1323218,411.1168141,,,,,,,,,,,,,,,,,,,,,,,,,,,,,,,,,,,411.1175733,411.1323218,411.1323218,412.5490225,r,1,1.3991734,None,,,,sub-157,1,2025-03-11_10h57.30.460,stroop_test,04.02.2024,60.09377031,2025-03-11 10h57.55.965262 +0100
,,,,111,3,9,,,,,,,,,,,,,blau,blue,b,1,b,1,0.7762923,None,,,,,,,,,9,3,111,6,412.5645388,,,,,,,,,,,,,,,,,412.5495806,413.7629387,414.5622455,414.5471668,,,,,,,,,,,,,,,,,,,,,,,,,,,,,,,,,,,414.5518856,414.5622455,414.5622455,415.3466609,b,1,0.7762923,None,,,,sub-157,1,2025-03-11_10h57.30.460,stroop_test,04.02.2024,60.09377031,2025-03-11 10h57.55.965262 +0100
,,,,112,4,9,,,,,,,,,,,,,rot,yellow,g,0,g,1,1.0461238,None,,,,,,,,,9,4,112,3,415.3614404,,,,,,,,,,,,,,,,,415.3472213,415.7111848,416.5104921,416.4947955,,,,,,,,,,,,,,,,,,,,,,,,,,,,,,,,,,,416.5006307,416.5104921,416.5104921,417.5618385,g,1,1.0461238,None,,,,sub-157,1,2025-03-11_10h57.30.460,stroop_test,04.02.2024,60.09377031,2025-03-11 10h57.55.965262 +0100
,,,,113,5,9,,,,,,,,,,,,,blau,red,r,0,r,1,1.0016628,None,,,,,,,,,9,5,113,4,417.5766709,,,,,,,,,,,,,,,,,417.5623903,417.6761829,418.4755213,418.4599292,,,,,,,,,,,,,,,,,,,,,,,,,,,,,,,,,,,418.464657,418.4755213,418.4755213,419.4933982,r,1,1.0016628,None,,,,sub-157,1,2025-03-11_10h57.30.460,stroop_test,04.02.2024,60.09377031,2025-03-11 10h57.55.965262 +0100
,,,,114,6,9,,,,,,,,,,,,,gelb,blue,b,0,b,1,0.8030772,None,,,,,,,,,9,6,114,9,419.5078937,,,,,,,,,,,,,,,,,419.4937784,419.6079387,420.407181,420.3916235,,,,,,,,,,,,,,,,,,,,,,,,,,,,,,,,,,,420.3958872,420.407181,420.407181,421.2248659,b,1,0.8030772,None,,,,sub-157,1,2025-03-11_10h57.30.460,stroop_test,04.02.2024,60.09377031,2025-03-11 10h57.55.965262 +0100
,,,,115,7,9,,,,,,,,,,,,,gelb,yellow,g,1,g,1,0.8108635,None,,,,,,,,,9,7,115,10,421.239612,,,,,,,,,,,,,,,,,421.2254128,422.4392208,423.2551566,423.2389518,,,,,,,,,,,,,,,,,,,,,,,,,,,,,,,,,,,423.2397139,423.2551566,423.2551566,424.0724962,g,1,0.8108635,None,,,,sub-157,1,2025-03-11_10h57.30.460,stroop_test,04.02.2024,60.09377031,2025-03-11 10h57.55.965262 +0100
,,,,116,8,9,,,,,,,,,,,,,rot,blue,b,0,b,1,0.7826139,None,,,,,,,,,9,8,116,2,424.0871057,,,,,,,,,,,,,,,,,424.07305,425.286145,426.0858365,426.0702187,,,,,,,,,,,,,,,,,,,,,,,,,,,,,,,,,,,426.074936,426.0858365,426.0858365,426.8706246,b,1,0.7826139,None,,,,sub-157,1,2025-03-11_10h57.30.460,stroop_test,04.02.2024,60.09377031,2025-03-11 10h57.55.965262 +0100
,,,,117,9,9,,,,,,,,,,,,,blau,blue,b,1,b,1,0.7737666,None,,,,,,,,,9,9,117,5,426.8848046,,,,,,,,,,,,,,,,,426.8711952,428.0837245,428.8830236,428.8678417,,,,,,,,,,,,,,,,,,,,,,,,,,,,,,,,,,,428.8725553,428.8830236,428.8830236,429.6673623,b,1,0.7737666,None,,,,sub-157,1,2025-03-11_10h57.30.460,stroop_test,04.02.2024,60.09377031,2025-03-11 10h57.55.965262 +0100
,,,,118,10,9,,,,,,,,,,,,,blau,yellow,g,0,g,1,1.0356568,None,,,,,,,,,9,10,118,7,429.68221,,,,,,,,,,,,,,,,,429.6679107,430.0319226,430.8317288,430.8155711,,,,,,,,,,,,,,,,,,,,,,,,,,,,,,,,,,,430.8163337,430.8317288,430.8317288,431.882477,g,1,1.0356568,None,,,,sub-157,1,2025-03-11_10h57.30.460,stroop_test,04.02.2024,60.09377031,2025-03-11 10h57.55.965262 +0100
,,,,119,11,9,,,,,,,,,,,,,rot,red,r,1,r,1,0.8587825,None,,,,,,,,,9,11,119,0,431.8968828,,,,,,,,,,,,,,,,,431.8830297,431.99687,432.7962588,432.7805504,,,,,,,,,,,,,,,,,,,,,,,,,,,,,,,,,,,432.7854579,432.7962588,432.7962588,433.6638197,r,1,0.8587825,None,,,,sub-157,1,2025-03-11_10h57.30.460,stroop_test,04.02.2024,60.09377031,2025-03-11 10h57.55.965262 +0100
,,,,,,,,,,,,,,,,,,,,,,,,,,,,,,,,,,,,,,,,,,,,,,,,,,,,,,,,,,,,,,,,,,,,,,,,,,,,,,,,,,,,,,,,,,,,,,,,,,,,,,433.66409,433.6788577,438.6746957,sub-157,1,2025-03-11_10h57.30.460,stroop_test,04.02.2024,60.09377031,2025-03-11 10h57.55.965262 +0100
