wordCTK,colorCTK,corrAnsCTK,congruentCTK,thisN,thisTrialN,thisRepN,keyResp_CTK.keys,keyResp_CTK.corr,keyResp_CTK.rt,keyResp_CTK.duration,wordPractice,colorPractice,corrAnsPractice,congruentPractice,respPractice.keys,respPractice.corr,respPractice.rt,respPractice.duration,word,color,corrAns,congruent,keyResp_test_run.keys,keyResp_test_run.corr,keyResp_test_run.rt,keyResp_test_run.duration,trials_CTK.thisRepN,trials_CTK.thisTrialN,trials_CTK.thisN,trials_CTK.thisIndex,trials_practice.thisRepN,trials_practice.thisTrialN,trials_practice.thisN,trials_practice.thisIndex,trials_test.thisRepN,trials_test.thisTrialN,trials_test.thisN,trials_test.thisIndex,thisRow.t,notes,instruction.started,instr_text.started,instr_image.started,instr_resp.started,instruction.stopped,instr_resp.keys,instr_resp.rt,instr_resp.duration,instr_color_to_key.started,instr_ctk.started,resp_ctk.started,instr_color_to_key.stopped,resp_ctk.keys,resp_ctk.rt,resp_ctk.duration,ITI.started,fixcross.started,fixcross.stopped,ITI.stopped,color_to_key_run.started,stimulus_CTK.started,keyResp_CTK.started,color_to_key_run.stopped,trials_CTK.keyResp_CTK.keys,trials_CTK.keyResp_CTK.corr,trials_CTK.keyResp_CTK.rt,trials_CTK.keyResp_CTK.duration,instr_practice.started,instr_practice_text.started,instr_practice_resp.started,instr_practice.stopped,instr_practice_resp.keys,instr_practice_resp.rt,instr_practice_resp.duration,practice_run.started,stimulus_practice.started,respPractice.started,practice_run.stopped,trials_practice.respPractice.keys,trials_practice.respPractice.corr,trials_practice.respPractice.rt,trials_practice.respPractice.duration,feedback.started,textFeedback.started,feedback.stopped,textFeedback.stopped,instr_test.started,instr_test_text.started,instr_test_resp.started,instr_test.stopped,instr_test_resp.keys,instr_test_resp.rt,instr_test_resp.duration,test_run.started,stimulus_test_run.started,keyResp_test_run.started,test_run.stopped,trials_test.keyResp_test_run.keys,trials_test.keyResp_test_run.corr,trials_test.keyResp_test_run.rt,trials_test.keyResp_test_run.duration,goodbye.started,textGoodbye.started,goodbye.stopped,participant,session,expName,frameRate,Unnamed: 112
,,,,,,,,,,,,,,,,,,,,,,,,,,,,,,,,,,,,,,,,,0.0106202760000542,0.0414722049999909,0.0414722049999909,0.0414722049999909,36.39658404500005,space,36.04230407499995,,,,,,,,,,,,,,,,,,,,,,,,,,,,,,,,,,,,,,,,,,,,,,,,,,,,,,,,,,sub-152,1,stroop_test,75.80321446106285,
,,,,,,,,,,,,,,,,,,,,,,,,,,,,,,,,,,,,,,,,,,,,,,,,,36.39664914500008,36.41225362600005,36.41225362600005,42.27414653000005,space,5.838414231000002,,,,,,,,,,,,,,,,,,,,,,,,,,,,,,,,,,,,,,,,,,,,,,,,,,,sub-152,1,stroop_test,75.80321446106285,
test,red,r,1.0,0.0,0.0,0.0,r,1.0,1.591104736000034,,,,,,,,,,,,,,,,,,0.0,0.0,0.0,0.0,,,,,,,,,42.33514445499998,,,,,,,,,,,,,,,,,42.32065102299998,43.06951613000001,43.87578953399998,43.85784294300004,43.864288097999975,43.87578953399998,43.87578953399998,45.47402733199999,r,1.0,1.591104736000034,,,,,,,,,,,,,,,,,,,,,,,,,,,,,,,,,,,,,,,sub-152,1,stroop_test,75.80321446106285,
test,yellow,g,1.0,1.0,1.0,0.0,g,1.0,1.5244104259999176,,,,,,,,,,,,,,,,,,0.0,1.0,1.0,1.0,,,,,,,,,45.48460976600006,,,,,,,,,,,,,,,,,45.47474514400005,46.667768862,47.46418075000008,47.45169464700007,47.452962189,47.46418075000008,47.46418075000008,48.99708574700003,g,1.0,1.5244104259999176,,,,,,,,,,,,,,,,,,,,,,,,,,,,,,,,,,,,,,,sub-152,1,stroop_test,75.80321446106285,
test,blue,b,1.0,2.0,2.0,0.0,b,1.0,0.6318925660000332,,,,,,,,,,,,,,,,,,0.0,2.0,2.0,2.0,,,,,,,,,49.00887736100003,,,,,,,,,,,,,,,,,48.99754507700004,49.09884259600005,49.898584422,49.888466213000015,49.88947400500001,49.898584422,49.898584422,50.533223927999984,b,1.0,0.6318925660000332,,,,,,,,,,,,,,,,,,,,,,,,,,,,,,,,,,,,,,,sub-152,1,stroop_test,75.80321446106285,
test,red,r,1.0,3.0,0.0,1.0,r,1.0,0.4981594769999447,,,,,,,,,,,,,,,,,,1.0,0.0,3.0,0.0,,,,,,,,,50.54213569800004,,,,,,,,,,,,,,,,,50.53364121300001,51.72737401300003,52.52545022800007,52.510625517,52.51120129399999,52.52545022800007,52.52545022800007,53.02702322800008,r,1.0,0.4981594769999447,,,,,,,,,,,,,,,,,,,,,,,,,,,,,,,,,,,,,,,sub-152,1,stroop_test,75.80321446106285,
test,yellow,g,1.0,4.0,1.0,1.0,g,1.0,0.5043948750000027,,,,,,,,,,,,,,,,,,1.0,1.0,4.0,1.0,,,,,,,,,53.03708208199998,,,,,,,,,,,,,,,,,53.02732209300007,54.24073131800003,55.04223798400005,55.02472851499999,55.02542878899999,55.04223798400005,55.04223798400005,55.55989389600006,g,1.0,0.5043948750000027,,,,,,,,,,,,,,,,,,,,,,,,,,,,,,,,,,,,,,,sub-152,1,stroop_test,75.80321446106285,
test,blue,b,1.0,5.0,2.0,1.0,b,1.0,0.424902086999964,,,,,,,,,,,,,,,,,,1.0,2.0,5.0,2.0,,,,,,,,,55.57096755100008,,,,,,,,,,,,,,,,,55.56022998900005,56.35896532800007,57.17564285200001,57.15774877199999,57.15843736600005,57.17564285200001,57.17564285200001,57.60859016799998,b,1.0,0.424902086999964,,,,,,,,,,,,,,,,,,,,,,,,,,,,,,,,,,,,,,,sub-152,1,stroop_test,75.80321446106285,
test,yellow,g,1.0,6.0,0.0,2.0,g,1.0,0.7323942609999676,,,,,,,,,,,,,,,,,,2.0,0.0,6.0,1.0,,,,,,,,,57.62552586800007,,,,,,,,,,,,,,,,,57.60898545400005,58.804758214,59.60304496800006,59.59262904900004,59.59332439900004,59.60304496800006,59.60304496800006,60.343011227000034,g,1.0,0.7323942609999676,,,,,,,,,,,,,,,,,,,,,,,,,,,,,,,,,,,,,,,sub-152,1,stroop_test,75.80321446106285,
test,blue,b,1.0,7.0,1.0,2.0,b,1.0,0.6243362730000399,,,,,,,,,,,,,,,,,,2.0,1.0,7.0,2.0,,,,,,,,,60.35280397300005,,,,,,,,,,,,,,,,,60.34328370900005,61.14597617000004,61.95294632299999,61.94260015300006,61.943292155,61.95294632299999,61.95294632299999,62.59216015599998,b,1.0,0.6243362730000399,,,,,,,,,,,,,,,,,,,,,,,,,,,,,,,,,,,,,,,sub-152,1,stroop_test,75.80321446106285,
test,red,r,1.0,8.0,2.0,2.0,r,1.0,0.3476124930000424,,,,,,,,,,,,,,,,,,2.0,2.0,8.0,0.0,,,,,,,,,62.60887012800004,,,,,,,,,,,,,,,,,62.592670333,63.79224729100008,64.60890973300002,64.59092150200001,64.59166045300003,64.60890973300002,64.60890973300002,64.975323366,r,1.0,0.3476124930000424,,,,,,,,,,,,,,,,,,,,,,,,,,,,,,,,,,,,,,,sub-152,1,stroop_test,75.80321446106285,
test,red,r,1.0,9.0,0.0,3.0,r,1.0,0.512503143999993,,,,,,,,,,,,,,,,,,3.0,0.0,9.0,0.0,,,,,,,,,64.99212098300006,,,,,,,,,,,,,,,,,64.97580802499999,65.317427941,66.12065444900009,66.10897933000001,66.10967635200006,66.12065444900009,66.12065444900009,66.63777899600007,r,1.0,0.512503143999993,,,,,,,,,,,,,,,,,,,,,,,,,,,,,,,,,,,,,,,sub-152,1,stroop_test,75.80321446106285,
test,blue,b,1.0,10.0,1.0,3.0,b,1.0,0.4933771299999989,,,,,,,,,,,,,,,,,,3.0,1.0,10.0,2.0,,,,,,,,,66.64775030999999,,,,,,,,,,,,,,,,,66.63830601000006,67.83702951100008,68.63680873500005,68.62618914000006,68.62692550700001,68.63680873500005,68.63680873500005,69.14230041600001,b,1.0,0.4933771299999989,,,,,,,,,,,,,,,,,,,,,,,,,,,,,,,,,,,,,,,sub-152,1,stroop_test,75.80321446106285,
test,yellow,g,1.0,11.0,2.0,3.0,g,1.0,0.4602611120000119,,,,,,,,,,,,,,,,,,3.0,2.0,11.0,1.0,,,,,,,,,69.15413816400007,,,,,,,,,,,,,,,,,69.14275135600008,69.93673710400003,70.74289642899998,70.73212848399999,70.73273731000006,70.74289642899998,70.74289642899998,71.212344798,g,1.0,0.4602611120000119,,,,,,,,,,,,,,,,,,,,,,,,,,,,,,,,,,,,,,,sub-152,1,stroop_test,75.80321446106285,
,,,,,,,,,,,,,,,,,,,,,,,,,,,,,,,,,,,,,,,,,,,,,,,,,,,,,,,,,,,,,,,,,,,,71.21255267100003,71.225371279,71.225371279,75.73315325600004,space,4.505759210000065,,,,,,,,,,,,,,,,,,,,,,,,,,,,,,,,sub-152,1,stroop_test,75.80321446106285,
,,,,0.0,0.0,0.0,,,,,gelb,red,r,0.0,r,1.0,0.642183670999998,,,,,,,,,,,,,,0.0,0.0,0.0,8.0,,,,,75.76066580300005,,,,,,,,,,,,,,,,,75.75020153000003,76.09203280000008,76.89759322300006,76.87925785200002,,,,,,,,,,,,,,,,76.88526757700004,76.89759322300006,76.89759322300006,77.54432158400004,r,1.0,0.642183670999998,,77.55155137899999,77.564275544,78.54934325900001,,,,,,,,,,,,,,,,,,,,sub-152,1,stroop_test,75.80321446106285,
,,,,1.0,1.0,0.0,,,,,rot,red,r,1.0,r,1.0,0.7219216409999945,,,,,,,,,,,,,,0.0,1.0,1.0,1.0,,,,,78.55836002700005,,,,,,,,,,,,,,,,,78.54986562200008,78.89871104500003,79.70739043499998,79.69246908100001,,,,,,,,,,,,,,,,79.69695945299998,79.70739043499998,79.70739043499998,80.437026791,r,1.0,0.7219216409999945,,80.43770900800007,80.45131874200001,81.44345058500005,,,,,,,,,,,,,,,,,,,,sub-152,1,stroop_test,75.80321446106285,
,,,,2.0,2.0,0.0,,,,,rot,red,r,1.0,r,1.0,0.647477131999949,,,,,,,,,,,,,,0.0,2.0,2.0,0.0,,,,,81.45309785799998,,,,,,,,,,,,,,,,,81.44408506800005,81.78404235300002,82.58245010600001,82.57082833200002,,,,,,,,,,,,,,,,82.57224340900007,82.58245010600001,82.58245010600001,83.24367722,r,1.0,0.647477131999949,,83.24433173300008,83.25870001300007,84.24263073600002,84.25190878900003,,,,,,,,,,,,,,,,,,,sub-152,1,stroop_test,75.80321446106285,
,,,,3.0,3.0,0.0,,,,,blau,blue,b,1.0,b,1.0,0.4462167990000125,,,,,,,,,,,,,,0.0,3.0,3.0,6.0,,,,,84.25190878900003,,,,,,,,,,,,,,,,,84.24303067400001,85.44245911799999,86.24865331400008,86.23155211900007,,,,,,,,,,,,,,,,86.23946422100005,86.24865331400008,86.24865331400008,86.69902378000006,b,1.0,0.4462167990000125,,86.69975728000009,86.71356030000004,87.708853094,,,,,,,,,,,,,,,,,,,,sub-152,1,stroop_test,75.80321446106285,
,,,,4.0,4.0,0.0,,,,,rot,yellow,g,0.0,g,1.0,0.4552396330000192,,,,,,,,,,,,,,0.0,4.0,4.0,3.0,,,,,87.71756460799998,,,,,,,,,,,,,,,,,87.70935073300006,88.50292748200002,89.30468388500003,89.28941983300001,,,,,,,,,,,,,,,,89.29471394000007,89.30468388500003,89.30468388500003,89.76619767800003,g,1.0,0.4552396330000192,,89.766839474,89.78013796000005,90.76521105000006,90.773802263,,,,,,,,,,,,,,,,,,,sub-152,1,stroop_test,75.80321446106285,
,,,,5.0,5.0,0.0,,,,,blau,yellow,g,0.0,g,1.0,0.7644016709999732,,,,,,,,,,,,,,0.0,5.0,5.0,7.0,,,,,90.773802263,,,,,,,,,,,,,,,,,90.765611315,91.95997422900008,92.77348032100008,92.74753589700003,,,,,,,,,,,,,,,,92.75062592100004,92.77348032100008,92.77348032100008,93.54339290100006,g,1.0,0.7644016709999732,,93.544047343,93.556339934,94.54754181700002,,,,,,,,,,,,,,,,,,,,sub-152,1,stroop_test,75.80321446106285,
,,,,6.0,6.0,0.0,,,,,gelb,yellow,g,1.0,g,1.0,0.5075851399999465,,,,,,,,,,,,,,0.0,6.0,6.0,10.0,,,,,94.55859516600005,,,,,,,,,,,,,,,,,94.54790229000002,95.33797457700008,96.13901150700008,96.12533464900002,,,,,,,,,,,,,,,,96.12934263300008,96.13901150700008,96.13901150700008,96.657596807,g,1.0,0.5075851399999465,,96.65813734100004,96.67487581900002,97.65867168500006,,,,,,,,,,,,,,,,,,,,sub-152,1,stroop_test,75.80321446106285,
,,,,7.0,7.0,0.0,,,,,gelb,yellow,g,1.0,g,1.0,0.5043055349999577,,,,,,,,,,,,,,0.0,7.0,7.0,11.0,,,,,97.66712266000002,,,,,,,,,,,,,,,,,97.65902182800004,97.76036631800002,98.55848255900004,98.54370180500008,,,,,,,,,,,,,,,,98.54423172500005,98.55848255900004,98.55848255900004,99.06512588200007,g,1.0,0.5043055349999577,,99.06579982900008,99.07964530900006,100.06766319500002,,,,,,,,,,,,,,,,,,,,sub-152,1,stroop_test,75.80321446106285,
,,,,8.0,8.0,0.0,,,,,blau,blue,b,1.0,b,1.0,0.4620383760000095,,,,,,,,,,,,,,0.0,8.0,8.0,5.0,,,,,100.07637742300004,,,,,,,,,,,,,,,,,100.06819263900002,100.41700312300009,101.21572967300006,101.20112891400004,,,,,,,,,,,,,,,,101.20663872400009,101.21572967300006,101.21572967300006,101.69052737100004,b,1.0,0.4620383760000095,,101.691224948,101.70185495300008,102.69038632500008,102.70827703600004,,,,,,,,,,,,,,,,,,,sub-152,1,stroop_test,75.80321446106285,
,,,,9.0,9.0,0.0,,,,,rot,blue,b,0.0,b,1.0,0.3945912570000018,,,,,,,,,,,,,,0.0,9.0,9.0,2.0,,,,,102.70827703600004,,,,,,,,,,,,,,,,,102.690875527,103.891704238,104.69629650500008,104.68181783500006,,,,,,,,,,,,,,,,104.68611815999998,104.69629650500008,104.69629650500008,105.10958520999998,b,1.0,0.3945912570000018,,105.110360151,105.122879269,106.115421364,,,,,,,,,,,,,,,,,,,,sub-152,1,stroop_test,75.80321446106285,
,,,,10.0,10.0,0.0,,,,,blau,red,r,0.0,r,1.0,0.6247883089999959,,,,,,,,,,,,,,0.0,10.0,10.0,4.0,,,,,106.127629339,,,,,,,,,,,,,,,,,106.11669889799998,106.467499222,107.27473822700006,107.25749801900008,,,,,,,,,,,,,,,,107.26161806700009,107.27473822700006,107.27473822700006,107.90319279699996,r,1.0,0.6247883089999959,,107.90388502300004,107.91574032800008,108.90095006900005,108.92322877000004,,,,,,,,,,,,,,,,,,,sub-152,1,stroop_test,75.80321446106285,
,,,,11.0,11.0,0.0,,,,,gelb,blue,b,0.0,b,1.0,0.5104441869999619,,,,,,,,,,,,,,0.0,11.0,11.0,9.0,,,,,108.92322877000004,,,,,,,,,,,,,,,,,108.90198304,110.09999814800004,110.89913967900009,110.88404295400004,,,,,,,,,,,,,,,,110.89002012900004,110.89913967900009,110.89913967900009,111.41354602299998,b,1.0,0.5104441869999619,,111.41425596700005,111.426901714,112.42497259100004,,,,,,,,,,,,,,,,,,,,sub-152,1,stroop_test,75.80321446106285,
,,,,12.0,0.0,1.0,,,,,gelb,blue,b,0.0,b,1.0,0.6839273209999419,,,,,,,,,,,,,,1.0,0.0,12.0,9.0,,,,,112.43348737600002,,,,,,,,,,,,,,,,,112.42545664700005,112.768342685,113.59153384500009,113.57356298700006,,,,,,,,,,,,,,,,113.57425598700002,113.59153384500009,113.59153384500009,114.28587653500006,b,1.0,0.6839273209999419,,114.28643548600007,114.298079035,115.29165358400007,,,,,,,,,,,,,,,,,,,,sub-152,1,stroop_test,75.80321446106285,
,,,,13.0,1.0,1.0,,,,,blau,yellow,g,0.0,g,1.0,0.6880603309999742,,,,,,,,,,,,,,1.0,1.0,13.0,7.0,,,,,115.30141021200006,,,,,,,,,,,,,,,,,115.292146883,115.630949675,116.44150338200006,116.42354996900008,,,,,,,,,,,,,,,,116.42818618700004,116.44150338200006,116.44150338200006,117.14124038500006,g,1.0,0.6880603309999742,,117.142016625,117.15815139200004,118.14424351399998,,,,,,,,,,,,,,,,,,,,sub-152,1,stroop_test,75.80321446106285,
,,,,14.0,2.0,1.0,,,,,gelb,red,r,0.0,r,1.0,0.4360817819999738,,,,,,,,,,,,,,1.0,2.0,14.0,8.0,,,,,118.158166683,,,,,,,,,,,,,,,,,118.14453869,119.33333490200005,120.13615814800004,120.121657219,,,,,,,,,,,,,,,,120.12652844700006,120.13615814800004,120.13615814800004,120.57712392300004,r,1.0,0.4360817819999738,,120.577977679,120.58903101400006,121.57314277700004,121.591459579,,,,,,,,,,,,,,,,,,,sub-152,1,stroop_test,75.80321446106285,
,,,,15.0,3.0,1.0,,,,,blau,red,r,0.0,r,1.0,0.6964512619999823,,,,,,,,,,,,,,1.0,3.0,15.0,4.0,,,,,121.591459579,,,,,,,,,,,,,,,,,121.57347286100004,122.38333853300004,123.18893379100008,123.17412633600009,,,,,,,,,,,,,,,,123.17848318400002,123.18893379100008,123.18893379100008,123.88788644500003,r,1.0,0.6964512619999823,,123.88924219300009,123.90194904600004,124.89232944399998,,,,,,,,,,,,,,,,,,,,sub-152,1,stroop_test,75.80321446106285,
,,,,16.0,4.0,1.0,,,,,gelb,yellow,g,1.0,g,1.0,0.569832316999964,,,,,,,,,,,,,,1.0,4.0,16.0,11.0,,,,,124.90854255800002,,,,,,,,,,,,,,,,,124.89276437500008,124.98261365100008,125.782452886,125.76845438700002,,,,,,,,,,,,,,,,125.77290487800008,125.782452886,125.782452886,126.35753879000004,g,1.0,0.569832316999964,,126.35829543300008,126.371014929,127.37306423200005,,,,,,,,,,,,,,,,,,,,sub-152,1,stroop_test,75.80321446106285,
,,,,17.0,5.0,1.0,,,,,blau,blue,b,1.0,b,1.0,0.5104140499998948,,,,,,,,,,,,,,1.0,5.0,17.0,6.0,,,,,127.39105794800004,,,,,,,,,,,,,,,,,127.37336507500004,127.4580737,128.270044859,128.25831539400008,,,,,,,,,,,,,,,,128.260914835,128.270044859,128.270044859,128.79234310200002,b,1.0,0.5104140499998948,,128.79299358100002,128.805661192,129.791760372,129.80198318100008,,,,,,,,,,,,,,,,,,,sub-152,1,stroop_test,75.80321446106285,
,,,,18.0,6.0,1.0,,,,,rot,yellow,g,0.0,g,1.0,0.583766833000027,,,,,,,,,,,,,,1.0,6.0,18.0,3.0,,,,,129.80198318100008,,,,,,,,,,,,,,,,,129.79215539400002,130.608044242,131.40570124300007,131.39198795599998,,,,,,,,,,,,,,,,131.395411116,131.40570124300007,131.40570124300007,131.99817608500007,g,1.0,0.583766833000027,,131.99880917200005,132.01381051400006,133.00552311700005,,,,,,,,,,,,,,,,,,,,sub-152,1,stroop_test,75.80321446106285,
,,,,19.0,7.0,1.0,,,,,blau,blue,b,1.0,b,1.0,0.8211206529999799,,,,,,,,,,,,,,1.0,7.0,19.0,5.0,,,,,133.016619913,,,,,,,,,,,,,,,,,133.00699100300005,133.097650133,133.90495718900002,133.89155981700003,,,,,,,,,,,,,,,,133.89430040399998,133.90495718900002,133.90495718900002,134.73697660699997,b,1.0,0.8211206529999799,,134.73798052100005,134.750627419,135.73436461300005,135.747006361,,,,,,,,,,,,,,,,,,,sub-152,1,stroop_test,75.80321446106285,
,,,,20.0,8.0,1.0,,,,,rot,red,r,1.0,r,1.0,0.542120589000092,,,,,,,,,,,,,,1.0,8.0,20.0,0.0,,,,,135.747006361,,,,,,,,,,,,,,,,,135.735352024,135.83313678900004,136.632866423,136.61840473400002,,,,,,,,,,,,,,,,136.62325518500006,136.632866423,136.632866423,137.18604254399995,r,1.0,0.542120589000092,,137.186656308,137.19920164300004,138.18198809800003,138.19088552699998,,,,,,,,,,,,,,,,,,,sub-152,1,stroop_test,75.80321446106285,
,,,,21.0,9.0,1.0,,,,,rot,red,r,1.0,r,1.0,0.5931065149999313,,,,,,,,,,,,,,1.0,9.0,21.0,1.0,,,,,138.19088552699998,,,,,,,,,,,,,,,,,138.182433919,138.28495318500006,139.08394608000003,139.07482644800007,,,,,,,,,,,,,,,,139.075247569,139.08394608000003,139.08394608000003,139.69074600700003,r,1.0,0.5931065149999313,,139.69131015200003,139.708064228,140.691215306,,,,,,,,,,,,,,,,,,,,sub-152,1,stroop_test,75.80321446106285,
,,,,22.0,10.0,1.0,,,,,gelb,yellow,g,1.0,g,1.0,0.569502717999967,,,,,,,,,,,,,,1.0,10.0,22.0,10.0,,,,,140.70084762700003,,,,,,,,,,,,,,,,,140.69163325300008,141.50191131999998,142.30751694700007,142.29326988000005,,,,,,,,,,,,,,,,142.29779094600008,142.30751694700007,142.30751694700007,142.88178250700005,g,1.0,0.569502717999967,,142.882428915,142.89678291100006,143.88374536900005,,,,,,,,,,,,,,,,,,,,sub-152,1,stroop_test,75.80321446106285,
,,,,23.0,11.0,1.0,,,,,rot,blue,b,0.0,b,1.0,0.7729189529999303,,,,,,,,,,,,,,1.0,11.0,23.0,2.0,,,,,143.89668603200005,,,,,,,,,,,,,,,,,143.88507252800002,143.98415575299998,144.791201676,144.77570703900005,,,,,,,,,,,,,,,,144.77783558099998,144.791201676,144.791201676,145.57439044600005,b,1.0,0.7729189529999303,,145.57487263000007,145.58661209399995,146.57451937200003,146.58603805899995,,,,,,,,,,,,,,,,,,,sub-152,1,stroop_test,75.80321446106285,
,,,,,,,,,,,,,,,,,,,,,,,,,,,,,,,,,,,,,,,,,,,,,,,,,,,,,,,,,,,,,,,,,,,,,,,,,,,,,,,,,,,,,,,146.57496310400006,146.58603805899995,146.58603805899995,151.107107251,space,4.512728598000081,,,,,,,,,,,,,sub-152,1,stroop_test,75.80321446106285,
,,,,0.0,0.0,0.0,,,,,,,,,,,,,blau,red,r,0.0,r,1.0,0.6698020289999249,,,,,,,,,,0.0,0.0,0.0,4.0,151.146238067,,,,,,,,,,,,,,,,,151.13627196900006,151.20785915,152.02421606000007,152.00653359500006,,,,,,,,,,,,,,,,,,,,,,,,,,,,,,,,,,,152.00908019000008,152.02421606000007,152.02421606000007,152.70318404,r,1.0,0.6698020289999249,,,,,sub-152,1,stroop_test,75.80321446106285,
,,,,1.0,1.0,0.0,,,,,,,,,,,,,rot,red,r,1.0,r,1.0,0.61341900299999,,,,,,,,,,0.0,1.0,1.0,0.0,152.71532566000008,,,,,,,,,,,,,,,,,152.70370179000008,153.901516732,154.70742623400008,154.68975900100008,,,,,,,,,,,,,,,,,,,,,,,,,,,,,,,,,,,154.692552622,154.70742623400008,154.70742623400008,155.32401445200003,r,1.0,0.61341900299999,,,,,sub-152,1,stroop_test,75.80321446106285,
,,,,2.0,2.0,0.0,,,,,,,,,,,,,rot,blue,b,0.0,b,1.0,0.7019206889999623,,,,,,,,,,0.0,2.0,2.0,2.0,155.34086248800008,,,,,,,,,,,,,,,,,155.32450435400006,156.52416581900002,157.32507458200007,157.313143267,,,,,,,,,,,,,,,,,,,,,,,,,,,,,,,,,,,157.31356444800008,157.32507458200007,157.32507458200007,158.034765579,b,1.0,0.7019206889999623,,,,,sub-152,1,stroop_test,75.80321446106285,
,,,,3.0,3.0,0.0,,,,,,,,,,,,,gelb,red,r,0.0,r,1.0,0.7743716549999817,,,,,,,,,,0.0,3.0,3.0,8.0,158.046481308,,,,,,,,,,,,,,,,,158.03509568200002,158.83221846700008,159.63523408499998,159.62417712500007,,,,,,,,,,,,,,,,,,,,,,,,,,,,,,,,,,,159.626389207,159.63523408499998,159.63523408499998,160.41842918700002,r,1.0,0.7743716549999817,,,,,sub-152,1,stroop_test,75.80321446106285,
,,,,4.0,4.0,0.0,,,,,,,,,,,,,gelb,yellow,g,1.0,g,1.0,0.5493945350000331,,,,,,,,,,0.0,4.0,4.0,11.0,160.42997377400002,,,,,,,,,,,,,,,,,160.41902040900004,161.22390725000002,162.02143156199998,162.009605116,,,,,,,,,,,,,,,,,,,,,,,,,,,,,,,,,,,162.01153511500002,162.02143156199998,162.02143156199998,162.57898127300007,g,1.0,0.5493945350000331,,,,,sub-152,1,stroop_test,75.80321446106285,
,,,,5.0,5.0,0.0,,,,,,,,,,,,,blau,yellow,g,0.0,g,1.0,0.953161848000036,,,,,,,,,,0.0,5.0,5.0,7.0,162.58968648100006,,,,,,,,,,,,,,,,,162.57953576800003,162.679756205,163.47849689300006,163.46543863500006,,,,,,,,,,,,,,,,,,,,,,,,,,,,,,,,,,,163.46768711000004,163.47849689300006,163.47849689300006,164.44192179100003,g,1.0,0.953161848000036,,,,,sub-152,1,stroop_test,75.80321446106285,
,,,,6.0,6.0,0.0,,,,,,,,,,,,,blau,blue,b,1.0,b,1.0,0.5365163579999717,,,,,,,,,,0.0,6.0,6.0,5.0,164.451764733,,,,,,,,,,,,,,,,,164.44223728000009,164.78575503600007,165.58314740900005,165.57412816600004,,,,,,,,,,,,,,,,,,,,,,,,,,,,,,,,,,,165.57453756100006,165.58314740900005,165.58314740900005,166.12190777600006,b,1.0,0.5365163579999717,,,,,sub-152,1,stroop_test,75.80321446106285,
,,,,7.0,7.0,0.0,,,,,,,,,,,,,gelb,blue,b,0.0,b,1.0,0.5354622639999889,,,,,,,,,,0.0,7.0,7.0,9.0,166.130795434,,,,,,,,,,,,,,,,,166.1228624720001,166.46555770999998,167.26417657700006,167.25125780899998,,,,,,,,,,,,,,,,,,,,,,,,,,,,,,,,,,,167.25547617400002,167.26417657700006,167.26417657700006,167.80245365500002,b,1.0,0.5354622639999889,,,,,sub-152,1,stroop_test,75.80321446106285,
,,,,8.0,8.0,0.0,,,,,,,,,,,,,rot,red,r,1.0,r,1.0,0.4993780220000872,,,,,,,,,,0.0,8.0,8.0,1.0,167.8133099920001,,,,,,,,,,,,,,,,,167.80287866100002,168.99981875499998,169.80743625000002,169.79343287799998,,,,,,,,,,,,,,,,,,,,,,,,,,,,,,,,,,,169.79569515700007,169.80743625000002,169.80743625000002,170.32340363900005,r,1.0,0.4993780220000872,,,,,sub-152,1,stroop_test,75.80321446106285,
,,,,9.0,9.0,0.0,,,,,,,,,,,,,rot,yellow,g,0.0,g,1.0,0.5550566109999409,,,,,,,,,,0.0,9.0,9.0,3.0,170.340374548,,,,,,,,,,,,,,,,,170.323757828,171.51512803499998,172.31265867399998,172.30039955900008,,,,,,,,,,,,,,,,,,,,,,,,,,,,,,,,,,,172.30180978300007,172.31265867399998,172.31265867399998,172.878304834,g,1.0,0.5550566109999409,,,,,sub-152,1,stroop_test,75.80321446106285,
,,,,10.0,10.0,0.0,,,,,,,,,,,,,blau,blue,b,1.0,b,1.0,0.5682791860000407,,,,,,,,,,0.0,10.0,10.0,6.0,172.89089250200004,,,,,,,,,,,,,,,,,172.87864048000006,172.975517847,173.77935829800003,173.76395930700005,,,,,,,,,,,,,,,,,,,,,,,,,,,,,,,,,,,173.76743224000006,173.77935829800003,173.77935829800003,174.35876749300007,b,1.0,0.5682791860000407,,,,,sub-152,1,stroop_test,75.80321446106285,
,,,,11.0,11.0,0.0,,,,,,,,,,,,,gelb,yellow,g,1.0,g,1.0,0.5796203800000512,,,,,,,,,,0.0,11.0,11.0,10.0,174.36956735600006,,,,,,,,,,,,,,,,,174.35921073300003,175.55725702200004,176.352768523,176.341067147,,,,,,,,,,,,,,,,,,,,,,,,,,,,,,,,,,,176.34387073000005,176.352768523,176.352768523,176.94245903700005,g,1.0,0.5796203800000512,,,,,sub-152,1,stroop_test,75.80321446106285,
,,,,12.0,0.0,1.0,,,,,,,,,,,,,gelb,red,r,0.0,r,1.0,0.6275752079999393,,,,,,,,,,1.0,0.0,12.0,8.0,176.95362135699995,,,,,,,,,,,,,,,,,176.94291613400003,177.042548377,177.84606605800002,177.83458759899997,,,,,,,,,,,,,,,,,,,,,,,,,,,,,,,,,,,177.83580294299998,177.84606605800002,177.84606605800002,178.475672733,r,1.0,0.6275752079999393,,,,,sub-152,1,stroop_test,75.80321446106285,
,,,,13.0,1.0,1.0,,,,,,,,,,,,,blau,yellow,g,0.0,g,1.0,0.6627702299999783,,,,,,,,,,1.0,1.0,13.0,7.0,178.484531069,,,,,,,,,,,,,,,,,178.47613056800003,179.274485669,180.07684736400006,180.06036313100003,,,,,,,,,,,,,,,,,,,,,,,,,,,,,,,,,,,180.064884389,180.07684736400006,180.07684736400006,180.74163222800007,g,1.0,0.6627702299999783,,,,,sub-152,1,stroop_test,75.80321446106285,
,,,,14.0,2.0,1.0,,,,,,,,,,,,,gelb,yellow,g,1.0,g,1.0,0.5271609050000734,,,,,,,,,,1.0,2.0,14.0,10.0,180.750218292,,,,,,,,,,,,,,,,,180.742147091,181.94174543300005,182.739196451,182.725976563,,,,,,,,,,,,,,,,,,,,,,,,,,,,,,,,,,,182.729897049,182.739196451,182.739196451,183.274540108,g,1.0,0.5271609050000734,,,,,sub-152,1,stroop_test,75.80321446106285,
,,,,15.0,3.0,1.0,,,,,,,,,,,,,rot,yellow,g,0.0,g,1.0,0.550473960999966,,,,,,,,,,1.0,3.0,15.0,3.0,183.28466309400005,,,,,,,,,,,,,,,,,183.274851247,183.37379645200008,184.168930069,184.15760356300007,,,,,,,,,,,,,,,,,,,,,,,,,,,,,,,,,,,184.16042574100004,184.168930069,184.168930069,184.72310655400008,g,1.0,0.550473960999966,,,,,sub-152,1,stroop_test,75.80321446106285,
,,,,16.0,4.0,1.0,,,,,,,,,,,,,rot,red,r,1.0,r,1.0,0.4552812019999237,,,,,,,,,,1.0,4.0,16.0,0.0,184.731597385,,,,,,,,,,,,,,,,,184.72360713600008,185.523594388,186.325264684,186.31492378200005,,,,,,,,,,,,,,,,,,,,,,,,,,,,,,,,,,,186.31601510000007,186.325264684,186.325264684,186.789991881,r,1.0,0.4552812019999237,,,,,sub-152,1,stroop_test,75.80321446106285,
,,,,17.0,5.0,1.0,,,,,,,,,,,,,gelb,blue,b,0.0,b,1.0,0.5818257820000099,,,,,,,,,,1.0,5.0,17.0,9.0,186.800523353,,,,,,,,,,,,,,,,,186.790408502,187.1401973950001,187.940623159,187.929282737,,,,,,,,,,,,,,,,,,,,,,,,,,,,,,,,,,,187.931646827,187.940623159,187.940623159,188.539772825,b,1.0,0.5818257820000099,,,,,sub-152,1,stroop_test,75.80321446106285,
,,,,18.0,6.0,1.0,,,,,,,,,,,,,blau,blue,b,1.0,b,1.0,0.551819906999981,,,,,,,,,,1.0,6.0,18.0,5.0,188.55716335600005,,,,,,,,,,,,,,,,,188.5402421480001,188.65700183500007,189.45643433,189.44261022400008,,,,,,,,,,,,,,,,,,,,,,,,,,,,,,,,,,,189.447204114,189.45643433,189.45643433,190.01170160800007,b,1.0,0.551819906999981,,,,,sub-152,1,stroop_test,75.80321446106285,
,,,,19.0,7.0,1.0,,,,,,,,,,,,,rot,red,r,1.0,r,1.0,0.6658302619999859,,,,,,,,,,1.0,7.0,19.0,1.0,190.02539238400004,,,,,,,,,,,,,,,,,190.012304406,190.81094568600008,191.61156013700008,191.598239337,,,,,,,,,,,,,,,,,,,,,,,,,,,,,,,,,,,191.60118695900007,191.61156013700008,191.61156013700008,192.284621592,r,1.0,0.6658302619999859,,,,,sub-152,1,stroop_test,75.80321446106285,
,,,,20.0,8.0,1.0,,,,,,,,,,,,,blau,blue,b,1.0,b,1.0,0.677829470000006,,,,,,,,,,1.0,8.0,20.0,6.0,192.296515464,,,,,,,,,,,,,,,,,192.285132147,192.38300471900004,193.189535041,193.1758375940001,,,,,,,,,,,,,,,,,,,,,,,,,,,,,,,,,,,193.18023572800007,193.189535041,193.189535041,193.880595135,b,1.0,0.677829470000006,,,,,sub-152,1,stroop_test,75.80321446106285,
,,,,21.0,9.0,1.0,,,,,,,,,,,,,gelb,yellow,g,1.0,g,1.0,0.4745242050000797,,,,,,,,,,1.0,9.0,21.0,11.0,193.890699735,,,,,,,,,,,,,,,,,193.88091786300004,195.07910933200003,195.88467461800008,195.87366871100005,,,,,,,,,,,,,,,,,,,,,,,,,,,,,,,,,,,195.875966058,195.88467461800008,195.88467461800008,196.372880013,g,1.0,0.4745242050000797,,,,,sub-152,1,stroop_test,75.80321446106285,
,,,,22.0,10.0,1.0,,,,,,,,,,,,,blau,red,r,0.0,r,1.0,0.4820028569999977,,,,,,,,,,1.0,10.0,22.0,4.0,196.38312631400004,,,,,,,,,,,,,,,,,196.37325388600004,197.56521841100005,198.3641755250001,198.348928196,,,,,,,,,,,,,,,,,,,,,,,,,,,,,,,,,,,198.354411228,198.3641755250001,198.3641755250001,198.851016728,r,1.0,0.4820028569999977,,,,,sub-152,1,stroop_test,75.80321446106285,
,,,,23.0,11.0,1.0,,,,,,,,,,,,,rot,blue,b,0.0,b,1.0,0.607273771999985,,,,,,,,,,1.0,11.0,23.0,2.0,198.86324023100008,,,,,,,,,,,,,,,,,198.851623935,199.65042041000004,200.45583945200008,200.44043964600007,,,,,,,,,,,,,,,,,,,,,,,,,,,,,,,,,,,200.44316024700004,200.45583945200008,200.45583945200008,201.07297729000004,b,1.0,0.607273771999985,,,,,sub-152,1,stroop_test,75.80321446106285,
,,,,24.0,0.0,2.0,,,,,,,,,,,,,gelb,yellow,g,1.0,g,1.0,0.4764777159999767,,,,,,,,,,2.0,0.0,24.0,10.0,201.090368043,,,,,,,,,,,,,,,,,201.073486011,201.42380410200008,202.228764417,202.21350012900007,,,,,,,,,,,,,,,,,,,,,,,,,,,,,,,,,,,202.21727857000008,202.228764417,202.228764417,202.70674056300004,g,1.0,0.4764777159999767,,,,,sub-152,1,stroop_test,75.80321446106285,
,,,,25.0,1.0,2.0,,,,,,,,,,,,,blau,blue,b,1.0,b,1.0,0.5465271140000141,,,,,,,,,,2.0,1.0,25.0,5.0,202.715277827,,,,,,,,,,,,,,,,,202.70721252300007,203.05270755900003,203.87367784900005,203.85634125400009,,,,,,,,,,,,,,,,,,,,,,,,,,,,,,,,,,,203.860260909,203.87367784900005,203.87367784900005,204.424982408,b,1.0,0.5465271140000141,,,,,sub-152,1,stroop_test,75.80321446106285,
,,,,26.0,2.0,2.0,,,,,,,,,,,,,rot,yellow,g,0.0,g,1.0,0.6129828560000306,,,,,,,,,,2.0,2.0,26.0,3.0,204.43555115100003,,,,,,,,,,,,,,,,,204.425295936,205.62997614800008,206.43017132400007,206.414983152,,,,,,,,,,,,,,,,,,,,,,,,,,,,,,,,,,,206.42116332600008,206.43017132400007,206.43017132400007,207.048124936,g,1.0,0.6129828560000306,,,,,sub-152,1,stroop_test,75.80321446106285,
,,,,27.0,3.0,2.0,,,,,,,,,,,,,gelb,red,r,0.0,r,1.0,0.6287196419999646,,,,,,,,,,2.0,3.0,27.0,8.0,207.061175919,,,,,,,,,,,,,,,,,207.048785391,208.25509575500007,209.056251621,209.04073098000003,,,,,,,,,,,,,,,,,,,,,,,,,,,,,,,,,,,209.045697047,209.056251621,209.056251621,209.69159950800008,r,1.0,0.6287196419999646,,,,,sub-152,1,stroop_test,75.80321446106285,
,,,,28.0,4.0,2.0,,,,,,,,,,,,,rot,blue,b,0.0,b,1.0,0.7223796449999327,,,,,,,,,,2.0,4.0,28.0,2.0,209.702733956,,,,,,,,,,,,,,,,,209.69207459200004,209.796296095,210.59757589000003,210.582905355,,,,,,,,,,,,,,,,,,,,,,,,,,,,,,,,,,,210.58754603600005,210.59757589000003,210.59757589000003,211.324743528,b,1.0,0.7223796449999327,,,,,sub-152,1,stroop_test,75.80321446106285,
,,,,29.0,5.0,2.0,,,,,,,,,,,,,blau,blue,b,1.0,b,1.0,0.7359012730000813,,,,,,,,,,2.0,5.0,29.0,6.0,211.33606945000008,,,,,,,,,,,,,,,,,211.325086273,211.68228564700007,212.485247553,212.4739953760001,,,,,,,,,,,,,,,,,,,,,,,,,,,,,,,,,,,212.47631370300007,212.485247553,212.485247553,213.224647368,b,1.0,0.7359012730000813,,,,,sub-152,1,stroop_test,75.80321446106285,
,,,,30.0,6.0,2.0,,,,,,,,,,,,,gelb,yellow,g,1.0,g,1.0,0.5230443530000457,,,,,,,,,,2.0,6.0,30.0,11.0,213.234757779,,,,,,,,,,,,,,,,,213.22501614200007,213.5886141450001,214.390180559,214.3738713710001,,,,,,,,,,,,,,,,,,,,,,,,,,,,,,,,,,,214.3780626180001,214.390180559,214.390180559,214.922924973,g,1.0,0.5230443530000457,,,,,sub-152,1,stroop_test,75.80321446106285,
,,,,31.0,7.0,2.0,,,,,,,,,,,,,blau,red,r,0.0,r,1.0,0.5947452780000049,,,,,,,,,,2.0,7.0,31.0,4.0,214.94015296400005,,,,,,,,,,,,,,,,,214.92328856200004,215.01548872800004,215.819223652,215.80341224000009,,,,,,,,,,,,,,,,,,,,,,,,,,,,,,,,,,,215.80963400400003,215.819223652,215.819223652,216.41794523500005,r,1.0,0.5947452780000049,,,,,sub-152,1,stroop_test,75.80321446106285,
,,,,32.0,8.0,2.0,,,,,,,,,,,,,blau,yellow,g,0.0,g,1.0,0.7795145930000444,,,,,,,,,,2.0,8.0,32.0,7.0,216.428510192,,,,,,,,,,,,,,,,,216.41836998000008,216.76303272000007,217.568587203,217.55705027300007,,,,,,,,,,,,,,,,,,,,,,,,,,,,,,,,,,,217.55774861400005,217.568587203,217.568587203,218.35789273300009,g,1.0,0.7795145930000444,,,,,sub-152,1,stroop_test,75.80321446106285,
,,,,33.0,9.0,2.0,,,,,,,,,,,,,rot,red,r,1.0,r,1.0,0.5838312380000161,,,,,,,,,,2.0,9.0,33.0,1.0,218.3677480380001,,,,,,,,,,,,,,,,,218.358198453,219.15681365,219.9543351570001,219.940441567,,,,,,,,,,,,,,,,,,,,,,,,,,,,,,,,,,,219.94457802500008,219.9543351570001,219.9543351570001,220.556155313,r,1.0,0.5838312380000161,,,,,sub-152,1,stroop_test,75.80321446106285,
,,,,34.0,10.0,2.0,,,,,,,,,,,,,rot,red,r,1.0,r,1.0,0.7437553030000572,,,,,,,,,,2.0,10.0,34.0,0.0,220.57323096800008,,,,,,,,,,,,,,,,,220.5565325160001,221.3486476630001,222.15250734900008,222.140353926,,,,,,,,,,,,,,,,,,,,,,,,,,,,,,,,,,,222.141055801,222.15250734900008,222.15250734900008,222.901250364,r,1.0,0.7437553030000572,,,,,sub-152,1,stroop_test,75.80321446106285,
,,,,35.0,11.0,2.0,,,,,,,,,,,,,gelb,blue,b,0.0,b,1.0,0.5725067219999573,,,,,,,,,,2.0,11.0,35.0,9.0,222.912309136,,,,,,,,,,,,,,,,,222.90157989700003,222.99961572300003,223.80659232800008,223.790340946,,,,,,,,,,,,,,,,,,,,,,,,,,,,,,,,,,,223.7949428640001,223.80659232800008,223.80659232800008,224.38919147900003,b,1.0,0.5725067219999573,,,,,sub-152,1,stroop_test,75.80321446106285,
,,,,36.0,0.0,3.0,,,,,,,,,,,,,blau,blue,b,1.0,b,1.0,0.6050285239999766,,,,,,,,,,3.0,0.0,36.0,6.0,224.4068058720001,,,,,,,,,,,,,,,,,224.38949937900009,224.48194796400003,225.289871578,225.27222681600009,,,,,,,,,,,,,,,,,,,,,,,,,,,,,,,,,,,225.2762644640001,225.289871578,225.289871578,225.907316595,b,1.0,0.6050285239999766,,,,,sub-152,1,stroop_test,75.80321446106285,
,,,,37.0,1.0,3.0,,,,,,,,,,,,,rot,yellow,g,0.0,g,1.0,0.5470187039999246,,,,,,,,,,3.0,1.0,37.0,3.0,225.918177616,,,,,,,,,,,,,,,,,225.90763706200005,226.00634228700005,226.82318626100005,226.806926696,,,,,,,,,,,,,,,,,,,,,,,,,,,,,,,,,,,226.810929051,226.82318626100005,226.82318626100005,227.389825952,g,1.0,0.5470187039999246,,,,,sub-152,1,stroop_test,75.80321446106285,
,,,,38.0,2.0,3.0,,,,,,,,,,,,,blau,blue,b,1.0,b,1.0,0.5410850910000136,,,,,,,,,,3.0,2.0,38.0,5.0,227.406590821,,,,,,,,,,,,,,,,,227.39037230100007,227.48206525500007,228.289905827,228.27206650200003,,,,,,,,,,,,,,,,,,,,,,,,,,,,,,,,,,,228.27616653200005,228.289905827,228.289905827,228.83926235700005,b,1.0,0.5410850910000136,,,,,sub-152,1,stroop_test,75.80321446106285,
,,,,39.0,3.0,3.0,,,,,,,,,,,,,gelb,blue,b,0.0,b,1.0,0.6285647170000175,,,,,,,,,,3.0,3.0,39.0,9.0,228.85685760700005,,,,,,,,,,,,,,,,,228.839660073,229.181873965,229.989430931,229.97362343500004,,,,,,,,,,,,,,,,,,,,,,,,,,,,,,,,,,,229.97773320700003,229.989430931,229.989430931,230.62430699100003,b,1.0,0.6285647170000175,,,,,sub-152,1,stroop_test,75.80321446106285,
,,,,40.0,4.0,3.0,,,,,,,,,,,,,gelb,yellow,g,1.0,g,1.0,0.5572377710000183,,,,,,,,,,3.0,4.0,40.0,10.0,230.635145084,,,,,,,,,,,,,,,,,230.624610256,231.82505399,232.62841909400004,232.616461897,,,,,,,,,,,,,,,,,,,,,,,,,,,,,,,,,,,232.6175524390001,232.62841909400004,232.62841909400004,233.189694055,g,1.0,0.5572377710000183,,,,,sub-152,1,stroop_test,75.80321446106285,
,,,,41.0,5.0,3.0,,,,,,,,,,,,,gelb,red,r,0.0,r,1.0,0.5509721619999937,,,,,,,,,,3.0,5.0,41.0,8.0,233.206554635,,,,,,,,,,,,,,,,,233.190060775,233.531836202,234.33995009300008,234.324852566,,,,,,,,,,,,,,,,,,,,,,,,,,,,,,,,,,,234.325614427,234.33995009300008,234.33995009300008,234.906464541,r,1.0,0.5509721619999937,,,,,sub-152,1,stroop_test,75.80321446106285,
,,,,42.0,6.0,3.0,,,,,,,,,,,,,gelb,yellow,g,1.0,g,1.0,0.3944693419999794,,,,,,,,,,3.0,6.0,42.0,11.0,234.92321029000004,,,,,,,,,,,,,,,,,234.907007853,235.2484616520001,236.049318988,236.040059486,,,,,,,,,,,,,,,,,,,,,,,,,,,,,,,,,,,236.040541534,236.049318988,236.049318988,236.44629049600007,g,1.0,0.3944693419999794,,,,,sub-152,1,stroop_test,75.80321446106285,
,,,,43.0,7.0,3.0,,,,,,,,,,,,,blau,red,r,0.0,r,1.0,0.6831118549999928,,,,,,,,,,3.0,7.0,43.0,4.0,236.4579831350001,,,,,,,,,,,,,,,,,236.446709328,236.804969048,237.60358118700003,237.590099151,,,,,,,,,,,,,,,,,,,,,,,,,,,,,,,,,,,237.59417748300007,237.60358118700003,237.60358118700003,238.291114851,r,1.0,0.6831118549999928,,,,,sub-152,1,stroop_test,75.80321446106285,
,,,,44.0,8.0,3.0,,,,,,,,,,,,,blau,yellow,g,0.0,g,1.0,0.6111545580000666,,,,,,,,,,3.0,8.0,44.0,7.0,238.30121231,,,,,,,,,,,,,,,,,238.29154214200005,238.64136004700003,239.444666407,239.43063523400008,,,,,,,,,,,,,,,,,,,,,,,,,,,,,,,,,,,239.4319066740001,239.444666407,239.444666407,240.05737074400008,g,1.0,0.6111545580000666,,,,,sub-152,1,stroop_test,75.80321446106285,
,,,,45.0,9.0,3.0,,,,,,,,,,,,,rot,blue,b,0.0,b,1.0,0.7217184510000152,,,,,,,,,,3.0,9.0,45.0,2.0,240.06545636200008,,,,,,,,,,,,,,,,,240.05773194000005,241.25847886000008,242.07309333800004,242.05519596600004,,,,,,,,,,,,,,,,,,,,,,,,,,,,,,,,,,,242.05988457800004,242.07309333800004,242.07309333800004,242.80579585100008,b,1.0,0.7217184510000152,,,,,sub-152,1,stroop_test,75.80321446106285,
,,,,46.0,10.0,3.0,,,,,,,,,,,,,rot,red,r,1.0,r,1.0,0.5749867739999672,,,,,,,,,,3.0,10.0,46.0,1.0,242.82308087900003,,,,,,,,,,,,,,,,,242.806176081,242.90619872,243.70058194600009,243.6901077260001,,,,,,,,,,,,,,,,,,,,,,,,,,,,,,,,,,,243.69083590500009,243.70058194600009,243.70058194600009,244.28942125600008,r,1.0,0.5749867739999672,,,,,sub-152,1,stroop_test,75.80321446106285,
,,,,47.0,11.0,3.0,,,,,,,,,,,,,rot,red,r,1.0,r,1.0,0.540432707999912,,,,,,,,,,3.0,11.0,47.0,0.0,244.30619442400007,,,,,,,,,,,,,,,,,244.290007971,245.1070315750001,245.90145045100007,245.88996392500007,,,,,,,,,,,,,,,,,,,,,,,,,,,,,,,,,,,245.890662251,245.90145045100007,245.90145045100007,246.45800330300003,r,1.0,0.540432707999912,,,,,sub-152,1,stroop_test,75.80321446106285,
,,,,48.0,0.0,4.0,,,,,,,,,,,,,blau,red,r,0.0,r,1.0,0.5498734379999632,,,,,,,,,,4.0,0.0,48.0,4.0,246.47149041700004,,,,,,,,,,,,,,,,,246.458615741,246.806877301,247.603682938,247.59001753000007,,,,,,,,,,,,,,,,,,,,,,,,,,,,,,,,,,,247.5942640970001,247.603682938,247.603682938,248.15606670600005,r,1.0,0.5498734379999632,,,,,sub-152,1,stroop_test,75.80321446106285,
,,,,49.0,1.0,4.0,,,,,,,,,,,,,gelb,yellow,g,1.0,g,1.0,0.5268332269999974,,,,,,,,,,4.0,1.0,49.0,10.0,248.17284272200004,,,,,,,,,,,,,,,,,248.15640252600008,248.95877549300008,249.763772711,249.74922905000005,,,,,,,,,,,,,,,,,,,,,,,,,,,,,,,,,,,249.754702489,249.763772711,249.763772711,250.30638355200009,g,1.0,0.5268332269999974,,,,,sub-152,1,stroop_test,75.80321446106285,
,,,,50.0,2.0,4.0,,,,,,,,,,,,,rot,red,r,1.0,r,1.0,0.4822139770000149,,,,,,,,,,4.0,2.0,50.0,1.0,250.32290927100007,,,,,,,,,,,,,,,,,250.306927601,251.09808485300005,251.90338322600007,251.89000551000004,,,,,,,,,,,,,,,,,,,,,,,,,,,,,,,,,,,251.8939923300001,251.90338322600007,251.90338322600007,252.38917303100004,r,1.0,0.4822139770000149,,,,,sub-152,1,stroop_test,75.80321446106285,
,,,,51.0,3.0,4.0,,,,,,,,,,,,,blau,blue,b,1.0,b,1.0,0.416883815999995,,,,,,,,,,4.0,3.0,51.0,6.0,252.4062123150001,,,,,,,,,,,,,,,,,252.3896975,252.74110719500004,253.54074361800008,253.52660289800008,,,,,,,,,,,,,,,,,,,,,,,,,,,,,,,,,,,253.528816826,253.54074361800008,253.54074361800008,253.972185814,b,1.0,0.416883815999995,,,,,sub-152,1,stroop_test,75.80321446106285,
,,,,52.0,4.0,4.0,,,,,,,,,,,,,blau,yellow,g,0.0,g,1.0,0.5267001359999313,,,,,,,,,,4.0,4.0,52.0,7.0,253.98956210900008,,,,,,,,,,,,,,,,,253.97256718100004,254.06655499500005,254.87286811700005,254.8551814580001,,,,,,,,,,,,,,,,,,,,,,,,,,,,,,,,,,,254.85593498900005,254.87286811700005,254.87286811700005,255.40562258300008,g,1.0,0.5267001359999313,,,,,sub-152,1,stroop_test,75.80321446106285,
,,,,53.0,5.0,4.0,,,,,,,,,,,,,rot,blue,b,0.0,b,1.0,0.5433087400000431,,,,,,,,,,4.0,5.0,53.0,2.0,255.4225811270001,,,,,,,,,,,,,,,,,255.405932089,255.74815889500007,256.55623582400005,256.538458527,,,,,,,,,,,,,,,,,,,,,,,,,,,,,,,,,,,256.542473706,256.55623582400005,256.55623582400005,257.106986207,b,1.0,0.5433087400000431,,,,,sub-152,1,stroop_test,75.80321446106285,
,,,,54.0,6.0,4.0,,,,,,,,,,,,,gelb,yellow,g,1.0,g,1.0,0.4960724559999789,,,,,,,,,,4.0,6.0,54.0,11.0,257.118659322,,,,,,,,,,,,,,,,,257.107290896,257.906320854,258.7233644920001,258.7069029940001,,,,,,,,,,,,,,,,,,,,,,,,,,,,,,,,,,,258.71194269800003,258.7233644920001,258.7233644920001,259.224015519,g,1.0,0.4960724559999789,,,,,sub-152,1,stroop_test,75.80321446106285,
,,,,55.0,7.0,4.0,,,,,,,,,,,,,gelb,red,r,0.0,r,1.0,0.3987246890000051,,,,,,,,,,4.0,7.0,55.0,8.0,259.23597260500003,,,,,,,,,,,,,,,,,259.22449880400006,260.037906538,260.83365367600004,260.823163584,,,,,,,,,,,,,,,,,,,,,,,,,,,,,,,,,,,260.823861104,260.83365367600004,260.83365367600004,261.23858072200005,r,1.0,0.3987246890000051,,,,,sub-152,1,stroop_test,75.80321446106285,
,,,,56.0,8.0,4.0,,,,,,,,,,,,,gelb,blue,b,0.0,b,1.0,0.5446130479999738,,,,,,,,,,4.0,8.0,56.0,9.0,261.25614417400004,,,,,,,,,,,,,,,,,261.238890029,261.331357937,262.127839322,262.115683569,,,,,,,,,,,,,,,,,,,,,,,,,,,,,,,,,,,262.116971947,262.127839322,262.127839322,262.6893340060001,b,1.0,0.5446130479999738,,,,,sub-152,1,stroop_test,75.80321446106285,
,,,,57.0,9.0,4.0,,,,,,,,,,,,,rot,yellow,g,0.0,g,1.0,0.5715359089999765,,,,,,,,,,4.0,9.0,57.0,3.0,262.705941093,,,,,,,,,,,,,,,,,262.689895566,263.8852251850001,264.70603039800005,264.68827571300005,,,,,,,,,,,,,,,,,,,,,,,,,,,,,,,,,,,264.69227264100005,264.70603039800005,264.70603039800005,265.284053793,g,1.0,0.5715359089999765,,,,,sub-152,1,stroop_test,75.80321446106285,
,,,,58.0,10.0,4.0,,,,,,,,,,,,,rot,red,r,1.0,r,1.0,0.4484058040000036,,,,,,,,,,4.0,10.0,58.0,0.0,265.29502537300004,,,,,,,,,,,,,,,,,265.28439584700004,265.38970592400005,266.205973741,266.188203672,,,,,,,,,,,,,,,,,,,,,,,,,,,,,,,,,,,266.188909533,266.205973741,266.205973741,266.65718041800005,r,1.0,0.4484058040000036,,,,,sub-152,1,stroop_test,75.80321446106285,
,,,,59.0,11.0,4.0,,,,,,,,,,,,,blau,blue,b,1.0,b,1.0,0.5639706870000509,,,,,,,,,,4.0,11.0,59.0,5.0,266.66657293700007,,,,,,,,,,,,,,,,,266.657543833,266.758561119,267.564340025,267.54964568800006,,,,,,,,,,,,,,,,,,,,,,,,,,,,,,,,,,,267.55481501200006,267.564340025,267.564340025,268.14059344300006,b,1.0,0.5639706870000509,,,,,sub-152,1,stroop_test,75.80321446106285,
,,,,60.0,0.0,5.0,,,,,,,,,,,,,gelb,blue,b,0.0,b,1.0,0.7470782579999877,,,,,,,,,,5.0,0.0,60.0,9.0,268.154855676,,,,,,,,,,,,,,,,,268.141138481,269.354634486,270.15315035800006,270.139649858,,,,,,,,,,,,,,,,,,,,,,,,,,,,,,,,,,,270.143691192,270.15315035800006,270.15315035800006,270.908280095,b,1.0,0.7470782579999877,,,,,sub-152,1,stroop_test,75.80321446106285,
,,,,61.0,1.0,5.0,,,,,,,,,,,,,rot,red,r,1.0,r,1.0,0.4769194130000187,,,,,,,,,,5.0,1.0,61.0,1.0,270.92271981600004,,,,,,,,,,,,,,,,,270.908596664,272.12127300300006,272.941286152,272.9215332140001,,,,,,,,,,,,,,,,,,,,,,,,,,,,,,,,,,,272.92561281300004,272.941286152,272.941286152,273.422303488,r,1.0,0.4769194130000187,,,,,sub-152,1,stroop_test,75.80321446106285,
,,,,62.0,2.0,5.0,,,,,,,,,,,,,blau,blue,b,1.0,b,1.0,0.446674100999985,,,,,,,,,,5.0,2.0,62.0,6.0,273.43929510400005,,,,,,,,,,,,,,,,,273.4226318,273.7647581350001,274.572759164,274.5550256480001,,,,,,,,,,,,,,,,,,,,,,,,,,,,,,,,,,,274.559364877,274.572759164,274.572759164,275.039205991,b,1.0,0.446674100999985,,,,,sub-152,1,stroop_test,75.80321446106285,
,,,,63.0,3.0,5.0,,,,,,,,,,,,,gelb,yellow,g,1.0,g,1.0,0.5327176079999845,,,,,,,,,,5.0,3.0,63.0,10.0,275.056070387,,,,,,,,,,,,,,,,,275.03975194300006,276.25590313400005,277.05357740600004,277.03960688300003,,,,,,,,,,,,,,,,,,,,,,,,,,,,,,,,,,,277.044227759,277.05357740600004,277.05357740600004,277.60582983100005,g,1.0,0.5327176079999845,,,,,sub-152,1,stroop_test,75.80321446106285,
,,,,64.0,4.0,5.0,,,,,,,,,,,,,blau,blue,b,1.0,b,1.0,0.4930470760000389,,,,,,,,,,5.0,4.0,64.0,5.0,277.62256073900005,,,,,,,,,,,,,,,,,277.60637534500006,278.398104442,279.203005094,279.18962871300005,,,,,,,,,,,,,,,,,,,,,,,,,,,,,,,,,,,279.193648287,279.203005094,279.203005094,279.70012302,b,1.0,0.4930470760000389,,,,,sub-152,1,stroop_test,75.80321446106285,
,,,,65.0,5.0,5.0,,,,,,,,,,,,,gelb,yellow,g,1.0,g,1.0,0.5519484160000729,,,,,,,,,,5.0,5.0,65.0,11.0,279.7116538480001,,,,,,,,,,,,,,,,,279.70059666500003,279.805907411,280.60317496100004,280.58967860100006,,,,,,,,,,,,,,,,,,,,,,,,,,,,,,,,,,,280.59369738300006,280.60317496100004,280.60317496100004,281.172074899,g,1.0,0.5519484160000729,,,,,sub-152,1,stroop_test,75.80321446106285,
,,,,66.0,6.0,5.0,,,,,,,,,,,,,rot,yellow,g,0.0,g,1.0,0.4678512319999299,,,,,,,,,,5.0,6.0,66.0,3.0,281.1891606180001,,,,,,,,,,,,,,,,,281.17238399100006,281.974299932,282.78928962400005,282.771251863,,,,,,,,,,,,,,,,,,,,,,,,,,,,,,,,,,,282.775339045,282.78928962400005,282.78928962400005,283.2620265070001,g,1.0,0.4678512319999299,,,,,sub-152,1,stroop_test,75.80321446106285,
,,,,67.0,7.0,5.0,,,,,,,,,,,,,gelb,red,r,0.0,b,0.0,0.455605074999994,,,,,,,,,,5.0,7.0,67.0,8.0,283.274958051,,,,,,,,,,,,,,,,,283.26250663400003,284.45782072400004,285.27249772000005,285.254589636,,,,,,,,,,,,,,,,,,,,,,,,,,,,,,,,,,,285.258726347,285.27249772000005,285.27249772000005,285.734224411,b,0.0,0.455605074999994,,,,,sub-152,1,stroop_test,75.80321446106285,
,,,,68.0,8.0,5.0,,,,,,,,,,,,,rot,blue,b,0.0,b,1.0,0.5669650300000058,,,,,,,,,,5.0,8.0,68.0,2.0,285.74513054,,,,,,,,,,,,,,,,,285.73454965100007,285.8357877650001,286.636178125,286.622861347,,,,,,,,,,,,,,,,,,,,,,,,,,,,,,,,,,,286.626851461,286.636178125,286.636178125,287.2226403860001,b,1.0,0.5669650300000058,,,,,sub-152,1,stroop_test,75.80321446106285,
,,,,69.0,9.0,5.0,,,,,,,,,,,,,rot,red,r,1.0,r,1.0,0.4230037490000313,,,,,,,,,,5.0,9.0,69.0,0.0,287.238982147,,,,,,,,,,,,,,,,,287.22318786200003,288.417415657,289.2181250660001,289.20608083700006,,,,,,,,,,,,,,,,,,,,,,,,,,,,,,,,,,,289.20695010400004,289.2181250660001,289.2181250660001,289.656689025,r,1.0,0.4230037490000313,,,,,sub-152,1,stroop_test,75.80321446106285,
,,,,70.0,10.0,5.0,,,,,,,,,,,,,blau,red,r,0.0,r,1.0,0.562014377999958,,,,,,,,,,5.0,10.0,70.0,4.0,289.667542796,,,,,,,,,,,,,,,,,289.65706483400004,290.45585053800005,291.27186854,291.2560586420001,,,,,,,,,,,,,,,,,,,,,,,,,,,,,,,,,,,291.26024576200007,291.27186854,291.27186854,291.8558773220001,r,1.0,0.562014377999958,,,,,sub-152,1,stroop_test,75.80321446106285,
,,,,71.0,11.0,5.0,,,,,,,,,,,,,blau,yellow,g,0.0,g,1.0,0.5538318599999457,,,,,,,,,,5.0,11.0,71.0,7.0,291.872498135,,,,,,,,,,,,,,,,,291.856467801,293.05119492000006,293.87214647100006,293.85459053600005,,,,,,,,,,,,,,,,,,,,,,,,,,,,,,,,,,,293.855648395,293.87214647100006,293.87214647100006,294.433580182,g,1.0,0.5538318599999457,,,,,sub-152,1,stroop_test,75.80321446106285,
,,,,72.0,0.0,6.0,,,,,,,,,,,,,blau,blue,b,1.0,b,1.0,0.4506767679999939,,,,,,,,,,6.0,0.0,72.0,6.0,294.444641414,,,,,,,,,,,,,,,,,294.43392366,294.53911009500007,295.333845838,295.322658532,,,,,,,,,,,,,,,,,,,,,,,,,,,,,,,,,,,295.32334323300006,295.333845838,295.333845838,295.790202528,b,1.0,0.4506767679999939,,,,,sub-152,1,stroop_test,75.80321446106285,
,,,,73.0,1.0,6.0,,,,,,,,,,,,,rot,red,r,1.0,r,1.0,0.4201043389999768,,,,,,,,,,6.0,1.0,73.0,1.0,295.79999235700006,,,,,,,,,,,,,,,,,295.79050680600005,296.140804149,296.9556518940001,296.93778855200003,,,,,,,,,,,,,,,,,,,,,,,,,,,,,,,,,,,296.94180532400003,296.9556518940001,296.9556518940001,297.386966334,r,1.0,0.4201043389999768,,,,,sub-152,1,stroop_test,75.80321446106285,
,,,,74.0,2.0,6.0,,,,,,,,,,,,,blau,blue,b,1.0,b,1.0,0.5169578730000239,,,,,,,,,,6.0,2.0,74.0,5.0,297.39749624,,,,,,,,,,,,,,,,,297.3876223870001,297.73867341000005,298.553873876,298.529655123,,,,,,,,,,,,,,,,,,,,,,,,,,,,,,,,,,,298.531832968,298.553873876,298.553873876,299.073374888,b,1.0,0.5169578730000239,,,,,sub-152,1,stroop_test,75.80321446106285,
,,,,75.0,3.0,6.0,,,,,,,,,,,,,rot,blue,b,0.0,b,1.0,0.7098823390000462,,,,,,,,,,6.0,3.0,75.0,2.0,299.082431876,,,,,,,,,,,,,,,,,299.073740834,300.2677268890001,301.088893763,301.0711104410001,,,,,,,,,,,,,,,,,,,,,,,,,,,,,,,,,,,301.075170696,301.088893763,301.088893763,301.8049000660001,b,1.0,0.7098823390000462,,,,,sub-152,1,stroop_test,75.80321446106285,
,,,,76.0,4.0,6.0,,,,,,,,,,,,,gelb,blue,b,0.0,b,1.0,0.6099606210000275,,,,,,,,,,6.0,4.0,76.0,9.0,301.82231662800007,,,,,,,,,,,,,,,,,301.8052044120001,302.155599747,302.9527282,302.939269672,,,,,,,,,,,,,,,,,,,,,,,,,,,,,,,,,,,302.94342039800006,302.9527282,302.9527282,303.572990647,b,1.0,0.6099606210000275,,,,,sub-152,1,stroop_test,75.80321446106285,
,,,,77.0,5.0,6.0,,,,,,,,,,,,,gelb,red,r,0.0,r,1.0,0.3966465859999744,,,,,,,,,,6.0,5.0,77.0,8.0,303.58370693300003,,,,,,,,,,,,,,,,,303.573384787,304.37250656900005,305.188916105,305.171041835,,,,,,,,,,,,,,,,,,,,,,,,,,,,,,,,,,,305.1717518170001,305.188916105,305.188916105,305.58863809800005,r,1.0,0.3966465859999744,,,,,sub-152,1,stroop_test,75.80321446106285,
,,,,78.0,6.0,6.0,,,,,,,,,,,,,gelb,yellow,g,1.0,g,1.0,0.4017331909999484,,,,,,,,,,6.0,6.0,78.0,11.0,305.60567104000006,,,,,,,,,,,,,,,,,305.589019775,306.380756549,307.188852643,307.17094658400003,,,,,,,,,,,,,,,,,,,,,,,,,,,,,,,,,,,307.171646626,307.188852643,307.188852643,307.600262133,g,1.0,0.4017331909999484,,,,,sub-152,1,stroop_test,75.80321446106285,
,,,,79.0,7.0,6.0,,,,,,,,,,,,,blau,red,r,0.0,r,1.0,0.6783885199999986,,,,,,,,,,6.0,7.0,79.0,4.0,307.611076486,,,,,,,,,,,,,,,,,307.600587346,307.705544184,308.522113581,308.504440844,,,,,,,,,,,,,,,,,,,,,,,,,,,,,,,,,,,308.508575896,308.522113581,308.522113581,309.222137545,r,1.0,0.6783885199999986,,,,,sub-152,1,stroop_test,75.80321446106285,
,,,,80.0,8.0,6.0,,,,,,,,,,,,,rot,yellow,g,0.0,g,1.0,0.5923758870000029,,,,,,,,,,6.0,8.0,80.0,3.0,309.23862777500005,,,,,,,,,,,,,,,,,309.222685867,309.31380985500004,310.119454045,310.10590610300005,,,,,,,,,,,,,,,,,,,,,,,,,,,,,,,,,,,310.109979468,310.119454045,310.119454045,310.721423135,g,1.0,0.5923758870000029,,,,,sub-152,1,stroop_test,75.80321446106285,
,,,,81.0,9.0,6.0,,,,,,,,,,,,,rot,red,r,1.0,r,1.0,0.4364563159999761,,,,,,,,,,6.0,9.0,81.0,0.0,310.73876649700003,,,,,,,,,,,,,,,,,310.721815514,311.074016091,311.8722462850001,311.857774843,,,,,,,,,,,,,,,,,,,,,,,,,,,,,,,,,,,311.858480255,311.8722462850001,311.8722462850001,312.3164808810001,r,1.0,0.4364563159999761,,,,,sub-152,1,stroop_test,75.80321446106285,
,,,,82.0,10.0,6.0,,,,,,,,,,,,,blau,yellow,g,0.0,g,1.0,0.4807833940000137,,,,,,,,,,6.0,10.0,82.0,7.0,312.32858025400003,,,,,,,,,,,,,,,,,312.316908721,313.122171029,313.9196830220001,313.90578612700006,,,,,,,,,,,,,,,,,,,,,,,,,,,,,,,,,,,313.910346495,313.9196830220001,313.9196830220001,314.4117709320001,g,1.0,0.4807833940000137,,,,,sub-152,1,stroop_test,75.80321446106285,
,,,,83.0,11.0,6.0,,,,,,,,,,,,,gelb,yellow,g,1.0,g,1.0,0.4584902249999913,,,,,,,,,,6.0,11.0,83.0,10.0,314.42469083700007,,,,,,,,,,,,,,,,,314.412159376,315.607754256,316.421906865,316.40416276100007,,,,,,,,,,,,,,,,,,,,,,,,,,,,,,,,,,,316.408217574,316.421906865,316.421906865,316.88379987400003,g,1.0,0.4584902249999913,,,,,sub-152,1,stroop_test,75.80321446106285,
,,,,84.0,0.0,7.0,,,,,,,,,,,,,gelb,blue,b,0.0,b,1.0,0.5809943340000245,,,,,,,,,,7.0,0.0,84.0,9.0,316.894207508,,,,,,,,,,,,,,,,,316.88432776800005,316.98888336900006,317.799424563,317.789082149,,,,,,,,,,,,,,,,,,,,,,,,,,,,,,,,,,,317.789766525,317.799424563,317.799424563,318.3879728090001,b,1.0,0.5809943340000245,,,,,sub-152,1,stroop_test,75.80321446106285,
,,,,85.0,1.0,7.0,,,,,,,,,,,,,rot,blue,b,0.0,b,1.0,0.6945980169999757,,,,,,,,,,7.0,1.0,85.0,2.0,318.40545726100004,,,,,,,,,,,,,,,,,318.38836217900007,318.73073089600007,319.5298161200001,319.51508154400005,,,,,,,,,,,,,,,,,,,,,,,,,,,,,,,,,,,319.520596717,319.5298161200001,319.5298161200001,320.23340758100005,b,1.0,0.6945980169999757,,,,,sub-152,1,stroop_test,75.80321446106285,
,,,,86.0,2.0,7.0,,,,,,,,,,,,,rot,red,r,1.0,r,1.0,0.4930743200000052,,,,,,,,,,7.0,2.0,86.0,0.0,320.24424814300005,,,,,,,,,,,,,,,,,320.23372270000004,321.434328712,322.255337207,322.237424715,,,,,,,,,,,,,,,,,,,,,,,,,,,,,,,,,,,322.23813649500005,322.255337207,322.255337207,322.75451114400005,r,1.0,0.4930743200000052,,,,,sub-152,1,stroop_test,75.80321446106285,
,,,,87.0,3.0,7.0,,,,,,,,,,,,,blau,blue,b,1.0,b,1.0,0.5705086560000154,,,,,,,,,,7.0,3.0,87.0,6.0,322.77203169200004,,,,,,,,,,,,,,,,,322.754818055,323.10733140600007,323.90701169500005,323.890279727,,,,,,,,,,,,,,,,,,,,,,,,,,,,,,,,,,,323.89435151500004,323.90701169500005,323.90701169500005,324.4834082340001,b,1.0,0.5705086560000154,,,,,sub-152,1,stroop_test,75.80321446106285,
,,,,88.0,4.0,7.0,,,,,,,,,,,,,gelb,yellow,g,1.0,g,1.0,0.5219634029999725,,,,,,,,,,7.0,4.0,88.0,10.0,324.49429436,,,,,,,,,,,,,,,,,324.48374250200004,324.5890978030001,325.40540986100007,325.387404488,,,,,,,,,,,,,,,,,,,,,,,,,,,,,,,,,,,325.3915359900001,325.40540986100007,325.40540986100007,325.9396920490001,g,1.0,0.5219634029999725,,,,,sub-152,1,stroop_test,75.80321446106285,
,,,,89.0,5.0,7.0,,,,,,,,,,,,,blau,red,r,0.0,r,1.0,0.6179169099999626,,,,,,,,,,7.0,5.0,89.0,4.0,325.950456724,,,,,,,,,,,,,,,,,325.94005174100005,327.153912699,327.9552735980001,327.93738254100003,,,,,,,,,,,,,,,,,,,,,,,,,,,,,,,,,,,327.94142088500007,327.9552735980001,327.9552735980001,328.5886727430001,r,1.0,0.6179169099999626,,,,,sub-152,1,stroop_test,75.80321446106285,
,,,,90.0,6.0,7.0,,,,,,,,,,,,,gelb,red,r,0.0,r,1.0,0.4736884169999484,,,,,,,,,,7.0,6.0,90.0,8.0,328.60526514000003,,,,,,,,,,,,,,,,,328.589252289,328.9305199170001,329.73863660300003,329.720722745,,,,,,,,,,,,,,,,,,,,,,,,,,,,,,,,,,,329.7255120980001,329.73863660300003,329.73863660300003,330.216824676,r,1.0,0.4736884169999484,,,,,sub-152,1,stroop_test,75.80321446106285,
,,,,91.0,7.0,7.0,,,,,,,,,,,,,blau,yellow,g,0.0,g,1.0,0.6577359100000422,,,,,,,,,,7.0,7.0,91.0,7.0,330.22725071600007,,,,,,,,,,,,,,,,,330.2172896430001,330.57199170600006,331.38853525900004,331.370621606,,,,,,,,,,,,,,,,,,,,,,,,,,,,,,,,,,,331.37470727000004,331.38853525900004,331.38853525900004,332.0568446870001,g,1.0,0.6577359100000422,,,,,sub-152,1,stroop_test,75.80321446106285,
,,,,92.0,8.0,7.0,,,,,,,,,,,,,gelb,yellow,g,1.0,g,1.0,0.4957053950000727,,,,,,,,,,7.0,8.0,92.0,11.0,332.06682600500005,,,,,,,,,,,,,,,,,332.057205886,332.170304502,332.988530416,332.97067319200005,,,,,,,,,,,,,,,,,,,,,,,,,,,,,,,,,,,332.974687047,332.988530416,332.988530416,333.5053385570001,g,1.0,0.4957053950000727,,,,,sub-152,1,stroop_test,75.80321446106285,
,,,,93.0,9.0,7.0,,,,,,,,,,,,,rot,red,r,1.0,r,1.0,0.6241955099999359,,,,,,,,,,7.0,9.0,93.0,1.0,333.521661775,,,,,,,,,,,,,,,,,333.505888108,334.305182803,335.11906510200004,335.1055586350001,,,,,,,,,,,,,,,,,,,,,,,,,,,,,,,,,,,335.10953308,335.11906510200004,335.11906510200004,335.750225151,r,1.0,0.6241955099999359,,,,,sub-152,1,stroop_test,75.80321446106285,
,,,,94.0,10.0,7.0,,,,,,,,,,,,,blau,blue,b,1.0,b,1.0,0.4481643870000198,,,,,,,,,,7.0,10.0,94.0,5.0,335.760995008,,,,,,,,,,,,,,,,,335.75055703,336.544920454,337.3550310080001,337.337304431,,,,,,,,,,,,,,,,,,,,,,,,,,,,,,,,,,,337.341345157,337.3550310080001,337.3550310080001,337.80470803700007,b,1.0,0.4481643870000198,,,,,sub-152,1,stroop_test,75.80321446106285,
,,,,95.0,11.0,7.0,,,,,,,,,,,,,rot,yellow,g,0.0,g,1.0,0.5575211100000388,,,,,,,,,,7.0,11.0,95.0,3.0,337.8217466980001,,,,,,,,,,,,,,,,,337.8050490950001,338.157396191,338.958798733,338.9438979480001,,,,,,,,,,,,,,,,,,,,,,,,,,,,,,,,,,,338.94799485600004,338.958798733,338.958798733,339.52372059800007,g,1.0,0.5575211100000388,,,,,sub-152,1,stroop_test,75.80321446106285,
,,,,96.0,0.0,8.0,,,,,,,,,,,,,gelb,red,r,0.0,r,1.0,0.5462052000000313,,,,,,,,,,8.0,0.0,96.0,8.0,339.53841372500005,,,,,,,,,,,,,,,,,339.52403866500003,340.723295571,341.53774575500006,341.522029655,,,,,,,,,,,,,,,,,,,,,,,,,,,,,,,,,,,341.52605612700006,341.53774575500006,341.53774575500006,342.088125721,r,1.0,0.5462052000000313,,,,,sub-152,1,stroop_test,75.80321446106285,
,,,,97.0,1.0,8.0,,,,,,,,,,,,,rot,red,r,1.0,r,1.0,0.4581029849999822,,,,,,,,,,8.0,1.0,97.0,1.0,342.105102943,,,,,,,,,,,,,,,,,342.088436279,342.89039643600006,343.69575071300005,343.67926338200004,,,,,,,,,,,,,,,,,,,,,,,,,,,,,,,,,,,343.68612918400004,343.69575071300005,343.69575071300005,344.1731378840001,r,1.0,0.4581029849999822,,,,,sub-152,1,stroop_test,75.80321446106285,
,,,,98.0,2.0,8.0,,,,,,,,,,,,,gelb,yellow,g,1.0,g,1.0,0.4552659759999642,,,,,,,,,,8.0,2.0,98.0,11.0,344.18739464,,,,,,,,,,,,,,,,,344.17368341100007,345.386802162,346.20489908900004,346.18709818900004,,,,,,,,,,,,,,,,,,,,,,,,,,,,,,,,,,,346.191207073,346.20489908900004,346.20489908900004,346.666291697,g,1.0,0.4552659759999642,,,,,sub-152,1,stroop_test,75.80321446106285,
,,,,99.0,3.0,8.0,,,,,,,,,,,,,gelb,yellow,g,1.0,g,1.0,0.4599635309999712,,,,,,,,,,8.0,3.0,99.0,10.0,346.67704183700005,,,,,,,,,,,,,,,,,346.66661499400004,347.463636531,348.2598642180001,348.247897343,,,,,,,,,,,,,,,,,,,,,,,,,,,,,,,,,,,348.249163305,348.2598642180001,348.2598642180001,348.721292394,g,1.0,0.4599635309999712,,,,,sub-152,1,stroop_test,75.80321446106285,
,,,,100.0,4.0,8.0,,,,,,,,,,,,,blau,blue,b,1.0,b,1.0,0.6404979870000034,,,,,,,,,,8.0,4.0,100.0,5.0,348.73846008,,,,,,,,,,,,,,,,,348.7217190150001,349.073360071,349.88839569000004,349.870478541,,,,,,,,,,,,,,,,,,,,,,,,,,,,,,,,,,,349.8745720300001,349.88839569000004,349.88839569000004,350.532402383,b,1.0,0.6404979870000034,,,,,sub-152,1,stroop_test,75.80321446106285,
,,,,101.0,5.0,8.0,,,,,,,,,,,,,rot,yellow,g,0.0,g,1.0,0.4681875559999753,,,,,,,,,,8.0,5.0,101.0,3.0,350.54337525200003,,,,,,,,,,,,,,,,,350.5328651450001,351.73835860200006,352.55470052600003,352.53709102900007,,,,,,,,,,,,,,,,,,,,,,,,,,,,,,,,,,,352.54106335200004,352.55470052600003,352.55470052600003,353.0283788390001,g,1.0,0.4681875559999753,,,,,sub-152,1,stroop_test,75.80321446106285,
,,,,102.0,6.0,8.0,,,,,,,,,,,,,blau,blue,b,1.0,r,0.0,0.5969435179999891,,,,,,,,,,8.0,6.0,102.0,6.0,353.041081081,,,,,,,,,,,,,,,,,353.0286999670001,353.13019510900006,353.93829648400003,353.92035132,,,,,,,,,,,,,,,,,,,,,,,,,,,,,,,,,,,353.92445999200004,353.93829648400003,353.93829648400003,354.53810502500005,r,0.0,0.5969435179999891,,,,,sub-152,1,stroop_test,75.80321446106285,
,,,,103.0,7.0,8.0,,,,,,,,,,,,,rot,red,r,1.0,r,1.0,0.5752591920000896,,,,,,,,,,8.0,7.0,103.0,0.0,354.55494072,,,,,,,,,,,,,,,,,354.538468287,355.34063902800006,356.15451301100006,356.138576361,,,,,,,,,,,,,,,,,,,,,,,,,,,,,,,,,,,356.142898319,356.15451301100006,356.15451301100006,356.737402277,r,1.0,0.5752591920000896,,,,,sub-152,1,stroop_test,75.80321446106285,
,,,,104.0,8.0,8.0,,,,,,,,,,,,,rot,blue,b,0.0,b,1.0,0.6938711359999843,,,,,,,,,,8.0,8.0,104.0,2.0,356.754876556,,,,,,,,,,,,,,,,,356.7377978950001,357.530128011,358.326787996,358.314251271,,,,,,,,,,,,,,,,,,,,,,,,,,,,,,,,,,,358.31567346200006,358.326787996,358.326787996,359.02252479900005,b,1.0,0.6938711359999843,,,,,sub-152,1,stroop_test,75.80321446106285,
,,,,105.0,9.0,8.0,,,,,,,,,,,,,blau,yellow,g,0.0,g,1.0,0.6681730099999186,,,,,,,,,,8.0,9.0,105.0,7.0,359.03160342700005,,,,,,,,,,,,,,,,,359.0228746920001,359.367097631,360.17148797900006,360.155158034,,,,,,,,,,,,,,,,,,,,,,,,,,,,,,,,,,,360.15977301,360.17148797900006,360.17148797900006,360.854767658,g,1.0,0.6681730099999186,,,,,sub-152,1,stroop_test,75.80321446106285,
,,,,106.0,10.0,8.0,,,,,,,,,,,,,gelb,blue,b,0.0,b,1.0,0.6177169630000208,,,,,,,,,,8.0,10.0,106.0,9.0,360.87152574800007,,,,,,,,,,,,,,,,,360.855317067,362.0548610990001,362.8518837200001,362.8385275220001,,,,,,,,,,,,,,,,,,,,,,,,,,,,,,,,,,,362.842584719,362.8518837200001,362.8518837200001,363.472503966,b,1.0,0.6177169630000208,,,,,sub-152,1,stroop_test,75.80321446106285,
,,,,107.0,11.0,8.0,,,,,,,,,,,,,blau,red,r,0.0,r,1.0,0.8091100750000351,,,,,,,,,,8.0,11.0,107.0,4.0,363.483608153,,,,,,,,,,,,,,,,,363.47292685,364.666862315,365.47146943100006,365.453542038,,,,,,,,,,,,,,,,,,,,,,,,,,,,,,,,,,,365.457649066,365.47146943100006,365.47146943100006,366.2874884700001,r,1.0,0.8091100750000351,,,,,sub-152,1,stroop_test,75.80321446106285,
,,,,108.0,0.0,9.0,,,,,,,,,,,,,gelb,red,r,0.0,r,1.0,0.5969598259999884,,,,,,,,,,9.0,0.0,108.0,8.0,366.304565979,,,,,,,,,,,,,,,,,366.2877994280001,367.089941607,367.895570776,367.88137884700006,,,,,,,,,,,,,,,,,,,,,,,,,,,,,,,,,,,367.8866607160001,367.895570776,367.895570776,368.504443014,r,1.0,0.5969598259999884,,,,,sub-152,1,stroop_test,75.80321446106285,
,,,,109.0,1.0,9.0,,,,,,,,,,,,,blau,red,r,0.0,r,1.0,0.582857912999998,,,,,,,,,,9.0,1.0,109.0,4.0,368.521343915,,,,,,,,,,,,,,,,,368.504998249,369.2969845900001,370.1046276420001,370.086767581,,,,,,,,,,,,,,,,,,,,,,,,,,,,,,,,,,,370.09083991400007,370.1046276420001,370.1046276420001,370.68919123,r,1.0,0.582857912999998,,,,,sub-152,1,stroop_test,75.80321446106285,
,,,,110.0,2.0,9.0,,,,,,,,,,,,,blau,blue,b,1.0,b,1.0,0.5679068690000122,,,,,,,,,,9.0,2.0,110.0,6.0,370.698232822,,,,,,,,,,,,,,,,,370.6895429890001,370.790177597,371.585548401,371.57410493200007,,,,,,,,,,,,,,,,,,,,,,,,,,,,,,,,,,,371.575919386,371.585548401,371.585548401,372.159952578,b,1.0,0.5679068690000122,,,,,sub-152,1,stroop_test,75.80321446106285,
,,,,111.0,3.0,9.0,,,,,,,,,,,,,rot,red,r,1.0,r,1.0,0.6052729660000296,,,,,,,,,,9.0,3.0,111.0,0.0,372.170143177,,,,,,,,,,,,,,,,,372.1603986690001,373.36351009200007,374.1713809710001,374.15351963,,,,,,,,,,,,,,,,,,,,,,,,,,,,,,,,,,,374.1575332880001,374.1713809710001,374.1713809710001,374.7825481050001,r,1.0,0.6052729660000296,,,,,sub-152,1,stroop_test,75.80321446106285,
,,,,112.0,4.0,9.0,,,,,,,,,,,,,gelb,yellow,g,1.0,g,1.0,0.5257051639999872,,,,,,,,,,9.0,4.0,112.0,10.0,374.793462254,,,,,,,,,,,,,,,,,374.782877093,374.88098255400007,375.7048179460001,375.687010365,,,,,,,,,,,,,,,,,,,,,,,,,,,,,,,,,,,375.6920662890001,375.7048179460001,375.7048179460001,376.24359564200006,g,1.0,0.5257051639999872,,,,,sub-152,1,stroop_test,75.80321446106285,
,,,,113.0,5.0,9.0,,,,,,,,,,,,,rot,blue,b,0.0,b,1.0,0.4149356970000326,,,,,,,,,,9.0,5.0,113.0,2.0,376.2555323840001,,,,,,,,,,,,,,,,,376.24414688700006,376.595054954,377.404542298,377.388304315,,,,,,,,,,,,,,,,,,,,,,,,,,,,,,,,,,,377.392919418,377.404542298,377.404542298,377.8373886110001,b,1.0,0.4149356970000326,,,,,sub-152,1,stroop_test,75.80321446106285,
,,,,114.0,6.0,9.0,,,,,,,,,,,,,rot,yellow,g,0.0,g,1.0,0.5233097080000562,,,,,,,,,,9.0,6.0,114.0,3.0,377.8543889,,,,,,,,,,,,,,,,,377.837698109,377.929560812,378.732765307,378.72176917600007,,,,,,,,,,,,,,,,,,,,,,,,,,,,,,,,,,,378.7224877590001,378.732765307,378.732765307,379.265908532,g,1.0,0.5233097080000562,,,,,sub-152,1,stroop_test,75.80321446106285,
,,,,115.0,7.0,9.0,,,,,,,,,,,,,gelb,blue,b,0.0,b,1.0,0.7016810590000659,,,,,,,,,,9.0,7.0,115.0,9.0,379.2767484660001,,,,,,,,,,,,,,,,,379.26623386000006,380.07139240800007,380.86863653600005,380.85487026300007,,,,,,,,,,,,,,,,,,,,,,,,,,,,,,,,,,,380.8590371060001,380.86863653600005,380.86863653600005,381.5879495710001,b,1.0,0.7016810590000659,,,,,sub-152,1,stroop_test,75.80321446106285,
,,,,116.0,8.0,9.0,,,,,,,,,,,,,blau,blue,b,1.0,b,1.0,0.5053325610000456,,,,,,,,,,9.0,8.0,116.0,5.0,381.604563064,,,,,,,,,,,,,,,,,381.588496985,381.67988828500006,382.4848223,382.471513585,,,,,,,,,,,,,,,,,,,,,,,,,,,,,,,,,,,382.475541434,382.4848223,382.4848223,383.0046616890001,b,1.0,0.5053325610000456,,,,,sub-152,1,stroop_test,75.80321446106285,
,,,,117.0,9.0,9.0,,,,,,,,,,,,,gelb,yellow,g,1.0,g,1.0,0.5375792919999185,,,,,,,,,,9.0,9.0,117.0,11.0,383.021168199,,,,,,,,,,,,,,,,,383.005484109,383.1210827160001,383.93779170900007,383.91990532,,,,,,,,,,,,,,,,,,,,,,,,,,,,,,,,,,,383.9239123370001,383.93779170900007,383.93779170900007,384.489349275,g,1.0,0.5375792919999185,,,,,sub-152,1,stroop_test,75.80321446106285,
,,,,118.0,10.0,9.0,,,,,,,,,,,,,rot,red,r,1.0,r,1.0,0.4588622740000119,,,,,,,,,,9.0,10.0,118.0,1.0,384.5035852470001,,,,,,,,,,,,,,,,,384.489892639,384.5899434290001,385.404475392,385.386600442,,,,,,,,,,,,,,,,,,,,,,,,,,,,,,,,,,,385.390657831,385.404475392,385.404475392,385.870514239,r,1.0,0.4588622740000119,,,,,sub-152,1,stroop_test,75.80321446106285,
,,,,119.0,11.0,9.0,,,,,,,,,,,,,blau,yellow,g,0.0,g,1.0,0.661136866999982,,,,,,,,,,9.0,11.0,119.0,7.0,385.88771465600007,,,,,,,,,,,,,,,,,385.870915569,387.071215864,387.86804834300005,387.854682558,,,,,,,,,,,,,,,,,,,,,,,,,,,,,,,,,,,387.858837784,387.86804834300005,387.86804834300005,388.538362246,g,1.0,0.661136866999982,,,,,sub-152,1,stroop_test,75.80321446106285,
,,,,,,,,,,,,,,,,,,,,,,,,,,,,,,,,,,,,,,,,,,,,,,,,,,,,,,,,,,,,,,,,,,,,,,,,,,,,,,,,,,,,,,,,,,,,,,,,,,,,,,388.538543635,388.55074732,393.55295646700006,sub-152,1,stroop_test,75.80321446106285,
