wordCTK,colorCTK,corrAnsCTK,congruentCTK,thisN,thisTrialN,thisRepN,keyResp_CTK.keys,keyResp_CTK.corr,keyResp_CTK.rt,keyResp_CTK.duration,wordPractice,colorPractice,corrAnsPractice,congruentPractice,respPractice.keys,respPractice.corr,respPractice.rt,respPractice.duration,word,color,corrAns,congruent,keyResp_test_run.keys,keyResp_test_run.corr,keyResp_test_run.rt,keyResp_test_run.duration,trials_CTK.thisRepN,trials_CTK.thisTrialN,trials_CTK.thisN,trials_CTK.thisIndex,trials_practice.thisRepN,trials_practice.thisTrialN,trials_practice.thisN,trials_practice.thisIndex,trials_test.thisRepN,trials_test.thisTrialN,trials_test.thisN,trials_test.thisIndex,thisRow.t,notes,instruction.started,instr_text.started,instr_image.started,instr_resp.started,instruction.stopped,instr_resp.keys,instr_resp.rt,instr_resp.duration,instr_color_to_key.started,instr_ctk.started,resp_ctk.started,instr_color_to_key.stopped,resp_ctk.keys,resp_ctk.rt,resp_ctk.duration,ITI.started,fixcross.started,fixcross.stopped,ITI.stopped,color_to_key_run.started,stimulus_CTK.started,keyResp_CTK.started,color_to_key_run.stopped,trials_CTK.keyResp_CTK.keys,trials_CTK.keyResp_CTK.corr,trials_CTK.keyResp_CTK.rt,trials_CTK.keyResp_CTK.duration,instr_practice.started,instr_practice_text.started,instr_practice_resp.started,instr_practice.stopped,instr_practice_resp.keys,instr_practice_resp.rt,instr_practice_resp.duration,practice_run.started,stimulus_practice.started,respPractice.started,practice_run.stopped,trials_practice.respPractice.keys,trials_practice.respPractice.corr,trials_practice.respPractice.rt,trials_practice.respPractice.duration,feedback.started,textFeedback.started,feedback.stopped,textFeedback.stopped,instr_test.started,instr_test_text.started,instr_test_resp.started,instr_test.stopped,instr_test_resp.keys,instr_test_resp.rt,instr_test_resp.duration,test_run.started,stimulus_test_run.started,keyResp_test_run.started,test_run.stopped,trials_test.keyResp_test_run.keys,trials_test.keyResp_test_run.corr,trials_test.keyResp_test_run.rt,trials_test.keyResp_test_run.duration,goodbye.started,textGoodbye.started,textGoodbye.stopped,goodbye.stopped,participant,session,expName,frameRate,Unnamed: 113
,,,,,,,,,,,,,,,,,,,,,,,,,,,,,,,,,,,,,,,,,0.0145695829996839,0.0247512079949956,0.0247512079949956,0.0247512079949956,44.666483124980005,space,44.56760833400767,,,,,,,,,,,,,,,,,,,,,,,,,,,,,,,,,,,,,,,,,,,,,,,,,,,,,,,,,,,sub-194,1,stroop_test,,
,,,,,,,,,,,,,,,,,,,,,,,,,,,,,,,,,,,,,,,,,,,,,,,,,44.6665529999882,44.71735045799869,44.71735045799869,47.70434916598606,space,2.9823342499730643,,,,,,,,,,,,,,,,,,,,,,,,,,,,,,,,,,,,,,,,,,,,,,,,,,,,sub-194,1,stroop_test,,
test,blue,b,1.0,0.0,0.0,0.0,b,1.0,5.38559874999919,,,,,,,,,,,,,,,,,,0.0,0.0,0.0,2.0,,,,,,,,,47.74781666600029,,,,,,,,,,,,,,,,,47.7272870829911,48.51262445800239,49.31144566598232,49.2977275000012,49.30381233300432,49.31144566598232,49.31144566598232,54.69954770797631,b,1.0,5.38559874999919,,,,,,,,,,,,,,,,,,,,,,,,,,,,,,,,,,,,,,,,sub-194,1,stroop_test,,
test,yellow,g,1.0,1.0,1.0,0.0,g,1.0,1.912633291009115,,,,,,,,,,,,,,,,,,0.0,1.0,1.0,1.0,,,,,,,,,54.70950545798405,,,,,,,,,,,,,,,,,54.69995741598541,55.89741687499918,56.68953583299299,56.681415707978886,56.68210154099506,56.68953583299299,56.68953583299299,58.60564220798551,g,1.0,1.912633291009115,,,,,,,,,,,,,,,,,,,,,,,,,,,,,,,,,,,,,,,,sub-194,1,stroop_test,,
test,red,r,1.0,2.0,2.0,0.0,r,1.0,0.8148091670009308,,,,,,,,,,,,,,,,,,0.0,2.0,2.0,0.0,,,,,,,,,58.61592262500199,,,,,,,,,,,,,,,,,58.60603316599736,58.704274540999904,59.50612395798089,59.497854624991305,59.498559457977535,59.50612395798089,59.50612395798089,60.333627332991455,r,1.0,0.8148091670009308,,,,,,,,,,,,,,,,,,,,,,,,,,,,,,,,,,,,,,,,sub-194,1,stroop_test,,
test,yellow,g,1.0,3.0,0.0,1.0,g,1.0,0.945845709007699,,,,,,,,,,,,,,,,,,1.0,0.0,3.0,1.0,,,,,,,,,60.34694158300408,,,,,,,,,,,,,,,,,60.3340330409992,60.680639290978434,61.472556624998106,61.46452045798651,61.465199124999344,61.472556624998106,61.472556624998106,62.422385790996486,g,1.0,0.945845709007699,,,,,,,,,,,,,,,,,,,,,,,,,,,,,,,,,,,,,,,,sub-194,1,stroop_test,,
test,red,r,1.0,4.0,1.0,1.0,r,1.0,0.7942241249838844,,,,,,,,,,,,,,,,,,1.0,1.0,4.0,0.0,,,,,,,,,62.432074249984,,,,,,,,,,,,,,,,,62.422873082978185,63.62002599998959,64.41336725000292,64.40313779099961,64.40381416599848,64.41336725000292,64.41336725000292,65.21653199999128,r,1.0,0.7942241249838844,,,,,,,,,,,,,,,,,,,,,,,,,,,,,,,,,,,,,,,,sub-194,1,stroop_test,,
test,blue,b,1.0,5.0,2.0,1.0,b,1.0,1.0342900000105146,,,,,,,,,,,,,,,,,,1.0,2.0,5.0,2.0,,,,,,,,,65.22630629097694,,,,,,,,,,,,,,,,,65.21704116600449,65.56401295799878,66.35571750000236,66.34810324999853,66.34875604099943,66.35571750000236,66.35571750000236,67.40004704098101,b,1.0,1.0342900000105146,,,,,,,,,,,,,,,,,,,,,,,,,,,,,,,,,,,,,,,,sub-194,1,stroop_test,,
test,blue,b,1.0,6.0,0.0,2.0,b,1.0,0.7821023750002496,,,,,,,,,,,,,,,,,,2.0,0.0,6.0,2.0,,,,,,,,,67.41030762498849,,,,,,,,,,,,,,,,,67.40055500000017,68.19736974997795,68.98905424997793,68.9812305829837,68.98188020798261,68.98905424997793,68.98905424997793,69.78247062498122,b,1.0,0.7821023750002496,,,,,,,,,,,,,,,,,,,,,,,,,,,,,,,,,,,,,,,,sub-194,1,stroop_test,,
test,yellow,g,1.0,7.0,1.0,2.0,g,1.0,0.8492793749901466,,,,,,,,,,,,,,,,,,2.0,1.0,7.0,1.0,,,,,,,,,69.792496457987,,,,,,,,,,,,,,,,,69.78294695800287,70.98059674998512,71.77208162497845,71.76458437499241,71.76525658299215,71.77208162497845,71.77208162497845,72.63252441599616,g,1.0,0.8492793749901466,,,,,,,,,,,,,,,,,,,,,,,,,,,,,,,,,,,,,,,,sub-194,1,stroop_test,,
test,red,r,1.0,8.0,2.0,2.0,r,1.0,0.8631602090026718,,,,,,,,,,,,,,,,,,2.0,2.0,8.0,0.0,,,,,,,,,72.64241137498175,,,,,,,,,,,,,,,,,72.63303799999994,73.83071779098827,74.62315979099367,74.61498562499764,74.61568170800456,74.62315979099367,74.62315979099367,75.48929254099494,r,1.0,0.8631602090026718,,,,,,,,,,,,,,,,,,,,,,,,,,,,,,,,,,,,,,,,sub-194,1,stroop_test,,
test,yellow,g,1.0,9.0,0.0,3.0,g,1.0,0.8066231660195626,,,,,,,,,,,,,,,,,,3.0,0.0,9.0,1.0,,,,,,,,,75.49949137499789,,,,,,,,,,,,,,,,,75.48967787498259,76.68727125000441,77.48018404099275,77.47091987499152,77.47158933299943,77.48018404099275,77.48018404099275,78.28921108299983,g,1.0,0.8066231660195626,,,,,,,,,,,,,,,,,,,,,,,,,,,,,,,,,,,,,,,,sub-194,1,stroop_test,,
test,blue,b,1.0,10.0,1.0,3.0,b,1.0,0.8089213329949416,,,,,,,,,,,,,,,,,,3.0,1.0,10.0,2.0,,,,,,,,,78.29945041600149,,,,,,,,,,,,,,,,,78.2896114999894,79.08726166599081,79.89044066600036,79.88170191599056,79.88251079097972,79.89044066600036,79.89044066600036,80.7058341660013,b,1.0,0.8089213329949416,,,,,,,,,,,,,,,,,,,,,,,,,,,,,,,,,,,,,,,,sub-194,1,stroop_test,,
test,red,r,1.0,11.0,2.0,3.0,r,1.0,0.8849704170133919,,,,,,,,,,,,,,,,,,3.0,2.0,11.0,0.0,,,,,,,,,80.71600545800175,,,,,,,,,,,,,,,,,80.70621866598958,81.90334887499921,82.696187249996,82.68781116598984,82.68851095798891,82.696187249996,82.696187249996,83.58355008298531,r,1.0,0.8849704170133919,,,,,,,,,,,,,,,,,,,,,,,,,,,,,,,,,,,,,,,,sub-194,1,stroop_test,,
,,,,,,,,,,,,,,,,,,,,,,,,,,,,,,,,,,,,,,,,,,,,,,,,,,,,,,,,,,,,,,,,,,,,83.5837793329847,83.5949139999866,83.5949139999866,92.60523674997968,space,9.003783624997595,,,,,,,,,,,,,,,,,,,,,,,,,,,,,,,,,sub-194,1,stroop_test,,
,,,,0.0,0.0,0.0,,,,,gelb,yellow,g,1.0,r,0.0,1.4350175410218071,,,,,,,,,,,,,,0.0,0.0,0.0,10.0,,,,,92.6286146659986,,,,,,,,,,,,,,,,,92.61935766600072,93.40337912499672,94.20155079098186,94.18816874999902,,,,,,,,,,,,,,,,94.19477145798736,94.20155079098186,94.20155079098186,95.64014941599451,r,0.0,1.4350175410218071,,95.64631320798073,95.65651924998384,96.64773162498022,,,,,,,,,,,,,,,,,,,,,sub-194,1,stroop_test,,
,,,,1.0,1.0,0.0,,,,,rot,red,r,1.0,r,1.0,3.114070250012446,,,,,,,,,,,,,,0.0,1.0,1.0,0.0,,,,,96.653056457988,,,,,,,,,,,,,,,,,96.64819795798394,96.7365568749956,97.53563016597764,97.52184820797991,,,,,,,,,,,,,,,,97.52887662500144,97.53563016597764,97.53563016597764,100.65609770797892,r,1.0,3.114070250012446,,100.66112883298774,100.67172091599788,101.66447091600276,,,,,,,,,,,,,,,,,,,,,sub-194,1,stroop_test,,
,,,,2.0,2.0,0.0,,,,,blau,blue,b,1.0,b,1.0,0.944967708986951,,,,,,,,,,,,,,0.0,2.0,2.0,6.0,,,,,101.67008262500168,,,,,,,,,,,,,,,,,101.66491437499644,102.45419508300256,103.26007008299348,103.248332749994,,,,,,,,,,,,,,,,103.2528095000016,103.26007008299348,103.26007008299348,104.21616887499113,b,1.0,0.944967708986951,,104.21674195799278,104.22729295797762,105.21509316598532,105.22130066598766,,,,,,,,,,,,,,,,,,,,sub-194,1,stroop_test,,
,,,,3.0,3.0,0.0,,,,,blau,blue,b,1.0,b,1.0,0.9195544999965932,,,,,,,,,,,,,,0.0,3.0,3.0,5.0,,,,,105.22130066598766,,,,,,,,,,,,,,,,,105.21567316597792,105.56414683299954,106.35683504099144,106.34844674999476,,,,,,,,,,,,,,,,106.34933162498056,106.35683504099144,106.35683504099144,107.28330999999888,b,1.0,0.9195544999965932,,107.28403937499388,107.29571504099296,108.28182358297636,108.28732312499778,,,,,,,,,,,,,,,,,,,,sub-194,1,stroop_test,,
,,,,4.0,4.0,0.0,,,,,blau,yellow,g,0.0,g,1.0,1.1609216250071768,,,,,,,,,,,,,,0.0,4.0,4.0,7.0,,,,,108.28732312499778,,,,,,,,,,,,,,,,,108.28229724999984,108.38125099998432,109.17285204099608,109.16515816599713,,,,,,,,,,,,,,,,109.1658228749875,109.17285204099608,109.17285204099608,110.33881383299013,g,1.0,1.1609216250071768,,110.33938187500462,110.35017620798315,111.33847758299088,111.3475566249981,,,,,,,,,,,,,,,,,,,,sub-194,1,stroop_test,,
,,,,5.0,5.0,0.0,,,,,blau,red,r,0.0,r,1.0,0.5251824590086471,,,,,,,,,,,,,,0.0,5.0,5.0,4.0,,,,,111.3475566249981,,,,,,,,,,,,,,,,,111.33893920798435,112.53769991599256,113.34004716598427,113.33201720798388,,,,,,,,,,,,,,,,113.3326622909808,113.34004716598427,113.34004716598427,113.87801520799984,r,1.0,0.5251824590086471,,113.8785952499893,113.88733174998195,114.88135599999804,,,,,,,,,,,,,,,,,,,,,sub-194,1,stroop_test,,
,,,,6.0,6.0,0.0,,,,,rot,red,r,1.0,r,1.0,0.8315831660002004,,,,,,,,,,,,,,0.0,6.0,6.0,1.0,,,,,114.88659929099958,,,,,,,,,,,,,,,,,114.88179695798316,115.22108354099328,116.0268296659924,116.0152871249884,,,,,,,,,,,,,,,,116.01947458297946,116.0268296659924,116.0268296659924,116.86676754098151,r,1.0,0.8315831660002004,,116.86738574999616,116.8783788330038,117.8652893329854,117.8713472909876,,,,,,,,,,,,,,,,,,,,sub-194,1,stroop_test,,
,,,,7.0,7.0,0.0,,,,,rot,blue,b,0.0,b,1.0,0.7941615419986192,,,,,,,,,,,,,,0.0,7.0,7.0,2.0,,,,,117.8713472909876,,,,,,,,,,,,,,,,,117.8657909159956,117.96464912500232,118.75653741598944,118.74851499998476,,,,,,,,,,,,,,,,118.74915008299286,118.75653741598944,118.75653741598944,119.5558369999926,b,1.0,0.7941615419986192,,119.55641770799411,119.56708687500212,120.55447479098802,120.56460662497555,,,,,,,,,,,,,,,,,,,,sub-194,1,stroop_test,,
,,,,8.0,8.0,0.0,,,,,rot,yellow,g,0.0,g,1.0,0.9616378750069998,,,,,,,,,,,,,,0.0,8.0,8.0,3.0,,,,,120.56460662497555,,,,,,,,,,,,,,,,,120.55494466598611,121.75341762500466,122.54739929098288,122.53706495798542,,,,,,,,,,,,,,,,122.53773266598,122.54739929098288,122.54739929098288,123.51711924999836,g,1.0,0.9616378750069998,,123.51802808299544,123.52938391600036,124.51532329097972,124.52182645798894,,,,,,,,,,,,,,,,,,,,sub-194,1,stroop_test,,
,,,,9.0,9.0,0.0,,,,,gelb,yellow,g,1.0,g,1.0,0.8282840419851709,,,,,,,,,,,,,,0.0,9.0,9.0,11.0,,,,,124.52182645798894,,,,,,,,,,,,,,,,,124.5158148749906,124.86482987497584,125.66025533300126,125.64860349998344,,,,,,,,,,,,,,,,125.6531135829864,125.66025533300126,125.66025533300126,126.50026104098652,g,1.0,0.8282840419851709,,126.50101008298223,126.5126407079806,127.49874974999692,127.50471508299232,,,,,,,,,,,,,,,,,,,,sub-194,1,stroop_test,,
,,,,10.0,10.0,0.0,,,,,gelb,blue,b,0.0,b,1.0,0.7140212079975754,,,,,,,,,,,,,,0.0,10.0,10.0,9.0,,,,,127.50471508299232,,,,,,,,,,,,,,,,,127.49933245798456,128.29802579098032,129.09006487499573,129.08202195799095,,,,,,,,,,,,,,,,129.08268949997728,129.09006487499573,129.09006487499573,129.8066164579941,b,1.0,0.7140212079975754,,129.80720204100362,129.81913029099815,130.80380904098274,130.81465933300206,,,,,,,,,,,,,,,,,,,,sub-194,1,stroop_test,,
,,,,11.0,11.0,0.0,,,,,gelb,red,r,0.0,r,1.0,0.7313399580016267,,,,,,,,,,,,,,0.0,11.0,11.0,8.0,,,,,130.81465933300206,,,,,,,,,,,,,,,,,130.8042681659863,131.15427812500275,131.94757824999397,131.93718358298065,,,,,,,,,,,,,,,,131.9378235829936,131.94757824999397,131.94757824999397,132.6828926659946,r,1.0,0.7313399580016267,,132.68345987499924,132.69440308297635,133.68216308299452,133.68801304098452,,,,,,,,,,,,,,,,,,,,sub-194,1,stroop_test,,
,,,,12.0,0.0,1.0,,,,,rot,red,r,1.0,r,1.0,0.7592089590034448,,,,,,,,,,,,,,1.0,0.0,12.0,0.0,,,,,133.68801304098452,,,,,,,,,,,,,,,,,133.68260808297782,134.0315389999887,134.82677658298053,134.81543399998918,,,,,,,,,,,,,,,,134.81929200000013,134.82677658298053,134.82677658298053,135.59016125000198,r,1.0,0.7592089590034448,,135.59085816598963,135.60298274998786,136.5884553329961,136.5979165000026,,,,,,,,,,,,,,,,,,,,sub-194,1,stroop_test,,
,,,,13.0,1.0,1.0,,,,,blau,red,r,0.0,r,1.0,0.6854644170089159,,,,,,,,,,,,,,1.0,1.0,13.0,4.0,,,,,136.5979165000026,,,,,,,,,,,,,,,,,136.58897087498917,136.68791170799523,137.48156741599087,137.47103904100368,,,,,,,,,,,,,,,,137.47433408300276,137.48156741599087,137.48156741599087,138.17320712498622,r,1.0,0.6854644170089159,,138.1739142499864,138.18621225000243,139.17170829098905,139.18151891598245,,,,,,,,,,,,,,,,,,,,sub-194,1,stroop_test,,
,,,,14.0,2.0,1.0,,,,,blau,yellow,g,0.0,g,1.0,0.8370739999809302,,,,,,,,,,,,,,1.0,2.0,14.0,7.0,,,,,139.18151891598245,,,,,,,,,,,,,,,,,139.1720917079947,140.3709651659883,141.16423087500152,141.15426337497777,,,,,,,,,,,,,,,,141.15496587500093,141.16423087500152,141.16423087500152,142.0051299999759,g,1.0,0.8370739999809302,,142.00569216598524,142.016948665987,143.00404716600315,143.01490716598346,,,,,,,,,,,,,,,,,,,,sub-194,1,stroop_test,,
,,,,15.0,3.0,1.0,,,,,rot,red,r,1.0,r,1.0,0.7218743750127032,,,,,,,,,,,,,,1.0,3.0,15.0,1.0,,,,,143.01490716598346,,,,,,,,,,,,,,,,,143.00449883300462,143.35523729099077,144.1508818329894,144.13867816599668,,,,,,,,,,,,,,,,144.14319462497951,144.1508818329894,144.1508818329894,144.88388616600423,r,1.0,0.7218743750127032,,144.88467845798004,144.89570387499407,145.88208849998773,145.88780783300172,,,,,,,,,,,,,,,,,,,,sub-194,1,stroop_test,,
,,,,16.0,4.0,1.0,,,,,gelb,blue,b,0.0,b,1.0,0.6617579589947127,,,,,,,,,,,,,,1.0,4.0,16.0,9.0,,,,,145.88780783300172,,,,,,,,,,,,,,,,,145.88268524999148,147.0817715409794,147.87648708297638,147.86557170798187,,,,,,,,,,,,,,,,147.86938449999434,147.87648708297638,147.87648708297638,148.5407667499967,b,1.0,0.6617579589947127,,148.54132508300245,148.55296883298433,149.53865375000169,149.54812745799427,,,,,,,,,,,,,,,,,,,,sub-194,1,stroop_test,,
,,,,17.0,5.0,1.0,,,,,gelb,yellow,g,1.0,g,1.0,0.6668727090000175,,,,,,,,,,,,,,1.0,5.0,17.0,11.0,,,,,149.54812745799427,,,,,,,,,,,,,,,,,149.53914220799925,150.73767649999354,151.54024312499678,151.53233349998482,,,,,,,,,,,,,,,,151.53298154097865,151.54024312499678,151.54024312499678,152.21705654097605,g,1.0,0.6668727090000175,,152.2176317499834,152.2280493750004,153.2154723329877,153.2212550409895,,,,,,,,,,,,,,,,,,,,sub-194,1,stroop_test,,
,,,,18.0,6.0,1.0,,,,,blau,blue,b,1.0,b,1.0,0.914308292005444,,,,,,,,,,,,,,1.0,6.0,18.0,5.0,,,,,153.2212550409895,,,,,,,,,,,,,,,,,153.21591187498416,154.41507862499566,155.21043587499298,155.19901862498955,,,,,,,,,,,,,,,,155.20308183299494,155.21043587499298,155.21043587499298,156.1326729579887,b,1.0,0.914308292005444,,156.1334255829861,156.14451049998752,157.1321941659844,157.13773758299067,,,,,,,,,,,,,,,,,,,,sub-194,1,stroop_test,,
,,,,19.0,7.0,1.0,,,,,gelb,yellow,g,1.0,g,1.0,0.8055163339886349,,,,,,,,,,,,,,1.0,7.0,19.0,10.0,,,,,157.13773758299067,,,,,,,,,,,,,,,,,157.13267845800146,157.23182324998197,158.0264090829878,158.01573058299255,,,,,,,,,,,,,,,,158.01927262498066,158.0264090829878,158.0264090829878,158.834474415984,g,1.0,0.8055163339886349,,158.83511366599123,158.8460782500042,159.83236754097743,159.83828912497847,,,,,,,,,,,,,,,,,,,,sub-194,1,stroop_test,,
,,,,20.0,8.0,1.0,,,,,blau,blue,b,1.0,b,1.0,0.7430317079997621,,,,,,,,,,,,,,1.0,8.0,20.0,6.0,,,,,159.83828912497847,,,,,,,,,,,,,,,,,159.83282691598288,160.63182937499369,161.42693158300244,161.41579199998523,,,,,,,,,,,,,,,,161.41956816599122,161.42693158300244,161.42693158300244,162.173634915991,b,1.0,0.7430317079997621,,162.1741955409816,162.18639858299866,163.1711565000005,163.18182645799243,,,,,,,,,,,,,,,,,,,,sub-194,1,stroop_test,,
,,,,21.0,9.0,1.0,,,,,rot,blue,b,0.0,b,1.0,0.7902783330064267,,,,,,,,,,,,,,1.0,9.0,21.0,2.0,,,,,163.18182645799243,,,,,,,,,,,,,,,,,163.17161645798478,163.97140458298963,164.7813409579976,164.75537974998588,,,,,,,,,,,,,,,,164.7587327079964,164.7813409579976,164.7813409579976,165.57372004099307,b,1.0,0.7902783330064267,,165.5742883749772,165.58620908297598,166.57167733297683,166.58206120799878,,,,,,,,,,,,,,,,,,,,sub-194,1,stroop_test,,
,,,,22.0,10.0,1.0,,,,,gelb,red,r,0.0,r,1.0,0.8934357500111219,,,,,,,,,,,,,,1.0,10.0,22.0,8.0,,,,,166.58206120799878,,,,,,,,,,,,,,,,,166.57220116598182,166.6720559579844,167.47634012499475,167.4658123329864,,,,,,,,,,,,,,,,167.46923941597925,167.47634012499475,167.47634012499475,168.37382408298436,r,1.0,0.8934357500111219,,168.37454158297624,168.38663037499646,169.37098170799436,169.3818894159922,,,,,,,,,,,,,,,,,,,,sub-194,1,stroop_test,,
,,,,23.0,11.0,1.0,,,,,rot,yellow,g,0.0,g,1.0,0.7980632500257343,,,,,,,,,,,,,,1.0,11.0,23.0,3.0,,,,,169.3818894159922,,,,,,,,,,,,,,,,,169.37146058300277,170.57192162499996,171.36768966598902,171.35579262499232,,,,,,,,,,,,,,,,171.35978670799523,171.36768966598902,171.36768966598902,172.16818320797756,g,1.0,0.7980632500257343,,172.16882641598932,172.1798202909995,173.1660456660029,173.17394724997575,,,,,,,,,,,,,,,,,,,,sub-194,1,stroop_test,,
,,,,,,,,,,,,,,,,,,,,,,,,,,,,,,,,,,,,,,,,,,,,,,,,,,,,,,,,,,,,,,,,,,,,,,,,,,,,,,,,,,,,,,,173.16623808298027,173.17394724997575,173.17394724997575,180.4674320409831,space,7.290846541000064,,,,,,,,,,,,,,sub-194,1,stroop_test,,
,,,,0.0,0.0,0.0,,,,,,,,,,,,,blau,red,r,0.0,r,1.0,0.7635007910139393,,,,,,,,,,0.0,0.0,0.0,4.0,180.49267741598305,,,,,,,,,,,,,,,,,180.4835216249921,181.66541754099308,182.4612777909788,182.44944145798215,,,,,,,,,,,,,,,,,,,,,,,,,,,,,,,,,,,182.453850291,182.4612777909788,182.4612777909788,183.23450858300205,r,1.0,0.7635007910139393,,,,,,sub-194,1,stroop_test,,
,,,,1.0,1.0,0.0,,,,,,,,,,,,,rot,red,r,1.0,r,1.0,0.5808679169858806,,,,,,,,,,0.0,1.0,1.0,1.0,183.2449939159851,,,,,,,,,,,,,,,,,183.2351286249759,184.03209974998023,184.82813774998067,184.81601383298403,,,,,,,,,,,,,,,,,,,,,,,,,,,,,,,,,,,184.82049062498845,184.82813774998067,184.82813774998067,185.4171214579837,r,1.0,0.5808679169858806,,,,,,sub-194,1,stroop_test,,
,,,,2.0,2.0,0.0,,,,,,,,,,,,,gelb,yellow,g,1.0,g,1.0,0.5570095420116559,,,,,,,,,,0.0,2.0,2.0,11.0,185.4269736249989,,,,,,,,,,,,,,,,,185.4175705410016,185.7652884159761,186.5612872079946,186.54956812498855,,,,,,,,,,,,,,,,,,,,,,,,,,,,,,,,,,,186.5537662499992,186.5612872079946,186.5612872079946,187.1232614579785,g,1.0,0.5570095420116559,,,,,,sub-194,1,stroop_test,,
,,,,3.0,3.0,0.0,,,,,,,,,,,,,gelb,blue,b,0.0,b,1.0,0.7057161249977071,,,,,,,,,,0.0,3.0,3.0,9.0,187.13375391598677,,,,,,,,,,,,,,,,,187.12380254099844,187.22231924999505,188.0140882080013,188.00555004097987,,,,,,,,,,,,,,,,,,,,,,,,,,,,,,,,,,,188.0062449160032,188.0140882080013,188.0140882080013,188.72456695800065,b,1.0,0.7057161249977071,,,,,,sub-194,1,stroop_test,,
,,,,4.0,4.0,0.0,,,,,,,,,,,,,blau,yellow,g,0.0,g,1.0,0.780216457991628,,,,,,,,,,0.0,4.0,4.0,7.0,188.7362909159856,,,,,,,,,,,,,,,,,188.7251235829899,188.8208779580018,189.61526070800028,189.60459370797616,,,,,,,,,,,,,,,,,,,,,,,,,,,,,,,,,,,189.60822370799724,189.61526070800028,189.61526070800028,190.40085758297937,g,1.0,0.780216457991628,,,,,,sub-194,1,stroop_test,,
,,,,5.0,5.0,0.0,,,,,,,,,,,,,rot,yellow,g,0.0,g,1.0,0.5140499580011237,,,,,,,,,,0.0,5.0,5.0,3.0,190.410663415998,,,,,,,,,,,,,,,,,190.40130104098355,191.19874120797613,191.99407495799824,191.9828254999884,,,,,,,,,,,,,,,,,,,,,,,,,,,,,,,,,,,191.9866906249954,191.99407495799824,191.99407495799824,192.51732695798276,g,1.0,0.5140499580011237,,,,,,sub-194,1,stroop_test,,
,,,,6.0,6.0,0.0,,,,,,,,,,,,,blau,blue,b,1.0,b,1.0,0.5634154170111287,,,,,,,,,,0.0,6.0,6.0,6.0,192.5273160409997,,,,,,,,,,,,,,,,,192.51777733297783,192.61549349999405,193.41044970799703,193.399501124979,,,,,,,,,,,,,,,,,,,,,,,,,,,,,,,,,,,193.4031470829796,193.41044970799703,193.41044970799703,193.983866124996,b,1.0,0.5634154170111287,,,,,,sub-194,1,stroop_test,,
,,,,7.0,7.0,0.0,,,,,,,,,,,,,gelb,red,r,0.0,r,1.0,0.4290776670095511,,,,,,,,,,0.0,7.0,7.0,8.0,193.9937790829863,,,,,,,,,,,,,,,,,193.98431174998404,195.1822666660009,195.97761870798425,195.96612075000303,,,,,,,,,,,,,,,,,,,,,,,,,,,,,,,,,,,195.9703544160002,195.97761870798425,195.97761870798425,196.41762329099583,r,1.0,0.4290776670095511,,,,,,sub-194,1,stroop_test,,
,,,,8.0,8.0,0.0,,,,,,,,,,,,,rot,red,r,1.0,r,1.0,0.5062454169965349,,,,,,,,,,0.0,8.0,8.0,0.0,196.4276505409798,,,,,,,,,,,,,,,,,196.41818966600115,197.2155930000008,198.0123229159799,197.99974333299903,,,,,,,,,,,,,,,,,,,,,,,,,,,,,,,,,,,198.0044981249957,198.0123229159799,198.0123229159799,198.52261074999117,r,1.0,0.5062454169965349,,,,,,sub-194,1,stroop_test,,
,,,,9.0,9.0,0.0,,,,,,,,,,,,,gelb,yellow,g,1.0,g,1.0,0.3933682499919086,,,,,,,,,,0.0,9.0,9.0,10.0,198.53208612499293,,,,,,,,,,,,,,,,,198.52304270799505,198.87188691599292,199.66566316600077,199.65484724999988,,,,,,,,,,,,,,,,,,,,,,,,,,,,,,,,,,,199.6584601659852,199.66566316600077,199.66566316600077,200.06734208299892,g,1.0,0.3933682499919086,,,,,,sub-194,1,stroop_test,,
,,,,10.0,10.0,0.0,,,,,,,,,,,,,rot,blue,b,0.0,b,1.0,0.605628916004207,,,,,,,,,,0.0,10.0,10.0,2.0,200.07710841597876,,,,,,,,,,,,,,,,,200.0677787079767,200.41551754099785,201.210341375001,201.19957412499932,,,,,,,,,,,,,,,,,,,,,,,,,,,,,,,,,,,201.20294937500148,201.210341375001,201.210341375001,201.81857216599747,b,1.0,0.605628916004207,,,,,,sub-194,1,stroop_test,,
,,,,11.0,11.0,0.0,,,,,,,,,,,,,blau,blue,b,1.0,b,1.0,0.4426040420075878,,,,,,,,,,0.0,11.0,11.0,5.0,201.8285608330043,,,,,,,,,,,,,,,,,201.81907870798025,202.61587708297884,203.41032370799803,203.39959950000048,,,,,,,,,,,,,,,,,,,,,,,,,,,,,,,,,,,203.40319479099708,203.41032370799803,203.41032370799803,203.856959540979,b,1.0,0.4426040420075878,,,,,,sub-194,1,stroop_test,,
,,,,12.0,0.0,1.0,,,,,,,,,,,,,gelb,red,r,0.0,r,1.0,0.5167851250153035,,,,,,,,,,1.0,0.0,12.0,8.0,203.8673658749904,,,,,,,,,,,,,,,,,203.85739591598397,203.9554334159766,204.76035075000252,204.7495224159793,,,,,,,,,,,,,,,,,,,,,,,,,,,,,,,,,,,204.7530219159962,204.76035075000252,204.76035075000252,205.28439566597808,r,1.0,0.5167851250153035,,,,,,sub-194,1,stroop_test,,
,,,,13.0,1.0,1.0,,,,,,,,,,,,,rot,red,r,1.0,r,1.0,0.5910723329870962,,,,,,,,,,1.0,1.0,13.0,1.0,205.29435404099056,,,,,,,,,,,,,,,,,205.2849011659855,206.08256412498304,206.87835333298423,206.8665158749791,,,,,,,,,,,,,,,,,,,,,,,,,,,,,,,,,,,206.8707605410018,206.87835333298423,206.87835333298423,207.4739871249767,r,1.0,0.5910723329870962,,,,,,sub-194,1,stroop_test,,
,,,,14.0,2.0,1.0,,,,,,,,,,,,,blau,blue,b,1.0,b,1.0,0.5263822080160026,,,,,,,,,,1.0,2.0,14.0,6.0,207.48433241600287,,,,,,,,,,,,,,,,,207.47445812498336,208.6722893329861,209.4774942910008,209.4663326249865,,,,,,,,,,,,,,,,,,,,,,,,,,,,,,,,,,,209.4703761249839,209.4774942910008,209.4774942910008,210.0072947079898,b,1.0,0.5263822080160026,,,,,,sub-194,1,stroop_test,,
,,,,15.0,3.0,1.0,,,,,,,,,,,,,gelb,yellow,g,1.0,g,1.0,0.6528807090071496,,,,,,,,,,1.0,3.0,15.0,11.0,210.01761216600423,,,,,,,,,,,,,,,,,210.0077172909805,210.3557245830016,211.1606991659792,211.14980604097943,,,,,,,,,,,,,,,,,,,,,,,,,,,,,,,,,,,211.1535675409832,211.1606991659792,211.1606991659792,211.81760770798428,g,1.0,0.6528807090071496,,,,,,sub-194,1,stroop_test,,
,,,,16.0,4.0,1.0,,,,,,,,,,,,,blau,blue,b,1.0,b,1.0,0.5959025839983951,,,,,,,,,,1.0,4.0,16.0,5.0,211.82762866598205,,,,,,,,,,,,,,,,,211.8181681659771,213.01579183299327,213.80949299997883,213.7994704159792,,,,,,,,,,,,,,,,,,,,,,,,,,,,,,,,,,,213.8028862909996,213.80949299997883,213.80949299997883,214.4080423330015,b,1.0,0.5959025839983951,,,,,,sub-194,1,stroop_test,,
,,,,17.0,5.0,1.0,,,,,,,,,,,,,blau,red,r,0.0,r,1.0,0.5178813749807887,,,,,,,,,,1.0,5.0,17.0,4.0,214.4182439580036,,,,,,,,,,,,,,,,,214.4085699580028,215.60521737497768,216.39859433300444,216.3892216660024,,,,,,,,,,,,,,,,,,,,,,,,,,,,,,,,,,,216.3899297909811,216.39859433300444,216.39859433300444,216.9291385829856,r,1.0,0.5178813749807887,,,,,,sub-194,1,stroop_test,,
,,,,18.0,6.0,1.0,,,,,,,,,,,,,blau,yellow,g,0.0,g,1.0,0.6671591250051279,,,,,,,,,,1.0,6.0,18.0,7.0,216.9373725829937,,,,,,,,,,,,,,,,,216.9295871249924,218.122538333002,218.91533770799288,218.9061143329891,,,,,,,,,,,,,,,,,,,,,,,,,,,,,,,,,,,218.90680174998124,218.91533770799288,218.91533770799288,219.5850644579914,g,1.0,0.6671591250051279,,,,,,sub-194,1,stroop_test,,
,,,,19.0,7.0,1.0,,,,,,,,,,,,,rot,yellow,g,0.0,g,1.0,0.724111042014556,,,,,,,,,,1.0,7.0,19.0,3.0,219.5953485829814,,,,,,,,,,,,,,,,,219.58561145799467,219.68249866599217,220.4769953749783,220.4662725829985,,,,,,,,,,,,,,,,,,,,,,,,,,,,,,,,,,,220.46959933298055,220.4769953749783,220.4769953749783,221.20710208298988,g,1.0,0.724111042014556,,,,,,sub-194,1,stroop_test,,
,,,,20.0,8.0,1.0,,,,,,,,,,,,,rot,red,r,1.0,r,1.0,0.6759198750078212,,,,,,,,,,1.0,8.0,20.0,0.0,221.21703316600176,,,,,,,,,,,,,,,,,221.20754087498065,222.00589683299768,222.80830287499705,222.800008582999,,,,,,,,,,,,,,,,,,,,,,,,,,,,,,,,,,,222.80071237499945,222.80830287499705,222.80830287499705,223.49085199998808,r,1.0,0.6759198750078212,,,,,,sub-194,1,stroop_test,,
,,,,21.0,9.0,1.0,,,,,,,,,,,,,gelb,yellow,g,1.0,g,1.0,0.7131153749942314,,,,,,,,,,1.0,9.0,21.0,10.0,223.5015009159979,,,,,,,,,,,,,,,,,223.49146133300383,224.28935329098024,225.0936951659969,225.083032458002,,,,,,,,,,,,,,,,,,,,,,,,,,,,,,,,,,,225.08646508300444,225.0936951659969,225.0936951659969,225.818008540984,g,1.0,0.7131153749942314,,,,,,sub-194,1,stroop_test,,
,,,,22.0,10.0,1.0,,,,,,,,,,,,,rot,blue,b,0.0,b,1.0,0.6393045000149868,,,,,,,,,,1.0,10.0,22.0,2.0,225.82827541598817,,,,,,,,,,,,,,,,,225.81856783299008,227.01602587499656,227.810995332984,227.79980112498745,,,,,,,,,,,,,,,,,,,,,,,,,,,,,,,,,,,227.8036564999784,227.810995332984,227.810995332984,228.45726191598808,b,1.0,0.6393045000149868,,,,,,sub-194,1,stroop_test,,
,,,,23.0,11.0,1.0,,,,,,,,,,,,,gelb,blue,b,0.0,b,1.0,0.5718802499759477,,,,,,,,,,1.0,11.0,23.0,9.0,228.4679488329857,,,,,,,,,,,,,,,,,228.4577314159833,229.65586379097655,230.4615897499898,230.44980937498624,,,,,,,,,,,,,,,,,,,,,,,,,,,,,,,,,,,230.45449249999365,230.4615897499898,230.4615897499898,231.0398994580028,b,1.0,0.5718802499759477,,,,,,sub-194,1,stroop_test,,
,,,,24.0,0.0,2.0,,,,,,,,,,,,,gelb,yellow,g,1.0,g,1.0,0.6174684579891618,,,,,,,,,,2.0,0.0,24.0,11.0,231.0656134999881,,,,,,,,,,,,,,,,,231.04037462497945,232.23821820798912,233.03200691597883,233.02279191598063,,,,,,,,,,,,,,,,,,,,,,,,,,,,,,,,,,,233.023496290989,233.03200691597883,233.03200691597883,233.65189991600343,g,1.0,0.6174684579891618,,,,,,sub-194,1,stroop_test,,
,,,,25.0,1.0,2.0,,,,,,,,,,,,,rot,red,r,1.0,r,1.0,0.5788638749800157,,,,,,,,,,2.0,1.0,25.0,1.0,233.66178737499283,,,,,,,,,,,,,,,,,233.6523485409853,233.9992617910029,234.79498195799533,234.7834559159819,,,,,,,,,,,,,,,,,,,,,,,,,,,,,,,,,,,234.78744179097703,234.79498195799533,234.79498195799533,235.3847294159932,r,1.0,0.5788638749800157,,,,,,sub-194,1,stroop_test,,
,,,,26.0,2.0,2.0,,,,,,,,,,,,,gelb,yellow,g,1.0,g,1.0,0.5169019169989042,,,,,,,,,,2.0,2.0,26.0,10.0,235.3950607079896,,,,,,,,,,,,,,,,,235.38528783299265,236.5826813329768,237.3776170409983,237.36664512500283,,,,,,,,,,,,,,,,,,,,,,,,,,,,,,,,,,,237.37049308299905,237.3776170409983,237.3776170409983,237.90128137500145,g,1.0,0.5169019169989042,,,,,,sub-194,1,stroop_test,,
,,,,27.0,3.0,2.0,,,,,,,,,,,,,rot,yellow,g,0.0,g,1.0,0.5474813749897294,,,,,,,,,,2.0,3.0,27.0,3.0,237.91116833299748,,,,,,,,,,,,,,,,,237.9017280410044,238.6994286659756,239.49475645797796,239.4832736660028,,,,,,,,,,,,,,,,,,,,,,,,,,,,,,,,,,,239.4870985829912,239.49475645797796,239.49475645797796,240.0511186249787,g,1.0,0.5474813749897294,,,,,,sub-194,1,stroop_test,,
,,,,28.0,4.0,2.0,,,,,,,,,,,,,blau,yellow,g,0.0,g,1.0,0.6886425000266172,,,,,,,,,,2.0,4.0,28.0,7.0,240.06098291598028,,,,,,,,,,,,,,,,,240.05155579099664,240.84944654098945,241.6440083329799,241.6332689159899,,,,,,,,,,,,,,,,,,,,,,,,,,,,,,,,,,,241.6367202079855,241.6440083329799,241.6440083329799,242.33505712499027,g,1.0,0.6886425000266172,,,,,,sub-194,1,stroop_test,,
,,,,29.0,5.0,2.0,,,,,,,,,,,,,blau,red,r,0.0,r,1.0,0.7373605839966331,,,,,,,,,,2.0,5.0,29.0,4.0,242.34511508297877,,,,,,,,,,,,,,,,,242.3355162910011,242.43289658299184,243.22518649999984,243.2168817079801,,,,,,,,,,,,,,,,,,,,,,,,,,,,,,,,,,,243.21757637499832,243.22518649999984,243.22518649999984,243.96781025000385,r,1.0,0.7373605839966331,,,,,,sub-194,1,stroop_test,,
,,,,30.0,6.0,2.0,,,,,,,,,,,,,blau,blue,b,1.0,b,1.0,0.6966133750102017,,,,,,,,,,2.0,6.0,30.0,6.0,243.97760645797825,,,,,,,,,,,,,,,,,243.96826966598744,244.31610095797805,245.10763879099977,245.10014141598367,,,,,,,,,,,,,,,,,,,,,,,,,,,,,,,,,,,245.1007968329941,245.10763879099977,245.10763879099977,245.80766595798195,b,1.0,0.6966133750102017,,,,,,sub-194,1,stroop_test,,
,,,,31.0,7.0,2.0,,,,,,,,,,,,,blau,blue,b,1.0,b,1.0,0.6650612500088755,,,,,,,,,,2.0,7.0,31.0,5.0,245.81802099998455,,,,,,,,,,,,,,,,,245.80811433299093,247.00607433298137,247.8081306249951,247.80006658300408,,,,,,,,,,,,,,,,,,,,,,,,,,,,,,,,,,,247.80074095798773,247.8081306249951,247.8081306249951,248.485844040988,b,1.0,0.6650612500088755,,,,,,sub-194,1,stroop_test,,
,,,,32.0,8.0,2.0,,,,,,,,,,,,,gelb,red,r,0.0,r,1.0,0.685309166990919,,,,,,,,,,2.0,8.0,32.0,8.0,248.4994815409882,,,,,,,,,,,,,,,,,248.4862905829796,249.28282558298088,250.07800708297876,250.06683104098192,,,,,,,,,,,,,,,,,,,,,,,,,,,,,,,,,,,250.0706563749991,250.07800708297876,250.07800708297876,250.76827891598805,r,1.0,0.685309166990919,,,,,,sub-194,1,stroop_test,,
,,,,33.0,9.0,2.0,,,,,,,,,,,,,rot,blue,b,0.0,b,1.0,0.9612270409998018,,,,,,,,,,2.0,9.0,33.0,2.0,250.77833224998903,,,,,,,,,,,,,,,,,250.7687968329992,251.56614187499508,252.3623755829758,252.3501994579856,,,,,,,,,,,,,,,,,,,,,,,,,,,,,,,,,,,252.354933665978,252.3623755829758,252.3623755829758,253.33496516599556,b,1.0,0.9612270409998018,,,,,,sub-194,1,stroop_test,,
,,,,34.0,10.0,2.0,,,,,,,,,,,,,rot,red,r,1.0,r,1.0,0.9416880409989972,,,,,,,,,,2.0,10.0,34.0,0.0,253.3448797079909,,,,,,,,,,,,,,,,,253.3354226659867,254.13288666598964,254.9249778749945,254.916779332998,,,,,,,,,,,,,,,,,,,,,,,,,,,,,,,,,,,254.91744499999916,254.9249778749945,254.9249778749945,255.86910216597607,r,1.0,0.9416880409989972,,,,,,sub-194,1,stroop_test,,
,,,,35.0,11.0,2.0,,,,,,,,,,,,,gelb,blue,b,0.0,b,1.0,0.8017126670165453,,,,,,,,,,2.0,11.0,35.0,9.0,255.87902070800192,,,,,,,,,,,,,,,,,255.86954104100005,256.21627120798803,257.0120227909938,257.0004780829768,,,,,,,,,,,,,,,,,,,,,,,,,,,,,,,,,,,257.00470545797725,257.0120227909938,257.0120227909938,257.8183765409922,b,1.0,0.8017126670165453,,,,,,sub-194,1,stroop_test,,
,,,,36.0,0.0,3.0,,,,,,,,,,,,,blau,red,r,0.0,r,1.0,1.1645072080136742,,,,,,,,,,3.0,0.0,36.0,4.0,257.8284409159969,,,,,,,,,,,,,,,,,257.81887029099744,258.16632416599896,258.96120749998954,258.9504235829809,,,,,,,,,,,,,,,,,,,,,,,,,,,,,,,,,,,258.9541042909841,258.96120749998954,258.96120749998954,260.1351271659951,r,1.0,1.1645072080136742,,,,,,sub-194,1,stroop_test,,
,,,,37.0,1.0,3.0,,,,,,,,,,,,,gelb,blue,b,0.0,b,1.0,0.8723651659965981,,,,,,,,,,3.0,1.0,37.0,9.0,260.1453885829833,,,,,,,,,,,,,,,,,260.1356781249924,260.93305870800395,261.7273987499939,261.7167938329804,,,,,,,,,,,,,,,,,,,,,,,,,,,,,,,,,,,261.7203142499784,261.7273987499939,261.7273987499939,262.6125658749952,b,1.0,0.8723651659965981,,,,,,sub-194,1,stroop_test,,
,,,,38.0,2.0,3.0,,,,,,,,,,,,,rot,red,r,1.0,r,1.0,0.7507430000114255,,,,,,,,,,3.0,2.0,38.0,0.0,262.6209668329975,,,,,,,,,,,,,,,,,262.6130229999835,262.7052399159875,263.4999573749956,263.4889648749959,,,,,,,,,,,,,,,,,,,,,,,,,,,,,,,,,,,263.49253712498466,263.4999573749956,263.4999573749956,264.2630984580028,r,1.0,0.7507430000114255,,,,,,sub-194,1,stroop_test,,
,,,,39.0,3.0,3.0,,,,,,,,,,,,,blau,yellow,g,0.0,g,1.0,0.6889475839852821,,,,,,,,,,3.0,3.0,39.0,7.0,264.2719495409983,,,,,,,,,,,,,,,,,264.2635401659936,264.60613470798125,265.41599275000044,265.389571540989,,,,,,,,,,,,,,,,,,,,,,,,,,,,,,,,,,,265.3930368750007,265.41599275000044,265.41599275000044,266.1080967079906,g,1.0,0.6889475839852821,,,,,,sub-194,1,stroop_test,,
,,,,40.0,4.0,3.0,,,,,,,,,,,,,rot,blue,b,0.0,b,1.0,0.6739652919932269,,,,,,,,,,3.0,4.0,40.0,2.0,266.11820845797774,,,,,,,,,,,,,,,,,266.10852937499294,267.30616845798795,268.11130195797887,268.10038779099705,,,,,,,,,,,,,,,,,,,,,,,,,,,,,,,,,,,268.10384174998035,268.11130195797887,268.11130195797887,268.7905119579809,b,1.0,0.6739652919932269,,,,,,sub-194,1,stroop_test,,
,,,,41.0,5.0,3.0,,,,,,,,,,,,,gelb,red,r,0.0,r,1.0,0.9212504999886733,,,,,,,,,,3.0,5.0,41.0,8.0,268.81610629099305,,,,,,,,,,,,,,,,,268.7909290829848,268.89336429099785,269.6951971660019,269.6836319580034,,,,,,,,,,,,,,,,,,,,,,,,,,,,,,,,,,,269.68804629097576,269.6951971660019,269.6951971660019,270.6190429579874,r,1.0,0.9212504999886733,,,,,,sub-194,1,stroop_test,,
,,,,42.0,6.0,3.0,,,,,,,,,,,,,gelb,yellow,g,1.0,g,1.0,0.5764773330010939,,,,,,,,,,3.0,6.0,42.0,10.0,270.6290552909777,,,,,,,,,,,,,,,,,270.6195428329811,271.8163479579962,272.6085267079761,272.6003127080039,,,,,,,,,,,,,,,,,,,,,,,,,,,,,,,,,,,272.60095387499314,272.6085267079761,272.6085267079761,273.1923547909828,g,1.0,0.5764773330010939,,,,,,sub-194,1,stroop_test,,
,,,,43.0,7.0,3.0,,,,,,,,,,,,,gelb,yellow,g,1.0,g,1.0,0.768276540999068,,,,,,,,,,3.0,7.0,43.0,11.0,273.202221457992,,,,,,,,,,,,,,,,,273.19288066599984,274.3895614159992,275.18188012499013,275.1736336250033,,,,,,,,,,,,,,,,,,,,,,,,,,,,,,,,,,,275.1743715829798,275.18188012499013,275.18188012499013,275.95300933299586,g,1.0,0.768276540999068,,,,,,sub-194,1,stroop_test,,
,,,,44.0,8.0,3.0,,,,,,,,,,,,,rot,red,r,1.0,r,1.0,0.6386736669810489,,,,,,,,,,3.0,8.0,44.0,1.0,275.96384266598034,,,,,,,,,,,,,,,,,275.953767125,276.0496734159824,276.84456970798783,276.833834791003,,,,,,,,,,,,,,,,,,,,,,,,,,,,,,,,,,,276.837168707978,276.84456970798783,276.84456970798783,277.48586174999946,r,1.0,0.6386736669810489,,,,,,sub-194,1,stroop_test,,
,,,,45.0,9.0,3.0,,,,,,,,,,,,,rot,yellow,g,0.0,g,1.0,1.008681915991474,,,,,,,,,,3.0,9.0,45.0,3.0,277.4958327499917,,,,,,,,,,,,,,,,,277.48644104099367,277.58320970798377,278.37473104099627,278.3669962909771,,,,,,,,,,,,,,,,,,,,,,,,,,,,,,,,,,,278.3676562079927,278.37473104099627,278.37473104099627,279.3860186660022,g,1.0,1.008681915991474,,,,,,sub-194,1,stroop_test,,
,,,,46.0,10.0,3.0,,,,,,,,,,,,,blau,blue,b,1.0,b,1.0,0.6546159160207026,,,,,,,,,,3.0,10.0,46.0,5.0,279.3959579159855,,,,,,,,,,,,,,,,,279.3865723749914,280.58317654099665,281.37898158299504,281.3672879579826,,,,,,,,,,,,,,,,,,,,,,,,,,,,,,,,,,,281.3715950409824,281.37898158299504,281.37898158299504,282.03622362497845,b,1.0,0.6546159160207026,,,,,,sub-194,1,stroop_test,,
,,,,47.0,11.0,3.0,,,,,,,,,,,,,blau,blue,b,1.0,b,1.0,0.6962014170130715,,,,,,,,,,3.0,11.0,47.0,6.0,282.0460659999808,,,,,,,,,,,,,,,,,282.03671054099686,283.2331182079797,284.0254477499984,284.01734945797944,,,,,,,,,,,,,,,,,,,,,,,,,,,,,,,,,,,284.01802200000384,284.0254477499984,284.0254477499984,284.7246996249887,b,1.0,0.6962014170130715,,,,,,sub-194,1,stroop_test,,
,,,,48.0,0.0,4.0,,,,,,,,,,,,,blau,blue,b,1.0,b,1.0,0.6583208339870907,,,,,,,,,,4.0,0.0,48.0,6.0,284.7350429579965,,,,,,,,,,,,,,,,,284.7251542499871,284.8249314159912,285.62526737499866,285.6173304999829,,,,,,,,,,,,,,,,,,,,,,,,,,,,,,,,,,,285.6179696249892,285.62526737499866,285.62526737499866,286.2959922500013,b,1.0,0.6583208339870907,,,,,,sub-194,1,stroop_test,,
,,,,49.0,1.0,4.0,,,,,,,,,,,,,blau,blue,b,1.0,b,1.0,0.4947052909992635,,,,,,,,,,4.0,1.0,49.0,5.0,286.3033748329908,,,,,,,,,,,,,,,,,286.296456415992,286.63962945798994,287.4323436659761,287.4240433329833,,,,,,,,,,,,,,,,,,,,,,,,,,,,,,,,,,,287.4247713329969,287.4323436659761,287.4323436659761,287.93504399998346,b,1.0,0.4947052909992635,,,,,,sub-194,1,stroop_test,,
,,,,50.0,2.0,4.0,,,,,,,,,,,,,gelb,blue,b,0.0,b,1.0,0.6452375829976518,,,,,,,,,,4.0,2.0,50.0,9.0,287.94496945798164,,,,,,,,,,,,,,,,,287.93548362498404,289.13349204100086,289.9286347909947,289.9171823329816,,,,,,,,,,,,,,,,,,,,,,,,,,,,,,,,,,,289.9212327080022,289.9286347909947,289.9286347909947,290.58488774998114,b,1.0,0.6452375829976518,,,,,,sub-194,1,stroop_test,,
,,,,51.0,3.0,4.0,,,,,,,,,,,,,rot,blue,b,0.0,b,1.0,0.708454209001502,,,,,,,,,,4.0,3.0,51.0,2.0,290.5953118329926,,,,,,,,,,,,,,,,,290.5854333329771,291.3833967499959,292.17848620799487,292.16731520800386,,,,,,,,,,,,,,,,,,,,,,,,,,,,,,,,,,,292.17115149999154,292.17848620799487,292.17848620799487,292.891470624978,b,1.0,0.708454209001502,,,,,,sub-194,1,stroop_test,,
,,,,52.0,4.0,4.0,,,,,,,,,,,,,gelb,yellow,g,1.0,g,1.0,0.721843916020589,,,,,,,,,,4.0,4.0,52.0,10.0,292.9013308330032,,,,,,,,,,,,,,,,,292.89190258298186,293.69015024998225,294.495420457999,294.4836869159772,,,,,,,,,,,,,,,,,,,,,,,,,,,,,,,,,,,294.4882123330026,294.495420457999,294.495420457999,295.2196307499835,g,1.0,0.721843916020589,,,,,,sub-194,1,stroop_test,,
,,,,53.0,5.0,4.0,,,,,,,,,,,,,rot,red,r,1.0,r,1.0,0.737645707995398,,,,,,,,,,4.0,5.0,53.0,0.0,295.22989604098257,,,,,,,,,,,,,,,,,295.2200862499885,296.0165402079874,296.81206624998595,296.80062616599025,,,,,,,,,,,,,,,,,,,,,,,,,,,,,,,,,,,296.804661415983,296.81206624998595,296.81206624998595,297.5523426249856,r,1.0,0.737645707995398,,,,,,sub-194,1,stroop_test,,
,,,,54.0,6.0,4.0,,,,,,,,,,,,,blau,yellow,g,0.0,g,1.0,0.7116660829924513,,,,,,,,,,4.0,6.0,54.0,7.0,297.5629048749979,,,,,,,,,,,,,,,,,297.5529049159959,298.75005312499707,299.54607308298,299.53401899998426,,,,,,,,,,,,,,,,,,,,,,,,,,,,,,,,,,,299.5385670409887,299.54607308298,299.54607308298,300.2691658749827,g,1.0,0.7116660829924513,,,,,,sub-194,1,stroop_test,,
,,,,55.0,7.0,4.0,,,,,,,,,,,,,gelb,yellow,g,1.0,g,1.0,0.7718408340006135,,,,,,,,,,4.0,7.0,55.0,11.0,300.2796992909862,,,,,,,,,,,,,,,,,300.2698422499816,301.0667976249824,301.8617580829887,301.85065241600387,,,,,,,,,,,,,,,,,,,,,,,,,,,,,,,,,,,301.8544716250035,301.8617580829887,301.8617580829887,302.6361608750012,g,1.0,0.7718408340006135,,,,,,sub-194,1,stroop_test,,
,,,,56.0,8.0,4.0,,,,,,,,,,,,,rot,red,r,1.0,r,1.0,0.8380271669884678,,,,,,,,,,4.0,8.0,56.0,1.0,302.64612104097614,,,,,,,,,,,,,,,,,302.6366096659913,303.833459290996,304.6296083749912,304.61773470797925,,,,,,,,,,,,,,,,,,,,,,,,,,,,,,,,,,,304.6220611250028,304.6296083749912,304.6296083749912,305.4806646659854,r,1.0,0.8380271669884678,,,,,,sub-194,1,stroop_test,,
,,,,57.0,9.0,4.0,,,,,,,,,,,,,rot,yellow,g,0.0,g,1.0,0.96113129099831,,,,,,,,,,4.0,9.0,57.0,3.0,305.4886537909915,,,,,,,,,,,,,,,,,305.4811104999972,306.673445708002,307.47513504099334,307.46751820799545,,,,,,,,,,,,,,,,,,,,,,,,,,,,,,,,,,,307.4681743749825,307.47513504099334,307.47513504099334,308.4415146659885,g,1.0,0.96113129099831,,,,,,sub-194,1,stroop_test,,
,,,,58.0,10.0,4.0,,,,,,,,,,,,,blau,red,r,0.0,r,1.0,0.8866743330145255,,,,,,,,,,4.0,10.0,58.0,4.0,308.4519561249763,,,,,,,,,,,,,,,,,308.4419417909812,309.23938445799286,310.04994633299066,310.0239067079965,,,,,,,,,,,,,,,,,,,,,,,,,,,,,,,,,,,310.0270457909792,310.04994633299066,310.04994633299066,310.94076037500054,r,1.0,0.8866743330145255,,,,,,sub-194,1,stroop_test,,
,,,,59.0,11.0,4.0,,,,,,,,,,,,,gelb,red,r,0.0,r,1.0,0.6641264170175418,,,,,,,,,,4.0,11.0,59.0,8.0,310.9495125829999,,,,,,,,,,,,,,,,,310.94119291598327,311.7402104159992,312.53633804098354,312.5240211249911,,,,,,,,,,,,,,,,,,,,,,,,,,,,,,,,,,,312.5278228329844,312.53633804098354,312.53633804098354,313.20306349999737,r,1.0,0.6641264170175418,,,,,,sub-194,1,stroop_test,,
,,,,60.0,0.0,5.0,,,,,,,,,,,,,gelb,red,r,0.0,r,1.0,0.5194223749858793,,,,,,,,,,5.0,0.0,60.0,8.0,313.21345354098594,,,,,,,,,,,,,,,,,313.2036696659925,313.99998441597563,314.7931312909932,314.7845306659874,,,,,,,,,,,,,,,,,,,,,,,,,,,,,,,,,,,314.7853456659941,314.7931312909932,314.7931312909932,315.3185146249889,r,1.0,0.5194223749858793,,,,,,sub-194,1,stroop_test,,
,,,,61.0,1.0,5.0,,,,,,,,,,,,,gelb,yellow,g,1.0,g,1.0,0.6108784579846542,,,,,,,,,,5.0,1.0,61.0,10.0,315.32842654100386,,,,,,,,,,,,,,,,,315.3189632499998,316.5170371659915,317.31085254097707,317.30094437499065,,,,,,,,,,,,,,,,,,,,,,,,,,,,,,,,,,,317.30158729100367,317.31085254097707,317.31085254097707,317.9257213329838,g,1.0,0.6108784579846542,,,,,,sub-194,1,stroop_test,,
,,,,62.0,2.0,5.0,,,,,,,,,,,,,rot,red,r,1.0,r,1.0,0.6294889159908053,,,,,,,,,,5.0,2.0,62.0,1.0,317.9359175830032,,,,,,,,,,,,,,,,,317.9262252499757,319.1235209159786,319.933354082983,319.9066164579999,,,,,,,,,,,,,,,,,,,,,,,,,,,,,,,,,,,319.910170749994,319.933354082983,319.933354082983,320.5687235829828,r,1.0,0.6294889159908053,,,,,,sub-194,1,stroop_test,,
,,,,63.0,3.0,5.0,,,,,,,,,,,,,blau,red,r,0.0,r,1.0,0.724198832991533,,,,,,,,,,5.0,3.0,63.0,4.0,320.5784930409864,,,,,,,,,,,,,,,,,320.5691625829786,321.3670056659903,322.1622586659796,322.1508148330031,,,,,,,,,,,,,,,,,,,,,,,,,,,,,,,,,,,322.15467795799486,322.1622586659796,322.1622586659796,322.89172533300007,r,1.0,0.724198832991533,,,,,,sub-194,1,stroop_test,,
,,,,64.0,4.0,5.0,,,,,,,,,,,,,rot,yellow,g,0.0,g,1.0,0.633362374996068,,,,,,,,,,5.0,4.0,64.0,3.0,322.9024809999973,,,,,,,,,,,,,,,,,322.89215458297986,323.6902771659952,324.49568733299384,324.4843568329816,,,,,,,,,,,,,,,,,,,,,,,,,,,,,,,,,,,324.4882292499824,324.49568733299384,324.49568733299384,325.1359719579923,g,1.0,0.633362374996068,,,,,,sub-194,1,stroop_test,,
,,,,65.0,5.0,5.0,,,,,,,,,,,,,gelb,blue,b,0.0,b,1.0,0.8523802919953596,,,,,,,,,,5.0,5.0,65.0,9.0,325.1460450000013,,,,,,,,,,,,,,,,,325.1364193329937,325.9336817500007,326.72899533298914,326.71758208298706,,,,,,,,,,,,,,,,,,,,,,,,,,,,,,,,,,,326.7214578749845,326.72899533298914,326.72899533298914,327.5857372499886,b,1.0,0.8523802919953596,,,,,,sub-194,1,stroop_test,,
,,,,66.0,6.0,5.0,,,,,,,,,,,,,blau,yellow,g,0.0,g,1.0,1.030326416977914,,,,,,,,,,5.0,6.0,66.0,7.0,327.595625957998,,,,,,,,,,,,,,,,,327.5861675409833,328.38376695799525,329.1789501659805,329.1676432910026,,,,,,,,,,,,,,,,,,,,,,,,,,,,,,,,,,,329.1715489579947,329.1789501659805,329.1789501659805,330.21889212497626,g,1.0,1.030326416977914,,,,,,sub-194,1,stroop_test,,
,,,,67.0,7.0,5.0,,,,,,,,,,,,,gelb,yellow,g,1.0,g,1.0,0.5987144160026219,,,,,,,,,,5.0,7.0,67.0,11.0,330.2285875410016,,,,,,,,,,,,,,,,,330.2193435409863,331.4171177499811,332.212350582995,332.2010587499826,,,,,,,,,,,,,,,,,,,,,,,,,,,,,,,,,,,332.20499237498734,332.212350582995,332.212350582995,332.8187565410044,g,1.0,0.5987144160026219,,,,,,sub-194,1,stroop_test,,
,,,,68.0,8.0,5.0,,,,,,,,,,,,,rot,red,r,1.0,r,1.0,0.7691178749955725,,,,,,,,,,5.0,8.0,68.0,0.0,332.82870574999833,,,,,,,,,,,,,,,,,332.81920025,332.9172477909888,333.7117279160011,333.7010686249996,,,,,,,,,,,,,,,,,,,,,,,,,,,,,,,,,,,333.7043112499814,333.7117279160011,333.7117279160011,334.484789582988,r,1.0,0.7691178749955725,,,,,,sub-194,1,stroop_test,,
,,,,69.0,9.0,5.0,,,,,,,,,,,,,blau,blue,b,1.0,b,1.0,0.6209546669851989,,,,,,,,,,5.0,9.0,69.0,6.0,334.4947861249966,,,,,,,,,,,,,,,,,334.4853449999937,335.68382295800257,336.47966349998023,336.46760429098504,,,,,,,,,,,,,,,,,,,,,,,,,,,,,,,,,,,336.4723907079897,336.47966349998023,336.47966349998023,337.1031802909856,b,1.0,0.6209546669851989,,,,,,sub-194,1,stroop_test,,
,,,,70.0,10.0,5.0,,,,,,,,,,,,,rot,blue,b,0.0,b,1.0,0.6377824159862939,,,,,,,,,,5.0,10.0,70.0,2.0,337.11316829099087,,,,,,,,,,,,,,,,,337.10371920798207,337.9004909579817,338.69664816599106,338.6845923749788,,,,,,,,,,,,,,,,,,,,,,,,,,,,,,,,,,,338.6890110409877,338.69664816599106,338.69664816599106,339.3471445409814,b,1.0,0.6377824159862939,,,,,,sub-194,1,stroop_test,,
,,,,71.0,11.0,5.0,,,,,,,,,,,,,blau,blue,b,1.0,b,1.0,0.7127132079913281,,,,,,,,,,5.0,11.0,71.0,5.0,339.3556244999927,,,,,,,,,,,,,,,,,339.3475865829969,339.69039595799404,340.49545591598144,340.4846775829792,,,,,,,,,,,,,,,,,,,,,,,,,,,,,,,,,,,340.48827899998287,340.49545591598144,340.49545591598144,341.21889741599443,b,1.0,0.7127132079913281,,,,,,sub-194,1,stroop_test,,
,,,,72.0,0.0,6.0,,,,,,,,,,,,,gelb,yellow,g,1.0,g,1.0,0.6883430000161752,,,,,,,,,,6.0,0.0,72.0,11.0,341.2289024159836,,,,,,,,,,,,,,,,,341.21932991599897,341.3167980409926,342.112700165977,342.10115658299765,,,,,,,,,,,,,,,,,,,,,,,,,,,,,,,,,,,342.10508675000165,342.112700165977,342.112700165977,342.80357058299705,g,1.0,0.6883430000161752,,,,,,sub-194,1,stroop_test,,
,,,,73.0,1.0,6.0,,,,,,,,,,,,,gelb,yellow,g,1.0,g,1.0,0.5792508750164416,,,,,,,,,,6.0,1.0,73.0,10.0,342.8131404579908,,,,,,,,,,,,,,,,,342.80413816598593,343.600363207981,344.3923443329986,344.38464779098285,,,,,,,,,,,,,,,,,,,,,,,,,,,,,,,,,,,344.3853284579818,344.3923443329986,344.3923443329986,344.9751782499952,g,1.0,0.5792508750164416,,,,,,sub-194,1,stroop_test,,
,,,,74.0,2.0,6.0,,,,,,,,,,,,,rot,blue,b,0.0,b,1.0,0.7493539580027573,,,,,,,,,,6.0,2.0,74.0,2.0,344.98574620799627,,,,,,,,,,,,,,,,,344.9756012909929,345.32395754099707,346.12938912498066,346.1179372500046,,,,,,,,,,,,,,,,,,,,,,,,,,,,,,,,,,,346.12183470799937,346.12938912498066,346.12938912498066,346.8858424999926,b,1.0,0.7493539580027573,,,,,,sub-194,1,stroop_test,,
,,,,75.0,3.0,6.0,,,,,,,,,,,,,gelb,red,r,0.0,r,1.0,0.6893081669986714,,,,,,,,,,6.0,3.0,75.0,8.0,346.8964432499779,,,,,,,,,,,,,,,,,346.8863609159889,347.68366545799654,348.4790658330021,348.46780941600446,,,,,,,,,,,,,,,,,,,,,,,,,,,,,,,,,,,348.4717039579991,348.4790658330021,348.4790658330021,349.1744223749847,r,1.0,0.6893081669986714,,,,,,sub-194,1,stroop_test,,
,,,,76.0,4.0,6.0,,,,,,,,,,,,,blau,yellow,g,0.0,g,1.0,0.740808125003241,,,,,,,,,,6.0,4.0,76.0,7.0,349.2001294999791,,,,,,,,,,,,,,,,,349.1748632910021,349.5235355409968,350.3337122499943,350.3072598330036,,,,,,,,,,,,,,,,,,,,,,,,,,,,,,,,,,,350.3109492909862,350.3337122499943,350.3337122499943,351.0859822079947,g,1.0,0.740808125003241,,,,,,sub-194,1,stroop_test,,
,,,,77.0,5.0,6.0,,,,,,,,,,,,,rot,red,r,1.0,r,1.0,0.7801053749863058,,,,,,,,,,6.0,5.0,77.0,0.0,351.0960182079871,,,,,,,,,,,,,,,,,351.0865465409879,351.1841241660004,351.9788831659825,351.9677829580032,,,,,,,,,,,,,,,,,,,,,,,,,,,,,,,,,,,351.9717556659889,351.9788831659825,351.9788831659825,352.7694055409811,r,1.0,0.7801053749863058,,,,,,sub-194,1,stroop_test,,
,,,,78.0,6.0,6.0,,,,,,,,,,,,,blau,blue,b,1.0,b,1.0,0.5838206250045914,,,,,,,,,,6.0,6.0,78.0,6.0,352.7793465409777,,,,,,,,,,,,,,,,,352.769847040996,353.96731870798976,354.76315562499803,354.75130995799555,,,,,,,,,,,,,,,,,,,,,,,,,,,,,,,,,,,354.755910124979,354.76315562499803,354.76315562499803,355.35270262497943,b,1.0,0.5838206250045914,,,,,,sub-194,1,stroop_test,,
,,,,79.0,7.0,6.0,,,,,,,,,,,,,gelb,blue,b,0.0,b,1.0,0.5965061660099309,,,,,,,,,,6.0,7.0,79.0,9.0,355.3624256659823,,,,,,,,,,,,,,,,,355.35313679100364,355.4507527499809,356.246033790987,356.23465283299447,,,,,,,,,,,,,,,,,,,,,,,,,,,,,,,,,,,356.2385947080038,356.246033790987,356.246033790987,356.85295124998083,b,1.0,0.5965061660099309,,,,,,sub-194,1,stroop_test,,
,,,,80.0,8.0,6.0,,,,,,,,,,,,,blau,blue,b,1.0,b,1.0,0.6724619580199942,,,,,,,,,,6.0,8.0,80.0,5.0,356.8629854159953,,,,,,,,,,,,,,,,,356.85345754100126,356.95073791599134,357.7454714579799,357.7345862079819,,,,,,,,,,,,,,,,,,,,,,,,,,,,,,,,,,,357.73824849998346,357.7454714579799,357.7454714579799,358.420224957983,b,1.0,0.6724619580199942,,,,,,sub-194,1,stroop_test,,
,,,,81.0,9.0,6.0,,,,,,,,,,,,,rot,yellow,g,0.0,g,1.0,0.6643865829973947,,,,,,,,,,6.0,9.0,81.0,3.0,358.4302434999845,,,,,,,,,,,,,,,,,358.4207061659836,358.7671515409893,359.5637845409801,359.551750499988,,,,,,,,,,,,,,,,,,,,,,,,,,,,,,,,,,,359.55622916598804,359.5637845409801,359.5637845409801,360.23622812499525,g,1.0,0.6643865829973947,,,,,,sub-194,1,stroop_test,,
,,,,82.0,10.0,6.0,,,,,,,,,,,,,blau,red,r,0.0,r,1.0,0.8869789589953143,,,,,,,,,,6.0,10.0,82.0,4.0,360.24622400000226,,,,,,,,,,,,,,,,,360.2367666659993,360.5840572909801,361.38019349999377,361.368135333003,,,,,,,,,,,,,,,,,,,,,,,,,,,,,,,,,,,361.3724393329758,361.38019349999377,361.38019349999377,362.2695933749783,r,1.0,0.8869789589953143,,,,,,sub-194,1,stroop_test,,
,,,,83.0,11.0,6.0,,,,,,,,,,,,,rot,red,r,1.0,r,1.0,0.6031980419938918,,,,,,,,,,6.0,11.0,83.0,1.0,362.2794698749785,,,,,,,,,,,,,,,,,362.27003774998593,363.0674346250016,363.864025582996,363.8514820830024,,,,,,,,,,,,,,,,,,,,,,,,,,,,,,,,,,,363.8563022909802,363.864025582996,363.864025582996,364.4695950829773,r,1.0,0.6031980419938918,,,,,,sub-194,1,stroop_test,,
,,,,84.0,0.0,7.0,,,,,,,,,,,,,blau,yellow,g,0.0,g,1.0,0.7216966660053004,,,,,,,,,,7.0,0.0,84.0,7.0,364.4796200409765,,,,,,,,,,,,,,,,,364.4700334999943,364.8174422080047,365.6134639160009,365.601576874993,,,,,,,,,,,,,,,,,,,,,,,,,,,,,,,,,,,365.6062941659766,365.6134639160009,365.6134639160009,366.3414393749845,g,1.0,0.7216966660053004,,,,,,sub-194,1,stroop_test,,
,,,,85.0,1.0,7.0,,,,,,,,,,,,,rot,blue,b,0.0,b,1.0,0.8913241249974817,,,,,,,,,,7.0,1.0,85.0,2.0,366.36719108300167,,,,,,,,,,,,,,,,,366.3419028749922,367.1414940829855,367.9465576249932,367.9349318750028,,,,,,,,,,,,,,,,,,,,,,,,,,,,,,,,,,,367.9387649580021,367.9465576249932,367.9465576249932,368.8420307499764,b,1.0,0.8913241249974817,,,,,,sub-194,1,stroop_test,,
,,,,86.0,2.0,7.0,,,,,,,,,,,,,gelb,red,r,0.0,r,1.0,1.030699957977049,,,,,,,,,,7.0,2.0,86.0,8.0,368.852587832982,,,,,,,,,,,,,,,,,368.8424731659761,369.6411555829982,370.4365854159987,370.4244250409829,,,,,,,,,,,,,,,,,,,,,,,,,,,,,,,,,,,370.4283389999764,370.4365854159987,370.4365854159987,371.469762875,r,1.0,1.030699957977049,,,,,,sub-194,1,stroop_test,,
,,,,87.0,3.0,7.0,,,,,,,,,,,,,rot,red,r,1.0,r,1.0,0.5553801670030225,,,,,,,,,,7.0,3.0,87.0,1.0,371.47960670798784,,,,,,,,,,,,,,,,,371.47020408298704,371.5676615829871,372.3626634159882,372.351456000004,,,,,,,,,,,,,,,,,,,,,,,,,,,,,,,,,,,372.3552747079812,372.3626634159882,372.3626634159882,372.930400540994,r,1.0,0.5553801670030225,,,,,,sub-194,1,stroop_test,,
,,,,88.0,4.0,7.0,,,,,,,,,,,,,blau,blue,b,1.0,b,1.0,0.6419468329986557,,,,,,,,,,7.0,4.0,88.0,6.0,372.9376875409798,,,,,,,,,,,,,,,,,372.9308438329899,373.0234702079906,373.8338429159776,373.8072169579973,,,,,,,,,,,,,,,,,,,,,,,,,,,,,,,,,,,373.81112091598334,373.8338429159776,373.8338429159776,374.4861016659997,b,1.0,0.6419468329986557,,,,,,sub-194,1,stroop_test,,
,,,,89.0,5.0,7.0,,,,,,,,,,,,,gelb,blue,b,0.0,b,1.0,0.5066039999946952,,,,,,,,,,7.0,5.0,89.0,9.0,374.49587341598817,,,,,,,,,,,,,,,,,374.4865525829955,374.58378087499295,375.3790729999892,375.3683664159908,,,,,,,,,,,,,,,,,,,,,,,,,,,,,,,,,,,375.37182999998913,375.3790729999892,375.3790729999892,375.89133537499583,b,1.0,0.5066039999946952,,,,,,sub-194,1,stroop_test,,
,,,,90.0,6.0,7.0,,,,,,,,,,,,,blau,red,r,0.0,r,1.0,0.7054826669918839,,,,,,,,,,7.0,6.0,90.0,4.0,375.9012014159816,,,,,,,,,,,,,,,,,375.8917537079833,377.0907539579785,377.8960687079816,377.8849416659796,,,,,,,,,,,,,,,,,,,,,,,,,,,,,,,,,,,377.88889666600153,377.8960687079816,377.8960687079816,378.61418512498494,r,1.0,0.7054826669918839,,,,,,sub-194,1,stroop_test,,
,,,,91.0,7.0,7.0,,,,,,,,,,,,,rot,red,r,1.0,r,1.0,0.5494862500054296,,,,,,,,,,7.0,7.0,91.0,0.0,378.6223619999946,,,,,,,,,,,,,,,,,378.61462624999695,379.4078978329781,380.2030030000024,380.191445540986,,,,,,,,,,,,,,,,,,,,,,,,,,,,,,,,,,,380.1955797909759,380.2030030000024,380.2030030000024,380.7600188329816,r,1.0,0.5494862500054296,,,,,,sub-194,1,stroop_test,,
,,,,92.0,8.0,7.0,,,,,,,,,,,,,gelb,yellow,g,1.0,g,1.0,0.5245392079814337,,,,,,,,,,7.0,8.0,92.0,11.0,380.77207754098345,,,,,,,,,,,,,,,,,380.7605736249825,381.1081214159785,381.91213716598577,381.90160212499904,,,,,,,,,,,,,,,,,,,,,,,,,,,,,,,,,,,381.90493883300223,381.91213716598577,381.91213716598577,382.44113449999713,g,1.0,0.5245392079814337,,,,,,sub-194,1,stroop_test,,
,,,,93.0,9.0,7.0,,,,,,,,,,,,,blau,blue,b,1.0,b,1.0,0.7681758750113659,,,,,,,,,,7.0,9.0,93.0,5.0,382.4504753749934,,,,,,,,,,,,,,,,,382.4415549999976,382.79081695800414,383.5960204159783,383.5850052079768,,,,,,,,,,,,,,,,,,,,,,,,,,,,,,,,,,,383.58887720797793,383.5960204159783,383.5960204159783,384.369533124991,b,1.0,0.7681758750113659,,,,,,sub-194,1,stroop_test,,
,,,,94.0,10.0,7.0,,,,,,,,,,,,,rot,yellow,g,0.0,g,1.0,1.0361288749845698,,,,,,,,,,7.0,10.0,94.0,3.0,384.3795140830043,,,,,,,,,,,,,,,,,384.3699811660045,385.1675947079784,385.9645158329804,385.9516440409934,,,,,,,,,,,,,,,,,,,,,,,,,,,,,,,,,,,385.9565389579802,385.9645158329804,385.9645158329804,387.0031519999902,g,1.0,1.0361288749845698,,,,,,sub-194,1,stroop_test,,
,,,,95.0,11.0,7.0,,,,,,,,,,,,,gelb,yellow,g,1.0,g,1.0,0.5800285000004806,,,,,,,,,,7.0,11.0,95.0,10.0,387.0133821659838,,,,,,,,,,,,,,,,,387.0036629999813,387.8012806249899,388.5963617499801,388.5849170409783,,,,,,,,,,,,,,,,,,,,,,,,,,,,,,,,,,,388.58885812500375,388.5963617499801,388.5963617499801,389.1863629579893,g,1.0,0.5800285000004806,,,,,,sub-194,1,stroop_test,,
,,,,96.0,0.0,8.0,,,,,,,,,,,,,gelb,red,r,0.0,r,1.0,0.8006848750228528,,,,,,,,,,8.0,0.0,96.0,8.0,389.1961434579862,,,,,,,,,,,,,,,,,389.18680945798405,390.3843893329904,391.176013874996,391.1682371249772,,,,,,,,,,,,,,,,,,,,,,,,,,,,,,,,,,,391.1688769579923,391.176013874996,391.176013874996,391.9866827499936,r,1.0,0.8006848750228528,,,,,,sub-194,1,stroop_test,,
,,,,97.0,1.0,8.0,,,,,,,,,,,,,blau,blue,b,1.0,b,1.0,0.5656086669769138,,,,,,,,,,8.0,1.0,97.0,5.0,391.9967060829804,,,,,,,,,,,,,,,,,391.98722316598287,393.18414804097847,393.9789605409897,393.9683437079948,,,,,,,,,,,,,,,,,,,,,,,,,,,,,,,,,,,393.971752707992,393.9789605409897,393.9789605409897,394.5530975830043,b,1.0,0.5656086669769138,,,,,,sub-194,1,stroop_test,,
,,,,98.0,2.0,8.0,,,,,,,,,,,,,gelb,yellow,g,1.0,g,1.0,0.6454223330074456,,,,,,,,,,8.0,2.0,98.0,11.0,394.5632667499885,,,,,,,,,,,,,,,,,394.5535884579877,394.6512043330004,395.44699054097873,395.4352331249975,,,,,,,,,,,,,,,,,,,,,,,,,,,,,,,,,,,395.43958720797673,395.44699054097873,395.44699054097873,396.10208654098096,g,1.0,0.6454223330074456,,,,,,sub-194,1,stroop_test,,
,,,,99.0,3.0,8.0,,,,,,,,,,,,,blau,red,r,0.0,r,1.0,0.6216378750104923,,,,,,,,,,8.0,3.0,99.0,4.0,396.1123011659947,,,,,,,,,,,,,,,,,396.102554165991,396.8913212909829,397.6977264159941,397.6853327909776,,,,,,,,,,,,,,,,,,,,,,,,,,,,,,,,,,,397.6902425829903,397.6977264159941,397.6977264159941,398.3262918329856,r,1.0,0.6216378750104923,,,,,,sub-194,1,stroop_test,,
,,,,100.0,4.0,8.0,,,,,,,,,,,,,blau,yellow,g,0.0,g,1.0,0.6993367910035886,,,,,,,,,,8.0,4.0,100.0,7.0,398.3366659999883,,,,,,,,,,,,,,,,,398.32674183297786,399.5248235829931,400.32640808299766,400.31845362499007,,,,,,,,,,,,,,,,,,,,,,,,,,,,,,,,,,,400.3191572499927,400.32640808299766,400.32640808299766,401.03710395799135,g,1.0,0.6993367910035886,,,,,,sub-194,1,stroop_test,,
,,,,101.0,5.0,8.0,,,,,,,,,,,,,gelb,blue,b,0.0,b,1.0,0.925377749983454,,,,,,,,,,8.0,5.0,101.0,9.0,401.04700579098426,,,,,,,,,,,,,,,,,401.0376777079946,401.1346626659797,401.93061074998695,401.9188455409894,,,,,,,,,,,,,,,,,,,,,,,,,,,,,,,,,,,401.9232920409995,401.93061074998695,401.93061074998695,402.859547207976,b,1.0,0.925377749983454,,,,,,sub-194,1,stroop_test,,
,,,,102.0,6.0,8.0,,,,,,,,,,,,,gelb,yellow,g,1.0,g,1.0,0.5362458330055233,,,,,,,,,,8.0,6.0,102.0,10.0,402.8698817910045,,,,,,,,,,,,,,,,,402.8599827080034,404.0577594159986,404.8677617079811,404.8535654580046,,,,,,,,,,,,,,,,,,,,,,,,,,,,,,,,,,,404.85408558297786,404.8677617079811,404.8677617079811,405.4083762499795,g,1.0,0.5362458330055233,,,,,,sub-194,1,stroop_test,,
,,,,103.0,7.0,8.0,,,,,,,,,,,,,rot,red,r,1.0,r,1.0,0.7492598749813624,,,,,,,,,,8.0,7.0,103.0,1.0,405.41767804097617,,,,,,,,,,,,,,,,,405.4087894159893,405.5074161249795,406.3124152910023,406.3016912500025,,,,,,,,,,,,,,,,,,,,,,,,,,,,,,,,,,,406.30496233300073,406.3124152910023,406.3124152910023,407.0699526249955,r,1.0,0.7492598749813624,,,,,,sub-194,1,stroop_test,,
,,,,104.0,8.0,8.0,,,,,,,,,,,,,rot,red,r,1.0,r,1.0,0.6315262090065517,,,,,,,,,,8.0,8.0,104.0,0.0,407.0802740829822,,,,,,,,,,,,,,,,,407.070504082978,407.41785787499975,408.2099556250032,408.2018649999809,,,,,,,,,,,,,,,,,,,,,,,,,,,,,,,,,,,408.2025102079788,408.2099556250032,408.2099556250032,408.8534122909769,r,1.0,0.6315262090065517,,,,,,sub-194,1,stroop_test,,
,,,,105.0,9.0,8.0,,,,,,,,,,,,,rot,blue,b,0.0,b,1.0,0.6695056250027847,,,,,,,,,,8.0,9.0,105.0,2.0,408.8637179999787,,,,,,,,,,,,,,,,,408.85394745800295,409.2014554999769,409.9933113330044,409.985163165984,,,,,,,,,,,,,,,,,,,,,,,,,,,,,,,,,,,409.9858330829884,409.9933113330044,409.9933113330044,410.6697463750024,b,1.0,0.6695056250027847,,,,,,sub-194,1,stroop_test,,
,,,,106.0,10.0,8.0,,,,,,,,,,,,,blau,blue,b,1.0,b,1.0,0.8455312079750001,,,,,,,,,,8.0,10.0,106.0,6.0,410.6796896249871,,,,,,,,,,,,,,,,,410.6702708329831,411.8678645000036,412.6626097499975,412.6519503329764,,,,,,,,,,,,,,,,,,,,,,,,,,,,,,,,,,,412.655395165988,412.6626097499975,412.6626097499975,413.51050462498097,b,1.0,0.8455312079750001,,,,,,sub-194,1,stroop_test,,
,,,,107.0,11.0,8.0,,,,,,,,,,,,,rot,yellow,g,0.0,g,1.0,0.6079011249821633,,,,,,,,,,8.0,11.0,107.0,3.0,413.5205059580039,,,,,,,,,,,,,,,,,413.5109443749825,413.6082517079776,414.4130429579818,414.4019550829835,,,,,,,,,,,,,,,,,,,,,,,,,,,,,,,,,,,414.4055574160011,414.4130429579818,414.4130429579818,415.0255569999863,g,1.0,0.6079011249821633,,,,,,sub-194,1,stroop_test,,
,,,,108.0,0.0,9.0,,,,,,,,,,,,,blau,yellow,g,0.0,g,1.0,0.6951070420036558,,,,,,,,,,9.0,0.0,108.0,7.0,415.0510155829834,,,,,,,,,,,,,,,,,415.0259742909984,415.3742540410021,416.1792069579824,416.168579374993,,,,,,,,,,,,,,,,,,,,,,,,,,,,,,,,,,,416.1719495409925,416.1792069579824,416.1792069579824,416.87690179099445,g,1.0,0.6951070420036558,,,,,,sub-194,1,stroop_test,,
,,,,109.0,1.0,9.0,,,,,,,,,,,,,gelb,yellow,g,1.0,g,1.0,0.6003234579984564,,,,,,,,,,9.0,1.0,109.0,10.0,416.8870727499889,,,,,,,,,,,,,,,,,416.8773552909842,417.67429037499824,418.4841617499769,418.4572281249857,,,,,,,,,,,,,,,,,,,,,,,,,,,,,,,,,,,418.46144383298815,418.4841617499769,418.4841617499769,419.086989915988,g,1.0,0.6003234579984564,,,,,,sub-194,1,stroop_test,,
,,,,110.0,2.0,9.0,,,,,,,,,,,,,blau,red,r,0.0,r,1.0,0.7212962080084253,,,,,,,,,,9.0,2.0,110.0,4.0,419.0969459159824,,,,,,,,,,,,,,,,,419.0874493749871,419.1847116659919,419.9808451659919,419.96884908300126,,,,,,,,,,,,,,,,,,,,,,,,,,,,,,,,,,,419.9734185829875,419.9808451659919,419.9808451659919,420.7144174999849,r,1.0,0.7212962080084253,,,,,,sub-194,1,stroop_test,,
,,,,111.0,3.0,9.0,,,,,,,,,,,,,rot,red,r,1.0,g,0.0,0.7642108330037445,,,,,,,,,,9.0,3.0,111.0,1.0,420.7220736249874,,,,,,,,,,,,,,,,,420.7148769999913,421.9080013329804,422.7128055409994,422.7019430829969,,,,,,,,,,,,,,,,,,,,,,,,,,,,,,,,,,,422.70539162500063,422.7128055409994,422.7128055409994,423.4867893329938,g,0.0,0.7642108330037445,,,,,,sub-194,1,stroop_test,,
,,,,112.0,4.0,9.0,,,,,,,,,,,,,rot,blue,b,0.0,b,1.0,0.7599256249959581,,,,,,,,,,9.0,4.0,112.0,2.0,423.4967499999912,,,,,,,,,,,,,,,,,423.4872967499832,423.834757707984,424.62684737498057,424.6186340409913,,,,,,,,,,,,,,,,,,,,,,,,,,,,,,,,,,,424.6193266249902,424.62684737498057,424.62684737498057,425.3934039159794,b,1.0,0.7599256249959581,,,,,,sub-194,1,stroop_test,,
,,,,113.0,5.0,9.0,,,,,,,,,,,,,gelb,blue,b,0.0,b,1.0,0.6962089159933385,,,,,,,,,,9.0,5.0,113.0,9.0,425.4037949999911,,,,,,,,,,,,,,,,,425.39394662500126,426.59172929098713,427.3960853749886,427.3853080830013,,,,,,,,,,,,,,,,,,,,,,,,,,,,,,,,,,,427.3887719159829,427.3960853749886,427.3960853749886,428.103744166001,b,1.0,0.6962089159933385,,,,,,sub-194,1,stroop_test,,
,,,,114.0,6.0,9.0,,,,,,,,,,,,,gelb,yellow,g,1.0,g,1.0,0.7618397499900311,,,,,,,,,,9.0,6.0,114.0,11.0,428.1139972079836,,,,,,,,,,,,,,,,,428.1043044579856,428.2009072499932,428.9936052499979,428.9855032909836,,,,,,,,,,,,,,,,,,,,,,,,,,,,,,,,,,,428.9862040829903,428.9936052499979,428.9936052499979,429.75875512498897,g,1.0,0.7618397499900311,,,,,,sub-194,1,stroop_test,,
,,,,115.0,7.0,9.0,,,,,,,,,,,,,rot,red,r,1.0,r,1.0,0.775922625005478,,,,,,,,,,9.0,7.0,115.0,0.0,429.7684120409831,,,,,,,,,,,,,,,,,429.75917041598586,430.9583889999776,431.7627860409848,431.7519789159997,,,,,,,,,,,,,,,,,,,,,,,,,,,,,,,,,,,431.7556189579773,431.7627860409848,431.7627860409848,432.54328849999,r,1.0,0.775922625005478,,,,,,sub-194,1,stroop_test,,
,,,,116.0,8.0,9.0,,,,,,,,,,,,,gelb,red,r,0.0,r,1.0,1.0054530420165977,,,,,,,,,,9.0,8.0,116.0,8.0,432.55332629100303,,,,,,,,,,,,,,,,,432.5437042909907,433.7414448749914,434.54612329098745,434.5355337079964,,,,,,,,,,,,,,,,,,,,,,,,,,,,,,,,,,,434.5390477500041,434.54612329098745,434.54612329098745,435.5540722080041,r,1.0,1.0054530420165977,,,,,,sub-194,1,stroop_test,,
,,,,117.0,9.0,9.0,,,,,,,,,,,,,rot,yellow,g,0.0,g,1.0,0.6922094170004129,,,,,,,,,,9.0,9.0,117.0,3.0,435.5641269159969,,,,,,,,,,,,,,,,,435.5546522079967,435.90160262500285,436.6972940409905,436.6857280409895,,,,,,,,,,,,,,,,,,,,,,,,,,,,,,,,,,,436.6901039579825,436.6972940409905,436.6972940409905,437.3921166249784,g,1.0,0.6922094170004129,,,,,,sub-194,1,stroop_test,,
,,,,118.0,10.0,9.0,,,,,,,,,,,,,blau,blue,b,1.0,b,1.0,0.5620410830015317,,,,,,,,,,9.0,10.0,118.0,5.0,437.41776787498384,,,,,,,,,,,,,,,,,437.3925599579816,437.7411401249992,438.5468556659762,438.5356065829983,,,,,,,,,,,,,,,,,,,,,,,,,,,,,,,,,,,438.5394590409997,438.5468556659762,438.5468556659762,439.1192081249901,b,1.0,0.5620410830015317,,,,,,sub-194,1,stroop_test,,
,,,,119.0,11.0,9.0,,,,,,,,,,,,,blau,blue,b,1.0,b,1.0,0.5367119160073344,,,,,,,,,,9.0,11.0,119.0,6.0,439.1289641250041,,,,,,,,,,,,,,,,,439.1197348749847,439.2181501250016,440.0099893749866,440.0022197910002,,,,,,,,,,,,,,,,,,,,,,,,,,,,,,,,,,,440.0028440829774,440.0099893749866,440.0099893749866,440.5534805409843,b,1.0,0.5367119160073344,,,,,,sub-194,1,stroop_test,,
,,,,,,,,,,,,,,,,,,,,,,,,,,,,,,,,,,,,,,,,,,,,,,,,,,,,,,,,,,,,,,,,,,,,,,,,,,,,,,,,,,,,,,,,,,,,,,,,,,,,,,440.5537230829941,440.564703290991,445.5565990409814,445.5522758330044,sub-194,1,stroop_test,,
