wordCTK,colorCTK,corrAnsCTK,congruentCTK,thisN,thisTrialN,thisRepN,keyResp_CTK.keys,keyResp_CTK.corr,keyResp_CTK.rt,keyResp_CTK.duration,wordPractice,colorPractice,corrAnsPractice,congruentPractice,respPractice.keys,respPractice.corr,respPractice.rt,respPractice.duration,word,color,corrAns,congruent,keyResp_test_run.keys,keyResp_test_run.corr,keyResp_test_run.rt,keyResp_test_run.duration,trials_CTK.thisRepN,trials_CTK.thisTrialN,trials_CTK.thisN,trials_CTK.thisIndex,trials_practice.thisRepN,trials_practice.thisTrialN,trials_practice.thisN,trials_practice.thisIndex,trials_test.thisRepN,trials_test.thisTrialN,trials_test.thisN,trials_test.thisIndex,thisRow.t,notes,instruction.started,instr_text.started,instr_image.started,instr_resp.started,instruction.stopped,instr_resp.keys,instr_resp.rt,instr_resp.duration,instr_color_to_key.started,instr_ctk.started,resp_ctk.started,instr_color_to_key.stopped,resp_ctk.keys,resp_ctk.rt,resp_ctk.duration,ITI.started,fixcross.started,fixcross.stopped,ITI.stopped,color_to_key_run.started,stimulus_CTK.started,keyResp_CTK.started,color_to_key_run.stopped,trials_CTK.keyResp_CTK.keys,trials_CTK.keyResp_CTK.corr,trials_CTK.keyResp_CTK.rt,trials_CTK.keyResp_CTK.duration,instr_practice.started,instr_practice_text.started,instr_practice_resp.started,instr_practice.stopped,instr_practice_resp.keys,instr_practice_resp.rt,instr_practice_resp.duration,practice_run.started,stimulus_practice.started,respPractice.started,practice_run.stopped,trials_practice.respPractice.keys,trials_practice.respPractice.corr,trials_practice.respPractice.rt,trials_practice.respPractice.duration,feedback.started,textFeedback.started,feedback.stopped,textFeedback.stopped,instr_test.started,instr_test_text.started,instr_test_resp.started,instr_test.stopped,instr_test_resp.keys,instr_test_resp.rt,instr_test_resp.duration,test_run.started,stimulus_test_run.started,keyResp_test_run.started,test_run.stopped,trials_test.keyResp_test_run.keys,trials_test.keyResp_test_run.corr,trials_test.keyResp_test_run.rt,trials_test.keyResp_test_run.duration,goodbye.started,textGoodbye.started,participant,session,expName,frameRate,Unnamed: 111
,,,,,,,,,,,,,,,,,,,,,,,,,,,,,,,,,,,,,,,,,0.0075236660013615,0.0620197909993294,0.0620197909993294,0.0620197909993294,5.28056820799975,space,5.178127624996705,,,,,,,,,,,,,,,,,,,,,,,,,,,,,,,,,,,,,,,,,,,,,,,,,,,,,,,,,sub-183,1.0,stroop_test,,
,,,,,,,,,,,,,,,,,,,,,,,,,,,,,,,,,,,,,,,,,,,,,,,,,5.280633250000392,5.309567041000264,5.309567041000264,6.441441124999983,space,1.1280332079986692,,,,,,,,,,,,,,,,,,,,,,,,,,,,,,,,,,,,,,,,,,,,,,,,,,sub-183,1.0,stroop_test,,
test,blue,b,1.0,0.0,0.0,0.0,b,1.0,0.8373635419993661,,,,,,,,,,,,,,,,,,0.0,0.0,0.0,2.0,,,,,,,,,6.475742250000621,,,,,,,,,,,,,,,,,6.459672207998665,7.646795500000735,8.449673166000139,8.434674874999473,8.442805250000674,8.449673166000139,8.449673166000139,9.292250124999557,b,1.0,0.8373635419993661,,,,,,,,,,,,,,,,,,,,,,,,,,,,,,,,,,,,,,sub-183,1.0,stroop_test,,
test,red,r,1.0,1.0,1.0,0.0,r,1.0,0.992000290996657,,,,,,,,,,,,,,,,,,0.0,1.0,1.0,0.0,,,,,,,,,9.302100290999078,,,,,,,,,,,,,,,,,9.29275383300046,9.640440540999409,10.43243720800092,10.424186832999112,10.42476470800102,10.43243720800092,10.43243720800092,11.43748483300078,r,1.0,0.992000290996657,,,,,,,,,,,,,,,,,,,,,,,,,,,,,,,,,,,,,,sub-183,1.0,stroop_test,,
test,yellow,g,1.0,2.0,2.0,0.0,g,1.0,1.6503645000011602,,,,,,,,,,,,,,,,,,0.0,2.0,2.0,1.0,,,,,,,,,11.45063941600165,,,,,,,,,,,,,,,,,11.437801166001009,12.633985500000565,13.425955957998667,13.41816233300051,13.41894287499963,13.425955957998667,13.425955957998667,15.08575054099856,g,1.0,1.6503645000011602,,,,,,,,,,,,,,,,,,,,,,,,,,,,,,,,,,,,,,sub-183,1.0,stroop_test,,
test,blue,b,1.0,3.0,0.0,1.0,b,1.0,2.433991791000153,,,,,,,,,,,,,,,,,,1.0,0.0,3.0,2.0,,,,,,,,,15.09598941600052,,,,,,,,,,,,,,,,,15.08636050000132,15.183806166001888,15.975082749999274,15.967960791000223,15.968554625000252,15.975082749999274,15.975082749999274,18.419175999999425,b,1.0,2.433991791000153,,,,,,,,,,,,,,,,,,,,,,,,,,,,,,,,,,,,,,sub-183,1.0,stroop_test,,
test,red,r,1.0,4.0,1.0,1.0,r,1.0,0.6644539580011042,,,,,,,,,,,,,,,,,,1.0,1.0,4.0,0.0,,,,,,,,,18.42924083300022,,,,,,,,,,,,,,,,,18.41974237500108,19.21743979099847,20.00892787499833,20.001211999999214,20.00197295800172,20.00892787499833,20.00892787499833,20.675712666001345,r,1.0,0.6644539580011042,,,,,,,,,,,,,,,,,,,,,,,,,,,,,,,,,,,,,,sub-183,1.0,stroop_test,,
test,yellow,g,1.0,5.0,2.0,1.0,g,1.0,0.7406695419995231,,,,,,,,,,,,,,,,,,1.0,2.0,5.0,1.0,,,,,,,,,20.68646679100129,,,,,,,,,,,,,,,,,20.676275207999424,20.77268320800067,21.56560512500073,21.55732912500025,21.557926916000724,21.56560512500073,21.56560512500073,22.308121082998696,g,1.0,0.7406695419995231,,,,,,,,,,,,,,,,,,,,,,,,,,,,,,,,,,,,,,sub-183,1.0,stroop_test,,
test,yellow,g,1.0,6.0,0.0,2.0,g,1.0,0.6018421250009851,,,,,,,,,,,,,,,,,,2.0,0.0,6.0,1.0,,,,,,,,,22.316186125000968,,,,,,,,,,,,,,,,,22.308571000001397,22.406004500000563,23.19958566599962,23.189886166001088,23.190457290998893,23.19958566599962,23.19958566599962,23.812993874998934,g,1.0,0.6018421250009851,,,,,,,,,,,,,,,,,,,,,,,,,,,,,,,,,,,,,,sub-183,1.0,stroop_test,,
test,red,r,1.0,7.0,1.0,2.0,r,1.0,0.6850287089982885,,,,,,,,,,,,,,,,,,2.0,1.0,7.0,0.0,,,,,,,,,23.818756790999032,,,,,,,,,,,,,,,,,23.81347762500081,24.15704637499948,24.94895704100054,24.94027191599889,24.940845332999743,24.94895704100054,24.94895704100054,25.6365947910017,r,1.0,0.6850287089982885,,,,,,,,,,,,,,,,,,,,,,,,,,,,,,,,,,,,,,sub-183,1.0,stroop_test,,
test,blue,b,1.0,8.0,2.0,2.0,b,1.0,0.708394708999549,,,,,,,,,,,,,,,,,,2.0,2.0,8.0,2.0,,,,,,,,,25.646851958001207,,,,,,,,,,,,,,,,,25.637332957998296,26.833870082999056,27.62610337500155,27.61817183300081,27.61899099999937,27.62610337500155,27.62610337500155,28.347494749999896,b,1.0,0.708394708999549,,,,,,,,,,,,,,,,,,,,,,,,,,,,,,,,,,,,,,sub-183,1.0,stroop_test,,
test,blue,b,1.0,9.0,0.0,3.0,b,1.0,0.6812802919994283,,,,,,,,,,,,,,,,,,3.0,0.0,9.0,2.0,,,,,,,,,28.351695083001687,,,,,,,,,,,,,,,,,28.347896791001403,29.540745250000327,30.34161208300065,30.33443595800054,30.33504499999981,30.34161208300065,30.34161208300065,31.02538170800108,b,1.0,0.6812802919994283,,,,,,,,,,,,,,,,,,,,,,,,,,,,,,,,,,,,,,sub-183,1.0,stroop_test,,
test,yellow,g,1.0,10.0,1.0,3.0,g,1.0,0.7646195830020588,,,,,,,,,,,,,,,,,,3.0,1.0,10.0,1.0,,,,,,,,,31.03612845799944,,,,,,,,,,,,,,,,,31.02605875000154,31.37358791600127,32.165678290999494,32.15698620799958,32.15757841600134,32.165678290999494,32.165678290999494,32.935796333000326,g,1.0,0.7646195830020588,,,,,,,,,,,,,,,,,,,,,,,,,,,,,,,,,,,,,,sub-183,1.0,stroop_test,,
test,red,r,1.0,11.0,2.0,3.0,r,1.0,0.6843382500010193,,,,,,,,,,,,,,,,,,3.0,2.0,11.0,0.0,,,,,,,,,32.946338124998874,,,,,,,,,,,,,,,,,32.93645133300015,34.133953625001595,34.92569745799847,34.918183624999074,34.919039874999726,34.92569745799847,34.92569745799847,35.61930199999915,r,1.0,0.6843382500010193,,,,,,,,,,,,,,,,,,,,,,,,,,,,,,,,,,,,,,sub-183,1.0,stroop_test,,
,,,,,,,,,,,,,,,,,,,,,,,,,,,,,,,,,,,,,,,,,,,,,,,,,,,,,,,,,,,,,,,,,,,,35.61955175000185,35.632703582999966,35.632703582999966,37.38190404100169,space,1.7353807089966722,,,,,,,,,,,,,,,,,,,,,,,,,,,,,,,sub-183,1.0,stroop_test,,
,,,,0.0,0.0,0.0,,,,,rot,blue,b,0.0,b,1.0,0.8641233329981333,,,,,,,,,,,,,,0.0,0.0,0.0,2.0,,,,,37.398957375000464,,,,,,,,,,,,,,,,,37.39461058300003,37.47267870799988,38.26981154099849,38.25690183299957,,,,,,,,,,,,,,,,38.263075540999125,38.26981154099849,38.26981154099849,39.13642170800085,b,1.0,0.8641233329981333,,39.14555470800042,39.15429670799858,40.13991883299968,,,,,,,,,,,,,,,,,,,sub-183,1.0,stroop_test,,
,,,,1.0,1.0,0.0,,,,,blau,yellow,g,0.0,g,1.0,0.6538493750013004,,,,,,,,,,,,,,0.0,1.0,1.0,7.0,,,,,40.150472332999925,,,,,,,,,,,,,,,,,40.14046149999922,40.4838505000007,41.2821452499993,41.267777125001885,,,,,,,,,,,,,,,,41.27504120799858,41.2821452499993,41.2821452499993,41.94210887499867,g,1.0,0.6538493750013004,,41.94288737500028,41.9547039579993,42.94001504100015,42.95053529100187,,,,,,,,,,,,,,,,,,sub-183,1.0,stroop_test,,
,,,,2.0,2.0,0.0,,,,,gelb,yellow,g,1.0,g,1.0,0.5859828749998996,,,,,,,,,,,,,,0.0,2.0,2.0,10.0,,,,,42.95053529100187,,,,,,,,,,,,,,,,,42.94043904100181,43.74000108299879,44.55020391599828,44.523465499998565,,,,,,,,,,,,,,,,44.52712512500148,44.55020391599828,44.55020391599828,45.14151104100165,g,1.0,0.5859828749998996,,45.14223104100165,45.15310645800128,46.14074370800154,46.1504076659985,,,,,,,,,,,,,,,,,,sub-183,1.0,stroop_test,,
,,,,3.0,3.0,0.0,,,,,rot,yellow,g,0.0,g,1.0,0.7487622080006986,,,,,,,,,,,,,,0.0,3.0,3.0,3.0,,,,,46.1504076659985,,,,,,,,,,,,,,,,,46.14115537500038,46.24043595799958,47.035339958001714,47.023858332999225,,,,,,,,,,,,,,,,47.02734183299981,47.035339958001714,47.035339958001714,47.787479750000784,g,1.0,0.7487622080006986,,47.78847662499902,47.79908229099965,48.7846111660001,48.79035408300115,,,,,,,,,,,,,,,,,,sub-183,1.0,stroop_test,,
,,,,4.0,4.0,0.0,,,,,rot,red,r,1.0,r,1.0,0.6356147910009895,,,,,,,,,,,,,,0.0,4.0,4.0,1.0,,,,,48.79035408300115,,,,,,,,,,,,,,,,,48.78515883300133,49.98383033299979,50.77509945799829,50.76778720799848,,,,,,,,,,,,,,,,50.76840016600181,50.77509945799829,50.77509945799829,51.41910412500147,r,1.0,0.6356147910009895,,51.4199179999996,51.43111712500104,52.41776945799938,52.423041624999314,,,,,,,,,,,,,,,,,,sub-183,1.0,stroop_test,,
,,,,5.0,5.0,0.0,,,,,blau,red,r,0.0,r,1.0,0.6012635420011065,,,,,,,,,,,,,,0.0,5.0,5.0,4.0,,,,,52.423041624999314,,,,,,,,,,,,,,,,,52.4181885830003,53.21721500000058,54.01233220799986,54.00115050000022,,,,,,,,,,,,,,,,54.00530116599839,54.01233220799986,54.01233220799986,54.61883691600087,r,1.0,0.6012635420011065,,54.61962129099993,54.6304675829997,55.617822583000816,55.62297333300012,,,,,,,,,,,,,,,,,,sub-183,1.0,stroop_test,,
,,,,6.0,6.0,0.0,,,,,gelb,yellow,g,1.0,g,1.0,0.6724913329999254,,,,,,,,,,,,,,0.0,6.0,6.0,11.0,,,,,55.62297333300012,,,,,,,,,,,,,,,,,55.61822804099938,55.96714079099911,56.766553458001,56.75147120800102,,,,,,,,,,,,,,,,56.75953524999932,56.766553458001,56.766553458001,57.44182670800001,g,1.0,0.6724913329999254,,57.4425325830016,57.4546153750016,58.44099612499849,58.450591041000735,,,,,,,,,,,,,,,,,,sub-183,1.0,stroop_test,,
,,,,7.0,7.0,0.0,,,,,gelb,blue,b,0.0,b,1.0,0.9357615000008082,,,,,,,,,,,,,,0.0,7.0,7.0,9.0,,,,,58.450591041000735,,,,,,,,,,,,,,,,,58.441420582999854,58.78986120799891,59.58973100000003,59.58331420800096,,,,,,,,,,,,,,,,59.58428679099961,59.58973100000003,59.58973100000003,60.53600995799934,b,1.0,0.9357615000008082,,60.53714362499886,60.55053583300105,61.53463158299928,61.54019770800005,,,,,,,,,,,,,,,,,,sub-183,1.0,stroop_test,,
,,,,8.0,8.0,0.0,,,,,blau,blue,b,1.0,b,1.0,0.4707873329971335,,,,,,,,,,,,,,0.0,8.0,8.0,6.0,,,,,61.54019770800005,,,,,,,,,,,,,,,,,61.53525958300088,61.8838415829996,62.68016875000103,62.66794204100006,,,,,,,,,,,,,,,,62.67296658299893,62.68016875000103,62.68016875000103,63.15334716600046,b,1.0,0.4707873329971335,,63.15444249999928,63.166465624999546,64.15126750000127,64.15672412500135,,,,,,,,,,,,,,,,,,sub-183,1.0,stroop_test,,
,,,,9.0,9.0,0.0,,,,,blau,blue,b,1.0,b,1.0,0.5053638339995814,,,,,,,,,,,,,,0.0,9.0,9.0,5.0,,,,,64.15672412500135,,,,,,,,,,,,,,,,,64.15170795800077,65.3504359159997,66.14216133299851,66.13467887500155,,,,,,,,,,,,,,,,66.13546516600036,66.14216133299851,66.14216133299851,66.65221825000117,b,1.0,0.5053638339995814,,66.65304599999945,66.66449495800043,67.65149141599977,67.65746495799976,,,,,,,,,,,,,,,,,,sub-183,1.0,stroop_test,,
,,,,10.0,10.0,0.0,,,,,rot,red,r,1.0,r,1.0,0.4587688749998051,,,,,,,,,,,,,,0.0,10.0,10.0,0.0,,,,,67.65746495799976,,,,,,,,,,,,,,,,,67.65232537499833,68.45068062499922,69.24647370800085,69.23469962500167,,,,,,,,,,,,,,,,69.23925879099988,69.24647370800085,69.24647370800085,69.70793387500089,r,1.0,0.4587688749998051,,69.70843349999996,69.71684866600117,70.70138874999975,70.70719270799964,,,,,,,,,,,,,,,,,,sub-183,1.0,stroop_test,,
,,,,11.0,11.0,0.0,,,,,gelb,red,r,0.0,r,1.0,0.7653700840019155,,,,,,,,,,,,,,0.0,11.0,11.0,8.0,,,,,70.70719270799964,,,,,,,,,,,,,,,,,70.7018190000017,70.80690758299897,71.60250612500022,71.59092058299939,,,,,,,,,,,,,,,,71.59490587500113,71.60250612500022,71.60250612500022,72.38207624999995,r,1.0,0.7653700840019155,,72.38279949999924,72.38875112499954,73.37372645800133,73.38380329099891,,,,,,,,,,,,,,,,,,sub-183,1.0,stroop_test,,
,,,,12.0,0.0,1.0,,,,,rot,red,r,1.0,r,1.0,0.591806333999557,,,,,,,,,,,,,,1.0,0.0,12.0,0.0,,,,,73.38380329099891,,,,,,,,,,,,,,,,,73.37415270799829,73.47310225000183,74.2835191660015,74.25639212500027,,,,,,,,,,,,,,,,74.25995654100188,74.2835191660015,74.2835191660015,74.88573075000022,r,1.0,0.591806333999557,,74.88664020799843,74.8988141660011,75.88489233300061,75.89086020800096,,,,,,,,,,,,,,,,,,sub-183,1.0,stroop_test,,
,,,,13.0,1.0,1.0,,,,,rot,yellow,g,0.0,g,1.0,0.6934644590000971,,,,,,,,,,,,,,1.0,1.0,13.0,3.0,,,,,75.89086020800096,,,,,,,,,,,,,,,,,75.88558895800088,76.68382679099886,77.47514116599996,77.4678575830003,,,,,,,,,,,,,,,,77.46849241599921,77.47514116599996,77.47514116599996,78.18016570799955,g,1.0,0.6934644590000971,,78.18083629100147,78.18657425000129,79.17380983299881,79.18372570800057,,,,,,,,,,,,,,,,,,sub-183,1.0,stroop_test,,
,,,,14.0,2.0,1.0,,,,,gelb,blue,b,0.0,r,0.0,0.7606282909982838,,,,,,,,,,,,,,1.0,2.0,14.0,9.0,,,,,79.18372570800057,,,,,,,,,,,,,,,,,79.17422625000108,79.27347575000022,80.06923204100167,80.0570185409997,,,,,,,,,,,,,,,,80.06192612499945,80.06923204100167,80.06923204100167,80.83555462499862,r,0.0,0.7606282909982838,,80.8432752080007,80.85234104100164,81.84003983300136,,,,,,,,,,,,,,,,,,,sub-183,1.0,stroop_test,,
,,,,15.0,3.0,1.0,,,,,rot,blue,b,0.0,b,1.0,0.7047766249997949,,,,,,,,,,,,,,1.0,3.0,15.0,2.0,,,,,81.85041550000096,,,,,,,,,,,,,,,,,81.84051208299934,82.18378812499941,82.97925649999888,82.96793595800045,,,,,,,,,,,,,,,,82.97216658300022,82.97925649999888,82.97925649999888,83.68637995799872,b,1.0,0.7047766249997949,,83.69154254100067,83.70130725000126,84.685181249999,84.69071441599954,,,,,,,,,,,,,,,,,,sub-183,1.0,stroop_test,,
,,,,16.0,4.0,1.0,,,,,blau,blue,b,1.0,b,1.0,0.7050721669984341,,,,,,,,,,,,,,1.0,4.0,16.0,5.0,,,,,84.69071441599954,,,,,,,,,,,,,,,,,84.68564412499836,85.48379900000145,86.2797283330001,86.2679117910011,,,,,,,,,,,,,,,,86.27230266599872,86.2797283330001,86.2797283330001,86.99539091599945,b,1.0,0.7050721669984341,,86.99605029099985,87.00287204100096,87.99048683300134,88.00047333299881,,,,,,,,,,,,,,,,,,sub-183,1.0,stroop_test,,
,,,,17.0,5.0,1.0,,,,,gelb,yellow,g,1.0,g,1.0,0.6024933329972555,,,,,,,,,,,,,,1.0,5.0,17.0,11.0,,,,,88.00047333299881,,,,,,,,,,,,,,,,,87.99090766600057,89.19011416600188,89.98568033300035,89.97404116599864,,,,,,,,,,,,,,,,89.97794333300044,89.98568033300035,89.98568033300035,90.5914782910004,g,1.0,0.6024933329972555,,90.59228912500112,90.60467599999902,91.5900099999999,91.6005343329998,,,,,,,,,,,,,,,,,,sub-183,1.0,stroop_test,,
,,,,18.0,6.0,1.0,,,,,blau,red,r,0.0,r,1.0,0.8206695420012693,,,,,,,,,,,,,,1.0,6.0,18.0,4.0,,,,,91.6005343329998,,,,,,,,,,,,,,,,,91.59042716600015,92.78984333300104,93.5854834999991,93.57386254100128,,,,,,,,,,,,,,,,93.57747095800003,93.5854834999991,93.5854834999991,94.4083923750004,r,1.0,0.8206695420012693,,94.40919145799852,94.42127275000166,95.40660008299892,95.41707408300137,,,,,,,,,,,,,,,,,,sub-183,1.0,stroop_test,,
,,,,19.0,7.0,1.0,,,,,gelb,red,r,0.0,r,1.0,0.6676957080017019,,,,,,,,,,,,,,1.0,7.0,19.0,8.0,,,,,95.41707408300137,,,,,,,,,,,,,,,,,95.4069994579986,96.20748845799972,97.00272241600032,96.99055354099984,,,,,,,,,,,,,,,,96.99512333299936,97.00272241600032,97.00272241600032,97.67478545799896,r,1.0,0.6676957080017019,,97.67552791599884,97.68784104099905,98.67301041600147,98.68389450000176,,,,,,,,,,,,,,,,,,sub-183,1.0,stroop_test,,
,,,,20.0,8.0,1.0,,,,,blau,yellow,g,0.0,g,1.0,0.9019178330017894,,,,,,,,,,,,,,1.0,8.0,20.0,7.0,,,,,98.68389450000176,,,,,,,,,,,,,,,,,98.67342016600014,98.773195916001,99.56876512500094,99.55714991599962,,,,,,,,,,,,,,,,99.56080745800136,99.56876512500094,99.56876512500094,100.47457275000124,g,1.0,0.9019178330017894,,100.47526720799942,100.4861815410004,101.47363591600153,101.48372491600094,,,,,,,,,,,,,,,,,,sub-183,1.0,stroop_test,,
,,,,21.0,9.0,1.0,,,,,gelb,yellow,g,1.0,g,1.0,1.2307483330005198,,,,,,,,,,,,,,1.0,9.0,21.0,10.0,,,,,101.48372491600094,,,,,,,,,,,,,,,,,101.47403874999873,102.67417175000082,103.47889341599875,103.46773300000132,,,,,,,,,,,,,,,,103.4718842910006,103.47889341599875,103.47889341599875,104.71920229099852,g,1.0,1.2307483330005198,,104.71997587499936,104.73082016600164,105.71839362500032,105.72422566599926,,,,,,,,,,,,,,,,,,sub-183,1.0,stroop_test,,
,,,,22.0,10.0,1.0,,,,,blau,blue,b,1.0,b,1.0,0.7259283749990573,,,,,,,,,,,,,,1.0,10.0,22.0,6.0,,,,,105.72422566599926,,,,,,,,,,,,,,,,,105.71886649999942,106.06723212499855,106.86330737499884,106.8511625409992,,,,,,,,,,,,,,,,106.8556486660018,106.86330737499884,106.86330737499884,107.59142095800053,b,1.0,0.7259283749990573,,107.592098000001,107.60209875000146,108.5905023330015,108.60035420799976,,,,,,,,,,,,,,,,,,sub-183,1.0,stroop_test,,
,,,,23.0,11.0,1.0,,,,,rot,red,r,1.0,r,1.0,0.6560877089978021,,,,,,,,,,,,,,1.0,11.0,23.0,1.0,,,,,108.60035420799976,,,,,,,,,,,,,,,,,108.59091141599856,108.68958462500086,109.4853149160008,109.47377779100134,,,,,,,,,,,,,,,,109.47739604099844,109.4853149160008,109.4853149160008,110.1519947500019,r,1.0,0.6560877089978021,,110.15244920799888,110.15780291600096,111.15116954100084,111.15912233299969,,,,,,,,,,,,,,,,,,sub-183,1.0,stroop_test,,
,,,,,,,,,,,,,,,,,,,,,,,,,,,,,,,,,,,,,,,,,,,,,,,,,,,,,,,,,,,,,,,,,,,,,,,,,,,,,,,,,,,,,,,111.15137720799976,111.15912233299969,111.15912233299969,112.20271333300116,space,1.0414590839973243,,,,,,,,,,,,sub-183,1.0,stroop_test,,
,,,,0.0,0.0,0.0,,,,,,,,,,,,,gelb,red,r,0.0,r,1.0,1.315443958999822,,,,,,,,,,0.0,0.0,0.0,8.0,112.22399454100014,,,,,,,,,,,,,,,,,112.21746825000082,113.40039587499996,114.19578399999956,114.18451291599922,,,,,,,,,,,,,,,,,,,,,,,,,,,,,,,,,,,114.18852704099844,114.19578399999956,114.19578399999956,115.51895325000078,r,1.0,1.315443958999822,,,,sub-183,1.0,stroop_test,,
,,,,1.0,1.0,0.0,,,,,,,,,,,,,rot,blue,b,0.0,b,1.0,1.120646334002231,,,,,,,,,,0.0,1.0,1.0,2.0,115.5286188329992,,,,,,,,,,,,,,,,,115.51954408299936,115.8671047079988,116.66407458300093,116.65149104100055,,,,,,,,,,,,,,,,,,,,,,,,,,,,,,,,,,,116.65674220800064,116.66407458300093,116.66407458300093,117.79599616600171,b,1.0,1.120646334002231,,,,sub-183,1.0,stroop_test,,
,,,,2.0,2.0,0.0,,,,,,,,,,,,,blau,yellow,g,0.0,g,1.0,0.688419417001569,,,,,,,,,,0.0,2.0,2.0,7.0,117.80205787500016,,,,,,,,,,,,,,,,,117.79646312499972,118.14067691599848,118.94553412499954,118.93461179099904,,,,,,,,,,,,,,,,,,,,,,,,,,,,,,,,,,,118.9385387910006,118.94553412499954,118.94553412499954,119.63663874999838,g,1.0,0.688419417001569,,,,sub-183,1.0,stroop_test,,
,,,,3.0,3.0,0.0,,,,,,,,,,,,,gelb,yellow,g,1.0,g,1.0,0.5014685839996673,,,,,,,,,,0.0,3.0,3.0,10.0,119.64664179100146,,,,,,,,,,,,,,,,,119.63736274999974,119.98401708299934,120.77945533299862,120.76780445799886,,,,,,,,,,,,,,,,,,,,,,,,,,,,,,,,,,,120.77246274999924,120.77945533299862,120.77945533299862,121.28560179100168,g,1.0,0.5014685839996673,,,,sub-183,1.0,stroop_test,,
,,,,4.0,4.0,0.0,,,,,,,,,,,,,rot,yellow,g,0.0,g,1.0,0.5047646669991082,,,,,,,,,,0.0,4.0,4.0,3.0,121.29551170800188,,,,,,,,,,,,,,,,,121.28620695800056,121.63379904099928,122.429482208001,122.4179367910001,,,,,,,,,,,,,,,,,,,,,,,,,,,,,,,,,,,122.42236066600162,122.429482208001,122.429482208001,122.937339832999,g,1.0,0.5047646669991082,,,,sub-183,1.0,stroop_test,,
,,,,5.0,5.0,0.0,,,,,,,,,,,,,blau,red,r,0.0,r,1.0,0.6977038329969218,,,,,,,,,,0.0,5.0,5.0,4.0,122.94752370800052,,,,,,,,,,,,,,,,,122.9380366660007,123.28381050000098,124.0795330410001,124.06801187499876,,,,,,,,,,,,,,,,,,,,,,,,,,,,,,,,,,,124.07244983300188,124.0795330410001,124.0795330410001,124.7856420829994,r,1.0,0.6977038329969218,,,,sub-183,1.0,stroop_test,,
,,,,6.0,6.0,0.0,,,,,,,,,,,,,blau,blue,b,1.0,b,1.0,0.4167677080004068,,,,,,,,,,0.0,6.0,6.0,5.0,124.79557874999956,,,,,,,,,,,,,,,,,124.7862529999984,125.98405716599882,126.7760317079992,126.76812100000096,,,,,,,,,,,,,,,,,,,,,,,,,,,,,,,,,,,126.76888795800188,126.7760317079992,126.7760317079992,127.2023121659986,b,1.0,0.4167677080004068,,,,sub-183,1.0,stroop_test,,
,,,,7.0,7.0,0.0,,,,,,,,,,,,,rot,red,r,1.0,r,1.0,1.1427687920004246,,,,,,,,,,0.0,7.0,7.0,0.0,127.2123661250007,,,,,,,,,,,,,,,,,127.2029243750003,127.55046687499998,128.34674258299856,128.33461850000094,,,,,,,,,,,,,,,,,,,,,,,,,,,,,,,,,,,128.33906087500145,128.34674258299856,128.34674258299856,129.49194054100008,r,1.0,1.1427687920004246,,,,sub-183,1.0,stroop_test,,
,,,,8.0,8.0,0.0,,,,,,,,,,,,,gelb,yellow,g,1.0,g,1.0,0.7574932089992217,,,,,,,,,,0.0,8.0,8.0,11.0,129.50219925000056,,,,,,,,,,,,,,,,,129.49250712499995,129.58994624999832,130.38518629100145,130.3731227499993,,,,,,,,,,,,,,,,,,,,,,,,,,,,,,,,,,,130.37802037499932,130.38518629100145,130.38518629100145,131.1523983750012,g,1.0,0.7574932089992217,,,,sub-183,1.0,stroop_test,,
,,,,9.0,9.0,0.0,,,,,,,,,,,,,blau,blue,b,1.0,b,1.0,0.4126772919989889,,,,,,,,,,0.0,9.0,9.0,6.0,131.16256729100132,,,,,,,,,,,,,,,,,131.15298329100187,132.35052391600038,133.14551604100052,133.13453837500128,,,,,,,,,,,,,,,,,,,,,,,,,,,,,,,,,,,133.13849358299922,133.14551604100052,133.14551604100052,133.56903779099957,b,1.0,0.4126772919989889,,,,sub-183,1.0,stroop_test,,
,,,,10.0,10.0,0.0,,,,,,,,,,,,,rot,red,r,1.0,r,1.0,0.565999082999042,,,,,,,,,,0.0,10.0,10.0,1.0,133.5790360409992,,,,,,,,,,,,,,,,,133.56969112500155,134.36715070799983,135.1632128329984,135.15133858300032,,,,,,,,,,,,,,,,,,,,,,,,,,,,,,,,,,,135.1558414579995,135.1632128329984,135.1632128329984,135.73554979099936,r,1.0,0.565999082999042,,,,sub-183,1.0,stroop_test,,
,,,,11.0,11.0,0.0,,,,,,,,,,,,,gelb,blue,b,0.0,b,1.0,0.8151407500008645,,,,,,,,,,0.0,11.0,11.0,9.0,135.74441516599836,,,,,,,,,,,,,,,,,135.73607412500132,135.83369270800176,136.62998158299888,136.61827991600148,,,,,,,,,,,,,,,,,,,,,,,,,,,,,,,,,,,136.62285308300125,136.62998158299888,136.62998158299888,137.45225137500165,b,1.0,0.8151407500008645,,,,sub-183,1.0,stroop_test,,
,,,,12.0,0.0,1.0,,,,,,,,,,,,,rot,yellow,g,0.0,g,1.0,0.6768376670006546,,,,,,,,,,1.0,0.0,12.0,3.0,137.46148495799935,,,,,,,,,,,,,,,,,137.45287375000044,138.6504212079999,139.44626920800147,139.43440470800124,,,,,,,,,,,,,,,,,,,,,,,,,,,,,,,,,,,139.43893266599844,139.44626920800147,139.44626920800147,140.1250817500004,g,1.0,0.6768376670006546,,,,sub-183,1.0,stroop_test,,
,,,,13.0,1.0,1.0,,,,,,,,,,,,,blau,red,r,0.0,r,1.0,0.7234885840007337,,,,,,,,,,1.0,1.0,13.0,4.0,140.13249220799844,,,,,,,,,,,,,,,,,140.12555162499848,140.47344712500126,141.2691125829988,141.25721370799874,,,,,,,,,,,,,,,,,,,,,,,,,,,,,,,,,,,141.26109158300096,141.2691125829988,141.2691125829988,142.0026146249984,r,1.0,0.7234885840007337,,,,sub-183,1.0,stroop_test,,
,,,,14.0,2.0,1.0,,,,,,,,,,,,,blau,blue,b,1.0,b,1.0,0.5592733330013289,,,,,,,,,,1.0,2.0,14.0,5.0,142.0123669579989,,,,,,,,,,,,,,,,,142.00326162499914,142.80051870800162,143.59152616600113,143.58441162500094,,,,,,,,,,,,,,,,,,,,,,,,,,,,,,,,,,,143.5849960000014,143.59152616600113,143.59152616600113,144.15308200000072,b,1.0,0.5592733330013289,,,,sub-183,1.0,stroop_test,,
,,,,15.0,3.0,1.0,,,,,,,,,,,,,gelb,blue,b,0.0,b,1.0,0.4547066670020285,,,,,,,,,,1.0,3.0,15.0,9.0,144.16280349999943,,,,,,,,,,,,,,,,,144.15380841599836,144.95050845800142,145.74609804099964,145.73460637500102,,,,,,,,,,,,,,,,,,,,,,,,,,,,,,,,,,,145.73904966600094,145.74609804099964,145.74609804099964,146.20335454100132,b,1.0,0.4547066670020285,,,,sub-183,1.0,stroop_test,,
,,,,16.0,4.0,1.0,,,,,,,,,,,,,gelb,yellow,g,1.0,g,1.0,0.6751234590010426,,,,,,,,,,1.0,4.0,16.0,11.0,146.21189820799918,,,,,,,,,,,,,,,,,146.20402816600108,147.40061062500172,148.19195629100068,148.18451166600062,,,,,,,,,,,,,,,,,,,,,,,,,,,,,,,,,,,148.1851319160014,148.19195629100068,148.19195629100068,148.86922641600177,g,1.0,0.6751234590010426,,,,sub-183,1.0,stroop_test,,
,,,,17.0,5.0,1.0,,,,,,,,,,,,,rot,blue,b,0.0,b,1.0,1.3207760420009436,,,,,,,,,,1.0,5.0,17.0,2.0,148.8775237080008,,,,,,,,,,,,,,,,,148.86989495799935,150.06710662499972,150.86363820800034,150.85114783300014,,,,,,,,,,,,,,,,,,,,,,,,,,,,,,,,,,,150.8564309579997,150.86363820800034,150.86363820800034,152.18676629100082,b,1.0,1.3207760420009436,,,,sub-183,1.0,stroop_test,,
,,,,18.0,6.0,1.0,,,,,,,,,,,,,blau,blue,b,1.0,b,1.0,0.4580092920004972,,,,,,,,,,1.0,6.0,18.0,6.0,152.1966566250012,,,,,,,,,,,,,,,,,152.18751620799958,153.38392849999946,154.17931087499892,154.16794087499875,,,,,,,,,,,,,,,,,,,,,,,,,,,,,,,,,,,154.17207875000167,154.17931087499892,154.17931087499892,154.6408876659989,b,1.0,0.4580092920004972,,,,sub-183,1.0,stroop_test,,
,,,,19.0,7.0,1.0,,,,,,,,,,,,,blau,yellow,g,0.0,g,1.0,0.7691617919990676,,,,,,,,,,1.0,7.0,19.0,7.0,154.64883737499986,,,,,,,,,,,,,,,,,154.64134729099897,155.8400198749987,156.6321969160017,156.62366533300155,,,,,,,,,,,,,,,,,,,,,,,,,,,,,,,,,,,156.6242554160017,156.6321969160017,156.6321969160017,157.41220033300124,g,1.0,0.7691617919990676,,,,sub-183,1.0,stroop_test,,
,,,,20.0,8.0,1.0,,,,,,,,,,,,,gelb,red,r,0.0,r,1.0,0.812578625002061,,,,,,,,,,1.0,8.0,20.0,8.0,157.4187875409989,,,,,,,,,,,,,,,,,157.412750083,157.50851716599936,158.31265645800158,158.30106070799957,,,,,,,,,,,,,,,,,,,,,,,,,,,,,,,,,,,158.30563304099996,158.31265645800158,158.31265645800158,159.13555112500035,r,1.0,0.812578625002061,,,,sub-183,1.0,stroop_test,,
,,,,21.0,9.0,1.0,,,,,,,,,,,,,gelb,yellow,g,1.0,g,1.0,0.7246816670012777,,,,,,,,,,1.0,9.0,21.0,10.0,159.14483725000173,,,,,,,,,,,,,,,,,159.1361205409994,159.48381233300097,160.27589887499926,160.26802887500162,,,,,,,,,,,,,,,,,,,,,,,,,,,,,,,,,,,160.2688478329983,160.27589887499926,160.27589887499926,161.0032140000003,g,1.0,0.7246816670012777,,,,sub-183,1.0,stroop_test,,
,,,,22.0,10.0,1.0,,,,,,,,,,,,,rot,red,r,1.0,r,1.0,1.1893684999995455,,,,,,,,,,1.0,10.0,22.0,0.0,161.01254841600166,,,,,,,,,,,,,,,,,161.00390504100142,162.20056708300035,162.99535962500158,162.98425687499912,,,,,,,,,,,,,,,,,,,,,,,,,,,,,,,,,,,162.98812741599977,162.99535962500158,162.99535962500158,164.1955764580016,r,1.0,1.1893684999995455,,,,sub-183,1.0,stroop_test,,
,,,,23.0,11.0,1.0,,,,,,,,,,,,,rot,red,r,1.0,r,1.0,0.6079170830016665,,,,,,,,,,1.0,11.0,23.0,1.0,164.2016697500003,,,,,,,,,,,,,,,,,164.19602583300002,164.54063733300063,165.3320918749996,165.3239321660003,,,,,,,,,,,,,,,,,,,,,,,,,,,,,,,,,,,165.32452341599856,165.3320918749996,165.3320918749996,165.9422662500001,r,1.0,0.6079170830016665,,,,sub-183,1.0,stroop_test,,
,,,,24.0,0.0,2.0,,,,,,,,,,,,,blau,blue,b,1.0,b,1.0,0.5190347919997294,,,,,,,,,,2.0,0.0,24.0,6.0,165.95223674999943,,,,,,,,,,,,,,,,,165.94294729100147,166.29061470799934,167.09537966599964,167.08433220799998,,,,,,,,,,,,,,,,,,,,,,,,,,,,,,,,,,,167.0883651660006,167.09537966599964,167.09537966599964,167.61875220799993,b,1.0,0.5190347919997294,,,,sub-183,1.0,stroop_test,,
,,,,25.0,1.0,2.0,,,,,,,,,,,,,blau,yellow,g,0.0,g,1.0,0.9637325829971816,,,,,,,,,,2.0,1.0,25.0,7.0,167.6264886659992,,,,,,,,,,,,,,,,,167.61924654099855,168.81666024999868,169.60865404099968,169.60116670799837,,,,,,,,,,,,,,,,,,,,,,,,,,,,,,,,,,,169.60175154099852,169.60865404099968,169.60865404099968,170.57496779099893,g,1.0,0.9637325829971816,,,,sub-183,1.0,stroop_test,,
,,,,26.0,2.0,2.0,,,,,,,,,,,,,gelb,red,r,0.0,r,1.0,0.8704698750007083,,,,,,,,,,2.0,2.0,26.0,8.0,170.60009104100027,,,,,,,,,,,,,,,,,170.57550091599842,171.37346937500115,172.1688997909987,172.1573450830001,,,,,,,,,,,,,,,,,,,,,,,,,,,,,,,,,,,172.1610522910014,172.1688997909987,172.1688997909987,173.04198612500113,r,1.0,0.8704698750007083,,,,sub-183,1.0,stroop_test,,
,,,,27.0,3.0,2.0,,,,,,,,,,,,,gelb,yellow,g,1.0,g,1.0,0.7728912080019654,,,,,,,,,,2.0,3.0,27.0,11.0,173.05261204099952,,,,,,,,,,,,,,,,,173.04254504100027,173.39048445799926,174.19131225000092,174.18428887499977,,,,,,,,,,,,,,,,,,,,,,,,,,,,,,,,,,,174.184899666001,174.19131225000092,174.19131225000092,174.96910354099964,g,1.0,0.7728912080019654,,,,sub-183,1.0,stroop_test,,
,,,,28.0,4.0,2.0,,,,,,,,,,,,,rot,red,r,1.0,r,1.0,0.8942188750006608,,,,,,,,,,2.0,4.0,28.0,1.0,174.97934404099942,,,,,,,,,,,,,,,,,174.96979491599996,175.31705495799906,176.1133185409999,176.1010309580015,,,,,,,,,,,,,,,,,,,,,,,,,,,,,,,,,,,176.106066458,176.1133185409999,176.1133185409999,177.01891041600177,r,1.0,0.8942188750006608,,,,sub-183,1.0,stroop_test,,
,,,,29.0,5.0,2.0,,,,,,,,,,,,,rot,yellow,g,0.0,g,1.0,0.8244236669997917,,,,,,,,,,2.0,5.0,29.0,3.0,177.02932433300157,,,,,,,,,,,,,,,,,177.01959508299842,178.2170915409988,179.00934004100054,179.00154533300156,,,,,,,,,,,,,,,,,,,,,,,,,,,,,,,,,,,179.00228570800027,179.00934004100054,179.00934004100054,179.83578066599875,g,1.0,0.8244236669997917,,,,sub-183,1.0,stroop_test,,
,,,,30.0,6.0,2.0,,,,,,,,,,,,,rot,blue,b,0.0,r,0.0,0.6493712079973193,,,,,,,,,,2.0,6.0,30.0,2.0,179.8440636660016,,,,,,,,,,,,,,,,,179.83644991600158,180.1836064999989,180.9751475410012,180.96781991600076,,,,,,,,,,,,,,,,,,,,,,,,,,,,,,,,,,,180.96845720800047,180.9751475410012,180.9751475410012,181.6351090409989,r,0.0,0.6493712079973193,,,,sub-183,1.0,stroop_test,,
,,,,31.0,7.0,2.0,,,,,,,,,,,,,blau,red,r,0.0,r,1.0,1.0344974160034326,,,,,,,,,,2.0,7.0,31.0,4.0,181.64020254099887,,,,,,,,,,,,,,,,,181.63552704099857,181.98376712499885,182.7794830829989,182.7678280830005,,,,,,,,,,,,,,,,,,,,,,,,,,,,,,,,,,,182.77257079099945,182.7794830829989,182.7794830829989,183.8187319579993,r,1.0,1.0344974160034326,,,,sub-183,1.0,stroop_test,,
,,,,32.0,8.0,2.0,,,,,,,,,,,,,gelb,yellow,g,1.0,g,1.0,0.5715756669997063,,,,,,,,,,2.0,8.0,32.0,10.0,183.8295837500009,,,,,,,,,,,,,,,,,183.81935112499923,184.16699824999887,184.96311870800128,184.951177125,,,,,,,,,,,,,,,,,,,,,,,,,,,,,,,,,,,184.9559485409991,184.96311870800128,184.96311870800128,185.5459357079999,g,1.0,0.5715756669997063,,,,sub-183,1.0,stroop_test,,
,,,,33.0,9.0,2.0,,,,,,,,,,,,,rot,red,r,1.0,r,1.0,0.7070394580005086,,,,,,,,,,2.0,9.0,33.0,0.0,185.5515964160004,,,,,,,,,,,,,,,,,185.5464412500005,185.8901542909989,186.68484183300097,186.6736458330015,,,,,,,,,,,,,,,,,,,,,,,,,,,,,,,,,,,186.67722633299852,186.68484183300097,186.68484183300097,187.40211933300088,r,1.0,0.7070394580005086,,,,sub-183,1.0,stroop_test,,
,,,,34.0,10.0,2.0,,,,,,,,,,,,,gelb,blue,b,0.0,b,1.0,0.7985822919981729,,,,,,,,,,2.0,10.0,34.0,9.0,187.41227208300188,,,,,,,,,,,,,,,,,187.40278775000115,187.50038791599945,188.29625891600156,188.2844186660004,,,,,,,,,,,,,,,,,,,,,,,,,,,,,,,,,,,188.28922633299956,188.29625891600156,188.29625891600156,189.1013746659992,b,1.0,0.7985822919981729,,,,sub-183,1.0,stroop_test,,
,,,,35.0,11.0,2.0,,,,,,,,,,,,,blau,blue,b,1.0,b,1.0,0.5136642920006125,,,,,,,,,,2.0,11.0,35.0,5.0,189.11191624999992,,,,,,,,,,,,,,,,,189.1020597909992,189.2003684580013,189.99543424999865,189.9843562499991,,,,,,,,,,,,,,,,,,,,,,,,,,,,,,,,,,,189.9882712079998,189.99543424999865,189.99543424999865,190.51886862500032,b,1.0,0.5136642920006125,,,,sub-183,1.0,stroop_test,,
,,,,36.0,0.0,3.0,,,,,,,,,,,,,gelb,yellow,g,1.0,g,1.0,0.6084441250022792,,,,,,,,,,3.0,0.0,36.0,10.0,190.52969033300175,,,,,,,,,,,,,,,,,190.51954383300108,190.86708379099943,191.6630234160002,191.6514477080018,,,,,,,,,,,,,,,,,,,,,,,,,,,,,,,,,,,191.65605774999855,191.6630234160002,191.6630234160002,192.2751527500004,g,1.0,0.6084441250022792,,,,sub-183,1.0,stroop_test,,
,,,,37.0,1.0,3.0,,,,,,,,,,,,,blau,blue,b,1.0,b,1.0,0.7606076249976468,,,,,,,,,,3.0,1.0,37.0,5.0,192.2856150000007,,,,,,,,,,,,,,,,,192.275691750001,192.6230160410014,193.4187334999988,193.40670979100105,,,,,,,,,,,,,,,,,,,,,,,,,,,,,,,,,,,193.41143583300072,193.4187334999988,193.4187334999988,194.18577829100104,b,1.0,0.7606076249976468,,,,sub-183,1.0,stroop_test,,
,,,,38.0,2.0,3.0,,,,,,,,,,,,,gelb,yellow,g,1.0,g,1.0,0.8255324170022504,,,,,,,,,,3.0,2.0,38.0,11.0,194.1965088750003,,,,,,,,,,,,,,,,,194.1864818329996,194.2836360830006,195.07917441600148,195.0676736249989,,,,,,,,,,,,,,,,,,,,,,,,,,,,,,,,,,,195.07223854100084,195.07917441600148,195.07917441600148,195.9082771249996,g,1.0,0.8255324170022504,,,,sub-183,1.0,stroop_test,,
,,,,39.0,3.0,3.0,,,,,,,,,,,,,rot,red,r,1.0,r,1.0,1.424303374998999,,,,,,,,,,3.0,3.0,39.0,0.0,195.9190313750005,,,,,,,,,,,,,,,,,195.90884474999984,196.00612833299965,196.80221358299968,196.7905105409991,,,,,,,,,,,,,,,,,,,,,,,,,,,,,,,,,,,196.79443645799984,196.80221358299968,196.80221358299968,198.23564366600112,r,1.0,1.424303374998999,,,,sub-183,1.0,stroop_test,,
,,,,40.0,4.0,3.0,,,,,,,,,,,,,rot,yellow,g,0.0,g,1.0,0.7954634580019047,,,,,,,,,,3.0,4.0,40.0,3.0,198.2465662909999,,,,,,,,,,,,,,,,,198.2362943750013,198.33364712500045,199.12586270799875,199.11795100000015,,,,,,,,,,,,,,,,,,,,,,,,,,,,,,,,,,,199.1187952500004,199.12586270799875,199.12586270799875,199.9247905830016,g,1.0,0.7954634580019047,,,,sub-183,1.0,stroop_test,,
,,,,41.0,5.0,3.0,,,,,,,,,,,,,blau,red,r,0.0,r,1.0,1.2083107079997717,,,,,,,,,,3.0,5.0,41.0,4.0,199.93562495800143,,,,,,,,,,,,,,,,,199.9253694159997,200.022907999999,200.8184562909992,200.80694800000128,,,,,,,,,,,,,,,,,,,,,,,,,,,,,,,,,,,200.81072570800097,200.8184562909992,200.8184562909992,202.0355664579984,r,1.0,1.2083107079997717,,,,sub-183,1.0,stroop_test,,
,,,,42.0,6.0,3.0,,,,,,,,,,,,,blau,blue,b,1.0,b,1.0,0.963021250001475,,,,,,,,,,3.0,6.0,42.0,6.0,202.0462899999984,,,,,,,,,,,,,,,,,202.03618508300133,203.2338247910011,204.0249177910009,204.01746937500135,,,,,,,,,,,,,,,,,,,,,,,,,,,,,,,,,,,204.0180487079997,204.0249177910009,204.0249177910009,204.99127600000065,b,1.0,0.963021250001475,,,,sub-183,1.0,stroop_test,,
,,,,43.0,7.0,3.0,,,,,,,,,,,,,gelb,blue,b,0.0,b,1.0,0.8365107499994338,,,,,,,,,,3.0,7.0,43.0,9.0,205.00189095799945,,,,,,,,,,,,,,,,,204.9918139580004,206.19058008299908,206.9848873750016,206.97369808299845,,,,,,,,,,,,,,,,,,,,,,,,,,,,,,,,,,,206.9774870830006,206.9848873750016,206.9848873750016,207.8248087079992,b,1.0,0.8365107499994338,,,,sub-183,1.0,stroop_test,,
,,,,44.0,8.0,3.0,,,,,,,,,,,,,rot,red,r,1.0,r,1.0,0.5890353329996287,,,,,,,,,,3.0,8.0,44.0,1.0,207.83585229099845,,,,,,,,,,,,,,,,,207.8253755410005,208.17328870799972,208.96868950000132,208.9568897499994,,,,,,,,,,,,,,,,,,,,,,,,,,,,,,,,,,,208.96057825000025,208.96868950000132,208.96868950000132,209.56905979099972,r,1.0,0.5890353329996287,,,,sub-183,1.0,stroop_test,,
,,,,45.0,9.0,3.0,,,,,,,,,,,,,blau,yellow,g,0.0,g,1.0,0.9200711669982412,,,,,,,,,,3.0,9.0,45.0,7.0,209.5772208749986,,,,,,,,,,,,,,,,,209.56973033300164,210.7672964580015,211.56433266599925,211.55111658299936,,,,,,,,,,,,,,,,,,,,,,,,,,,,,,,,,,,211.5572066659988,211.56433266599925,211.56433266599925,212.49714191599924,g,1.0,0.9200711669982412,,,,sub-183,1.0,stroop_test,,
,,,,46.0,10.0,3.0,,,,,,,,,,,,,gelb,red,r,0.0,r,1.0,0.938221667001926,,,,,,,,,,3.0,10.0,46.0,8.0,212.50160733300072,,,,,,,,,,,,,,,,,212.497558957999,213.28963791600108,214.08516841600067,214.0736372499996,,,,,,,,,,,,,,,,,,,,,,,,,,,,,,,,,,,214.07737070800067,214.08516841600067,214.08516841600067,215.0255028329993,r,1.0,0.938221667001926,,,,sub-183,1.0,stroop_test,,
,,,,47.0,11.0,3.0,,,,,,,,,,,,,rot,blue,b,0.0,b,1.0,0.71939091600143,,,,,,,,,,3.0,11.0,47.0,2.0,215.03578808300156,,,,,,,,,,,,,,,,,215.0261784159993,216.22420399999828,217.02887279100105,217.01759866599969,,,,,,,,,,,,,,,,,,,,,,,,,,,,,,,,,,,217.02151912499903,217.02887279100105,217.02887279100105,217.7529161249986,b,1.0,0.71939091600143,,,,sub-183,1.0,stroop_test,,
,,,,48.0,0.0,4.0,,,,,,,,,,,,,blau,red,r,0.0,r,1.0,1.020993375001126,,,,,,,,,,4.0,0.0,48.0,4.0,217.7633792500019,,,,,,,,,,,,,,,,,217.7538250830003,218.95025166599956,219.74627624999997,219.73468762500124,,,,,,,,,,,,,,,,,,,,,,,,,,,,,,,,,,,219.7392161659991,219.74627624999997,219.74627624999997,220.7696104159986,r,1.0,1.020993375001126,,,,sub-183,1.0,stroop_test,,
,,,,49.0,1.0,4.0,,,,,,,,,,,,,rot,blue,b,0.0,b,1.0,0.9388786669987894,,,,,,,,,,4.0,1.0,49.0,2.0,220.77981250000084,,,,,,,,,,,,,,,,,220.7704098329996,220.8669129580012,221.66277145799904,221.65105475000016,,,,,,,,,,,,,,,,,,,,,,,,,,,,,,,,,,,221.6553993330017,221.66277145799904,221.66277145799904,222.6125920410013,b,1.0,0.9388786669987894,,,,sub-183,1.0,stroop_test,,
,,,,50.0,2.0,4.0,,,,,,,,,,,,,blau,blue,b,1.0,b,1.0,0.6199608330025512,,,,,,,,,,4.0,2.0,50.0,6.0,222.61817858300128,,,,,,,,,,,,,,,,,222.6130578330012,222.95637141599943,223.75172575000036,223.7402109579998,,,,,,,,,,,,,,,,,,,,,,,,,,,,,,,,,,,223.74396691600123,223.75172575000036,223.75172575000036,224.3743331250007,b,1.0,0.6199608330025512,,,,sub-183,1.0,stroop_test,,
,,,,51.0,3.0,4.0,,,,,,,,,,,,,gelb,yellow,g,1.0,g,1.0,0.6745602499977394,,,,,,,,,,4.0,3.0,51.0,10.0,224.38519504099892,,,,,,,,,,,,,,,,,224.37487933300145,224.72314658300093,225.53329170800131,225.50619583300067,,,,,,,,,,,,,,,,,,,,,,,,,,,,,,,,,,,225.5099192909984,225.53329170800131,225.53329170800131,226.21850354100025,g,1.0,0.6745602499977394,,,,sub-183,1.0,stroop_test,,
,,,,52.0,4.0,4.0,,,,,,,,,,,,,rot,yellow,g,0.0,g,1.0,0.6363681660004659,,,,,,,,,,4.0,4.0,52.0,3.0,226.2238252499992,,,,,,,,,,,,,,,,,226.21897841600003,226.31705808300103,227.11437654100155,227.1011631250003,,,,,,,,,,,,,,,,,,,,,,,,,,,,,,,,,,,227.1071856660019,227.11437654100155,227.11437654100155,227.75345716599983,g,1.0,0.6363681660004659,,,,sub-183,1.0,stroop_test,,
,,,,53.0,5.0,4.0,,,,,,,,,,,,,rot,red,r,1.0,r,1.0,0.5355333329971472,,,,,,,,,,4.0,5.0,53.0,0.0,227.7637269580009,,,,,,,,,,,,,,,,,227.7542234579996,227.85028866599896,228.64141783300147,228.634254083001,,,,,,,,,,,,,,,,,,,,,,,,,,,,,,,,,,,228.63485258299988,228.64141783300147,228.64141783300147,229.1856280409993,r,1.0,0.5355333329971472,,,,sub-183,1.0,stroop_test,,
,,,,54.0,6.0,4.0,,,,,,,,,,,,,gelb,yellow,g,1.0,g,1.0,0.6463112499986892,,,,,,,,,,4.0,6.0,54.0,11.0,229.19557158300088,,,,,,,,,,,,,,,,,229.18627512500095,229.5336055830012,230.3285619999988,230.3176234579987,,,,,,,,,,,,,,,,,,,,,,,,,,,,,,,,,,,230.32167591599864,230.3285619999988,230.3285619999988,231.00188154100036,g,1.0,0.6463112499986892,,,,sub-183,1.0,stroop_test,,
,,,,55.0,7.0,4.0,,,,,,,,,,,,,blau,blue,b,1.0,b,1.0,0.9055414169997676,,,,,,,,,,4.0,7.0,55.0,5.0,231.0170697909998,,,,,,,,,,,,,,,,,231.00258483300055,231.80027670799973,232.59549929100103,232.5843402499995,,,,,,,,,,,,,,,,,,,,,,,,,,,,,,,,,,,232.58858233299907,232.59549929100103,232.59549929100103,233.503872958001,b,1.0,0.9055414169997676,,,,sub-183,1.0,stroop_test,,
,,,,56.0,8.0,4.0,,,,,,,,,,,,,blau,yellow,g,0.0,g,1.0,0.6990560840022226,,,,,,,,,,4.0,8.0,56.0,7.0,233.51319745799992,,,,,,,,,,,,,,,,,233.5045681660013,233.8503107500001,234.6422966659993,234.63441112500004,,,,,,,,,,,,,,,,,,,,,,,,,,,,,,,,,,,234.63517533300185,234.6422966659993,234.6422966659993,235.35221670800087,g,1.0,0.6990560840022226,,,,sub-183,1.0,stroop_test,,
,,,,57.0,9.0,4.0,,,,,,,,,,,,,gelb,blue,b,0.0,b,1.0,0.843721999997797,,,,,,,,,,4.0,9.0,57.0,9.0,235.3604271660006,,,,,,,,,,,,,,,,,235.35281808299987,236.15044308299912,236.9463437080012,236.93448883300152,,,,,,,,,,,,,,,,,,,,,,,,,,,,,,,,,,,236.9392349580012,236.9463437080012,236.9463437080012,237.81769350000104,b,1.0,0.843721999997797,,,,sub-183,1.0,stroop_test,,
,,,,58.0,10.0,4.0,,,,,,,,,,,,,gelb,red,r,0.0,r,1.0,0.6019407500025409,,,,,,,,,,4.0,10.0,58.0,8.0,237.83368424999932,,,,,,,,,,,,,,,,,237.81819070799972,239.00633095800004,239.79894958300065,239.7898233749984,,,,,,,,,,,,,,,,,,,,,,,,,,,,,,,,,,,239.79038574999868,239.79894958300065,239.79894958300065,240.41298000000097,r,1.0,0.6019407500025409,,,,sub-183,1.0,stroop_test,,
,,,,59.0,11.0,4.0,,,,,,,,,,,,,rot,red,r,1.0,r,1.0,0.5556324169992877,,,,,,,,,,4.0,11.0,59.0,1.0,240.41849708299924,,,,,,,,,,,,,,,,,240.4134261250001,241.20731245799837,242.01284574999957,242.00110050000148,,,,,,,,,,,,,,,,,,,,,,,,,,,,,,,,,,,242.00515712500052,242.01284574999957,242.01284574999957,242.5746501249996,r,1.0,0.5556324169992877,,,,sub-183,1.0,stroop_test,,
,,,,60.0,0.0,5.0,,,,,,,,,,,,,gelb,blue,b,0.0,b,1.0,0.7822157079972385,,,,,,,,,,5.0,0.0,60.0,9.0,242.58546866599863,,,,,,,,,,,,,,,,,242.5752330409996,242.9226189580004,243.71851079100088,243.70696099999984,,,,,,,,,,,,,,,,,,,,,,,,,,,,,,,,,,,243.7107208749985,243.71851079100088,243.71851079100088,244.50308579099877,b,1.0,0.7822157079972385,,,,sub-183,1.0,stroop_test,,
,,,,61.0,1.0,5.0,,,,,,,,,,,,,rot,red,r,1.0,r,1.0,0.6087614169991866,,,,,,,,,,5.0,1.0,61.0,0.0,244.51440183299928,,,,,,,,,,,,,,,,,244.5038953330004,245.3002583330017,246.09801933299968,246.08449824999843,,,,,,,,,,,,,,,,,,,,,,,,,,,,,,,,,,,246.09073729100052,246.09801933299968,246.09801933299968,246.71665745800053,r,1.0,0.6087614169991866,,,,sub-183,1.0,stroop_test,,
,,,,62.0,2.0,5.0,,,,,,,,,,,,,blau,blue,b,1.0,b,1.0,0.5826851249985339,,,,,,,,,,5.0,2.0,62.0,6.0,246.72140570800184,,,,,,,,,,,,,,,,,246.71700733300167,247.0568062079983,247.85199400000056,247.8403255830017,,,,,,,,,,,,,,,,,,,,,,,,,,,,,,,,,,,247.8439808330004,247.85199400000056,247.85199400000056,248.44545554100117,b,1.0,0.5826851249985339,,,,sub-183,1.0,stroop_test,,
,,,,63.0,3.0,5.0,,,,,,,,,,,,,gelb,red,r,0.0,r,1.0,0.9118851250023,,,,,,,,,,5.0,3.0,63.0,8.0,248.45211183300125,,,,,,,,,,,,,,,,,248.44596841599923,249.64028366600175,250.44535762500163,250.4342830409987,,,,,,,,,,,,,,,,,,,,,,,,,,,,,,,,,,,250.43820425000013,250.44535762500163,250.44535762500163,251.36799295799935,r,1.0,0.9118851250023,,,,sub-183,1.0,stroop_test,,
,,,,64.0,4.0,5.0,,,,,,,,,,,,,blau,yellow,g,0.0,g,1.0,0.9831310000008672,,,,,,,,,,5.0,4.0,64.0,7.0,251.3734856660012,,,,,,,,,,,,,,,,,251.3685077910013,251.4669921249988,252.26196116600116,252.25093308299984,,,,,,,,,,,,,,,,,,,,,,,,,,,,,,,,,,,252.25483979099957,252.26196116600116,252.26196116600116,253.25215204100093,g,1.0,0.9831310000008672,,,,sub-183,1.0,stroop_test,,
,,,,65.0,5.0,5.0,,,,,,,,,,,,,gelb,yellow,g,1.0,g,1.0,0.446948707998672,,,,,,,,,,5.0,5.0,65.0,11.0,253.26184066600035,,,,,,,,,,,,,,,,,253.25272770800075,254.4503084999997,255.2453907909985,255.23439566600064,,,,,,,,,,,,,,,,,,,,,,,,,,,,,,,,,,,255.2383947080016,255.2453907909985,255.2453907909985,255.7023560000016,g,1.0,0.446948707998672,,,,sub-183,1.0,stroop_test,,
,,,,66.0,6.0,5.0,,,,,,,,,,,,,rot,blue,b,0.0,r,0.0,0.7379883749999863,,,,,,,,,,5.0,6.0,66.0,2.0,255.7125338750011,,,,,,,,,,,,,,,,,255.70295220800108,255.80031066599983,256.5959933330014,256.5843610410011,,,,,,,,,,,,,,,,,,,,,,,,,,,,,,,,,,,256.5885008330006,256.5959933330014,256.5959933330014,257.3364434159994,r,0.0,0.7379883749999863,,,,sub-183,1.0,stroop_test,,
,,,,67.0,7.0,5.0,,,,,,,,,,,,,rot,red,r,1.0,r,1.0,0.8916256249976868,,,,,,,,,,5.0,7.0,67.0,1.0,257.3466958749996,,,,,,,,,,,,,,,,,257.33713587500097,257.4337148750019,258.22548212499896,258.2177272080007,,,,,,,,,,,,,,,,,,,,,,,,,,,,,,,,,,,258.2184909159987,258.22548212499896,258.22548212499896,259.119430540999,r,1.0,0.8916256249976868,,,,sub-183,1.0,stroop_test,,
,,,,68.0,8.0,5.0,,,,,,,,,,,,,blau,red,r,0.0,r,1.0,1.8295640840005944,,,,,,,,,,5.0,8.0,68.0,4.0,259.12982754100085,,,,,,,,,,,,,,,,,259.1201368330003,260.31684833300096,261.1120006249985,261.10096587500084,,,,,,,,,,,,,,,,,,,,,,,,,,,,,,,,,,,261.1048842080017,261.1120006249985,261.1120006249985,262.9521891250006,r,1.0,1.8295640840005944,,,,sub-183,1.0,stroop_test,,
,,,,69.0,9.0,5.0,,,,,,,,,,,,,rot,yellow,g,0.0,g,1.0,0.9415714160022616,,,,,,,,,,5.0,9.0,69.0,3.0,262.9622524160004,,,,,,,,,,,,,,,,,262.95276883300176,263.7502171660017,264.5486184580004,264.53432045799855,,,,,,,,,,,,,,,,,,,,,,,,,,,,,,,,,,,264.5416242079991,264.5486184580004,264.5486184580004,265.5012557910013,g,1.0,0.9415714160022616,,,,sub-183,1.0,stroop_test,,
,,,,70.0,10.0,5.0,,,,,,,,,,,,,blau,blue,b,1.0,b,1.0,0.9437970830003906,,,,,,,,,,5.0,10.0,70.0,5.0,265.5068662080012,,,,,,,,,,,,,,,,,265.50172725000084,265.6003332500004,266.3958633330003,266.38432337500126,,,,,,,,,,,,,,,,,,,,,,,,,,,,,,,,,,,266.38890000000174,266.3958633330003,266.3958633330003,267.3419532910011,b,1.0,0.9437970830003906,,,,sub-183,1.0,stroop_test,,
,,,,71.0,11.0,5.0,,,,,,,,,,,,,gelb,yellow,g,1.0,g,1.0,0.6100186250005208,,,,,,,,,,5.0,11.0,71.0,10.0,267.3523380000006,,,,,,,,,,,,,,,,,267.34261383299963,268.1390082910002,268.949995125,268.9231261249988,,,,,,,,,,,,,,,,,,,,,,,,,,,,,,,,,,,268.92677724999885,268.949995125,268.949995125,269.5688074999998,g,1.0,0.6100186250005208,,,,sub-183,1.0,stroop_test,,
,,,,72.0,0.0,6.0,,,,,,,,,,,,,rot,yellow,g,0.0,g,1.0,0.9657767089993284,,,,,,,,,,6.0,0.0,72.0,3.0,269.5793425830016,,,,,,,,,,,,,,,,,269.5693986660008,269.66707812499953,270.4635102909997,270.45123766599863,,,,,,,,,,,,,,,,,,,,,,,,,,,,,,,,,,,270.4558662080017,270.4635102909997,270.4635102909997,271.4354610830014,g,1.0,0.9657767089993284,,,,sub-183,1.0,stroop_test,,
,,,,73.0,1.0,6.0,,,,,,,,,,,,,blau,red,r,0.0,r,1.0,1.2974317080006583,,,,,,,,,,6.0,1.0,73.0,4.0,271.44604708300176,,,,,,,,,,,,,,,,,271.4360710410001,272.6335037079989,273.4287316250011,273.41769904100147,,,,,,,,,,,,,,,,,,,,,,,,,,,,,,,,,,,273.42162958300105,273.4287316250011,273.4287316250011,274.7355915830012,r,1.0,1.2974317080006583,,,,sub-183,1.0,stroop_test,,
,,,,74.0,2.0,6.0,,,,,,,,,,,,,rot,blue,b,0.0,b,1.0,0.8833157499975641,,,,,,,,,,6.0,2.0,74.0,2.0,274.7460286659989,,,,,,,,,,,,,,,,,274.73623004099863,275.9335453329986,276.7291960830007,276.71763137499875,,,,,,,,,,,,,,,,,,,,,,,,,,,,,,,,,,,276.7218875409999,276.7291960830007,276.7291960830007,277.6189207079988,b,1.0,0.8833157499975641,,,,sub-183,1.0,stroop_test,,
,,,,75.0,3.0,6.0,,,,,,,,,,,,,gelb,red,r,0.0,r,1.0,1.098442292000982,,,,,,,,,,6.0,3.0,75.0,8.0,277.6293680410017,,,,,,,,,,,,,,,,,277.6195415410002,278.8168960830008,279.6121107079998,279.6009664999983,,,,,,,,,,,,,,,,,,,,,,,,,,,,,,,,,,,279.6051353750008,279.6121107079998,279.6121107079998,280.71874350000144,r,1.0,1.098442292000982,,,,sub-183,1.0,stroop_test,,
,,,,76.0,4.0,6.0,,,,,,,,,,,,,rot,red,r,1.0,r,1.0,0.5868054579987074,,,,,,,,,,6.0,4.0,76.0,0.0,280.7290937079997,,,,,,,,,,,,,,,,,280.71933491600066,281.0671705829991,281.864191916,281.8510478749995,,,,,,,,,,,,,,,,,,,,,,,,,,,,,,,,,,,281.8569967910007,281.864191916,281.864191916,282.4640508750017,r,1.0,0.5868054579987074,,,,sub-183,1.0,stroop_test,,
,,,,77.0,5.0,6.0,,,,,,,,,,,,,gelb,blue,b,0.0,b,1.0,0.8019719169969903,,,,,,,,,,6.0,5.0,77.0,9.0,282.4681928329992,,,,,,,,,,,,,,,,,282.4644514579996,282.5557118329998,283.3520330829997,283.3405086249986,,,,,,,,,,,,,,,,,,,,,,,,,,,,,,,,,,,283.34421700000166,283.3520330829997,283.3520330829997,284.1576995409996,b,1.0,0.8019719169969903,,,,sub-183,1.0,stroop_test,,
,,,,78.0,6.0,6.0,,,,,,,,,,,,,blau,blue,b,1.0,b,1.0,0.6282690420011932,,,,,,,,,,6.0,6.0,78.0,5.0,284.1683273749986,,,,,,,,,,,,,,,,,284.1582745000014,284.5064878330013,285.31677362499977,285.2896047079994,,,,,,,,,,,,,,,,,,,,,,,,,,,,,,,,,,,285.29326158299955,285.31677362499977,285.31677362499977,285.95193329099857,b,1.0,0.6282690420011932,,,,sub-183,1.0,stroop_test,,
,,,,79.0,7.0,6.0,,,,,,,,,,,,,blau,blue,b,1.0,b,1.0,0.5609594169982302,,,,,,,,,,6.0,7.0,79.0,6.0,285.96229370799847,,,,,,,,,,,,,,,,,285.9525567080018,286.75017158300034,287.54151137499866,287.5342622499993,,,,,,,,,,,,,,,,,,,,,,,,,,,,,,,,,,,287.5348619159995,287.54151137499866,287.54151137499866,288.1092496659985,b,1.0,0.5609594169982302,,,,sub-183,1.0,stroop_test,,
,,,,80.0,8.0,6.0,,,,,,,,,,,,,rot,red,r,1.0,r,1.0,0.730545375001384,,,,,,,,,,6.0,8.0,80.0,1.0,288.11949291600104,,,,,,,,,,,,,,,,,288.10978554100075,288.4562560410013,289.26666433300124,289.2396957080018,,,,,,,,,,,,,,,,,,,,,,,,,,,,,,,,,,,289.24326720799945,289.26666433300124,289.26666433300124,290.0022452910016,r,1.0,0.730545375001384,,,,sub-183,1.0,stroop_test,,
,,,,81.0,9.0,6.0,,,,,,,,,,,,,blau,yellow,g,0.0,g,1.0,2.2711358329979703,,,,,,,,,,6.0,9.0,81.0,7.0,290.0127133329988,,,,,,,,,,,,,,,,,290.00288616599937,291.20021033300145,291.9956384159996,291.98449487499965,,,,,,,,,,,,,,,,,,,,,,,,,,,,,,,,,,,291.9884306249987,291.9956384159996,291.9956384159996,294.26867533300174,g,1.0,2.2711358329979703,,,,sub-183,1.0,stroop_test,,
,,,,82.0,10.0,6.0,,,,,,,,,,,,,gelb,yellow,g,1.0,g,1.0,0.6468589579999389,,,,,,,,,,6.0,10.0,82.0,10.0,294.2771455410002,,,,,,,,,,,,,,,,,294.2692685000002,294.61696529099936,295.41181083300035,295.4008691659983,,,,,,,,,,,,,,,,,,,,,,,,,,,,,,,,,,,295.4047910830013,295.41181083300035,295.41181083300035,296.0687644159989,g,1.0,0.6468589579999389,,,,sub-183,1.0,stroop_test,,
,,,,83.0,11.0,6.0,,,,,,,,,,,,,gelb,yellow,g,1.0,g,1.0,1.389510082997731,,,,,,,,,,6.0,11.0,83.0,11.0,296.078205916001,,,,,,,,,,,,,,,,,296.0693551660006,297.2668395410001,298.05821433299934,298.05082295800094,,,,,,,,,,,,,,,,,,,,,,,,,,,,,,,,,,,298.05142649999834,298.05821433299934,298.05821433299934,299.4520407909986,g,1.0,1.389510082997731,,,,sub-183,1.0,stroop_test,,
,,,,84.0,0.0,7.0,,,,,,,,,,,,,rot,yellow,g,0.0,g,1.0,2.029912375001004,,,,,,,,,,7.0,0.0,84.0,3.0,299.46197695799856,,,,,,,,,,,,,,,,,299.4526300409998,299.800249625001,300.59720520799965,300.5841703750011,,,,,,,,,,,,,,,,,,,,,,,,,,,,,,,,,,,300.5900090409996,300.59720520799965,300.59720520799965,302.63560312499976,g,1.0,2.029912375001004,,,,sub-183,1.0,stroop_test,,
,,,,85.0,1.0,7.0,,,,,,,,,,,,,gelb,yellow,g,1.0,g,1.0,0.4940477080017444,,,,,,,,,,7.0,1.0,85.0,11.0,302.6459762500017,,,,,,,,,,,,,,,,,302.63629308300006,302.7334638329994,303.5292594160019,303.51782187500066,,,,,,,,,,,,,,,,,,,,,,,,,,,,,,,,,,,303.52224108299924,303.5292594160019,303.5292594160019,304.0254892080011,g,1.0,0.4940477080017444,,,,sub-183,1.0,stroop_test,,
,,,,86.0,2.0,7.0,,,,,,,,,,,,,blau,yellow,g,0.0,g,1.0,0.4861437500003376,,,,,,,,,,7.0,2.0,86.0,7.0,304.03572695800176,,,,,,,,,,,,,,,,,304.0261282909996,305.2231756250003,306.01870812500056,306.006995415999,,,,,,,,,,,,,,,,,,,,,,,,,,,,,,,,,,,306.0108075829994,306.01870812500056,306.01870812500056,306.50804974999846,g,1.0,0.4861437500003376,,,,sub-183,1.0,stroop_test,,
,,,,87.0,3.0,7.0,,,,,,,,,,,,,rot,red,r,1.0,r,1.0,0.7247559999996156,,,,,,,,,,7.0,3.0,87.0,0.0,306.5184355829988,,,,,,,,,,,,,,,,,306.5086406660012,307.30627733299843,308.1106437080016,308.10120525000093,,,,,,,,,,,,,,,,,,,,,,,,,,,,,,,,,,,308.10464916600176,308.1106437080016,308.1106437080016,308.8414105830016,r,1.0,0.7247559999996156,,,,sub-183,1.0,stroop_test,,
,,,,88.0,4.0,7.0,,,,,,,,,,,,,blau,blue,b,1.0,b,1.0,0.8727182500006165,,,,,,,,,,7.0,4.0,88.0,5.0,308.86662183299995,,,,,,,,,,,,,,,,,308.8419282499999,308.9391997499988,309.74986637500115,309.7229197500019,,,,,,,,,,,,,,,,,,,,,,,,,,,,,,,,,,,309.72657929100023,309.74986637500115,309.74986637500115,310.6247113749996,b,1.0,0.8727182500006165,,,,sub-183,1.0,stroop_test,,
,,,,89.0,5.0,7.0,,,,,,,,,,,,,blau,blue,b,1.0,b,1.0,0.5861122499991325,,,,,,,,,,7.0,5.0,89.0,6.0,310.63222675,,,,,,,,,,,,,,,,,310.62527925000177,310.72285716600163,311.5156706250018,311.50644233300045,,,,,,,,,,,,,,,,,,,,,,,,,,,,,,,,,,,311.50699687499946,311.5156706250018,311.5156706250018,312.11202891599896,b,1.0,0.5861122499991325,,,,sub-183,1.0,stroop_test,,
,,,,90.0,6.0,7.0,,,,,,,,,,,,,gelb,blue,b,0.0,b,1.0,1.0373033750001923,,,,,,,,,,7.0,6.0,90.0,9.0,312.1182085830005,,,,,,,,,,,,,,,,,312.112507291,312.20574858300097,312.99998391600093,312.9894664579988,,,,,,,,,,,,,,,,,,,,,,,,,,,,,,,,,,,312.9931523749983,312.99998391600093,312.99998391600093,314.0410735410005,b,1.0,1.0373033750001923,,,,sub-183,1.0,stroop_test,,
,,,,91.0,7.0,7.0,,,,,,,,,,,,,blau,red,r,0.0,r,1.0,0.8018367089971434,,,,,,,,,,7.0,7.0,91.0,4.0,314.0665147910004,,,,,,,,,,,,,,,,,314.0416195830003,314.3897762910019,315.18510358300045,315.1735356249992,,,,,,,,,,,,,,,,,,,,,,,,,,,,,,,,,,,315.17742341600024,315.18510358300045,315.18510358300045,315.9921757500015,r,1.0,0.8018367089971434,,,,sub-183,1.0,stroop_test,,
,,,,92.0,8.0,7.0,,,,,,,,,,,,,gelb,yellow,g,1.0,g,1.0,0.7046781249991909,,,,,,,,,,7.0,8.0,92.0,10.0,316.0041052500019,,,,,,,,,,,,,,,,,315.9928540410001,316.3399381659983,317.1356222079994,317.1232098750006,,,,,,,,,,,,,,,,,,,,,,,,,,,,,,,,,,,317.12804770799994,317.1356222079994,317.1356222079994,317.85251100000096,g,1.0,0.7046781249991909,,,,sub-183,1.0,stroop_test,,
,,,,93.0,9.0,7.0,,,,,,,,,,,,,rot,red,r,1.0,r,1.0,0.7447230840007251,,,,,,,,,,7.0,9.0,93.0,1.0,317.86680287499985,,,,,,,,,,,,,,,,,317.8528673330002,318.2004187499988,318.99505625000165,318.9840567499996,,,,,,,,,,,,,,,,,,,,,,,,,,,,,,,,,,,318.987866083,318.99505625000165,318.99505625000165,319.7419889999983,r,1.0,0.7447230840007251,,,,sub-183,1.0,stroop_test,,
,,,,94.0,10.0,7.0,,,,,,,,,,,,,gelb,red,r,0.0,r,1.0,0.5355099160005921,,,,,,,,,,7.0,10.0,94.0,8.0,319.7520021249984,,,,,,,,,,,,,,,,,319.74258674999874,320.54013620800106,321.3451185410013,321.33424495800136,,,,,,,,,,,,,,,,,,,,,,,,,,,,,,,,,,,321.3381647499991,321.3451185410013,321.3451185410013,321.88537237499986,r,1.0,0.5355099160005921,,,,sub-183,1.0,stroop_test,,
,,,,95.0,11.0,7.0,,,,,,,,,,,,,rot,blue,b,0.0,b,1.0,0.7907290420007484,,,,,,,,,,7.0,11.0,95.0,2.0,321.8952329579988,,,,,,,,,,,,,,,,,321.8859486250003,321.9835053329989,322.77871129100095,322.76744479099943,,,,,,,,,,,,,,,,,,,,,,,,,,,,,,,,,,,322.7712543330017,322.77871129100095,322.77871129100095,323.5746219579996,b,1.0,0.7907290420007484,,,,sub-183,1.0,stroop_test,,
,,,,96.0,0.0,8.0,,,,,,,,,,,,,gelb,red,r,0.0,r,1.0,1.345427332998952,,,,,,,,,,8.0,0.0,96.0,8.0,323.58531375000166,,,,,,,,,,,,,,,,,323.5751622079988,323.6722637499988,324.4831447079996,324.4562456659987,,,,,,,,,,,,,,,,,,,,,,,,,,,,,,,,,,,324.4598977499991,324.4831447079996,324.4831447079996,325.83537437500127,r,1.0,1.345427332998952,,,,sub-183,1.0,stroop_test,,
,,,,97.0,1.0,8.0,,,,,,,,,,,,,rot,blue,b,0.0,b,1.0,1.8214510410034563,,,,,,,,,,8.0,1.0,97.0,2.0,325.8461551250002,,,,,,,,,,,,,,,,,325.83607079099966,326.18350825000016,326.9793179160006,326.96752504100004,,,,,,,,,,,,,,,,,,,,,,,,,,,,,,,,,,,326.9715473750002,326.9793179160006,326.9793179160006,328.8042279580004,b,1.0,1.8214510410034563,,,,sub-183,1.0,stroop_test,,
,,,,98.0,2.0,8.0,,,,,,,,,,,,,blau,blue,b,1.0,b,1.0,0.7060586670013436,,,,,,,,,,8.0,2.0,98.0,5.0,328.81509529100003,,,,,,,,,,,,,,,,,328.8050158750011,329.60020070799874,330.3948717079984,330.38410604100136,,,,,,,,,,,,,,,,,,,,,,,,,,,,,,,,,,,330.38795333300004,330.3948717079984,330.3948717079984,331.1150555409986,b,1.0,0.7060586670013436,,,,sub-183,1.0,stroop_test,,
,,,,99.0,3.0,8.0,,,,,,,,,,,,,blau,red,r,0.0,r,1.0,1.7188574169995263,,,,,,,,,,8.0,3.0,99.0,4.0,331.1200977080007,,,,,,,,,,,,,,,,,331.1155847500013,331.20568841600107,331.99876445799964,331.99018979099856,,,,,,,,,,,,,,,,,,,,,,,,,,,,,,,,,,,331.9907932499991,331.99876445799964,331.99876445799964,333.72957462499835,r,1.0,1.7188574169995263,,,,sub-183,1.0,stroop_test,,
,,,,100.0,4.0,8.0,,,,,,,,,,,,,gelb,blue,b,0.0,b,1.0,1.077511625000625,,,,,,,,,,8.0,4.0,100.0,9.0,333.7345763330013,,,,,,,,,,,,,,,,,333.730028375001,334.0734784580018,334.88081116600006,334.86759724999865,,,,,,,,,,,,,,,,,,,,,,,,,,,,,,,,,,,334.8738873330003,334.88081116600006,334.88081116600006,335.968576583,b,1.0,1.077511625000625,,,,sub-183,1.0,stroop_test,,
,,,,101.0,5.0,8.0,,,,,,,,,,,,,rot,yellow,g,0.0,g,1.0,1.5412268330001098,,,,,,,,,,8.0,5.0,101.0,3.0,335.9789453330013,,,,,,,,,,,,,,,,,335.96919020800124,337.1668871250004,337.9629848330005,337.95139183300125,,,,,,,,,,,,,,,,,,,,,,,,,,,,,,,,,,,337.95566020800106,337.9629848330005,337.9629848330005,339.5078442910017,g,1.0,1.5412268330001098,,,,sub-183,1.0,stroop_test,,
,,,,102.0,6.0,8.0,,,,,,,,,,,,,blau,blue,b,1.0,b,1.0,0.8400905419985065,,,,,,,,,,8.0,6.0,102.0,6.0,339.5188694159988,,,,,,,,,,,,,,,,,339.5084349159988,339.8564205830007,340.6516613749991,340.6400360830012,,,,,,,,,,,,,,,,,,,,,,,,,,,,,,,,,,,340.6436749579989,340.6516613749991,340.6516613749991,341.5019974999996,b,1.0,0.8400905419985065,,,,sub-183,1.0,stroop_test,,
,,,,103.0,7.0,8.0,,,,,,,,,,,,,gelb,yellow,g,1.0,g,1.0,0.7449305410009401,,,,,,,,,,8.0,7.0,103.0,11.0,341.51234637499874,,,,,,,,,,,,,,,,,341.5025703749998,342.3001993750004,343.0959307500016,343.0843754580019,,,,,,,,,,,,,,,,,,,,,,,,,,,,,,,,,,,343.0890122080018,343.0959307500016,343.0959307500016,343.8521112499984,g,1.0,0.7449305410009401,,,,sub-183,1.0,stroop_test,,
,,,,104.0,8.0,8.0,,,,,,,,,,,,,blau,yellow,g,0.0,g,1.0,0.5927226250023523,,,,,,,,,,8.0,8.0,104.0,7.0,343.862593165999,,,,,,,,,,,,,,,,,343.8527505409984,343.95015529100056,344.7457367499992,344.7341063749991,,,,,,,,,,,,,,,,,,,,,,,,,,,,,,,,,,,344.7386810409989,344.7457367499992,344.7457367499992,345.34129920800115,g,1.0,0.5927226250023523,,,,sub-183,1.0,stroop_test,,
,,,,105.0,9.0,8.0,,,,,,,,,,,,,rot,red,r,1.0,r,1.0,0.7158970420023252,,,,,,,,,,8.0,9.0,105.0,0.0,345.3516180830011,,,,,,,,,,,,,,,,,345.3418219999985,346.5399802079992,347.3353248329986,347.3232227910012,,,,,,,,,,,,,,,,,,,,,,,,,,,,,,,,,,,347.3270763750006,347.3353248329986,347.3353248329986,348.0624249579996,r,1.0,0.7158970420023252,,,,sub-183,1.0,stroop_test,,
,,,,106.0,10.0,8.0,,,,,,,,,,,,,rot,red,r,1.0,r,1.0,0.5362652910007455,,,,,,,,,,8.0,10.0,106.0,1.0,348.06822004100104,,,,,,,,,,,,,,,,,348.0628985410003,348.15569408300144,348.9485721659985,348.94014170800074,,,,,,,,,,,,,,,,,,,,,,,,,,,,,,,,,,,348.94071650000114,348.9485721659985,348.9485721659985,349.49636725000164,r,1.0,0.5362652910007455,,,,sub-183,1.0,stroop_test,,
,,,,107.0,11.0,8.0,,,,,,,,,,,,,gelb,yellow,g,1.0,g,1.0,0.5382652090011106,,,,,,,,,,8.0,11.0,107.0,10.0,349.5020373330008,,,,,,,,,,,,,,,,,349.49689629099885,350.29012883299947,351.0852373330017,351.0736751660006,,,,,,,,,,,,,,,,,,,,,,,,,,,,,,,,,,,351.0773945410001,351.0852373330017,351.0852373330017,351.6519414579998,g,1.0,0.5382652090011106,,,,sub-183,1.0,stroop_test,,
,,,,108.0,0.0,9.0,,,,,,,,,,,,,blau,blue,b,1.0,b,1.0,0.4219441669993102,,,,,,,,,,9.0,0.0,108.0,6.0,351.6667822909985,,,,,,,,,,,,,,,,,351.6526930830005,352.8502320410007,353.64753312500034,353.63447916600126,,,,,,,,,,,,,,,,,,,,,,,,,,,,,,,,,,,353.6406061660018,353.64753312500034,353.64753312500034,354.0747981249988,b,1.0,0.4219441669993102,,,,sub-183,1.0,stroop_test,,
,,,,109.0,1.0,9.0,,,,,,,,,,,,,rot,blue,b,0.0,b,1.0,0.5314280829989002,,,,,,,,,,9.0,1.0,109.0,2.0,354.0856739160008,,,,,,,,,,,,,,,,,354.0753612080007,354.87384595800177,355.6793804580011,355.6675503750012,,,,,,,,,,,,,,,,,,,,,,,,,,,,,,,,,,,355.6720479579999,355.6793804580011,355.6793804580011,356.2189313330018,b,1.0,0.5314280829989002,,,,sub-183,1.0,stroop_test,,
,,,,110.0,2.0,9.0,,,,,,,,,,,,,gelb,red,r,0.0,r,1.0,1.2860593749974214,,,,,,,,,,9.0,2.0,110.0,8.0,356.2301359580015,,,,,,,,,,,,,,,,,356.2195951249996,357.0171221249984,357.811798540999,357.8007129580001,,,,,,,,,,,,,,,,,,,,,,,,,,,,,,,,,,,357.8046670410004,357.811798540999,357.811798540999,359.10193541600165,r,1.0,1.2860593749974214,,,,sub-183,1.0,stroop_test,,
,,,,111.0,3.0,9.0,,,,,,,,,,,,,rot,red,r,1.0,r,1.0,0.9440442500017524,,,,,,,,,,9.0,3.0,111.0,1.0,359.1127832499988,,,,,,,,,,,,,,,,,359.1025535410008,360.3001545410007,361.09533137499966,361.0841273750011,,,,,,,,,,,,,,,,,,,,,,,,,,,,,,,,,,,361.08803366600114,361.09533137499966,361.09533137499966,362.0416565000014,r,1.0,0.9440442500017524,,,,sub-183,1.0,stroop_test,,
,,,,112.0,4.0,9.0,,,,,,,,,,,,,blau,blue,b,1.0,b,1.0,0.6656994170007238,,,,,,,,,,9.0,4.0,112.0,5.0,362.0525797910013,,,,,,,,,,,,,,,,,362.0423115830017,363.2400229160012,364.0352082499994,364.02353595800014,,,,,,,,,,,,,,,,,,,,,,,,,,,,,,,,,,,364.0271408330009,364.0352082499994,364.0352082499994,364.713461708001,b,1.0,0.6656994170007238,,,,sub-183,1.0,stroop_test,,
,,,,113.0,5.0,9.0,,,,,,,,,,,,,gelb,blue,b,0.0,b,1.0,0.8013895410003897,,,,,,,,,,9.0,5.0,113.0,9.0,364.7178612909993,,,,,,,,,,,,,,,,,364.71381745799954,365.5062982080017,366.3164832500006,366.290009458,,,,,,,,,,,,,,,,,,,,,,,,,,,,,,,,,,,366.29363899999953,366.3164832500006,366.3164832500006,367.1301186249984,b,1.0,0.8013895410003897,,,,sub-183,1.0,stroop_test,,
,,,,114.0,6.0,9.0,,,,,,,,,,,,,gelb,yellow,g,1.0,g,1.0,1.0773475420028262,,,,,,,,,,9.0,6.0,114.0,10.0,367.1357152909986,,,,,,,,,,,,,,,,,367.1306438749998,367.4738809160008,368.2736093749991,368.2672360409997,,,,,,,,,,,,,,,,,,,,,,,,,,,,,,,,,,,368.2677160409985,368.2736093749991,368.2736093749991,369.3627666249995,g,1.0,1.0773475420028262,,,,sub-183,1.0,stroop_test,,
,,,,115.0,7.0,9.0,,,,,,,,,,,,,blau,red,r,0.0,r,1.0,0.9414165829984996,,,,,,,,,,9.0,7.0,115.0,4.0,369.3684634999991,,,,,,,,,,,,,,,,,369.3632556250013,369.45550970800105,370.2664435000006,370.2394324580018,,,,,,,,,,,,,,,,,,,,,,,,,,,,,,,,,,,370.243090041,370.2664435000006,370.2664435000006,371.2187816250007,r,1.0,0.9414165829984996,,,,sub-183,1.0,stroop_test,,
,,,,116.0,8.0,9.0,,,,,,,,,,,,,blau,yellow,g,0.0,g,1.0,1.3429456669982756,,,,,,,,,,9.0,8.0,116.0,7.0,371.22931416600113,,,,,,,,,,,,,,,,,371.2194268329986,371.5667220409996,372.35844208300114,372.3508663329994,,,,,,,,,,,,,,,,,,,,,,,,,,,,,,,,,,,372.3516747909998,372.35844208300114,372.35844208300114,373.7132685409997,g,1.0,1.3429456669982756,,,,sub-183,1.0,stroop_test,,
,,,,117.0,9.0,9.0,,,,,,,,,,,,,rot,red,r,1.0,r,1.0,0.6991587090014946,,,,,,,,,,9.0,9.0,117.0,0.0,373.7186112499985,,,,,,,,,,,,,,,,,373.713779624999,373.8057016659986,374.6021621660002,374.5897850830006,,,,,,,,,,,,,,,,,,,,,,,,,,,,,,,,,,,374.5944329160011,374.6021621660002,374.6021621660002,375.3129824579992,r,1.0,0.6991587090014946,,,,sub-183,1.0,stroop_test,,
,,,,118.0,10.0,9.0,,,,,,,,,,,,,rot,yellow,g,0.0,g,1.0,1.0695614169999317,,,,,,,,,,9.0,10.0,118.0,3.0,375.3186405410015,,,,,,,,,,,,,,,,,375.313491375,375.40640662499936,376.2080186659987,376.2008534580018,,,,,,,,,,,,,,,,,,,,,,,,,,,,,,,,,,,376.2014859160008,376.2080186659987,376.2080186659987,377.2857152079996,g,1.0,1.0695614169999317,,,,sub-183,1.0,stroop_test,,
,,,,119.0,11.0,9.0,,,,,,,,,,,,,gelb,yellow,g,1.0,g,1.0,1.1140597910016368,,,,,,,,,,9.0,11.0,119.0,11.0,377.2963722079985,,,,,,,,,,,,,,,,,377.2863695000015,378.08369200000016,378.87867774999904,378.86755891600114,,,,,,,,,,,,,,,,,,,,,,,,,,,,,,,,,,,378.871479458001,378.87867774999904,378.87867774999904,380.0020875000009,g,1.0,1.1140597910016368,,,,sub-183,1.0,stroop_test,,
,,,,,,,,,,,,,,,,,,,,,,,,,,,,,,,,,,,,,,,,,,,,,,,,,,,,,,,,,,,,,,,,,,,,,,,,,,,,,,,,,,,,,,,,,,,,,,,,,,,,,,380.0024275830001,380.0153451250008,sub-183,,,,
