wordCTK,colorCTK,corrAnsCTK,congruentCTK,thisN,thisTrialN,thisRepN,keyResp_CTK.keys,keyResp_CTK.corr,keyResp_CTK.rt,keyResp_CTK.duration,wordPractice,colorPractice,corrAnsPractice,congruentPractice,respPractice.keys,respPractice.corr,respPractice.rt,respPractice.duration,word,color,corrAns,congruent,keyResp_test_run.keys,keyResp_test_run.corr,keyResp_test_run.rt,keyResp_test_run.duration,trials_CTK.thisRepN,trials_CTK.thisTrialN,trials_CTK.thisN,trials_CTK.thisIndex,trials_practice.thisRepN,trials_practice.thisTrialN,trials_practice.thisN,trials_practice.thisIndex,trials_test.thisRepN,trials_test.thisTrialN,trials_test.thisN,trials_test.thisIndex,thisRow.t,notes,instruction.started,instr_text.started,instr_image.started,instr_resp.started,instruction.stopped,instr_resp.keys,instr_resp.rt,instr_resp.duration,instr_color_to_key.started,instr_ctk.started,resp_ctk.started,instr_color_to_key.stopped,resp_ctk.keys,resp_ctk.rt,resp_ctk.duration,ITI.started,fixcross.started,fixcross.stopped,ITI.stopped,color_to_key_run.started,stimulus_CTK.started,keyResp_CTK.started,color_to_key_run.stopped,trials_CTK.keyResp_CTK.keys,trials_CTK.keyResp_CTK.corr,trials_CTK.keyResp_CTK.rt,trials_CTK.keyResp_CTK.duration,instr_practice.started,instr_practice_text.started,instr_practice_resp.started,instr_practice.stopped,instr_practice_resp.keys,instr_practice_resp.rt,instr_practice_resp.duration,practice_run.started,stimulus_practice.started,respPractice.started,practice_run.stopped,trials_practice.respPractice.keys,trials_practice.respPractice.corr,trials_practice.respPractice.rt,trials_practice.respPractice.duration,feedback.started,textFeedback.started,textFeedback.stopped,feedback.stopped,instr_test.started,instr_test_text.started,instr_test_resp.started,instr_test.stopped,instr_test_resp.keys,instr_test_resp.rt,instr_test_resp.duration,test_run.started,stimulus_test_run.started,keyResp_test_run.started,test_run.stopped,trials_test.keyResp_test_run.keys,trials_test.keyResp_test_run.corr,trials_test.keyResp_test_run.rt,trials_test.keyResp_test_run.duration,goodbye.started,textGoodbye.started,textGoodbye.stopped,goodbye.stopped,participant,session,expName,frameRate,Unnamed: 113
,,,,,,,,,,,,,,,,,,,,,,,,,,,,,,,,,,,,,,,,,0.0118559160000586,0.0169036659999619,0.0169036659999619,0.0169036659999619,65.5641303330001,space,65.54475070800004,,,,,,,,,,,,,,,,,,,,,,,,,,,,,,,,,,,,,,,,,,,,,,,,,,,,,,,,,,,sub-035,1,stroop_test,59.90557383919684,
,,,,,,,,,,,,,,,,,,,,,,,,,,,,,,,,,,,,,,,,,,,,,,,,,65.56422187499993,65.57112595800004,65.57112595800004,71.14696779099995,space,5.561594791000061,,,,,,,,,,,,,,,,,,,,,,,,,,,,,,,,,,,,,,,,,,,,,,,,,,,,sub-035,1,stroop_test,59.90557383919684,
test,yellow,g,1.0,0.0,0.0,0.0,g,1.0,3.0393193749998773,,,,,,,,,,,,,,,,,,0.0,0.0,0.0,1.0,,,,,,,,,71.17807433300004,,,,,,,,,,,,,,,,,71.15932266599998,71.50419595800008,72.3026238330001,72.294706916,72.29817849999995,72.3026238330001,72.3026238330001,75.3469721250001,g,1.0,3.0393193749998773,,,,,,,,,,,,,,,,,,,,,,,,,,,,,,,,,,,,,,,,sub-035,1,stroop_test,59.90557383919684,
test,red,r,1.0,1.0,1.0,0.0,r,1.0,1.4950473330000025,,,,,,,,,,,,,,,,,,0.0,1.0,1.0,0.0,,,,,,,,,75.35400625000011,,,,,,,,,,,,,,,,,75.34740245800003,76.55907112499995,77.35918804099992,77.34574683300002,77.34610674999999,77.35918804099992,77.35918804099992,78.86367191599993,r,1.0,1.4950473330000025,,,,,,,,,,,,,,,,,,,,,,,,,,,,,,,,,,,,,,,,sub-035,1,stroop_test,59.90557383919684,
test,blue,b,1.0,2.0,2.0,0.0,b,1.0,0.550561499999958,,,,,,,,,,,,,,,,,,0.0,2.0,2.0,2.0,,,,,,,,,78.87073891599994,,,,,,,,,,,,,,,,,78.86408154100013,79.22563575000004,80.02573391600004,80.01233787499996,80.01266250000003,80.02573391600004,80.02573391600004,80.58066183300002,b,1.0,0.550561499999958,,,,,,,,,,,,,,,,,,,,,,,,,,,,,,,,,,,,,,,,sub-035,1,stroop_test,59.90557383919684,
test,blue,b,1.0,3.0,0.0,1.0,b,1.0,0.6059802079998917,,,,,,,,,,,,,,,,,,1.0,0.0,3.0,2.0,,,,,,,,,80.58799112499992,,,,,,,,,,,,,,,,,80.58106087500005,81.79238833299996,82.59250570800009,82.57863625000005,82.5789776250001,82.59250570800009,82.59250570800009,83.21352570800013,b,1.0,0.6059802079998917,,,,,,,,,,,,,,,,,,,,,,,,,,,,,,,,,,,,,,,,sub-035,1,stroop_test,59.90557383919684,
test,red,r,1.0,4.0,1.0,1.0,g,0.0,0.806984582999803,,,,,,,,,,,,,,,,,,1.0,1.0,4.0,0.0,,,,,,,,,83.22038979100012,,,,,,,,,,,,,,,,,83.21391874999995,84.4256995830001,85.22578475,85.212442625,85.21278258300003,85.22578475,85.22578475,86.04690770799994,g,0.0,0.806984582999803,,,,,,,,,,,,,,,,,,,,,,,,,,,,,,,,,,,,,,,,sub-035,1,stroop_test,59.90557383919684,
test,yellow,g,1.0,5.0,2.0,1.0,g,1.0,0.7642731250000452,,,,,,,,,,,,,,,,,,1.0,2.0,5.0,1.0,,,,,,,,,86.05389920800008,,,,,,,,,,,,,,,,,86.04727716599996,86.15904595799998,86.959085791,86.94571079100001,86.94600391600011,86.959085791,86.959085791,87.73022191600012,g,1.0,0.7642731250000452,,,,,,,,,,,,,,,,,,,,,,,,,,,,,,,,,,,,,,,,sub-035,1,stroop_test,59.90557383919684,
test,red,r,1.0,6.0,0.0,2.0,r,1.0,0.8298325830000977,,,,,,,,,,,,,,,,,,2.0,0.0,6.0,0.0,,,,,,,,,87.73752979100004,,,,,,,,,,,,,,,,,87.73061470800008,88.9424294160001,89.74250254100002,89.72863658300002,89.72895737499994,89.74250254100002,89.74250254100002,90.58042320799996,r,1.0,0.8298325830000977,,,,,,,,,,,,,,,,,,,,,,,,,,,,,,,,,,,,,,,,sub-035,1,stroop_test,59.90557383919684,
test,blue,b,1.0,7.0,1.0,2.0,b,1.0,0.6235547500000393,,,,,,,,,,,,,,,,,,2.0,1.0,7.0,2.0,,,,,,,,,90.5875282500001,,,,,,,,,,,,,,,,,90.58081949999996,90.94242604100008,91.74250604100008,91.72867837500009,91.72896670799992,91.74250604100008,91.74250604100008,92.38020091599992,b,1.0,0.6235547500000393,,,,,,,,,,,,,,,,,,,,,,,,,,,,,,,,,,,,,,,,sub-035,1,stroop_test,59.90557383919684,
test,yellow,g,1.0,8.0,2.0,2.0,g,1.0,0.8885648749999291,,,,,,,,,,,,,,,,,,2.0,2.0,8.0,1.0,,,,,,,,,92.38710933300013,,,,,,,,,,,,,,,,,92.38056270800008,92.49252550000006,93.29244874999996,93.27913708300002,93.27946766600007,93.29244874999996,93.29244874999996,94.19700808300011,g,1.0,0.8885648749999291,,,,,,,,,,,,,,,,,,,,,,,,,,,,,,,,,,,,,,,,sub-035,1,stroop_test,59.90557383919684,
test,red,r,1.0,9.0,0.0,3.0,r,1.0,0.804045250000172,,,,,,,,,,,,,,,,,,3.0,0.0,9.0,0.0,,,,,,,,,94.20404158299992,,,,,,,,,,,,,,,,,94.19739741600006,95.40913141600004,96.20905045800008,96.19550587499998,96.1958138330001,96.20905045800008,96.20905045800008,97.03019337499995,r,1.0,0.804045250000172,,,,,,,,,,,,,,,,,,,,,,,,,,,,,,,,,,,,,,,,sub-035,1,stroop_test,59.90557383919684,
test,blue,b,1.0,10.0,1.0,3.0,b,1.0,0.7946260420001181,,,,,,,,,,,,,,,,,,3.0,1.0,10.0,2.0,,,,,,,,,97.03702362500007,,,,,,,,,,,,,,,,,97.03055562500003,97.8423848750001,98.64247449999992,98.62914287500008,98.62946749999992,98.64247449999992,98.64247449999992,99.44698508300009,b,1.0,0.7946260420001181,,,,,,,,,,,,,,,,,,,,,,,,,,,,,,,,,,,,,,,,sub-035,1,stroop_test,59.90557383919684,
test,yellow,g,1.0,11.0,2.0,3.0,g,1.0,0.8678401250001571,,,,,,,,,,,,,,,,,,3.0,2.0,11.0,1.0,,,,,,,,,99.45392033300004,,,,,,,,,,,,,,,,,99.44737658300004,99.55906837499992,100.35914374999992,100.34537087500009,100.34571862500002,100.35914374999992,100.35914374999992,101.230035541,g,1.0,0.8678401250001571,,,,,,,,,,,,,,,,,,,,,,,,,,,,,,,,,,,,,,,,sub-035,1,stroop_test,59.90557383919684,
,,,,,,,,,,,,,,,,,,,,,,,,,,,,,,,,,,,,,,,,,,,,,,,,,,,,,,,,,,,,,,,,,,,,101.230232333,101.23778612499996,101.23778612499996,107.06360358300005,space,5.814915083999949,,,,,,,,,,,,,,,,,,,,,,,,,,,,,,,,,sub-035,1,stroop_test,59.90557383919684,
,,,,0.0,0.0,0.0,,,,,blau,blue,b,1.0,b,1.0,0.7652955410001141,,,,,,,,,,,,,,0.0,0.0,0.0,6.0,,,,,107.07843041599996,,,,,,,,,,,,,,,,,107.07359970800007,107.87579345800008,108.67091800000004,108.66247933299996,,,,,,,,,,,,,,,,108.66739825000012,108.67091800000004,108.67091800000004,109.44699920800008,b,1.0,0.7652955410001141,,109.45224329100006,109.45906045800008,110.45915816599997,110.44567991600002,,,,,,,,,,,,,,,,,,,,sub-035,1,stroop_test,59.90557383919684,
,,,,1.0,1.0,0.0,,,,,rot,blue,b,0.0,r,0.0,2.001590458999999,,,,,,,,,,,,,,0.0,1.0,1.0,2.0,,,,,110.45915816599997,,,,,,,,,,,,,,,,,110.44606225000008,110.5590769580001,111.35365104099992,111.34580420800012,,,,,,,,,,,,,,,,111.349993541,111.35365104099992,111.35365104099992,113.36373533300002,r,0.0,2.001590458999999,,113.36781158300003,113.37451095799996,114.37586725000006,114.36204920799992,,,,,,,,,,,,,,,,,,,,sub-035,1,stroop_test,59.90557383919684,
,,,,2.0,2.0,0.0,,,,,rot,red,r,1.0,r,1.0,0.8614847080000345,,,,,,,,,,,,,,0.0,2.0,2.0,1.0,,,,,114.37586725000006,,,,,,,,,,,,,,,,,114.36243354099996,115.17578083300008,115.97583395800008,115.96200375000012,,,,,,,,,,,,,,,,115.962305,115.97583395800008,115.97583395800008,116.84695791600006,r,1.0,0.8614847080000345,,116.85017908300006,116.8569553750001,117.85912633299996,117.84591741600002,,,,,,,,,,,,,,,,,,,,sub-035,1,stroop_test,59.90557383919684,
,,,,3.0,3.0,0.0,,,,,rot,red,r,1.0,r,1.0,1.0606897920001757,,,,,,,,,,,,,,0.0,3.0,3.0,0.0,,,,,117.85912633299996,,,,,,,,,,,,,,,,,117.84629900000004,117.959158958,118.75910479100004,118.74545337500012,,,,,,,,,,,,,,,,118.74578350000002,118.75910479100004,118.75910479100004,119.83039062500006,r,1.0,1.0606897920001757,,119.83152358300003,119.83792870799994,120.84251704100006,120.82910487499998,,,,,,,,,,,,,,,,,,,,sub-035,1,stroop_test,59.90557383919684,
,,,,4.0,4.0,0.0,,,,,blau,red,r,0.0,r,1.0,1.2123879579999084,,,,,,,,,,,,,,0.0,4.0,4.0,4.0,,,,,120.84251704100006,,,,,,,,,,,,,,,,,120.829487041,120.942468791,121.73678674999996,121.72884170800012,,,,,,,,,,,,,,,,121.73144879100003,121.73678674999996,121.73678674999996,122.96334716599996,r,1.0,1.2123879579999084,,122.963707375,122.97045437499992,123.97582654100006,123.96211520800011,,,,,,,,,,,,,,,,,,,,sub-035,1,stroop_test,59.90557383919684,
,,,,5.0,5.0,0.0,,,,,gelb,yellow,g,1.0,g,1.0,0.6413997499998914,,,,,,,,,,,,,,0.0,5.0,5.0,10.0,,,,,123.97582654100006,,,,,,,,,,,,,,,,,123.962490958,124.77586504100007,125.56986958300013,125.56200762499998,,,,,,,,,,,,,,,,125.56489837499998,125.56986958300013,125.56986958300013,126.21376633299997,g,1.0,0.6413997499998914,,126.21412166599998,126.2211796250001,127.22578583299992,127.212534625,,,,,,,,,,,,,,,,,,,,sub-035,1,stroop_test,59.90557383919684,
,,,,6.0,6.0,0.0,,,,,gelb,yellow,g,1.0,g,1.0,0.4985048329999699,,,,,,,,,,,,,,0.0,6.0,6.0,11.0,,,,,127.22578583299992,,,,,,,,,,,,,,,,,127.21292762500002,127.57575533299996,128.37583925000013,128.36208379100003,,,,,,,,,,,,,,,,128.3624077080001,128.37583925000013,128.37583925000013,128.8801960410001,g,1.0,0.4985048329999699,,128.88054208300014,128.88775554099993,129.89244095799995,129.8788050830001,,,,,,,,,,,,,,,,,,,,sub-035,1,stroop_test,59.90557383919684,
,,,,7.0,7.0,0.0,,,,,gelb,red,r,0.0,r,1.0,1.1544029579999917,,,,,,,,,,,,,,0.0,7.0,7.0,8.0,,,,,129.89244095799995,,,,,,,,,,,,,,,,,129.87918104100004,130.69248704100005,131.492567625,131.47913399999993,,,,,,,,,,,,,,,,131.4794635000001,131.492567625,131.492567625,132.66462174999992,r,1.0,1.1544029579999917,,132.66499787499993,132.67150749999996,133.67585120800004,133.66260912500002,,,,,,,,,,,,,,,,,,,,sub-035,1,stroop_test,59.90557383919684,
,,,,8.0,8.0,0.0,,,,,rot,yellow,g,0.0,g,1.0,0.9787812919998942,,,,,,,,,,,,,,0.0,8.0,8.0,3.0,,,,,133.67585120800004,,,,,,,,,,,,,,,,,133.66300904100012,133.775885625,134.570167416,134.56271620799998,,,,,,,,,,,,,,,,134.56526400000007,134.570167416,134.570167416,135.56431837500008,g,1.0,0.9787812919998942,,135.564686791,135.5707561659999,136.57579662500007,136.56217800000013,,,,,,,,,,,,,,,,,,,,sub-035,1,stroop_test,59.90557383919684,
,,,,9.0,9.0,0.0,,,,,blau,yellow,g,0.0,g,1.0,0.8764143340001738,,,,,,,,,,,,,,0.0,9.0,9.0,7.0,,,,,136.57579662500007,,,,,,,,,,,,,,,,,136.56256529100006,136.67587099999992,137.47040312500008,137.46257970800002,,,,,,,,,,,,,,,,137.4657863750001,137.47040312500008,137.47040312500008,138.3638833330001,g,1.0,0.8764143340001738,,138.36427516599997,138.37068458299996,139.37583391599992,139.36214937499994,,,,,,,,,,,,,,,,,,,,sub-035,1,stroop_test,59.90557383919684,
,,,,10.0,10.0,0.0,,,,,gelb,blue,b,0.0,b,1.0,0.6955040829998325,,,,,,,,,,,,,,0.0,10.0,10.0,9.0,,,,,139.37583391599992,,,,,,,,,,,,,,,,,139.36253191600008,140.17590187500014,140.97019179099993,140.9620923750001,,,,,,,,,,,,,,,,140.96471379100012,140.97019179099993,140.97019179099993,141.67988045800007,b,1.0,0.6955040829998325,,141.68023404099995,141.687360958,142.69251658300004,142.679269708,,,,,,,,,,,,,,,,,,,,sub-035,1,stroop_test,59.90557383919684,
,,,,11.0,11.0,0.0,,,,,blau,blue,b,1.0,b,1.0,0.4770032920000631,,,,,,,,,,,,,,0.0,11.0,11.0,5.0,,,,,142.69251658300004,,,,,,,,,,,,,,,,,142.679652583,142.79253358300002,143.58909154100002,143.58447374999992,,,,,,,,,,,,,,,,143.58608800000002,143.58909154100002,143.58909154100002,144.08051479100004,b,1.0,0.4770032920000631,,144.08087999999998,144.08759391600006,145.09251120800013,145.0788206249999,,,,,,,,,,,,,,,,,,,,sub-035,1,stroop_test,59.90557383919684,
,,,,12.0,0.0,1.0,,,,,gelb,red,r,0.0,r,1.0,1.2244814999999107,,,,,,,,,,,,,,1.0,0.0,12.0,8.0,,,,,145.09251120800013,,,,,,,,,,,,,,,,,145.0792078750001,145.192597083,145.987535041,145.979056916,,,,,,,,,,,,,,,,145.98167737500012,145.987535041,145.987535041,147.23010487500005,r,1.0,1.2244814999999107,,147.23047425000004,147.23779408299993,148.24251383299998,148.22890333300006,,,,,,,,,,,,,,,,,,,,sub-035,1,stroop_test,59.90557383919684,
,,,,13.0,1.0,1.0,,,,,gelb,yellow,g,1.0,g,1.0,0.7529335000001538,,,,,,,,,,,,,,1.0,1.0,13.0,10.0,,,,,148.24251383299998,,,,,,,,,,,,,,,,,148.2292849160001,148.34248954100008,149.1425480830001,149.12914,,,,,,,,,,,,,,,,149.12946620799994,149.1425480830001,149.1425480830001,149.90775791600004,g,1.0,0.7529335000001538,,149.908084916,149.92595533300005,,150.91177433300004,,,,,,,,,,,,,,,,,,,,sub-035,1,stroop_test,59.90557383919684,
,,,,14.0,2.0,1.0,,,,,gelb,blue,b,0.0,b,1.0,0.6842104159998144,,,,,,,,,,,,,,1.0,2.0,14.0,9.0,,,,,150.92584416599993,,,,,,,,,,,,,,,,,150.91216133300009,151.00917804100004,151.80923570799996,151.7956213750001,,,,,,,,,,,,,,,,151.79596537499992,151.80923570799996,151.80923570799996,152.49720312499994,b,1.0,0.6842104159998144,,152.49755075000007,152.50421299999994,153.50927920799995,153.49564325000006,,,,,,,,,,,,,,,,,,,,sub-035,1,stroop_test,59.90557383919684,
,,,,15.0,3.0,1.0,,,,,blau,blue,b,1.0,b,1.0,1.1726163329999508,,,,,,,,,,,,,,1.0,3.0,15.0,5.0,,,,,153.50927920799995,,,,,,,,,,,,,,,,,153.49603249999996,153.6092033750001,154.40336212500006,154.39562595799998,,,,,,,,,,,,,,,,154.3982356250001,154.40336212500006,154.40336212500006,155.58048295799995,b,1.0,1.1726163329999508,,155.58083079099993,155.58813262500007,156.59250187499993,156.57881116599992,,,,,,,,,,,,,,,,,,,,sub-035,1,stroop_test,59.90557383919684,
,,,,16.0,4.0,1.0,,,,,blau,blue,b,1.0,b,1.0,0.6501178749999781,,,,,,,,,,,,,,1.0,4.0,16.0,6.0,,,,,156.59250187499993,,,,,,,,,,,,,,,,,156.57923662500002,157.39253479100012,158.19261133300006,158.1789080410001,,,,,,,,,,,,,,,,158.17955104099997,158.19261133300006,158.19261133300006,158.84706470800006,b,1.0,0.6501178749999781,,158.84746554100002,158.85426462500004,159.8592557500001,159.84569287499994,,,,,,,,,,,,,,,,,,,,sub-035,1,stroop_test,59.90557383919684,
,,,,17.0,5.0,1.0,,,,,gelb,yellow,g,1.0,g,1.0,0.7507369170000402,,,,,,,,,,,,,,1.0,5.0,17.0,11.0,,,,,159.8592557500001,,,,,,,,,,,,,,,,,159.84606899999994,160.65926866600012,161.45351370799995,161.44553016600003,,,,,,,,,,,,,,,,161.44821545800005,161.45351370799995,161.45351370799995,162.21382570800006,g,1.0,0.7507369170000402,,162.21422520800002,162.22118704100012,163.22594245799996,163.21226237500014,,,,,,,,,,,,,,,,,,,,sub-035,1,stroop_test,59.90557383919684,
,,,,18.0,6.0,1.0,,,,,rot,red,r,1.0,r,1.0,0.8876193339999645,,,,,,,,,,,,,,1.0,6.0,18.0,0.0,,,,,163.22594245799996,,,,,,,,,,,,,,,,,163.21263954100004,164.42603333300008,165.22021037500008,165.21220883299998,,,,,,,,,,,,,,,,165.21479908300012,165.22021037500008,165.22021037500008,166.11405549999995,r,1.0,0.8876193339999645,,166.11441920800007,166.12193458299998,167.12598479100006,167.11231999999995,,,,,,,,,,,,,,,,,,,,sub-035,1,stroop_test,59.90557383919684,
,,,,19.0,7.0,1.0,,,,,rot,blue,b,0.0,b,1.0,1.223262916000067,,,,,,,,,,,,,,1.0,7.0,19.0,2.0,,,,,167.12598479100006,,,,,,,,,,,,,,,,,167.112695625,168.32592083300003,169.12593841600005,169.11212504100013,,,,,,,,,,,,,,,,169.11246574999996,169.12593841600005,169.12593841600005,170.36352858300006,b,1.0,1.223262916000067,,170.3639149160001,170.37018779100003,171.37584779100007,171.3619530410001,,,,,,,,,,,,,,,,,,,,sub-035,1,stroop_test,59.90557383919684,
,,,,20.0,8.0,1.0,,,,,rot,yellow,g,0.0,g,1.0,0.7076989580000372,,,,,,,,,,,,,,1.0,8.0,20.0,3.0,,,,,171.37584779100007,,,,,,,,,,,,,,,,,171.36230854099995,171.72601554099992,172.52594054099995,172.51216208300002,,,,,,,,,,,,,,,,172.51250191600002,172.52594054099995,172.52594054099995,173.24725245800005,g,1.0,0.7076989580000372,,173.24763187500002,173.25410762499996,174.25923116600006,174.24556820800012,,,,,,,,,,,,,,,,,,,,sub-035,1,stroop_test,59.90557383919684,
,,,,21.0,9.0,1.0,,,,,blau,red,r,0.0,r,1.0,0.9513640420000228,,,,,,,,,,,,,,1.0,9.0,21.0,4.0,,,,,174.25923116600006,,,,,,,,,,,,,,,,,174.24598754099998,174.35927066599993,175.153367958,175.145796625,,,,,,,,,,,,,,,,175.14844254100012,175.153367958,175.153367958,176.11382500000013,r,1.0,0.9513640420000228,,176.11419058299998,176.1213317910001,177.12592162500005,177.112331541,,,,,,,,,,,,,,,,,,,,sub-035,1,stroop_test,59.90557383919684,
,,,,22.0,10.0,1.0,,,,,rot,red,r,1.0,r,1.0,0.4990399169998909,,,,,,,,,,,,,,1.0,10.0,22.0,1.0,,,,,177.12592162500005,,,,,,,,,,,,,,,,,177.1127265,177.47590787500008,178.27069091599992,178.26218575000007,,,,,,,,,,,,,,,,178.26476162500012,178.27069091599992,178.27069091599992,178.780484958,r,1.0,0.4990399169998909,,178.78087595800002,178.78809216600007,179.79264120800008,179.77959254100006,,,,,,,,,,,,,,,,,,,,sub-035,1,stroop_test,59.90557383919684,
,,,,23.0,11.0,1.0,,,,,blau,yellow,g,0.0,g,1.0,0.8852691669999331,,,,,,,,,,,,,,1.0,11.0,23.0,7.0,,,,,179.79264120800008,,,,,,,,,,,,,,,,,179.779980541,180.592714375,181.38673433300005,181.37886816600007,,,,,,,,,,,,,,,,181.38149645800013,181.38673433300005,181.38673433300005,182.280429833,g,1.0,0.8852691669999331,,182.28077954100013,182.28821770800005,183.292679875,183.27881283300007,,,,,,,,,,,,,,,,,,,,sub-035,1,stroop_test,59.90557383919684,
,,,,,,,,,,,,,,,,,,,,,,,,,,,,,,,,,,,,,,,,,,,,,,,,,,,,,,,,,,,,,,,,,,,,,,,,,,,,,,,,,,,,,,,183.278965,183.292679875,183.292679875,1355.149411875,space,1171.8457870409998,,,,,,,,,,,,,,sub-035,1,stroop_test,59.90557383919684,
,,,,0.0,0.0,0.0,,,,,,,,,,,,,rot,red,r,1.0,r,1.0,1.4414928750002218,,,,,,,,,,0.0,0.0,0.0,0.0,1355.1664985,,,,,,,,,,,,,,,,,1355.160326583,1355.26137525,1356.055438125,1356.0477187499998,,,,,,,,,,,,,,,,,,,,,,,,,,,,,,,,,,,1356.050067208,1356.055438125,1356.055438125,1357.499246,r,1.0,1.4414928750002218,,,,,,sub-035,1,stroop_test,59.90557383919684,
,,,,1.0,1.0,0.0,,,,,,,,,,,,,rot,red,r,1.0,r,1.0,0.5312539589999687,,,,,,,,,,0.0,1.0,1.0,1.0,1357.506309041,,,,,,,,,,,,,,,,,1357.499655125,1358.3115124580002,1359.1114314160002,1359.0977046659998,,,,,,,,,,,,,,,,,,,,,,,,,,,,,,,,,,,1359.098088041,1359.1114314160002,1359.1114314160002,1359.649501125,r,1.0,0.5312539589999687,,,,,,sub-035,1,stroop_test,59.90557383919684,
,,,,2.0,2.0,0.0,,,,,,,,,,,,,blau,yellow,g,0.0,g,1.0,0.9295127909999792,,,,,,,,,,0.0,2.0,2.0,7.0,1359.6567255829998,,,,,,,,,,,,,,,,,1359.6499003750002,1360.461415,1361.2555019580002,1361.2476534159998,,,,,,,,,,,,,,,,,,,,,,,,,,,,,,,,,,,1361.250223666,1361.2555019580002,1361.2555019580002,1362.1993947080002,g,1.0,0.9295127909999792,,,,,,sub-035,1,stroop_test,59.90557383919684,
,,,,3.0,3.0,0.0,,,,,,,,,,,,,gelb,red,r,0.0,r,1.0,0.9134517499996946,,,,,,,,,,0.0,3.0,3.0,8.0,1362.206304083,,,,,,,,,,,,,,,,,1362.19981475,1362.3114724160002,1363.1056265,1363.0979825000002,,,,,,,,,,,,,,,,,,,,,,,,,,,,,,,,,,,1363.100585666,1363.1056265,1363.1056265,1364.032862916,r,1.0,0.9134517499996946,,,,,,sub-035,1,stroop_test,59.90557383919684,
,,,,4.0,4.0,0.0,,,,,,,,,,,,,gelb,blue,b,0.0,b,1.0,0.6690142500001457,,,,,,,,,,0.0,4.0,4.0,9.0,1364.03983,,,,,,,,,,,,,,,,,1364.033316416,1364.844679958,1365.644760541,1365.6313443330002,,,,,,,,,,,,,,,,,,,,,,,,,,,,,,,,,,,1365.6316438330002,1365.644760541,1365.644760541,1366.316113833,b,1.0,0.6690142500001457,,,,,,sub-035,1,stroop_test,59.90557383919684,
,,,,5.0,5.0,0.0,,,,,,,,,,,,,blau,red,r,0.0,r,1.0,0.7616501249999601,,,,,,,,,,0.0,5.0,5.0,4.0,1366.323185375,,,,,,,,,,,,,,,,,1366.316554541,1367.1281395,1367.922254208,1367.914310291,,,,,,,,,,,,,,,,,,,,,,,,,,,,,,,,,,,1367.916936791,1367.922254208,1367.922254208,1368.698910791,r,1.0,0.7616501249999601,,,,,,sub-035,1,stroop_test,59.90557383919684,
,,,,6.0,6.0,0.0,,,,,,,,,,,,,blau,blue,b,1.0,b,1.0,0.7018219579999823,,,,,,,,,,0.0,6.0,6.0,6.0,1368.7057805410002,,,,,,,,,,,,,,,,,1368.699317875,1369.911443541,1370.7114705830002,1370.6977612080002,,,,,,,,,,,,,,,,,,,,,,,,,,,,,,,,,,,1370.6980955410002,1370.7114705830002,1370.7114705830002,1371.4156221659998,b,1.0,0.7018219579999823,,,,,,sub-035,1,stroop_test,59.90557383919684,
,,,,7.0,7.0,0.0,,,,,,,,,,,,,rot,yellow,g,0.0,g,1.0,0.8073607500000435,,,,,,,,,,0.0,7.0,7.0,3.0,1371.422614708,,,,,,,,,,,,,,,,,1371.416033875,1372.2281407500002,1373.022155333,1373.01442375,,,,,,,,,,,,,,,,,,,,,,,,,,,,,,,,,,,1373.0169655410002,1373.022155333,1373.022155333,1373.832602875,g,1.0,0.8073607500000435,,,,,,sub-035,1,stroop_test,59.90557383919684,
,,,,8.0,8.0,0.0,,,,,,,,,,,,,gelb,yellow,g,1.0,g,1.0,0.8898957499995959,,,,,,,,,,0.0,8.0,8.0,11.0,1373.839651375,,,,,,,,,,,,,,,,,1373.833044958,1374.644766833,1375.4392527910002,1375.4315439160002,,,,,,,,,,,,,,,,,,,,,,,,,,,,,,,,,,,1375.4341741249998,1375.4392527910002,1375.4392527910002,1376.332754666,g,1.0,0.8898957499995959,,,,,,sub-035,1,stroop_test,59.90557383919684,
,,,,9.0,9.0,0.0,,,,,,,,,,,,,gelb,yellow,g,1.0,g,1.0,0.6111984169997413,,,,,,,,,,0.0,9.0,9.0,10.0,1376.339928125,,,,,,,,,,,,,,,,,1376.3332037910002,1377.144760708,1377.9448060410002,1377.931574458,,,,,,,,,,,,,,,,,,,,,,,,,,,,,,,,,,,1377.9319575830002,1377.9448060410002,1377.9448060410002,1378.5661067500002,g,1.0,0.6111984169997413,,,,,,sub-035,1,stroop_test,59.90557383919684,
,,,,10.0,10.0,0.0,,,,,,,,,,,,,rot,blue,b,0.0,b,1.0,0.9753972499997872,,,,,,,,,,0.0,10.0,10.0,2.0,1378.5732605,,,,,,,,,,,,,,,,,1378.566560416,1379.3781313329998,1380.172402458,1380.164856958,,,,,,,,,,,,,,,,,,,,,,,,,,,,,,,,,,,1380.1673360830002,1380.172402458,1380.172402458,1381.165538,b,1.0,0.9753972499997872,,,,,,sub-035,1,stroop_test,59.90557383919684,
,,,,11.0,11.0,0.0,,,,,,,,,,,,,blau,blue,b,1.0,b,1.0,0.9745679580000796,,,,,,,,,,0.0,11.0,11.0,5.0,1381.1723973330002,,,,,,,,,,,,,,,,,1381.165935416,1381.278244708,1382.072414333,1382.064894166,,,,,,,,,,,,,,,,,,,,,,,,,,,,,,,,,,,1382.067482583,1382.072414333,1382.072414333,1383.0493840410002,b,1.0,0.9745679580000796,,,,,,sub-035,1,stroop_test,59.90557383919684,
,,,,12.0,0.0,1.0,,,,,,,,,,,,,blau,red,r,0.0,r,1.0,1.0818266249998487,,,,,,,,,,1.0,0.0,12.0,4.0,1383.0561933330002,,,,,,,,,,,,,,,,,1383.049832,1384.261502125,1385.061553375,1385.047722333,,,,,,,,,,,,,,,,,,,,,,,,,,,,,,,,,,,1385.048064583,1385.061553375,1385.061553375,1386.149150083,r,1.0,1.0818266249998487,,,,,,sub-035,1,stroop_test,59.90557383919684,
,,,,13.0,1.0,1.0,,,,,,,,,,,,,gelb,yellow,g,1.0,g,1.0,0.7783155829997668,,,,,,,,,,1.0,1.0,13.0,10.0,1386.1564633750002,,,,,,,,,,,,,,,,,1386.149568833,1386.261502875,1387.05563925,1387.0482171249998,,,,,,,,,,,,,,,,,,,,,,,,,,,,,,,,,,,1387.050764791,1387.05563925,1387.05563925,1387.8493824579998,g,1.0,0.7783155829997668,,,,,,sub-035,1,stroop_test,59.90557383919684,
,,,,14.0,2.0,1.0,,,,,,,,,,,,,blau,blue,b,1.0,b,1.0,0.8282007080001677,,,,,,,,,,1.0,2.0,14.0,5.0,1387.856278125,,,,,,,,,,,,,,,,,1387.849829958,1389.061542583,1389.855333958,1389.848323083,,,,,,,,,,,,,,,,,,,,,,,,,,,,,,,,,,,1389.850932791,1389.855333958,1389.855333958,1390.6993061250002,b,1.0,0.8282007080001677,,,,,,sub-035,1,stroop_test,59.90557383919684,
,,,,15.0,3.0,1.0,,,,,,,,,,,,,blau,yellow,g,0.0,g,1.0,1.777214332999847,,,,,,,,,,1.0,3.0,15.0,7.0,1390.7061018749998,,,,,,,,,,,,,,,,,1390.6997225409998,1391.911486458,1392.711565833,1392.697775333,,,,,,,,,,,,,,,,,,,,,,,,,,,,,,,,,,,1392.698118291,1392.711565833,1392.711565833,1394.499428375,g,1.0,1.777214332999847,,,,,,sub-035,1,stroop_test,59.90557383919684,
,,,,16.0,4.0,1.0,,,,,,,,,,,,,rot,yellow,g,0.0,g,1.0,0.9965867079999952,,,,,,,,,,1.0,4.0,16.0,3.0,1394.506554916,,,,,,,,,,,,,,,,,1394.499836833,1394.611428583,1395.405376,1395.397587583,,,,,,,,,,,,,,,,,,,,,,,,,,,,,,,,,,,1395.40001225,1395.405376,1395.405376,1396.415958541,g,1.0,0.9965867079999952,,,,,,sub-035,1,stroop_test,59.90557383919684,
,,,,17.0,5.0,1.0,,,,,,,,,,,,,gelb,blue,b,0.0,b,1.0,0.7323128749999341,,,,,,,,,,1.0,5.0,17.0,9.0,1396.4229267910002,,,,,,,,,,,,,,,,,1396.416364166,1396.7779254999998,1397.572572791,1397.564798625,,,,,,,,,,,,,,,,,,,,,,,,,,,,,,,,,,,1397.56738475,1397.572572791,1397.572572791,1398.3158365830002,b,1.0,0.7323128749999341,,,,,,sub-035,1,stroop_test,59.90557383919684,
,,,,18.0,6.0,1.0,,,,,,,,,,,,,rot,blue,b,0.0,b,1.0,0.7198597500000687,,,,,,,,,,1.0,6.0,18.0,2.0,1398.322861,,,,,,,,,,,,,,,,,1398.316245916,1399.12816825,1399.922069,1399.9141445829998,,,,,,,,,,,,,,,,,,,,,,,,,,,,,,,,,,,1399.91664225,1399.922069,1399.922069,1400.649417458,b,1.0,0.7198597500000687,,,,,,sub-035,1,stroop_test,59.90557383919684,
,,,,19.0,7.0,1.0,,,,,,,,,,,,,rot,red,r,1.0,r,1.0,0.604822165999849,,,,,,,,,,1.0,7.0,19.0,1.0,1400.6566424159998,,,,,,,,,,,,,,,,,1400.6498747500002,1401.4614870409998,1402.261605,1402.2478237910002,,,,,,,,,,,,,,,,,,,,,,,,,,,,,,,,,,,1402.2481675,1402.261605,1402.261605,1402.882720708,r,1.0,0.604822165999849,,,,,,sub-035,1,stroop_test,59.90557383919684,
,,,,20.0,8.0,1.0,,,,,,,,,,,,,rot,red,r,1.0,r,1.0,0.4825030830002106,,,,,,,,,,1.0,8.0,20.0,0.0,1402.889379458,,,,,,,,,,,,,,,,,1402.883120833,1404.094826875,1404.894875375,1404.8812450829998,,,,,,,,,,,,,,,,,,,,,,,,,,,,,,,,,,,1404.88156625,1404.894875375,1404.894875375,1405.3827844999998,r,1.0,0.4825030830002106,,,,,,sub-035,1,stroop_test,59.90557383919684,
,,,,21.0,9.0,1.0,,,,,,,,,,,,,gelb,red,r,0.0,r,1.0,0.5746683329998632,,,,,,,,,,1.0,9.0,21.0,8.0,1405.3899250000002,,,,,,,,,,,,,,,,,1405.3832225,1406.188395291,1406.989164625,1406.981093791,,,,,,,,,,,,,,,,,,,,,,,,,,,,,,,,,,,1406.9836562500002,1406.989164625,1406.989164625,1407.566375041,r,1.0,0.5746683329998632,,,,,,sub-035,1,stroop_test,59.90557383919684,
,,,,22.0,10.0,1.0,,,,,,,,,,,,,gelb,yellow,g,1.0,g,1.0,1.0072611660002622,,,,,,,,,,1.0,10.0,22.0,11.0,1407.573276458,,,,,,,,,,,,,,,,,1407.566837875,1407.678147333,1408.4782093750002,1408.4645027499998,,,,,,,,,,,,,,,,,,,,,,,,,,,,,,,,,,,1408.464892666,1408.4782093750002,1408.4782093750002,1409.4993565830002,g,1.0,1.0072611660002622,,,,,,sub-035,1,stroop_test,59.90557383919684,
,,,,23.0,11.0,1.0,,,,,,,,,,,,,blau,blue,b,1.0,b,1.0,0.8621212500002002,,,,,,,,,,1.0,11.0,23.0,6.0,1409.506366375,,,,,,,,,,,,,,,,,1409.499781958,1409.6116237499998,1410.4057850830002,1410.397947541,,,,,,,,,,,,,,,,,,,,,,,,,,,,,,,,,,,1410.4005934580002,1410.4057850830002,1410.4057850830002,1411.282874958,b,1.0,0.8621212500002002,,,,,,sub-035,1,stroop_test,59.90557383919684,
,,,,24.0,0.0,2.0,,,,,,,,,,,,,rot,yellow,g,0.0,g,1.0,0.9187777079996522,,,,,,,,,,2.0,0.0,24.0,3.0,1411.2894978329998,,,,,,,,,,,,,,,,,1411.2832837909998,1411.394801875,1412.1885948749998,1412.1812418749998,,,,,,,,,,,,,,,,,,,,,,,,,,,,,,,,,,,1412.183792125,1412.1885948749998,1412.1885948749998,1413.116103791,g,1.0,0.9187777079996522,,,,,,sub-035,1,stroop_test,59.90557383919684,
,,,,25.0,1.0,2.0,,,,,,,,,,,,,rot,red,r,1.0,r,1.0,0.7434415830002763,,,,,,,,,,2.0,1.0,25.0,1.0,1413.123182166,,,,,,,,,,,,,,,,,1413.116553833,1413.4782509160002,1414.2781605000002,1414.264883125,,,,,,,,,,,,,,,,,,,,,,,,,,,,,,,,,,,1414.2652287909998,1414.2781605000002,1414.2781605000002,1415.032692416,r,1.0,0.7434415830002763,,,,,,sub-035,1,stroop_test,59.90557383919684,
,,,,26.0,2.0,2.0,,,,,,,,,,,,,blau,blue,b,1.0,b,1.0,0.7228490000002239,,,,,,,,,,2.0,2.0,26.0,6.0,1415.0398415000002,,,,,,,,,,,,,,,,,1415.0331213749998,1415.394776666,1416.189045166,1416.181459666,,,,,,,,,,,,,,,,,,,,,,,,,,,,,,,,,,,1416.1840922909998,1416.189045166,1416.189045166,1416.915890958,b,1.0,0.7228490000002239,,,,,,sub-035,1,stroop_test,59.90557383919684,
,,,,27.0,3.0,2.0,,,,,,,,,,,,,gelb,yellow,g,1.0,g,1.0,1.3024276669998471,,,,,,,,,,2.0,3.0,27.0,11.0,1416.923104666,,,,,,,,,,,,,,,,,1416.9163345,1417.028136708,1417.821918708,1417.8145123329998,,,,,,,,,,,,,,,,,,,,,,,,,,,,,,,,,,,1417.817152041,1417.821918708,1417.821918708,1419.132822875,g,1.0,1.3024276669998471,,,,,,sub-035,1,stroop_test,59.90557383919684,
,,,,28.0,4.0,2.0,,,,,,,,,,,,,gelb,blue,b,0.0,b,1.0,0.7403962919997866,,,,,,,,,,2.0,4.0,28.0,9.0,1419.140041125,,,,,,,,,,,,,,,,,1419.1332652909998,1420.3447991250002,1421.1448912080002,1421.131137916,,,,,,,,,,,,,,,,,,,,,,,,,,,,,,,,,,,1421.131453416,1421.1448912080002,1421.1448912080002,1421.899513166,b,1.0,0.7403962919997866,,,,,,sub-035,1,stroop_test,59.90557383919684,
,,,,29.0,5.0,2.0,,,,,,,,,,,,,blau,yellow,g,0.0,g,1.0,0.949832165999851,,,,,,,,,,2.0,5.0,29.0,7.0,1421.906748708,,,,,,,,,,,,,,,,,1421.89995325,1422.011619875,1422.80552525,1422.7977905,,,,,,,,,,,,,,,,,,,,,,,,,,,,,,,,,,,1422.800801083,1422.80552525,1422.80552525,1423.7662577909998,g,1.0,0.949832165999851,,,,,,sub-035,1,stroop_test,59.90557383919684,
,,,,30.0,6.0,2.0,,,,,,,,,,,,,rot,red,r,1.0,r,1.0,0.4835038329997587,,,,,,,,,,2.0,6.0,30.0,0.0,1423.772743958,,,,,,,,,,,,,,,,,1423.7666338330002,1424.5781988750002,1425.372569375,1425.364582375,,,,,,,,,,,,,,,,,,,,,,,,,,,,,,,,,,,1425.367106375,1425.372569375,1425.372569375,1425.8656724999998,r,1.0,0.4835038329997587,,,,,,sub-035,1,stroop_test,59.90557383919684,
,,,,31.0,7.0,2.0,,,,,,,,,,,,,gelb,yellow,g,1.0,g,1.0,0.5361742079999203,,,,,,,,,,2.0,7.0,31.0,10.0,1425.872764291,,,,,,,,,,,,,,,,,1425.866089625,1426.228202125,1427.022673833,1427.014865791,,,,,,,,,,,,,,,,,,,,,,,,,,,,,,,,,,,1427.0178235,1427.022673833,1427.022673833,1427.5661349580002,g,1.0,0.5361742079999203,,,,,,sub-035,1,stroop_test,59.90557383919684,
,,,,32.0,8.0,2.0,,,,,,,,,,,,,blau,red,r,0.0,r,1.0,0.4830013330001748,,,,,,,,,,2.0,8.0,32.0,4.0,1427.57345625,,,,,,,,,,,,,,,,,1427.5665621659998,1428.378200333,1429.17246825,1429.164528916,,,,,,,,,,,,,,,,,,,,,,,,,,,,,,,,,,,1429.167055875,1429.17246825,1429.17246825,1429.6659735,r,1.0,0.4830013330001748,,,,,,sub-035,1,stroop_test,59.90557383919684,
,,,,33.0,9.0,2.0,,,,,,,,,,,,,rot,blue,b,0.0,b,1.0,0.5660753750003096,,,,,,,,,,2.0,9.0,33.0,2.0,1429.673028375,,,,,,,,,,,,,,,,,1429.666373208,1430.8782627910002,1431.672378208,1431.664507375,,,,,,,,,,,,,,,,,,,,,,,,,,,,,,,,,,,1431.667013916,1431.672378208,1431.672378208,1432.2492797910002,b,1.0,0.5660753750003096,,,,,,sub-035,1,stroop_test,59.90557383919684,
,,,,34.0,10.0,2.0,,,,,,,,,,,,,blau,blue,b,1.0,b,1.0,0.4787560830000075,,,,,,,,,,2.0,10.0,34.0,5.0,1432.256445875,,,,,,,,,,,,,,,,,1432.2497099999998,1432.6112705409998,1433.4054816250002,1433.3977886660002,,,,,,,,,,,,,,,,,,,,,,,,,,,,,,,,,,,1433.400368416,1433.4054816250002,1433.4054816250002,1433.899488958,b,1.0,0.4787560830000075,,,,,,sub-035,1,stroop_test,59.90557383919684,
,,,,35.0,11.0,2.0,,,,,,,,,,,,,gelb,red,r,0.0,r,1.0,0.8597850840001229,,,,,,,,,,2.0,11.0,35.0,8.0,1433.9063170410002,,,,,,,,,,,,,,,,,1433.899917083,1434.2615832079998,1435.055342375,1435.047818833,,,,,,,,,,,,,,,,,,,,,,,,,,,,,,,,,,,1435.050389541,1435.055342375,1435.055342375,1435.932775041,r,1.0,0.8597850840001229,,,,,,sub-035,1,stroop_test,59.90557383919684,
,,,,36.0,0.0,3.0,,,,,,,,,,,,,rot,yellow,g,0.0,g,1.0,0.6740908340002534,,,,,,,,,,3.0,0.0,36.0,3.0,1435.93974675,,,,,,,,,,,,,,,,,1435.933183458,1436.294831208,1437.089351416,1437.081603416,,,,,,,,,,,,,,,,,,,,,,,,,,,,,,,,,,,1437.0845728749998,1437.089351416,1437.089351416,1437.7659527080002,g,1.0,0.6740908340002534,,,,,,sub-035,1,stroop_test,59.90557383919684,
,,,,37.0,1.0,3.0,,,,,,,,,,,,,gelb,yellow,g,1.0,g,1.0,0.6735612919997038,,,,,,,,,,3.0,1.0,37.0,10.0,1437.772909,,,,,,,,,,,,,,,,,1437.766365708,1438.978192291,1439.772261333,1439.764537208,,,,,,,,,,,,,,,,,,,,,,,,,,,,,,,,,,,1439.7671091660002,1439.772261333,1439.772261333,1440.449430166,g,1.0,0.6735612919997038,,,,,,sub-035,1,stroop_test,59.90557383919684,
,,,,38.0,2.0,3.0,,,,,,,,,,,,,rot,blue,b,0.0,b,1.0,0.5501347079998595,,,,,,,,,,3.0,2.0,38.0,2.0,1440.4566188330002,,,,,,,,,,,,,,,,,1440.449848166,1441.661693291,1442.455702041,1442.448314416,,,,,,,,,,,,,,,,,,,,,,,,,,,,,,,,,,,1442.4509032080002,1442.455702041,1442.455702041,1443.015701125,b,1.0,0.5501347079998595,,,,,,sub-035,1,stroop_test,59.90557383919684,
,,,,39.0,3.0,3.0,,,,,,,,,,,,,gelb,blue,b,0.0,b,1.0,0.6293927910001003,,,,,,,,,,3.0,3.0,39.0,9.0,1443.0228719580002,,,,,,,,,,,,,,,,,1443.016110375,1443.128257666,1443.922532875,1443.9149920410002,,,,,,,,,,,,,,,,,,,,,,,,,,,,,,,,,,,1443.9175686249998,1443.922532875,1443.922532875,1444.566068166,b,1.0,0.6293927910001003,,,,,,sub-035,1,stroop_test,59.90557383919684,
,,,,40.0,4.0,3.0,,,,,,,,,,,,,rot,red,r,1.0,r,1.0,0.5698765000001913,,,,,,,,,,3.0,4.0,40.0,0.0,1444.573033333,,,,,,,,,,,,,,,,,1444.566509333,1445.3781729999998,1446.172404916,1446.164546375,,,,,,,,,,,,,,,,,,,,,,,,,,,,,,,,,,,1446.1671453750002,1446.172404916,1446.172404916,1446.749412083,r,1.0,0.5698765000001913,,,,,,sub-035,1,stroop_test,59.90557383919684,
,,,,41.0,5.0,3.0,,,,,,,,,,,,,blau,yellow,g,0.0,g,1.0,0.6322989999998754,,,,,,,,,,3.0,5.0,41.0,7.0,1446.756627291,,,,,,,,,,,,,,,,,1446.7498200829998,1447.1116237499998,1447.906574416,1447.898456916,,,,,,,,,,,,,,,,,,,,,,,,,,,,,,,,,,,1447.9010730410002,1447.906574416,1447.906574416,1448.549509791,g,1.0,0.6322989999998754,,,,,,sub-035,1,stroop_test,59.90557383919684,
,,,,42.0,6.0,3.0,,,,,,,,,,,,,blau,blue,b,1.0,r,0.0,0.5192907089999608,,,,,,,,,,3.0,6.0,42.0,6.0,1448.5567347499998,,,,,,,,,,,,,,,,,1448.549946541,1448.9115963329998,1449.7116911659998,1449.6978095830002,,,,,,,,,,,,,,,,,,,,,,,,,,,,,,,,,,,1449.698129666,1449.7116911659998,1449.7116911659998,1450.234378541,r,0.0,0.5192907089999608,,,,,,sub-035,1,stroop_test,59.90557383919684,
,,,,43.0,7.0,3.0,,,,,,,,,,,,,gelb,red,r,0.0,r,1.0,1.674079041999903,,,,,,,,,,3.0,7.0,43.0,8.0,1450.2408027079998,,,,,,,,,,,,,,,,,1450.2348249160002,1450.5948837500002,1451.388892916,1451.381237333,,,,,,,,,,,,,,,,,,,,,,,,,,,,,,,,,,,1451.383831625,1451.388892916,1451.388892916,1453.0661245,r,1.0,1.674079041999903,,,,,,sub-035,1,stroop_test,59.90557383919684,
,,,,44.0,8.0,3.0,,,,,,,,,,,,,blau,blue,b,1.0,b,1.0,0.536035666999851,,,,,,,,,,3.0,8.0,44.0,5.0,1453.0732327500002,,,,,,,,,,,,,,,,,1453.0665686250002,1454.2783162080002,1455.0721540410002,1455.064792125,,,,,,,,,,,,,,,,,,,,,,,,,,,,,,,,,,,1455.0673194580002,1455.0721540410002,1455.0721540410002,1455.616131333,b,1.0,0.536035666999851,,,,,,sub-035,1,stroop_test,59.90557383919684,
,,,,45.0,9.0,3.0,,,,,,,,,,,,,blau,red,r,0.0,r,1.0,0.6825199159998192,,,,,,,,,,3.0,9.0,45.0,4.0,1455.62331325,,,,,,,,,,,,,,,,,1455.616530875,1456.428246416,1457.228328333,1457.215034041,,,,,,,,,,,,,,,,,,,,,,,,,,,,,,,,,,,1457.215375333,1457.228328333,1457.228328333,1457.916263625,r,1.0,0.6825199159998192,,,,,,sub-035,1,stroop_test,59.90557383919684,
,,,,46.0,10.0,3.0,,,,,,,,,,,,,rot,red,r,1.0,r,1.0,0.5001267500001632,,,,,,,,,,3.0,10.0,46.0,1.0,1457.923333416,,,,,,,,,,,,,,,,,1457.916692875,1458.728343416,1459.522733083,1459.515031666,,,,,,,,,,,,,,,,,,,,,,,,,,,,,,,,,,,1459.517600625,1459.522733083,1459.522733083,1460.0323447910002,r,1.0,0.5001267500001632,,,,,,sub-035,1,stroop_test,59.90557383919684,
,,,,47.0,11.0,3.0,,,,,,,,,,,,,gelb,yellow,g,1.0,g,1.0,0.578613041999688,,,,,,,,,,3.0,11.0,47.0,11.0,1460.039520291,,,,,,,,,,,,,,,,,1460.0327439159998,1460.8450851660002,1461.639143125,1461.6316195000002,,,,,,,,,,,,,,,,,,,,,,,,,,,,,,,,,,,1461.634193625,1461.639143125,1461.639143125,1462.232960833,g,1.0,0.578613041999688,,,,,,sub-035,1,stroop_test,59.90557383919684,
,,,,48.0,0.0,4.0,,,,,,,,,,,,,gelb,red,r,0.0,r,1.0,0.8067396250003185,,,,,,,,,,4.0,0.0,48.0,8.0,1462.24008225,,,,,,,,,,,,,,,,,1462.2333700830002,1463.444962916,1464.244991208,1464.2312705000002,,,,,,,,,,,,,,,,,,,,,,,,,,,,,,,,,,,1464.231620833,1464.244991208,1464.244991208,1465.0660314580002,r,1.0,0.8067396250003185,,,,,,sub-035,1,stroop_test,59.90557383919684,
,,,,49.0,1.0,4.0,,,,,,,,,,,,,gelb,yellow,g,1.0,g,1.0,0.6946739589998288,,,,,,,,,,4.0,1.0,49.0,10.0,1465.07238175,,,,,,,,,,,,,,,,,1465.0664426249998,1465.178407083,1465.978321416,1465.9650802499998,,,,,,,,,,,,,,,,,,,,,,,,,,,,,,,,,,,1465.965411583,1465.978321416,1465.978321416,1466.6828309579998,g,1.0,0.6946739589998288,,,,,,sub-035,1,stroop_test,59.90557383919684,
,,,,50.0,2.0,4.0,,,,,,,,,,,,,blau,yellow,g,0.0,g,1.0,0.7662053330000163,,,,,,,,,,4.0,2.0,50.0,7.0,1466.690023041,,,,,,,,,,,,,,,,,1466.6832244159998,1467.895023833,1468.689785833,1468.68142325,,,,,,,,,,,,,,,,,,,,,,,,,,,,,,,,,,,1468.684033416,1468.689785833,1468.689785833,1469.4662206250002,g,1.0,0.7662053330000163,,,,,,sub-035,1,stroop_test,59.90557383919684,
,,,,51.0,3.0,4.0,,,,,,,,,,,,,blau,blue,b,1.0,b,1.0,0.582445583000208,,,,,,,,,,4.0,3.0,51.0,5.0,1469.473431791,,,,,,,,,,,,,,,,,1469.46661625,1470.278630916,1471.078457083,1471.0656030409998,,,,,,,,,,,,,,,,,,,,,,,,,,,,,,,,,,,1471.065903583,1471.078457083,1471.078457083,1471.6659793330002,b,1.0,0.582445583000208,,,,,,sub-035,1,stroop_test,59.90557383919684,
,,,,52.0,4.0,4.0,,,,,,,,,,,,,gelb,yellow,g,1.0,g,1.0,1.8609842910000225,,,,,,,,,,4.0,4.0,52.0,11.0,1471.6731417500002,,,,,,,,,,,,,,,,,1471.666380458,1472.028283416,1472.822520333,1472.81454225,,,,,,,,,,,,,,,,,,,,,,,,,,,,,,,,,,,1472.8171382080002,1472.822520333,1472.822520333,1474.699613916,g,1.0,1.8609842910000225,,,,,,sub-035,1,stroop_test,59.90557383919684,
,,,,53.0,5.0,4.0,,,,,,,,,,,,,rot,red,r,1.0,r,1.0,0.6350100409999868,,,,,,,,,,4.0,5.0,53.0,1.0,1474.7063975,,,,,,,,,,,,,,,,,1474.7000276249998,1475.911587083,1476.705585083,1476.69785075,,,,,,,,,,,,,,,,,,,,,,,,,,,,,,,,,,,1476.700767,1476.705585083,1476.705585083,1477.3494507080002,r,1.0,0.6350100409999868,,,,,,sub-035,1,stroop_test,59.90557383919684,
,,,,54.0,6.0,4.0,,,,,,,,,,,,,rot,blue,b,0.0,b,1.0,0.7073708329999135,,,,,,,,,,4.0,6.0,54.0,2.0,1477.356541666,,,,,,,,,,,,,,,,,1477.349856166,1477.711575916,1478.5116342499998,1478.4978883750002,,,,,,,,,,,,,,,,,,,,,,,,,,,,,,,,,,,1478.4982095409998,1478.5116342499998,1478.5116342499998,1479.2328302909998,b,1.0,0.7073708329999135,,,,,,sub-035,1,stroop_test,59.90557383919684,
,,,,55.0,7.0,4.0,,,,,,,,,,,,,blau,red,r,0.0,r,1.0,0.5717917920001128,,,,,,,,,,4.0,7.0,55.0,4.0,1479.239867083,,,,,,,,,,,,,,,,,1479.233254125,1479.594941875,1480.38902325,1480.381173125,,,,,,,,,,,,,,,,,,,,,,,,,,,,,,,,,,,1480.383780625,1480.38902325,1480.38902325,1480.966201458,r,1.0,0.5717917920001128,,,,,,sub-035,1,stroop_test,59.90557383919684,
,,,,56.0,8.0,4.0,,,,,,,,,,,,,rot,red,r,1.0,r,1.0,0.6052822919996288,,,,,,,,,,4.0,8.0,56.0,0.0,1480.973277458,,,,,,,,,,,,,,,,,1480.966596083,1481.07841875,1481.872418541,1481.8648855,,,,,,,,,,,,,,,,,,,,,,,,,,,,,,,,,,,1481.8673848750002,1481.872418541,1481.872418541,1482.4825144160002,r,1.0,0.6052822919996288,,,,,,sub-035,1,stroop_test,59.90557383919684,
,,,,57.0,9.0,4.0,,,,,,,,,,,,,rot,yellow,g,0.0,g,1.0,0.6110492500001783,,,,,,,,,,4.0,9.0,57.0,3.0,1482.489591958,,,,,,,,,,,,,,,,,1482.4829187910002,1483.295000125,1484.094944875,1484.081541708,,,,,,,,,,,,,,,,,,,,,,,,,,,,,,,,,,,1484.081879208,1484.094944875,1484.094944875,1484.716213083,g,1.0,0.6110492500001783,,,,,,sub-035,1,stroop_test,59.90557383919684,
,,,,58.0,10.0,4.0,,,,,,,,,,,,,blau,blue,b,1.0,b,1.0,0.526678291999815,,,,,,,,,,4.0,10.0,58.0,6.0,1484.723171625,,,,,,,,,,,,,,,,,1484.716642666,1484.828327375,1485.6223861249998,1485.614622916,,,,,,,,,,,,,,,,,,,,,,,,,,,,,,,,,,,1485.6172588749998,1485.6223861249998,1485.6223861249998,1486.166397916,b,1.0,0.526678291999815,,,,,,sub-035,1,stroop_test,59.90557383919684,
,,,,59.0,11.0,4.0,,,,,,,,,,,,,gelb,blue,b,0.0,b,1.0,0.4926777910000055,,,,,,,,,,4.0,11.0,59.0,9.0,1486.173175875,,,,,,,,,,,,,,,,,1486.166802458,1486.2784787080002,1487.072085083,1487.0645712910002,,,,,,,,,,,,,,,,,,,,,,,,,,,,,,,,,,,1487.0671129999998,1487.072085083,1487.072085083,1487.576812916,b,1.0,0.4926777910000055,,,,,,sub-035,1,stroop_test,59.90557383919684,
,,,,60.0,0.0,5.0,,,,,,,,,,,,,rot,red,r,1.0,r,1.0,0.582950291999623,,,,,,,,,,5.0,0.0,60.0,1.0,1487.594975833,,,,,,,,,,,,,,,,,1487.577197625,1488.378097041,1489.172820125,1489.1645782500002,,,,,,,,,,,,,,,,,,,,,,,,,,,,,,,,,,,1489.167097375,1489.172820125,1489.172820125,1489.7665409580002,r,1.0,0.582950291999623,,,,,,sub-035,1,stroop_test,59.90557383919684,
,,,,61.0,1.0,5.0,,,,,,,,,,,,,rot,red,r,1.0,r,1.0,0.5468670000000202,,,,,,,,,,5.0,1.0,61.0,0.0,1489.7734845410002,,,,,,,,,,,,,,,,,1489.7669709580002,1490.9782954579998,1491.7783430830002,1491.7646324579998,,,,,,,,,,,,,,,,,,,,,,,,,,,,,,,,,,,1491.7649520000002,1491.7783430830002,1491.7783430830002,1492.3321777080002,r,1.0,0.5468670000000202,,,,,,sub-035,1,stroop_test,59.90557383919684,
,,,,62.0,2.0,5.0,,,,,,,,,,,,,rot,blue,b,0.0,b,1.0,0.9177032909997253,,,,,,,,,,5.0,2.0,62.0,2.0,1492.3392512080002,,,,,,,,,,,,,,,,,1492.332551875,1493.545017916,1494.345088875,1494.3315263749998,,,,,,,,,,,,,,,,,,,,,,,,,,,,,,,,,,,1494.331866625,1494.345088875,1494.345088875,1495.264974166,b,1.0,0.9177032909997253,,,,,,sub-035,1,stroop_test,59.90557383919684,
,,,,63.0,3.0,5.0,,,,,,,,,,,,,rot,yellow,g,0.0,g,1.0,0.7431096249997609,,,,,,,,,,5.0,3.0,63.0,3.0,1495.2779335000002,,,,,,,,,,,,,,,,,1495.2652369159998,1495.3781286249998,1496.1783537909998,1496.164905208,,,,,,,,,,,,,,,,,,,,,,,,,,,,,,,,,,,1496.1652054160002,1496.1783537909998,1496.1783537909998,1496.9330631250002,g,1.0,0.7431096249997609,,,,,,sub-035,1,stroop_test,59.90557383919684,
,,,,64.0,4.0,5.0,,,,,,,,,,,,,gelb,blue,b,0.0,b,1.0,0.6296731669999645,,,,,,,,,,5.0,4.0,64.0,9.0,1496.940075333,,,,,,,,,,,,,,,,,1496.9334661250002,1497.745015458,1498.539388458,1498.531234583,,,,,,,,,,,,,,,,,,,,,,,,,,,,,,,,,,,1498.534162458,1498.539388458,1498.539388458,1499.183061083,b,1.0,0.6296731669999645,,,,,,sub-035,1,stroop_test,59.90557383919684,
,,,,65.0,5.0,5.0,,,,,,,,,,,,,blau,red,r,0.0,r,1.0,0.5767245410002033,,,,,,,,,,5.0,5.0,65.0,4.0,1499.1895202080002,,,,,,,,,,,,,,,,,1499.183467041,1499.99509675,1500.79453825,1500.779820333,,,,,,,,,,,,,,,,,,,,,,,,,,,,,,,,,,,1500.781285291,1500.79453825,1500.79453825,1501.3832032910002,r,1.0,0.5767245410002033,,,,,,sub-035,1,stroop_test,59.90557383919684,
,,,,66.0,6.0,5.0,,,,,,,,,,,,,gelb,yellow,g,1.0,g,1.0,0.5983133330000783,,,,,,,,,,5.0,6.0,66.0,10.0,1501.390383791,,,,,,,,,,,,,,,,,1501.383641041,1501.4949629159998,1502.289434291,1502.281746,,,,,,,,,,,,,,,,,,,,,,,,,,,,,,,,,,,1502.284389541,1502.289434291,1502.289434291,1502.899460416,g,1.0,0.5983133330000783,,,,,,sub-035,1,stroop_test,59.90557383919684,
,,,,67.0,7.0,5.0,,,,,,,,,,,,,gelb,red,r,0.0,r,1.0,0.6104278329999033,,,,,,,,,,5.0,7.0,67.0,8.0,1502.906413291,,,,,,,,,,,,,,,,,1502.899859375,1503.712104375,1504.5118250829998,1504.497941833,,,,,,,,,,,,,,,,,,,,,,,,,,,,,,,,,,,1504.4982860000002,1504.5118250829998,1504.5118250829998,1505.132841333,r,1.0,0.6104278329999033,,,,,,sub-035,1,stroop_test,59.90557383919684,
,,,,68.0,8.0,5.0,,,,,,,,,,,,,blau,blue,b,1.0,b,1.0,0.678777541999807,,,,,,,,,,5.0,8.0,68.0,6.0,1505.140065208,,,,,,,,,,,,,,,,,1505.1332479159998,1505.494969,1506.288867458,1506.2812715409998,,,,,,,,,,,,,,,,,,,,,,,,,,,,,,,,,,,1506.283787833,1506.288867458,1506.288867458,1506.9826207909998,b,1.0,0.678777541999807,,,,,,sub-035,1,stroop_test,59.90557383919684,
,,,,69.0,9.0,5.0,,,,,,,,,,,,,gelb,yellow,g,1.0,g,1.0,1.8674836250002045,,,,,,,,,,5.0,9.0,69.0,11.0,1506.9895574579998,,,,,,,,,,,,,,,,,1506.9830346249998,1508.195047625,1508.988737041,1508.981262375,,,,,,,,,,,,,,,,,,,,,,,,,,,,,,,,,,,1508.983872958,1508.988737041,1508.988737041,1510.8666273750002,g,1.0,1.8674836250002045,,,,,,sub-035,1,stroop_test,59.90557383919684,
,,,,70.0,10.0,5.0,,,,,,,,,,,,,blau,yellow,g,0.0,g,1.0,0.4995946250000997,,,,,,,,,,5.0,10.0,70.0,7.0,1510.8736366250002,,,,,,,,,,,,,,,,,1510.867053583,1511.67847375,1512.4726385410002,1512.465010916,,,,,,,,,,,,,,,,,,,,,,,,,,,,,,,,,,,1512.467579,1512.4726385410002,1512.4726385410002,1512.9830963329998,g,1.0,0.4995946250000997,,,,,,sub-035,1,stroop_test,59.90557383919684,
,,,,71.0,11.0,5.0,,,,,,,,,,,,,blau,blue,b,1.0,b,1.0,0.8527929580000091,,,,,,,,,,5.0,11.0,71.0,5.0,1512.9898621250002,,,,,,,,,,,,,,,,,1512.983506458,1513.34511125,1514.1451813330002,1514.131309125,,,,,,,,,,,,,,,,,,,,,,,,,,,,,,,,,,,1514.131604125,1514.1451813330002,1514.1451813330002,1515.0094108330002,b,1.0,0.8527929580000091,,,,,,sub-035,1,stroop_test,59.90557383919684,
,,,,72.0,0.0,6.0,,,,,,,,,,,,,rot,yellow,g,0.0,b,0.0,0.4412341659999583,,,,,,,,,,6.0,0.0,72.0,3.0,1515.0283526249998,,,,,,,,,,,,,,,,,1515.009764541,1515.361699458,1516.161364375,1516.1473387909998,,,,,,,,,,,,,,,,,,,,,,,,,,,,,,,,,,,1516.1488499579998,1516.161364375,1516.161364375,1516.616313583,b,0.0,0.4412341659999583,,,,,,sub-035,1,stroop_test,59.90557383919684,
,,,,73.0,1.0,6.0,,,,,,,,,,,,,blau,blue,b,1.0,b,1.0,0.5295204590001958,,,,,,,,,,6.0,1.0,73.0,5.0,1516.622972541,,,,,,,,,,,,,,,,,1516.616752791,1517.828433416,1518.6224154580002,1518.614709708,,,,,,,,,,,,,,,,,,,,,,,,,,,,,,,,,,,1518.617287666,1518.6224154580002,1518.6224154580002,1519.166086,b,1.0,0.5295204590001958,,,,,,sub-035,1,stroop_test,59.90557383919684,
,,,,74.0,2.0,6.0,,,,,,,,,,,,,blau,blue,b,1.0,b,1.0,0.4392569999999978,,,,,,,,,,6.0,2.0,74.0,6.0,1519.173091,,,,,,,,,,,,,,,,,1519.166478583,1519.9783448750002,1520.7784355,1520.76466675,,,,,,,,,,,,,,,,,,,,,,,,,,,,,,,,,,,1520.7650085409998,1520.7784355,1520.7784355,1521.232597,b,1.0,0.4392569999999978,,,,,,sub-035,1,stroop_test,59.90557383919684,
,,,,75.0,3.0,6.0,,,,,,,,,,,,,gelb,blue,b,0.0,b,1.0,0.4972603340002024,,,,,,,,,,6.0,3.0,75.0,9.0,1521.2400087080002,,,,,,,,,,,,,,,,,1521.233000333,1521.345067,1522.139136916,1522.131567833,,,,,,,,,,,,,,,,,,,,,,,,,,,,,,,,,,,1522.134167458,1522.139136916,1522.139136916,1522.6497590410002,b,1.0,0.4972603340002024,,,,,,sub-035,1,stroop_test,59.90557383919684,
,,,,76.0,4.0,6.0,,,,,,,,,,,,,rot,red,r,1.0,r,1.0,0.4710771250001926,,,,,,,,,,6.0,4.0,76.0,0.0,1522.6566535,,,,,,,,,,,,,,,,,1522.6501584159998,1523.8618022080002,1524.6557215,1524.6480211250002,,,,,,,,,,,,,,,,,,,,,,,,,,,,,,,,,,,1524.6505624580002,1524.6557215,1524.6557215,1525.1328782080002,r,1.0,0.4710771250001926,,,,,,sub-035,1,stroop_test,59.90557383919684,
,,,,77.0,5.0,6.0,,,,,,,,,,,,,rot,blue,b,0.0,b,1.0,1.3409157090000008,,,,,,,,,,6.0,5.0,77.0,2.0,1525.140049666,,,,,,,,,,,,,,,,,1525.133314583,1526.345109666,1527.145027875,1527.131371666,,,,,,,,,,,,,,,,,,,,,,,,,,,,,,,,,,,1527.131680458,1527.145027875,1527.145027875,1528.49974275,b,1.0,1.3409157090000008,,,,,,sub-035,1,stroop_test,59.90557383919684,
,,,,78.0,6.0,6.0,,,,,,,,,,,,,gelb,yellow,g,1.0,g,1.0,0.5959932499999923,,,,,,,,,,6.0,6.0,78.0,11.0,1528.507045083,,,,,,,,,,,,,,,,,1528.5001584160002,1528.861730291,1529.65574925,1529.6482630829998,,,,,,,,,,,,,,,,,,,,,,,,,,,,,,,,,,,1529.6507772910002,1529.65574925,1529.65574925,1530.265930875,g,1.0,0.5959932499999923,,,,,,sub-035,1,stroop_test,59.90557383919684,
,,,,79.0,7.0,6.0,,,,,,,,,,,,,blau,yellow,g,0.0,g,1.0,0.5507350830002906,,,,,,,,,,6.0,7.0,79.0,7.0,1530.27289575,,,,,,,,,,,,,,,,,1530.2663343749998,1530.628373416,1531.4223771660002,1531.414969791,,,,,,,,,,,,,,,,,,,,,,,,,,,,,,,,,,,1531.417546708,1531.4223771660002,1531.4223771660002,1531.9827951660002,g,1.0,0.5507350830002906,,,,,,sub-035,1,stroop_test,59.90557383919684,
,,,,80.0,8.0,6.0,,,,,,,,,,,,,gelb,red,r,0.0,r,1.0,0.717013708000195,,,,,,,,,,6.0,8.0,80.0,8.0,1531.990108375,,,,,,,,,,,,,,,,,1531.9832383750002,1533.1950611660002,1533.989489125,1533.981696125,,,,,,,,,,,,,,,,,,,,,,,,,,,,,,,,,,,1533.9842648330002,1533.989489125,1533.989489125,1534.716189125,r,1.0,0.717013708000195,,,,,,sub-035,1,stroop_test,59.90557383919684,
,,,,81.0,9.0,6.0,,,,,,,,,,,,,gelb,yellow,g,1.0,g,1.0,0.6784641250001187,,,,,,,,,,6.0,9.0,81.0,10.0,1534.7232793750002,,,,,,,,,,,,,,,,,1534.716595916,1535.0784901660002,1535.878380583,1535.864661291,,,,,,,,,,,,,,,,,,,,,,,,,,,,,,,,,,,1535.8649857080002,1535.878380583,1535.878380583,1536.5662141250002,g,1.0,0.6784641250001187,,,,,,sub-035,1,stroop_test,59.90557383919684,
,,,,82.0,10.0,6.0,,,,,,,,,,,,,rot,red,r,1.0,r,1.0,0.7552620000001298,,,,,,,,,,6.0,10.0,82.0,1.0,1536.573276291,,,,,,,,,,,,,,,,,1536.5666130000002,1536.9283524159998,1537.722940333,1537.714676875,,,,,,,,,,,,,,,,,,,,,,,,,,,,,,,,,,,1537.717222041,1537.722940333,1537.722940333,1538.4829725410002,r,1.0,0.7552620000001298,,,,,,sub-035,1,stroop_test,59.90557383919684,
,,,,83.0,11.0,6.0,,,,,,,,,,,,,blau,red,r,0.0,r,1.0,0.6763383340003202,,,,,,,,,,6.0,11.0,83.0,4.0,1538.490043875,,,,,,,,,,,,,,,,,1538.483369791,1538.5951469580002,1539.389353833,1539.381278708,,,,,,,,,,,,,,,,,,,,,,,,,,,,,,,,,,,1539.3842499159998,1539.389353833,1539.389353833,1540.083032583,r,1.0,0.6763383340003202,,,,,,sub-035,1,stroop_test,59.90557383919684,
,,,,84.0,0.0,7.0,,,,,,,,,,,,,gelb,yellow,g,1.0,g,1.0,0.8732587499998772,,,,,,,,,,7.0,0.0,84.0,11.0,1540.0903138330002,,,,,,,,,,,,,,,,,1540.083457291,1541.295079875,1542.0885609160002,1542.081359166,,,,,,,,,,,,,,,,,,,,,,,,,,,,,,,,,,,1542.083955125,1542.0885609160002,1542.0885609160002,1542.966486291,g,1.0,0.8732587499998772,,,,,,sub-035,1,stroop_test,59.90557383919684,
,,,,85.0,1.0,7.0,,,,,,,,,,,,,blau,red,r,0.0,r,1.0,1.1126394590000928,,,,,,,,,,7.0,1.0,85.0,4.0,1542.973683333,,,,,,,,,,,,,,,,,1542.96691725,1543.328514125,1544.1222353330002,1544.114697875,,,,,,,,,,,,,,,,,,,,,,,,,,,,,,,,,,,1544.11725625,1544.1222353330002,1544.1222353330002,1545.247346166,r,1.0,1.1126394590000928,,,,,,sub-035,1,stroop_test,59.90557383919684,
,,,,86.0,2.0,7.0,,,,,,,,,,,,,rot,yellow,g,0.0,g,1.0,0.974468583000089,,,,,,,,,,7.0,2.0,86.0,3.0,1545.261256083,,,,,,,,,,,,,,,,,1545.2475552500002,1545.611351875,1546.4054320409998,1546.398014666,,,,,,,,,,,,,,,,,,,,,,,,,,,,,,,,,,,1546.4005545000002,1546.4054320409998,1546.4054320409998,1547.382692375,g,1.0,0.974468583000089,,,,,,sub-035,1,stroop_test,59.90557383919684,
,,,,87.0,3.0,7.0,,,,,,,,,,,,,rot,red,r,1.0,r,1.0,0.6958513330000642,,,,,,,,,,7.0,3.0,87.0,0.0,1547.389959791,,,,,,,,,,,,,,,,,1547.3831145830002,1547.744698375,1548.5448118329998,1548.531267916,,,,,,,,,,,,,,,,,,,,,,,,,,,,,,,,,,,1548.531515291,1548.5448118329998,1548.5448118329998,1549.2496791249998,r,1.0,0.6958513330000642,,,,,,sub-035,1,stroop_test,59.90557383919684,
,,,,88.0,4.0,7.0,,,,,,,,,,,,,blau,blue,b,1.0,b,1.0,1.00880429200015,,,,,,,,,,7.0,4.0,88.0,6.0,1549.256481,,,,,,,,,,,,,,,,,1549.250085625,1549.611749541,1550.406148666,1550.398093041,,,,,,,,,,,,,,,,,,,,,,,,,,,,,,,,,,,1550.400737833,1550.406148666,1550.406148666,1551.433011791,b,1.0,1.00880429200015,,,,,,sub-035,1,stroop_test,59.90557383919684,
,,,,89.0,5.0,7.0,,,,,,,,,,,,,blau,yellow,g,0.0,g,1.0,1.0102335840001615,,,,,,,,,,7.0,5.0,89.0,7.0,1551.4397420829998,,,,,,,,,,,,,,,,,1551.433435916,1552.245081166,1553.045120291,1553.031308833,,,,,,,,,,,,,,,,,,,,,,,,,,,,,,,,,,,1553.031611875,1553.045120291,1553.045120291,1554.0662344999998,g,1.0,1.0102335840001615,,,,,,sub-035,1,stroop_test,59.90557383919684,
,,,,90.0,6.0,7.0,,,,,,,,,,,,,rot,red,r,1.0,r,1.0,0.7627948750000542,,,,,,,,,,7.0,6.0,90.0,1.0,1554.073220166,,,,,,,,,,,,,,,,,1554.0666212909998,1554.4284302080002,1555.222651458,1555.2149913330002,,,,,,,,,,,,,,,,,,,,,,,,,,,,,,,,,,,1555.217547291,1555.222651458,1555.222651458,1556.000003333,r,1.0,0.7627948750000542,,,,,,sub-035,1,stroop_test,59.90557383919684,
,,,,91.0,7.0,7.0,,,,,,,,,,,,,gelb,red,r,0.0,r,1.0,0.6177663329999632,,,,,,,,,,7.0,7.0,91.0,8.0,1556.0067848330002,,,,,,,,,,,,,,,,,1556.0004043330002,1556.361758708,1557.1565416249998,1557.1483732079998,,,,,,,,,,,,,,,,,,,,,,,,,,,,,,,,,,,1557.15095725,1557.1565416249998,1557.1565416249998,1557.782994166,r,1.0,0.6177663329999632,,,,,,sub-035,1,stroop_test,59.90557383919684,
,,,,92.0,8.0,7.0,,,,,,,,,,,,,gelb,yellow,g,1.0,g,1.0,0.7100895409998884,,,,,,,,,,7.0,8.0,92.0,10.0,1557.7903795,,,,,,,,,,,,,,,,,1557.7834305,1557.895057333,1558.6951115,1558.681395458,,,,,,,,,,,,,,,,,,,,,,,,,,,,,,,,,,,1558.681739333,1558.6951115,1558.6951115,1559.416349541,g,1.0,0.7100895409998884,,,,,,sub-035,1,stroop_test,59.90557383919684,
,,,,93.0,9.0,7.0,,,,,,,,,,,,,rot,blue,b,0.0,b,1.0,0.8603764579997915,,,,,,,,,,7.0,9.0,93.0,2.0,1559.423617875,,,,,,,,,,,,,,,,,1559.416790041,1560.628430458,1561.4232344999998,1561.4152511250002,,,,,,,,,,,,,,,,,,,,,,,,,,,,,,,,,,,1561.4182116660002,1561.4232344999998,1561.4232344999998,1562.299567166,b,1.0,0.8603764579997915,,,,,,sub-035,1,stroop_test,59.90557383919684,
,,,,94.0,10.0,7.0,,,,,,,,,,,,,blau,blue,b,1.0,b,1.0,0.6610785420002685,,,,,,,,,,7.0,10.0,94.0,5.0,1562.3059690409998,,,,,,,,,,,,,,,,,1562.299966125,1563.11175975,1563.905914625,1563.898102,,,,,,,,,,,,,,,,,,,,,,,,,,,,,,,,,,,1563.900691875,1563.905914625,1563.905914625,1564.583121666,b,1.0,0.6610785420002685,,,,,,sub-035,1,stroop_test,59.90557383919684,
,,,,95.0,11.0,7.0,,,,,,,,,,,,,gelb,blue,b,0.0,b,1.0,0.6467285830003675,,,,,,,,,,7.0,11.0,95.0,9.0,1564.589899833,,,,,,,,,,,,,,,,,1564.58352525,1565.795139,1566.589265375,1566.5818164999998,,,,,,,,,,,,,,,,,,,,,,,,,,,,,,,,,,,1566.584440583,1566.589265375,1566.589265375,1567.250254791,b,1.0,0.6467285830003675,,,,,,sub-035,1,stroop_test,59.90557383919684,
,,,,96.0,0.0,8.0,,,,,,,,,,,,,rot,blue,b,0.0,b,1.0,0.4620422079997297,,,,,,,,,,8.0,0.0,96.0,2.0,1567.2566935830002,,,,,,,,,,,,,,,,,1567.250651125,1567.61185375,1568.4054977080002,1568.39804025,,,,,,,,,,,,,,,,,,,,,,,,,,,,,,,,,,,1568.400588541,1568.4054977080002,1568.4054977080002,1568.8835445410002,b,1.0,0.4620422079997297,,,,,,sub-035,1,stroop_test,59.90557383919684,
,,,,97.0,1.0,8.0,,,,,,,,,,,,,gelb,red,r,0.0,r,1.0,0.7659314580000682,,,,,,,,,,8.0,1.0,97.0,8.0,1568.88984825,,,,,,,,,,,,,,,,,1568.883977833,1568.9951438750002,1569.789544,1569.781363166,,,,,,,,,,,,,,,,,,,,,,,,,,,,,,,,,,,1569.783958833,1569.789544,1569.789544,1570.566318166,r,1.0,0.7659314580000682,,,,,,sub-035,1,stroop_test,59.90557383919684,
,,,,98.0,2.0,8.0,,,,,,,,,,,,,blau,blue,b,1.0,b,1.0,0.6862122080001427,,,,,,,,,,8.0,2.0,98.0,6.0,1570.573381208,,,,,,,,,,,,,,,,,1570.5667231250002,1571.778466458,1572.572923541,1572.565110583,,,,,,,,,,,,,,,,,,,,,,,,,,,,,,,,,,,1572.567694875,1572.572923541,1572.572923541,1573.266427958,b,1.0,0.6862122080001427,,,,,,sub-035,1,stroop_test,59.90557383919684,
,,,,99.0,3.0,8.0,,,,,,,,,,,,,gelb,yellow,g,1.0,g,1.0,0.5919743750000634,,,,,,,,,,8.0,3.0,99.0,11.0,1573.273591125,,,,,,,,,,,,,,,,,1573.2668689160002,1573.6284359580002,1574.422896833,1574.4146915,,,,,,,,,,,,,,,,,,,,,,,,,,,,,,,,,,,1574.4176557910002,1574.422896833,1574.422896833,1575.032746791,g,1.0,0.5919743750000634,,,,,,sub-035,1,stroop_test,59.90557383919684,
,,,,100.0,4.0,8.0,,,,,,,,,,,,,gelb,yellow,g,1.0,g,1.0,0.4613906250001491,,,,,,,,,,8.0,4.0,100.0,10.0,1575.0391848749998,,,,,,,,,,,,,,,,,1575.033176583,1575.145161625,1575.945193166,1575.9317535409998,,,,,,,,,,,,,,,,,,,,,,,,,,,,,,,,,,,1575.932111333,1575.945193166,1575.945193166,1576.416115583,g,1.0,0.4613906250001491,,,,,,sub-035,1,stroop_test,59.90557383919684,
,,,,101.0,5.0,8.0,,,,,,,,,,,,,rot,red,r,1.0,r,1.0,0.6687678749999577,,,,,,,,,,8.0,5.0,101.0,0.0,1576.423551125,,,,,,,,,,,,,,,,,1576.4165087909998,1576.5284343330002,1577.323171416,1577.315315958,,,,,,,,,,,,,,,,,,,,,,,,,,,,,,,,,,,1577.318315708,1577.323171416,1577.323171416,1577.999728041,r,1.0,0.6687678749999577,,,,,,sub-035,1,stroop_test,59.90557383919684,
,,,,102.0,6.0,8.0,,,,,,,,,,,,,gelb,blue,b,0.0,b,1.0,1.1603059169997323,,,,,,,,,,8.0,6.0,102.0,9.0,1578.0068616659998,,,,,,,,,,,,,,,,,1578.000140791,1578.811764875,1579.60557,1579.5980485829998,,,,,,,,,,,,,,,,,,,,,,,,,,,,,,,,,,,1579.600574791,1579.60557,1579.60557,1580.783170375,b,1.0,1.1603059169997323,,,,,,sub-035,1,stroop_test,59.90557383919684,
,,,,103.0,7.0,8.0,,,,,,,,,,,,,blau,red,r,0.0,r,1.0,0.6626208330003465,,,,,,,,,,8.0,7.0,103.0,4.0,1580.789988666,,,,,,,,,,,,,,,,,1580.783619125,1580.895218166,1581.6895835829998,1581.6819885410002,,,,,,,,,,,,,,,,,,,,,,,,,,,,,,,,,,,1581.68499,1581.6895835829998,1581.6895835829998,1582.366293708,r,1.0,0.6626208330003465,,,,,,sub-035,1,stroop_test,59.90557383919684,
,,,,104.0,8.0,8.0,,,,,,,,,,,,,blau,yellow,g,0.0,g,1.0,0.4881945830002223,,,,,,,,,,8.0,8.0,104.0,7.0,1582.373024333,,,,,,,,,,,,,,,,,1582.36671025,1583.578088083,1584.378642166,1584.3646943330002,,,,,,,,,,,,,,,,,,,,,,,,,,,,,,,,,,,1584.364995875,1584.378642166,1584.378642166,1584.883200125,g,1.0,0.4881945830002223,,,,,,sub-035,1,stroop_test,59.90557383919684,
,,,,105.0,9.0,8.0,,,,,,,,,,,,,rot,red,r,1.0,r,1.0,0.5715340420001667,,,,,,,,,,8.0,9.0,105.0,1.0,1584.889969958,,,,,,,,,,,,,,,,,1584.883627208,1586.095159875,1586.889399,1586.881487083,,,,,,,,,,,,,,,,,,,,,,,,,,,,,,,,,,,1586.884048625,1586.889399,1586.889399,1587.466530541,r,1.0,0.5715340420001667,,,,,,sub-035,1,stroop_test,59.90557383919684,
,,,,106.0,10.0,8.0,,,,,,,,,,,,,blau,blue,b,1.0,b,1.0,0.6386184170000888,,,,,,,,,,8.0,10.0,106.0,5.0,1587.473664166,,,,,,,,,,,,,,,,,1587.4669512910002,1587.828579916,1588.6228871659998,1588.614786125,,,,,,,,,,,,,,,,,,,,,,,,,,,,,,,,,,,1588.617386625,1588.6228871659998,1588.6228871659998,1589.2663410829998,b,1.0,0.6386184170000888,,,,,,sub-035,1,stroop_test,59.90557383919684,
,,,,107.0,11.0,8.0,,,,,,,,,,,,,rot,yellow,g,0.0,g,1.0,0.8177668749999611,,,,,,,,,,8.0,11.0,107.0,3.0,1589.273421791,,,,,,,,,,,,,,,,,1589.266775166,1589.628515583,1590.4222377080002,1590.414788333,,,,,,,,,,,,,,,,,,,,,,,,,,,,,,,,,,,1590.417278916,1590.4222377080002,1590.4222377080002,1591.249794708,g,1.0,0.8177668749999611,,,,,,sub-035,1,stroop_test,59.90557383919684,
,,,,108.0,0.0,9.0,,,,,,,,,,,,,gelb,yellow,g,1.0,g,1.0,0.5500150419998135,,,,,,,,,,9.0,0.0,108.0,10.0,1591.2570482909998,,,,,,,,,,,,,,,,,1591.250207875,1591.611769,1592.406132125,1592.398118333,,,,,,,,,,,,,,,,,,,,,,,,,,,,,,,,,,,1592.400727458,1592.406132125,1592.406132125,1592.966563791,g,1.0,0.5500150419998135,,,,,,sub-035,1,stroop_test,59.90557383919684,
,,,,109.0,1.0,9.0,,,,,,,,,,,,,gelb,blue,b,0.0,b,1.0,0.600759041999936,,,,,,,,,,9.0,1.0,109.0,9.0,1592.973715666,,,,,,,,,,,,,,,,,1592.966977333,1593.0784969160002,1593.8786108749998,1593.8647075,,,,,,,,,,,,,,,,,,,,,,,,,,,,,,,,,,,1593.865038,1593.8786108749998,1593.8786108749998,1594.481815416,b,1.0,0.600759041999936,,,,,,sub-035,1,stroop_test,59.90557383919684,
,,,,110.0,2.0,9.0,,,,,,,,,,,,,gelb,red,r,0.0,r,1.0,0.5062384160000875,,,,,,,,,,9.0,2.0,110.0,8.0,1594.49488975,,,,,,,,,,,,,,,,,1594.4821143329998,1595.69520725,1596.495245208,1596.481409875,,,,,,,,,,,,,,,,,,,,,,,,,,,,,,,,,,,1596.4817719159998,1596.495245208,1596.495245208,1597.016455625,r,1.0,0.5062384160000875,,,,,,sub-035,1,stroop_test,59.90557383919684,
,,,,111.0,3.0,9.0,,,,,,,,,,,,,gelb,yellow,g,1.0,g,1.0,0.6209532079997189,,,,,,,,,,9.0,3.0,111.0,11.0,1597.0227714159998,,,,,,,,,,,,,,,,,1597.016859166,1597.378650708,1598.178268125,1598.164363708,,,,,,,,,,,,,,,,,,,,,,,,,,,,,,,,,,,1598.164675708,1598.178268125,1598.178268125,1598.8164172079998,g,1.0,0.6209532079997189,,,,,,sub-035,1,stroop_test,59.90557383919684,
,,,,112.0,4.0,9.0,,,,,,,,,,,,,rot,red,r,1.0,r,1.0,0.5457890409998072,,,,,,,,,,9.0,4.0,112.0,0.0,1598.823432625,,,,,,,,,,,,,,,,,1598.816822041,1598.928558125,1599.722662041,1599.715157,,,,,,,,,,,,,,,,,,,,,,,,,,,,,,,,,,,1599.7177693750002,1599.722662041,1599.722662041,1600.282554791,r,1.0,0.5457890409998072,,,,,,sub-035,1,stroop_test,59.90557383919684,
,,,,113.0,5.0,9.0,,,,,,,,,,,,,blau,yellow,g,0.0,g,1.0,0.4397703750000801,,,,,,,,,,9.0,5.0,113.0,7.0,1600.2895311660002,,,,,,,,,,,,,,,,,1600.282953916,1600.395140166,1601.189452333,1601.181504083,,,,,,,,,,,,,,,,,,,,,,,,,,,,,,,,,,,1601.1840802079998,1601.189452333,1601.189452333,1601.632849333,g,1.0,0.4397703750000801,,,,,,sub-035,1,stroop_test,59.90557383919684,
,,,,114.0,6.0,9.0,,,,,,,,,,,,,blau,blue,b,1.0,b,1.0,0.5400299169996288,,,,,,,,,,9.0,6.0,114.0,5.0,1601.639894791,,,,,,,,,,,,,,,,,1601.633245333,1602.444946666,1603.245272708,1603.231508666,,,,,,,,,,,,,,,,,,,,,,,,,,,,,,,,,,,1603.231803416,1603.245272708,1603.245272708,1603.7993344580002,b,1.0,0.5400299169996288,,,,,,sub-035,1,stroop_test,59.90557383919684,
,,,,115.0,7.0,9.0,,,,,,,,,,,,,blau,red,r,0.0,r,1.0,0.6768761250000352,,,,,,,,,,9.0,7.0,115.0,4.0,1603.8064862909998,,,,,,,,,,,,,,,,,1603.7997350409998,1603.9118085409998,1604.7118683330002,1604.698535541,,,,,,,,,,,,,,,,,,,,,,,,,,,,,,,,,,,1604.6988828750002,1604.7118683330002,1604.7118683330002,1605.399675,r,1.0,0.6768761250000352,,,,,,sub-035,1,stroop_test,59.90557383919684,
,,,,116.0,8.0,9.0,,,,,,,,,,,,,rot,yellow,g,0.0,g,1.0,0.4264845839998088,,,,,,,,,,9.0,8.0,116.0,3.0,1605.4069525830002,,,,,,,,,,,,,,,,,1605.400108041,1606.2118923750002,1607.0052845409998,1606.998039041,,,,,,,,,,,,,,,,,,,,,,,,,,,,,,,,,,,1607.000361708,1607.0052845409998,1607.0052845409998,1607.4434588330002,g,1.0,0.4264845839998088,,,,,,sub-035,1,stroop_test,59.90557383919684,
,,,,117.0,9.0,9.0,,,,,,,,,,,,,rot,red,r,1.0,r,1.0,0.7232103329997699,,,,,,,,,,9.0,9.0,117.0,1.0,1607.461834208,,,,,,,,,,,,,,,,,1607.44382725,1607.79519275,1608.595297708,1608.581407416,,,,,,,,,,,,,,,,,,,,,,,,,,,,,,,,,,,1608.5817090409998,1608.595297708,1608.595297708,1609.332864583,r,1.0,0.7232103329997699,,,,,,sub-035,1,stroop_test,59.90557383919684,
,,,,118.0,10.0,9.0,,,,,,,,,,,,,blau,blue,b,1.0,b,1.0,0.4244167080000807,,,,,,,,,,9.0,10.0,118.0,6.0,1609.339553125,,,,,,,,,,,,,,,,,1609.333270166,1609.69533175,1610.4890524579998,1610.481823166,,,,,,,,,,,,,,,,,,,,,,,,,,,,,,,,,,,1610.484405625,1610.4890524579998,1610.4890524579998,1610.9161779580002,b,1.0,0.4244167080000807,,,,,,sub-035,1,stroop_test,59.90557383919684,
,,,,119.0,11.0,9.0,,,,,,,,,,,,,rot,blue,b,0.0,b,1.0,1.316684541000086,,,,,,,,,,9.0,11.0,119.0,2.0,1610.9228425,,,,,,,,,,,,,,,,,1610.91658625,1611.0285753330002,1611.82334075,1611.815263833,,,,,,,,,,,,,,,,,,,,,,,,,,,,,,,,,,,1611.8178152080002,1611.82334075,1611.82334075,1613.150104958,b,1.0,1.316684541000086,,,,,,sub-035,1,stroop_test,59.90557383919684,
,,,,,,,,,,,,,,,,,,,,,,,,,,,,,,,,,,,,,,,,,,,,,,,,,,,,,,,,,,,,,,,,,,,,,,,,,,,,,,,,,,,,,,,,,,,,,,,,,,,,,,1613.15033375,1613.157554541,1618.161967625,1618.148149208,sub-035,1,stroop_test,59.90557383919684,
