wordCTK,colorCTK,corrAnsCTK,congruentCTK,thisN,thisTrialN,thisRepN,keyResp_CTK.keys,keyResp_CTK.corr,keyResp_CTK.rt,keyResp_CTK.duration,wordPractice,colorPractice,corrAnsPractice,congruentPractice,respPractice.keys,respPractice.corr,respPractice.rt,respPractice.duration,word,color,corrAns,congruent,keyResp_test_run.keys,keyResp_test_run.corr,keyResp_test_run.rt,keyResp_test_run.duration,trials_CTK.thisRepN,trials_CTK.thisTrialN,trials_CTK.thisN,trials_CTK.thisIndex,trials_practice.thisRepN,trials_practice.thisTrialN,trials_practice.thisN,trials_practice.thisIndex,trials_test.thisRepN,trials_test.thisTrialN,trials_test.thisN,trials_test.thisIndex,thisRow.t,notes,instruction.started,instr_text.started,instr_image.started,instr_resp.started,instruction.stopped,instr_resp.keys,instr_resp.rt,instr_resp.duration,instr_color_to_key.started,instr_ctk.started,resp_ctk.started,instr_color_to_key.stopped,resp_ctk.keys,resp_ctk.rt,resp_ctk.duration,ITI.started,fixcross.started,fixcross.stopped,ITI.stopped,color_to_key_run.started,stimulus_CTK.started,keyResp_CTK.started,color_to_key_run.stopped,trials_CTK.keyResp_CTK.keys,trials_CTK.keyResp_CTK.corr,trials_CTK.keyResp_CTK.rt,trials_CTK.keyResp_CTK.duration,instr_practice.started,instr_practice_text.started,instr_practice_resp.started,instr_practice.stopped,instr_practice_resp.keys,instr_practice_resp.rt,instr_practice_resp.duration,practice_run.started,stimulus_practice.started,respPractice.started,practice_run.stopped,trials_practice.respPractice.keys,trials_practice.respPractice.corr,trials_practice.respPractice.rt,trials_practice.respPractice.duration,feedback.started,textFeedback.started,textFeedback.stopped,feedback.stopped,instr_test.started,instr_test_text.started,instr_test_resp.started,instr_test.stopped,instr_test_resp.keys,instr_test_resp.rt,instr_test_resp.duration,test_run.started,stimulus_test_run.started,keyResp_test_run.started,test_run.stopped,trials_test.keyResp_test_run.keys,trials_test.keyResp_test_run.corr,trials_test.keyResp_test_run.rt,trials_test.keyResp_test_run.duration,goodbye.started,textGoodbye.started,participant,session,expName,frameRate,Unnamed: 111
,,,,,,,,,,,,,,,,,,,,,,,,,,,,,,,,,,,,,,,,,0.0093611249976675,0.0273298749998502,0.0273298749998502,0.0273298749998502,6.332117707999714,space,6.293828249999933,,,,,,,,,,,,,,,,,,,,,,,,,,,,,,,,,,,,,,,,,,,,,,,,,,,,,,,,,sub-222,1.0,stroop_test,,
,,,,,,,,,,,,,,,,,,,,,,,,,,,,,,,,,,,,,,,,,,,,,,,,,6.332201290999365,6.349775750000845,6.349775750000845,7.11556550000023,space,0.7588369170007354,,,,,,,,,,,,,,,,,,,,,,,,,,,,,,,,,,,,,,,,,,,,,,,,,,sub-222,1.0,stroop_test,,
test,red,r,1.0,0.0,0.0,0.0,r,1.0,1.1568201249974663,,,,,,,,,,,,,,,,,,0.0,0.0,0.0,0.0,,,,,,,,,7.152662374999636,,,,,,,,,,,,,,,,,7.13632087500082,8.316604499999812,9.116868416000216,9.104263749999518,9.111252915998191,9.116868416000216,9.116868416000216,10.282484874998772,r,1.0,1.1568201249974663,,,,,,,,,,,,,,,,,,,,,,,,,,,,,,,,,,,,,,sub-222,1.0,stroop_test,,
test,blue,b,1.0,1.0,1.0,0.0,b,1.0,1.0264583749994929,,,,,,,,,,,,,,,,,,0.0,1.0,1.0,2.0,,,,,,,,,10.290849249999155,,,,,,,,,,,,,,,,,10.28298445800101,11.480646957999852,12.272477374997834,12.26466495799832,12.265341833001004,12.272477374997834,12.272477374997834,13.304420541000582,b,1.0,1.0264583749994929,,,,,,,,,,,,,,,,,,,,,,,,,,,,,,,,,,,,,,sub-222,1.0,stroop_test,,
test,yellow,g,1.0,2.0,2.0,0.0,g,1.0,0.8421971669995401,,,,,,,,,,,,,,,,,,0.0,2.0,2.0,1.0,,,,,,,,,13.313251457999286,,,,,,,,,,,,,,,,,13.304993624999042,14.103405499998187,14.896601000000372,14.887427124998794,14.888153666001015,14.896601000000372,14.896601000000372,15.749323832998924,g,1.0,0.8421971669995401,,,,,,,,,,,,,,,,,,,,,,,,,,,,,,,,,,,,,,sub-222,1.0,stroop_test,,
test,blue,b,1.0,3.0,0.0,1.0,b,1.0,0.9772977499997068,,,,,,,,,,,,,,,,,,1.0,0.0,3.0,2.0,,,,,,,,,15.759212082997692,,,,,,,,,,,,,,,,,15.749921291000646,16.947231333000673,17.73908716599908,17.73139649999939,17.732120000000577,17.73908716599908,17.73908716599908,18.722053082998173,b,1.0,0.9772977499997068,,,,,,,,,,,,,,,,,,,,,,,,,,,,,,,,,,,,,,sub-222,1.0,stroop_test,,
test,yellow,g,1.0,4.0,1.0,1.0,g,1.0,1.1518650420002814,,,,,,,,,,,,,,,,,,1.0,1.0,4.0,1.0,,,,,,,,,18.73236654100037,,,,,,,,,,,,,,,,,18.7225926659994,19.520142999997915,20.31247749999966,20.30419241599884,20.30489204100013,20.31247749999966,20.31247749999966,21.46604687500076,g,1.0,1.1518650420002814,,,,,,,,,,,,,,,,,,,,,,,,,,,,,,,,,,,,,,sub-222,1.0,stroop_test,,
test,red,r,1.0,5.0,2.0,1.0,r,1.0,0.5799573750009586,,,,,,,,,,,,,,,,,,1.0,2.0,5.0,0.0,,,,,,,,,21.48053654099931,,,,,,,,,,,,,,,,,21.46636791600031,22.26393245799773,23.05635324999821,23.047977750000427,23.049041540998587,23.05635324999821,23.05635324999821,23.6385766659987,r,1.0,0.5799573750009586,,,,,,,,,,,,,,,,,,,,,,,,,,,,,,,,,,,,,,sub-222,1.0,stroop_test,,
test,yellow,g,1.0,6.0,0.0,2.0,g,1.0,0.6145095829997445,,,,,,,,,,,,,,,,,,2.0,0.0,6.0,1.0,,,,,,,,,23.66347308300101,,,,,,,,,,,,,,,,,23.63906962499823,23.986988874999952,24.77966324999943,24.77140537499872,24.772074124997744,24.77966324999943,24.77966324999943,25.39834245800012,g,1.0,0.6145095829997445,,,,,,,,,,,,,,,,,,,,,,,,,,,,,,,,,,,,,,sub-222,1.0,stroop_test,,
test,blue,b,1.0,7.0,1.0,2.0,b,1.0,0.8360215840002638,,,,,,,,,,,,,,,,,,2.0,1.0,7.0,2.0,,,,,,,,,25.4057366249981,,,,,,,,,,,,,,,,,25.398650708000787,25.747250415999588,26.539291249999224,26.531264458000805,26.531949457999872,26.539291249999224,26.539291249999224,27.382673583000724,b,1.0,0.8360215840002638,,,,,,,,,,,,,,,,,,,,,,,,,,,,,,,,,,,,,,sub-222,1.0,stroop_test,,
test,red,r,1.0,8.0,2.0,2.0,r,1.0,0.7917342079999798,,,,,,,,,,,,,,,,,,2.0,2.0,8.0,0.0,,,,,,,,,27.39235674999873,,,,,,,,,,,,,,,,,27.38327033300084,27.73062495799968,28.52263770799982,28.51473674999943,28.51562937500057,28.52263770799982,28.52263770799982,29.31674299999941,r,1.0,0.7917342079999798,,,,,,,,,,,,,,,,,,,,,,,,,,,,,,,,,,,,,,sub-222,1.0,stroop_test,,
test,blue,b,1.0,9.0,0.0,3.0,b,1.0,0.6076215409993893,,,,,,,,,,,,,,,,,,3.0,0.0,9.0,2.0,,,,,,,,,29.32430920800107,,,,,,,,,,,,,,,,,29.317195874999012,30.113819665999472,30.906290750001062,30.89805504099786,30.898944665997988,30.906290750001062,30.906290750001062,31.5163996659976,b,1.0,0.6076215409993893,,,,,,,,,,,,,,,,,,,,,,,,,,,,,,,,,,,,,,sub-222,1.0,stroop_test,,
test,red,r,1.0,10.0,1.0,3.0,r,1.0,1.3540632500007632,,,,,,,,,,,,,,,,,,3.0,1.0,10.0,0.0,,,,,,,,,31.525203375000277,,,,,,,,,,,,,,,,,31.516980165997666,32.313885957999446,33.10628029099826,33.09788916599791,33.098798082999565,33.10628029099826,33.10628029099826,34.46540341599757,r,1.0,1.3540632500007632,,,,,,,,,,,,,,,,,,,,,,,,,,,,,,,,,,,,,,sub-222,1.0,stroop_test,,
test,yellow,g,1.0,11.0,2.0,3.0,g,1.0,0.3984770840033889,,,,,,,,,,,,,,,,,,3.0,2.0,11.0,1.0,,,,,,,,,34.4732004159996,,,,,,,,,,,,,,,,,34.465876582999044,34.81377862500085,35.60557549999794,35.59789933299908,35.598639957999694,35.60557549999794,35.60557549999794,36.01568145800047,g,1.0,0.3984770840033889,,,,,,,,,,,,,,,,,,,,,,,,,,,,,,,,,,,,,,sub-222,1.0,stroop_test,,
,,,,,,,,,,,,,,,,,,,,,,,,,,,,,,,,,,,,,,,,,,,,,,,,,,,,,,,,,,,,,,,,,,,,36.01593349999894,36.02638279099847,36.02638279099847,37.416512625000905,space,1.3877887500020734,,,,,,,,,,,,,,,,,,,,,,,,,,,,,,,sub-222,1.0,stroop_test,,
,,,,0.0,0.0,0.0,,,,,blau,red,r,0.0,r,1.0,1.585656499999459,,,,,,,,,,,,,,0.0,0.0,0.0,4.0,,,,,37.43634270799885,,,,,,,,,,,,,,,,,37.429690082997695,37.76376004099802,38.56401345799895,38.547950915999536,,,,,,,,,,,,,,,,38.55736912499924,38.56401345799895,38.56401345799895,40.15452016600102,r,1.0,1.585656499999459,,40.16125241600093,40.16915033300029,41.1637513329988,41.15339229099845,,,,,,,,,,,,,,,,,,sub-222,1.0,stroop_test,,
,,,,1.0,1.0,0.0,,,,,gelb,red,r,0.0,r,1.0,1.420283625000593,,,,,,,,,,,,,,0.0,1.0,1.0,8.0,,,,,41.1637513329988,,,,,,,,,,,,,,,,,41.153829582999606,42.35344020800039,43.14885045800111,43.13658849999774,,,,,,,,,,,,,,,,43.14142745799836,43.14885045800111,43.14885045800111,44.571097290998296,r,1.0,1.420283625000593,,44.57159166600104,44.58027308300007,45.580917999999656,45.56685866599946,,,,,,,,,,,,,,,,,,sub-222,1.0,stroop_test,,
,,,,2.0,2.0,0.0,,,,,blau,blue,b,1.0,b,1.0,0.6192600419999508,,,,,,,,,,,,,,0.0,2.0,2.0,6.0,,,,,45.580917999999656,,,,,,,,,,,,,,,,,45.56737008299751,46.369595915999525,47.17249120799897,47.16407249999975,,,,,,,,,,,,,,,,47.16688070799864,47.17249120799897,47.17249120799897,47.79983704099868,b,1.0,0.6192600419999508,,47.80034587499904,47.813471749999735,48.80305329099792,48.79775233300097,,,,,,,,,,,,,,,,,,sub-222,1.0,stroop_test,,
,,,,3.0,3.0,0.0,,,,,blau,blue,b,1.0,b,1.0,0.5821086249998189,,,,,,,,,,,,,,0.0,3.0,3.0,5.0,,,,,48.80305329099792,,,,,,,,,,,,,,,,,48.79820258299878,49.59739674999946,50.38874279099764,50.38107925000077,,,,,,,,,,,,,,,,50.38174124999932,50.38874279099764,50.38874279099764,50.982158082999376,b,1.0,0.5821086249998189,,50.98287362499832,50.99154058299973,51.98703349999778,51.98111470799995,,,,,,,,,,,,,,,,,,sub-222,1.0,stroop_test,,
,,,,4.0,4.0,0.0,,,,,blau,yellow,g,0.0,g,1.0,0.6587695830021403,,,,,,,,,,,,,,0.0,4.0,4.0,7.0,,,,,51.98703349999778,,,,,,,,,,,,,,,,,51.98169324999981,52.08037520799917,52.87130025000079,52.86438491599984,,,,,,,,,,,,,,,,52.86495300000024,52.87130025000079,52.87130025000079,53.53239787499842,g,1.0,0.6587695830021403,,53.53341687499778,53.54214416600007,54.53677170800074,54.53126541600068,,,,,,,,,,,,,,,,,,sub-222,1.0,stroop_test,,
,,,,5.0,5.0,0.0,,,,,rot,red,r,1.0,r,1.0,1.0854377499999828,,,,,,,,,,,,,,0.0,5.0,5.0,1.0,,,,,54.53677170800074,,,,,,,,,,,,,,,,,54.53175158299928,54.880295625000144,55.67889591600033,55.66443333300049,,,,,,,,,,,,,,,,55.67113462499765,55.67889591600033,55.67889591600033,56.7770152080011,r,1.0,1.0854377499999828,,56.77768237499913,56.784187958000985,57.78029099999912,57.77020129099765,,,,,,,,,,,,,,,,,,sub-222,1.0,stroop_test,,
,,,,6.0,6.0,0.0,,,,,rot,blue,b,0.0,b,1.0,1.0623987919971114,,,,,,,,,,,,,,0.0,6.0,6.0,2.0,,,,,57.78029099999912,,,,,,,,,,,,,,,,,57.77064941600111,58.97010899999805,59.76214016599988,59.75370833299894,,,,,,,,,,,,,,,,59.75436249999984,59.76214016599988,59.76214016599988,60.832080332998885,b,1.0,1.0623987919971114,,60.832962500000576,60.8417229580009,61.83675500000027,61.83120291600062,,,,,,,,,,,,,,,,,,sub-222,1.0,stroop_test,,
,,,,7.0,7.0,0.0,,,,,gelb,yellow,g,1.0,r,0.0,0.6979649160020927,,,,,,,,,,,,,,0.0,7.0,7.0,11.0,,,,,61.83675500000027,,,,,,,,,,,,,,,,,61.83181229099864,62.63034549999793,63.42607700000008,63.41431695799838,,,,,,,,,,,,,,,,63.41871470800106,63.42607700000008,63.42607700000008,64.13230900000053,r,0.0,0.6979649160020927,,64.13932999999815,64.14787133299978,65.13695512499908,65.13123066600019,,,,,,,,,,,,,,,,,,sub-222,1.0,stroop_test,,
,,,,8.0,8.0,0.0,,,,,gelb,yellow,g,1.0,g,1.0,0.570398916999693,,,,,,,,,,,,,,0.0,8.0,8.0,10.0,,,,,65.13695512499908,,,,,,,,,,,,,,,,,65.13181124999755,65.23023429100067,66.02220570799909,66.01430204099961,,,,,,,,,,,,,,,,66.01497945799929,66.02220570799909,66.02220570799909,66.59857520799778,g,1.0,0.570398916999693,,66.60215854099806,66.61043066599814,67.60321241600104,67.59751324999888,,,,,,,,,,,,,,,,,,sub-222,1.0,stroop_test,,
,,,,9.0,9.0,0.0,,,,,gelb,blue,b,0.0,b,1.0,0.5682632090029074,,,,,,,,,,,,,,0.0,9.0,9.0,9.0,,,,,67.60321241600104,,,,,,,,,,,,,,,,,67.59808799999882,68.79687104099867,69.58924208299868,69.58120270799918,,,,,,,,,,,,,,,,69.58205599999928,69.58924208299868,69.58924208299868,70.16504200000054,b,1.0,0.5682632090029074,,70.16554441599874,70.1737189159976,71.16973512500044,71.16420070800086,,,,,,,,,,,,,,,,,,sub-222,1.0,stroop_test,,
,,,,10.0,10.0,0.0,,,,,rot,red,r,1.0,g,0.0,1.1527688339992892,,,,,,,,,,,,,,0.0,10.0,10.0,0.0,,,,,71.16973512500044,,,,,,,,,,,,,,,,,71.16471724999792,72.36362933299824,73.1607943329982,73.14784637499906,,,,,,,,,,,,,,,,73.1529794579983,73.1607943329982,73.1607943329982,74.31570216600085,g,0.0,1.1527688339992892,,74.31922487499833,74.32802124999944,75.31943324999884,75.31410666599913,,,,,,,,,,,,,,,,,,sub-222,1.0,stroop_test,,
,,,,11.0,11.0,0.0,,,,,rot,yellow,g,0.0,g,1.0,1.9634362919969133,,,,,,,,,,,,,,0.0,11.0,11.0,3.0,,,,,75.31943324999884,,,,,,,,,,,,,,,,,75.31455645800088,75.66361324999889,76.45576620800057,76.44747908299905,,,,,,,,,,,,,,,,76.44817400000102,76.45576620800057,76.45576620800057,78.42374700000073,g,1.0,1.9634362919969133,,78.42885508299878,78.43825699999798,,79.4302780830003,,,,,,,,,,,,,,,,,,sub-222,1.0,stroop_test,,
,,,,12.0,0.0,1.0,,,,,blau,yellow,g,0.0,g,1.0,1.0956548329995712,,,,,,,,,,,,,,1.0,0.0,12.0,7.0,,,,,79.43567883300057,,,,,,,,,,,,,,,,,79.43074599999818,79.5201015829989,80.31490349999876,80.30336108299889,,,,,,,,,,,,,,,,80.3074072499985,80.31490349999876,80.31490349999876,81.41527370800031,g,1.0,1.0956548329995712,,81.41604799999914,81.4249904999997,82.41967237499921,82.41431791599825,,,,,,,,,,,,,,,,,,sub-222,1.0,stroop_test,,
,,,,13.0,1.0,1.0,,,,,gelb,yellow,g,1.0,g,1.0,0.5263225419985247,,,,,,,,,,,,,,1.0,1.0,13.0,11.0,,,,,82.41967237499921,,,,,,,,,,,,,,,,,82.41474566599936,83.21359137499894,84.00931812499766,83.99744029099747,,,,,,,,,,,,,,,,84.00183583299804,84.00931812499766,84.00931812499766,84.54801508300079,g,1.0,0.5263225419985247,,84.54853445800109,84.55733708299886,85.5526679579998,85.54744075000053,,,,,,,,,,,,,,,,,,sub-222,1.0,stroop_test,,
,,,,14.0,2.0,1.0,,,,,rot,yellow,g,0.0,g,1.0,0.6762470829999074,,,,,,,,,,,,,,1.0,2.0,14.0,3.0,,,,,85.5526679579998,,,,,,,,,,,,,,,,,85.54786083299769,86.34688137500052,87.14373145799982,87.13080770799934,,,,,,,,,,,,,,,,87.13612212500084,87.14373145799982,87.14373145799982,87.82247958299922,g,1.0,0.6762470829999074,,87.8234375409993,87.83437545799825,88.83001424999748,88.82009837499936,,,,,,,,,,,,,,,,,,sub-222,1.0,stroop_test,,
,,,,15.0,3.0,1.0,,,,,rot,blue,b,0.0,b,1.0,0.6691311249996943,,,,,,,,,,,,,,1.0,3.0,15.0,2.0,,,,,88.83001424999748,,,,,,,,,,,,,,,,,88.82055920799758,90.02067245799844,90.82253070799923,90.8142039159975,,,,,,,,,,,,,,,,90.8151372079992,90.82253070799923,90.82253070799923,91.49914224999884,b,1.0,0.6691311249996943,,91.50015754099876,91.51148170799934,92.5037960410009,92.49793804100044,,,,,,,,,,,,,,,,,,sub-222,1.0,stroop_test,,
,,,,16.0,4.0,1.0,,,,,blau,blue,b,1.0,b,1.0,0.7545587080021505,,,,,,,,,,,,,,1.0,4.0,16.0,6.0,,,,,92.5037960410009,,,,,,,,,,,,,,,,,92.498569708001,93.696860166001,94.49266741599786,94.48068770800091,,,,,,,,,,,,,,,,94.485091999999,94.49266741599786,94.49266741599786,95.2499167499991,b,1.0,0.7545587080021505,,95.25101241599988,95.26152899999944,96.25325395799882,96.24746633299948,,,,,,,,,,,,,,,,,,sub-222,1.0,stroop_test,,
,,,,17.0,5.0,1.0,,,,,rot,red,r,1.0,r,1.0,1.6383302499998535,,,,,,,,,,,,,,1.0,5.0,17.0,0.0,,,,,96.25325395799882,,,,,,,,,,,,,,,,,96.24801741600096,96.5968046249982,97.3927593749977,97.38062875000104,,,,,,,,,,,,,,,,97.38513641600002,97.3927593749977,97.3927593749977,99.03665666599773,r,1.0,1.6383302499998535,,99.03731466599857,99.062872874998,,100.0467533330011,,,,,,,,,,,,,,,,,,sub-222,1.0,stroop_test,,
,,,,18.0,6.0,1.0,,,,,blau,blue,b,1.0,b,1.0,0.6986754169993219,,,,,,,,,,,,,,1.0,6.0,18.0,5.0,,,,,100.05241154100077,,,,,,,,,,,,,,,,,100.0472741659978,100.1361849999994,100.93160483300016,100.91983962499944,,,,,,,,,,,,,,,,100.92399233299876,100.93160483300016,100.93160483300016,101.6326142500002,b,1.0,0.6986754169993219,,101.6336183329986,101.64263341599872,102.63630812499832,102.63076741599798,,,,,,,,,,,,,,,,,,sub-222,1.0,stroop_test,,
,,,,19.0,7.0,1.0,,,,,rot,red,r,1.0,r,1.0,0.6714544159985962,,,,,,,,,,,,,,1.0,7.0,19.0,1.0,,,,,102.63630812499832,,,,,,,,,,,,,,,,,102.63135062500078,102.97995066599832,103.77595799999835,103.76404658300088,,,,,,,,,,,,,,,,103.76831412499814,103.77595799999835,103.77595799999835,104.4587824579976,r,1.0,0.6714544159985962,,104.45930591599972,104.4651042910009,105.46331416599789,105.45332941599918,,,,,,,,,,,,,,,,,,sub-222,1.0,stroop_test,,
,,,,20.0,8.0,1.0,,,,,gelb,yellow,g,1.0,g,1.0,0.5605806249986927,,,,,,,,,,,,,,1.0,8.0,20.0,10.0,,,,,105.46331416599789,,,,,,,,,,,,,,,,,105.4537837909993,105.55243883299772,106.3481228749988,106.33643262499754,,,,,,,,,,,,,,,,106.3404602499977,106.3481228749988,106.3481228749988,106.915378624999,g,1.0,0.5605806249986927,,106.91638608299763,106.92490966599873,107.91971845800072,107.91410404099952,,,,,,,,,,,,,,,,,,sub-222,1.0,stroop_test,,
,,,,21.0,9.0,1.0,,,,,gelb,blue,b,0.0,b,1.0,0.7118497080009547,,,,,,,,,,,,,,1.0,9.0,21.0,9.0,,,,,107.91971845800072,,,,,,,,,,,,,,,,,107.91456774999824,108.01312345800034,108.80473520799931,108.79727875000026,,,,,,,,,,,,,,,,108.79796174999863,108.80473520799931,108.80473520799931,109.52050004099874,b,1.0,0.7118497080009547,,109.52122866599892,109.529454790998,110.5199502079995,110.51407483299772,,,,,,,,,,,,,,,,,,sub-222,1.0,stroop_test,,
,,,,22.0,10.0,1.0,,,,,blau,red,r,0.0,r,1.0,0.9901334589994804,,,,,,,,,,,,,,1.0,10.0,22.0,4.0,,,,,110.5199502079995,,,,,,,,,,,,,,,,,110.5146414160008,111.71989470799964,112.51706541599924,112.50318066600084,,,,,,,,,,,,,,,,112.5105564580008,112.51706541599924,112.51706541599924,113.51531445799992,r,1.0,0.9901334589994804,,113.51623570800076,113.52808512499904,114.51943974999811,114.51387162500032,,,,,,,,,,,,,,,,,,sub-222,1.0,stroop_test,,
,,,,23.0,11.0,1.0,,,,,gelb,red,r,0.0,r,1.0,1.4491067500021018,,,,,,,,,,,,,,1.0,11.0,23.0,8.0,,,,,114.51943974999811,,,,,,,,,,,,,,,,,114.51434325000082,115.71318591599992,116.50951087499924,116.49744437499976,,,,,,,,,,,,,,,,116.5023830829996,116.50951087499924,116.50951087499924,117.96514412499891,r,1.0,1.4491067500021018,,117.96609658300076,117.97816270800104,118.97152804099824,118.96419162500024,,,,,,,,,,,,,,,,,,sub-222,1.0,stroop_test,,
,,,,,,,,,,,,,,,,,,,,,,,,,,,,,,,,,,,,,,,,,,,,,,,,,,,,,,,,,,,,,,,,,,,,,,,,,,,,,,,,,,,,,,,118.96434337499886,118.97152804099824,118.97152804099824,119.79848895800023,space,0.8140185000011115,,,,,,,,,,,,sub-222,1.0,stroop_test,,
,,,,0.0,0.0,0.0,,,,,,,,,,,,,rot,red,r,1.0,r,1.0,1.2236017499999434,,,,,,,,,,0.0,0.0,0.0,1.0,119.82000208300089,,,,,,,,,,,,,,,,,119.8131387909998,119.89643845799948,120.69243745799758,120.68041920799806,,,,,,,,,,,,,,,,,,,,,,,,,,,,,,,,,,,120.68482704100096,120.69243745799758,120.69243745799758,121.9201862080008,r,1.0,1.2236017499999434,,,,sub-222,1.0,stroop_test,,
,,,,1.0,1.0,0.0,,,,,,,,,,,,,rot,red,r,1.0,r,1.0,0.5350990830011142,,,,,,,,,,0.0,1.0,1.0,0.0,121.92810587499844,,,,,,,,,,,,,,,,,121.9206725410004,122.7195912499992,123.5116316249987,123.50319991599828,,,,,,,,,,,,,,,,,,,,,,,,,,,,,,,,,,,123.50385854100024,123.5116316249987,123.5116316249987,124.04928300000029,r,1.0,0.5350990830011142,,,,sub-222,1.0,stroop_test,,
,,,,2.0,2.0,0.0,,,,,,,,,,,,,gelb,yellow,g,1.0,g,1.0,0.4009227919996192,,,,,,,,,,0.0,2.0,2.0,10.0,124.05835599999772,,,,,,,,,,,,,,,,,124.04995479100036,125.24673191599868,126.0424507079988,126.03056500000092,,,,,,,,,,,,,,,,,,,,,,,,,,,,,,,,,,,126.03496399999858,126.0424507079988,126.0424507079988,126.44841716600058,g,1.0,0.4009227919996192,,,,sub-222,1.0,stroop_test,,
,,,,3.0,3.0,0.0,,,,,,,,,,,,,blau,blue,b,1.0,b,1.0,0.5197486659999413,,,,,,,,,,0.0,3.0,3.0,6.0,126.45613979100015,,,,,,,,,,,,,,,,,126.44904904099894,126.7965474579978,127.59350412499772,127.58040116600024,,,,,,,,,,,,,,,,,,,,,,,,,,,,,,,,,,,127.58628904099896,127.59350412499772,127.59350412499772,128.11524987499797,b,1.0,0.5197486659999413,,,,sub-222,1.0,stroop_test,,
,,,,4.0,4.0,0.0,,,,,,,,,,,,,blau,blue,b,1.0,b,1.0,0.5486780419996649,,,,,,,,,,0.0,4.0,4.0,5.0,128.12253054100074,,,,,,,,,,,,,,,,,128.11566829100047,128.21302237499913,129.0039015830007,128.99689691599997,,,,,,,,,,,,,,,,,,,,,,,,,,,,,,,,,,,128.9975000409977,129.0039015830007,129.0039015830007,129.55487241599985,b,1.0,0.5486780419996649,,,,sub-222,1.0,stroop_test,,
,,,,5.0,5.0,0.0,,,,,,,,,,,,,gelb,blue,b,0.0,b,1.0,0.5644367089989828,,,,,,,,,,0.0,5.0,5.0,9.0,129.56473658300092,,,,,,,,,,,,,,,,,129.55548441599967,130.7523776249982,131.5491386249996,131.5369293750009,,,,,,,,,,,,,,,,,,,,,,,,,,,,,,,,,,,131.54138916599914,131.5491386249996,131.5491386249996,132.1159731250009,b,1.0,0.5644367089989828,,,,sub-222,1.0,stroop_test,,
,,,,6.0,6.0,0.0,,,,,,,,,,,,,blau,yellow,g,0.0,g,1.0,0.6546987919973617,,,,,,,,,,0.0,6.0,6.0,7.0,132.12387391599987,,,,,,,,,,,,,,,,,132.11653395800022,132.21298824999758,133.00973691599938,132.99718333299825,,,,,,,,,,,,,,,,,,,,,,,,,,,,,,,,,,,133.0019900829975,133.00973691599938,133.00973691599938,133.67093258299792,g,1.0,0.6546987919973617,,,,sub-222,1.0,stroop_test,,
,,,,7.0,7.0,0.0,,,,,,,,,,,,,gelb,yellow,g,1.0,g,1.0,0.8791520410013618,,,,,,,,,,0.0,7.0,7.0,11.0,133.681501957999,,,,,,,,,,,,,,,,,133.67157216600026,133.76888083299855,134.56547262499953,134.55253537499812,,,,,,,,,,,,,,,,,,,,,,,,,,,,,,,,,,,134.55669512500026,134.56547262499953,134.56547262499953,135.44797795799968,g,1.0,0.8791520410013618,,,,sub-222,1.0,stroop_test,,
,,,,8.0,8.0,0.0,,,,,,,,,,,,,rot,yellow,g,0.0,g,1.0,0.4276360000003478,,,,,,,,,,0.0,8.0,8.0,3.0,135.4554701249981,,,,,,,,,,,,,,,,,135.44838620799783,136.24640129099862,137.04270133300088,137.03053183299926,,,,,,,,,,,,,,,,,,,,,,,,,,,,,,,,,,,137.03510433300107,137.04270133300088,137.04270133300088,137.48163529099838,g,1.0,0.4276360000003478,,,,sub-222,1.0,stroop_test,,
,,,,9.0,9.0,0.0,,,,,,,,,,,,,blau,red,r,0.0,r,1.0,0.8567927080002846,,,,,,,,,,0.0,9.0,9.0,4.0,137.4893932499981,,,,,,,,,,,,,,,,,137.48220679099904,138.6796645409995,139.47641812499933,139.46394433299793,,,,,,,,,,,,,,,,,,,,,,,,,,,,,,,,,,,139.46912183300083,139.47641812499933,139.47641812499933,140.33754449999833,r,1.0,0.8567927080002846,,,,sub-222,1.0,stroop_test,,
,,,,10.0,10.0,0.0,,,,,,,,,,,,,rot,blue,b,0.0,b,1.0,0.6211783750004543,,,,,,,,,,0.0,10.0,10.0,2.0,140.3481672079979,,,,,,,,,,,,,,,,,140.3381758329997,141.53625383300096,142.34328833299878,142.33059570800106,,,,,,,,,,,,,,,,,,,,,,,,,,,,,,,,,,,142.33539845799896,142.34328833299878,142.34328833299878,142.97074416599935,b,1.0,0.6211783750004543,,,,sub-222,1.0,stroop_test,,
,,,,11.0,11.0,0.0,,,,,,,,,,,,,gelb,red,r,0.0,r,1.0,1.5492106659985438,,,,,,,,,,0.0,11.0,11.0,8.0,142.9788352079995,,,,,,,,,,,,,,,,,142.97127058299884,143.76953370800038,144.5656060830006,144.55323966599826,,,,,,,,,,,,,,,,,,,,,,,,,,,,,,,,,,,144.55842112499886,144.5656060830006,144.5656060830006,146.12099241599935,r,1.0,1.5492106659985438,,,,sub-222,1.0,stroop_test,,
,,,,12.0,0.0,1.0,,,,,,,,,,,,,rot,yellow,g,0.0,g,1.0,1.7357168330017885,,,,,,,,,,1.0,0.0,12.0,3.0,146.13111941600073,,,,,,,,,,,,,,,,,146.12160720799875,146.46900425000058,147.26532983300058,147.2533715829995,,,,,,,,,,,,,,,,,,,,,,,,,,,,,,,,,,,147.2574531249993,147.26532983300058,147.26532983300058,149.00373379099983,g,1.0,1.7357168330017885,,,,sub-222,1.0,stroop_test,,
,,,,13.0,1.0,1.0,,,,,,,,,,,,,blau,blue,b,1.0,b,1.0,1.316442332998122,,,,,,,,,,1.0,1.0,13.0,5.0,149.01146016599887,,,,,,,,,,,,,,,,,149.00424516600106,149.10215604100085,149.89792508299797,149.88602700000047,,,,,,,,,,,,,,,,,,,,,,,,,,,,,,,,,,,149.89020333299777,149.89792508299797,149.89792508299797,151.22027579099813,b,1.0,1.316442332998122,,,,sub-222,1.0,stroop_test,,
,,,,14.0,2.0,1.0,,,,,,,,,,,,,rot,red,r,1.0,r,1.0,1.0651826670000446,,,,,,,,,,1.0,2.0,14.0,0.0,151.22784766599943,,,,,,,,,,,,,,,,,151.22076675000062,152.01974408299793,152.82595716599826,152.81388795800012,,,,,,,,,,,,,,,,,,,,,,,,,,,,,,,,,,,152.81832645800023,152.82595716599826,152.82595716599826,153.89764699999796,r,1.0,1.0651826670000446,,,,sub-222,1.0,stroop_test,,
,,,,15.0,3.0,1.0,,,,,,,,,,,,,blau,red,r,0.0,r,1.0,0.6266768339992268,,,,,,,,,,1.0,3.0,15.0,4.0,153.9050497499993,,,,,,,,,,,,,,,,,153.89822337499936,154.2462364999992,155.04297745800068,155.03027495800052,,,,,,,,,,,,,,,,,,,,,,,,,,,,,,,,,,,155.03531450000082,155.04297745800068,155.04297745800068,155.68140641599894,r,1.0,0.6266768339992268,,,,sub-222,1.0,stroop_test,,
,,,,16.0,4.0,1.0,,,,,,,,,,,,,rot,red,r,1.0,r,1.0,0.5327247499990335,,,,,,,,,,1.0,4.0,16.0,1.0,155.6897247909983,,,,,,,,,,,,,,,,,155.68197175000023,155.77968279099878,156.576772583001,156.56387966599868,,,,,,,,,,,,,,,,,,,,,,,,,,,,,,,,,,,156.56899758299917,156.576772583001,156.576772583001,157.11497187499845,r,1.0,0.5327247499990335,,,,sub-222,1.0,stroop_test,,
,,,,17.0,5.0,1.0,,,,,,,,,,,,,gelb,blue,b,0.0,b,1.0,0.6491322500005481,,,,,,,,,,1.0,5.0,17.0,9.0,157.1244776249987,,,,,,,,,,,,,,,,,157.11562141600007,157.4627918749975,158.2598185829993,158.2469782909975,,,,,,,,,,,,,,,,,,,,,,,,,,,,,,,,,,,158.25148720799916,158.2598185829993,158.2598185829993,158.91515787499884,b,1.0,0.6491322500005481,,,,sub-222,1.0,stroop_test,,
,,,,18.0,6.0,1.0,,,,,,,,,,,,,gelb,red,r,0.0,r,1.0,0.688759165997908,,,,,,,,,,1.0,6.0,18.0,8.0,158.92539312499866,,,,,,,,,,,,,,,,,158.91592479099927,159.0128631660009,159.8046598330002,159.7968516660003,,,,,,,,,,,,,,,,,,,,,,,,,,,,,,,,,,,159.79753941599847,159.8046598330002,159.8046598330002,160.49762524999824,r,1.0,0.688759165997908,,,,sub-222,1.0,stroop_test,,
,,,,19.0,7.0,1.0,,,,,,,,,,,,,blau,yellow,g,0.0,g,1.0,0.5875954580005782,,,,,,,,,,1.0,7.0,19.0,7.0,160.50595237499874,,,,,,,,,,,,,,,,,160.49817758299832,161.69620799999757,162.49373849999756,162.48045508299765,,,,,,,,,,,,,,,,,,,,,,,,,,,,,,,,,,,162.48637733299984,162.49373849999756,162.49373849999756,163.08713966600044,g,1.0,0.5875954580005782,,,,sub-222,1.0,stroop_test,,
,,,,20.0,8.0,1.0,,,,,,,,,,,,,rot,blue,b,0.0,b,1.0,0.8982168750007986,,,,,,,,,,1.0,8.0,20.0,2.0,163.0946612910011,,,,,,,,,,,,,,,,,163.08764458299993,164.2858844580005,165.0819957499989,165.06939837499883,,,,,,,,,,,,,,,,,,,,,,,,,,,,,,,,,,,165.07416270799877,165.0819957499989,165.0819957499989,165.99123895799858,b,1.0,0.8982168750007986,,,,sub-222,1.0,stroop_test,,
,,,,21.0,9.0,1.0,,,,,,,,,,,,,gelb,yellow,g,1.0,g,1.0,1.0101822079996057,,,,,,,,,,1.0,9.0,21.0,10.0,166.0124856250004,,,,,,,,,,,,,,,,,165.99169875000007,166.7864759999975,167.5922921249985,167.58029254099893,,,,,,,,,,,,,,,,,,,,,,,,,,,,,,,,,,,167.5850790830009,167.5922921249985,167.5922921249985,168.60468637499798,g,1.0,1.0101822079996057,,,,sub-222,1.0,stroop_test,,
,,,,22.0,10.0,1.0,,,,,,,,,,,,,gelb,yellow,g,1.0,g,1.0,0.5563547919991834,,,,,,,,,,1.0,10.0,22.0,11.0,168.61500937500023,,,,,,,,,,,,,,,,,168.6053881250009,169.80277979099992,170.59461145800014,170.58656620799957,,,,,,,,,,,,,,,,,,,,,,,,,,,,,,,,,,,170.58724529100073,170.59461145800014,170.59461145800014,171.1531139159997,g,1.0,0.5563547919991834,,,,sub-222,1.0,stroop_test,,
,,,,23.0,11.0,1.0,,,,,,,,,,,,,blau,blue,b,1.0,b,1.0,0.7151871249989199,,,,,,,,,,1.0,11.0,23.0,6.0,171.16122116599945,,,,,,,,,,,,,,,,,171.15347704099986,171.2517759580005,172.0550535000002,172.046517666,,,,,,,,,,,,,,,,,,,,,,,,,,,,,,,,,,,172.0493750409987,172.0550535000002,172.0550535000002,172.78124558299896,b,1.0,0.7151871249989199,,,,sub-222,1.0,stroop_test,,
,,,,24.0,0.0,2.0,,,,,,,,,,,,,rot,red,r,1.0,r,1.0,0.7104259170009755,,,,,,,,,,2.0,0.0,24.0,0.0,172.7892733330009,,,,,,,,,,,,,,,,,172.7817783749997,173.57943800000066,174.37619095799892,174.3635953749981,,,,,,,,,,,,,,,,,,,,,,,,,,,,,,,,,,,174.36827883300066,174.37619095799892,174.37619095799892,175.09797941599754,r,1.0,0.7104259170009755,,,,sub-222,1.0,stroop_test,,
,,,,25.0,1.0,2.0,,,,,,,,,,,,,gelb,red,r,0.0,r,1.0,0.5540671670023585,,,,,,,,,,2.0,1.0,25.0,8.0,175.1081862079991,,,,,,,,,,,,,,,,,175.0987016250001,175.19615441600035,175.9925439159997,175.98036720799792,,,,,,,,,,,,,,,,,,,,,,,,,,,,,,,,,,,175.9849565000004,175.9925439159997,175.9925439159997,176.556644332999,r,1.0,0.5540671670023585,,,,sub-222,1.0,stroop_test,,
,,,,26.0,2.0,2.0,,,,,,,,,,,,,gelb,yellow,g,1.0,g,1.0,0.5399209589995735,,,,,,,,,,2.0,2.0,26.0,11.0,176.56108316599784,,,,,,,,,,,,,,,,,176.55703416599863,177.35236883299876,178.1445670409994,178.13561599999957,,,,,,,,,,,,,,,,,,,,,,,,,,,,,,,,,,,178.1362713749986,178.1445670409994,178.1445670409994,178.6874172909993,g,1.0,0.5399209589995735,,,,sub-222,1.0,stroop_test,,
,,,,27.0,3.0,2.0,,,,,,,,,,,,,rot,red,r,1.0,r,1.0,0.5151922919976641,,,,,,,,,,2.0,3.0,27.0,1.0,178.6974132079995,,,,,,,,,,,,,,,,,178.68802979099928,179.88485404099993,180.680932457999,180.66962454099848,,,,,,,,,,,,,,,,,,,,,,,,,,,,,,,,,,,180.67350545799852,180.680932457999,180.680932457999,181.19824133300065,r,1.0,0.5151922919976641,,,,sub-222,1.0,stroop_test,,
,,,,28.0,4.0,2.0,,,,,,,,,,,,,gelb,yellow,g,1.0,g,1.0,0.8922482090019912,,,,,,,,,,2.0,4.0,28.0,10.0,181.2068709159976,,,,,,,,,,,,,,,,,181.1988815830009,181.99600287499925,182.79281208300017,182.7799497499982,,,,,,,,,,,,,,,,,,,,,,,,,,,,,,,,,,,182.785569290998,182.79281208300017,182.79281208300017,183.68726279099792,g,1.0,0.8922482090019912,,,,sub-222,1.0,stroop_test,,
,,,,29.0,5.0,2.0,,,,,,,,,,,,,blau,blue,b,1.0,b,1.0,0.5507609999986016,,,,,,,,,,2.0,5.0,29.0,6.0,183.71247120800035,,,,,,,,,,,,,,,,,183.68781291599956,184.485779415998,185.2810389580009,185.26900279099937,,,,,,,,,,,,,,,,,,,,,,,,,,,,,,,,,,,185.2732003329984,185.2810389580009,185.2810389580009,185.8372828329993,b,1.0,0.5507609999986016,,,,sub-222,1.0,stroop_test,,
,,,,30.0,6.0,2.0,,,,,,,,,,,,,rot,yellow,g,0.0,g,1.0,0.7317548749997513,,,,,,,,,,2.0,6.0,30.0,3.0,185.84475745799864,,,,,,,,,,,,,,,,,185.8378037500006,186.63552725000045,187.43115062499783,187.4194172909993,,,,,,,,,,,,,,,,,,,,,,,,,,,,,,,,,,,187.4233623330001,187.43115062499783,187.43115062499783,188.16536437499963,g,1.0,0.7317548749997513,,,,sub-222,1.0,stroop_test,,
,,,,31.0,7.0,2.0,,,,,,,,,,,,,gelb,blue,b,0.0,b,1.0,0.8039575830007379,,,,,,,,,,2.0,7.0,31.0,9.0,188.1735111659982,,,,,,,,,,,,,,,,,188.1660305000005,188.96264820799843,189.7593953329997,189.7468441249985,,,,,,,,,,,,,,,,,,,,,,,,,,,,,,,,,,,189.75167216599948,189.7593953329997,189.7593953329997,190.57006679099868,b,1.0,0.8039575830007379,,,,sub-222,1.0,stroop_test,,
,,,,32.0,8.0,2.0,,,,,,,,,,,,,blau,red,r,0.0,r,1.0,0.7703025839982729,,,,,,,,,,2.0,8.0,32.0,4.0,190.5779487079999,,,,,,,,,,,,,,,,,190.57057720800003,190.91925208300017,191.71470433300053,191.70252129099757,,,,,,,,,,,,,,,,,,,,,,,,,,,,,,,,,,,191.70669091599848,191.71470433300053,191.71470433300053,192.48660887499864,r,1.0,0.7703025839982729,,,,sub-222,1.0,stroop_test,,
,,,,33.0,9.0,2.0,,,,,,,,,,,,,blau,blue,b,1.0,b,1.0,0.610865874998126,,,,,,,,,,2.0,9.0,33.0,5.0,192.49442383299905,,,,,,,,,,,,,,,,,192.4869832500008,193.6855854159985,194.47771841599751,194.4689202499976,,,,,,,,,,,,,,,,,,,,,,,,,,,,,,,,,,,194.46957170799945,194.47771841599751,194.47771841599751,195.097550874998,b,1.0,0.610865874998126,,,,sub-222,1.0,stroop_test,,
,,,,34.0,10.0,2.0,,,,,,,,,,,,,rot,blue,b,0.0,b,1.0,0.9360514170002716,,,,,,,,,,2.0,10.0,34.0,2.0,195.10553241600064,,,,,,,,,,,,,,,,,195.09805070799848,196.29605520800035,197.09033262500088,197.07997341599912,,,,,,,,,,,,,,,,,,,,,,,,,,,,,,,,,,,197.083844165998,197.09033262500088,197.09033262500088,198.0315245409984,b,1.0,0.9360514170002716,,,,sub-222,1.0,stroop_test,,
,,,,35.0,11.0,2.0,,,,,,,,,,,,,blau,yellow,g,0.0,g,1.0,0.6235410410008626,,,,,,,,,,2.0,11.0,35.0,7.0,198.03929658299967,,,,,,,,,,,,,,,,,198.0321043330005,198.129260791,198.92285637500024,198.91329787499853,,,,,,,,,,,,,,,,,,,,,,,,,,,,,,,,,,,198.91682358300025,198.92285637500024,198.92285637500024,199.5484637080008,g,1.0,0.6235410410008626,,,,sub-222,1.0,stroop_test,,
,,,,36.0,0.0,3.0,,,,,,,,,,,,,rot,blue,b,0.0,b,1.0,0.8204133750004985,,,,,,,,,,3.0,0.0,36.0,2.0,199.55646041599903,,,,,,,,,,,,,,,,,199.5491755410003,200.34584591599923,201.14310587499855,201.1300043329975,,,,,,,,,,,,,,,,,,,,,,,,,,,,,,,,,,,201.1358039580009,201.14310587499855,201.14310587499855,201.97005224999884,b,1.0,0.8204133750004985,,,,sub-222,1.0,stroop_test,,
,,,,37.0,1.0,3.0,,,,,,,,,,,,,gelb,yellow,g,1.0,g,1.0,1.0048235829999612,,,,,,,,,,3.0,1.0,37.0,10.0,201.97757141599868,,,,,,,,,,,,,,,,,201.97045262499887,202.0681338750001,202.8644154579997,202.85247429099763,,,,,,,,,,,,,,,,,,,,,,,,,,,,,,,,,,,202.856667166001,202.8644154579997,202.8644154579997,203.88097733299944,g,1.0,1.0048235829999612,,,,sub-222,1.0,stroop_test,,
,,,,38.0,2.0,3.0,,,,,,,,,,,,,blau,red,r,0.0,r,1.0,1.3676314580006874,,,,,,,,,,3.0,2.0,38.0,4.0,203.8883837079993,,,,,,,,,,,,,,,,,203.8814398329996,204.2292650829986,205.02516891599956,205.01330445799977,,,,,,,,,,,,,,,,,,,,,,,,,,,,,,,,,,,205.0178390410001,205.02516891599956,205.02516891599956,206.39781274999768,r,1.0,1.3676314580006874,,,,sub-222,1.0,stroop_test,,
,,,,39.0,3.0,3.0,,,,,,,,,,,,,blau,blue,b,1.0,g,0.0,0.7934161249977478,,,,,,,,,,3.0,3.0,39.0,5.0,206.40567937499875,,,,,,,,,,,,,,,,,206.3983399999997,207.59579183299863,208.38751158299783,208.37990641599757,,,,,,,,,,,,,,,,,,,,,,,,,,,,,,,,,,,208.38059062499812,208.38751158299783,208.38751158299783,209.1866259999988,g,0.0,0.7934161249977478,,,,sub-222,1.0,stroop_test,,
,,,,40.0,4.0,3.0,,,,,,,,,,,,,gelb,yellow,g,1.0,g,1.0,1.3935932080021305,,,,,,,,,,3.0,4.0,40.0,11.0,209.1944659159999,,,,,,,,,,,,,,,,,209.18711666599847,209.2849902909984,210.0813411659983,210.06944424999887,,,,,,,,,,,,,,,,,,,,,,,,,,,,,,,,,,,210.0737279999994,210.0813411659983,210.0813411659983,211.4812162499984,g,1.0,1.3935932080021305,,,,sub-222,1.0,stroop_test,,
,,,,41.0,5.0,3.0,,,,,,,,,,,,,blau,yellow,g,0.0,g,1.0,0.7124400419997983,,,,,,,,,,3.0,5.0,41.0,7.0,211.49142466600097,,,,,,,,,,,,,,,,,211.48191645800037,211.8292110000002,212.6248492079976,212.61316958300085,,,,,,,,,,,,,,,,,,,,,,,,,,,,,,,,,,,212.61757999999827,212.6248492079976,212.6248492079976,213.34842895800105,g,1.0,0.7124400419997983,,,,sub-222,1.0,stroop_test,,
,,,,42.0,6.0,3.0,,,,,,,,,,,,,rot,yellow,g,0.0,g,1.0,0.4831228340008238,,,,,,,,,,3.0,6.0,42.0,3.0,213.36218166599792,,,,,,,,,,,,,,,,,213.34874145799768,214.5460240829998,215.34164504100045,215.32969916599905,,,,,,,,,,,,,,,,,,,,,,,,,,,,,,,,,,,215.33410629100035,215.34164504100045,215.34164504100045,215.8304190409981,g,1.0,0.4831228340008238,,,,sub-222,1.0,stroop_test,,
,,,,43.0,7.0,3.0,,,,,,,,,,,,,rot,red,r,1.0,r,1.0,0.8798471249974682,,,,,,,,,,3.0,7.0,43.0,1.0,215.83752683299824,,,,,,,,,,,,,,,,,215.83076937499936,217.0291487909999,217.82185662499975,217.8133742909995,,,,,,,,,,,,,,,,,,,,,,,,,,,,,,,,,,,217.8142925409993,217.82185662499975,217.82185662499975,218.70383554100044,r,1.0,0.8798471249974682,,,,sub-222,1.0,stroop_test,,
,,,,44.0,8.0,3.0,,,,,,,,,,,,,rot,red,r,1.0,r,1.0,0.6977669579973735,,,,,,,,,,3.0,8.0,44.0,0.0,218.71129304100032,,,,,,,,,,,,,,,,,218.704365540998,219.05270816600023,219.8549268329989,219.8468238329988,,,,,,,,,,,,,,,,,,,,,,,,,,,,,,,,,,,219.8475311660004,219.8549268329989,219.8549268329989,220.56422200000088,r,1.0,0.6977669579973735,,,,sub-222,1.0,stroop_test,,
,,,,45.0,9.0,3.0,,,,,,,,,,,,,blau,blue,b,1.0,b,1.0,0.7423743330000434,,,,,,,,,,3.0,9.0,45.0,6.0,220.57198254099785,,,,,,,,,,,,,,,,,220.56476420800027,221.36240437499876,222.15712174999865,222.14639529099804,,,,,,,,,,,,,,,,,,,,,,,,,,,,,,,,,,,222.15045462499984,222.15712174999865,222.15712174999865,222.9035032079992,b,1.0,0.7423743330000434,,,,sub-222,1.0,stroop_test,,
,,,,46.0,10.0,3.0,,,,,,,,,,,,,gelb,blue,b,0.0,b,1.0,0.575273416001437,,,,,,,,,,3.0,10.0,46.0,9.0,222.91365337499883,,,,,,,,,,,,,,,,,222.90409229099896,223.70200275000025,224.49765208299868,224.4852749999991,,,,,,,,,,,,,,,,,,,,,,,,,,,,,,,,,,,224.49039699999776,224.49765208299868,224.49765208299868,225.08087870799864,b,1.0,0.575273416001437,,,,sub-222,1.0,stroop_test,,
,,,,47.0,11.0,3.0,,,,,,,,,,,,,gelb,red,r,0.0,r,1.0,1.025256791999709,,,,,,,,,,3.0,11.0,47.0,8.0,225.08872599999813,,,,,,,,,,,,,,,,,225.0814312080001,226.2789924159988,227.07105970799967,227.06313774999944,,,,,,,,,,,,,,,,,,,,,,,,,,,,,,,,,,,227.06383279099828,227.07105970799967,227.07105970799967,228.1056355000001,r,1.0,1.025256791999709,,,,sub-222,1.0,stroop_test,,
,,,,48.0,0.0,4.0,,,,,,,,,,,,,rot,red,r,1.0,r,1.0,0.6200618339971697,,,,,,,,,,4.0,0.0,48.0,1.0,228.11076995799883,,,,,,,,,,,,,,,,,228.10599508299856,228.9025762079982,229.709055583,229.69643837499825,,,,,,,,,,,,,,,,,,,,,,,,,,,,,,,,,,,229.70117483300052,229.709055583,229.709055583,230.3309521659976,r,1.0,0.6200618339971697,,,,sub-222,1.0,stroop_test,,
,,,,49.0,1.0,4.0,,,,,,,,,,,,,rot,red,r,1.0,r,1.0,0.4431251669993798,,,,,,,,,,4.0,1.0,49.0,0.0,230.33821279100084,,,,,,,,,,,,,,,,,230.33141524999883,230.6790410829999,231.47079920800024,231.4631506250007,,,,,,,,,,,,,,,,,,,,,,,,,,,,,,,,,,,231.4638326249988,231.47079920800024,231.47079920800024,231.9201950409988,r,1.0,0.4431251669993798,,,,sub-222,1.0,stroop_test,,
,,,,50.0,2.0,4.0,,,,,,,,,,,,,blau,blue,b,1.0,b,1.0,1.642248166997888,,,,,,,,,,4.0,2.0,50.0,6.0,231.92772862499987,,,,,,,,,,,,,,,,,231.9206712499981,232.01828204100093,232.81070204099888,232.80176458300048,,,,,,,,,,,,,,,,,,,,,,,,,,,,,,,,,,,232.80461933300103,232.81070204099888,232.81070204099888,234.464218041001,b,1.0,1.642248166997888,,,,sub-222,1.0,stroop_test,,
,,,,51.0,3.0,4.0,,,,,,,,,,,,,gelb,blue,b,0.0,b,1.0,0.4759034999988216,,,,,,,,,,4.0,3.0,51.0,9.0,234.47267616599856,,,,,,,,,,,,,,,,,234.4648049999996,235.6610367909998,236.4592969999976,236.446464749999,,,,,,,,,,,,,,,,,,,,,,,,,,,,,,,,,,,236.4514228749977,236.4592969999976,236.4592969999976,236.93755066599988,b,1.0,0.4759034999988216,,,,sub-222,1.0,stroop_test,,
,,,,52.0,4.0,4.0,,,,,,,,,,,,,blau,blue,b,1.0,b,1.0,0.4355033749998256,,,,,,,,,,4.0,4.0,52.0,5.0,236.9479338329984,,,,,,,,,,,,,,,,,236.9382729159988,237.7354253329977,238.5313407499998,238.51924483299808,,,,,,,,,,,,,,,,,,,,,,,,,,,,,,,,,,,238.52359462499956,238.5313407499998,238.5313407499998,238.9694337500005,b,1.0,0.4355033749998256,,,,sub-222,1.0,stroop_test,,
,,,,53.0,5.0,4.0,,,,,,,,,,,,,rot,blue,b,0.0,b,1.0,0.3423157500001252,,,,,,,,,,4.0,5.0,53.0,2.0,238.9774065829988,,,,,,,,,,,,,,,,,238.969862957998,239.76882312499947,240.56401029100016,240.55232879100004,,,,,,,,,,,,,,,,,,,,,,,,,,,,,,,,,,,240.55642499999885,240.56401029100016,240.56401029100016,240.91407704099765,b,1.0,0.3423157500001252,,,,sub-222,1.0,stroop_test,,
,,,,54.0,6.0,4.0,,,,,,,,,,,,,gelb,yellow,g,1.0,g,1.0,0.8150287499993283,,,,,,,,,,4.0,6.0,54.0,10.0,240.92171779099957,,,,,,,,,,,,,,,,,240.9146171249995,241.0122751659983,241.80816079099893,241.79630758299757,,,,,,,,,,,,,,,,,,,,,,,,,,,,,,,,,,,241.8007821249994,241.80816079099893,241.80816079099893,242.6313527909988,g,1.0,0.8150287499993283,,,,sub-222,1.0,stroop_test,,
,,,,55.0,7.0,4.0,,,,,,,,,,,,,blau,red,r,0.0,r,1.0,0.4450716669998655,,,,,,,,,,4.0,7.0,55.0,4.0,242.64168670800063,,,,,,,,,,,,,,,,,242.6321075829983,243.82898341599864,244.6267352499999,244.61305629100025,,,,,,,,,,,,,,,,,,,,,,,,,,,,,,,,,,,244.6191482079994,244.6267352499999,244.6267352499999,245.0807970829992,r,1.0,0.4450716669998655,,,,sub-222,1.0,stroop_test,,
,,,,56.0,8.0,4.0,,,,,,,,,,,,,blau,yellow,g,0.0,g,1.0,0.4695898329991905,,,,,,,,,,4.0,8.0,56.0,7.0,245.08944066600088,,,,,,,,,,,,,,,,,245.08139975000088,245.87880550000045,246.670979874998,246.6630097499983,,,,,,,,,,,,,,,,,,,,,,,,,,,,,,,,,,,246.6637139159975,246.670979874998,246.670979874998,247.14720020800087,g,1.0,0.4695898329991905,,,,sub-222,1.0,stroop_test,,
,,,,57.0,9.0,4.0,,,,,,,,,,,,,gelb,red,r,0.0,g,0.0,0.3748644160004915,,,,,,,,,,4.0,9.0,57.0,8.0,247.15543316600088,,,,,,,,,,,,,,,,,247.14772770799755,247.9454717080007,248.741925833001,248.729668041,,,,,,,,,,,,,,,,,,,,,,,,,,,,,,,,,,,248.7345454999995,248.741925833001,248.741925833001,249.1194875000001,g,0.0,0.3748644160004915,,,,sub-222,1.0,stroop_test,,
,,,,58.0,10.0,4.0,,,,,,,,,,,,,gelb,yellow,g,1.0,r,0.0,0.5418959999988147,,,,,,,,,,4.0,10.0,58.0,11.0,249.1275054580001,,,,,,,,,,,,,,,,,249.1199825830008,249.46927420800057,250.27138391599877,250.26306587499857,,,,,,,,,,,,,,,,,,,,,,,,,,,,,,,,,,,250.26394399999845,250.27138391599877,250.27138391599877,250.82019774999932,r,0.0,0.5418959999988147,,,,sub-222,1.0,stroop_test,,
,,,,59.0,11.0,4.0,,,,,,,,,,,,,rot,yellow,g,0.0,g,1.0,1.0168862499995155,,,,,,,,,,4.0,11.0,59.0,3.0,250.8305141659985,,,,,,,,,,,,,,,,,250.8208103750003,252.0187852909985,252.8158192080009,252.80223874999865,,,,,,,,,,,,,,,,,,,,,,,,,,,,,,,,,,,252.80644245800067,252.8158192080009,252.8158192080009,253.8374891659987,g,1.0,1.0168862499995155,,,,sub-222,1.0,stroop_test,,
,,,,60.0,0.0,5.0,,,,,,,,,,,,,gelb,red,r,0.0,r,1.0,0.7582867079981952,,,,,,,,,,5.0,0.0,60.0,8.0,253.84780070799752,,,,,,,,,,,,,,,,,253.83818670799883,253.93459891599923,254.73074662499857,254.71876454099765,,,,,,,,,,,,,,,,,,,,,,,,,,,,,,,,,,,254.72307337500024,254.73074662499857,254.73074662499857,255.49703450000013,r,1.0,0.7582867079981952,,,,sub-222,1.0,stroop_test,,
,,,,61.0,1.0,5.0,,,,,,,,,,,,,blau,blue,b,1.0,b,1.0,0.6071487919980427,,,,,,,,,,5.0,1.0,61.0,6.0,255.50452658299764,,,,,,,,,,,,,,,,,255.49751370800004,255.59547904099963,256.39221358299983,256.37984166599927,,,,,,,,,,,,,,,,,,,,,,,,,,,,,,,,,,,256.3848019159996,256.39221358299983,256.39221358299983,257.00333795799816,b,1.0,0.6071487919980427,,,,sub-222,1.0,stroop_test,,
,,,,62.0,2.0,5.0,,,,,,,,,,,,,rot,yellow,g,0.0,g,1.0,0.7382824579981389,,,,,,,,,,5.0,2.0,62.0,3.0,257.013751333001,,,,,,,,,,,,,,,,,257.00393025000085,257.3511679580006,258.147427625001,258.13508374999947,,,,,,,,,,,,,,,,,,,,,,,,,,,,,,,,,,,258.13914687500073,258.147427625001,258.147427625001,258.89738154099905,g,1.0,0.7382824579981389,,,,sub-222,1.0,stroop_test,,
,,,,63.0,3.0,5.0,,,,,,,,,,,,,blau,red,r,0.0,r,1.0,0.4562470829987433,,,,,,,,,,5.0,3.0,63.0,4.0,258.9060427080003,,,,,,,,,,,,,,,,,258.8979387500003,258.9955099580002,259.79169683299915,259.7794813330001,,,,,,,,,,,,,,,,,,,,,,,,,,,,,,,,,,,259.7842574999995,259.79169683299915,259.79169683299915,260.25157908300025,r,1.0,0.4562470829987433,,,,sub-222,1.0,stroop_test,,
,,,,64.0,4.0,5.0,,,,,,,,,,,,,gelb,yellow,g,1.0,g,1.0,0.6406336670006567,,,,,,,,,,5.0,4.0,64.0,10.0,260.26056337499904,,,,,,,,,,,,,,,,,260.25200158299776,261.0518495409997,261.8484661250004,261.8357566659979,,,,,,,,,,,,,,,,,,,,,,,,,,,,,,,,,,,261.8412350830004,261.8484661250004,261.8484661250004,262.4973946659993,g,1.0,0.6406336670006567,,,,sub-222,1.0,stroop_test,,
,,,,65.0,5.0,5.0,,,,,,,,,,,,,rot,red,r,1.0,r,1.0,0.3544063750014175,,,,,,,,,,5.0,5.0,65.0,0.0,262.50588824999795,,,,,,,,,,,,,,,,,262.4980112079975,263.6955037500011,264.4913510410006,264.4794361249988,,,,,,,,,,,,,,,,,,,,,,,,,,,,,,,,,,,264.4838021659998,264.4913510410006,264.4913510410006,264.84822608299874,r,1.0,0.3544063750014175,,,,sub-222,1.0,stroop_test,,
,,,,66.0,6.0,5.0,,,,,,,,,,,,,blau,blue,b,1.0,b,1.0,0.4911087500004214,,,,,,,,,,5.0,6.0,66.0,5.0,264.8576827500001,,,,,,,,,,,,,,,,,264.8489885829986,265.195519416,265.99183849999827,265.97964624999804,,,,,,,,,,,,,,,,,,,,,,,,,,,,,,,,,,,265.9844896659997,265.99183849999827,265.99183849999827,266.4863081660005,b,1.0,0.4911087500004214,,,,sub-222,1.0,stroop_test,,
,,,,67.0,7.0,5.0,,,,,,,,,,,,,gelb,yellow,g,1.0,g,1.0,0.7241516249996494,,,,,,,,,,5.0,7.0,67.0,11.0,266.4943507909993,,,,,,,,,,,,,,,,,266.4868869159982,267.6856990829983,268.48077879099947,268.4689964999998,,,,,,,,,,,,,,,,,,,,,,,,,,,,,,,,,,,268.4732223749997,268.48077879099947,268.48077879099947,269.214443375,g,1.0,0.7241516249996494,,,,sub-222,1.0,stroop_test,,
,,,,68.0,8.0,5.0,,,,,,,,,,,,,gelb,blue,b,0.0,b,1.0,0.7516484580010001,,,,,,,,,,5.0,8.0,68.0,9.0,269.22423770800015,,,,,,,,,,,,,,,,,269.2151410830011,269.3120388329989,270.1042484159989,270.0962269160009,,,,,,,,,,,,,,,,,,,,,,,,,,,,,,,,,,,270.09700195799815,270.1042484159989,270.1042484159989,270.86341295799866,b,1.0,0.7516484580010001,,,,sub-222,1.0,stroop_test,,
,,,,69.0,9.0,5.0,,,,,,,,,,,,,rot,red,r,1.0,r,1.0,0.3501746250003634,,,,,,,,,,5.0,9.0,69.0,1.0,270.8704082910008,,,,,,,,,,,,,,,,,270.86378720799985,271.66198774999793,272.4595984999978,272.44648258300003,,,,,,,,,,,,,,,,,,,,,,,,,,,,,,,,,,,272.4514313330001,272.4595984999978,272.4595984999978,272.8137479159996,r,1.0,0.3501746250003634,,,,sub-222,1.0,stroop_test,,
,,,,70.0,10.0,5.0,,,,,,,,,,,,,blau,yellow,g,0.0,g,1.0,0.5752840419991117,,,,,,,,,,5.0,10.0,70.0,7.0,272.8214552079989,,,,,,,,,,,,,,,,,272.81435945799967,273.612134125,274.40800645799754,274.39611074999993,,,,,,,,,,,,,,,,,,,,,,,,,,,,,,,,,,,274.40056770799856,274.40800645799754,274.40800645799754,274.98577925000063,g,1.0,0.5752840419991117,,,,sub-222,1.0,stroop_test,,
,,,,71.0,11.0,5.0,,,,,,,,,,,,,rot,blue,b,0.0,b,1.0,0.7062504999994417,,,,,,,,,,5.0,11.0,71.0,2.0,274.99388379099764,,,,,,,,,,,,,,,,,274.9862319159984,275.33482216599805,276.1304382909984,276.11849945799986,,,,,,,,,,,,,,,,,,,,,,,,,,,,,,,,,,,276.1226330829995,276.1304382909984,276.1304382909984,276.8474103749977,b,1.0,0.7062504999994417,,,,sub-222,1.0,stroop_test,,
,,,,72.0,0.0,6.0,,,,,,,,,,,,,gelb,yellow,g,1.0,g,1.0,0.5124622080002155,,,,,,,,,,6.0,0.0,72.0,11.0,276.85702799999854,,,,,,,,,,,,,,,,,276.8480774999989,278.04535620800016,278.8429104579991,278.82937804099856,,,,,,,,,,,,,,,,,,,,,,,,,,,,,,,,,,,278.83541845799846,278.8429104579991,278.8429104579991,279.3639517909978,g,1.0,0.5124622080002155,,,,sub-222,1.0,stroop_test,,
,,,,73.0,1.0,6.0,,,,,,,,,,,,,rot,yellow,g,0.0,g,1.0,0.5322658749973925,,,,,,,,,,6.0,1.0,73.0,3.0,279.3718047910006,,,,,,,,,,,,,,,,,279.36450883299767,280.5619378329975,281.359436666,281.34641125000053,,,,,,,,,,,,,,,,,,,,,,,,,,,,,,,,,,,281.3515672909998,281.359436666,281.359436666,281.8970240409981,g,1.0,0.5322658749973925,,,,sub-222,1.0,stroop_test,,
,,,,74.0,2.0,6.0,,,,,,,,,,,,,rot,blue,b,0.0,b,1.0,0.6550924590010254,,,,,,,,,,6.0,2.0,74.0,2.0,281.904813707999,,,,,,,,,,,,,,,,,281.8975550409996,282.69526812500044,283.48766933300067,283.47970387500027,,,,,,,,,,,,,,,,,,,,,,,,,,,,,,,,,,,283.4805923749991,283.48766933300067,283.48766933300067,284.1465274580005,b,1.0,0.6550924590010254,,,,sub-222,1.0,stroop_test,,
,,,,75.0,3.0,6.0,,,,,,,,,,,,,gelb,blue,b,0.0,b,1.0,0.4892578330000106,,,,,,,,,,6.0,3.0,75.0,9.0,284.15351166599794,,,,,,,,,,,,,,,,,284.146900249998,284.49539862500023,285.29153099999894,285.2793436659995,,,,,,,,,,,,,,,,,,,,,,,,,,,,,,,,,,,285.28419225000107,285.29153099999894,285.29153099999894,285.786217249999,b,1.0,0.4892578330000106,,,,sub-222,1.0,stroop_test,,
,,,,76.0,4.0,6.0,,,,,,,,,,,,,blau,red,r,0.0,r,1.0,1.2930292080018262,,,,,,,,,,6.0,4.0,76.0,4.0,285.79463045800003,,,,,,,,,,,,,,,,,285.786741625001,286.5852044159983,287.3806834999996,287.3684307500007,,,,,,,,,,,,,,,,,,,,,,,,,,,,,,,,,,,287.37264058299843,287.3806834999996,287.3806834999996,288.68025479100106,r,1.0,1.2930292080018262,,,,sub-222,1.0,stroop_test,,
,,,,77.0,5.0,6.0,,,,,,,,,,,,,rot,red,r,1.0,r,1.0,0.4413788329984527,,,,,,,,,,6.0,5.0,77.0,0.0,288.68815837500006,,,,,,,,,,,,,,,,,288.6807897910003,288.7786622909989,289.5747592910011,289.5626262500009,,,,,,,,,,,,,,,,,,,,,,,,,,,,,,,,,,,289.5672460829992,289.5747592910011,289.5747592910011,290.01928754099936,r,1.0,0.4413788329984527,,,,sub-222,1.0,stroop_test,,
,,,,78.0,6.0,6.0,,,,,,,,,,,,,gelb,red,r,0.0,r,1.0,0.4759872079994238,,,,,,,,,,6.0,6.0,78.0,8.0,290.0278526660004,,,,,,,,,,,,,,,,,290.01978841600067,290.81852383300065,291.6145857499978,291.6027689580005,,,,,,,,,,,,,,,,,,,,,,,,,,,,,,,,,,,291.60693104099846,291.6145857499978,291.6145857499978,292.0973175830004,r,1.0,0.4759872079994238,,,,sub-222,1.0,stroop_test,,
,,,,79.0,7.0,6.0,,,,,,,,,,,,,blau,yellow,g,0.0,g,1.0,1.8130961659990132,,,,,,,,,,6.0,7.0,79.0,7.0,292.1063007080011,,,,,,,,,,,,,,,,,292.09802262499943,293.2953158329983,294.09155466599987,294.07949570799974,,,,,,,,,,,,,,,,,,,,,,,,,,,,,,,,,,,294.08427854099864,294.09155466599987,294.09155466599987,295.91429166599846,g,1.0,1.8130961659990132,,,,sub-222,1.0,stroop_test,,
,,,,80.0,8.0,6.0,,,,,,,,,,,,,blau,blue,b,1.0,b,1.0,0.3983245829986117,,,,,,,,,,6.0,8.0,80.0,6.0,295.9249201659986,,,,,,,,,,,,,,,,,295.9150750000008,296.01187566599765,296.80424466600016,296.7961449579998,,,,,,,,,,,,,,,,,,,,,,,,,,,,,,,,,,,296.7970193750007,296.80424466600016,296.80424466600016,297.2140247079988,b,1.0,0.3983245829986117,,,,sub-222,1.0,stroop_test,,
,,,,81.0,9.0,6.0,,,,,,,,,,,,,blau,blue,b,1.0,b,1.0,0.5645481249994191,,,,,,,,,,6.0,9.0,81.0,5.0,297.224718458001,,,,,,,,,,,,,,,,,297.2147985829979,298.0120375410006,298.80358012500074,298.7959311659979,,,,,,,,,,,,,,,,,,,,,,,,,,,,,,,,,,,298.79664054100067,298.80358012500074,298.80358012500074,299.38019891599833,b,1.0,0.5645481249994191,,,,sub-222,1.0,stroop_test,,
,,,,82.0,10.0,6.0,,,,,,,,,,,,,gelb,yellow,g,1.0,g,1.0,0.5033180840000568,,,,,,,,,,6.0,10.0,82.0,10.0,299.3883201659992,,,,,,,,,,,,,,,,,299.380738541,300.17865541599895,300.9766359159985,300.9629483329991,,,,,,,,,,,,,,,,,,,,,,,,,,,,,,,,,,,300.9692532499976,300.9766359159985,300.9766359159985,301.4855072909995,g,1.0,0.5033180840000568,,,,sub-222,1.0,stroop_test,,
,,,,83.0,11.0,6.0,,,,,,,,,,,,,rot,red,r,1.0,r,1.0,0.4222905419992457,,,,,,,,,,6.0,11.0,83.0,1.0,301.49366491600085,,,,,,,,,,,,,,,,,301.48588649999874,301.58456604099774,302.3802630829996,302.3678160409981,,,,,,,,,,,,,,,,,,,,,,,,,,,,,,,,,,,302.371850208001,302.3802630829996,302.3802630829996,302.8141088329976,r,1.0,0.4222905419992457,,,,sub-222,1.0,stroop_test,,
,,,,84.0,0.0,7.0,,,,,,,,,,,,,gelb,yellow,g,1.0,g,1.0,0.6116653749995749,,,,,,,,,,7.0,0.0,84.0,10.0,302.82398041600027,,,,,,,,,,,,,,,,,302.81483975000083,302.9119493750004,303.7075897499999,303.6958730410006,,,,,,,,,,,,,,,,,,,,,,,,,,,,,,,,,,,303.70026966599835,303.7075897499999,303.7075897499999,304.33084424999834,g,1.0,0.6116653749995749,,,,sub-222,1.0,stroop_test,,
,,,,85.0,1.0,7.0,,,,,,,,,,,,,rot,blue,b,0.0,b,1.0,0.5872697920021892,,,,,,,,,,7.0,1.0,85.0,2.0,304.3397663329997,,,,,,,,,,,,,,,,,304.33150329099954,304.67869129099927,305.47511233299883,305.4628593749985,,,,,,,,,,,,,,,,,,,,,,,,,,,,,,,,,,,305.46737912499884,305.47511233299883,305.47511233299883,306.0734662499999,b,1.0,0.5872697920021892,,,,sub-222,1.0,stroop_test,,
,,,,86.0,2.0,7.0,,,,,,,,,,,,,rot,red,r,1.0,r,1.0,1.4423031250007623,,,,,,,,,,7.0,2.0,86.0,1.0,306.0778698329996,,,,,,,,,,,,,,,,,306.07384454099883,307.2685857910001,308.061234290999,308.0528189159995,,,,,,,,,,,,,,,,,,,,,,,,,,,,,,,,,,,308.05358308299765,308.061234290999,308.061234290999,309.51399283299907,r,1.0,1.4423031250007623,,,,sub-222,1.0,stroop_test,,
,,,,87.0,3.0,7.0,,,,,,,,,,,,,blau,blue,b,1.0,b,1.0,0.5630254999996396,,,,,,,,,,7.0,3.0,87.0,6.0,309.52523137499884,,,,,,,,,,,,,,,,,309.5148373329976,310.3118690829979,311.10865929099964,311.0961415409984,,,,,,,,,,,,,,,,,,,,,,,,,,,,,,,,,,,311.10125312499804,311.10865929099964,311.10865929099964,311.6804978750006,b,1.0,0.5630254999996396,,,,sub-222,1.0,stroop_test,,
,,,,88.0,4.0,7.0,,,,,,,,,,,,,gelb,yellow,g,1.0,g,1.0,0.5136484579998069,,,,,,,,,,7.0,4.0,88.0,11.0,311.69141029099774,,,,,,,,,,,,,,,,,311.68122983300054,311.7784538749984,312.57478858299874,312.56255258300007,,,,,,,,,,,,,,,,,,,,,,,,,,,,,,,,,,,312.5674974579997,312.57478858299874,312.57478858299874,313.09716774999833,g,1.0,0.5136484579998069,,,,sub-222,1.0,stroop_test,,
,,,,89.0,5.0,7.0,,,,,,,,,,,,,gelb,red,r,0.0,r,1.0,0.9441614170027606,,,,,,,,,,7.0,5.0,89.0,8.0,313.10672845799854,,,,,,,,,,,,,,,,,313.09789858300064,313.4453525829995,314.23771099999794,314.22921362499983,,,,,,,,,,,,,,,,,,,,,,,,,,,,,,,,,,,314.2300981250009,314.23771099999794,314.23771099999794,315.18625212500046,r,1.0,0.9441614170027606,,,,sub-222,1.0,stroop_test,,
,,,,90.0,6.0,7.0,,,,,,,,,,,,,rot,yellow,g,0.0,b,0.0,0.5082819159979408,,,,,,,,,,7.0,6.0,90.0,3.0,315.1965117079999,,,,,,,,,,,,,,,,,315.18689416599955,315.984910332998,316.779883332998,316.76800391600045,,,,,,,,,,,,,,,,,,,,,,,,,,,,,,,,,,,316.7720945830006,316.779883332998,316.779883332998,317.2969113750005,b,0.0,0.5082819159979408,,,,sub-222,1.0,stroop_test,,
,,,,91.0,7.0,7.0,,,,,,,,,,,,,blau,blue,b,1.0,b,1.0,0.384062166998774,,,,,,,,,,7.0,7.0,91.0,5.0,317.30578758299816,,,,,,,,,,,,,,,,,317.29759445799937,318.49513954099893,319.2947103330007,319.27916045799793,,,,,,,,,,,,,,,,,,,,,,,,,,,,,,,,,,,319.28758670800016,319.2947103330007,319.2947103330007,319.68127216599896,b,1.0,0.384062166998774,,,,sub-222,1.0,stroop_test,,
,,,,92.0,8.0,7.0,,,,,,,,,,,,,blau,red,r,0.0,r,1.0,1.1254830830002902,,,,,,,,,,7.0,8.0,92.0,4.0,319.6887378749998,,,,,,,,,,,,,,,,,319.681683666,320.02869658299824,320.82025625000097,320.81253124999785,,,,,,,,,,,,,,,,,,,,,,,,,,,,,,,,,,,320.8132265409986,320.82025625000097,320.82025625000097,321.952231457999,r,1.0,1.1254830830002902,,,,sub-222,1.0,stroop_test,,
,,,,93.0,9.0,7.0,,,,,,,,,,,,,rot,red,r,1.0,r,1.0,0.5007019579970802,,,,,,,,,,7.0,9.0,93.0,0.0,321.96030925000014,,,,,,,,,,,,,,,,,321.9527299580004,322.7450173750003,323.5413876249986,323.5289745000009,,,,,,,,,,,,,,,,,,,,,,,,,,,,,,,,,,,323.5336478329991,323.5413876249986,323.5413876249986,324.0467688329991,r,1.0,0.5007019579970802,,,,sub-222,1.0,stroop_test,,
,,,,94.0,10.0,7.0,,,,,,,,,,,,,blau,yellow,g,0.0,g,1.0,0.5936502920012572,,,,,,,,,,7.0,10.0,94.0,7.0,324.0548738329999,,,,,,,,,,,,,,,,,324.04737129099885,325.2451884580005,326.0414322910001,326.02921958300067,,,,,,,,,,,,,,,,,,,,,,,,,,,,,,,,,,,326.033772666,326.0414322910001,326.0414322910001,326.6444381250003,g,1.0,0.5936502920012572,,,,sub-222,1.0,stroop_test,,
,,,,95.0,11.0,7.0,,,,,,,,,,,,,gelb,blue,b,0.0,b,1.0,0.9159384579979816,,,,,,,,,,7.0,11.0,95.0,9.0,326.64817808299995,,,,,,,,,,,,,,,,,326.64483916599784,326.73414687499826,327.5297255000005,327.5179683749993,,,,,,,,,,,,,,,,,,,,,,,,,,,,,,,,,,,327.52215095800057,327.5297255000005,327.5297255000005,328.4580103749977,b,1.0,0.9159384579979816,,,,sub-222,1.0,stroop_test,,
,,,,96.0,0.0,8.0,,,,,,,,,,,,,blau,yellow,g,0.0,r,0.0,0.8548201669982518,,,,,,,,,,8.0,0.0,96.0,7.0,328.4634694159977,,,,,,,,,,,,,,,,,328.4586196249984,328.5509522079992,329.3465050409977,329.3342554160008,,,,,,,,,,,,,,,,,,,,,,,,,,,,,,,,,,,329.33830979100094,329.3465050409977,329.3465050409977,330.2041286249987,r,0.0,0.8548201669982518,,,,sub-222,1.0,stroop_test,,
,,,,97.0,1.0,8.0,,,,,,,,,,,,,gelb,red,r,0.0,r,1.0,0.9213429170013114,,,,,,,,,,8.0,1.0,97.0,8.0,330.21550029100035,,,,,,,,,,,,,,,,,330.2048628329976,330.30062087499755,331.0968137079981,331.08515958299904,,,,,,,,,,,,,,,,,,,,,,,,,,,,,,,,,,,331.0893569159998,331.0968137079981,331.0968137079981,332.029924208,r,1.0,0.9213429170013114,,,,sub-222,1.0,stroop_test,,
,,,,98.0,2.0,8.0,,,,,,,,,,,,,gelb,yellow,g,1.0,g,1.0,0.6580262499992386,,,,,,,,,,8.0,2.0,98.0,11.0,332.03770962499766,,,,,,,,,,,,,,,,,332.0304604999983,332.828262291001,333.620475249998,333.612338040999,,,,,,,,,,,,,,,,,,,,,,,,,,,,,,,,,,,333.61321062500065,333.620475249998,333.620475249998,334.28094504099863,g,1.0,0.6580262499992386,,,,sub-222,1.0,stroop_test,,
,,,,99.0,3.0,8.0,,,,,,,,,,,,,rot,red,r,1.0,r,1.0,0.5083088329993188,,,,,,,,,,8.0,3.0,99.0,1.0,334.2912716659994,,,,,,,,,,,,,,,,,334.28171250000014,334.6282270829979,335.42453150000074,335.412438708001,,,,,,,,,,,,,,,,,,,,,,,,,,,,,,,,,,,335.41685358299947,335.42453150000074,335.42453150000074,335.9360257909975,r,1.0,0.5083088329993188,,,,sub-222,1.0,stroop_test,,
,,,,100.0,4.0,8.0,,,,,,,,,,,,,gelb,blue,b,0.0,b,1.0,0.9243588329991326,,,,,,,,,,8.0,4.0,100.0,9.0,335.961369749999,,,,,,,,,,,,,,,,,335.9365838329977,336.2845119999984,337.0808662499985,337.0683760409993,,,,,,,,,,,,,,,,,,,,,,,,,,,,,,,,,,,337.0737362079999,337.0808662499985,337.0808662499985,338.0136133749984,b,1.0,0.9243588329991326,,,,sub-222,1.0,stroop_test,,
,,,,101.0,5.0,8.0,,,,,,,,,,,,,blau,blue,b,1.0,b,1.0,0.4961665419978089,,,,,,,,,,8.0,5.0,101.0,5.0,338.0234030829997,,,,,,,,,,,,,,,,,338.0142942079983,338.361669124999,339.15822391599795,339.14567916599844,,,,,,,,,,,,,,,,,,,,,,,,,,,,,,,,,,,339.15043737499946,339.15822391599795,339.15822391599795,339.6638687499981,b,1.0,0.4961665419978089,,,,sub-222,1.0,stroop_test,,
,,,,102.0,6.0,8.0,,,,,,,,,,,,,blau,blue,b,1.0,b,1.0,0.5115326250015642,,,,,,,,,,8.0,6.0,102.0,6.0,339.6741407909976,,,,,,,,,,,,,,,,,339.6646112499984,339.7615648749997,340.5535949580008,340.54572845800067,,,,,,,,,,,,,,,,,,,,,,,,,,,,,,,,,,,340.5465937909976,340.5535949580008,340.5535949580008,341.0693224579991,b,1.0,0.5115326250015642,,,,sub-222,1.0,stroop_test,,
,,,,103.0,7.0,8.0,,,,,,,,,,,,,rot,red,r,1.0,r,1.0,0.7479339999990771,,,,,,,,,,8.0,7.0,103.0,0.0,341.0769541660011,,,,,,,,,,,,,,,,,341.0697689999979,341.16732887499893,341.964004999998,341.951623541001,,,,,,,,,,,,,,,,,,,,,,,,,,,,,,,,,,,341.9559279159985,341.964004999998,341.964004999998,342.7141673749975,r,1.0,0.7479339999990771,,,,sub-222,1.0,stroop_test,,
,,,,104.0,8.0,8.0,,,,,,,,,,,,,rot,blue,b,0.0,b,1.0,0.5262767500025802,,,,,,,,,,8.0,8.0,104.0,2.0,342.7221275410011,,,,,,,,,,,,,,,,,342.7148117910001,343.9115739999979,344.7033143330009,344.69553183300013,,,,,,,,,,,,,,,,,,,,,,,,,,,,,,,,,,,344.6962095409981,344.7033143330009,344.7033143330009,345.2354786249998,b,1.0,0.5262767500025802,,,,sub-222,1.0,stroop_test,,
,,,,105.0,9.0,8.0,,,,,,,,,,,,,blau,red,r,0.0,r,1.0,0.4486810829985188,,,,,,,,,,8.0,9.0,105.0,4.0,345.2430474159992,,,,,,,,,,,,,,,,,345.2359457079983,345.3338940829999,346.13029733299845,346.11779216599825,,,,,,,,,,,,,,,,,,,,,,,,,,,,,,,,,,,346.12200529099937,346.13029733299845,346.13029733299845,346.5856294580008,r,1.0,0.4486810829985188,,,,sub-222,1.0,stroop_test,,
,,,,106.0,10.0,8.0,,,,,,,,,,,,,gelb,yellow,g,1.0,g,1.0,0.5711293329986802,,,,,,,,,,8.0,10.0,106.0,10.0,346.59413958299774,,,,,,,,,,,,,,,,,346.5861788750008,347.38418904100035,348.1794114580007,348.16758670799754,,,,,,,,,,,,,,,,,,,,,,,,,,,,,,,,,,,348.1716974999981,348.1794114580007,348.1794114580007,348.760791875,g,1.0,0.5711293329986802,,,,sub-222,1.0,stroop_test,,
,,,,107.0,11.0,8.0,,,,,,,,,,,,,rot,yellow,g,0.0,g,1.0,0.8545951250016515,,,,,,,,,,8.0,11.0,107.0,3.0,348.7650506659993,,,,,,,,,,,,,,,,,348.7612202909986,349.5511826660004,350.3467936659981,350.33500775,,,,,,,,,,,,,,,,,,,,,,,,,,,,,,,,,,,350.3390870830008,350.3467936659981,350.3467936659981,351.21320170800027,g,1.0,0.8545951250016515,,,,sub-222,1.0,stroop_test,,
,,,,108.0,0.0,9.0,,,,,,,,,,,,,gelb,red,r,0.0,r,1.0,0.4049014999982319,,,,,,,,,,9.0,0.0,108.0,8.0,351.22119341600046,,,,,,,,,,,,,,,,,351.2137554580004,352.4122859159979,353.2075891249988,353.1955628750002,,,,,,,,,,,,,,,,,,,,,,,,,,,,,,,,,,,353.19996287499816,353.2075891249988,353.2075891249988,353.6185180829998,r,1.0,0.4049014999982319,,,,sub-222,1.0,stroop_test,,
,,,,109.0,1.0,9.0,,,,,,,,,,,,,rot,red,r,1.0,r,1.0,0.6198617919981189,,,,,,,,,,9.0,1.0,109.0,1.0,353.6266003749988,,,,,,,,,,,,,,,,,353.6188887499993,354.8116083329988,355.6091589159987,355.59548274999906,,,,,,,,,,,,,,,,,,,,,,,,,,,,,,,,,,,355.6015473330008,355.6091589159987,355.6091589159987,356.2348776660001,r,1.0,0.6198617919981189,,,,sub-222,1.0,stroop_test,,
,,,,110.0,2.0,9.0,,,,,,,,,,,,,rot,yellow,g,0.0,g,1.0,0.6799219999993511,,,,,,,,,,9.0,2.0,110.0,3.0,356.2431872499983,,,,,,,,,,,,,,,,,356.2352487499993,356.3338886249985,357.12655458299923,357.118017124998,,,,,,,,,,,,,,,,,,,,,,,,,,,,,,,,,,,357.11868166600107,357.12655458299923,357.12655458299923,357.8131262909992,g,1.0,0.6799219999993511,,,,sub-222,1.0,stroop_test,,
,,,,111.0,3.0,9.0,,,,,,,,,,,,,gelb,yellow,g,1.0,g,1.0,0.3818126249971101,,,,,,,,,,9.0,3.0,111.0,10.0,357.8214548750002,,,,,,,,,,,,,,,,,357.8136584159984,358.1615410409977,358.957485040999,358.9454603749982,,,,,,,,,,,,,,,,,,,,,,,,,,,,,,,,,,,358.9499207909976,358.957485040999,358.957485040999,359.3467438330008,g,1.0,0.3818126249971101,,,,sub-222,1.0,stroop_test,,
,,,,112.0,4.0,9.0,,,,,,,,,,,,,rot,red,r,1.0,r,1.0,0.7039057500005583,,,,,,,,,,9.0,4.0,112.0,0.0,359.3567497910008,,,,,,,,,,,,,,,,,359.3474393329998,360.5447307499999,361.341351250001,361.32886962499833,,,,,,,,,,,,,,,,,,,,,,,,,,,,,,,,,,,361.3337576659978,361.341351250001,361.341351250001,362.0548967499999,r,1.0,0.7039057500005583,,,,sub-222,1.0,stroop_test,,
,,,,113.0,5.0,9.0,,,,,,,,,,,,,rot,blue,b,0.0,b,1.0,0.6329039169977477,,,,,,,,,,9.0,5.0,113.0,2.0,362.0598525829992,,,,,,,,,,,,,,,,,362.0552789579997,362.85211166599765,363.6537154580001,363.645717708001,,,,,,,,,,,,,,,,,,,,,,,,,,,,,,,,,,,363.6465986250005,363.6537154580001,363.6537154580001,364.2966493329986,b,1.0,0.6329039169977477,,,,sub-222,1.0,stroop_test,,
,,,,114.0,6.0,9.0,,,,,,,,,,,,,gelb,yellow,g,1.0,g,1.0,1.3573425829999906,,,,,,,,,,9.0,6.0,114.0,11.0,364.30458137499954,,,,,,,,,,,,,,,,,364.2972372080003,364.3947697910007,365.1906169579997,365.1787000000004,,,,,,,,,,,,,,,,,,,,,,,,,,,,,,,,,,,365.1832073330006,365.1906169579997,365.1906169579997,366.5529802079982,g,1.0,1.3573425829999906,,,,sub-222,1.0,stroop_test,,
,,,,115.0,7.0,9.0,,,,,,,,,,,,,blau,red,r,0.0,r,1.0,0.638551791998907,,,,,,,,,,9.0,7.0,115.0,4.0,366.56269054099903,,,,,,,,,,,,,,,,,366.5535640829985,367.3514423749984,368.1586387909993,368.1456170829988,,,,,,,,,,,,,,,,,,,,,,,,,,,,,,,,,,,368.1508510409985,368.1586387909993,368.1586387909993,368.802348833,r,1.0,0.638551791998907,,,,sub-222,1.0,stroop_test,,
,,,,116.0,8.0,9.0,,,,,,,,,,,,,blau,blue,b,1.0,b,1.0,0.6456617500007269,,,,,,,,,,9.0,8.0,116.0,5.0,368.81100095799775,,,,,,,,,,,,,,,,,368.8028678749979,368.9002325000001,369.6931748749994,369.6848592909992,,,,,,,,,,,,,,,,,,,,,,,,,,,,,,,,,,,369.6855094579987,369.6931748749994,369.6931748749994,370.3469664580007,b,1.0,0.6456617500007269,,,,sub-222,1.0,stroop_test,,
,,,,117.0,9.0,9.0,,,,,,,,,,,,,gelb,blue,b,0.0,b,1.0,0.9151749159973406,,,,,,,,,,9.0,9.0,117.0,9.0,370.3565631659985,,,,,,,,,,,,,,,,,370.3476515830007,371.5447407079992,372.340616999998,372.3287640829985,,,,,,,,,,,,,,,,,,,,,,,,,,,,,,,,,,,372.3331828749979,372.340616999998,372.340616999998,373.2634482499998,b,1.0,0.9151749159973406,,,,sub-222,1.0,stroop_test,,
,,,,118.0,10.0,9.0,,,,,,,,,,,,,blau,blue,b,1.0,b,1.0,0.3608905410001171,,,,,,,,,,9.0,10.0,118.0,6.0,373.2737373749988,,,,,,,,,,,,,,,,,373.2641380829991,373.36133795799833,374.1588374999992,374.14533529099936,,,,,,,,,,,,,,,,,,,,,,,,,,,,,,,,,,,374.1515593330005,374.1588374999992,374.1588374999992,374.5298199579993,b,1.0,0.3608905410001171,,,,sub-222,1.0,stroop_test,,
,,,,119.0,11.0,9.0,,,,,,,,,,,,,blau,yellow,g,0.0,g,1.0,0.9942387079972832,,,,,,,,,,9.0,11.0,119.0,7.0,374.5374515830008,,,,,,,,,,,,,,,,,374.5303715000009,374.878027499999,375.6700107500001,375.6620246249986,,,,,,,,,,,,,,,,,,,,,,,,,,,,,,,,,,,375.6628680829999,375.6700107500001,375.6700107500001,376.6692494579984,g,1.0,0.9942387079972832,,,,sub-222,1.0,stroop_test,,
,,,,,,,,,,,,,,,,,,,,,,,,,,,,,,,,,,,,,,,,,,,,,,,,,,,,,,,,,,,,,,,,,,,,,,,,,,,,,,,,,,,,,,,,,,,,,,,,,,,,,,376.66943620799793,376.69427354099753,sub-222,,,,
