wordCTK,colorCTK,corrAnsCTK,congruentCTK,thisN,thisTrialN,thisRepN,keyResp_CTK.keys,keyResp_CTK.corr,keyResp_CTK.rt,keyResp_CTK.duration,wordPractice,colorPractice,corrAnsPractice,congruentPractice,respPractice.keys,respPractice.corr,respPractice.rt,respPractice.duration,word,color,corrAns,congruent,keyResp_test_run.keys,keyResp_test_run.corr,keyResp_test_run.rt,keyResp_test_run.duration,trials_CTK.thisRepN,trials_CTK.thisTrialN,trials_CTK.thisN,trials_CTK.thisIndex,trials_practice.thisRepN,trials_practice.thisTrialN,trials_practice.thisN,trials_practice.thisIndex,trials_test.thisRepN,trials_test.thisTrialN,trials_test.thisN,trials_test.thisIndex,thisRow.t,notes,instruction.started,instr_text.started,instr_image.started,instr_resp.started,instruction.stopped,instr_resp.keys,instr_resp.rt,instr_resp.duration,instr_color_to_key.started,instr_ctk.started,resp_ctk.started,instr_color_to_key.stopped,resp_ctk.keys,resp_ctk.rt,resp_ctk.duration,ITI.started,fixcross.started,fixcross.stopped,ITI.stopped,color_to_key_run.started,stimulus_CTK.started,keyResp_CTK.started,color_to_key_run.stopped,trials_CTK.keyResp_CTK.keys,trials_CTK.keyResp_CTK.corr,trials_CTK.keyResp_CTK.rt,trials_CTK.keyResp_CTK.duration,instr_practice.started,instr_practice_text.started,instr_practice_resp.started,instr_practice.stopped,instr_practice_resp.keys,instr_practice_resp.rt,instr_practice_resp.duration,practice_run.started,stimulus_practice.started,respPractice.started,practice_run.stopped,trials_practice.respPractice.keys,trials_practice.respPractice.corr,trials_practice.respPractice.rt,trials_practice.respPractice.duration,feedback.started,textFeedback.started,feedback.stopped,textFeedback.stopped,instr_test.started,instr_test_text.started,instr_test_resp.started,instr_test.stopped,instr_test_resp.keys,instr_test_resp.rt,instr_test_resp.duration,test_run.started,stimulus_test_run.started,keyResp_test_run.started,test_run.stopped,trials_test.keyResp_test_run.keys,trials_test.keyResp_test_run.corr,trials_test.keyResp_test_run.rt,trials_test.keyResp_test_run.duration,goodbye.started,textGoodbye.started,goodbye.stopped,participant,session,expName,frameRate,Unnamed: 112
,,,,,,,,,,,,,,,,,,,,,,,,,,,,,,,,,,,,,,,,,0.0051289999391883,0.0825447998940944,0.0825447998940944,0.0825447998940944,54.06708690000232,space,53.74569849995896,,,,,,,,,,,,,,,,,,,,,,,,,,,,,,,,,,,,,,,,,,,,,,,,,,,,,,,,,,sub-206,1,stroop_test,60.10178839424691,
,,,,,,,,,,,,,,,,,,,,,,,,,,,,,,,,,,,,,,,,,,,,,,,,,54.06724659993779,54.08239659992978,54.08239659992978,66.99231759994291,space,12.90673499996774,,,,,,,,,,,,,,,,,,,,,,,,,,,,,,,,,,,,,,,,,,,,,,,,,,,sub-206,1,stroop_test,60.10178839424691,
test,yellow,g,1.0,0.0,0.0,0.0,g,1.0,4.178120900061913,,,,,,,,,,,,,,,,,,0.0,0.0,0.0,1.0,,,,,,,,,67.06138109997846,,,,,,,,,,,,,,,,,67.05364489997737,68.20655279990751,69.08130769990385,68.99159649992362,69.07036419992801,69.08130769990385,69.08130769990385,73.26294739998411,g,1.0,4.178120900061913,,,,,,,,,,,,,,,,,,,,,,,,,,,,,,,,,,,,,,,sub-206,1,stroop_test,60.10178839424691,
test,red,r,1.0,1.0,1.0,0.0,r,1.0,0.6625905999680981,,,,,,,,,,,,,,,,,,0.0,1.0,1.0,0.0,,,,,,,,,73.27674459991977,,,,,,,,,,,,,,,,,73.263653999893,73.37690599996131,74.17727649991866,74.16194509994239,74.1630598999327,74.17727649991866,74.17727649991866,74.84685769991484,r,1.0,0.6625905999680981,,,,,,,,,,,,,,,,,,,,,,,,,,,,,,,,,,,,,,,sub-206,1,stroop_test,60.10178839424691,
test,blue,b,1.0,2.0,2.0,0.0,b,1.0,0.4689501000102609,,,,,,,,,,,,,,,,,,0.0,2.0,2.0,2.0,,,,,,,,,74.8609632999869,,,,,,,,,,,,,,,,,74.84749129996635,74.96102249994874,75.76178939989768,75.74649980000686,75.74761959991883,75.76178939989768,75.76178939989768,76.24780809995718,b,1.0,0.4689501000102609,,,,,,,,,,,,,,,,,,,,,,,,,,,,,,,,,,,,,,,sub-206,1,stroop_test,60.10178839424691,
test,yellow,g,1.0,3.0,0.0,1.0,g,1.0,0.4857399000320583,,,,,,,,,,,,,,,,,,1.0,0.0,3.0,1.0,,,,,,,,,76.26191499992274,,,,,,,,,,,,,,,,,76.24840839998797,77.4629200999625,78.26345809991471,78.24800069991034,78.24900249997154,78.26345809991471,78.26345809991471,78.76605340000242,g,1.0,0.4857399000320583,,,,,,,,,,,,,,,,,,,,,,,,,,,,,,,,,,,,,,,sub-206,1,stroop_test,60.10178839424691,
test,red,r,1.0,4.0,1.0,1.0,b,0.0,0.4588516999501735,,,,,,,,,,,,,,,,,,1.0,1.0,4.0,0.0,,,,,,,,,78.78044529992621,,,,,,,,,,,,,,,,,78.76674479991198,79.98131099995226,80.78183919994626,80.76663399999961,80.76776630000677,80.78183919994626,80.78183919994626,81.2510211999761,b,0.0,0.4588516999501735,,,,,,,,,,,,,,,,,,,,,,,,,,,,,,,,,,,,,,,sub-206,1,stroop_test,60.10178839424691,
test,blue,b,1.0,5.0,2.0,1.0,b,1.0,0.403841899940744,,,,,,,,,,,,,,,,,,1.0,2.0,5.0,2.0,,,,,,,,,81.26553430000786,,,,,,,,,,,,,,,,,81.25168139999732,81.36548059992492,82.16606580000371,82.1506875999039,82.15177599992603,82.16606580000371,82.16606580000371,82.58528319990728,b,1.0,0.403841899940744,,,,,,,,,,,,,,,,,,,,,,,,,,,,,,,,,,,,,,,sub-206,1,stroop_test,60.10178839424691,
test,red,r,1.0,6.0,0.0,2.0,r,1.0,0.3893138000275939,,,,,,,,,,,,,,,,,,2.0,0.0,6.0,0.0,,,,,,,,,82.59963059995789,,,,,,,,,,,,,,,,,82.58595029998105,83.40019969991408,84.20071020000614,84.18545639992226,84.1864621998975,84.20071020000614,84.20071020000614,84.60353589989245,r,1.0,0.3893138000275939,,,,,,,,,,,,,,,,,,,,,,,,,,,,,,,,,,,,,,,sub-206,1,stroop_test,60.10178839424691,
test,yellow,g,1.0,7.0,1.0,2.0,g,1.0,0.4120566999772563,,,,,,,,,,,,,,,,,,2.0,1.0,7.0,1.0,,,,,,,,,84.61774849996436,,,,,,,,,,,,,,,,,84.60416709992569,85.41820119996555,86.21891830000095,86.20344620000105,86.20446079992689,86.21891830000095,86.21891830000095,86.63833049999084,g,1.0,0.4120566999772563,,,,,,,,,,,,,,,,,,,,,,,,,,,,,,,,,,,,,,,sub-206,1,stroop_test,60.10178839424691,
test,blue,b,1.0,8.0,2.0,2.0,b,1.0,0.3665891999844461,,,,,,,,,,,,,,,,,,2.0,2.0,8.0,2.0,,,,,,,,,86.65237519994844,,,,,,,,,,,,,,,,,86.63901299994905,87.85335769993253,88.6538577999454,88.63833439990412,88.63933649996761,88.6538577999454,88.6538577999454,89.0233251999598,b,1.0,0.3665891999844461,,,,,,,,,,,,,,,,,,,,,,,,,,,,,,,,,,,,,,,sub-206,1,stroop_test,60.10178839424691,
test,yellow,g,1.0,9.0,0.0,3.0,g,1.0,0.5510378000326455,,,,,,,,,,,,,,,,,,3.0,0.0,9.0,1.0,,,,,,,,,89.03746719995979,,,,,,,,,,,,,,,,,89.0239776999224,89.13778859993909,89.93819319992326,89.92259189998731,89.92362599994522,89.93819319992326,89.93819319992326,90.49182719993404,g,1.0,0.5510378000326455,,,,,,,,,,,,,,,,,,,,,,,,,,,,,,,,,,,,,,,sub-206,1,stroop_test,60.10178839424691,
test,blue,b,1.0,10.0,1.0,3.0,b,1.0,0.4738318000454455,,,,,,,,,,,,,,,,,,3.0,1.0,10.0,2.0,,,,,,,,,90.50502849998884,,,,,,,,,,,,,,,,,90.49246350000612,91.70608709997032,92.50665849994402,92.49109239992686,92.4920984999044,92.50665849994402,92.50665849994402,92.9924743999727,b,1.0,0.4738318000454455,,,,,,,,,,,,,,,,,,,,,,,,,,,,,,,,,,,,,,,sub-206,1,stroop_test,60.10178839424691,
test,red,r,1.0,11.0,2.0,3.0,r,1.0,0.3020082999719307,,,,,,,,,,,,,,,,,,3.0,2.0,11.0,0.0,,,,,,,,,93.006691699964,,,,,,,,,,,,,,,,,92.99307209998368,93.10697049996816,93.90763999999037,93.89196719997562,93.89307059999555,93.90763999999037,93.90763999999037,94.22653389989864,r,1.0,0.3020082999719307,,,,,,,,,,,,,,,,,,,,,,,,,,,,,,,,,,,,,,,sub-206,1,stroop_test,60.10178839424691,
,,,,,,,,,,,,,,,,,,,,,,,,,,,,,,,,,,,,,,,,,,,,,,,,,,,,,,,,,,,,,,,,,,,,94.22686679998878,94.24141119990963,94.24141119990963,100.51524269999936,space,6.269101899932139,,,,,,,,,,,,,,,,,,,,,,,,,,,,,,,,sub-206,1,stroop_test,60.10178839424691,
,,,,0.0,0.0,0.0,,,,,blau,yellow,g,0.0,g,1.0,0.5829176000552252,,,,,,,,,,,,,,0.0,0.0,0.0,7.0,,,,,100.5445166999707,,,,,,,,,,,,,,,,,100.53717369993684,100.87893669994082,101.7373269998934,101.66400220000652,,,,,,,,,,,,,,,,101.72564199997578,101.7373269998934,101.7373269998934,102.33243799989576,g,1.0,0.5829176000552252,,102.3605754999444,102.37303349992726,103.34766539989504,,,,,,,,,,,,,,,,,,,,sub-206,1,stroop_test,60.10178839424691,
,,,,1.0,1.0,0.0,,,,,blau,red,r,0.0,r,1.0,0.7427126000402495,,,,,,,,,,,,,,0.0,1.0,1.0,4.0,,,,,103.36370439990424,,,,,,,,,,,,,,,,,103.34849829995072,103.69744659995196,104.4980801999336,104.4827136999229,,,,,,,,,,,,,,,,104.48371850000694,104.4980801999336,104.4980801999336,105.25084609992336,r,1.0,0.7427126000402495,,105.25183669989929,105.265305699897,106.25063429994044,106.26583899999969,,,,,,,,,,,,,,,,,,,sub-206,1,stroop_test,60.10178839424691,
,,,,2.0,2.0,0.0,,,,,blau,blue,b,1.0,b,1.0,0.3731912999646738,,,,,,,,,,,,,,0.0,2.0,2.0,6.0,,,,,106.26583899999969,,,,,,,,,,,,,,,,,106.25126859999727,106.61614529998042,107.41694799996912,107.40127759997269,,,,,,,,,,,,,,,,107.40228589996696,107.41694799996912,107.41694799996912,107.80257259996142,b,1.0,0.3731912999646738,,107.8036287999712,107.81707339989951,108.80219289998058,108.81771699991076,,,,,,,,,,,,,,,,,,,sub-206,1,stroop_test,60.10178839424691,
,,,,3.0,3.0,0.0,,,,,blau,blue,b,1.0,b,1.0,0.5018398999236524,,,,,,,,,,,,,,0.0,3.0,3.0,5.0,,,,,108.81771699991076,,,,,,,,,,,,,,,,,108.80275679996704,108.91775819996838,109.7184891999932,109.7028687999118,,,,,,,,,,,,,,,,109.70394589996432,109.7184891999932,109.7184891999932,110.23740659991743,b,1.0,0.5018398999236524,,110.23851089994425,110.25201749999542,111.23742039990611,111.25281989993528,,,,,,,,,,,,,,,,,,,sub-206,1,stroop_test,60.10178839424691,
,,,,4.0,4.0,0.0,,,,,gelb,blue,b,0.0,b,1.0,0.4481314000440761,,,,,,,,,,,,,,0.0,4.0,4.0,9.0,,,,,111.25281989993528,,,,,,,,,,,,,,,,,111.2381000999594,112.43678259989248,113.24183539999648,113.22195829998236,,,,,,,,,,,,,,,,113.23002029990312,113.24183539999648,113.24183539999648,113.7067621999886,b,1.0,0.4481314000440761,,113.70786269998644,113.7211395999184,114.70638949994463,114.72171169996729,,,,,,,,,,,,,,,,,,,sub-206,1,stroop_test,60.10178839424691,
,,,,5.0,5.0,0.0,,,,,gelb,yellow,g,1.0,g,1.0,0.7469208999536932,,,,,,,,,,,,,,0.0,5.0,5.0,10.0,,,,,114.72171169996729,,,,,,,,,,,,,,,,,114.70701589994133,115.92256639990956,116.72312859992962,116.7076826998964,,,,,,,,,,,,,,,,116.7086818999378,116.72312859992962,116.72312859992962,117.47587449999992,g,1.0,0.7469208999536932,,117.47693769994656,117.49038019997532,118.47573259996716,118.4910097999964,,,,,,,,,,,,,,,,,,,sub-206,1,stroop_test,60.10178839424691,
,,,,6.0,6.0,0.0,,,,,rot,blue,b,0.0,b,1.0,0.5061123999767005,,,,,,,,,,,,,,0.0,6.0,6.0,2.0,,,,,118.4910097999964,,,,,,,,,,,,,,,,,118.4763709999388,119.27478310000151,120.08397299994247,120.05998449993784,,,,,,,,,,,,,,,,120.07336579996628,120.08397299994247,120.08397299994247,120.59500099997967,b,1.0,0.5061123999767005,,120.59606619994156,120.6091834999388,121.59440499998163,121.6097429000074,,,,,,,,,,,,,,,,,,,sub-206,1,stroop_test,60.10178839424691,
,,,,7.0,7.0,0.0,,,,,rot,yellow,g,0.0,g,1.0,0.7605625999858603,,,,,,,,,,,,,,0.0,7.0,7.0,3.0,,,,,121.6097429000074,,,,,,,,,,,,,,,,,121.59504579997156,121.7098228998948,122.51031339995096,122.49507429997902,,,,,,,,,,,,,,,,122.49639519990887,122.51031339995096,122.51031339995096,123.28018379991408,g,1.0,0.7605625999858603,,123.28128939995077,123.29436800000258,124.27971239993347,124.29497189994436,,,,,,,,,,,,,,,,,,,sub-206,1,stroop_test,60.10178839424691,
,,,,8.0,8.0,0.0,,,,,gelb,yellow,g,1.0,g,1.0,0.4598636999726295,,,,,,,,,,,,,,0.0,8.0,8.0,11.0,,,,,124.29497189994436,,,,,,,,,,,,,,,,,124.28032489994077,124.3951148999622,125.20084929990117,125.180293399957,,,,,,,,,,,,,,,,125.18868669995572,125.20084929990117,125.20084929990117,125.6650515999645,g,1.0,0.4598636999726295,,125.66611439990812,125.67928079992998,126.66468059993348,126.67999169998802,,,,,,,,,,,,,,,,,,,sub-206,1,stroop_test,60.10178839424691,
,,,,9.0,9.0,0.0,,,,,rot,red,r,1.0,r,1.0,0.3662753000389784,,,,,,,,,,,,,,0.0,9.0,9.0,0.0,,,,,126.67999169998802,,,,,,,,,,,,,,,,,126.66533319989684,127.48042279994117,128.28456289996393,128.26564869994763,,,,,,,,,,,,,,,,128.27364929998294,128.28456289996393,128.28456289996393,128.6668714999687,r,1.0,0.3662753000389784,,128.66796839993913,128.68131579994224,129.66663349990267,129.6819054998923,,,,,,,,,,,,,,,,,,,sub-206,1,stroop_test,60.10178839424691,
,,,,10.0,10.0,0.0,,,,,gelb,red,r,0.0,r,1.0,0.5148902999935672,,,,,,,,,,,,,,0.0,10.0,10.0,8.0,,,,,129.6819054998923,,,,,,,,,,,,,,,,,129.66727099998388,129.7820558999665,130.59670659992844,130.56685760000255,,,,,,,,,,,,,,,,130.58592089999,130.59670659992844,130.59670659992844,131.11957739992067,r,1.0,0.5148902999935672,,131.12079839990474,131.13288689998444,132.11850659991617,132.13379889994394,,,,,,,,,,,,,,,,,,,sub-206,1,stroop_test,60.10178839424691,
,,,,11.0,11.0,0.0,,,,,rot,red,r,1.0,r,1.0,0.3900687000714242,,,,,,,,,,,,,,0.0,11.0,11.0,1.0,,,,,132.13379889994394,,,,,,,,,,,,,,,,,132.11916449991986,132.23366419994272,133.04098519997206,133.018928400008,,,,,,,,,,,,,,,,133.02789569995366,133.04098519997206,133.04098519997206,133.4369783999864,r,1.0,0.3900687000714242,,133.43817879993003,133.4513386999024,134.43674929998815,134.45191969990265,,,,,,,,,,,,,,,,,,,sub-206,1,stroop_test,60.10178839424691,
,,,,12.0,0.0,1.0,,,,,blau,blue,b,1.0,g,0.0,0.4055777000030502,,,,,,,,,,,,,,1.0,0.0,12.0,5.0,,,,,134.45191969990265,,,,,,,,,,,,,,,,,134.43741939996835,135.25240749993827,136.05574809992686,136.037514799973,,,,,,,,,,,,,,,,136.04461519990582,136.05574809992686,136.05574809992686,136.4724758999655,g,0.0,0.4055777000030502,,136.52023169992026,136.53548279998358,137.48771529993974,,,,,,,,,,,,,,,,,,,,sub-206,1,stroop_test,60.10178839424691,
,,,,13.0,1.0,1.0,,,,,gelb,yellow,g,1.0,g,1.0,0.5755052999593318,,,,,,,,,,,,,,1.0,1.0,13.0,11.0,,,,,137.50413379992824,,,,,,,,,,,,,,,,,137.48853899992537,138.6882370999083,139.50737999996636,139.48818979994394,,,,,,,,,,,,,,,,139.49726709991228,139.50737999996636,139.50737999996636,140.08997249999084,g,1.0,0.5755052999593318,,140.1284637999488,140.14105259999633,141.1050627999939,,,,,,,,,,,,,,,,,,,,sub-206,1,stroop_test,60.10178839424691,
,,,,14.0,2.0,1.0,,,,,rot,red,r,1.0,r,1.0,0.5786517999367788,,,,,,,,,,,,,,1.0,2.0,14.0,0.0,,,,,141.12152960000094,,,,,,,,,,,,,,,,,141.1058870999841,141.45498969999608,142.29333669994958,142.24066499993205,,,,,,,,,,,,,,,,142.28276809991803,142.29333669994958,142.29333669994958,142.87547229998745,r,1.0,0.5786517999367788,,142.87669309997,142.88985119992867,143.8756089999806,143.89082249999046,,,,,,,,,,,,,,,,,,,sub-206,1,stroop_test,60.10178839424691,
,,,,15.0,3.0,1.0,,,,,blau,blue,b,1.0,b,1.0,0.3736411998979747,,,,,,,,,,,,,,1.0,3.0,15.0,6.0,,,,,143.89082249999046,,,,,,,,,,,,,,,,,143.87630829995032,143.991039799992,144.827312599984,144.77676929999143,,,,,,,,,,,,,,,,144.81553669995628,144.827312599984,144.827312599984,145.2116988999769,b,1.0,0.3736411998979747,,145.21277179999743,145.2260025999276,146.21104989992455,146.2263324999949,,,,,,,,,,,,,,,,,,,sub-206,1,stroop_test,60.10178839424691,
,,,,16.0,4.0,1.0,,,,,rot,red,r,1.0,b,0.0,0.4387002999428659,,,,,,,,,,,,,,1.0,4.0,16.0,1.0,,,,,146.2263324999949,,,,,,,,,,,,,,,,,146.2115167999873,146.57678469992243,147.38255409989506,147.3622152999742,,,,,,,,,,,,,,,,147.37044239998795,147.38255409989506,147.38255409989506,147.83016979997046,b,0.0,0.4387002999428659,,147.84057349991053,147.85317939997185,148.84562379994895,,,,,,,,,,,,,,,,,,,,sub-206,1,stroop_test,60.10178839424691,
,,,,17.0,5.0,1.0,,,,,blau,yellow,g,0.0,g,1.0,0.9918450000695884,,,,,,,,,,,,,,1.0,5.0,17.0,7.0,,,,,148.8618933999678,,,,,,,,,,,,,,,,,148.84628800000064,149.19530959997792,150.00009149999823,149.98091499996372,,,,,,,,,,,,,,,,149.98853619990405,150.00009149999823,150.00009149999823,150.99920239998028,g,1.0,0.9918450000695884,,151.0393388000084,151.05245640000794,152.01439269992989,,,,,,,,,,,,,,,,,,,,sub-206,1,stroop_test,60.10178839424691,
,,,,18.0,6.0,1.0,,,,,rot,blue,b,0.0,b,1.0,0.6027428000234067,,,,,,,,,,,,,,1.0,6.0,18.0,2.0,,,,,152.03073889994994,,,,,,,,,,,,,,,,,152.0150189999258,152.11407829995733,152.91982099995948,152.89934139989782,,,,,,,,,,,,,,,,152.9082985999994,152.91982099995948,152.91982099995948,153.53401949990075,b,1.0,0.6027428000234067,,153.53504969994538,153.5485038999468,154.53383289999329,154.54895059997216,,,,,,,,,,,,,,,,,,,sub-206,1,stroop_test,60.10178839424691,
,,,,19.0,7.0,1.0,,,,,blau,red,r,0.0,r,1.0,0.5372510000597686,,,,,,,,,,,,,,1.0,7.0,19.0,4.0,,,,,154.54895059997216,,,,,,,,,,,,,,,,,154.53451619995758,155.73326159990393,156.53372319997288,156.51791129994672,,,,,,,,,,,,,,,,156.52359050000086,156.53372319997288,156.53372319997288,157.08585039991883,r,1.0,0.5372510000597686,,157.08663479995448,157.10078169999178,158.08625119994394,158.10157069994602,,,,,,,,,,,,,,,,,,,sub-206,1,stroop_test,60.10178839424691,
,,,,20.0,8.0,1.0,,,,,rot,yellow,g,0.0,r,0.0,0.7206552000716329,,,,,,,,,,,,,,1.0,8.0,20.0,3.0,,,,,158.10157069994602,,,,,,,,,,,,,,,,,158.08694589999504,159.28565639990848,160.09042839996982,160.0708192999009,,,,,,,,,,,,,,,,160.07912899996154,160.09042839996982,160.09042839996982,160.82263389998116,r,0.0,0.7206552000716329,,160.83318169997074,160.84636229998432,161.83785759995226,,,,,,,,,,,,,,,,,,,,sub-206,1,stroop_test,60.10178839424691,
,,,,21.0,9.0,1.0,,,,,gelb,red,r,0.0,r,1.0,0.7701974000083283,,,,,,,,,,,,,,1.0,9.0,21.0,8.0,,,,,161.85402319999412,,,,,,,,,,,,,,,,,161.83855569991283,161.93755259993486,162.7424360999139,162.72266859991942,,,,,,,,,,,,,,,,162.73042039992288,162.7424360999139,162.7424360999139,163.5244555999525,r,1.0,0.7701974000083283,,163.56526780000422,163.5791295999661,164.53962139994837,,,,,,,,,,,,,,,,,,,,sub-206,1,stroop_test,60.10178839424691,
,,,,22.0,10.0,1.0,,,,,gelb,blue,b,0.0,b,1.0,0.5615279999328777,,,,,,,,,,,,,,1.0,10.0,22.0,9.0,,,,,164.5560175999999,,,,,,,,,,,,,,,,,164.540307499934,164.63936199992895,165.43998819997068,165.42445039993618,,,,,,,,,,,,,,,,165.42540079995524,165.43998819997068,165.43998819997068,166.00936029991135,b,1.0,0.5615279999328777,,166.01042399997823,166.0237028999254,167.00896699994337,167.02414799993858,,,,,,,,,,,,,,,,,,,sub-206,1,stroop_test,60.10178839424691,
,,,,23.0,11.0,1.0,,,,,gelb,yellow,g,1.0,g,1.0,0.5454843000043184,,,,,,,,,,,,,,1.0,11.0,23.0,10.0,,,,,167.02414799993858,,,,,,,,,,,,,,,,,167.00960429990664,167.82477179996204,168.6253908999497,168.60999919997994,,,,,,,,,,,,,,,,168.6110602999106,168.6253908999497,168.6253908999497,169.17876089992933,g,1.0,0.5454843000043184,,169.17987009999342,169.19246809999458,170.17784679995384,170.19354079989716,,,,,,,,,,,,,,,,,,,sub-206,1,stroop_test,60.10178839424691,
,,,,,,,,,,,,,,,,,,,,,,,,,,,,,,,,,,,,,,,,,,,,,,,,,,,,,,,,,,,,,,,,,,,,,,,,,,,,,,,,,,,,,,,170.17809699999634,170.19354079989716,170.19354079989716,183.52239339996595,space,13.318411499960348,,,,,,,,,,,,,sub-206,1,stroop_test,60.10178839424691,
,,,,0.0,0.0,0.0,,,,,,,,,,,,,gelb,blue,b,0.0,b,1.0,0.6012303000316024,,,,,,,,,,0.0,0.0,0.0,9.0,183.55711910000537,,,,,,,,,,,,,,,,,183.54992519994263,184.33624649990816,185.14099629991688,185.12138379993849,,,,,,,,,,,,,,,,,,,,,,,,,,,,,,,,,,,185.12902299989943,185.14099629991688,185.14099629991688,185.75617249996867,b,1.0,0.6012303000316024,,,,,sub-206,1,stroop_test,60.10178839424691,
,,,,1.0,1.0,0.0,,,,,,,,,,,,,rot,red,r,1.0,r,1.0,0.6167890999931842,,,,,,,,,,0.0,1.0,1.0,0.0,185.7703327999916,,,,,,,,,,,,,,,,,185.756906399969,186.5709683999885,187.3752243999625,187.35612179990855,,,,,,,,,,,,,,,,,,,,,,,,,,,,,,,,,,,187.3642428999301,187.3752243999625,187.3752243999625,188.00758569990285,r,1.0,0.6167890999931842,,,,,sub-206,1,stroop_test,60.10178839424691,
,,,,2.0,2.0,0.0,,,,,,,,,,,,,gelb,yellow,g,1.0,g,1.0,0.3245970000280067,,,,,,,,,,0.0,2.0,2.0,10.0,188.0219652999658,,,,,,,,,,,,,,,,,188.0083161999937,189.22281780000776,190.02748849999625,190.0080447999062,,,,,,,,,,,,,,,,,,,,,,,,,,,,,,,,,,,190.01626989990476,190.02748849999625,190.02748849999625,190.3595374999568,g,1.0,0.3245970000280067,,,,,sub-206,1,stroop_test,60.10178839424691,
,,,,3.0,3.0,0.0,,,,,,,,,,,,,gelb,yellow,g,1.0,g,1.0,0.5391775000607595,,,,,,,,,,0.0,3.0,3.0,11.0,190.37365079997107,,,,,,,,,,,,,,,,,190.36026569991373,190.72389509994537,191.5244839999359,191.5090229999041,,,,,,,,,,,,,,,,,,,,,,,,,,,,,,,,,,,191.5100298000034,191.5244839999359,191.5244839999359,192.07708739989903,g,1.0,0.5391775000607595,,,,,sub-206,1,stroop_test,60.10178839424691,
,,,,4.0,4.0,0.0,,,,,,,,,,,,,blau,yellow,g,0.0,g,1.0,0.8761258000740781,,,,,,,,,,0.0,4.0,4.0,7.0,192.09152479993645,,,,,,,,,,,,,,,,,192.07782579993363,192.19170929992103,192.99683039996307,192.97690549993425,,,,,,,,,,,,,,,,,,,,,,,,,,,,,,,,,,,192.9844949999824,192.99683039996307,192.99683039996307,193.87897209997757,g,1.0,0.8761258000740781,,,,,sub-206,1,stroop_test,60.10178839424691,
,,,,5.0,5.0,0.0,,,,,,,,,,,,,blau,blue,b,1.0,b,1.0,0.3885250999592244,,,,,,,,,,0.0,5.0,5.0,5.0,193.8927807,,,,,,,,,,,,,,,,,193.87979539996013,194.2430409999797,195.04358179995324,195.02822539990305,,,,,,,,,,,,,,,,,,,,,,,,,,,,,,,,,,,195.02918369998224,195.04358179995324,195.04358179995324,195.44601249997504,b,1.0,0.3885250999592244,,,,,sub-206,1,stroop_test,60.10178839424691,
,,,,6.0,6.0,0.0,,,,,,,,,,,,,blau,red,r,0.0,r,1.0,0.360836400068365,,,,,,,,,,0.0,6.0,6.0,4.0,195.4602699999232,,,,,,,,,,,,,,,,,195.4466991999652,196.2610718999058,197.06164989992976,197.0465204999782,,,,,,,,,,,,,,,,,,,,,,,,,,,,,,,,,,,197.04758899996523,197.06164989992976,197.06164989992976,197.4310154999839,r,1.0,0.360836400068365,,,,,sub-206,1,stroop_test,60.10178839424691,
,,,,7.0,7.0,0.0,,,,,,,,,,,,,rot,red,r,1.0,r,1.0,0.5539749000454322,,,,,,,,,,0.0,7.0,7.0,1.0,197.4450388998957,,,,,,,,,,,,,,,,,197.4319745999528,197.54527050000613,198.3494530000025,198.33053209993523,,,,,,,,,,,,,,,,,,,,,,,,,,,,,,,,,,,198.33836009993684,198.3494530000025,198.3494530000025,198.9151418999536,r,1.0,0.5539749000454322,,,,,sub-206,1,stroop_test,60.10178839424691,
,,,,8.0,8.0,0.0,,,,,,,,,,,,,gelb,red,r,0.0,r,1.0,0.4955767999636009,,,,,,,,,,0.0,8.0,8.0,8.0,198.9294411999872,,,,,,,,,,,,,,,,,198.91589899989776,199.279793899972,200.11823809996716,200.06505649990868,,,,,,,,,,,,,,,,,,,,,,,,,,,,,,,,,,,200.10516479995567,200.11823809996716,200.11823809996716,200.61688349989709,r,1.0,0.4955767999636009,,,,,sub-206,1,stroop_test,60.10178839424691,
,,,,9.0,9.0,0.0,,,,,,,,,,,,,rot,blue,b,0.0,b,1.0,0.4250282999128103,,,,,,,,,,0.0,9.0,9.0,2.0,200.630783099914,,,,,,,,,,,,,,,,,200.61763009999413,201.8316092999885,202.63699309993532,202.61678009992465,,,,,,,,,,,,,,,,,,,,,,,,,,,,,,,,,,,202.6249624999473,202.63699309993532,202.63699309993532,203.06806620000864,b,1.0,0.4250282999128103,,,,,sub-206,1,stroop_test,60.10178839424691,
,,,,10.0,10.0,0.0,,,,,,,,,,,,,rot,yellow,g,0.0,g,1.0,0.8087735999142751,,,,,,,,,,0.0,10.0,10.0,3.0,203.08228109998163,,,,,,,,,,,,,,,,,203.06883629993536,203.4326609999407,204.2332072999561,204.21766139997635,,,,,,,,,,,,,,,,,,,,,,,,,,,,,,,,,,,204.2186391999712,204.2332072999561,204.2332072999561,205.0526111999061,g,1.0,0.8087735999142751,,,,,sub-206,1,stroop_test,60.10178839424691,
,,,,11.0,11.0,0.0,,,,,,,,,,,,,blau,blue,b,1.0,b,1.0,0.3781145999673754,,,,,,,,,,0.0,11.0,11.0,6.0,205.06693209998772,,,,,,,,,,,,,,,,,205.05334669991865,206.26794960000552,207.10372919996732,207.05317949992605,,,,,,,,,,,,,,,,,,,,,,,,,,,,,,,,,,,207.08968659990933,207.10372919996732,207.10372919996732,207.4877148999367,b,1.0,0.3781145999673754,,,,,sub-206,1,stroop_test,60.10178839424691,
,,,,12.0,0.0,1.0,,,,,,,,,,,,,rot,red,r,1.0,r,1.0,0.3852889999980107,,,,,,,,,,1.0,0.0,12.0,1.0,207.5019472999265,,,,,,,,,,,,,,,,,207.48844539991117,207.60225050000008,208.4066152999876,208.38723509991544,,,,,,,,,,,,,,,,,,,,,,,,,,,,,,,,,,,208.3949374000076,208.4066152999876,208.4066152999876,208.80495719995812,r,1.0,0.3852889999980107,,,,,sub-206,1,stroop_test,60.10178839424691,
,,,,13.0,1.0,1.0,,,,,,,,,,,,,blau,blue,b,1.0,b,1.0,0.3893708999967202,,,,,,,,,,1.0,1.0,13.0,5.0,208.81949709996115,,,,,,,,,,,,,,,,,208.80562679993452,210.020558899967,210.8238417999819,210.8056232999079,,,,,,,,,,,,,,,,,,,,,,,,,,,,,,,,,,,210.8126895999303,210.8238417999819,210.8238417999819,211.223802399938,b,1.0,0.3893708999967202,,,,,sub-206,1,stroop_test,60.10178839424691,
,,,,14.0,2.0,1.0,,,,,,,,,,,,,gelb,blue,b,0.0,b,1.0,0.4160259999334812,,,,,,,,,,1.0,2.0,14.0,9.0,211.23787389998324,,,,,,,,,,,,,,,,,211.22453699994367,212.4387377999956,213.24621879996263,213.2239560999442,,,,,,,,,,,,,,,,,,,,,,,,,,,,,,,,,,,213.2329233000055,213.24621879996263,213.24621879996263,213.67546589998528,b,1.0,0.4160259999334812,,,,,sub-206,1,stroop_test,60.10178839424691,
,,,,15.0,3.0,1.0,,,,,,,,,,,,,blau,yellow,g,0.0,g,1.0,0.5070341000100598,,,,,,,,,,1.0,3.0,15.0,7.0,213.68957199994475,,,,,,,,,,,,,,,,,213.6762432999676,214.0399713999359,214.8750349999173,214.82507039990745,,,,,,,,,,,,,,,,,,,,,,,,,,,,,,,,,,,214.8630788999144,214.8750349999173,214.8750349999173,215.3933816999197,g,1.0,0.5070341000100598,,,,,sub-206,1,stroop_test,60.10178839424691,
,,,,16.0,4.0,1.0,,,,,,,,,,,,,rot,red,r,1.0,r,1.0,0.3397762000095099,,,,,,,,,,1.0,4.0,16.0,0.0,215.40739649999887,,,,,,,,,,,,,,,,,215.39411869994365,216.60839859989937,217.4131404999644,217.39342809992377,,,,,,,,,,,,,,,,,,,,,,,,,,,,,,,,,,,217.4010340999812,217.4131404999644,217.4131404999644,217.76129479997329,r,1.0,0.3397762000095099,,,,,sub-206,1,stroop_test,60.10178839424691,
,,,,17.0,5.0,1.0,,,,,,,,,,,,,rot,blue,b,0.0,b,1.0,0.5472463000332937,,,,,,,,,,1.0,5.0,17.0,2.0,217.77579969994255,,,,,,,,,,,,,,,,,217.7620405999478,217.87589329993352,218.67645269993227,218.6608306999551,,,,,,,,,,,,,,,,,,,,,,,,,,,,,,,,,,,218.6617866999004,218.67645269993227,218.67645269993227,219.22903399995997,b,1.0,0.5472463000332937,,,,,sub-206,1,stroop_test,60.10178839424691,
,,,,18.0,6.0,1.0,,,,,,,,,,,,,gelb,red,r,0.0,r,1.0,0.7947203000076115,,,,,,,,,,1.0,6.0,18.0,8.0,219.2433224999113,,,,,,,,,,,,,,,,,219.22979129990563,219.34356839989775,220.17953470000063,220.1288175999653,,,,,,,,,,,,,,,,,,,,,,,,,,,,,,,,,,,220.16669129999357,220.17953470000063,220.17953470000063,220.9805804999778,r,1.0,0.7947203000076115,,,,,sub-206,1,stroop_test,60.10178839424691,
,,,,19.0,7.0,1.0,,,,,,,,,,,,,gelb,yellow,g,1.0,g,1.0,0.6200513999210671,,,,,,,,,,1.0,7.0,19.0,10.0,220.99458479997705,,,,,,,,,,,,,,,,,220.98136309999973,221.34496839996427,222.1455619999906,222.13044249999805,,,,,,,,,,,,,,,,,,,,,,,,,,,,,,,,,,,222.1315312999068,222.1455619999906,222.1455619999906,222.7814698999282,g,1.0,0.6200513999210671,,,,,sub-206,1,stroop_test,60.10178839424691,
,,,,20.0,8.0,1.0,,,,,,,,,,,,,blau,blue,b,1.0,b,1.0,0.3953504000091925,,,,,,,,,,1.0,8.0,20.0,6.0,222.7958111999324,,,,,,,,,,,,,,,,,222.78220949997197,222.89589529996735,223.698004799895,223.68079749995377,,,,,,,,,,,,,,,,,,,,,,,,,,,,,,,,,,,223.6872929999372,223.698004799895,223.698004799895,224.0993777998956,b,1.0,0.3953504000091925,,,,,sub-206,1,stroop_test,60.10178839424691,
,,,,21.0,9.0,1.0,,,,,,,,,,,,,rot,yellow,g,0.0,g,1.0,0.7211770999711007,,,,,,,,,,1.0,9.0,21.0,3.0,224.1135215999093,,,,,,,,,,,,,,,,,224.1001236999873,224.2136321999133,225.0532626999775,224.9988552998984,,,,,,,,,,,,,,,,,,,,,,,,,,,,,,,,,,,225.04087619995695,225.0532626999775,225.0532626999775,225.78362939995716,g,1.0,0.7211770999711007,,,,,sub-206,1,stroop_test,60.10178839424691,
,,,,22.0,10.0,1.0,,,,,,,,,,,,,blau,red,r,0.0,r,1.0,0.6542506000259891,,,,,,,,,,1.0,10.0,22.0,4.0,225.7979049999267,,,,,,,,,,,,,,,,,225.7843995000003,225.89810409990605,226.7688869999256,226.6831931999186,,,,,,,,,,,,,,,,,,,,,,,,,,,,,,,,,,,226.6905426000012,226.7688869999256,226.7688869999256,227.43474779999812,r,1.0,0.6542506000259891,,,,,sub-206,1,stroop_test,60.10178839424691,
,,,,23.0,11.0,1.0,,,,,,,,,,,,,gelb,yellow,g,1.0,g,1.0,0.577162400004454,,,,,,,,,,1.0,11.0,23.0,11.0,227.4491029999917,,,,,,,,,,,,,,,,,227.43548029998783,227.5491152999457,228.38650879997292,228.3343766999897,,,,,,,,,,,,,,,,,,,,,,,,,,,,,,,,,,,228.37363009992987,228.38650879997292,228.38650879997292,228.96988569991663,g,1.0,0.577162400004454,,,,,sub-206,1,stroop_test,60.10178839424691,
,,,,24.0,0.0,2.0,,,,,,,,,,,,,gelb,red,r,0.0,r,1.0,0.4601985999615863,,,,,,,,,,2.0,0.0,24.0,8.0,228.9833893999457,,,,,,,,,,,,,,,,,228.9707380000036,229.7840542999329,230.58458809996955,230.5691924999701,,,,,,,,,,,,,,,,,,,,,,,,,,,,,,,,,,,230.5701769998996,230.58458809996955,230.58458809996955,231.0543573999312,r,1.0,0.4601985999615863,,,,,sub-206,1,stroop_test,60.10178839424691,
,,,,25.0,1.0,2.0,,,,,,,,,,,,,blau,blue,b,1.0,b,1.0,0.3701355999801308,,,,,,,,,,2.0,1.0,25.0,5.0,231.0681518999627,,,,,,,,,,,,,,,,,231.05512259993705,232.2691622999264,233.0738947999198,233.05444559990428,,,,,,,,,,,,,,,,,,,,,,,,,,,,,,,,,,,233.0621361999074,233.0738947999198,233.0738947999198,233.4554804000072,b,1.0,0.3701355999801308,,,,,sub-206,1,stroop_test,60.10178839424691,
,,,,26.0,2.0,2.0,,,,,,,,,,,,,rot,blue,b,0.0,b,1.0,0.384997499990277,,,,,,,,,,2.0,2.0,26.0,2.0,233.46996819996275,,,,,,,,,,,,,,,,,233.45622649998404,234.27037949999797,235.12799429998267,235.055939199985,,,,,,,,,,,,,,,,,,,,,,,,,,,,,,,,,,,235.094730099896,235.12799429998267,235.12799429998267,235.52379729994573,b,1.0,0.384997499990277,,,,,sub-206,1,stroop_test,60.10178839424691,
,,,,27.0,3.0,2.0,,,,,,,,,,,,,gelb,yellow,g,1.0,g,1.0,0.5478521999903023,,,,,,,,,,2.0,3.0,27.0,11.0,235.5378559998935,,,,,,,,,,,,,,,,,235.52450169995427,236.33862890000452,237.1762171000009,237.1236985999858,,,,,,,,,,,,,,,,,,,,,,,,,,,,,,,,,,,237.1332491999492,237.1762171000009,237.1762171000009,237.74172489997,g,1.0,0.5478521999903023,,,,,sub-206,1,stroop_test,60.10178839424691,
,,,,28.0,4.0,2.0,,,,,,,,,,,,,rot,red,r,1.0,r,1.0,0.5394886999856681,,,,,,,,,,2.0,4.0,28.0,0.0,237.75621839996893,,,,,,,,,,,,,,,,,237.74255480000284,238.55675260000865,239.36366529995576,239.34201579994988,,,,,,,,,,,,,,,,,,,,,,,,,,,,,,,,,,,239.35148259997368,239.36366529995576,239.36366529995576,239.91030799993317,r,1.0,0.5394886999856681,,,,,sub-206,1,stroop_test,60.10178839424691,
,,,,29.0,5.0,2.0,,,,,,,,,,,,,rot,red,r,1.0,r,1.0,0.5184213999891654,,,,,,,,,,2.0,5.0,29.0,1.0,239.9244298998965,,,,,,,,,,,,,,,,,239.911104699946,241.1251415999141,241.92578349995887,241.9103911999846,,,,,,,,,,,,,,,,,,,,,,,,,,,,,,,,,,,241.9114715999458,241.92578349995887,241.92578349995887,242.46188919991252,r,1.0,0.5184213999891654,,,,,sub-206,1,stroop_test,60.10178839424691,
,,,,30.0,6.0,2.0,,,,,,,,,,,,,rot,yellow,g,0.0,g,1.0,0.9267360999947414,,,,,,,,,,2.0,6.0,30.0,3.0,242.4761210998986,,,,,,,,,,,,,,,,,242.46273839997596,243.27666350000072,244.07718299992848,244.0619194000028,,,,,,,,,,,,,,,,,,,,,,,,,,,,,,,,,,,244.06300560000815,244.07718299992848,244.07718299992848,245.0136385000078,g,1.0,0.9267360999947414,,,,,sub-206,1,stroop_test,60.10178839424691,
,,,,31.0,7.0,2.0,,,,,,,,,,,,,blau,red,r,0.0,r,1.0,0.5201500001130626,,,,,,,,,,2.0,7.0,31.0,4.0,245.02765019994692,,,,,,,,,,,,,,,,,245.01440329989416,245.8283877999056,246.66383729991503,246.61367459991013,,,,,,,,,,,,,,,,,,,,,,,,,,,,,,,,,,,246.65122619993053,246.66383729991503,246.66383729991503,247.19863509992135,r,1.0,0.5201500001130626,,,,,sub-206,1,stroop_test,60.10178839424691,
,,,,32.0,8.0,2.0,,,,,,,,,,,,,blau,yellow,g,0.0,r,0.0,0.440739499987103,,,,,,,,,,2.0,8.0,32.0,7.0,247.2125774999149,,,,,,,,,,,,,,,,,247.1993823999073,248.01329839997925,248.8138070999412,248.7984795999946,,,,,,,,,,,,,,,,,,,,,,,,,,,,,,,,,,,248.7994373999536,248.8138070999412,248.8138070999412,249.266686799936,r,0.0,0.440739499987103,,,,,sub-206,1,stroop_test,60.10178839424691,
,,,,33.0,9.0,2.0,,,,,,,,,,,,,blau,blue,b,1.0,b,1.0,0.6125837999861687,,,,,,,,,,2.0,9.0,33.0,6.0,249.2807673999341,,,,,,,,,,,,,,,,,249.2674356999341,249.38078109989877,250.1814180999063,250.1660305999685,,,,,,,,,,,,,,,,,,,,,,,,,,,,,,,,,,,250.16709179989996,250.1814180999063,250.1814180999063,250.80093679996207,b,1.0,0.6125837999861687,,,,,sub-206,1,stroop_test,60.10178839424691,
,,,,34.0,10.0,2.0,,,,,,,,,,,,,gelb,blue,b,0.0,b,1.0,0.8130574999377131,,,,,,,,,,2.0,10.0,34.0,9.0,250.81500699999745,,,,,,,,,,,,,,,,,250.80169819993895,251.61560709995683,252.42042639991269,252.4007401999552,,,,,,,,,,,,,,,,,,,,,,,,,,,,,,,,,,,252.4085729999933,252.42042639991269,252.42042639991269,253.23613909992852,b,1.0,0.8130574999377131,,,,,sub-206,1,stroop_test,60.10178839424691,
,,,,35.0,11.0,2.0,,,,,,,,,,,,,gelb,yellow,g,1.0,g,1.0,0.5430077000055462,,,,,,,,,,2.0,11.0,35.0,10.0,253.25005879998207,,,,,,,,,,,,,,,,,253.23687759996392,254.05081919999796,254.85140899999533,254.83593559998556,,,,,,,,,,,,,,,,,,,,,,,,,,,,,,,,,,,254.8370065999916,254.85140899999533,254.85140899999533,255.4038662998937,g,1.0,0.5430077000055462,,,,,sub-206,1,stroop_test,60.10178839424691,
,,,,36.0,0.0,3.0,,,,,,,,,,,,,blau,blue,b,1.0,b,1.0,0.650074900011532,,,,,,,,,,3.0,0.0,36.0,5.0,255.41832789999896,,,,,,,,,,,,,,,,,255.4046054999344,256.2187881999416,257.0237583999988,257.00411099998746,,,,,,,,,,,,,,,,,,,,,,,,,,,,,,,,,,,257.01258819992654,257.0237583999988,257.0237583999988,257.68882969999686,b,1.0,0.650074900011532,,,,,sub-206,1,stroop_test,60.10178839424691,
,,,,37.0,1.0,3.0,,,,,,,,,,,,,gelb,yellow,g,1.0,g,1.0,0.5086170999566093,,,,,,,,,,3.0,1.0,37.0,10.0,257.7030124999583,,,,,,,,,,,,,,,,,257.6895668999059,258.9040761999786,259.77533179998863,259.68909459991846,,,,,,,,,,,,,,,,,,,,,,,,,,,,,,,,,,,259.6969184000045,259.77533179998863,259.77533179998863,260.29095309996046,g,1.0,0.5086170999566093,,,,,sub-206,1,stroop_test,60.10178839424691,
,,,,38.0,2.0,3.0,,,,,,,,,,,,,blau,red,r,0.0,r,1.0,0.352791600045748,,,,,,,,,,3.0,2.0,38.0,4.0,260.304854099988,,,,,,,,,,,,,,,,,260.29173419997096,261.5058945999481,262.3113131999271,262.29111919994466,,,,,,,,,,,,,,,,,,,,,,,,,,,,,,,,,,,262.2998742999044,262.3113131999271,262.3113131999271,262.675696899998,r,1.0,0.352791600045748,,,,,sub-206,1,stroop_test,60.10178839424691,
,,,,39.0,3.0,3.0,,,,,,,,,,,,,blau,blue,b,1.0,b,1.0,0.5135900999885052,,,,,,,,,,3.0,3.0,39.0,6.0,262.6898766999366,,,,,,,,,,,,,,,,,262.676498399931,263.8907071999274,264.6914901999989,264.67608559993096,,,,,,,,,,,,,,,,,,,,,,,,,,,,,,,,,,,264.67701699992176,264.6914901999989,264.6914901999989,265.2111495999852,b,1.0,0.5135900999885052,,,,,sub-206,1,stroop_test,60.10178839424691,
,,,,40.0,4.0,3.0,,,,,,,,,,,,,rot,yellow,g,0.0,g,1.0,0.5931593000423163,,,,,,,,,,3.0,4.0,40.0,3.0,265.2249950999394,,,,,,,,,,,,,,,,,265.21192909998354,265.5752696999116,266.4120319999056,266.3603742999257,,,,,,,,,,,,,,,,,,,,,,,,,,,,,,,,,,,266.3995598999318,266.4120319999056,266.4120319999056,267.011946399929,g,1.0,0.5931593000423163,,,,,sub-206,1,stroop_test,60.10178839424691,
,,,,41.0,5.0,3.0,,,,,,,,,,,,,blau,yellow,g,0.0,g,1.0,0.9640532000921668,,,,,,,,,,3.0,5.0,41.0,7.0,267.02629109995905,,,,,,,,,,,,,,,,,267.01267359999474,267.8268605999183,268.6618805999169,268.611975699896,,,,,,,,,,,,,,,,,,,,,,,,,,,,,,,,,,,268.64977389993146,268.6618805999169,268.6618805999169,269.6306354999542,g,1.0,0.9640532000921668,,,,,sub-206,1,stroop_test,60.10178839424691,
,,,,42.0,6.0,3.0,,,,,,,,,,,,,rot,red,r,1.0,b,0.0,0.4934006000403315,,,,,,,,,,3.0,6.0,42.0,0.0,269.6446535999421,,,,,,,,,,,,,,,,,269.63138989999425,269.74474949995056,270.581546499976,270.53005969990045,,,,,,,,,,,,,,,,,,,,,,,,,,,,,,,,,,,270.56864019995555,270.581546499976,270.581546499976,271.0816601999104,b,0.0,0.4934006000403315,,,,,sub-206,1,stroop_test,60.10178839424691,
,,,,43.0,7.0,3.0,,,,,,,,,,,,,rot,red,r,1.0,r,1.0,0.6875645000254735,,,,,,,,,,3.0,7.0,43.0,1.0,271.09562149993144,,,,,,,,,,,,,,,,,271.0824180999771,271.89637139998376,272.6968585998984,272.6815399999032,,,,,,,,,,,,,,,,,,,,,,,,,,,,,,,,,,,272.6824961999664,272.6968585998984,272.6968585998984,273.3996638999088,r,1.0,0.6875645000254735,,,,,sub-206,1,stroop_test,60.10178839424691,
,,,,44.0,8.0,3.0,,,,,,,,,,,,,gelb,yellow,g,1.0,g,1.0,0.4374176999554038,,,,,,,,,,3.0,8.0,44.0,11.0,273.4138254999416,,,,,,,,,,,,,,,,,273.4003191998927,274.6147262000013,275.4472411999013,275.39994489995297,,,,,,,,,,,,,,,,,,,,,,,,,,,,,,,,,,,275.4075774999801,275.4472411999013,275.4472411999013,275.9016311999876,g,1.0,0.4374176999554038,,,,,sub-206,1,stroop_test,60.10178839424691,
,,,,45.0,9.0,3.0,,,,,,,,,,,,,gelb,blue,b,0.0,b,1.0,0.3272428000345826,,,,,,,,,,3.0,9.0,45.0,9.0,275.91568360000383,,,,,,,,,,,,,,,,,275.9023995999014,276.7162602999015,277.5167527999729,277.5012974999845,,,,,,,,,,,,,,,,,,,,,,,,,,,,,,,,,,,277.5022475000005,277.5167527999729,277.5167527999729,277.85279299994,b,1.0,0.3272428000345826,,,,,sub-206,1,stroop_test,60.10178839424691,
,,,,46.0,10.0,3.0,,,,,,,,,,,,,gelb,red,r,0.0,r,1.0,1.04704740003217,,,,,,,,,,3.0,10.0,46.0,8.0,277.86693719995674,,,,,,,,,,,,,,,,,277.8535724999383,278.21719539992046,279.0178785999305,279.00257829995826,,,,,,,,,,,,,,,,,,,,,,,,,,,,,,,,,,,279.0036484999582,279.0178785999305,279.0178785999305,280.07142539997585,r,1.0,1.04704740003217,,,,,sub-206,1,stroop_test,60.10178839424691,
,,,,47.0,11.0,3.0,,,,,,,,,,,,,rot,blue,b,0.0,b,1.0,0.4652450000867247,,,,,,,,,,3.0,11.0,47.0,2.0,280.08513059990946,,,,,,,,,,,,,,,,,280.0721305999905,280.4354733999353,281.23959599994123,281.22065509995446,,,,,,,,,,,,,,,,,,,,,,,,,,,,,,,,,,,281.2284927999135,281.23959599994123,281.23959599994123,281.7218161999481,b,1.0,0.4652450000867247,,,,,sub-206,1,stroop_test,60.10178839424691,
,,,,48.0,0.0,4.0,,,,,,,,,,,,,gelb,blue,b,0.0,b,1.0,0.4239957999670878,,,,,,,,,,4.0,0.0,48.0,9.0,281.7362610999262,,,,,,,,,,,,,,,,,281.72254409990273,282.0866825999692,282.95019319991115,282.8717752000084,,,,,,,,,,,,,,,,,,,,,,,,,,,,,,,,,,,282.93615599989425,282.95019319991115,282.95019319991115,283.3894922999898,b,1.0,0.4239957999670878,,,,,sub-206,1,stroop_test,60.10178839424691,
,,,,49.0,1.0,4.0,,,,,,,,,,,,,rot,red,r,1.0,r,1.0,0.5832877000793815,,,,,,,,,,4.0,1.0,49.0,1.0,283.4041998999892,,,,,,,,,,,,,,,,,283.39012969995383,283.5042924999725,284.3108764999779,284.28936999989673,,,,,,,,,,,,,,,,,,,,,,,,,,,,,,,,,,,284.2988829999231,284.3108764999779,284.3108764999779,284.90771499997936,r,1.0,0.5832877000793815,,,,,sub-206,1,stroop_test,60.10178839424691,
,,,,50.0,2.0,4.0,,,,,,,,,,,,,gelb,yellow,g,1.0,g,1.0,0.3153341999277472,,,,,,,,,,4.0,2.0,50.0,10.0,284.9219486999791,,,,,,,,,,,,,,,,,284.90850669995416,285.7224748999579,286.5284905999433,286.5078519999515,,,,,,,,,,,,,,,,,,,,,,,,,,,,,,,,,,,286.51623730000574,286.5284905999433,286.5284905999433,286.85909779998474,g,1.0,0.3153341999277472,,,,,sub-206,1,stroop_test,60.10178839424691,
,,,,51.0,3.0,4.0,,,,,,,,,,,,,rot,red,r,1.0,r,1.0,0.500502199982293,,,,,,,,,,4.0,3.0,51.0,0.0,286.87313319998793,,,,,,,,,,,,,,,,,286.8598527999129,286.9732603000012,287.81442299997434,287.7586706998991,,,,,,,,,,,,,,,,,,,,,,,,,,,,,,,,,,,287.8007829999551,287.81442299997434,287.81442299997434,288.3264360999456,r,1.0,0.500502199982293,,,,,sub-206,1,stroop_test,60.10178839424691,
,,,,52.0,4.0,4.0,,,,,,,,,,,,,blau,blue,b,1.0,b,1.0,0.530172900063917,,,,,,,,,,4.0,4.0,52.0,6.0,288.3409535998944,,,,,,,,,,,,,,,,,288.3272128999233,289.5417725999141,290.38507409999147,290.32696519989986,,,,,,,,,,,,,,,,,,,,,,,,,,,,,,,,,,,290.3732292999048,290.38507409999147,290.38507409999147,290.9285610999213,b,1.0,0.530172900063917,,,,,sub-206,1,stroop_test,60.10178839424691,
,,,,53.0,5.0,4.0,,,,,,,,,,,,,rot,yellow,g,0.0,g,1.0,0.7947077000280842,,,,,,,,,,4.0,5.0,53.0,3.0,290.942581399926,,,,,,,,,,,,,,,,,290.92932509991806,291.7432590998942,292.54915449989494,292.5284098999109,,,,,,,,,,,,,,,,,,,,,,,,,,,,,,,,,,,292.5370300000068,292.54915449989494,292.54915449989494,293.34683699999005,g,1.0,0.7947077000280842,,,,,sub-206,1,stroop_test,60.10178839424691,
,,,,54.0,6.0,4.0,,,,,,,,,,,,,rot,blue,b,0.0,b,1.0,0.3620997000252828,,,,,,,,,,4.0,6.0,54.0,2.0,293.3609707999276,,,,,,,,,,,,,,,,,293.3475938999327,294.56186539994087,295.36237200000323,295.34692049992736,,,,,,,,,,,,,,,,,,,,,,,,,,,,,,,,,,,295.3479017999489,295.36237200000323,295.36237200000323,295.7317155000055,b,1.0,0.3620997000252828,,,,,sub-206,1,stroop_test,60.10178839424691,
,,,,55.0,7.0,4.0,,,,,,,,,,,,,gelb,yellow,g,1.0,g,1.0,0.429505500011146,,,,,,,,,,4.0,7.0,55.0,11.0,295.7458479999332,,,,,,,,,,,,,,,,,295.73248169990256,296.9467664998956,297.7855936998967,297.7320759999566,,,,,,,,,,,,,,,,,,,,,,,,,,,,,,,,,,,297.771272999933,297.7855936998967,297.7855936998967,298.2175091999816,g,1.0,0.429505500011146,,,,,sub-206,1,stroop_test,60.10178839424691,
,,,,56.0,8.0,4.0,,,,,,,,,,,,,blau,red,r,0.0,r,1.0,0.5604146000696346,,,,,,,,,,4.0,8.0,56.0,4.0,298.2309397999197,,,,,,,,,,,,,,,,,298.2182275999803,298.3310751999961,299.1746309999144,299.11636929993983,,,,,,,,,,,,,,,,,,,,,,,,,,,,,,,,,,,299.1625475999899,299.1746309999144,299.1746309999144,299.75116719992366,r,1.0,0.5604146000696346,,,,,sub-206,1,stroop_test,60.10178839424691,
,,,,57.0,9.0,4.0,,,,,,,,,,,,,blau,blue,b,1.0,b,1.0,0.3788254000246525,,,,,,,,,,4.0,9.0,57.0,5.0,299.76532269991003,,,,,,,,,,,,,,,,,299.7519455999136,300.9662786999252,301.76667419995647,301.75138899998274,,,,,,,,,,,,,,,,,,,,,,,,,,,,,,,,,,,301.75239959999453,301.76667419995647,301.76667419995647,302.1527568999445,b,1.0,0.3788254000246525,,,,,sub-206,1,stroop_test,60.10178839424691,
,,,,58.0,10.0,4.0,,,,,,,,,,,,,gelb,red,r,0.0,r,1.0,0.6315987999550998,,,,,,,,,,4.0,10.0,58.0,8.0,302.16685449995566,,,,,,,,,,,,,,,,,302.1535353999352,303.36789009999484,304.1734916999703,304.1531633998966,,,,,,,,,,,,,,,,,,,,,,,,,,,,,,,,,,,304.16139149991795,304.1734916999703,304.1734916999703,304.8211789999623,r,1.0,0.6315987999550998,,,,,sub-206,1,stroop_test,60.10178839424691,
,,,,59.0,11.0,4.0,,,,,,,,,,,,,blau,yellow,g,0.0,g,1.0,0.5742781999288127,,,,,,,,,,4.0,11.0,59.0,7.0,304.83545899996534,,,,,,,,,,,,,,,,,304.8219179000007,304.93566499999724,305.75119209999684,305.7207542998949,,,,,,,,,,,,,,,,,,,,,,,,,,,,,,,,,,,305.7278852999443,305.75119209999684,305.75119209999684,306.3390891999006,g,1.0,0.5742781999288127,,,,,sub-206,1,stroop_test,60.10178839424691,
,,,,60.0,0.0,5.0,,,,,,,,,,,,,gelb,red,r,0.0,r,1.0,0.3248452999396249,,,,,,,,,,5.0,0.0,60.0,8.0,306.3531846998958,,,,,,,,,,,,,,,,,306.3399037999334,307.554138999898,308.3599751999136,308.3392330999486,,,,,,,,,,,,,,,,,,,,,,,,,,,,,,,,,,,308.3470489999745,308.3599751999136,308.3599751999136,308.6907335999422,r,1.0,0.3248452999396249,,,,,sub-206,1,stroop_test,60.10178839424691,
,,,,61.0,1.0,5.0,,,,,,,,,,,,,blau,blue,b,1.0,b,1.0,0.4347714999457821,,,,,,,,,,5.0,1.0,61.0,5.0,308.7047064999351,,,,,,,,,,,,,,,,,308.69146849995013,309.0551492999075,309.8606797999237,309.8402576999506,,,,,,,,,,,,,,,,,,,,,,,,,,,,,,,,,,,309.8497159999097,309.8606797999237,309.8606797999237,310.30833589995746,b,1.0,0.4347714999457821,,,,,sub-206,1,stroop_test,60.10178839424691,
,,,,62.0,2.0,5.0,,,,,,,,,,,,,rot,red,r,1.0,r,1.0,0.5279300999827683,,,,,,,,,,5.0,2.0,62.0,0.0,310.32255079993047,,,,,,,,,,,,,,,,,310.3090700999601,310.6729198999237,311.47761619999073,311.45791959995404,,,,,,,,,,,,,,,,,,,,,,,,,,,,,,,,,,,311.4651336999377,311.47761619999073,311.47761619999073,312.0096467999974,r,1.0,0.5279300999827683,,,,,sub-206,1,stroop_test,60.10178839424691,
,,,,63.0,3.0,5.0,,,,,,,,,,,,,gelb,blue,b,0.0,b,1.0,0.5532638999866322,,,,,,,,,,5.0,3.0,63.0,9.0,312.0237407999812,,,,,,,,,,,,,,,,,312.0104226999684,312.8243721999461,313.63181159994565,313.60967389994767,,,,,,,,,,,,,,,,,,,,,,,,,,,,,,,,,,,313.6184707999928,313.63181159994565,313.63181159994565,314.19447149999905,b,1.0,0.5532638999866322,,,,,sub-206,1,stroop_test,60.10178839424691,
,,,,64.0,4.0,5.0,,,,,,,,,,,,,blau,blue,b,1.0,b,1.0,0.5117987999692559,,,,,,,,,,5.0,4.0,64.0,6.0,314.2085506999865,,,,,,,,,,,,,,,,,314.1952550999122,315.4095271999249,316.21351009991486,316.19458589993883,,,,,,,,,,,,,,,,,,,,,,,,,,,,,,,,,,,316.2020278999116,316.21351009991486,316.21351009991486,316.72934669989627,b,1.0,0.5117987999692559,,,,,sub-206,1,stroop_test,60.10178839424691,
,,,,65.0,5.0,5.0,,,,,,,,,,,,,rot,red,r,1.0,r,1.0,0.4578451999695971,,,,,,,,,,5.0,5.0,65.0,1.0,316.74360569997225,,,,,,,,,,,,,,,,,316.7300607999787,317.0939157999819,317.89829969999846,317.8791440000059,,,,,,,,,,,,,,,,,,,,,,,,,,,,,,,,,,,317.8873605999397,317.89829969999846,317.89829969999846,318.36360529996455,r,1.0,0.4578451999695971,,,,,sub-206,1,stroop_test,60.10178839424691,
,,,,66.0,6.0,5.0,,,,,,,,,,,,,rot,yellow,g,0.0,r,0.0,0.555524899973534,,,,,,,,,,5.0,6.0,66.0,3.0,318.37809439993,,,,,,,,,,,,,,,,,318.364292299957,319.17870729998685,319.97926860000007,319.96393369999714,,,,,,,,,,,,,,,,,,,,,,,,,,,,,,,,,,,319.9649212999502,319.97926860000007,319.97926860000007,320.54910299996845,r,0.0,0.555524899973534,,,,,sub-206,1,stroop_test,60.10178839424691,
,,,,67.0,7.0,5.0,,,,,,,,,,,,,gelb,yellow,g,1.0,g,1.0,1.1182948999339717,,,,,,,,,,5.0,7.0,67.0,10.0,320.56299659993965,,,,,,,,,,,,,,,,,320.549877799931,320.9133603000082,321.7771812999854,321.6986044999212,,,,,,,,,,,,,,,,,,,,,,,,,,,,,,,,,,,321.7648241999559,321.7771812999854,321.7771812999854,322.900365499896,g,1.0,1.1182948999339717,,,,,sub-206,1,stroop_test,60.10178839424691,
,,,,68.0,8.0,5.0,,,,,,,,,,,,,blau,yellow,g,0.0,g,1.0,0.8976309000281617,,,,,,,,,,5.0,8.0,68.0,7.0,322.91459479997866,,,,,,,,,,,,,,,,,322.90110529994126,323.0147402998992,323.88757289992645,323.7999332000036,,,,,,,,,,,,,,,,,,,,,,,,,,,,,,,,,,,323.8081556999823,323.88757289992645,323.88757289992645,324.80168929998763,g,1.0,0.8976309000281617,,,,,sub-206,1,stroop_test,60.10178839424691,
,,,,69.0,9.0,5.0,,,,,,,,,,,,,rot,blue,b,0.0,b,1.0,0.4326727000297978,,,,,,,,,,5.0,9.0,69.0,2.0,324.8160302999895,,,,,,,,,,,,,,,,,324.8024342999561,326.01666959992144,326.8228994999081,326.801981800003,,,,,,,,,,,,,,,,,,,,,,,,,,,,,,,,,,,326.81065149989445,326.8228994999081,326.8228994999081,327.2700617999071,b,1.0,0.4326727000297978,,,,,sub-206,1,stroop_test,60.10178839424691,
,,,,70.0,10.0,5.0,,,,,,,,,,,,,gelb,yellow,g,1.0,g,1.0,0.5196699999505654,,,,,,,,,,5.0,10.0,70.0,11.0,327.28427389997523,,,,,,,,,,,,,,,,,327.27077709999867,328.08469389996026,328.8851567999227,328.8693638999248,,,,,,,,,,,,,,,,,,,,,,,,,,,,,,,,,,,328.8746487000026,328.8851567999227,328.8851567999227,329.42133129993454,g,1.0,0.5196699999505654,,,,,sub-206,1,stroop_test,60.10178839424691,
,,,,71.0,11.0,5.0,,,,,,,,,,,,,blau,red,r,0.0,r,1.0,1.015753399929963,,,,,,,,,,5.0,11.0,71.0,4.0,329.4358648000052,,,,,,,,,,,,,,,,,329.42207179998513,330.63660349999554,331.43964519992005,331.42172019998543,,,,,,,,,,,,,,,,,,,,,,,,,,,,,,,,,,,331.42865319992416,331.43964519992005,331.43964519992005,332.4576197999995,r,1.0,1.015753399929963,,,,,sub-206,1,stroop_test,60.10178839424691,
,,,,72.0,0.0,6.0,,,,,,,,,,,,,blau,blue,b,1.0,b,1.0,0.5533545999787748,,,,,,,,,,6.0,0.0,72.0,6.0,332.4711434999481,,,,,,,,,,,,,,,,,332.45838889991865,332.8213743999368,333.6219596998999,333.60659429989755,,,,,,,,,,,,,,,,,,,,,,,,,,,,,,,,,,,333.6077402998926,333.6219596998999,333.6219596998999,334.1918762999121,b,1.0,0.5533545999787748,,,,,sub-206,1,stroop_test,60.10178839424691,
,,,,73.0,1.0,6.0,,,,,,,,,,,,,gelb,yellow,g,1.0,g,1.0,0.5920740999281406,,,,,,,,,,6.0,1.0,73.0,10.0,334.20551649993286,,,,,,,,,,,,,,,,,334.1926459999522,335.0062774999533,335.81353139993735,335.7916416999651,,,,,,,,,,,,,,,,,,,,,,,,,,,,,,,,,,,335.80108219990507,335.81353139993735,335.81353139993735,336.4094982999377,g,1.0,0.5920740999281406,,,,,sub-206,1,stroop_test,60.10178839424691,
,,,,74.0,2.0,6.0,,,,,,,,,,,,,blau,blue,b,1.0,b,1.0,0.4782657000469044,,,,,,,,,,6.0,2.0,74.0,5.0,336.42385149991605,,,,,,,,,,,,,,,,,336.4102263998939,337.62473359995056,338.4282025999855,338.4098710999824,,,,,,,,,,,,,,,,,,,,,,,,,,,,,,,,,,,338.41713759989943,338.4282025999855,338.4282025999855,338.91135509999003,b,1.0,0.4782657000469044,,,,,sub-206,1,stroop_test,60.10178839424691,
,,,,75.0,3.0,6.0,,,,,,,,,,,,,gelb,yellow,g,1.0,g,1.0,0.4748263000510633,,,,,,,,,,6.0,3.0,75.0,11.0,338.9256314999657,,,,,,,,,,,,,,,,,338.9122875999892,339.7260780999204,340.5309764998965,340.5112894999329,,,,,,,,,,,,,,,,,,,,,,,,,,,,,,,,,,,340.51968789997045,340.5309764998965,340.5309764998965,341.01265049993526,g,1.0,0.4748263000510633,,,,,sub-206,1,stroop_test,60.10178839424691,
,,,,76.0,4.0,6.0,,,,,,,,,,,,,gelb,red,r,0.0,r,1.0,0.9388229000614956,,,,,,,,,,6.0,4.0,76.0,8.0,341.0268977999221,,,,,,,,,,,,,,,,,341.01341739995405,341.12709629989695,341.9276867998997,341.91207839990966,,,,,,,,,,,,,,,,,,,,,,,,,,,,,,,,,,,341.9130412999075,341.9276867998997,341.9276867998997,342.8806810999522,r,1.0,0.9388229000614956,,,,,sub-206,1,stroop_test,60.10178839424691,
,,,,77.0,5.0,6.0,,,,,,,,,,,,,blau,yellow,g,0.0,g,1.0,0.6271422000136226,,,,,,,,,,6.0,5.0,77.0,7.0,342.89485549996607,,,,,,,,,,,,,,,,,342.88160589989275,342.99509829992894,343.799291000003,343.7802175999386,,,,,,,,,,,,,,,,,,,,,,,,,,,,,,,,,,,343.78735729993787,343.799291000003,343.799291000003,344.4319701999193,g,1.0,0.6271422000136226,,,,,sub-206,1,stroop_test,60.10178839424691,
,,,,78.0,6.0,6.0,,,,,,,,,,,,,rot,red,r,1.0,r,1.0,0.5631564999930561,,,,,,,,,,6.0,6.0,78.0,0.0,344.4459062999813,,,,,,,,,,,,,,,,,344.43275819998235,344.7963466999354,345.60278019995894,345.5815641999943,,,,,,,,,,,,,,,,,,,,,,,,,,,,,,,,,,,345.5898622999666,345.60278019995894,345.60278019995894,346.1829712999752,r,1.0,0.5631564999930561,,,,,sub-206,1,stroop_test,60.10178839424691,
,,,,79.0,7.0,6.0,,,,,,,,,,,,,blau,red,r,0.0,r,1.0,0.4823064999654889,,,,,,,,,,6.0,7.0,79.0,4.0,346.19724239991046,,,,,,,,,,,,,,,,,346.18370639998466,347.39811499998905,348.2335178999929,348.1831928999163,,,,,,,,,,,,,,,,,,,,,,,,,,,,,,,,,,,348.2221218999475,348.2335178999929,348.2335178999929,348.71825419995,r,1.0,0.4823064999654889,,,,,sub-206,1,stroop_test,60.10178839424691,
,,,,80.0,8.0,6.0,,,,,,,,,,,,,rot,red,r,1.0,r,1.0,0.4287725000176579,,,,,,,,,,6.0,8.0,80.0,1.0,348.7322525999043,,,,,,,,,,,,,,,,,348.7189788999967,349.532742499956,350.36823749996256,350.3180813000072,,,,,,,,,,,,,,,,,,,,,,,,,,,,,,,,,,,350.3257855999982,350.36823749996256,350.36823749996256,350.80291460000444,r,1.0,0.4287725000176579,,,,,sub-206,1,stroop_test,60.10178839424691,
,,,,81.0,9.0,6.0,,,,,,,,,,,,,rot,yellow,g,0.0,g,1.0,0.7479930999688804,,,,,,,,,,6.0,9.0,81.0,3.0,350.81722859991714,,,,,,,,,,,,,,,,,350.80367959989235,351.16742009995505,351.9679413998965,351.95230699994136,,,,,,,,,,,,,,,,,,,,,,,,,,,,,,,,,,,351.95327229995746,351.9679413998965,351.9679413998965,352.7213650000049,g,1.0,0.7479930999688804,,,,,sub-206,1,stroop_test,60.10178839424691,
,,,,82.0,10.0,6.0,,,,,,,,,,,,,rot,blue,b,0.0,b,1.0,0.4104855000041425,,,,,,,,,,6.0,10.0,82.0,2.0,352.7351332999533,,,,,,,,,,,,,,,,,352.7222321999725,352.8350725999335,353.63580499996897,353.6204147998942,,,,,,,,,,,,,,,,,,,,,,,,,,,,,,,,,,,353.6214054999873,353.63580499996897,353.63580499996897,354.0550602999283,b,1.0,0.4104855000041425,,,,,sub-206,1,stroop_test,60.10178839424691,
,,,,83.0,11.0,6.0,,,,,,,,,,,,,gelb,blue,b,0.0,b,1.0,0.5423370999051258,,,,,,,,,,6.0,11.0,83.0,9.0,354.0693514999002,,,,,,,,,,,,,,,,,354.0557947999332,354.16942389996257,354.97432769997977,354.9544465999352,,,,,,,,,,,,,,,,,,,,,,,,,,,,,,,,,,,354.9621480999049,354.97432769997977,354.97432769997977,355.52324069989845,b,1.0,0.5423370999051258,,,,,sub-206,1,stroop_test,60.10178839424691,
,,,,84.0,0.0,7.0,,,,,,,,,,,,,gelb,yellow,g,1.0,g,1.0,0.5681881000055,,,,,,,,,,7.0,0.0,84.0,10.0,355.53698609990533,,,,,,,,,,,,,,,,,355.5240113999462,356.3376685999101,357.1380958999507,357.1228291000007,,,,,,,,,,,,,,,,,,,,,,,,,,,,,,,,,,,357.1239688999485,357.1380958999507,357.1380958999507,357.7239956998965,g,1.0,0.5681881000055,,,,,sub-206,1,stroop_test,60.10178839424691,
,,,,85.0,1.0,7.0,,,,,,,,,,,,,rot,red,r,1.0,r,1.0,0.5438109000679106,,,,,,,,,,7.0,1.0,85.0,1.0,357.7386108000064,,,,,,,,,,,,,,,,,357.7247202999424,358.9392784999218,359.8129901000066,359.72445300000254,,,,,,,,,,,,,,,,,,,,,,,,,,,,,,,,,,,359.7324236999266,359.8129901000066,359.8129901000066,360.3595420999918,r,1.0,0.5438109000679106,,,,,sub-206,1,stroop_test,60.10178839424691,
,,,,86.0,2.0,7.0,,,,,,,,,,,,,blau,yellow,g,0.0,b,0.0,0.3373147000093013,,,,,,,,,,7.0,2.0,86.0,7.0,360.3737028999021,,,,,,,,,,,,,,,,,360.36030519998167,361.5744102000026,362.3786497999681,362.35953419993166,,,,,,,,,,,,,,,,,,,,,,,,,,,,,,,,,,,362.3673729998991,362.3786497999681,362.3786497999681,362.7276046999032,b,0.0,0.3373147000093013,,,,,sub-206,1,stroop_test,60.10178839424691,
,,,,87.0,3.0,7.0,,,,,,,,,,,,,rot,red,r,1.0,r,1.0,0.9288837999338284,,,,,,,,,,7.0,3.0,87.0,0.0,362.74190789996646,,,,,,,,,,,,,,,,,362.7283701999113,362.8420902999351,363.6481295999838,363.6271080999868,,,,,,,,,,,,,,,,,,,,,,,,,,,,,,,,,,,363.6354214999592,363.6481295999838,363.6481295999838,364.5795156999957,r,1.0,0.9288837999338284,,,,,sub-206,1,stroop_test,60.10178839424691,
,,,,88.0,4.0,7.0,,,,,,,,,,,,,blau,blue,b,1.0,b,1.0,0.6597218998940662,,,,,,,,,,7.0,4.0,88.0,6.0,364.5933201999869,,,,,,,,,,,,,,,,,364.5802482999861,364.9435970999766,365.7477636999684,365.7286811999511,,,,,,,,,,,,,,,,,,,,,,,,,,,,,,,,,,,365.7366444999352,365.7477636999684,365.7477636999684,366.4134756999556,b,1.0,0.6597218998940662,,,,,sub-206,1,stroop_test,60.10178839424691,
,,,,89.0,5.0,7.0,,,,,,,,,,,,,gelb,yellow,g,1.0,g,1.0,0.6629445999860764,,,,,,,,,,7.0,5.0,89.0,11.0,366.4277220999357,,,,,,,,,,,,,,,,,366.4142217999324,367.6285812999122,368.4338459999999,368.41372029995546,,,,,,,,,,,,,,,,,,,,,,,,,,,,,,,,,,,368.4215662999777,368.4338459999999,368.4338459999999,369.09947939997073,g,1.0,0.6629445999860764,,,,,sub-206,1,stroop_test,60.10178839424691,
,,,,90.0,6.0,7.0,,,,,,,,,,,,,blau,blue,b,1.0,b,1.0,0.7488099000183865,,,,,,,,,,7.0,6.0,90.0,5.0,369.1134132998996,,,,,,,,,,,,,,,,,369.1002129999688,369.2131512999768,370.0175568999257,369.998370999936,,,,,,,,,,,,,,,,,,,,,,,,,,,,,,,,,,,370.005953899934,370.0175568999257,370.0175568999257,370.7832180999685,b,1.0,0.7488099000183865,,,,,sub-206,1,stroop_test,60.10178839424691,
,,,,91.0,7.0,7.0,,,,,,,,,,,,,rot,yellow,g,0.0,g,1.0,0.7476836999412626,,,,,,,,,,7.0,7.0,91.0,3.0,370.79742540000007,,,,,,,,,,,,,,,,,370.7839557999978,371.99839449999854,372.8481479999609,372.7838704999304,,,,,,,,,,,,,,,,,,,,,,,,,,,,,,,,,,,372.83456039999146,372.8481479999609,372.8481479999609,373.6023603999056,g,1.0,0.7476836999412626,,,,,sub-206,1,stroop_test,60.10178839424691,
,,,,92.0,8.0,7.0,,,,,,,,,,,,,gelb,blue,b,0.0,b,1.0,0.7634295999305323,,,,,,,,,,7.0,8.0,92.0,9.0,373.6159921999788,,,,,,,,,,,,,,,,,373.6031603999436,374.41670089995023,375.2241549999453,375.201787799946,,,,,,,,,,,,,,,,,,,,,,,,,,,,,,,,,,,375.2103411999997,375.2241549999453,375.2241549999453,376.00345409999136,b,1.0,0.7634295999305323,,,,,sub-206,1,stroop_test,60.10178839424691,
,,,,93.0,9.0,7.0,,,,,,,,,,,,,blau,red,r,0.0,r,1.0,0.5758199000265449,,,,,,,,,,7.0,9.0,93.0,4.0,376.01779089996126,,,,,,,,,,,,,,,,,376.00421889999416,376.81834389991127,377.6215032999171,377.60336720000487,,,,,,,,,,,,,,,,,,,,,,,,,,,,,,,,,,,377.6103237000061,377.6215032999171,377.6215032999171,378.2051236999687,r,1.0,0.5758199000265449,,,,,sub-206,1,stroop_test,60.10178839424691,
,,,,94.0,10.0,7.0,,,,,,,,,,,,,rot,blue,b,0.0,b,1.0,0.6454529000911862,,,,,,,,,,7.0,10.0,94.0,2.0,378.2193954999093,,,,,,,,,,,,,,,,,378.2058414999629,378.5695193998981,379.45207619993016,379.35455299995374,,,,,,,,,,,,,,,,,,,,,,,,,,,,,,,,,,,379.4380870999303,379.45207619993016,379.45207619993016,380.106054999982,b,1.0,0.6454529000911862,,,,,sub-206,1,stroop_test,60.10178839424691,
,,,,95.0,11.0,7.0,,,,,,,,,,,,,gelb,red,r,0.0,r,1.0,0.6209104000590742,,,,,,,,,,7.0,11.0,95.0,8.0,380.1206173999235,,,,,,,,,,,,,,,,,380.10680899990257,381.3214187999256,382.12687379994895,382.106619499973,,,,,,,,,,,,,,,,,,,,,,,,,,,,,,,,,,,382.1148972999072,382.12687379994895,382.12687379994895,382.7579075999092,r,1.0,0.6209104000590742,,,,,sub-206,1,stroop_test,60.10178839424691,
,,,,96.0,0.0,8.0,,,,,,,,,,,,,rot,blue,b,0.0,b,1.0,0.867744900053367,,,,,,,,,,8.0,0.0,96.0,2.0,382.7722107999725,,,,,,,,,,,,,,,,,382.75863299996126,383.5729689999717,384.38084549992345,384.3579736999236,,,,,,,,,,,,,,,,,,,,,,,,,,,,,,,,,,,384.36901009990834,384.38084549992345,384.38084549992345,385.26005859998986,b,1.0,0.867744900053367,,,,,sub-206,1,stroop_test,60.10178839424691,
,,,,97.0,1.0,8.0,,,,,,,,,,,,,blau,blue,b,1.0,b,1.0,0.4485885000322014,,,,,,,,,,8.0,1.0,97.0,5.0,385.2740039000055,,,,,,,,,,,,,,,,,385.2608625999419,385.62420169997495,386.4388253999641,386.4094097999623,,,,,,,,,,,,,,,,,,,,,,,,,,,,,,,,,,,386.4277506999206,386.4388253999641,386.4388253999641,386.894379699952,b,1.0,0.4485885000322014,,,,,sub-206,1,stroop_test,60.10178839424691,
,,,,98.0,2.0,8.0,,,,,,,,,,,,,rot,red,r,1.0,r,1.0,0.7179053999716416,,,,,,,,,,8.0,2.0,98.0,0.0,386.9084048999939,,,,,,,,,,,,,,,,,386.89512639993336,388.1093777999049,388.9788074999815,388.894507399993,,,,,,,,,,,,,,,,,,,,,,,,,,,,,,,,,,,388.9023123999359,388.9788074999815,388.9788074999815,389.7128394999309,r,1.0,0.7179053999716416,,,,,sub-206,1,stroop_test,60.10178839424691,
,,,,99.0,3.0,8.0,,,,,,,,,,,,,blau,blue,b,1.0,b,1.0,0.4784500999376178,,,,,,,,,,8.0,3.0,99.0,6.0,389.7270139999455,,,,,,,,,,,,,,,,,389.7135690998985,389.8271813999163,390.62963290000334,390.6121764999116,,,,,,,,,,,,,,,,,,,,,,,,,,,,,,,,,,,390.6191753000021,390.62963290000334,390.62963290000334,391.11405029997695,b,1.0,0.4784500999376178,,,,,sub-206,1,stroop_test,60.10178839424691,
,,,,100.0,4.0,8.0,,,,,,,,,,,,,gelb,yellow,g,1.0,g,1.0,0.4324193999636918,,,,,,,,,,8.0,4.0,100.0,10.0,391.1281602999661,,,,,,,,,,,,,,,,,391.11479409993626,392.32906009990256,393.1655477999011,393.1140633999603,,,,,,,,,,,,,,,,,,,,,,,,,,,,,,,,,,,393.1224908999866,393.1655477999011,393.1655477999011,393.61549060000107,g,1.0,0.4324193999636918,,,,,sub-206,1,stroop_test,60.10178839424691,
,,,,101.0,5.0,8.0,,,,,,,,,,,,,gelb,yellow,g,1.0,g,1.0,0.4468037000624463,,,,,,,,,,8.0,5.0,101.0,11.0,393.62971359991934,,,,,,,,,,,,,,,,,393.6162715998944,393.73000109998975,394.5304807999637,394.51506879995577,,,,,,,,,,,,,,,,,,,,,,,,,,,,,,,,,,,394.5160785999615,394.5304807999637,394.5304807999637,394.9833645999897,g,1.0,0.4468037000624463,,,,,sub-206,1,stroop_test,60.10178839424691,
,,,,102.0,6.0,8.0,,,,,,,,,,,,,blau,yellow,g,0.0,g,1.0,0.3944711999502033,,,,,,,,,,8.0,6.0,102.0,7.0,394.9975062999874,,,,,,,,,,,,,,,,,394.9840884999139,395.3475997999776,396.1522852999624,396.1328602998983,,,,,,,,,,,,,,,,,,,,,,,,,,,,,,,,,,,396.1409161000047,396.1522852999624,396.1522852999624,396.5510405999376,g,1.0,0.3944711999502033,,,,,sub-206,1,stroop_test,60.10178839424691,
,,,,103.0,7.0,8.0,,,,,,,,,,,,,gelb,red,r,0.0,r,1.0,0.5583397999871522,,,,,,,,,,8.0,7.0,103.0,8.0,396.5649190999102,,,,,,,,,,,,,,,,,396.55177299992647,396.6653070999309,397.4698539999081,397.4503266999964,,,,,,,,,,,,,,,,,,,,,,,,,,,,,,,,,,,397.4581180999521,397.4698539999081,397.4698539999081,398.035296899965,r,1.0,0.5583397999871522,,,,,sub-206,1,stroop_test,60.10178839424691,
,,,,104.0,8.0,8.0,,,,,,,,,,,,,blau,red,r,0.0,g,0.0,0.4051853000419214,,,,,,,,,,8.0,8.0,104.0,4.0,398.0494635999203,,,,,,,,,,,,,,,,,398.0360623999732,398.85000819992274,399.6532223999966,399.6354163999204,,,,,,,,,,,,,,,,,,,,,,,,,,,,,,,,,,,399.6424999999581,399.6532223999966,399.6532223999966,400.0699201999232,g,0.0,0.4051853000419214,,,,,sub-206,1,stroop_test,60.10178839424691,
,,,,105.0,9.0,8.0,,,,,,,,,,,,,gelb,blue,b,0.0,r,0.0,0.7978104000212625,,,,,,,,,,8.0,9.0,105.0,9.0,400.0842042999575,,,,,,,,,,,,,,,,,400.070670499932,401.2851427999558,402.0901271000039,402.07020939991344,,,,,,,,,,,,,,,,,,,,,,,,,,,,,,,,,,,402.0783597999253,402.0901271000039,402.0901271000039,402.9055176998954,r,0.0,0.7978104000212625,,,,,sub-206,1,stroop_test,60.10178839424691,
,,,,106.0,10.0,8.0,,,,,,,,,,,,,rot,red,r,1.0,r,1.0,0.6486298000672832,,,,,,,,,,8.0,10.0,106.0,1.0,402.9193702999037,,,,,,,,,,,,,,,,,402.9061674999539,403.2698315999005,404.1192024999764,404.0549132999731,,,,,,,,,,,,,,,,,,,,,,,,,,,,,,,,,,,404.105473499978,404.1192024999764,404.1192024999764,404.7733432999812,r,1.0,0.6486298000672832,,,,,sub-206,1,stroop_test,60.10178839424691,
,,,,107.0,11.0,8.0,,,,,,,,,,,,,rot,yellow,g,0.0,g,1.0,0.6597323999740183,,,,,,,,,,8.0,11.0,107.0,3.0,404.7873917999677,,,,,,,,,,,,,,,,,404.77418139996007,405.5879291999154,406.38853379990906,406.37336569989566,,,,,,,,,,,,,,,,,,,,,,,,,,,,,,,,,,,406.3745313999243,406.38853379990906,406.38853379990906,407.0580827000085,g,1.0,0.6597323999740183,,,,,sub-206,1,stroop_test,60.10178839424691,
,,,,108.0,0.0,9.0,,,,,,,,,,,,,gelb,red,r,0.0,r,1.0,0.6247630000580102,,,,,,,,,,9.0,0.0,108.0,8.0,407.0723164998926,,,,,,,,,,,,,,,,,407.0587702000048,407.422578800004,408.2319632999133,408.2077745998977,,,,,,,,,,,,,,,,,,,,,,,,,,,,,,,,,,,408.2171830999432,408.2319632999133,408.2319632999133,408.8595748998923,r,1.0,0.6247630000580102,,,,,sub-206,1,stroop_test,60.10178839424691,
,,,,109.0,1.0,9.0,,,,,,,,,,,,,gelb,blue,b,0.0,b,1.0,0.6724162000464275,,,,,,,,,,9.0,1.0,109.0,9.0,408.8734931999352,,,,,,,,,,,,,,,,,408.8603065999923,409.2239083999302,410.02444089995697,410.00911349989474,,,,,,,,,,,,,,,,,,,,,,,,,,,,,,,,,,,410.0101832000073,410.02444089995697,410.02444089995697,410.7107222999912,b,1.0,0.6724162000464275,,,,,sub-206,1,stroop_test,60.10178839424691,
,,,,110.0,2.0,9.0,,,,,,,,,,,,,gelb,yellow,g,1.0,g,1.0,0.6524828000692651,,,,,,,,,,9.0,2.0,110.0,10.0,410.7248050000053,,,,,,,,,,,,,,,,,410.711470499984,410.8248858998995,411.62551579996943,411.6101122999098,,,,,,,,,,,,,,,,,,,,,,,,,,,,,,,,,,,411.6110888998956,411.62551579996943,411.62551579996943,412.29498299991246,g,1.0,0.6524828000692651,,,,,sub-206,1,stroop_test,60.10178839424691,
,,,,111.0,3.0,9.0,,,,,,,,,,,,,rot,red,r,1.0,r,1.0,0.5227695000357926,,,,,,,,,,9.0,3.0,111.0,0.0,412.30922309996095,,,,,,,,,,,,,,,,,412.2956918999553,413.109857399948,413.9140670999186,413.8951199000003,,,,,,,,,,,,,,,,,,,,,,,,,,,,,,,,,,,413.9029405999463,413.9140670999186,413.9140670999186,414.4464577999897,r,1.0,0.5227695000357926,,,,,sub-206,1,stroop_test,60.10178839424691,
,,,,112.0,4.0,9.0,,,,,,,,,,,,,blau,red,r,0.0,r,1.0,0.5224693000782281,,,,,,,,,,9.0,4.0,112.0,4.0,414.4607316999464,,,,,,,,,,,,,,,,,414.4471941000084,415.6618086999515,416.4641519999132,416.44659459998365,,,,,,,,,,,,,,,,,,,,,,,,,,,,,,,,,,,416.4534319000086,416.4641519999132,416.4641519999132,416.9980935999192,r,1.0,0.5224693000782281,,,,,sub-206,1,stroop_test,60.10178839424691,
,,,,113.0,5.0,9.0,,,,,,,,,,,,,rot,red,r,1.0,r,1.0,0.418001199956052,,,,,,,,,,9.0,5.0,113.0,1.0,417.01252399990335,,,,,,,,,,,,,,,,,416.9987546999473,417.11255279998295,417.9198772999225,417.89778719993774,,,,,,,,,,,,,,,,,,,,,,,,,,,,,,,,,,,417.9066384999314,417.9198772999225,417.9198772999225,418.3492776999483,r,1.0,0.418001199956052,,,,,sub-206,1,stroop_test,60.10178839424691,
,,,,114.0,6.0,9.0,,,,,,,,,,,,,rot,blue,b,0.0,b,1.0,0.4744297999422997,,,,,,,,,,9.0,6.0,114.0,2.0,418.3634459999157,,,,,,,,,,,,,,,,,418.35004569997545,418.4634769998957,419.26414109999314,419.24867719993927,,,,,,,,,,,,,,,,,,,,,,,,,,,,,,,,,,,419.2496701999335,419.26414109999314,419.26414109999314,419.7501773999538,b,1.0,0.4744297999422997,,,,,sub-206,1,stroop_test,60.10178839424691,
,,,,115.0,7.0,9.0,,,,,,,,,,,,,blau,blue,b,1.0,b,1.0,0.4896150999702513,,,,,,,,,,9.0,7.0,115.0,6.0,419.7644880999578,,,,,,,,,,,,,,,,,419.7509403999429,420.5649250999559,421.3686642999528,421.3500960998936,,,,,,,,,,,,,,,,,,,,,,,,,,,,,,,,,,,421.3574635999976,421.3686642999528,421.3686642999528,421.868124099914,b,1.0,0.4896150999702513,,,,,sub-206,1,stroop_test,60.10178839424691,
,,,,116.0,8.0,9.0,,,,,,,,,,,,,gelb,yellow,g,1.0,g,1.0,0.3405171000631526,,,,,,,,,,9.0,8.0,116.0,11.0,421.882599699893,,,,,,,,,,,,,,,,,421.8688521999866,422.68324609997217,423.488563699997,423.4682419999736,,,,,,,,,,,,,,,,,,,,,,,,,,,,,,,,,,,423.477542999899,423.488563699997,423.488563699997,423.8364694999764,g,1.0,0.3405171000631526,,,,,sub-206,1,stroop_test,60.10178839424691,
,,,,117.0,9.0,9.0,,,,,,,,,,,,,blau,blue,b,1.0,g,0.0,0.4045548000140115,,,,,,,,,,9.0,9.0,117.0,5.0,423.8504990999354,,,,,,,,,,,,,,,,,423.8372778999619,424.6510356999934,425.45420369994827,425.43621630000416,,,,,,,,,,,,,,,,,,,,,,,,,,,,,,,,,,,425.4433105000062,425.45420369994827,425.45420369994827,425.8707182999933,g,0.0,0.4045548000140115,,,,,sub-206,1,stroop_test,60.10178839424691,
,,,,118.0,10.0,9.0,,,,,,,,,,,,,blau,yellow,g,0.0,g,1.0,1.7217454999918118,,,,,,,,,,9.0,10.0,118.0,7.0,425.8851814999944,,,,,,,,,,,,,,,,,425.87137740000617,426.686018499895,427.4865231999429,427.4709308999591,,,,,,,,,,,,,,,,,,,,,,,,,,,,,,,,,,,427.4718942999607,427.4865231999429,427.4865231999429,429.2232742999913,g,1.0,1.7217454999918118,,,,,sub-206,1,stroop_test,60.10178839424691,
,,,,119.0,11.0,9.0,,,,,,,,,,,,,rot,yellow,g,0.0,r,0.0,0.5279305999865755,,,,,,,,,,9.0,11.0,119.0,3.0,429.237461599987,,,,,,,,,,,,,,,,,429.22395179991145,429.3375978999538,430.1604904999258,430.12280479993206,,,,,,,,,,,,,,,,,,,,,,,,,,,,,,,,,,,430.1348024999024,430.1604904999258,430.1604904999258,430.6911500999704,r,0.0,0.5279305999865755,,,,,sub-206,1,stroop_test,60.10178839424691,
,,,,,,,,,,,,,,,,,,,,,,,,,,,,,,,,,,,,,,,,,,,,,,,,,,,,,,,,,,,,,,,,,,,,,,,,,,,,,,,,,,,,,,,,,,,,,,,,,,,,,,430.6915377998957,430.70539079990704,435.6926031999756,sub-206,1,stroop_test,60.10178839424691,
