wordCTK,colorCTK,corrAnsCTK,congruentCTK,thisN,thisTrialN,thisRepN,keyResp_CTK.keys,keyResp_CTK.corr,keyResp_CTK.rt,keyResp_CTK.duration,wordPractice,colorPractice,corrAnsPractice,congruentPractice,respPractice.keys,respPractice.corr,respPractice.rt,respPractice.duration,word,color,corrAns,congruent,keyResp_test_run.keys,keyResp_test_run.corr,keyResp_test_run.rt,keyResp_test_run.duration,trials_CTK.thisRepN,trials_CTK.thisTrialN,trials_CTK.thisN,trials_CTK.thisIndex,trials_practice.thisRepN,trials_practice.thisTrialN,trials_practice.thisN,trials_practice.thisIndex,trials_test.thisRepN,trials_test.thisTrialN,trials_test.thisN,trials_test.thisIndex,thisRow.t,notes,instruction.started,instr_text.started,instr_image.started,instr_resp.started,instruction.stopped,instr_resp.keys,instr_resp.rt,instr_resp.duration,instr_color_to_key.started,instr_ctk.started,resp_ctk.started,instr_color_to_key.stopped,resp_ctk.keys,resp_ctk.rt,resp_ctk.duration,ITI.started,fixcross.started,fixcross.stopped,ITI.stopped,color_to_key_run.started,stimulus_CTK.started,keyResp_CTK.started,color_to_key_run.stopped,trials_CTK.keyResp_CTK.keys,trials_CTK.keyResp_CTK.corr,trials_CTK.keyResp_CTK.rt,trials_CTK.keyResp_CTK.duration,instr_practice.started,instr_practice_text.started,instr_practice_resp.started,instr_practice.stopped,instr_practice_resp.keys,instr_practice_resp.rt,instr_practice_resp.duration,practice_run.started,stimulus_practice.started,respPractice.started,practice_run.stopped,trials_practice.respPractice.keys,trials_practice.respPractice.corr,trials_practice.respPractice.rt,trials_practice.respPractice.duration,feedback.started,textFeedback.started,feedback.stopped,instr_test.started,instr_test_text.started,instr_test_resp.started,instr_test.stopped,instr_test_resp.keys,instr_test_resp.rt,instr_test_resp.duration,test_run.started,stimulus_test_run.started,keyResp_test_run.started,test_run.stopped,trials_test.keyResp_test_run.keys,trials_test.keyResp_test_run.corr,trials_test.keyResp_test_run.rt,trials_test.keyResp_test_run.duration,goodbye.started,textGoodbye.started,goodbye.stopped,participant,session,expName,frameRate,Unnamed: 111
,,,,,,,,,,,,,,,,,,,,,,,,,,,,,,,,,,,,,,,,,0.0097351999720558,0.0856856000609695,0.0856856000609695,0.0856856000609695,27.65367719996721,space,27.432562400004823,,,,,,,,,,,,,,,,,,,,,,,,,,,,,,,,,,,,,,,,,,,,,,,,,,,,,,,,,sub-159,1,stroop_test,,
,,,,,,,,,,,,,,,,,,,,,,,,,,,,,,,,,,,,,,,,,,,,,,,,,27.653765800059773,27.668635400012136,27.668635400012136,34.334329699981026,space,6.661607500049286,,,,,,,,,,,,,,,,,,,,,,,,,,,,,,,,,,,,,,,,,,,,,,,,,,sub-159,1,stroop_test,,
test,yellow,g,1.0,0.0,0.0,0.0,g,1.0,1.118594600004144,,,,,,,,,,,,,,,,,,0.0,0.0,0.0,1.0,,,,,,,,,34.46327319997363,,,,,,,,,,,,,,,,,34.448952200007625,34.69951690000016,35.547327500069514,35.50000850006472,35.53120970004238,35.547327500069514,35.547327500069514,36.68721430003643,g,1.0,1.118594600004144,,,,,,,,,,,,,,,,,,,,,,,,,,,,,,,,,,,,,,sub-159,1,stroop_test,,
test,red,r,1.0,1.0,1.0,0.0,r,1.0,1.1653346000239253,,,,,,,,,,,,,,,,,,0.0,1.0,1.0,0.0,,,,,,,,,36.71495070005767,,,,,,,,,,,,,,,,,36.6881595000159,37.0479790000245,37.86516729998402,37.83542220003437,37.83697429997847,37.86516729998402,37.86516729998402,39.034587000031024,r,1.0,1.1653346000239253,,,,,,,,,,,,,,,,,,,,,,,,,,,,,,,,,,,,,,sub-159,1,stroop_test,,
test,blue,b,1.0,2.0,2.0,0.0,b,1.0,0.6746199000626802,,,,,,,,,,,,,,,,,,0.0,2.0,2.0,2.0,,,,,,,,,39.05016490002163,,,,,,,,,,,,,,,,,39.03544080001302,39.14790590002667,39.953480100026354,39.93396399996709,39.93549010006245,39.953480100026354,39.953480100026354,40.63543510006275,b,1.0,0.6746199000626802,,,,,,,,,,,,,,,,,,,,,,,,,,,,,,,,,,,,,,sub-159,1,stroop_test,,
test,red,r,1.0,3.0,0.0,1.0,r,1.0,0.7725072000175714,,,,,,,,,,,,,,,,,,1.0,0.0,3.0,0.0,,,,,,,,,40.651015800074674,,,,,,,,,,,,,,,,,40.63644510006998,40.99806710006669,41.80312359996606,41.78434480004944,41.78563609998673,41.80312359996606,41.80312359996606,42.5845642000204,r,1.0,0.7725072000175714,,,,,,,,,,,,,,,,,,,,,,,,,,,,,,,,,,,,,,sub-159,1,stroop_test,,
test,yellow,g,1.0,4.0,1.0,1.0,g,1.0,0.5617527000140399,,,,,,,,,,,,,,,,,,1.0,1.0,4.0,1.0,,,,,,,,,42.60000370000489,,,,,,,,,,,,,,,,,42.58541639999021,43.81647710001562,44.61959800007753,44.60102030006237,44.60232090007048,44.61959800007753,44.61959800007753,45.20356759999413,g,1.0,0.5617527000140399,,,,,,,,,,,,,,,,,,,,,,,,,,,,,,,,,,,,,,sub-159,1,stroop_test,,
test,blue,b,1.0,5.0,2.0,1.0,b,1.0,0.4899685999844223,,,,,,,,,,,,,,,,,,1.0,2.0,5.0,2.0,,,,,,,,,45.231203000061214,,,,,,,,,,,,,,,,,45.20455550006591,45.31487060000654,46.1287707000738,46.11294660007116,46.1137832000386,46.1287707000738,46.1287707000738,46.634251500014216,b,1.0,0.4899685999844223,,,,,,,,,,,,,,,,,,,,,,,,,,,,,,,,,,,,,,sub-159,1,stroop_test,,
test,blue,b,1.0,6.0,0.0,2.0,b,1.0,0.7299406999954954,,,,,,,,,,,,,,,,,,2.0,0.0,6.0,2.0,,,,,,,,,46.64941840001848,,,,,,,,,,,,,,,,,46.6350800000364,47.466895499965176,48.27166950004175,48.25190609996207,48.25354379997589,48.27166950004175,48.27166950004175,49.01960510003846,b,1.0,0.7299406999954954,,,,,,,,,,,,,,,,,,,,,,,,,,,,,,,,,,,,,,sub-159,1,stroop_test,,
test,yellow,g,1.0,7.0,1.0,2.0,g,1.0,0.8859588000923395,,,,,,,,,,,,,,,,,,2.0,1.0,7.0,1.0,,,,,,,,,49.03426760004368,,,,,,,,,,,,,,,,,49.02045050007291,49.38280590006616,50.18781380006112,50.16801570006646,50.16955480002798,50.18781380006112,50.18781380006112,51.10336940002162,g,1.0,0.8859588000923395,,,,,,,,,,,,,,,,,,,,,,,,,,,,,,,,,,,,,,sub-159,1,stroop_test,,
test,red,r,1.0,8.0,2.0,2.0,r,1.0,0.4183086999692023,,,,,,,,,,,,,,,,,,2.0,2.0,8.0,0.0,,,,,,,,,51.11969189997762,,,,,,,,,,,,,,,,,51.10433850006666,51.214778000023216,52.021429100073874,52.00184090004768,52.00329889997374,52.021429100073874,52.021429100073874,52.451593499979936,r,1.0,0.4183086999692023,,,,,,,,,,,,,,,,,,,,,,,,,,,,,,,,,,,,,,sub-159,1,stroop_test,,
test,red,r,1.0,9.0,0.0,3.0,r,1.0,0.7655608000932261,,,,,,,,,,,,,,,,,,3.0,0.0,9.0,0.0,,,,,,,,,52.46709449996706,,,,,,,,,,,,,,,,,52.45243509998545,53.66644180007279,54.471477700048126,54.45180210005492,54.453328100033104,54.471477700048126,54.471477700048126,55.25264840002637,r,1.0,0.7655608000932261,,,,,,,,,,,,,,,,,,,,,,,,,,,,,,,,,,,,,,sub-159,1,stroop_test,,
test,blue,b,1.0,10.0,1.0,3.0,b,1.0,0.6946118000196293,,,,,,,,,,,,,,,,,,3.0,1.0,10.0,2.0,,,,,,,,,55.2689644000493,,,,,,,,,,,,,,,,,55.25365129997954,55.36491300002672,56.16986610007007,56.15050129999872,56.15195470000617,56.16986610007007,56.16986610007007,56.88674570003059,b,1.0,0.6946118000196293,,,,,,,,,,,,,,,,,,,,,,,,,,,,,,,,,,,,,,sub-159,1,stroop_test,,
test,yellow,g,1.0,11.0,2.0,3.0,g,1.0,0.4634583001025021,,,,,,,,,,,,,,,,,,3.0,2.0,11.0,1.0,,,,,,,,,56.90279490000103,,,,,,,,,,,,,,,,,56.887736100004986,58.09837979997974,58.914926500059664,58.88582830002997,58.88727770000696,58.914926500059664,58.914926500059664,59.40127899998333,g,1.0,0.4634583001025021,,,,,,,,,,,,,,,,,,,,,,,,,,,,,,,,,,,,,,sub-159,1,stroop_test,,
,,,,,,,,,,,,,,,,,,,,,,,,,,,,,,,,,,,,,,,,,,,,,,,,,,,,,,,,,,,,,,,,,,,,59.40167230006773,59.42419389996212,59.42419389996212,63.654393700067885,space,4.226721999933943,,,,,,,,,,,,,,,,,,,,,,,,,,,,,,,sub-159,1,stroop_test,,
,,,,0.0,0.0,0.0,,,,,blau,blue,b,1.0,b,1.0,0.6540358000202104,,,,,,,,,,,,,,0.0,0.0,0.0,5.0,,,,,63.74319790001027,,,,,,,,,,,,,,,,,63.73088759998791,64.46634020004421,65.29783930000849,65.25046660006046,,,,,,,,,,,,,,,,65.28217140003107,65.29783930000849,65.29783930000849,65.96792930003721,b,1.0,0.6540358000202104,,66.00308930000756,66.02035760006402,66.98391790001187,,,,,,,,,,,,,,,,,,,sub-159,1,stroop_test,,
,,,,1.0,1.0,0.0,,,,,rot,red,r,1.0,r,1.0,0.7425399000057951,,,,,,,,,,,,,,0.0,1.0,1.0,0.0,,,,,66.9995365999639,,,,,,,,,,,,,,,,,66.98506730003282,67.08251660002861,67.90426119999029,67.86944520007819,,,,,,,,,,,,,,,,67.8877168999752,67.90426119999029,67.90426119999029,68.65154520003125,r,1.0,0.7425399000057951,,68.65295000001788,68.6704224999994,69.66656739998143,,,,,,,,,,,,,,,,,,,sub-159,1,stroop_test,,
,,,,2.0,2.0,0.0,,,,,gelb,yellow,g,1.0,g,1.0,0.5743160999845713,,,,,,,,,,,,,,0.0,2.0,2.0,10.0,,,,,69.68286259996239,,,,,,,,,,,,,,,,,69.66753910004627,69.76283829996828,70.58008270000573,70.5503039000323,,,,,,,,,,,,,,,,70.56233980006073,70.58008270000573,70.58008270000573,71.1679891999811,g,1.0,0.5743160999845713,,71.16942689998541,71.18673810001928,72.18203919997904,,,,,,,,,,,,,,,,,,,sub-159,1,stroop_test,,
,,,,3.0,3.0,0.0,,,,,rot,yellow,g,0.0,g,1.0,0.8008388000307605,,,,,,,,,,,,,,0.0,3.0,3.0,3.0,,,,,72.19830950000323,,,,,,,,,,,,,,,,,72.1828498999821,72.98183110007085,73.79884589998983,73.76993840001523,,,,,,,,,,,,,,,,73.78057299996726,73.79884589998983,73.79884589998983,74.61963149998337,g,1.0,0.8008388000307605,,74.62101230002008,74.63860469998326,75.63193380006123,,,,,,,,,,,,,,,,,,,sub-159,1,stroop_test,,
,,,,4.0,4.0,0.0,,,,,blau,red,r,0.0,r,1.0,0.8718603999586776,,,,,,,,,,,,,,0.0,4.0,4.0,4.0,,,,,75.6483392000664,,,,,,,,,,,,,,,,,75.63272340002004,76.83195570006501,77.64835969998967,77.61896920006257,,,,,,,,,,,,,,,,77.6311599999899,77.64835969998967,77.64835969998967,78.551873599994,r,1.0,0.8718603999586776,,78.5535657000728,78.57388539996464,79.56549479998648,,,,,,,,,,,,,,,,,,,sub-159,1,stroop_test,,
,,,,5.0,5.0,0.0,,,,,gelb,blue,b,0.0,b,1.0,0.5564415000844747,,,,,,,,,,,,,,0.0,5.0,5.0,9.0,,,,,79.58198180003092,,,,,,,,,,,,,,,,,79.56631989998277,80.76517620007508,81.57796220004093,81.55120880005416,,,,,,,,,,,,,,,,81.5618664000649,81.57796220004093,81.57796220004093,82.15245769999456,b,1.0,0.5564415000844747,,82.1539137000218,82.17018720007036,83.16551640001126,,,,,,,,,,,,,,,,,,,sub-159,1,stroop_test,,
,,,,6.0,6.0,0.0,,,,,blau,blue,b,1.0,b,1.0,0.6949612000025809,,,,,,,,,,,,,,0.0,6.0,6.0,6.0,,,,,83.18309459998272,,,,,,,,,,,,,,,,,83.16645270003937,83.28197440004442,84.09712340007536,84.06887089996599,,,,,,,,,,,,,,,,84.08007979998365,84.09712340007536,84.09712340007536,84.80447460000869,b,1.0,0.6949612000025809,,84.80601210007444,84.8222610000521,85.81753730005585,,,,,,,,,,,,,,,,,,,sub-159,1,stroop_test,,
,,,,7.0,7.0,0.0,,,,,rot,red,r,1.0,r,1.0,0.6085747999604791,,,,,,,,,,,,,,0.0,7.0,7.0,1.0,,,,,85.83322659996338,,,,,,,,,,,,,,,,,85.8185454000486,86.61514939996414,87.43201350001618,87.40211510006338,,,,,,,,,,,,,,,,87.41430499998387,87.43201350001618,87.43201350001618,88.05475470004603,r,1.0,0.6085747999604791,,88.05639709997922,88.07319140003528,89.06687390001025,,,,,,,,,,,,,,,,,,,sub-159,1,stroop_test,,
,,,,8.0,8.0,0.0,,,,,blau,yellow,g,0.0,g,1.0,0.8477422000141814,,,,,,,,,,,,,,0.0,8.0,8.0,7.0,,,,,89.08378610003274,,,,,,,,,,,,,,,,,89.06782290001865,89.16512959997635,89.97900629998185,89.95155960007105,,,,,,,,,,,,,,,,89.9619728999678,89.97900629998185,89.97900629998185,90.82974810001906,g,1.0,0.8477422000141814,,90.8304559000535,90.845534699969,91.83432170003653,,,,,,,,,,,,,,,,,,,sub-159,1,stroop_test,,
,,,,9.0,9.0,0.0,,,,,rot,blue,b,0.0,b,1.0,0.6826435999246314,,,,,,,,,,,,,,0.0,9.0,9.0,2.0,,,,,91.86770050006452,,,,,,,,,,,,,,,,,91.83543890004512,91.93212820007466,92.7762772999704,92.7297106999904,,,,,,,,,,,,,,,,92.75270329997876,92.7762772999704,92.7762772999704,93.47074999997858,b,1.0,0.6826435999246314,,93.4723453000188,93.4896569000557,94.48385720001534,,,,,,,,,,,,,,,,,,,sub-159,1,stroop_test,,
,,,,10.0,10.0,0.0,,,,,gelb,red,r,0.0,r,1.0,1.1241779000265524,,,,,,,,,,,,,,0.0,10.0,10.0,8.0,,,,,94.49989279999863,,,,,,,,,,,,,,,,,94.48493400006556,94.60047629999464,95.433041100041,95.40280599996912,,,,,,,,,,,,,,,,95.41572390007786,95.433041100041,95.433041100041,96.5683793000644,r,1.0,1.1241779000265524,,96.5697790000122,96.58729729999322,97.58394719997888,,,,,,,,,,,,,,,,,,,sub-159,1,stroop_test,,
,,,,11.0,11.0,0.0,,,,,gelb,yellow,g,1.0,g,1.0,0.8254377999110147,,,,,,,,,,,,,,0.0,11.0,11.0,11.0,,,,,97.6004179000156,,,,,,,,,,,,,,,,,97.58494990004692,98.38398420007434,99.18887910002375,99.16909089998808,,,,,,,,,,,,,,,,99.17063810001127,99.18887910002375,99.18887910002375,100.01896720007062,g,1.0,0.8254377999110147,,100.020457000006,100.0369710000232,101.051007400034,,,,,,,,,,,,,,,,,,,sub-159,1,stroop_test,,
,,,,12.0,0.0,1.0,,,,,rot,blue,b,0.0,b,1.0,0.5796340999659151,,,,,,,,,,,,,,1.0,0.0,12.0,2.0,,,,,101.06653680000454,,,,,,,,,,,,,,,,,101.05193650000729,102.25054210005328,103.07678290002514,103.05027560004964,,,,,,,,,,,,,,,,103.0602866000263,103.07678290002514,103.07678290002514,103.66860229999293,b,1.0,0.5796340999659151,,103.67003989999648,103.68764010001904,104.68254479998724,,,,,,,,,,,,,,,,,,,sub-159,1,stroop_test,,
,,,,13.0,1.0,1.0,,,,,rot,red,r,1.0,r,1.0,0.8581543000182137,,,,,,,,,,,,,,1.0,1.0,13.0,0.0,,,,,104.69919159996788,,,,,,,,,,,,,,,,,104.683344900026,104.78222040005494,105.59920709999278,105.56978799996432,,,,,,,,,,,,,,,,105.57176469999833,105.59920709999278,105.59920709999278,106.47146540007088,r,1.0,0.8581543000182137,,106.47307399997952,106.48928660003004,107.48383240005931,,,,,,,,,,,,,,,,,,,sub-159,1,stroop_test,,
,,,,14.0,2.0,1.0,,,,,rot,yellow,g,0.0,g,1.0,0.5795192999066785,,,,,,,,,,,,,,1.0,2.0,14.0,3.0,,,,,107.50037090003023,,,,,,,,,,,,,,,,,107.48507840000092,108.2820324000204,109.08531590003986,109.06684700003824,,,,,,,,,,,,,,,,109.06815439998172,109.08531590003986,109.08531590003986,109.6687315000454,g,1.0,0.5795192999066785,,109.67015520005953,109.68715270003304,110.68411350005772,,,,,,,,,,,,,,,,,,,sub-159,1,stroop_test,,
,,,,15.0,3.0,1.0,,,,,blau,yellow,g,0.0,g,1.0,0.6788529000477865,,,,,,,,,,,,,,1.0,3.0,15.0,7.0,,,,,110.699884200003,,,,,,,,,,,,,,,,,110.68526439997368,111.0336877000518,111.8482750999974,111.81977259996349,,,,,,,,,,,,,,,,111.82999050000215,111.8482750999974,111.8482750999974,112.53536109998822,g,1.0,0.6788529000477865,,112.53674860007597,112.55381279997528,113.55116759997328,,,,,,,,,,,,,,,,,,,sub-159,1,stroop_test,,
,,,,16.0,4.0,1.0,,,,,gelb,yellow,g,1.0,g,1.0,0.645130000077188,,,,,,,,,,,,,,1.0,4.0,16.0,11.0,,,,,113.5673351000296,,,,,,,,,,,,,,,,,113.55222000007052,114.35125870001502,115.16857410001104,115.13668920006604,,,,,,,,,,,,,,,,115.14924180007074,115.16857410001104,115.16857410001104,115.81985530001111,g,1.0,0.645130000077188,,115.82145150005816,115.8392382999882,116.83399740001188,,,,,,,,,,,,,,,,,,,sub-159,1,stroop_test,,
,,,,17.0,5.0,1.0,,,,,blau,blue,b,1.0,b,1.0,0.6125588999129832,,,,,,,,,,,,,,1.0,5.0,17.0,5.0,,,,,116.85036040004344,,,,,,,,,,,,,,,,,116.83493330003694,116.9373370000394,117.76382440002637,117.73537440004291,,,,,,,,,,,,,,,,117.74638939998113,117.76382440002637,117.76382440002637,118.38732179999352,b,1.0,0.6125588999129832,,118.3889503000537,118.40657520003153,119.41897660004906,,,,,,,,,,,,,,,,,,,sub-159,1,stroop_test,,
,,,,18.0,6.0,1.0,,,,,gelb,yellow,g,1.0,g,1.0,0.996299899998121,,,,,,,,,,,,,,1.0,6.0,18.0,10.0,,,,,119.44927710003684,,,,,,,,,,,,,,,,,119.41992350004148,120.20056420005858,121.01554210006724,120.98602269997356,,,,,,,,,,,,,,,,120.9981698000338,121.01554210006724,121.01554210006724,122.0187160000205,g,1.0,0.996299899998121,,122.02027300000192,122.03760240005796,123.03270029998384,,,,,,,,,,,,,,,,,,,sub-159,1,stroop_test,,
,,,,19.0,7.0,1.0,,,,,blau,red,r,0.0,r,1.0,0.5823082000715658,,,,,,,,,,,,,,1.0,7.0,19.0,4.0,,,,,123.04892940004356,,,,,,,,,,,,,,,,,123.03352830000222,123.38245869998354,124.19753400003538,124.16933000006247,,,,,,,,,,,,,,,,124.18035440007225,124.19753400003538,124.19753400003538,124.78769839997403,r,1.0,0.5823082000715658,,124.78937180002686,124.80566750001162,125.81818760000168,,,,,,,,,,,,,,,,,,,sub-159,1,stroop_test,,
,,,,20.0,8.0,1.0,,,,,blau,blue,b,1.0,b,1.0,0.6159683999139816,,,,,,,,,,,,,,1.0,8.0,20.0,6.0,,,,,125.83512120007072,,,,,,,,,,,,,,,,,125.81973490002564,126.14922230003867,126.956157800043,126.93632420001086,,,,,,,,,,,,,,,,126.93782700004522,126.956157800043,126.956157800043,127.58569079998416,b,1.0,0.6159683999139816,,127.5870573000284,127.60561089997644,128.60008999996353,,,,,,,,,,,,,,,,,,,sub-159,1,stroop_test,,
,,,,21.0,9.0,1.0,,,,,gelb,blue,b,0.0,b,1.0,0.6307141999714077,,,,,,,,,,,,,,1.0,9.0,21.0,9.0,,,,,128.61606580007356,,,,,,,,,,,,,,,,,128.6010932000354,128.94997590000276,129.76785740000196,129.7368473999668,,,,,,,,,,,,,,,,129.7483051000163,129.76785740000196,129.76785740000196,130.40501930005848,b,1.0,0.6307141999714077,,130.40676849999,130.42430539999623,131.4350516999839,,,,,,,,,,,,,,,,,,,sub-159,1,stroop_test,,
,,,,22.0,10.0,1.0,,,,,gelb,red,r,0.0,r,1.0,0.6421448999317363,,,,,,,,,,,,,,1.0,10.0,22.0,8.0,,,,,131.45031400001608,,,,,,,,,,,,,,,,,131.43596280005295,131.51718600001186,132.33279440004844,132.3033015000401,,,,,,,,,,,,,,,,132.30477789998986,132.33279440004844,132.33279440004844,132.98600040003657,r,1.0,0.6421448999317363,,132.9873778000474,133.00464910001028,134.01875649997965,,,,,,,,,,,,,,,,,,,sub-159,1,stroop_test,,
,,,,23.0,11.0,1.0,,,,,rot,red,r,1.0,r,1.0,0.6034644999308512,,,,,,,,,,,,,,1.0,11.0,23.0,1.0,,,,,134.05113360006362,,,,,,,,,,,,,,,,,134.01974250003695,135.19927009998355,136.01622210000642,135.98630920005962,,,,,,,,,,,,,,,,135.99856600002386,136.01622210000642,136.01622210000642,136.65218039997853,r,1.0,0.6034644999308512,,136.6541018000571,136.6725679000374,137.6832706000423,,,,,,,,,,,,,,,,,,,sub-159,1,stroop_test,,
,,,,,,,,,,,,,,,,,,,,,,,,,,,,,,,,,,,,,,,,,,,,,,,,,,,,,,,,,,,,,,,,,,,,,,,,,,,,,,,,,,,,,,137.68359280005097,137.70244570006616,137.70244570006616,141.7873601000756,space,4.077044300036505,,,,,,,,,,,,,sub-159,1,stroop_test,,
,,,,0.0,0.0,0.0,,,,,,,,,,,,,gelb,yellow,g,1.0,g,1.0,0.6188830999890342,,,,,,,,,,0.0,0.0,0.0,11.0,141.87692920002155,,,,,,,,,,,,,,,,,141.86457219999284,142.9996925999876,143.81051540002227,143.78422180004418,,,,,,,,,,,,,,,,,,,,,,,,,,,,,,,,,,143.79400440002792,143.81051540002227,143.81051540002227,144.4359240999911,g,1.0,0.6188830999890342,,,,,sub-159,1,stroop_test,,
,,,,1.0,1.0,0.0,,,,,,,,,,,,,rot,red,r,1.0,r,1.0,0.6903338000411168,,,,,,,,,,0.0,1.0,1.0,0.0,144.45148410007823,,,,,,,,,,,,,,,,,144.43686240003444,145.25028829998337,146.06162960000802,146.03428690007422,,,,,,,,,,,,,,,,,,,,,,,,,,,,,,,,,,146.04536109999754,146.06162960000802,146.06162960000802,146.76991180004552,r,1.0,0.6903338000411168,,,,,sub-159,1,stroop_test,,
,,,,2.0,2.0,0.0,,,,,,,,,,,,,rot,yellow,g,0.0,g,1.0,0.8263517000013962,,,,,,,,,,0.0,2.0,2.0,3.0,146.7846642000368,,,,,,,,,,,,,,,,,146.77087920007762,147.58433890005108,148.3895469000563,148.3691481000278,,,,,,,,,,,,,,,,,,,,,,,,,,,,,,,,,,148.37071719998494,148.3895469000563,148.3895469000563,149.21959620004054,g,1.0,0.8263517000013962,,,,,sub-159,1,stroop_test,,
,,,,3.0,3.0,0.0,,,,,,,,,,,,,rot,red,r,1.0,r,1.0,0.6298531999345869,,,,,,,,,,0.0,3.0,3.0,1.0,149.2353998000035,,,,,,,,,,,,,,,,,149.22067159996368,149.5826498999959,150.38813540001863,150.36806180002168,,,,,,,,,,,,,,,,,,,,,,,,,,,,,,,,,,150.3695727000013,150.38813540001863,150.38813540001863,151.02191370003857,r,1.0,0.6298531999345869,,,,,sub-159,1,stroop_test,,
,,,,4.0,4.0,0.0,,,,,,,,,,,,,gelb,blue,b,0.0,b,1.0,0.4892656999872997,,,,,,,,,,0.0,4.0,4.0,9.0,151.03891340002883,,,,,,,,,,,,,,,,,151.02300809998997,151.40138579998165,152.23226309998427,152.20254109997768,,,,,,,,,,,,,,,,,,,,,,,,,,,,,,,,,,152.21480840002187,152.23226309998427,152.23226309998427,152.7360208000755,b,1.0,0.4892656999872997,,,,,sub-159,1,stroop_test,,
,,,,5.0,5.0,0.0,,,,,,,,,,,,,gelb,red,r,0.0,r,1.0,0.9160164999775589,,,,,,,,,,0.0,5.0,5.0,8.0,152.75166120007634,,,,,,,,,,,,,,,,,152.73697800002992,153.55129079998005,154.365079900017,154.34979680005927,,,,,,,,,,,,,,,,,,,,,,,,,,,,,,,,,,154.35061810002662,154.365079900017,154.365079900017,155.2861617000308,r,1.0,0.9160164999775589,,,,,sub-159,1,stroop_test,,
,,,,6.0,6.0,0.0,,,,,,,,,,,,,blau,red,r,0.0,r,1.0,0.9596806999761612,,,,,,,,,,0.0,6.0,6.0,4.0,155.30215260002296,,,,,,,,,,,,,,,,,155.287096700049,156.49975149997044,157.3131255999906,157.28629189997446,,,,,,,,,,,,,,,,,,,,,,,,,,,,,,,,,,157.29667120007798,157.3131255999906,157.3131255999906,158.28616290003993,r,1.0,0.9596806999761612,,,,,sub-159,1,stroop_test,,
,,,,7.0,7.0,0.0,,,,,,,,,,,,,blau,blue,b,1.0,b,1.0,0.6290996000170708,,,,,,,,,,0.0,7.0,7.0,5.0,158.30181780003477,,,,,,,,,,,,,,,,,158.2871239000233,159.50109100004192,160.3066492000362,160.28655319998506,,,,,,,,,,,,,,,,,,,,,,,,,,,,,,,,,,160.2880385000026,160.3066492000362,160.3066492000362,160.95389880007133,b,1.0,0.6290996000170708,,,,,sub-159,1,stroop_test,,
,,,,8.0,8.0,0.0,,,,,,,,,,,,,blau,blue,b,1.0,b,1.0,0.5702570000430569,,,,,,,,,,0.0,8.0,8.0,6.0,160.96958300005645,,,,,,,,,,,,,,,,,160.95513540005777,162.1678746000398,162.99022190005053,162.9699856999796,,,,,,,,,,,,,,,,,,,,,,,,,,,,,,,,,,162.9716263000155,162.99022190005053,162.99022190005053,163.57140650006477,b,1.0,0.5702570000430569,,,,,sub-159,1,stroop_test,,
,,,,9.0,9.0,0.0,,,,,,,,,,,,,rot,blue,b,0.0,b,1.0,0.7100298000732437,,,,,,,,,,0.0,9.0,9.0,2.0,163.5884579999838,,,,,,,,,,,,,,,,,163.5724861000199,163.68290360004175,164.50010940001812,164.4699440000113,,,,,,,,,,,,,,,,,,,,,,,,,,,,,,,,,,164.4826616999926,164.50010940001812,164.50010940001812,165.2386261000065,b,1.0,0.7100298000732437,,,,,sub-159,1,stroop_test,,
,,,,10.0,10.0,0.0,,,,,,,,,,,,,blau,yellow,g,0.0,g,1.0,0.5705675999633968,,,,,,,,,,0.0,10.0,10.0,7.0,165.26654149999376,,,,,,,,,,,,,,,,,165.23971500003245,166.06670520000625,166.88423379999583,166.85366220003925,,,,,,,,,,,,,,,,,,,,,,,,,,,,,,,,,,166.86597450007685,166.88423379999583,166.88423379999583,167.46929999999702,g,1.0,0.5705675999633968,,,,,sub-159,1,stroop_test,,
,,,,11.0,11.0,0.0,,,,,,,,,,,,,gelb,yellow,g,1.0,g,1.0,0.5577885999809951,,,,,,,,,,0.0,11.0,11.0,10.0,167.48530060006306,,,,,,,,,,,,,,,,,167.47026099998038,168.68321930000093,169.51704150007572,169.48700890003238,,,,,,,,,,,,,,,,,,,,,,,,,,,,,,,,,,169.49936490005348,169.51704150007572,169.51704150007572,170.08719380002003,g,1.0,0.5577885999809951,,,,,sub-159,1,stroop_test,,
,,,,12.0,0.0,1.0,,,,,,,,,,,,,gelb,blue,b,0.0,b,1.0,0.5903087999904528,,,,,,,,,,1.0,0.0,12.0,9.0,170.10274210001808,,,,,,,,,,,,,,,,,170.08813869999722,170.91775080002844,171.7227647000691,171.70319060003385,,,,,,,,,,,,,,,,,,,,,,,,,,,,,,,,,,171.70461949997116,171.7227647000691,171.7227647000691,172.32238010002766,b,1.0,0.5903087999904528,,,,,sub-159,1,stroop_test,,
,,,,13.0,1.0,1.0,,,,,,,,,,,,,blau,red,r,0.0,r,1.0,0.592893399996683,,,,,,,,,,1.0,1.0,13.0,4.0,172.34997089998797,,,,,,,,,,,,,,,,,172.32358570001088,173.53351950005165,174.34744789998513,174.31967050000094,,,,,,,,,,,,,,,,,,,,,,,,,,,,,,,,,,174.33002240001224,174.34744789998513,174.34744789998513,174.9525099999737,r,1.0,0.592893399996683,,,,,sub-159,1,stroop_test,,
,,,,14.0,2.0,1.0,,,,,,,,,,,,,rot,blue,b,0.0,b,1.0,0.5938321000430733,,,,,,,,,,1.0,2.0,14.0,2.0,174.96795039996505,,,,,,,,,,,,,,,,,174.95342270005494,176.16816520004068,177.00159830006305,176.97068150003906,,,,,,,,,,,,,,,,,,,,,,,,,,,,,,,,,,176.9824163999874,177.00159830006305,177.00159830006305,177.59759620006662,b,1.0,0.5938321000430733,,,,,sub-159,1,stroop_test,,
,,,,15.0,3.0,1.0,,,,,,,,,,,,,blau,blue,b,1.0,b,1.0,0.5178958000615239,,,,,,,,,,1.0,3.0,15.0,5.0,177.61277630005495,,,,,,,,,,,,,,,,,177.5981075000018,178.40204640000593,179.2275493000634,179.20173690002412,,,,,,,,,,,,,,,,,,,,,,,,,,,,,,,,,,179.21111669996753,179.2275493000634,179.2275493000634,179.75301200000104,b,1.0,0.5178958000615239,,,,,sub-159,1,stroop_test,,
,,,,16.0,4.0,1.0,,,,,,,,,,,,,rot,yellow,g,0.0,g,1.0,0.7655801000073552,,,,,,,,,,1.0,4.0,16.0,3.0,179.7690189999994,,,,,,,,,,,,,,,,,179.75394770002458,180.11663120007142,180.9301114999689,180.90178890002423,,,,,,,,,,,,,,,,,,,,,,,,,,,,,,,,,,180.91366439999547,180.9301114999689,180.9301114999689,181.72005880007052,g,1.0,0.7655801000073552,,,,,sub-159,1,stroop_test,,
,,,,17.0,5.0,1.0,,,,,,,,,,,,,rot,red,r,1.0,r,1.0,0.6793653999920934,,,,,,,,,,1.0,5.0,17.0,1.0,181.7358782000374,,,,,,,,,,,,,,,,,181.72097520006355,182.0891250000568,182.92347819998395,182.90389850002248,,,,,,,,,,,,,,,,,,,,,,,,,,,,,,,,,,182.90541959996332,182.92347819998395,182.92347819998395,183.6205817000009,r,1.0,0.6793653999920934,,,,,sub-159,1,stroop_test,,
,,,,18.0,6.0,1.0,,,,,,,,,,,,,rot,red,r,1.0,r,1.0,0.632044899975881,,,,,,,,,,1.0,6.0,18.0,0.0,183.635165899992,,,,,,,,,,,,,,,,,183.6214897000464,184.8352417000569,185.66645750007592,185.64078590006105,,,,,,,,,,,,,,,,,,,,,,,,,,,,,,,,,,185.64207240007815,185.66645750007592,185.66645750007592,186.30413790000603,r,1.0,0.632044899975881,,,,,sub-159,1,stroop_test,,
,,,,19.0,7.0,1.0,,,,,,,,,,,,,blau,blue,b,1.0,b,1.0,0.6051624999381602,,,,,,,,,,1.0,7.0,19.0,6.0,186.31948629999533,,,,,,,,,,,,,,,,,186.30508720001671,187.12473729997876,187.94887480000037,187.92034209996928,,,,,,,,,,,,,,,,,,,,,,,,,,,,,,,,,,187.93164409999736,187.94887480000037,187.94887480000037,188.5747441999847,b,1.0,0.6051624999381602,,,,,sub-159,1,stroop_test,,
,,,,20.0,8.0,1.0,,,,,,,,,,,,,gelb,yellow,g,1.0,g,1.0,0.6359905999852344,,,,,,,,,,1.0,8.0,20.0,10.0,188.6001857999945,,,,,,,,,,,,,,,,,188.57674330007285,188.6834090000484,189.50158739998005,189.4705379999941,,,,,,,,,,,,,,,,,,,,,,,,,,,,,,,,,,189.48315840004943,189.50158739998005,189.50158739998005,190.15397590002976,g,1.0,0.6359905999852344,,,,,sub-159,1,stroop_test,,
,,,,21.0,9.0,1.0,,,,,,,,,,,,,gelb,red,r,0.0,r,1.0,0.6756426999345422,,,,,,,,,,1.0,9.0,21.0,8.0,190.1695871000411,,,,,,,,,,,,,,,,,190.15493520000015,190.51689920003992,191.32386800006495,191.30375289998483,,,,,,,,,,,,,,,,,,,,,,,,,,,,,,,,,,191.3052435000427,191.32386800006495,191.32386800006495,192.00527690001763,r,1.0,0.6756426999345422,,,,,sub-159,1,stroop_test,,
,,,,22.0,10.0,1.0,,,,,,,,,,,,,gelb,yellow,g,1.0,g,1.0,0.6875104000791907,,,,,,,,,,1.0,10.0,22.0,11.0,192.0220760999946,,,,,,,,,,,,,,,,,192.00635989999864,192.3684421000071,193.173439300037,193.15363680000883,,,,,,,,,,,,,,,,,,,,,,,,,,,,,,,,,,193.15514300006907,193.173439300037,193.173439300037,193.87080430006608,g,1.0,0.6875104000791907,,,,,sub-159,1,stroop_test,,
,,,,23.0,11.0,1.0,,,,,,,,,,,,,blau,yellow,g,0.0,g,1.0,0.8335453000618145,,,,,,,,,,1.0,11.0,23.0,7.0,193.8863048000494,,,,,,,,,,,,,,,,,193.87177620001603,194.23502420005389,195.0500129000284,195.0209359000437,,,,,,,,,,,,,,,,,,,,,,,,,,,,,,,,,,195.03202869999225,195.0500129000284,195.0500129000284,195.8891556999879,g,1.0,0.8335453000618145,,,,,sub-159,1,stroop_test,,
,,,,24.0,0.0,2.0,,,,,,,,,,,,,rot,yellow,g,0.0,g,1.0,0.7445601000217721,,,,,,,,,,2.0,0.0,24.0,3.0,195.91686860006303,,,,,,,,,,,,,,,,,195.8903235000325,197.10158550005872,197.9319669000106,197.90201429999436,,,,,,,,,,,,,,,,,,,,,,,,,,,,,,,,,,197.9144327000249,197.9319669000106,197.9319669000106,198.6863332999637,g,1.0,0.7445601000217721,,,,,sub-159,1,stroop_test,,
,,,,25.0,1.0,2.0,,,,,,,,,,,,,gelb,red,r,0.0,r,1.0,0.6880995999090374,,,,,,,,,,2.0,1.0,25.0,8.0,198.70200970000587,,,,,,,,,,,,,,,,,198.6872928000521,199.05218500003684,199.86723570001777,199.8367982000345,,,,,,,,,,,,,,,,,,,,,,,,,,,,,,,,,,199.8493104999652,199.86723570001777,199.86723570001777,200.5702742000576,r,1.0,0.6880995999090374,,,,,sub-159,1,stroop_test,,
,,,,26.0,2.0,2.0,,,,,,,,,,,,,gelb,yellow,g,1.0,g,1.0,0.5916109000099823,,,,,,,,,,2.0,2.0,26.0,11.0,200.5860722999787,,,,,,,,,,,,,,,,,200.5712404999649,201.38687439996284,202.20712779997848,202.18749230005776,,,,,,,,,,,,,,,,,,,,,,,,,,,,,,,,,,202.189264500048,202.20712779997848,202.20712779997848,202.8070318000391,g,1.0,0.5916109000099823,,,,,sub-159,1,stroop_test,,
,,,,27.0,3.0,2.0,,,,,,,,,,,,,gelb,blue,b,0.0,b,1.0,0.4394417000003159,,,,,,,,,,2.0,3.0,27.0,9.0,202.8336907000048,,,,,,,,,,,,,,,,,202.80816410004627,204.0186896000523,204.85064339998644,204.82096290006305,,,,,,,,,,,,,,,,,,,,,,,,,,,,,,,,,,204.8224153000629,204.85064339998644,204.85064339998644,205.3197854000609,b,1.0,0.4394417000003159,,,,,sub-159,1,stroop_test,,
,,,,28.0,4.0,2.0,,,,,,,,,,,,,rot,red,r,1.0,r,1.0,0.5040356999961659,,,,,,,,,,2.0,4.0,28.0,0.0,205.33466519997452,,,,,,,,,,,,,,,,,205.3207315000473,206.1350245999638,206.9509318000637,206.92064510006455,,,,,,,,,,,,,,,,,,,,,,,,,,,,,,,,,,206.9329693000764,206.9509318000637,206.9509318000637,207.48674840002784,r,1.0,0.5040356999961659,,,,,sub-159,1,stroop_test,,
,,,,29.0,5.0,2.0,,,,,,,,,,,,,blau,blue,b,1.0,b,1.0,0.6267736000008881,,,,,,,,,,2.0,5.0,29.0,6.0,207.5015366000589,,,,,,,,,,,,,,,,,207.48766870005056,207.60104640002828,208.4169994000113,208.3880458000349,,,,,,,,,,,,,,,,,,,,,,,,,,,,,,,,,,208.39849579997824,208.4169994000113,208.4169994000113,209.0551616000012,b,1.0,0.6267736000008881,,,,,sub-159,1,stroop_test,,
,,,,30.0,6.0,2.0,,,,,,,,,,,,,gelb,yellow,g,1.0,g,1.0,0.5892904999200255,,,,,,,,,,2.0,6.0,30.0,10.0,209.07051160000265,,,,,,,,,,,,,,,,,209.0560950000072,209.4184021999827,210.23391489998903,210.20409010001455,,,,,,,,,,,,,,,,,,,,,,,,,,,,,,,,,,210.2166677999776,210.23391489998903,210.23391489998903,210.8369136999827,g,1.0,0.5892904999200255,,,,,sub-159,1,stroop_test,,
,,,,31.0,7.0,2.0,,,,,,,,,,,,,blau,blue,b,1.0,b,1.0,0.6040357999736443,,,,,,,,,,2.0,7.0,31.0,5.0,210.85224130004644,,,,,,,,,,,,,,,,,210.8378337000031,210.95042670005927,211.76690609997604,211.73678420006763,,,,,,,,,,,,,,,,,,,,,,,,,,,,,,,,,,211.749625400058,211.76690609997604,211.76690609997604,212.388944300008,b,1.0,0.6040357999736443,,,,,sub-159,1,stroop_test,,
,,,,32.0,8.0,2.0,,,,,,,,,,,,,blau,red,r,0.0,r,1.0,0.8047650000080466,,,,,,,,,,2.0,8.0,32.0,4.0,212.41713169997087,,,,,,,,,,,,,,,,,212.39002559997607,213.201808599988,214.0225049000001,214.002567699994,,,,,,,,,,,,,,,,,,,,,,,,,,,,,,,,,,214.00404540007003,214.0225049000001,214.0225049000001,214.8392893000273,r,1.0,0.8047650000080466,,,,,sub-159,1,stroop_test,,
,,,,33.0,9.0,2.0,,,,,,,,,,,,,rot,red,r,1.0,r,1.0,0.5316850000526756,,,,,,,,,,2.0,9.0,33.0,1.0,214.8554711000761,,,,,,,,,,,,,,,,,214.84037290001288,215.2005936000496,216.01879370003007,215.98802040005103,,,,,,,,,,,,,,,,,,,,,,,,,,,,,,,,,,215.99939600005743,216.01879370003007,216.01879370003007,216.556501800078,r,1.0,0.5316850000526756,,,,,sub-159,1,stroop_test,,
,,,,34.0,10.0,2.0,,,,,,,,,,,,,rot,blue,b,0.0,b,1.0,0.5453784000128508,,,,,,,,,,2.0,10.0,34.0,2.0,216.57316150004044,,,,,,,,,,,,,,,,,216.5576132000424,216.918517800048,217.7411632000003,217.7211386000272,,,,,,,,,,,,,,,,,,,,,,,,,,,,,,,,,,217.72281860001385,217.7411632000003,217.7411632000003,218.2899714000523,b,1.0,0.5453784000128508,,,,,sub-159,1,stroop_test,,
,,,,35.0,11.0,2.0,,,,,,,,,,,,,blau,yellow,g,0.0,g,1.0,0.5588458999991417,,,,,,,,,,2.0,11.0,35.0,7.0,218.3175740999868,,,,,,,,,,,,,,,,,218.2910325999837,218.4006026000716,219.21459049999248,219.18731020006817,,,,,,,,,,,,,,,,,,,,,,,,,,,,,,,,,,219.19618770002853,219.21459049999248,219.21459049999248,219.7868320000125,g,1.0,0.5588458999991417,,,,,sub-159,1,stroop_test,,
,,,,36.0,0.0,3.0,,,,,,,,,,,,,gelb,yellow,g,1.0,g,1.0,0.5406709999078885,,,,,,,,,,3.0,0.0,36.0,10.0,219.8022964000702,,,,,,,,,,,,,,,,,219.78778380004223,221.0192337000044,221.8455293000443,221.81890229997225,,,,,,,,,,,,,,,,,,,,,,,,,,,,,,,,,,221.8291185999988,221.8455293000443,221.8455293000443,222.40379670006223,g,1.0,0.5406709999078885,,,,,sub-159,1,stroop_test,,
,,,,37.0,1.0,3.0,,,,,,,,,,,,,gelb,yellow,g,1.0,g,1.0,0.6167128999950364,,,,,,,,,,3.0,1.0,37.0,11.0,222.419494700036,,,,,,,,,,,,,,,,,222.4047806999879,222.76714730006643,223.5714818000561,223.55281939997803,,,,,,,,,,,,,,,,,,,,,,,,,,,,,,,,,,223.55412330001127,223.5714818000561,223.5714818000561,224.2062000000151,g,1.0,0.6167128999950364,,,,,sub-159,1,stroop_test,,
,,,,38.0,2.0,3.0,,,,,,,,,,,,,rot,yellow,g,0.0,g,1.0,0.5804557999363169,,,,,,,,,,3.0,2.0,38.0,3.0,224.23398570006248,,,,,,,,,,,,,,,,,224.20731410000008,224.31750420003664,225.13317799998916,225.10427120001987,,,,,,,,,,,,,,,,,,,,,,,,,,,,,,,,,,225.11684320005588,225.13317799998916,225.13317799998916,225.7398204000201,g,1.0,0.5804557999363169,,,,,sub-159,1,stroop_test,,
,,,,39.0,3.0,3.0,,,,,,,,,,,,,blau,yellow,g,0.0,g,1.0,0.6947765999939293,,,,,,,,,,3.0,3.0,39.0,7.0,225.7566636999836,,,,,,,,,,,,,,,,,225.74097380007152,226.56860550004055,227.38151119998656,227.35453100001905,,,,,,,,,,,,,,,,,,,,,,,,,,,,,,,,,,227.364761200035,227.38151119998656,227.38151119998656,228.08970810007304,g,1.0,0.6947765999939293,,,,,sub-159,1,stroop_test,,
,,,,40.0,4.0,3.0,,,,,,,,,,,,,blau,red,r,0.0,r,1.0,0.5064738999353722,,,,,,,,,,3.0,4.0,40.0,4.0,228.11717500002123,,,,,,,,,,,,,,,,,228.09105799999088,229.302280300064,230.1073244999861,230.08748740004376,,,,,,,,,,,,,,,,,,,,,,,,,,,,,,,,,,230.0889640999958,230.1073244999861,230.1073244999861,230.6231145000784,r,1.0,0.5064738999353722,,,,,sub-159,1,stroop_test,,
,,,,41.0,5.0,3.0,,,,,,,,,,,,,blau,blue,b,1.0,b,1.0,0.6370121999643743,,,,,,,,,,3.0,5.0,41.0,6.0,230.65102620003745,,,,,,,,,,,,,,,,,230.6241682000691,230.7342728000367,231.54073370003607,231.5209000000032,,,,,,,,,,,,,,,,,,,,,,,,,,,,,,,,,,231.52237400005103,231.54073370003607,231.54073370003607,232.2059525999939,b,1.0,0.6370121999643743,,,,,sub-159,1,stroop_test,,
,,,,42.0,6.0,3.0,,,,,,,,,,,,,rot,red,r,1.0,r,1.0,0.5424666999606416,,,,,,,,,,3.0,6.0,42.0,0.0,232.22260950005148,,,,,,,,,,,,,,,,,232.2070018000668,232.5687273000367,233.39817090006545,233.355480600032,,,,,,,,,,,,,,,,,,,,,,,,,,,,,,,,,,233.37727329996412,233.39817090006545,233.39817090006545,233.95664430002216,r,1.0,0.5424666999606416,,,,,sub-159,1,stroop_test,,
,,,,43.0,7.0,3.0,,,,,,,,,,,,,blau,blue,b,1.0,b,1.0,0.4898248999379575,,,,,,,,,,3.0,7.0,43.0,5.0,233.98458759998903,,,,,,,,,,,,,,,,,233.95774019998495,235.1692244000733,235.98133179999425,235.9537995000137,,,,,,,,,,,,,,,,,,,,,,,,,,,,,,,,,,235.9642417000141,235.98133179999425,235.98133179999425,236.50329959997907,b,1.0,0.4898248999379575,,,,,sub-159,1,stroop_test,,
,,,,44.0,8.0,3.0,,,,,,,,,,,,,gelb,blue,b,0.0,b,1.0,0.5511643999489024,,,,,,,,,,3.0,8.0,44.0,9.0,236.5184904000489,,,,,,,,,,,,,,,,,236.5042768999701,237.7193171000108,238.53597920003813,238.50433540006637,,,,,,,,,,,,,,,,,,,,,,,,,,,,,,,,,,238.51651430001948,238.53597920003813,238.53597920003813,239.10426609998103,b,1.0,0.5511643999489024,,,,,sub-159,1,stroop_test,,
,,,,45.0,9.0,3.0,,,,,,,,,,,,,gelb,red,r,0.0,r,1.0,0.7411757999798283,,,,,,,,,,3.0,9.0,45.0,8.0,239.1187444999814,,,,,,,,,,,,,,,,,239.1052227000473,239.92303399997763,240.73786980006844,240.71932170004584,,,,,,,,,,,,,,,,,,,,,,,,,,,,,,,,,,240.7206196000334,240.73786980006844,240.73786980006844,241.4895704999799,r,1.0,0.7411757999798283,,,,,sub-159,1,stroop_test,,
,,,,46.0,10.0,3.0,,,,,,,,,,,,,rot,red,r,1.0,r,1.0,0.6840166000183672,,,,,,,,,,3.0,10.0,46.0,1.0,241.52592889999505,,,,,,,,,,,,,,,,,241.4908338000532,242.30261300003625,243.1353314999724,243.10453820007388,,,,,,,,,,,,,,,,,,,,,,,,,,,,,,,,,,243.1184636000544,243.1353314999724,243.1353314999724,243.84024809999391,r,1.0,0.6840166000183672,,,,,sub-159,1,stroop_test,,
,,,,47.0,11.0,3.0,,,,,,,,,,,,,rot,blue,b,0.0,b,1.0,0.7860722999321297,,,,,,,,,,3.0,11.0,47.0,2.0,243.8738122000359,,,,,,,,,,,,,,,,,243.8417909999844,245.05171719996724,245.8544996000128,245.8359142000554,,,,,,,,,,,,,,,,,,,,,,,,,,,,,,,,,,245.83718100003895,245.8544996000128,245.8544996000128,246.65453120006717,b,1.0,0.7860722999321297,,,,,sub-159,1,stroop_test,,
,,,,48.0,0.0,4.0,,,,,,,,,,,,,gelb,red,r,0.0,r,1.0,0.6811798999551684,,,,,,,,,,4.0,0.0,48.0,8.0,246.67032839998137,,,,,,,,,,,,,,,,,246.65547630004585,247.4675927000353,248.27848199999423,248.25243059999772,,,,,,,,,,,,,,,,,,,,,,,,,,,,,,,,,,248.2627792999847,248.27848199999423,248.27848199999423,248.97068070003297,r,1.0,0.6811798999551684,,,,,sub-159,1,stroop_test,,
,,,,49.0,1.0,4.0,,,,,,,,,,,,,blau,blue,b,1.0,b,1.0,0.6649892000714317,,,,,,,,,,4.0,1.0,49.0,5.0,248.98622469999827,,,,,,,,,,,,,,,,,248.97158909996503,249.3310969000449,250.14787950005848,250.1213812000351,,,,,,,,,,,,,,,,,,,,,,,,,,,,,,,,,,250.1310315000592,250.14787950005848,250.14787950005848,250.821160200052,b,1.0,0.6649892000714317,,,,,sub-159,1,stroop_test,,
,,,,50.0,2.0,4.0,,,,,,,,,,,,,gelb,yellow,g,1.0,g,1.0,0.6598947000456974,,,,,,,,,,4.0,2.0,50.0,11.0,250.8367851000512,,,,,,,,,,,,,,,,,250.82212210004215,250.93537670001388,251.75023020000663,251.72071769996543,,,,,,,,,,,,,,,,,,,,,,,,,,,,,,,,,,251.7333387000253,251.75023020000663,251.75023020000663,252.4207709999755,g,1.0,0.6598947000456974,,,,,sub-159,1,stroop_test,,
,,,,51.0,3.0,4.0,,,,,,,,,,,,,blau,red,r,0.0,r,1.0,0.8422282999381423,,,,,,,,,,4.0,3.0,51.0,4.0,252.43647219997365,,,,,,,,,,,,,,,,,252.42177889996677,253.6343284000177,254.4450411000289,254.41911040002012,,,,,,,,,,,,,,,,,,,,,,,,,,,,,,,,,,254.42826229997445,254.4450411000289,254.4450411000289,255.3075761999935,r,1.0,0.8422282999381423,,,,,sub-159,1,stroop_test,,
,,,,52.0,4.0,4.0,,,,,,,,,,,,,rot,red,r,1.0,r,1.0,0.5367696000030264,,,,,,,,,,4.0,4.0,52.0,1.0,255.33509209996555,,,,,,,,,,,,,,,,,255.3085335000651,256.11789890006185,256.9329038000433,256.9029417000711,,,,,,,,,,,,,,,,,,,,,,,,,,,,,,,,,,256.9160658000037,256.9329038000433,256.9329038000433,257.491900300025,r,1.0,0.5367696000030264,,,,,sub-159,1,stroop_test,,
,,,,53.0,5.0,4.0,,,,,,,,,,,,,rot,blue,b,0.0,b,1.0,0.8171512000262737,,,,,,,,,,4.0,5.0,53.0,2.0,257.5177208000096,,,,,,,,,,,,,,,,,257.4928436999908,258.2973876000615,259.10634359996766,259.0860351000447,,,,,,,,,,,,,,,,,,,,,,,,,,,,,,,,,,259.08732180006336,259.10634359996766,259.10634359996766,259.9322358999634,b,1.0,0.8171512000262737,,,,,sub-159,1,stroop_test,,
,,,,54.0,6.0,4.0,,,,,,,,,,,,,rot,yellow,g,0.0,g,1.0,0.6798402999993414,,,,,,,,,,4.0,6.0,54.0,3.0,259.9484076000517,,,,,,,,,,,,,,,,,259.9327387000667,261.1484369999962,261.95644540002104,261.9377381000668,,,,,,,,,,,,,,,,,,,,,,,,,,,,,,,,,,261.9390182000352,261.95644540002104,261.95644540002104,262.6558804999804,g,1.0,0.6798402999993414,,,,,sub-159,1,stroop_test,,
,,,,55.0,7.0,4.0,,,,,,,,,,,,,gelb,yellow,g,1.0,g,1.0,0.6596461000153795,,,,,,,,,,4.0,7.0,55.0,10.0,262.6707496000454,,,,,,,,,,,,,,,,,262.6568137999857,263.0143337000627,263.81913000007626,263.7982264000457,,,,,,,,,,,,,,,,,,,,,,,,,,,,,,,,,,263.80384010006674,263.81913000007626,263.81913000007626,264.4824053000193,g,1.0,0.6596461000153795,,,,,sub-159,1,stroop_test,,
,,,,56.0,8.0,4.0,,,,,,,,,,,,,blau,blue,b,1.0,b,1.0,0.5432041001040488,,,,,,,,,,4.0,8.0,56.0,6.0,264.50033259997144,,,,,,,,,,,,,,,,,264.4829122000374,265.2973850000417,266.1134563999949,266.0963562000543,,,,,,,,,,,,,,,,,,,,,,,,,,,,,,,,,,266.0997999999672,266.1134563999949,266.1134563999949,266.6656995000085,b,1.0,0.5432041001040488,,,,,sub-159,1,stroop_test,,
,,,,57.0,9.0,4.0,,,,,,,,,,,,,blau,yellow,g,0.0,g,1.0,0.7135022999718785,,,,,,,,,,4.0,9.0,57.0,7.0,266.6794251999818,,,,,,,,,,,,,,,,,266.6660720000509,266.7806004000595,267.5806000999873,267.5646377999801,,,,,,,,,,,,,,,,,,,,,,,,,,,,,,,,,,267.56531299999915,267.5806000999873,267.5806000999873,268.2986914999783,g,1.0,0.7135022999718785,,,,,sub-159,1,stroop_test,,
,,,,58.0,10.0,4.0,,,,,,,,,,,,,rot,red,r,1.0,r,1.0,0.4391296999529004,,,,,,,,,,4.0,10.0,58.0,0.0,268.3140630000271,,,,,,,,,,,,,,,,,268.2991871000268,269.5141428000061,270.3184688000474,270.2977307999972,,,,,,,,,,,,,,,,,,,,,,,,,,,,,,,,,,270.3031424999936,270.3184688000474,270.3184688000474,270.7654435000149,r,1.0,0.4391296999529004,,,,,sub-159,1,stroop_test,,
,,,,59.0,11.0,4.0,,,,,,,,,,,,,gelb,blue,b,0.0,b,1.0,0.4531007000477984,,,,,,,,,,4.0,11.0,59.0,9.0,270.78079300001264,,,,,,,,,,,,,,,,,270.76595270005055,271.9805456000613,272.7853358000284,272.7648260999704,,,,,,,,,,,,,,,,,,,,,,,,,,,,,,,,,,272.77095150004607,272.7853358000284,272.7853358000284,273.24852769996505,b,1.0,0.4531007000477984,,,,,sub-159,1,stroop_test,,
,,,,60.0,0.0,5.0,,,,,,,,,,,,,blau,blue,b,1.0,b,1.0,0.4798128999536857,,,,,,,,,,5.0,0.0,60.0,5.0,273.26317829999607,,,,,,,,,,,,,,,,,273.2488919000607,273.61396520002745,274.41816550004296,274.3985443999991,,,,,,,,,,,,,,,,,,,,,,,,,,,,,,,,,,274.4031665000366,274.41816550004296,274.41816550004296,274.89962929999456,b,1.0,0.4798128999536857,,,,,sub-159,1,stroop_test,,
,,,,61.0,1.0,5.0,,,,,,,,,,,,,rot,red,r,1.0,r,1.0,0.5912141998996958,,,,,,,,,,5.0,1.0,61.0,1.0,274.9142277999781,,,,,,,,,,,,,,,,,274.90014370006975,275.0151944999816,275.8382252000738,275.81498680007644,,,,,,,,,,,,,,,,,,,,,,,,,,,,,,,,,,275.8213506999891,275.8382252000738,275.8382252000738,276.4322936000535,r,1.0,0.5912141998996958,,,,,sub-159,1,stroop_test,,
,,,,62.0,2.0,5.0,,,,,,,,,,,,,rot,red,r,1.0,r,1.0,0.6129088000161573,,,,,,,,,,5.0,2.0,62.0,0.0,276.44776020001154,,,,,,,,,,,,,,,,,276.4327788000228,277.2307673000032,278.03102250001393,278.0148494000314,,,,,,,,,,,,,,,,,,,,,,,,,,,,,,,,,,278.0155234000413,278.03102250001393,278.03102250001393,278.6490386000369,r,1.0,0.6129088000161573,,,,,sub-159,1,stroop_test,,
,,,,63.0,3.0,5.0,,,,,,,,,,,,,blau,blue,b,1.0,b,1.0,0.4965330000268295,,,,,,,,,,5.0,3.0,63.0,6.0,278.66435089998413,,,,,,,,,,,,,,,,,278.6495322000701,279.464211500017,280.26785150007345,280.24840739998035,,,,,,,,,,,,,,,,,,,,,,,,,,,,,,,,,,280.2531007999787,280.26785150007345,280.26785150007345,280.7661573999794,b,1.0,0.4965330000268295,,,,,sub-159,1,stroop_test,,
,,,,64.0,4.0,5.0,,,,,,,,,,,,,gelb,blue,b,0.0,g,0.0,0.5822230000048876,,,,,,,,,,5.0,4.0,64.0,9.0,280.7811381999636,,,,,,,,,,,,,,,,,280.7666441000765,281.58089890005067,282.385869699996,282.365167299984,,,,,,,,,,,,,,,,,,,,,,,,,,,,,,,,,,282.37027840001974,282.385869699996,282.385869699996,282.9829125000397,g,0.0,0.5822230000048876,,,,,sub-159,1,stroop_test,,
,,,,65.0,5.0,5.0,,,,,,,,,,,,,gelb,yellow,g,1.0,g,1.0,0.6868933000368997,,,,,,,,,,5.0,5.0,65.0,11.0,282.99780670006294,,,,,,,,,,,,,,,,,282.9834522000747,283.0974904000759,283.8986969999969,283.8818614999764,,,,,,,,,,,,,,,,,,,,,,,,,,,,,,,,,,283.8823666999815,283.8986969999969,283.8986969999969,284.60243950004224,g,1.0,0.6868933000368997,,,,,sub-159,1,stroop_test,,
,,,,66.0,6.0,5.0,,,,,,,,,,,,,gelb,red,r,0.0,r,1.0,0.6818051999434829,,,,,,,,,,5.0,6.0,66.0,8.0,284.6154075000668,,,,,,,,,,,,,,,,,284.6029070999939,285.81877710006665,286.6213438999839,286.6032545999624,,,,,,,,,,,,,,,,,,,,,,,,,,,,,,,,,,286.6045098999748,286.6213438999839,286.6213438999839,287.31821260007564,r,1.0,0.6818051999434829,,,,,sub-159,1,stroop_test,,
,,,,67.0,7.0,5.0,,,,,,,,,,,,,rot,blue,b,0.0,b,1.0,0.4687810000032186,,,,,,,,,,5.0,7.0,67.0,2.0,287.33310330007225,,,,,,,,,,,,,,,,,287.31920090003405,287.6822013000492,288.5090976000065,288.4820393000264,,,,,,,,,,,,,,,,,,,,,,,,,,,,,,,,,,288.4879761000629,288.5090976000065,288.5090976000065,288.9829166000709,b,1.0,0.4687810000032186,,,,,sub-159,1,stroop_test,,
,,,,68.0,8.0,5.0,,,,,,,,,,,,,rot,yellow,g,0.0,g,1.0,0.7024083998985589,,,,,,,,,,5.0,8.0,68.0,3.0,288.9981713000452,,,,,,,,,,,,,,,,,288.9834378999658,289.0975473000435,289.8977600999642,289.8821020000614,,,,,,,,,,,,,,,,,,,,,,,,,,,,,,,,,,289.88276710000355,289.8977600999642,289.8977600999642,290.6178987000603,g,1.0,0.7024083998985589,,,,,sub-159,1,stroop_test,,
,,,,69.0,9.0,5.0,,,,,,,,,,,,,blau,red,r,0.0,r,1.0,1.0038274000398817,,,,,,,,,,5.0,9.0,69.0,4.0,290.63339319999795,,,,,,,,,,,,,,,,,290.61839509999845,291.4361732000252,292.2436887000222,292.22261549998075,,,,,,,,,,,,,,,,,,,,,,,,,,,,,,,,,,292.2293460000073,292.2436887000222,292.2436887000222,293.2514788999688,r,1.0,1.0038274000398817,,,,,sub-159,1,stroop_test,,
,,,,70.0,10.0,5.0,,,,,,,,,,,,,gelb,yellow,g,1.0,g,1.0,0.6165800000308082,,,,,,,,,,5.0,10.0,70.0,10.0,293.26586829999,,,,,,,,,,,,,,,,,293.25207899999805,293.6145477000391,294.41885939997155,294.3984008000698,,,,,,,,,,,,,,,,,,,,,,,,,,,,,,,,,,294.40354930004105,294.41885939997155,294.41885939997155,295.0492175000254,g,1.0,0.6165800000308082,,,,,sub-159,1,stroop_test,,
,,,,71.0,11.0,5.0,,,,,,,,,,,,,blau,yellow,g,0.0,g,1.0,0.6858347000088543,,,,,,,,,,5.0,11.0,71.0,7.0,295.064418700058,,,,,,,,,,,,,,,,,295.0497428000672,295.1646948000416,295.96798720001243,295.94845360005274,,,,,,,,,,,,,,,,,,,,,,,,,,,,,,,,,,295.9531283000251,295.96798720001243,295.96798720001243,296.66714340006,g,1.0,0.6858347000088543,,,,,sub-159,1,stroop_test,,
,,,,72.0,0.0,6.0,,,,,,,,,,,,,gelb,red,r,0.0,r,1.0,0.7928401000099257,,,,,,,,,,6.0,0.0,72.0,8.0,296.68219109997153,,,,,,,,,,,,,,,,,296.66769260005094,296.7816315999953,297.5868194999639,297.5656544000376,,,,,,,,,,,,,,,,,,,,,,,,,,,,,,,,,,297.571259999997,297.5868194999639,297.5868194999639,298.3832933000522,r,1.0,0.7928401000099257,,,,,sub-159,1,stroop_test,,
,,,,73.0,1.0,6.0,,,,,,,,,,,,,blau,red,r,0.0,r,1.0,0.7598466000054032,,,,,,,,,,6.0,1.0,73.0,4.0,298.3980682999827,,,,,,,,,,,,,,,,,298.3838140000589,298.4980596000096,299.3037373999832,299.2827377000358,,,,,,,,,,,,,,,,,,,,,,,,,,,,,,,,,,299.2899557000492,299.3037373999832,299.3037373999832,300.0667927999748,r,1.0,0.7598466000054032,,,,,sub-159,1,stroop_test,,
,,,,74.0,2.0,6.0,,,,,,,,,,,,,blau,blue,b,1.0,b,1.0,0.469387499964796,,,,,,,,,,6.0,2.0,74.0,6.0,300.0812626000261,,,,,,,,,,,,,,,,,300.06728219997603,301.27129539998714,302.08128010004293,302.0652786999708,,,,,,,,,,,,,,,,,,,,,,,,,,,,,,,,,,302.065921499976,302.08128010004293,302.08128010004293,302.56586950004566,b,1.0,0.469387499964796,,,,,sub-159,1,stroop_test,,
,,,,75.0,3.0,6.0,,,,,,,,,,,,,gelb,yellow,g,1.0,g,1.0,0.7079100999981165,,,,,,,,,,6.0,3.0,75.0,10.0,302.5812223000685,,,,,,,,,,,,,,,,,302.56635570002254,302.93114710005466,303.7357337999856,303.71544030006044,,,,,,,,,,,,,,,,,,,,,,,,,,,,,,,,,,303.72047299996484,303.7357337999856,303.7357337999856,304.44982149999123,g,1.0,0.7079100999981165,,,,,sub-159,1,stroop_test,,
,,,,76.0,4.0,6.0,,,,,,,,,,,,,gelb,blue,b,0.0,b,1.0,0.6363475000252947,,,,,,,,,,6.0,4.0,76.0,9.0,304.4646572000347,,,,,,,,,,,,,,,,,304.450322000077,304.8142307000235,305.6155888000503,305.59953860007226,,,,,,,,,,,,,,,,,,,,,,,,,,,,,,,,,,305.60022690007463,305.6155888000503,305.6155888000503,306.256512699998,b,1.0,0.6363475000252947,,,,,sub-159,1,stroop_test,,
,,,,77.0,5.0,6.0,,,,,,,,,,,,,blau,yellow,g,0.0,g,1.0,0.6512672000098974,,,,,,,,,,6.0,5.0,77.0,7.0,306.27347080002073,,,,,,,,,,,,,,,,,306.25774250004906,306.6200956000248,307.4354008999653,307.4154547000071,,,,,,,,,,,,,,,,,,,,,,,,,,,,,,,,,,307.4203564999625,307.4354008999653,307.4354008999653,308.09943740000017,g,1.0,0.6512672000098974,,,,,sub-159,1,stroop_test,,
,,,,78.0,6.0,6.0,,,,,,,,,,,,,rot,red,r,1.0,r,1.0,0.4184731999412179,,,,,,,,,,6.0,6.0,78.0,1.0,308.1141938000219,,,,,,,,,,,,,,,,,308.0998676000163,309.3150239000097,310.1195003000321,310.0991949000163,,,,,,,,,,,,,,,,,,,,,,,,,,,,,,,,,,310.1046761000762,310.1195003000321,310.1195003000321,310.5494249999756,r,1.0,0.4184731999412179,,,,,sub-159,1,stroop_test,,
,,,,79.0,7.0,6.0,,,,,,,,,,,,,rot,red,r,1.0,r,1.0,0.5039932999061421,,,,,,,,,,6.0,7.0,79.0,0.0,310.56462610000744,,,,,,,,,,,,,,,,,310.5499167999951,310.6650928000454,311.46484550007153,311.44872320001014,,,,,,,,,,,,,,,,,,,,,,,,,,,,,,,,,,311.4493424000684,311.46484550007153,311.46484550007153,311.98242620006204,r,1.0,0.5039932999061421,,,,,sub-159,1,stroop_test,,
,,,,80.0,8.0,6.0,,,,,,,,,,,,,rot,yellow,g,0.0,g,1.0,0.5592192000476643,,,,,,,,,,6.0,8.0,80.0,3.0,311.99784910003655,,,,,,,,,,,,,,,,,311.98290970001835,312.0977804000722,312.89795200002845,312.8821774000535,,,,,,,,,,,,,,,,,,,,,,,,,,,,,,,,,,312.8828448000131,312.89795200002845,312.89795200002845,313.4661146000726,g,1.0,0.5592192000476643,,,,,sub-159,1,stroop_test,,
,,,,81.0,9.0,6.0,,,,,,,,,,,,,rot,blue,b,0.0,b,1.0,0.4671136999968439,,,,,,,,,,6.0,9.0,81.0,2.0,313.48112270003185,,,,,,,,,,,,,,,,,313.4666208999697,314.6812414000742,315.4814713000087,315.46539210004266,,,,,,,,,,,,,,,,,,,,,,,,,,,,,,,,,,315.4660420999862,315.4814713000087,315.4814713000087,315.95068150002044,b,1.0,0.4671136999968439,,,,,sub-159,1,stroop_test,,
,,,,82.0,10.0,6.0,,,,,,,,,,,,,blau,blue,b,1.0,b,1.0,0.6320677999174222,,,,,,,,,,6.0,10.0,82.0,5.0,315.9655970999738,,,,,,,,,,,,,,,,,315.9512195000425,316.0658190000104,316.8711546000559,316.8496749000624,,,,,,,,,,,,,,,,,,,,,,,,,,,,,,,,,,316.8563974000281,316.8711546000559,316.8711546000559,317.52232850005385,b,1.0,0.6320677999174222,,,,,sub-159,1,stroop_test,,
,,,,83.0,11.0,6.0,,,,,,,,,,,,,gelb,yellow,g,1.0,g,1.0,0.5473117000656202,,,,,,,,,,6.0,11.0,83.0,11.0,317.5367535999976,,,,,,,,,,,,,,,,,317.5232519999845,317.9034128000494,318.7154316999949,318.6970100000035,,,,,,,,,,,,,,,,,,,,,,,,,,,,,,,,,,318.70161109999754,318.7154316999949,318.7154316999949,319.2664107000455,g,1.0,0.5473117000656202,,,,,sub-159,1,stroop_test,,
,,,,84.0,0.0,7.0,,,,,,,,,,,,,rot,yellow,g,0.0,g,1.0,0.6970965000800788,,,,,,,,,,7.0,0.0,84.0,3.0,319.2814918999793,,,,,,,,,,,,,,,,,319.26689650001936,320.4685692000203,321.2847152000759,321.2555343999993,,,,,,,,,,,,,,,,,,,,,,,,,,,,,,,,,,321.26724610000383,321.2847152000759,321.2847152000759,321.98808190005366,g,1.0,0.6970965000800788,,,,,sub-159,1,stroop_test,,
,,,,85.0,1.0,7.0,,,,,,,,,,,,,rot,red,r,1.0,r,1.0,0.6083711999235675,,,,,,,,,,7.0,1.0,85.0,0.0,322.0039337000344,,,,,,,,,,,,,,,,,321.9889853000641,322.10194890003186,322.9056194999721,322.8868609999772,,,,,,,,,,,,,,,,,,,,,,,,,,,,,,,,,,322.8882142000366,322.9056194999721,322.9056194999721,323.52367929997854,r,1.0,0.6083711999235675,,,,,sub-159,1,stroop_test,,
,,,,86.0,2.0,7.0,,,,,,,,,,,,,rot,red,r,1.0,r,1.0,0.4772831000154838,,,,,,,,,,7.0,2.0,86.0,1.0,323.5398220999632,,,,,,,,,,,,,,,,,323.5247339999769,324.33656710002106,325.14172189997043,325.1220581000671,,,,,,,,,,,,,,,,,,,,,,,,,,,,,,,,,,325.1235221000388,325.14172189997043,325.14172189997043,325.6226289999904,r,1.0,0.4772831000154838,,,,,sub-159,1,stroop_test,,
,,,,87.0,3.0,7.0,,,,,,,,,,,,,gelb,red,r,0.0,r,1.0,0.7787516000680625,,,,,,,,,,7.0,3.0,87.0,8.0,325.63828389998525,,,,,,,,,,,,,,,,,325.6235591999721,326.83711480000056,327.65120129997376,327.62202770006843,,,,,,,,,,,,,,,,,,,,,,,,,,,,,,,,,,327.6341789000435,327.65120129997376,327.65120129997376,328.44071270001587,r,1.0,0.7787516000680625,,,,,sub-159,1,stroop_test,,
,,,,88.0,4.0,7.0,,,,,,,,,,,,,blau,blue,b,1.0,b,1.0,0.6122939999913797,,,,,,,,,,7.0,4.0,88.0,6.0,328.4570184000768,,,,,,,,,,,,,,,,,328.4418228999712,329.670698300004,330.48245800007135,330.45523970003705,,,,,,,,,,,,,,,,,,,,,,,,,,,,,,,,,,330.46630049997475,330.48245800007135,330.48245800007135,331.1073761000298,b,1.0,0.6122939999913797,,,,,sub-159,1,stroop_test,,
,,,,89.0,5.0,7.0,,,,,,,,,,,,,gelb,blue,b,0.0,b,1.0,0.5231468999991193,,,,,,,,,,7.0,5.0,89.0,9.0,331.1358476000605,,,,,,,,,,,,,,,,,331.1082956000464,331.91859829996247,332.7368498999858,332.7057450000429,,,,,,,,,,,,,,,,,,,,,,,,,,,,,,,,,,332.7194816999836,332.7368498999858,332.7368498999858,333.27432560001034,b,1.0,0.5231468999991193,,,,,sub-159,1,stroop_test,,
,,,,90.0,6.0,7.0,,,,,,,,,,,,,blau,blue,b,1.0,b,1.0,0.5846427999204025,,,,,,,,,,7.0,6.0,90.0,5.0,333.30212050001137,,,,,,,,,,,,,,,,,333.27540270006284,333.38615899998695,334.2005616000388,334.17207119998056,,,,,,,,,,,,,,,,,,,,,,,,,,,,,,,,,,334.18356390006375,334.2005616000388,334.2005616000388,334.7902917000465,b,1.0,0.5846427999204025,,,,,sub-159,1,stroop_test,,
,,,,91.0,7.0,7.0,,,,,,,,,,,,,blau,red,r,0.0,r,1.0,0.7960662000114098,,,,,,,,,,7.0,7.0,91.0,4.0,334.8064223000547,,,,,,,,,,,,,,,,,334.7914327000035,335.1537089999765,335.96885080006905,335.9396291000303,,,,,,,,,,,,,,,,,,,,,,,,,,,,,,,,,,335.9412439999869,335.96885080006905,335.96885080006905,336.7899388000369,r,1.0,0.7960662000114098,,,,,sub-159,1,stroop_test,,
,,,,92.0,8.0,7.0,,,,,,,,,,,,,gelb,yellow,g,1.0,g,1.0,0.7374177000019699,,,,,,,,,,7.0,8.0,92.0,10.0,336.806158100022,,,,,,,,,,,,,,,,,336.791014400078,338.0212991000153,338.84806129999924,338.82046580000315,,,,,,,,,,,,,,,,,,,,,,,,,,,,,,,,,,338.83092199999373,338.84806129999924,338.84806129999924,339.60743490001187,g,1.0,0.7374177000019699,,,,,sub-159,1,stroop_test,,
,,,,93.0,9.0,7.0,,,,,,,,,,,,,gelb,yellow,g,1.0,g,1.0,0.6296715999487787,,,,,,,,,,7.0,9.0,93.0,11.0,339.6236161000561,,,,,,,,,,,,,,,,,339.60850430000573,339.720153799979,340.5248897999991,340.5052053000545,,,,,,,,,,,,,,,,,,,,,,,,,,,,,,,,,,340.5067161000334,340.5248897999991,340.5248897999991,341.1577558000572,g,1.0,0.6296715999487787,,,,,sub-159,1,stroop_test,,
,,,,94.0,10.0,7.0,,,,,,,,,,,,,blau,yellow,g,0.0,g,1.0,0.6089817000320181,,,,,,,,,,7.0,10.0,94.0,7.0,341.17416689998936,,,,,,,,,,,,,,,,,341.1587964000646,341.5193663999671,342.33324950002134,342.3054400000256,,,,,,,,,,,,,,,,,,,,,,,,,,,,,,,,,,342.31598469999153,342.33324950002134,342.33324950002134,342.9552282000659,g,1.0,0.6089817000320181,,,,,sub-159,1,stroop_test,,
,,,,95.0,11.0,7.0,,,,,,,,,,,,,rot,blue,b,0.0,b,1.0,0.9076543999835848,,,,,,,,,,7.0,11.0,95.0,2.0,342.97108769998886,,,,,,,,,,,,,,,,,342.95613750000484,343.7698163000168,344.5847239000723,344.55527680006344,,,,,,,,,,,,,,,,,,,,,,,,,,,,,,,,,,344.56768109998666,344.5847239000723,344.5847239000723,345.5075015000766,b,1.0,0.9076543999835848,,,,,sub-159,1,stroop_test,,
,,,,96.0,0.0,8.0,,,,,,,,,,,,,gelb,yellow,g,1.0,g,1.0,0.7450628998922184,,,,,,,,,,8.0,0.0,96.0,10.0,345.5236447000643,,,,,,,,,,,,,,,,,345.5085473000072,346.7189702000469,347.53656210005283,347.50555890006945,,,,,,,,,,,,,,,,,,,,,,,,,,,,,,,,,,347.5190389000345,347.53656210005283,347.53656210005283,348.2909077999648,g,1.0,0.7450628998922184,,,,,sub-159,1,stroop_test,,
,,,,97.0,1.0,8.0,,,,,,,,,,,,,blau,red,r,0.0,r,1.0,0.5591199999907985,,,,,,,,,,8.0,1.0,97.0,4.0,348.32073150004726,,,,,,,,,,,,,,,,,348.29212470003404,349.1037492000032,349.9301085000625,349.90498520003166,,,,,,,,,,,,,,,,,,,,,,,,,,,,,,,,,,349.91417280002497,349.9301085000625,349.9301085000625,350.50953240005765,r,1.0,0.5591199999907985,,,,,sub-159,1,stroop_test,,
,,,,98.0,2.0,8.0,,,,,,,,,,,,,gelb,yellow,g,1.0,g,1.0,0.5871037000324577,,,,,,,,,,8.0,2.0,98.0,11.0,350.5367238000036,,,,,,,,,,,,,,,,,350.5105779999867,350.6193826000672,351.43689140002243,351.4057149,,,,,,,,,,,,,,,,,,,,,,,,,,,,,,,,,,351.41790400003083,351.43689140002243,351.43689140002243,352.0402187000727,g,1.0,0.5871037000324577,,,,,sub-159,1,stroop_test,,
,,,,99.0,3.0,8.0,,,,,,,,,,,,,rot,yellow,g,0.0,g,1.0,0.8574468999868259,,,,,,,,,,8.0,3.0,99.0,3.0,352.0563138000434,,,,,,,,,,,,,,,,,352.04130919999443,352.40365280001424,353.2310904000188,353.2038784000324,,,,,,,,,,,,,,,,,,,,,,,,,,,,,,,,,,353.2139008999802,353.2310904000188,353.2310904000188,354.10740650002845,g,1.0,0.8574468999868259,,,,,sub-159,1,stroop_test,,
,,,,100.0,4.0,8.0,,,,,,,,,,,,,blau,blue,b,1.0,b,1.0,0.609271299908869,,,,,,,,,,8.0,4.0,100.0,5.0,354.1240587000502,,,,,,,,,,,,,,,,,354.10869799996726,354.9193252000259,355.73248200002126,355.70555970002897,,,,,,,,,,,,,,,,,,,,,,,,,,,,,,,,,,355.71613670000806,355.73248200002126,355.73248200002126,356.35731310001574,b,1.0,0.609271299908869,,,,,sub-159,1,stroop_test,,
,,,,101.0,5.0,8.0,,,,,,,,,,,,,blau,yellow,g,0.0,g,1.0,0.6333859000587836,,,,,,,,,,8.0,5.0,101.0,7.0,356.37377349997405,,,,,,,,,,,,,,,,,356.35837160004303,357.1691510999808,357.9750860000495,357.9554006999824,,,,,,,,,,,,,,,,,,,,,,,,,,,,,,,,,,357.9568781000562,357.9750860000495,357.9750860000495,358.6409884999739,g,1.0,0.6333859000587836,,,,,sub-159,1,stroop_test,,
,,,,102.0,6.0,8.0,,,,,,,,,,,,,gelb,blue,b,0.0,b,1.0,0.8338040999369696,,,,,,,,,,8.0,6.0,102.0,9.0,358.6574598000152,,,,,,,,,,,,,,,,,358.6420672000386,359.4525888999924,360.2698608000064,360.23931209999137,,,,,,,,,,,,,,,,,,,,,,,,,,,,,,,,,,360.2520215000259,360.2698608000064,360.2698608000064,361.10815109999385,b,1.0,0.8338040999369696,,,,,sub-159,1,stroop_test,,
,,,,103.0,7.0,8.0,,,,,,,,,,,,,rot,red,r,1.0,r,1.0,0.5131607999792323,,,,,,,,,,8.0,7.0,103.0,0.0,361.124323099968,,,,,,,,,,,,,,,,,361.1092173999641,361.91907699999865,362.7341427999781,362.7056214000331,,,,,,,,,,,,,,,,,,,,,,,,,,,,,,,,,,362.7177166000474,362.7341427999781,362.7341427999781,363.25558580004144,r,1.0,0.5131607999792323,,,,,sub-159,1,stroop_test,,
,,,,104.0,8.0,8.0,,,,,,,,,,,,,blau,blue,b,1.0,b,1.0,0.5623816000297666,,,,,,,,,,8.0,8.0,104.0,6.0,363.2710248000221,,,,,,,,,,,,,,,,,363.2564878000412,363.369062300073,364.1828667999944,364.1557568999706,,,,,,,,,,,,,,,,,,,,,,,,,,,,,,,,,,364.1662218000274,364.1828667999944,364.1828667999944,364.7570091000525,b,1.0,0.5623816000297666,,,,,sub-159,1,stroop_test,,
,,,,105.0,9.0,8.0,,,,,,,,,,,,,rot,red,r,1.0,g,0.0,1.0899615000234917,,,,,,,,,,8.0,9.0,105.0,1.0,364.7731765999925,,,,,,,,,,,,,,,,,364.7580554999877,365.5876482999884,366.4158033999847,366.38838670006953,,,,,,,,,,,,,,,,,,,,,,,,,,,,,,,,,,366.3987305000192,366.4158033999847,366.4158033999847,367.5228591000196,g,0.0,1.0899615000234917,,,,,sub-159,1,stroop_test,,
,,,,106.0,10.0,8.0,,,,,,,,,,,,,rot,blue,b,0.0,b,1.0,0.6152279999805614,,,,,,,,,,8.0,10.0,106.0,2.0,367.5373223000206,,,,,,,,,,,,,,,,,367.5237591000041,368.73604680004064,369.5419000000693,369.5226285000099,,,,,,,,,,,,,,,,,,,,,,,,,,,,,,,,,,369.524064199999,369.5419000000693,369.5419000000693,370.1755070000654,b,1.0,0.6152279999805614,,,,,sub-159,1,stroop_test,,
,,,,107.0,11.0,8.0,,,,,,,,,,,,,gelb,red,r,0.0,r,1.0,0.7723332999739796,,,,,,,,,,8.0,11.0,107.0,8.0,370.2029906000244,,,,,,,,,,,,,,,,,370.1765470000682,370.5359453000128,371.3548550000414,371.3232847000472,,,,,,,,,,,,,,,,,,,,,,,,,,,,,,,,,,371.3361197999912,371.3548550000414,371.3548550000414,372.1577079000417,r,1.0,0.7723332999739796,,,,,sub-159,1,stroop_test,,
,,,,108.0,0.0,9.0,,,,,,,,,,,,,blau,blue,b,1.0,b,1.0,0.7761555999750271,,,,,,,,,,9.0,0.0,108.0,5.0,372.1739044999704,,,,,,,,,,,,,,,,,372.1587627000408,372.5206728000194,373.3325437000021,373.3053859999636,,,,,,,,,,,,,,,,,,,,,,,,,,,,,,,,,,373.3164622000186,373.3325437000021,373.3325437000021,374.1245309000369,b,1.0,0.7761555999750271,,,,,sub-159,1,stroop_test,,
,,,,109.0,1.0,9.0,,,,,,,,,,,,,rot,yellow,g,0.0,g,1.0,0.4369501000037417,,,,,,,,,,9.0,1.0,109.0,3.0,374.1531493000221,,,,,,,,,,,,,,,,,374.1257815000136,374.4988921000622,375.31853719998617,375.2893085000105,,,,,,,,,,,,,,,,,,,,,,,,,,,,,,,,,,375.3010597999673,375.31853719998617,375.31853719998617,375.77312620007433,g,1.0,0.4369501000037417,,,,,sub-159,1,stroop_test,,
,,,,110.0,2.0,9.0,,,,,,,,,,,,,rot,red,r,1.0,r,1.0,0.9184600999578834,,,,,,,,,,9.0,2.0,110.0,1.0,375.7886481999885,,,,,,,,,,,,,,,,,375.7741908000317,375.8872633000137,376.70759210002143,376.6880189999938,,,,,,,,,,,,,,,,,,,,,,,,,,,,,,,,,,376.68955260002986,376.70759210002143,376.70759210002143,377.65581160003785,r,1.0,0.9184600999578834,,,,,sub-159,1,stroop_test,,
,,,,111.0,3.0,9.0,,,,,,,,,,,,,gelb,blue,b,0.0,b,1.0,0.5981063999934122,,,,,,,,,,9.0,3.0,111.0,9.0,377.67163660004735,,,,,,,,,,,,,,,,,377.65673779998906,378.8862568000332,379.6988612000132,379.67201740003657,,,,,,,,,,,,,,,,,,,,,,,,,,,,,,,,,,379.6824490000727,379.6988612000132,379.6988612000132,380.305594000034,b,1.0,0.5981063999934122,,,,,sub-159,1,stroop_test,,
,,,,112.0,4.0,9.0,,,,,,,,,,,,,gelb,yellow,g,1.0,g,1.0,0.6034966999432072,,,,,,,,,,9.0,4.0,112.0,10.0,380.32094340003096,,,,,,,,,,,,,,,,,380.3064990000567,380.4194327000296,381.22290659998544,381.2043258000631,,,,,,,,,,,,,,,,,,,,,,,,,,,,,,,,,,381.20559929998126,381.22290659998544,381.22290659998544,381.8412597000133,g,1.0,0.6034966999432072,,,,,sub-159,1,stroop_test,,
,,,,113.0,5.0,9.0,,,,,,,,,,,,,rot,red,r,1.0,r,1.0,0.3713955000275746,,,,,,,,,,9.0,5.0,113.0,0.0,381.85746440000366,,,,,,,,,,,,,,,,,381.8423260999844,383.054065000033,383.8807917999802,383.8543321000179,,,,,,,,,,,,,,,,,,,,,,,,,,,,,,,,,,383.8640641999664,383.8807917999802,383.8807917999802,384.25627010001335,r,1.0,0.3713955000275746,,,,,sub-159,1,stroop_test,,
,,,,114.0,6.0,9.0,,,,,,,,,,,,,rot,blue,b,0.0,b,1.0,0.4474140999373048,,,,,,,,,,9.0,6.0,114.0,2.0,384.2722435999895,,,,,,,,,,,,,,,,,384.25731490005273,384.38626449997537,385.1909638000652,385.1711685999762,,,,,,,,,,,,,,,,,,,,,,,,,,,,,,,,,,385.1726759000449,385.1909638000652,385.1909638000652,385.6416721000569,b,1.0,0.4474140999373048,,,,,sub-159,1,stroop_test,,
,,,,115.0,7.0,9.0,,,,,,,,,,,,,gelb,red,r,0.0,r,1.0,1.1108100999845192,,,,,,,,,,9.0,7.0,115.0,8.0,385.6583397999639,,,,,,,,,,,,,,,,,385.6427108000498,385.7529815000016,386.5694657000713,386.53765030007344,,,,,,,,,,,,,,,,,,,,,,,,,,,,,,,,,,386.551786200027,386.5694657000713,386.5694657000713,387.6891927999677,r,1.0,1.1108100999845192,,,,,sub-159,1,stroop_test,,
,,,,116.0,8.0,9.0,,,,,,,,,,,,,blau,yellow,g,0.0,g,1.0,0.544854799984023,,,,,,,,,,9.0,8.0,116.0,7.0,387.7047919000033,,,,,,,,,,,,,,,,,387.6901369000552,388.5028344000457,389.3134947000072,389.2878421000205,,,,,,,,,,,,,,,,,,,,,,,,,,,,,,,,,,389.2968131999951,389.3134947000072,389.3134947000072,389.87608960003126,g,1.0,0.544854799984023,,,,,sub-159,1,stroop_test,,
,,,,117.0,9.0,9.0,,,,,,,,,,,,,gelb,yellow,g,1.0,g,1.0,0.4831564000342041,,,,,,,,,,9.0,9.0,117.0,11.0,389.9033515000483,,,,,,,,,,,,,,,,,389.8771596000297,390.2377165000653,391.0523122000741,391.02258790005,,,,,,,,,,,,,,,,,,,,,,,,,,,,,,,,,,391.0345463000704,391.0523122000741,391.0523122000741,391.54204369999934,g,1.0,0.4831564000342041,,,,,sub-159,1,stroop_test,,
,,,,118.0,10.0,9.0,,,,,,,,,,,,,blau,blue,b,1.0,b,1.0,0.5620965999551117,,,,,,,,,,9.0,10.0,118.0,6.0,391.5699968000408,,,,,,,,,,,,,,,,,391.5430630000774,391.6528583000181,392.4669926000061,392.43977669999,,,,,,,,,,,,,,,,,,,,,,,,,,,,,,,,,,392.4501065000659,392.4669926000061,392.4669926000061,393.0392863000743,b,1.0,0.5620965999551117,,,,,sub-159,1,stroop_test,,
,,,,119.0,11.0,9.0,,,,,,,,,,,,,blau,red,r,0.0,r,1.0,0.3897966000949964,,,,,,,,,,9.0,11.0,119.0,4.0,393.054793599993,,,,,,,,,,,,,,,,,393.0402306000469,394.2542213000124,395.0731910000322,395.0549405000638,,,,,,,,,,,,,,,,,,,,,,,,,,,,,,,,,,395.0562060000375,395.0731910000322,395.0731910000322,395.4724860000424,r,1.0,0.3897966000949964,,,,,sub-159,1,stroop_test,,
,,,,,,,,,,,,,,,,,,,,,,,,,,,,,,,,,,,,,,,,,,,,,,,,,,,,,,,,,,,,,,,,,,,,,,,,,,,,,,,,,,,,,,,,,,,,,,,,,,,,,395.4729297000449,395.4918136000633,400.489877999993,sub-159,1,stroop_test,,
