wordCTK,colorCTK,corrAnsCTK,congruentCTK,thisN,thisTrialN,thisRepN,keyResp_CTK.keys,keyResp_CTK.corr,keyResp_CTK.rt,keyResp_CTK.duration,wordPractice,colorPractice,corrAnsPractice,congruentPractice,respPractice.keys,respPractice.corr,respPractice.rt,respPractice.duration,word,color,corrAns,congruent,keyResp_test_run.keys,keyResp_test_run.corr,keyResp_test_run.rt,keyResp_test_run.duration,trials_CTK.thisRepN,trials_CTK.thisTrialN,trials_CTK.thisN,trials_CTK.thisIndex,trials_practice.thisRepN,trials_practice.thisTrialN,trials_practice.thisN,trials_practice.thisIndex,trials_test.thisRepN,trials_test.thisTrialN,trials_test.thisN,trials_test.thisIndex,thisRow.t,notes,instruction.started,instr_text.started,instr_image.started,instr_resp.started,instruction.stopped,instr_resp.keys,instr_resp.rt,instr_resp.duration,instr_color_to_key.started,instr_ctk.started,resp_ctk.started,instr_color_to_key.stopped,resp_ctk.keys,resp_ctk.rt,resp_ctk.duration,ITI.started,fixcross.started,fixcross.stopped,ITI.stopped,color_to_key_run.started,stimulus_CTK.started,keyResp_CTK.started,color_to_key_run.stopped,trials_CTK.keyResp_CTK.keys,trials_CTK.keyResp_CTK.corr,trials_CTK.keyResp_CTK.rt,trials_CTK.keyResp_CTK.duration,instr_practice.started,instr_practice_text.started,instr_practice_resp.started,instr_practice.stopped,instr_practice_resp.keys,instr_practice_resp.rt,instr_practice_resp.duration,practice_run.started,stimulus_practice.started,respPractice.started,practice_run.stopped,trials_practice.respPractice.keys,trials_practice.respPractice.corr,trials_practice.respPractice.rt,trials_practice.respPractice.duration,feedback.started,textFeedback.started,textFeedback.stopped,feedback.stopped,instr_test.started,instr_test_text.started,instr_test_resp.started,instr_test.stopped,instr_test_resp.keys,instr_test_resp.rt,instr_test_resp.duration,test_run.started,stimulus_test_run.started,keyResp_test_run.started,test_run.stopped,trials_test.keyResp_test_run.keys,trials_test.keyResp_test_run.corr,trials_test.keyResp_test_run.rt,trials_test.keyResp_test_run.duration,goodbye.started,textGoodbye.started,textGoodbye.stopped,goodbye.stopped,participant,session,expName,frameRate,Unnamed: 113
,,,,,,,,,,,,,,,,,,,,,,,,,,,,,,,,,,,,,,,,,0.0190304999996442,0.1028433000028599,0.1028433000028599,0.1028433000028599,22.63939900000696,space,22.48265170000377,,,,,,,,,,,,,,,,,,,,,,,,,,,,,,,,,,,,,,,,,,,,,,,,,,,,,,,,,,,sub-096,1,stroop_test,59.95678314271117,
,,,,,,,,,,,,,,,,,,,,,,,,,,,,,,,,,,,,,,,,,,,,,,,,,22.639476599986665,22.65164609998465,22.65164609998465,26.53654010000173,space,3.867400500021176,,,,,,,,,,,,,,,,,,,,,,,,,,,,,,,,,,,,,,,,,,,,,,,,,,,,sub-096,1,stroop_test,59.95678314271117,
test,red,r,1.0,0.0,0.0,0.0,r,1.0,1.2621015000040643,,,,,,,,,,,,,,,,,,0.0,0.0,0.0,0.0,,,,,,,,,26.584986200003183,,,,,,,,,,,,,,,,,26.57406769998488,27.73501489998307,28.53456749999896,28.520322399999717,28.52739840000868,28.53456749999896,28.53456749999896,29.802669600001536,r,1.0,1.2621015000040643,,,,,,,,,,,,,,,,,,,,,,,,,,,,,,,,,,,,,,,,sub-096,1,stroop_test,59.95678314271117,
test,blue,b,1.0,1.0,1.0,0.0,b,1.0,0.8722172999987379,,,,,,,,,,,,,,,,,,0.0,1.0,1.0,2.0,,,,,,,,,29.818096000002697,,,,,,,,,,,,,,,,,29.80296549998457,30.167917399987346,30.967955600004643,30.95246249999036,30.95291150000412,30.967955600004643,30.967955600004643,31.853035000007367,b,1.0,0.8722172999987379,,,,,,,,,,,,,,,,,,,,,,,,,,,,,,,,,,,,,,,,sub-096,1,stroop_test,59.95678314271117,
test,yellow,g,1.0,2.0,2.0,0.0,g,1.0,0.9648999999917578,,,,,,,,,,,,,,,,,,0.0,2.0,2.0,1.0,,,,,,,,,31.86766849999549,,,,,,,,,,,,,,,,,31.85332449999987,33.05159749998711,33.85204719999456,33.835455299995374,33.835875599994324,33.85204719999456,33.85204719999456,34.81931029999396,g,1.0,0.9648999999917578,,,,,,,,,,,,,,,,,,,,,,,,,,,,,,,,,,,,,,,,sub-096,1,stroop_test,59.95678314271117,
test,yellow,g,1.0,3.0,0.0,1.0,g,1.0,0.6771791999926791,,,,,,,,,,,,,,,,,,1.0,0.0,3.0,1.0,,,,,,,,,34.834814100002404,,,,,,,,,,,,,,,,,34.81957059999695,34.918365799996536,35.718050600000424,35.702620500000194,35.70306709999568,35.718050600000424,35.718050600000424,36.40227920000325,g,1.0,0.6771791999926791,,,,,,,,,,,,,,,,,,,,,,,,,,,,,,,,,,,,,,,,sub-096,1,stroop_test,59.95678314271117,
test,blue,b,1.0,4.0,1.0,1.0,b,1.0,0.9350895000097807,,,,,,,,,,,,,,,,,,1.0,1.0,4.0,2.0,,,,,,,,,36.41780029999791,,,,,,,,,,,,,,,,,36.40253749999101,36.518085499992594,37.3175316999841,37.3017405999999,37.30214529999648,37.3175316999841,37.3175316999841,38.268920700007584,b,1.0,0.9350895000097807,,,,,,,,,,,,,,,,,,,,,,,,,,,,,,,,,,,,,,,,sub-096,1,stroop_test,59.95678314271117,
test,red,r,1.0,5.0,2.0,1.0,r,1.0,0.5708242000255268,,,,,,,,,,,,,,,,,,1.0,2.0,5.0,0.0,,,,,,,,,38.28440299999784,,,,,,,,,,,,,,,,,38.26923420000821,38.61775400000624,39.41829179998604,39.40230059999158,39.40282429999206,39.41829179998604,39.41829179998604,40.00186990000657,r,1.0,0.5708242000255268,,,,,,,,,,,,,,,,,,,,,,,,,,,,,,,,,,,,,,,,sub-096,1,stroop_test,59.95678314271117,
test,blue,b,1.0,6.0,0.0,2.0,b,1.0,0.8364933999837376,,,,,,,,,,,,,,,,,,2.0,0.0,6.0,2.0,,,,,,,,,40.01741800000309,,,,,,,,,,,,,,,,,40.002200499991886,41.201072900003055,42.001094599982025,41.98445019999053,41.98488489998272,42.001094599982025,42.001094599982025,42.85156720000669,b,1.0,0.8364933999837376,,,,,,,,,,,,,,,,,,,,,,,,,,,,,,,,,,,,,,,,sub-096,1,stroop_test,59.95678314271117,
test,red,r,1.0,7.0,1.0,2.0,r,1.0,0.9221014000067952,,,,,,,,,,,,,,,,,,2.0,1.0,7.0,0.0,,,,,,,,,42.86763429999701,,,,,,,,,,,,,,,,,42.85181399999419,43.65096339999582,44.45079470000928,44.43501419998938,44.43564650000189,44.45079470000928,44.45079470000928,45.3863180000044,r,1.0,0.9221014000067952,,,,,,,,,,,,,,,,,,,,,,,,,,,,,,,,,,,,,,,,sub-096,1,stroop_test,59.95678314271117,
test,yellow,g,1.0,8.0,2.0,2.0,g,1.0,0.6211985000118148,,,,,,,,,,,,,,,,,,2.0,2.0,8.0,1.0,,,,,,,,,45.40111159998924,,,,,,,,,,,,,,,,,45.3865797999897,46.60055619999184,47.400865300005535,47.38447580000502,47.384867599990685,47.400865300005535,47.400865300005535,48.034880199993495,g,1.0,0.6211985000118148,,,,,,,,,,,,,,,,,,,,,,,,,,,,,,,,,,,,,,,,sub-096,1,stroop_test,59.95678314271117,
test,blue,b,1.0,9.0,0.0,3.0,b,1.0,0.7338923000206705,,,,,,,,,,,,,,,,,,3.0,0.0,9.0,2.0,,,,,,,,,48.05057629998191,,,,,,,,,,,,,,,,,48.03518549998989,48.1506521999836,48.95095239998773,48.9345781999873,48.93501300000935,48.95095239998773,48.95095239998773,49.70158689998789,b,1.0,0.7338923000206705,,,,,,,,,,,,,,,,,,,,,,,,,,,,,,,,,,,,,,,,sub-096,1,stroop_test,59.95678314271117,
test,red,r,1.0,10.0,1.0,3.0,r,1.0,0.994336400006432,,,,,,,,,,,,,,,,,,3.0,1.0,10.0,0.0,,,,,,,,,49.7171859999944,,,,,,,,,,,,,,,,,49.70182109999587,50.05076529999496,50.85080939999898,50.83467829998699,50.83508449999499,50.85080939999898,50.85080939999898,51.85169809998479,r,1.0,0.994336400006432,,,,,,,,,,,,,,,,,,,,,,,,,,,,,,,,,,,,,,,,sub-096,1,stroop_test,59.95678314271117,
test,yellow,g,1.0,11.0,2.0,3.0,g,1.0,0.3131389999762177,,,,,,,,,,,,,,,,,,3.0,2.0,11.0,1.0,,,,,,,,,51.867348700005095,,,,,,,,,,,,,,,,,51.85203330000513,53.06724440000835,53.86737910000375,53.85129739998956,53.85171389998868,53.86737910000375,53.86737910000375,54.18513629998779,g,1.0,0.3131389999762177,,,,,,,,,,,,,,,,,,,,,,,,,,,,,,,,,,,,,,,,sub-096,1,stroop_test,59.95678314271117,
,,,,,,,,,,,,,,,,,,,,,,,,,,,,,,,,,,,,,,,,,,,,,,,,,,,,,,,,,,,,,,,,,,,,54.18526440000278,54.20067039999413,54.20067039999413,58.16841819998808,space,3.965536799980328,,,,,,,,,,,,,,,,,,,,,,,,,,,,,,,,,sub-096,1,stroop_test,59.95678314271117,
,,,,0.0,0.0,0.0,,,,,blau,yellow,g,0.0,g,1.0,1.082614700018894,,,,,,,,,,,,,,0.0,0.0,0.0,7.0,,,,,58.200540099991485,,,,,,,,,,,,,,,,,58.19002059998456,58.98424679998425,59.78361369998311,59.76755699998466,,,,,,,,,,,,,,,,59.77497599998605,59.78361369998311,59.78361369998311,60.86782779998612,g,1.0,1.082614700018894,,60.87715709998156,60.88412740000058,61.88374499999918,61.86743569999817,,,,,,,,,,,,,,,,,,,,sub-096,1,stroop_test,59.95678314271117,
,,,,1.0,1.0,0.0,,,,,gelb,yellow,g,1.0,g,1.0,0.7312198999861721,,,,,,,,,,,,,,0.0,1.0,1.0,11.0,,,,,61.88374499999918,,,,,,,,,,,,,,,,,61.86769909999566,62.21689119999064,63.01689800000168,63.001050099992426,,,,,,,,,,,,,,,,63.0035610999912,63.01689800000168,63.01689800000168,63.750938199984375,g,1.0,0.7312198999861721,,63.75134620000608,63.7670616999967,64.76746020000428,64.75124169999617,,,,,,,,,,,,,,,,,,,,sub-096,1,stroop_test,59.95678314271117,
,,,,2.0,2.0,0.0,,,,,blau,blue,b,1.0,b,1.0,1.0030652999994345,,,,,,,,,,,,,,0.0,2.0,2.0,5.0,,,,,64.76746020000428,,,,,,,,,,,,,,,,,64.75152140000137,65.9511278999853,66.75064409998595,66.73532059998251,,,,,,,,,,,,,,,,66.73761829998693,66.75064409998595,66.75064409998595,67.76824000000488,b,1.0,1.0030652999994345,,67.76866509998217,67.78439660000731,68.78360920000705,68.76730169999064,,,,,,,,,,,,,,,,,,,,sub-096,1,stroop_test,59.95678314271117,
,,,,3.0,3.0,0.0,,,,,gelb,yellow,g,1.0,g,1.0,0.8426744999887887,,,,,,,,,,,,,,0.0,3.0,3.0,10.0,,,,,68.78360920000705,,,,,,,,,,,,,,,,,68.76753899999312,69.58364359999541,70.38358259998495,70.3671108999988,,,,,,,,,,,,,,,,70.369426499994,70.38358259998495,70.38358259998495,71.2343724000093,g,1.0,0.8426744999887887,,71.23496440000599,71.25031750000198,72.25018070000806,72.23424190000514,,,,,,,,,,,,,,,,,,,,sub-096,1,stroop_test,59.95678314271117,
,,,,4.0,4.0,0.0,,,,,blau,red,r,0.0,r,1.0,0.8159715000074357,,,,,,,,,,,,,,0.0,4.0,4.0,4.0,,,,,72.25018070000806,,,,,,,,,,,,,,,,,72.23459959999309,72.33369450000464,73.13353689998621,73.11705080000684,,,,,,,,,,,,,,,,73.11928899999475,73.13353689998621,73.13353689998621,73.9512279999908,r,1.0,0.8159715000074357,,73.95163440000033,73.96673909999663,74.96678499999689,74.95079770000302,,,,,,,,,,,,,,,,,,,,sub-096,1,stroop_test,59.95678314271117,
,,,,5.0,5.0,0.0,,,,,blau,blue,b,1.0,b,1.0,0.7034799999964889,,,,,,,,,,,,,,0.0,5.0,5.0,6.0,,,,,74.96678499999689,,,,,,,,,,,,,,,,,74.95109419999062,75.06655869999668,75.8665318999847,75.85069079999812,,,,,,,,,,,,,,,,75.85114329998032,75.8665318999847,75.8665318999847,76.5842255000025,b,1.0,0.7034799999964889,,76.58462839998538,76.6006905999966,77.60011759999907,77.58409029999166,,,,,,,,,,,,,,,,,,,,sub-096,1,stroop_test,59.95678314271117,
,,,,6.0,6.0,0.0,,,,,gelb,red,r,0.0,r,1.0,0.9281111000163946,,,,,,,,,,,,,,0.0,6.0,6.0,8.0,,,,,77.60011759999907,,,,,,,,,,,,,,,,,77.58436499998788,78.78331769999932,79.58310139999958,79.5672188999888,,,,,,,,,,,,,,,,79.5699037000013,79.58310139999958,79.58310139999958,80.51765669998713,r,1.0,0.9281111000163946,,80.51804830000037,80.53331450000405,81.53313440000056,81.51746559998719,,,,,,,,,,,,,,,,,,,,sub-096,1,stroop_test,59.95678314271117,
,,,,7.0,7.0,0.0,,,,,rot,red,r,1.0,r,1.0,0.6846732000121847,,,,,,,,,,,,,,0.0,7.0,7.0,1.0,,,,,81.53313440000056,,,,,,,,,,,,,,,,,81.51795239999774,81.63335540000116,82.43347719998565,82.41695650000474,,,,,,,,,,,,,,,,82.42106709998916,82.43347719998565,82.43347719998565,83.13424189999932,r,1.0,0.6846732000121847,,83.13463270000648,83.14995530000306,84.14988730000914,84.13378370000282,,,,,,,,,,,,,,,,,,,,sub-096,1,stroop_test,59.95678314271117,
,,,,8.0,8.0,0.0,,,,,rot,blue,b,0.0,b,1.0,0.9123090999783016,,,,,,,,,,,,,,0.0,8.0,8.0,2.0,,,,,84.14988730000914,,,,,,,,,,,,,,,,,84.13418490000186,84.94986880000215,85.74984730000142,85.7335889999813,,,,,,,,,,,,,,,,85.733948100009,85.74984730000142,85.74984730000142,86.6678949999914,b,1.0,0.9123090999783016,,86.66853180000908,86.68327479998698,87.68298230000073,87.66749409999466,,,,,,,,,,,,,,,,,,,,sub-096,1,stroop_test,59.95678314271117,
,,,,9.0,9.0,0.0,,,,,rot,red,r,1.0,r,1.0,0.8958970000094268,,,,,,,,,,,,,,0.0,9.0,9.0,0.0,,,,,87.68298230000073,,,,,,,,,,,,,,,,,87.66777480000746,88.88286129999324,89.68301829998381,89.66701139998622,,,,,,,,,,,,,,,,89.66737409998314,89.68301829998381,89.68301829998381,90.58443899999838,r,1.0,0.8958970000094268,,90.58485159999692,90.60039519998828,91.5995602000039,91.58368229999904,,,,,,,,,,,,,,,,,,,,sub-096,1,stroop_test,59.95678314271117,
,,,,10.0,10.0,0.0,,,,,gelb,blue,b,0.0,b,1.0,1.3047701000177767,,,,,,,,,,,,,,0.0,10.0,10.0,9.0,,,,,91.5995602000039,,,,,,,,,,,,,,,,,91.58391339998344,91.93398430000524,92.75035709998338,92.73360909998884,,,,,,,,,,,,,,,,92.73587489998316,92.75035709998338,92.75035709998338,94.0680924000044,b,1.0,1.3047701000177767,,94.06859280000208,94.08301289999508,95.08275589998811,95.06668580000404,,,,,,,,,,,,,,,,,,,,sub-096,1,stroop_test,59.95678314271117,
,,,,11.0,11.0,0.0,,,,,rot,yellow,g,0.0,g,1.0,1.8878445999871476,,,,,,,,,,,,,,0.0,11.0,11.0,3.0,,,,,95.08275589998811,,,,,,,,,,,,,,,,,95.06695959999342,95.88302109998769,96.68295859999488,96.66713650000747,,,,,,,,,,,,,,,,96.66976550000254,96.68295859999488,96.68295859999488,98.58416440000292,g,1.0,1.8878445999871476,,98.58457800000906,98.59998209998594,99.59997229999864,99.58358089998364,,,,,,,,,,,,,,,,,,,,sub-096,1,stroop_test,59.95678314271117,
,,,,12.0,0.0,1.0,,,,,gelb,yellow,g,1.0,g,1.0,0.7618967999878805,,,,,,,,,,,,,,1.0,0.0,12.0,11.0,,,,,99.59997229999864,,,,,,,,,,,,,,,,,99.58386719998089,99.9500141000026,100.74956840000232,100.73378209999646,,,,,,,,,,,,,,,,100.73651149999932,100.74956840000232,100.74956840000232,101.5167545999866,g,1.0,0.7618967999878805,,101.51717199999256,101.53309330000776,102.53302709999844,102.51701809998484,,,,,,,,,,,,,,,,,,,,sub-096,1,stroop_test,59.95678314271117,
,,,,13.0,1.0,1.0,,,,,blau,yellow,g,0.0,g,1.0,1.1028706000070088,,,,,,,,,,,,,,1.0,1.0,13.0,7.0,,,,,102.53302709999844,,,,,,,,,,,,,,,,,102.51728080000612,102.86625369999092,103.66631070000584,103.65014549999614,,,,,,,,,,,,,,,,103.65238809998846,103.66631070000584,103.66631070000584,104.78385059998254,g,1.0,1.1028706000070088,,104.78426529999706,104.800015899993,105.7996839999978,105.7836546000035,,,,,,,,,,,,,,,,,,,,sub-096,1,stroop_test,59.95678314271117,
,,,,14.0,2.0,1.0,,,,,gelb,red,r,0.0,r,1.0,0.8668698000255972,,,,,,,,,,,,,,1.0,2.0,14.0,8.0,,,,,105.7996839999978,,,,,,,,,,,,,,,,,105.7839474999928,105.88338240000304,106.68283330000122,106.6681496000092,,,,,,,,,,,,,,,,106.67061719999764,106.68283330000122,106.68283330000122,107.55114029999822,r,1.0,0.8668698000255972,,107.55154240000412,107.56668610000634,108.56648770000902,108.55033599998568,,,,,,,,,,,,,,,,,,,,sub-096,1,stroop_test,59.95678314271117,
,,,,15.0,3.0,1.0,,,,,blau,red,r,0.0,r,1.0,0.931674599996768,,,,,,,,,,,,,,1.0,3.0,15.0,4.0,,,,,108.56648770000902,,,,,,,,,,,,,,,,,108.55066439998336,108.89965750000556,109.69966379998368,109.68389389998627,,,,,,,,,,,,,,,,109.68605749998824,109.69966379998368,109.69966379998368,110.6339086999942,r,1.0,0.931674599996768,,110.63434019999112,110.64938349998556,111.6493860000046,111.63367139999173,,,,,,,,,,,,,,,,,,,,sub-096,1,stroop_test,59.95678314271117,
,,,,16.0,4.0,1.0,,,,,rot,blue,b,0.0,b,1.0,0.7492419999907725,,,,,,,,,,,,,,1.0,4.0,16.0,2.0,,,,,111.6493860000046,,,,,,,,,,,,,,,,,111.63393209999776,111.98309540000628,112.78239039998152,112.76611880000564,,,,,,,,,,,,,,,,112.76847479998833,112.78239039998152,112.78239039998152,113.53372819998184,b,1.0,0.7492419999907725,,113.53417519998038,113.54918159998488,114.54915549998988,114.53312519998872,,,,,,,,,,,,,,,,,,,,sub-096,1,stroop_test,59.95678314271117,
,,,,17.0,5.0,1.0,,,,,blau,blue,b,1.0,b,1.0,1.3143960000015795,,,,,,,,,,,,,,1.0,5.0,17.0,6.0,,,,,114.54915549998988,,,,,,,,,,,,,,,,,114.53337990000728,115.74888369999826,116.54889959999127,116.53267179999966,,,,,,,,,,,,,,,,116.53598240000429,116.54889959999127,116.54889959999127,117.86632420000387,b,1.0,1.3143960000015795,,117.86674409999978,117.88219010000466,118.8824414999981,118.86629609999363,,,,,,,,,,,,,,,,,,,,sub-096,1,stroop_test,59.95678314271117,
,,,,18.0,6.0,1.0,,,,,blau,blue,b,1.0,b,1.0,0.6687865999992937,,,,,,,,,,,,,,1.0,6.0,18.0,5.0,,,,,118.8824414999981,,,,,,,,,,,,,,,,,118.86659669998336,119.21556759998202,120.01545420000912,119.99943379999604,,,,,,,,,,,,,,,,119.99985490000108,120.01545420000912,120.01545420000912,120.70063179999124,b,1.0,0.6687865999992937,,120.70104489999358,120.71568419999676,121.71586430000023,121.69952309998916,,,,,,,,,,,,,,,,,,,,sub-096,1,stroop_test,59.95678314271117,
,,,,19.0,7.0,1.0,,,,,gelb,blue,b,0.0,b,1.0,1.1534702999924775,,,,,,,,,,,,,,1.0,7.0,19.0,9.0,,,,,121.71586430000023,,,,,,,,,,,,,,,,,121.69980780000331,121.81550969998352,122.6160614999826,122.59962520000408,,,,,,,,,,,,,,,,122.60202739998932,122.6160614999826,122.6160614999826,123.7835373999842,b,1.0,1.1534702999924775,,123.78392319998238,123.79874070000368,124.79863499998464,124.78282309998758,,,,,,,,,,,,,,,,,,,,sub-096,1,stroop_test,59.95678314271117,
,,,,20.0,8.0,1.0,,,,,rot,yellow,g,0.0,g,1.0,0.964918999990914,,,,,,,,,,,,,,1.0,8.0,20.0,3.0,,,,,124.79863499998464,,,,,,,,,,,,,,,,,124.78308090000064,125.14880749999428,125.94893409998622,125.93243069999151,,,,,,,,,,,,,,,,125.93476699999884,125.94893409998622,125.94893409998622,126.9161993000016,g,1.0,0.964918999990914,,126.9166036999959,126.93218760000308,127.93202320000272,127.91626860000542,,,,,,,,,,,,,,,,,,,,sub-096,1,stroop_test,59.95678314271117,
,,,,21.0,9.0,1.0,,,,,rot,red,r,1.0,r,1.0,0.9954870000074152,,,,,,,,,,,,,,1.0,9.0,21.0,0.0,,,,,127.93202320000272,,,,,,,,,,,,,,,,,127.91656389998388,129.1154700999905,129.91543339999043,129.89925809999113,,,,,,,,,,,,,,,,129.89972409998882,129.91543339999043,129.91543339999043,130.91656340000918,r,1.0,0.9954870000074152,,130.9169785999984,130.93192309999722,131.93206069999724,131.91558810000424,,,,,,,,,,,,,,,,,,,,sub-096,1,stroop_test,59.95678314271117,
,,,,22.0,10.0,1.0,,,,,gelb,yellow,g,1.0,g,1.0,0.6669088000198826,,,,,,,,,,,,,,1.0,10.0,22.0,10.0,,,,,131.93206069999724,,,,,,,,,,,,,,,,,131.9158189999871,132.73218510000152,133.53196860000023,133.51592599999276,,,,,,,,,,,,,,,,133.51840639999136,133.53196860000023,133.53196860000023,134.20067879999988,g,1.0,0.6669088000198826,,134.2011790999968,134.21541380000417,135.21537950000493,135.19895649998216,,,,,,,,,,,,,,,,,,,,sub-096,1,stroop_test,59.95678314271117,
,,,,23.0,11.0,1.0,,,,,rot,red,r,1.0,r,1.0,0.7826098999939859,,,,,,,,,,,,,,1.0,11.0,23.0,1.0,,,,,135.21537950000493,,,,,,,,,,,,,,,,,135.19919590000063,136.01527299999725,136.81515049998416,136.7994076999894,,,,,,,,,,,,,,,,136.80226490000496,136.81515049998416,136.81515049998416,137.5995203999919,r,1.0,0.7826098999939859,,137.5999071999977,137.61536179998075,138.61510379999527,138.59929799998645,,,,,,,,,,,,,,,,,,,,sub-096,1,stroop_test,59.95678314271117,
,,,,,,,,,,,,,,,,,,,,,,,,,,,,,,,,,,,,,,,,,,,,,,,,,,,,,,,,,,,,,,,,,,,,,,,,,,,,,,,,,,,,,,,138.59942519999458,138.61510379999527,138.61510379999527,146.40000960000907,space,7.774454500002321,,,,,,,,,,,,,,sub-096,1,stroop_test,59.95678314271117,
,,,,0.0,0.0,0.0,,,,,,,,,,,,,gelb,red,r,0.0,r,1.0,0.799205500021344,,,,,,,,,,0.0,0.0,0.0,8.0,146.43427709999378,,,,,,,,,,,,,,,,,146.42741810000734,146.75239730000612,147.55305280000903,147.53679589999956,,,,,,,,,,,,,,,,,,,,,,,,,,,,,,,,,,,147.5391449999879,147.55305280000903,147.55305280000903,148.35419129999354,r,1.0,0.799205500021344,,,,,,sub-096,1,stroop_test,59.95678314271117,
,,,,1.0,1.0,0.0,,,,,,,,,,,,,rot,yellow,g,0.0,g,1.0,0.750446699996246,,,,,,,,,,0.0,1.0,1.0,3.0,148.36962929999572,,,,,,,,,,,,,,,,,148.3544855999935,148.4691416999849,149.2694776999997,149.25409420000506,,,,,,,,,,,,,,,,,,,,,,,,,,,,,,,,,,,149.25645129999612,149.2694776999997,149.2694776999997,150.0212949999841,g,1.0,0.750446699996246,,,,,,sub-096,1,stroop_test,59.95678314271117,
,,,,2.0,2.0,0.0,,,,,,,,,,,,,gelb,yellow,g,1.0,g,1.0,0.6244956000009552,,,,,,,,,,0.0,2.0,2.0,10.0,150.03577180000138,,,,,,,,,,,,,,,,,150.02158979998785,150.836553000001,151.63606230000732,151.62096110000857,,,,,,,,,,,,,,,,,,,,,,,,,,,,,,,,,,,151.62363749998622,151.63606230000732,151.63606230000732,152.27175159999751,g,1.0,0.6244956000009552,,,,,,sub-096,1,stroop_test,59.95678314271117,
,,,,3.0,3.0,0.0,,,,,,,,,,,,,blau,blue,b,1.0,b,1.0,0.6395091000013053,,,,,,,,,,0.0,3.0,3.0,6.0,152.28651720000198,,,,,,,,,,,,,,,,,152.27203530000406,153.48585249998723,154.2865716999804,154.26931400000467,,,,,,,,,,,,,,,,,,,,,,,,,,,,,,,,,,,154.272289799992,154.2865716999804,154.2865716999804,154.93840099999215,b,1.0,0.6395091000013053,,,,,,sub-096,1,stroop_test,59.95678314271117,
,,,,4.0,4.0,0.0,,,,,,,,,,,,,blau,red,r,0.0,r,1.0,0.6679077000007965,,,,,,,,,,0.0,4.0,4.0,4.0,154.95217770000454,,,,,,,,,,,,,,,,,154.9387532999972,155.05210919998353,155.85288469999796,155.83752820000518,,,,,,,,,,,,,,,,,,,,,,,,,,,,,,,,,,,155.83794430000123,155.85288469999796,155.85288469999796,156.53688500000862,r,1.0,0.6679077000007965,,,,,,sub-096,1,stroop_test,59.95678314271117,
,,,,5.0,5.0,0.0,,,,,,,,,,,,,rot,red,r,1.0,r,1.0,0.5624648999946658,,,,,,,,,,0.0,5.0,5.0,1.0,156.5524194999889,,,,,,,,,,,,,,,,,156.53718899999512,157.75291979999747,158.55212459998438,158.53723159999936,,,,,,,,,,,,,,,,,,,,,,,,,,,,,,,,,,,158.53960819999338,158.55212459998438,158.55212459998438,159.11978569999337,r,1.0,0.5624648999946658,,,,,,sub-096,1,stroop_test,59.95678314271117,
,,,,6.0,6.0,0.0,,,,,,,,,,,,,rot,blue,b,0.0,b,1.0,0.9003322999924421,,,,,,,,,,0.0,6.0,6.0,2.0,159.1351733999909,,,,,,,,,,,,,,,,,159.12010080000618,159.21942459998536,160.01985479998984,160.0035809999972,,,,,,,,,,,,,,,,,,,,,,,,,,,,,,,,,,,160.00396889998228,160.01985479998984,160.01985479998984,160.9365889999899,b,1.0,0.9003322999924421,,,,,,sub-096,1,stroop_test,59.95678314271117,
,,,,7.0,7.0,0.0,,,,,,,,,,,,,gelb,blue,b,0.0,g,0.0,0.5839785000134725,,,,,,,,,,0.0,7.0,7.0,9.0,160.95209340000292,,,,,,,,,,,,,,,,,160.93694210000103,161.75195410000742,162.5525834999862,162.53594309999608,,,,,,,,,,,,,,,,,,,,,,,,,,,,,,,,,,,162.53839090000838,162.5525834999862,162.5525834999862,163.1533811999834,g,0.0,0.5839785000134725,,,,,,sub-096,1,stroop_test,59.95678314271117,
,,,,8.0,8.0,0.0,,,,,,,,,,,,,blau,blue,b,1.0,b,1.0,1.3924752000020817,,,,,,,,,,0.0,8.0,8.0,5.0,163.169453599985,,,,,,,,,,,,,,,,,163.1536766999925,163.25276689999737,164.0528603999992,164.03633649999392,,,,,,,,,,,,,,,,,,,,,,,,,,,,,,,,,,,164.03850709999097,164.0528603999992,164.0528603999992,165.4540436999814,b,1.0,1.3924752000020817,,,,,,sub-096,1,stroop_test,59.95678314271117,
,,,,9.0,9.0,0.0,,,,,,,,,,,,,blau,yellow,g,0.0,g,1.0,0.8202543000224978,,,,,,,,,,0.0,9.0,9.0,7.0,165.4688671999902,,,,,,,,,,,,,,,,,165.4543396999943,166.26915149998968,167.06948519998696,167.05359249998585,,,,,,,,,,,,,,,,,,,,,,,,,,,,,,,,,,,167.05398779999814,167.06948519998696,167.06948519998696,167.90346549998503,g,1.0,0.8202543000224978,,,,,,sub-096,1,stroop_test,59.95678314271117,
,,,,10.0,10.0,0.0,,,,,,,,,,,,,gelb,yellow,g,1.0,g,1.0,0.3923647000046912,,,,,,,,,,0.0,10.0,10.0,11.0,167.91903659998206,,,,,,,,,,,,,,,,,167.90380410000216,168.26848050000262,169.069099299988,169.05330159998266,,,,,,,,,,,,,,,,,,,,,,,,,,,,,,,,,,,169.05626489999122,169.069099299988,169.069099299988,169.47004739998374,g,1.0,0.3923647000046912,,,,,,sub-096,1,stroop_test,59.95678314271117,
,,,,11.0,11.0,0.0,,,,,,,,,,,,,rot,red,r,1.0,r,1.0,0.5499829000036698,,,,,,,,,,0.0,11.0,11.0,0.0,169.48530729999766,,,,,,,,,,,,,,,,,169.4703548999969,169.83563149999827,170.63614729998517,170.61884019998251,,,,,,,,,,,,,,,,,,,,,,,,,,,,,,,,,,,170.62132439998095,170.63614729998517,170.63614729998517,171.20241779999924,r,1.0,0.5499829000036698,,,,,,sub-096,1,stroop_test,59.95678314271117,
,,,,12.0,0.0,1.0,,,,,,,,,,,,,gelb,red,r,0.0,r,1.0,0.5853370999975596,,,,,,,,,,1.0,0.0,12.0,8.0,171.21876210000482,,,,,,,,,,,,,,,,,171.202684399992,172.00259049999295,172.80158649999066,172.78559310000855,,,,,,,,,,,,,,,,,,,,,,,,,,,,,,,,,,,172.78794129999005,172.80158649999066,172.80158649999066,173.4033043999807,r,1.0,0.5853370999975596,,,,,,sub-096,1,stroop_test,59.95678314271117,
,,,,13.0,1.0,1.0,,,,,,,,,,,,,gelb,yellow,g,1.0,g,1.0,0.7595486000063829,,,,,,,,,,1.0,1.0,13.0,10.0,173.41814799999702,,,,,,,,,,,,,,,,,173.40358889999334,173.50162389999605,174.3019827999815,174.28666519999388,,,,,,,,,,,,,,,,,,,,,,,,,,,,,,,,,,,174.28705519999494,174.3019827999815,174.3019827999815,175.07022069999948,g,1.0,0.7595486000063829,,,,,,sub-096,1,stroop_test,59.95678314271117,
,,,,14.0,2.0,1.0,,,,,,,,,,,,,rot,red,r,1.0,r,1.0,1.1731778999965172,,,,,,,,,,1.0,2.0,14.0,1.0,175.0857943999872,,,,,,,,,,,,,,,,,175.0705745999876,175.88585339998826,176.68591159998323,176.66981639998266,,,,,,,,,,,,,,,,,,,,,,,,,,,,,,,,,,,176.67217659999733,176.68591159998323,176.68591159998323,177.86958699999377,r,1.0,1.1731778999965172,,,,,,sub-096,1,stroop_test,59.95678314271117,
,,,,15.0,3.0,1.0,,,,,,,,,,,,,blau,yellow,g,0.0,g,1.0,0.7589703999983612,,,,,,,,,,1.0,3.0,15.0,7.0,177.88512779999292,,,,,,,,,,,,,,,,,177.86992140000802,178.66855289999512,179.4686087000009,179.45201360000647,,,,,,,,,,,,,,,,,,,,,,,,,,,,,,,,,,,179.45442940000794,179.4686087000009,179.4686087000009,180.2366739999852,g,1.0,0.7589703999983612,,,,,,sub-096,1,stroop_test,59.95678314271117,
,,,,16.0,4.0,1.0,,,,,,,,,,,,,gelb,blue,b,0.0,b,1.0,0.9284650000045076,,,,,,,,,,1.0,4.0,16.0,9.0,180.25149299998884,,,,,,,,,,,,,,,,,180.2369963999954,180.35228389999247,181.1522172999976,181.136270899995,,,,,,,,,,,,,,,,,,,,,,,,,,,,,,,,,,,181.1393615999841,181.1522172999976,181.1522172999976,182.0867822,b,1.0,0.9284650000045076,,,,,,sub-096,1,stroop_test,59.95678314271117,
,,,,17.0,5.0,1.0,,,,,,,,,,,,,gelb,yellow,g,1.0,g,1.0,0.9660573000146542,,,,,,,,,,1.0,5.0,17.0,11.0,182.1013605000044,,,,,,,,,,,,,,,,,182.0871105999977,183.30205840000417,184.10211609999533,184.0868530999869,,,,,,,,,,,,,,,,,,,,,,,,,,,,,,,,,,,184.0872862999968,184.10211609999533,184.10211609999533,185.06994349998425,g,1.0,0.9660573000146542,,,,,,sub-096,1,stroop_test,59.95678314271117,
,,,,18.0,6.0,1.0,,,,,,,,,,,,,rot,blue,b,0.0,b,1.0,0.6526452999969479,,,,,,,,,,1.0,6.0,18.0,2.0,185.08507549998467,,,,,,,,,,,,,,,,,185.07023300000583,185.4354884999921,186.23549880000064,186.21909699999375,,,,,,,,,,,,,,,,,,,,,,,,,,,,,,,,,,,186.22147819999373,186.23549880000064,186.23549880000064,186.90300419999403,b,1.0,0.6526452999969479,,,,,,sub-096,1,stroop_test,59.95678314271117,
,,,,19.0,7.0,1.0,,,,,,,,,,,,,rot,red,r,1.0,r,1.0,1.0105139999941457,,,,,,,,,,1.0,7.0,19.0,0.0,186.9185928000079,,,,,,,,,,,,,,,,,186.90330459998225,187.7019524000061,188.5023116999946,188.48613959999057,,,,,,,,,,,,,,,,,,,,,,,,,,,,,,,,,,,188.4865307,188.5023116999946,188.5023116999946,189.51917089999188,r,1.0,1.0105139999941457,,,,,,sub-096,1,stroop_test,59.95678314271117,
,,,,20.0,8.0,1.0,,,,,,,,,,,,,blau,red,r,0.0,r,1.0,0.5756876000086777,,,,,,,,,,1.0,8.0,20.0,4.0,189.53431960000307,,,,,,,,,,,,,,,,,189.51952199998777,189.6184519999952,190.41847810000763,190.40254310000452,,,,,,,,,,,,,,,,,,,,,,,,,,,,,,,,,,,190.40476969999145,190.41847810000763,190.41847810000763,191.00205949999508,r,1.0,0.5756876000086777,,,,,,sub-096,1,stroop_test,59.95678314271117,
,,,,21.0,9.0,1.0,,,,,,,,,,,,,blau,blue,b,1.0,b,1.0,0.6346967999998014,,,,,,,,,,1.0,9.0,21.0,6.0,191.01848430000248,,,,,,,,,,,,,,,,,191.00256279998572,191.10185310000088,191.90199789998587,191.8862656999845,,,,,,,,,,,,,,,,,,,,,,,,,,,,,,,,,,,191.8867266000016,191.90199789998587,191.90199789998587,192.55272700000205,b,1.0,0.6346967999998014,,,,,,sub-096,1,stroop_test,59.95678314271117,
,,,,22.0,10.0,1.0,,,,,,,,,,,,,blau,blue,b,1.0,b,1.0,0.5149878999800421,,,,,,,,,,1.0,10.0,22.0,5.0,192.568311799987,,,,,,,,,,,,,,,,,192.55303179999464,192.9017804999894,193.70229829999155,193.68586339999456,,,,,,,,,,,,,,,,,,,,,,,,,,,,,,,,,,,193.686320000008,193.70229829999155,193.70229829999155,194.2197067999805,b,1.0,0.5149878999800421,,,,,,sub-096,1,stroop_test,59.95678314271117,
,,,,23.0,11.0,1.0,,,,,,,,,,,,,rot,yellow,g,0.0,g,1.0,0.501625500008231,,,,,,,,,,1.0,11.0,23.0,3.0,194.2352106999897,,,,,,,,,,,,,,,,,194.21998960000928,194.5842927999911,195.38467880000823,195.3680223999836,,,,,,,,,,,,,,,,,,,,,,,,,,,,,,,,,,,195.37028149998517,195.38467880000823,195.38467880000823,195.9021354999859,g,1.0,0.501625500008231,,,,,,sub-096,1,stroop_test,59.95678314271117,
,,,,24.0,0.0,2.0,,,,,,,,,,,,,blau,yellow,g,0.0,g,1.0,0.5346142000053078,,,,,,,,,,2.0,0.0,24.0,7.0,195.9176279999956,,,,,,,,,,,,,,,,,195.9024128000019,196.0176805999945,196.8176240999892,196.8014933000086,,,,,,,,,,,,,,,,,,,,,,,,,,,,,,,,,,,196.8041966999881,196.8176240999892,196.8176240999892,197.3684646000038,g,1.0,0.5346142000053078,,,,,,sub-096,1,stroop_test,59.95678314271117,
,,,,25.0,1.0,2.0,,,,,,,,,,,,,gelb,red,r,0.0,r,1.0,0.7251069000049029,,,,,,,,,,2.0,1.0,25.0,8.0,197.3841667000088,,,,,,,,,,,,,,,,,197.3687998999958,198.16760689998048,198.96760609999183,198.95173139998224,,,,,,,,,,,,,,,,,,,,,,,,,,,,,,,,,,,198.95420509998803,198.96760609999183,198.96760609999183,199.7020535999909,r,1.0,0.7251069000049029,,,,,,sub-096,1,stroop_test,59.95678314271117,
,,,,26.0,2.0,2.0,,,,,,,,,,,,,gelb,yellow,g,1.0,g,1.0,0.491168500011554,,,,,,,,,,2.0,2.0,26.0,10.0,199.717880399985,,,,,,,,,,,,,,,,,199.7023524999968,200.5177837999945,201.3176193999825,201.3015315000084,,,,,,,,,,,,,,,,,,,,,,,,,,,,,,,,,,,201.3024063000048,201.3176193999825,201.3176193999825,201.81874260000768,g,1.0,0.491168500011554,,,,,,sub-096,1,stroop_test,59.95678314271117,
,,,,27.0,3.0,2.0,,,,,,,,,,,,,blau,blue,b,1.0,b,1.0,0.6692560000228696,,,,,,,,,,2.0,3.0,27.0,5.0,201.8339817999804,,,,,,,,,,,,,,,,,201.8190178000077,203.0342912999913,203.83418509998592,203.81783660000656,,,,,,,,,,,,,,,,,,,,,,,,,,,,,,,,,,,203.81993830000283,203.83418509998592,203.83418509998592,204.51880620000884,b,1.0,0.6692560000228696,,,,,,sub-096,1,stroop_test,59.95678314271117,
,,,,28.0,4.0,2.0,,,,,,,,,,,,,rot,yellow,g,0.0,r,0.0,0.7012709999980871,,,,,,,,,,2.0,4.0,28.0,3.0,204.5344778999861,,,,,,,,,,,,,,,,,204.5190947999945,204.6184060999949,205.41843099999824,205.40215039998293,,,,,,,,,,,,,,,,,,,,,,,,,,,,,,,,,,,205.4044707999856,205.41843099999824,205.41843099999824,206.1355068999983,r,0.0,0.7012709999980871,,,,,,sub-096,1,stroop_test,59.95678314271117,
,,,,29.0,5.0,2.0,,,,,,,,,,,,,rot,red,r,1.0,r,1.0,0.6533918000059202,,,,,,,,,,2.0,5.0,29.0,1.0,206.1510124999913,,,,,,,,,,,,,,,,,206.135800899996,206.25082240000484,207.0507576999953,207.03457449999405,,,,,,,,,,,,,,,,,,,,,,,,,,,,,,,,,,,207.0352031000075,207.0507576999953,207.0507576999953,207.71942340000533,r,1.0,0.6533918000059202,,,,,,sub-096,1,stroop_test,59.95678314271117,
,,,,30.0,6.0,2.0,,,,,,,,,,,,,rot,blue,b,0.0,b,1.0,0.7674006000161171,,,,,,,,,,2.0,6.0,30.0,2.0,207.7349154999829,,,,,,,,,,,,,,,,,207.7197699999961,208.0850325000065,208.88465910000377,208.86929599998984,,,,,,,,,,,,,,,,,,,,,,,,,,,,,,,,,,,208.8697423999838,208.88465910000377,208.88465910000377,209.65335789998065,b,1.0,0.7674006000161171,,,,,,sub-096,1,stroop_test,59.95678314271117,
,,,,31.0,7.0,2.0,,,,,,,,,,,,,blau,blue,b,1.0,b,1.0,0.6485594999976456,,,,,,,,,,2.0,7.0,31.0,6.0,209.66735329999935,,,,,,,,,,,,,,,,,209.6537091000064,210.0180107000051,210.81820380000863,210.80203950000575,,,,,,,,,,,,,,,,,,,,,,,,,,,,,,,,,,,210.8042397999961,210.81820380000863,210.81820380000863,211.46898969999165,b,1.0,0.6485594999976456,,,,,,sub-096,1,stroop_test,59.95678314271117,
,,,,32.0,8.0,2.0,,,,,,,,,,,,,gelb,yellow,g,1.0,g,1.0,0.5316711000050418,,,,,,,,,,2.0,8.0,32.0,11.0,211.4844672000036,,,,,,,,,,,,,,,,,211.46928990000745,212.66788289998655,213.46821719998843,213.45099549999577,,,,,,,,,,,,,,,,,,,,,,,,,,,,,,,,,,,213.45387359999583,213.46821719998843,213.46821719998843,214.0022076999885,g,1.0,0.5316711000050418,,,,,,sub-096,1,stroop_test,59.95678314271117,
,,,,33.0,9.0,2.0,,,,,,,,,,,,,rot,red,r,1.0,r,1.0,0.5848577999859117,,,,,,,,,,2.0,9.0,33.0,0.0,214.01770430000036,,,,,,,,,,,,,,,,,214.0025297999964,214.350729400001,215.1511438000016,215.13525160000427,,,,,,,,,,,,,,,,,,,,,,,,,,,,,,,,,,,215.13756959998864,215.1511438000016,215.1511438000016,215.75263489998176,r,1.0,0.5848577999859117,,,,,,sub-096,1,stroop_test,59.95678314271117,
,,,,34.0,10.0,2.0,,,,,,,,,,,,,blau,red,r,0.0,r,1.0,1.50555189998704,,,,,,,,,,2.0,10.0,34.0,4.0,215.76812079999945,,,,,,,,,,,,,,,,,215.7529561999836,216.9680842999951,217.76844449999044,217.75261120000505,,,,,,,,,,,,,,,,,,,,,,,,,,,,,,,,,,,217.75493349999303,217.76844449999044,217.76844449999044,219.28494219999996,r,1.0,1.50555189998704,,,,,,sub-096,1,stroop_test,59.95678314271117,
,,,,35.0,11.0,2.0,,,,,,,,,,,,,gelb,blue,b,0.0,b,1.0,0.854834400000982,,,,,,,,,,2.0,11.0,35.0,9.0,219.3004144000006,,,,,,,,,,,,,,,,,219.28522230000817,220.4849022999988,221.2846645999816,221.2686388999864,,,,,,,,,,,,,,,,,,,,,,,,,,,,,,,,,,,221.27099620000808,221.2846645999816,221.2846645999816,222.1528333000024,b,1.0,0.854834400000982,,,,,,sub-096,1,stroop_test,59.95678314271117,
,,,,36.0,0.0,3.0,,,,,,,,,,,,,gelb,yellow,g,1.0,g,1.0,0.5302146000030916,,,,,,,,,,3.0,0.0,36.0,11.0,222.1680011999852,,,,,,,,,,,,,,,,,222.15320259999132,223.36772549999296,224.16751299999305,224.1517287000024,,,,,,,,,,,,,,,,,,,,,,,,,,,,,,,,,,,224.1521576999803,224.16751299999305,224.16751299999305,224.7028461000009,g,1.0,0.5302146000030916,,,,,,sub-096,1,stroop_test,59.95678314271117,
,,,,37.0,1.0,3.0,,,,,,,,,,,,,blau,blue,b,1.0,b,1.0,0.591754499997478,,,,,,,,,,3.0,1.0,37.0,5.0,224.71734080000897,,,,,,,,,,,,,,,,,224.70320889999857,224.8170788999996,225.6177823999897,225.6014200999925,,,,,,,,,,,,,,,,,,,,,,,,,,,,,,,,,,,225.60361319998628,225.6177823999897,225.6177823999897,226.2183269999805,b,1.0,0.591754499997478,,,,,,sub-096,1,stroop_test,59.95678314271117,
,,,,38.0,2.0,3.0,,,,,,,,,,,,,rot,yellow,g,0.0,g,1.0,0.6829299000091851,,,,,,,,,,3.0,2.0,38.0,3.0,226.23369059999823,,,,,,,,,,,,,,,,,226.2186164000013,226.317916400003,227.1179854999937,227.1022144999879,,,,,,,,,,,,,,,,,,,,,,,,,,,,,,,,,,,227.10508419998223,227.1179854999937,227.1179854999937,227.80221049999815,g,1.0,0.6829299000091851,,,,,,sub-096,1,stroop_test,59.95678314271117,
,,,,39.0,3.0,3.0,,,,,,,,,,,,,gelb,yellow,g,1.0,g,1.0,0.5900527000194415,,,,,,,,,,3.0,3.0,39.0,10.0,227.81764470000053,,,,,,,,,,,,,,,,,227.80250059999528,228.61714449999272,229.41742340000928,229.4012073999911,,,,,,,,,,,,,,,,,,,,,,,,,,,,,,,,,,,229.40415930000017,229.41742340000928,229.41742340000928,230.01822450000327,g,1.0,0.5900527000194415,,,,,,sub-096,1,stroop_test,59.95678314271117,
,,,,40.0,4.0,3.0,,,,,,,,,,,,,rot,blue,b,0.0,b,1.0,0.6123628000204917,,,,,,,,,,3.0,4.0,40.0,2.0,230.0336134999816,,,,,,,,,,,,,,,,,230.0185296999989,230.81800689999363,231.61807419999968,231.60152749999543,,,,,,,,,,,,,,,,,,,,,,,,,,,,,,,,,,,231.60401219999767,231.61807419999968,231.61807419999968,232.2348005999811,b,1.0,0.6123628000204917,,,,,,sub-096,1,stroop_test,59.95678314271117,
,,,,41.0,5.0,3.0,,,,,,,,,,,,,blau,yellow,g,0.0,g,1.0,1.0915679000027012,,,,,,,,,,3.0,5.0,41.0,7.0,232.2502420000092,,,,,,,,,,,,,,,,,232.23510319998604,232.5838831999863,233.3838967999909,233.36782179999864,,,,,,,,,,,,,,,,,,,,,,,,,,,,,,,,,,,233.37079240000455,233.3838967999909,233.3838967999909,234.48558310000223,g,1.0,1.0915679000027012,,,,,,sub-096,1,stroop_test,59.95678314271117,
,,,,42.0,6.0,3.0,,,,,,,,,,,,,rot,red,r,1.0,r,1.0,1.433004999998957,,,,,,,,,,3.0,6.0,42.0,1.0,234.50103069999025,,,,,,,,,,,,,,,,,234.48588279998512,235.7008176999807,236.5004292000085,236.4848498000065,,,,,,,,,,,,,,,,,,,,,,,,,,,,,,,,,,,236.48742910000144,236.5004292000085,236.5004292000085,237.93525029998275,r,1.0,1.433004999998957,,,,,,sub-096,1,stroop_test,59.95678314271117,
,,,,43.0,7.0,3.0,,,,,,,,,,,,,gelb,blue,b,0.0,b,1.0,0.8515833000128623,,,,,,,,,,3.0,7.0,43.0,9.0,237.9503548000066,,,,,,,,,,,,,,,,,237.93553849999444,238.05000240000663,238.84998329999507,238.8338237999997,,,,,,,,,,,,,,,,,,,,,,,,,,,,,,,,,,,238.8365524999972,238.84998329999507,238.84998329999507,239.71792480000292,b,1.0,0.8515833000128623,,,,,,sub-096,1,stroop_test,59.95678314271117,
,,,,44.0,8.0,3.0,,,,,,,,,,,,,gelb,red,r,0.0,r,1.0,0.940947299997788,,,,,,,,,,3.0,8.0,44.0,8.0,239.73340649998863,,,,,,,,,,,,,,,,,239.71824099999503,240.93382199999175,241.734142900008,241.7182937999896,,,,,,,,,,,,,,,,,,,,,,,,,,,,,,,,,,,241.7187043000013,241.734142900008,241.734142900008,242.68467849999436,r,1.0,0.940947299997788,,,,,,sub-096,1,stroop_test,59.95678314271117,
,,,,45.0,9.0,3.0,,,,,,,,,,,,,blau,red,r,0.0,r,1.0,0.7512201000063214,,,,,,,,,,3.0,9.0,45.0,4.0,242.70018539999728,,,,,,,,,,,,,,,,,242.68497309999657,243.03421919999528,243.83329239999875,243.8185075999936,,,,,,,,,,,,,,,,,,,,,,,,,,,,,,,,,,,243.8209675999824,243.83329239999875,243.83329239999875,244.58612049999647,r,1.0,0.7512201000063214,,,,,,sub-096,1,stroop_test,59.95678314271117,
,,,,46.0,10.0,3.0,,,,,,,,,,,,,rot,red,r,1.0,r,1.0,0.6008480000018608,,,,,,,,,,3.0,10.0,46.0,0.0,244.60036839998796,,,,,,,,,,,,,,,,,244.58640669999292,245.40033959998985,246.20004860000336,246.1847685999819,,,,,,,,,,,,,,,,,,,,,,,,,,,,,,,,,,,246.187119899987,246.20004860000336,246.20004860000336,246.8174497,r,1.0,0.6008480000018608,,,,,,sub-096,1,stroop_test,59.95678314271117,
,,,,47.0,11.0,3.0,,,,,,,,,,,,,blau,blue,b,1.0,b,1.0,0.6816113999811932,,,,,,,,,,3.0,11.0,47.0,6.0,246.83302079999703,,,,,,,,,,,,,,,,,246.81771299999676,246.9177125999995,247.71691909999936,247.70120949999543,,,,,,,,,,,,,,,,,,,,,,,,,,,,,,,,,,,247.70357549999608,247.71691909999936,247.71691909999936,248.40180079999843,b,1.0,0.6816113999811932,,,,,,sub-096,1,stroop_test,59.95678314271117,
,,,,48.0,0.0,4.0,,,,,,,,,,,,,blau,yellow,g,0.0,g,1.0,0.7544632999924943,,,,,,,,,,4.0,0.0,48.0,7.0,248.4172191999969,,,,,,,,,,,,,,,,,248.40220260000208,248.76708839999628,249.56769999998505,249.5515550999844,,,,,,,,,,,,,,,,,,,,,,,,,,,,,,,,,,,249.5519670000067,249.56769999998505,249.56769999998505,250.3352088999818,g,1.0,0.7544632999924943,,,,,,sub-096,1,stroop_test,59.95678314271117,
,,,,49.0,1.0,4.0,,,,,,,,,,,,,rot,yellow,g,0.0,g,1.0,0.5526805999979842,,,,,,,,,,4.0,1.0,49.0,3.0,250.35018979999583,,,,,,,,,,,,,,,,,250.3355140000058,250.7002074999909,251.50023350000265,251.48434150000685,,,,,,,,,,,,,,,,,,,,,,,,,,,,,,,,,,,251.48668109998107,251.50023350000265,251.50023350000265,252.0686625999806,g,1.0,0.5526805999979842,,,,,,sub-096,1,stroop_test,59.95678314271117,
,,,,50.0,2.0,4.0,,,,,,,,,,,,,blau,blue,b,1.0,b,1.0,0.5565674000245053,,,,,,,,,,4.0,2.0,50.0,6.0,252.083381799981,,,,,,,,,,,,,,,,,252.0690001999901,253.2837365999876,254.0837440000032,254.0673342999944,,,,,,,,,,,,,,,,,,,,,,,,,,,,,,,,,,,254.0700216999976,254.0837440000032,254.0837440000032,254.6503801000072,b,1.0,0.5565674000245053,,,,,,sub-096,1,stroop_test,59.95678314271117,
,,,,51.0,3.0,4.0,,,,,,,,,,,,,rot,blue,b,0.0,b,1.0,0.4942742999992333,,,,,,,,,,4.0,3.0,51.0,2.0,254.6669375000056,,,,,,,,,,,,,,,,,254.65065110000432,254.9996947000036,255.80038569998575,255.78441049999677,,,,,,,,,,,,,,,,,,,,,,,,,,,,,,,,,,,255.7867606999935,255.80038569998575,255.80038569998575,256.30159819999244,b,1.0,0.4942742999992333,,,,,,sub-096,1,stroop_test,59.95678314271117,
,,,,52.0,4.0,4.0,,,,,,,,,,,,,gelb,blue,b,0.0,b,1.0,0.447377200005576,,,,,,,,,,4.0,4.0,52.0,9.0,256.31701520000934,,,,,,,,,,,,,,,,,256.30192619998707,257.51736120000714,258.3175475999888,258.3008329999866,,,,,,,,,,,,,,,,,,,,,,,,,,,,,,,,,,,258.3032805999974,258.3175475999888,258.3175475999888,258.7680029000039,b,1.0,0.447377200005576,,,,,,sub-096,1,stroop_test,59.95678314271117,
,,,,53.0,5.0,4.0,,,,,,,,,,,,,blau,red,r,0.0,r,1.0,0.8745725999760907,,,,,,,,,,4.0,5.0,53.0,4.0,258.7829415999877,,,,,,,,,,,,,,,,,258.7683152999962,259.98314999998547,260.78392950000125,260.7679344000062,,,,,,,,,,,,,,,,,,,,,,,,,,,,,,,,,,,260.7701238000009,260.78392950000125,260.78392950000125,261.6667857999855,r,1.0,0.8745725999760907,,,,,,sub-096,1,stroop_test,59.95678314271117,
,,,,54.0,6.0,4.0,,,,,,,,,,,,,rot,red,r,1.0,r,1.0,0.6520364000170957,,,,,,,,,,4.0,6.0,54.0,0.0,261.6834139999992,,,,,,,,,,,,,,,,,261.6670696999936,261.7663707000029,262.56928599998355,262.5504003999813,,,,,,,,,,,,,,,,,,,,,,,,,,,,,,,,,,,262.55302839999786,262.56928599998355,262.56928599998355,263.234772900003,r,1.0,0.6520364000170957,,,,,,sub-096,1,stroop_test,59.95678314271117,
,,,,55.0,7.0,4.0,,,,,,,,,,,,,gelb,yellow,g,1.0,g,1.0,0.5136147000011988,,,,,,,,,,4.0,7.0,55.0,11.0,263.2500497000001,,,,,,,,,,,,,,,,,263.2350587999972,263.3503464999958,264.1661935999873,264.15015139998286,,,,,,,,,,,,,,,,,,,,,,,,,,,,,,,,,,,264.1530228999909,264.1661935999873,264.1661935999873,264.68310070000007,g,1.0,0.5136147000011988,,,,,,sub-096,1,stroop_test,59.95678314271117,
,,,,56.0,8.0,4.0,,,,,,,,,,,,,rot,red,r,1.0,r,1.0,0.5290217000001576,,,,,,,,,,4.0,8.0,56.0,1.0,264.699618499988,,,,,,,,,,,,,,,,,264.68338949998724,264.7833530000062,265.58324839998386,265.5675857999886,,,,,,,,,,,,,,,,,,,,,,,,,,,,,,,,,,,265.5701829000027,265.58324839998386,265.58324839998386,266.11782620000304,r,1.0,0.5290217000001576,,,,,,sub-096,1,stroop_test,59.95678314271117,
,,,,57.0,9.0,4.0,,,,,,,,,,,,,blau,blue,b,1.0,b,1.0,0.4741835999884642,,,,,,,,,,4.0,9.0,57.0,5.0,266.1338419999811,,,,,,,,,,,,,,,,,266.1181393000006,266.46520770000643,267.2666615000053,267.2509347999876,,,,,,,,,,,,,,,,,,,,,,,,,,,,,,,,,,,267.2531020999886,267.2666615000053,267.2666615000053,267.75183580000885,b,1.0,0.4741835999884642,,,,,,sub-096,1,stroop_test,59.95678314271117,
,,,,58.0,10.0,4.0,,,,,,,,,,,,,gelb,yellow,g,1.0,g,1.0,0.4244919999910053,,,,,,,,,,4.0,10.0,58.0,10.0,267.76610269999946,,,,,,,,,,,,,,,,,267.7521243999945,268.96616099998937,269.7664094000065,269.75015979999444,,,,,,,,,,,,,,,,,,,,,,,,,,,,,,,,,,,269.7524902999867,269.7664094000065,269.7664094000065,270.20123800000874,g,1.0,0.4244919999910053,,,,,,sub-096,1,stroop_test,59.95678314271117,
,,,,59.0,11.0,4.0,,,,,,,,,,,,,gelb,red,r,0.0,r,1.0,0.66551829999662,,,,,,,,,,4.0,11.0,59.0,8.0,270.2163036999991,,,,,,,,,,,,,,,,,270.20156839999254,271.416342099983,272.21640839998145,272.19984449999174,,,,,,,,,,,,,,,,,,,,,,,,,,,,,,,,,,,272.2002380999911,272.21640839998145,272.21640839998145,272.8845775999944,r,1.0,0.66551829999662,,,,,,sub-096,1,stroop_test,59.95678314271117,
,,,,60.0,0.0,5.0,,,,,,,,,,,,,gelb,blue,b,0.0,b,1.0,0.5671100000035949,,,,,,,,,,5.0,0.0,60.0,9.0,272.8997460999817,,,,,,,,,,,,,,,,,272.8849273999804,273.69982069998514,274.50000219998765,274.483839099994,,,,,,,,,,,,,,,,,,,,,,,,,,,,,,,,,,,274.484332299995,274.50000219998765,274.50000219998765,275.06848809999065,b,1.0,0.5671100000035949,,,,,,sub-096,1,stroop_test,59.95678314271117,
,,,,61.0,1.0,5.0,,,,,,,,,,,,,gelb,yellow,g,1.0,g,1.0,1.6915049999952316,,,,,,,,,,5.0,1.0,61.0,10.0,275.0823442999972,,,,,,,,,,,,,,,,,275.0687815999845,275.4335773999919,276.23343829999794,276.2175295999914,,,,,,,,,,,,,,,,,,,,,,,,,,,,,,,,,,,276.21794909998425,276.23343829999794,276.23343829999794,277.933162500005,g,1.0,1.6915049999952316,,,,,,sub-096,1,stroop_test,59.95678314271117,
,,,,62.0,2.0,5.0,,,,,,,,,,,,,blau,yellow,g,0.0,g,1.0,0.934514799999306,,,,,,,,,,5.0,2.0,62.0,7.0,277.9494706999976,,,,,,,,,,,,,,,,,277.9334878000081,278.73291590000736,279.5337717999937,279.5168691999861,,,,,,,,,,,,,,,,,,,,,,,,,,,,,,,,,,,279.5190401999862,279.5337717999937,279.5337717999937,280.4829095999885,g,1.0,0.934514799999306,,,,,,sub-096,1,stroop_test,59.95678314271117,
,,,,63.0,3.0,5.0,,,,,,,,,,,,,rot,red,r,1.0,r,1.0,0.5749121000117157,,,,,,,,,,5.0,3.0,63.0,0.0,280.4988318999822,,,,,,,,,,,,,,,,,280.4831949000072,281.6825148999924,282.4821688999946,282.4663845000032,,,,,,,,,,,,,,,,,,,,,,,,,,,,,,,,,,,282.4701930999872,282.4821688999946,282.4821688999946,283.0664137999993,r,1.0,0.5749121000117157,,,,,,sub-096,1,stroop_test,59.95678314271117,
,,,,64.0,4.0,5.0,,,,,,,,,,,,,rot,blue,b,0.0,b,1.0,0.5110502999741584,,,,,,,,,,5.0,4.0,64.0,2.0,283.0822964999825,,,,,,,,,,,,,,,,,283.06669020000845,283.4322169999941,284.23296769999433,284.2159138999996,,,,,,,,,,,,,,,,,,,,,,,,,,,,,,,,,,,284.2162693999999,284.23296769999433,284.23296769999433,284.749962700007,b,1.0,0.5110502999741584,,,,,,sub-096,1,stroop_test,59.95678314271117,
,,,,65.0,5.0,5.0,,,,,,,,,,,,,rot,yellow,g,0.0,g,1.0,0.6068580000137445,,,,,,,,,,5.0,5.0,65.0,3.0,284.76540699999896,,,,,,,,,,,,,,,,,284.7503955999855,285.94922539999243,286.75002959999256,286.73332110000774,,,,,,,,,,,,,,,,,,,,,,,,,,,,,,,,,,,286.7337520000001,286.75002959999256,286.75002959999256,287.3674319999991,g,1.0,0.6068580000137445,,,,,,sub-096,1,stroop_test,59.95678314271117,
,,,,66.0,6.0,5.0,,,,,,,,,,,,,gelb,yellow,g,1.0,g,1.0,0.4498343000013847,,,,,,,,,,5.0,6.0,66.0,11.0,287.3829167000076,,,,,,,,,,,,,,,,,287.36773019999964,288.58260910000536,289.3832579999871,289.36662179999985,,,,,,,,,,,,,,,,,,,,,,,,,,,,,,,,,,,289.368997099984,289.3832579999871,289.3832579999871,289.8344703000039,g,1.0,0.4498343000013847,,,,,,sub-096,1,stroop_test,59.95678314271117,
,,,,67.0,7.0,5.0,,,,,,,,,,,,,gelb,red,r,0.0,r,1.0,0.6847476000257302,,,,,,,,,,5.0,7.0,67.0,8.0,289.8496633000032,,,,,,,,,,,,,,,,,289.834758699988,290.1996073999908,290.9996681000048,290.9838388999924,,,,,,,,,,,,,,,,,,,,,,,,,,,,,,,,,,,290.9843073000084,290.9996681000048,290.9996681000048,291.6995006999932,r,1.0,0.6847476000257302,,,,,,sub-096,1,stroop_test,59.95678314271117,
,,,,68.0,8.0,5.0,,,,,,,,,,,,,blau,blue,b,1.0,b,1.0,0.4074423999991268,,,,,,,,,,5.0,8.0,68.0,6.0,291.71658919999027,,,,,,,,,,,,,,,,,291.69977619999554,292.5160657000088,293.3151232000091,293.2995297999878,,,,,,,,,,,,,,,,,,,,,,,,,,,,,,,,,,,293.3017454000073,293.3151232000091,293.3151232000091,293.7333316000004,b,1.0,0.4074423999991268,,,,,,sub-096,1,stroop_test,59.95678314271117,
,,,,69.0,9.0,5.0,,,,,,,,,,,,,blau,blue,b,1.0,b,1.0,0.6916007999971043,,,,,,,,,,5.0,9.0,69.0,5.0,293.74901179998415,,,,,,,,,,,,,,,,,293.7336442999949,294.93265289999545,295.733015899983,295.7168364999816,,,,,,,,,,,,,,,,,,,,,,,,,,,,,,,,,,,295.7173067999829,295.733015899983,295.733015899983,296.4335141000047,b,1.0,0.6916007999971043,,,,,,sub-096,1,stroop_test,59.95678314271117,
,,,,70.0,10.0,5.0,,,,,,,,,,,,,blau,red,r,0.0,r,1.0,0.9708065000013448,,,,,,,,,,5.0,10.0,70.0,4.0,296.4496494999912,,,,,,,,,,,,,,,,,296.4338516999851,296.53290359998937,297.3318919999874,297.3158920999849,,,,,,,,,,,,,,,,,,,,,,,,,,,,,,,,,,,297.3163838000037,297.3318919999874,297.3318919999874,298.31667599998764,r,1.0,0.9708065000013448,,,,,,sub-096,1,stroop_test,59.95678314271117,
,,,,71.0,11.0,5.0,,,,,,,,,,,,,rot,red,r,1.0,r,1.0,0.5353074999875389,,,,,,,,,,5.0,11.0,71.0,1.0,298.33178119998774,,,,,,,,,,,,,,,,,298.3169798000017,298.6650167999905,299.4658317999856,299.4494646000094,,,,,,,,,,,,,,,,,,,,,,,,,,,,,,,,,,,299.45226279998315,299.4658317999856,299.4658317999856,300.017502600007,r,1.0,0.5353074999875389,,,,,,sub-096,1,stroop_test,59.95678314271117,
,,,,72.0,0.0,6.0,,,,,,,,,,,,,blau,blue,b,1.0,b,1.0,0.8558399999747053,,,,,,,,,,6.0,0.0,72.0,6.0,300.03251140000066,,,,,,,,,,,,,,,,,300.01779739998165,300.1331482999958,300.9322608000075,300.91650890000165,,,,,,,,,,,,,,,,,,,,,,,,,,,,,,,,,,,300.91926039999817,300.9322608000075,300.9322608000075,301.79988209999283,b,1.0,0.8558399999747053,,,,,,sub-096,1,stroop_test,59.95678314271117,
,,,,73.0,1.0,6.0,,,,,,,,,,,,,blau,red,r,0.0,r,1.0,0.7047359000134747,,,,,,,,,,6.0,1.0,73.0,4.0,301.8151089999883,,,,,,,,,,,,,,,,,301.8001767999958,302.1492359999975,302.94948609999847,302.9324467999977,,,,,,,,,,,,,,,,,,,,,,,,,,,,,,,,,,,302.9328652999829,302.94948609999847,302.94948609999847,303.6666447999887,r,1.0,0.7047359000134747,,,,,,sub-096,1,stroop_test,59.95678314271117,
,,,,74.0,2.0,6.0,,,,,,,,,,,,,blau,blue,b,1.0,b,1.0,0.6079724000010174,,,,,,,,,,6.0,2.0,74.0,5.0,303.6820153000008,,,,,,,,,,,,,,,,,303.66702950000763,304.4829753999948,305.2818474000087,305.2664392000006,,,,,,,,,,,,,,,,,,,,,,,,,,,,,,,,,,,305.2668469999917,305.2818474000087,305.2818474000087,305.89910179999424,b,1.0,0.6079724000010174,,,,,,sub-096,1,stroop_test,59.95678314271117,
,,,,75.0,3.0,6.0,,,,,,,,,,,,,rot,yellow,g,0.0,g,1.0,0.5127385999949183,,,,,,,,,,6.0,3.0,75.0,3.0,305.9149167999858,,,,,,,,,,,,,,,,,305.8994276000012,306.24921589999576,307.048730599985,307.03301980000106,,,,,,,,,,,,,,,,,,,,,,,,,,,,,,,,,,,307.0355848000036,307.048730599985,307.048730599985,307.5674742999836,g,1.0,0.5127385999949183,,,,,,sub-096,1,stroop_test,59.95678314271117,
,,,,76.0,4.0,6.0,,,,,,,,,,,,,gelb,blue,b,0.0,b,1.0,1.2988936000037938,,,,,,,,,,6.0,4.0,76.0,9.0,307.5829093999928,,,,,,,,,,,,,,,,,307.5678598000086,308.3826204999932,309.18129919999046,309.1663072000083,,,,,,,,,,,,,,,,,,,,,,,,,,,,,,,,,,,309.1687333000009,309.18129919999046,309.18129919999046,310.48242869999376,b,1.0,1.2988936000037938,,,,,,sub-096,1,stroop_test,59.95678314271117,
,,,,77.0,5.0,6.0,,,,,,,,,,,,,gelb,red,r,0.0,r,1.0,0.7708526999922469,,,,,,,,,,6.0,5.0,77.0,8.0,310.498549299984,,,,,,,,,,,,,,,,,310.4827144999872,311.2824374999909,312.0820512000064,312.0661817000073,,,,,,,,,,,,,,,,,,,,,,,,,,,,,,,,,,,312.0665733999922,312.0820512000064,312.0820512000064,312.8664342999982,r,1.0,0.7708526999922469,,,,,,sub-096,1,stroop_test,59.95678314271117,
,,,,78.0,6.0,6.0,,,,,,,,,,,,,gelb,yellow,g,1.0,g,1.0,0.5523656999866944,,,,,,,,,,6.0,6.0,78.0,10.0,312.88158630000544,,,,,,,,,,,,,,,,,312.86672190000536,312.96478639999987,313.76572219998343,313.74970159999793,,,,,,,,,,,,,,,,,,,,,,,,,,,,,,,,,,,313.7501054999884,313.76572219998343,313.76572219998343,314.3326748999825,g,1.0,0.5523656999866944,,,,,,sub-096,1,stroop_test,59.95678314271117,
,,,,79.0,7.0,6.0,,,,,,,,,,,,,rot,red,r,1.0,r,1.0,0.5609761000087019,,,,,,,,,,6.0,7.0,79.0,1.0,314.3479192999948,,,,,,,,,,,,,,,,,314.33298169999034,315.5491267000034,316.3488618999836,316.3331179000088,,,,,,,,,,,,,,,,,,,,,,,,,,,,,,,,,,,316.3356466999976,316.3488618999836,316.3488618999836,316.9160505000036,r,1.0,0.5609761000087019,,,,,,sub-096,1,stroop_test,59.95678314271117,
,,,,80.0,8.0,6.0,,,,,,,,,,,,,rot,red,r,1.0,r,1.0,0.5801414000161458,,,,,,,,,,6.0,8.0,80.0,0.0,316.9317141000065,,,,,,,,,,,,,,,,,316.91637749999063,317.01511209999444,317.8154590000049,317.7984361999843,,,,,,,,,,,,,,,,,,,,,,,,,,,,,,,,,,,317.79881069998373,317.8154590000049,317.8154590000049,318.3992147999816,r,1.0,0.5801414000161458,,,,,,sub-096,1,stroop_test,59.95678314271117,
,,,,81.0,9.0,6.0,,,,,,,,,,,,,blau,yellow,g,0.0,g,1.0,1.1098884000093676,,,,,,,,,,6.0,9.0,81.0,7.0,318.4148348000017,,,,,,,,,,,,,,,,,318.3995020999864,319.59919609999633,320.3992950999818,320.3834792999842,,,,,,,,,,,,,,,,,,,,,,,,,,,,,,,,,,,320.3860496999987,320.3992950999818,320.3992950999818,321.5168328,g,1.0,1.1098884000093676,,,,,,sub-096,1,stroop_test,59.95678314271117,
,,,,82.0,10.0,6.0,,,,,,,,,,,,,gelb,yellow,g,1.0,g,1.0,0.7167723000166006,,,,,,,,,,6.0,10.0,82.0,11.0,321.5313943999936,,,,,,,,,,,,,,,,,321.517133699992,322.73159640000085,323.53139479999663,323.51490949999425,,,,,,,,,,,,,,,,,,,,,,,,,,,,,,,,,,,323.51722119998885,323.53139479999663,323.53139479999663,324.2493264999939,g,1.0,0.7167723000166006,,,,,,sub-096,1,stroop_test,59.95678314271117,
,,,,83.0,11.0,6.0,,,,,,,,,,,,,rot,blue,b,0.0,b,1.0,2.0571821999910758,,,,,,,,,,6.0,11.0,83.0,2.0,324.26501869998174,,,,,,,,,,,,,,,,,324.2496390999877,324.5978379999869,325.3980923999916,325.3826410000038,,,,,,,,,,,,,,,,,,,,,,,,,,,,,,,,,,,325.384974399989,325.3980923999916,325.3980923999916,327.4659227000084,b,1.0,2.0571821999910758,,,,,,sub-096,1,stroop_test,59.95678314271117,
,,,,84.0,0.0,7.0,,,,,,,,,,,,,gelb,yellow,g,1.0,g,1.0,0.8940044000046328,,,,,,,,,,7.0,0.0,84.0,11.0,327.4824066000001,,,,,,,,,,,,,,,,,327.4662497999961,327.83202100000926,328.6314808999887,328.6158862999873,,,,,,,,,,,,,,,,,,,,,,,,,,,,,,,,,,,328.61830199998803,328.6314808999887,328.6314808999887,329.53256829999737,g,1.0,0.8940044000046328,,,,,,sub-096,1,stroop_test,59.95678314271117,
,,,,85.0,1.0,7.0,,,,,,,,,,,,,gelb,blue,b,0.0,b,1.0,0.7556737999839243,,,,,,,,,,7.0,1.0,85.0,9.0,329.5476131000032,,,,,,,,,,,,,,,,,329.532901700004,329.8985535999818,330.6984058000089,330.6822151999804,,,,,,,,,,,,,,,,,,,,,,,,,,,,,,,,,,,330.682610799995,330.6984058000089,330.6984058000089,331.466522600007,b,1.0,0.7556737999839243,,,,,,sub-096,1,stroop_test,59.95678314271117,
,,,,86.0,2.0,7.0,,,,,,,,,,,,,rot,blue,b,0.0,b,1.0,0.6292511000065133,,,,,,,,,,7.0,2.0,86.0,2.0,331.48124890000327,,,,,,,,,,,,,,,,,331.46680289998767,331.8318513999984,332.6312420000031,332.6153617000091,,,,,,,,,,,,,,,,,,,,,,,,,,,,,,,,,,,332.61767039998085,332.6312420000031,332.6312420000031,333.2660265000013,b,1.0,0.6292511000065133,,,,,,sub-096,1,stroop_test,59.95678314271117,
,,,,87.0,3.0,7.0,,,,,,,,,,,,,gelb,red,r,0.0,r,1.0,0.6138471000012942,,,,,,,,,,7.0,3.0,87.0,8.0,333.2814832000004,,,,,,,,,,,,,,,,,333.2663322000008,334.0649775000056,334.8651021999831,334.84882579999976,,,,,,,,,,,,,,,,,,,,,,,,,,,,,,,,,,,334.8517220999929,334.8651021999831,334.8651021999831,335.4818682000041,r,1.0,0.6138471000012942,,,,,,sub-096,1,stroop_test,59.95678314271117,
,,,,88.0,4.0,7.0,,,,,,,,,,,,,rot,yellow,g,0.0,g,1.0,0.9515765999967698,,,,,,,,,,7.0,4.0,88.0,3.0,335.4975601999904,,,,,,,,,,,,,,,,,335.48220209998544,335.58193489999394,336.3820093999966,336.3656159999955,,,,,,,,,,,,,,,,,,,,,,,,,,,,,,,,,,,336.367934799986,336.3820093999966,336.3820093999966,337.3499143999943,g,1.0,0.9515765999967698,,,,,,sub-096,1,stroop_test,59.95678314271117,
,,,,89.0,5.0,7.0,,,,,,,,,,,,,rot,red,r,1.0,r,1.0,0.6842330000072252,,,,,,,,,,7.0,5.0,89.0,0.0,337.36532169999555,,,,,,,,,,,,,,,,,337.35019480000483,338.5644373999967,339.36481460000505,339.3493860999879,,,,,,,,,,,,,,,,,,,,,,,,,,,,,,,,,,,339.3498308999988,339.36481460000505,339.36481460000505,340.0652853999927,r,1.0,0.6842330000072252,,,,,,sub-096,1,stroop_test,59.95678314271117,
,,,,90.0,6.0,7.0,,,,,,,,,,,,,gelb,yellow,g,1.0,g,1.0,0.7949163000157569,,,,,,,,,,7.0,6.0,90.0,10.0,340.081410999992,,,,,,,,,,,,,,,,,340.0656106999959,340.43079419998685,341.2308674000087,341.2152073000034,,,,,,,,,,,,,,,,,,,,,,,,,,,,,,,,,,,341.2175844000012,341.2308674000087,341.2308674000087,342.0322258999804,g,1.0,0.7949163000157569,,,,,,sub-096,1,stroop_test,59.95678314271117,
,,,,91.0,7.0,7.0,,,,,,,,,,,,,blau,red,r,0.0,r,1.0,0.7487988999928348,,,,,,,,,,7.0,7.0,91.0,4.0,342.0476231999928,,,,,,,,,,,,,,,,,342.0325094999862,342.147352400003,342.9486379000009,342.93238230000134,,,,,,,,,,,,,,,,,,,,,,,,,,,,,,,,,,,342.93474470000365,342.9486379000009,342.9486379000009,343.698688799981,r,1.0,0.7487988999928348,,,,,,sub-096,1,stroop_test,59.95678314271117,
,,,,92.0,8.0,7.0,,,,,,,,,,,,,blau,blue,b,1.0,b,1.0,0.7774659999995492,,,,,,,,,,7.0,8.0,92.0,5.0,343.71444720000727,,,,,,,,,,,,,,,,,343.6989704000007,344.8982188999944,345.69792809998034,345.6823902000033,,,,,,,,,,,,,,,,,,,,,,,,,,,,,,,,,,,345.6828519999981,345.69792809998034,345.69792809998034,346.4825242999941,b,1.0,0.7774659999995492,,,,,,sub-096,1,stroop_test,59.95678314271117,
,,,,93.0,9.0,7.0,,,,,,,,,,,,,blau,yellow,g,0.0,g,1.0,0.6719727000163402,,,,,,,,,,7.0,9.0,93.0,7.0,346.4984311999869,,,,,,,,,,,,,,,,,346.4828070999938,347.69806130000507,348.49804209999274,348.4818614999822,,,,,,,,,,,,,,,,,,,,,,,,,,,,,,,,,,,348.48230020000483,348.49804209999274,348.49804209999274,349.18243250000523,g,1.0,0.6719727000163402,,,,,,sub-096,1,stroop_test,59.95678314271117,
,,,,94.0,10.0,7.0,,,,,,,,,,,,,rot,red,r,1.0,r,1.0,1.270409999997355,,,,,,,,,,7.0,10.0,94.0,1.0,349.1970891999954,,,,,,,,,,,,,,,,,349.1827549999871,349.28191580000566,350.0815787999891,350.06523750000633,,,,,,,,,,,,,,,,,,,,,,,,,,,,,,,,,,,350.06808060000185,350.0815787999891,350.0815787999891,351.36508389998926,r,1.0,1.270409999997355,,,,,,sub-096,1,stroop_test,59.95678314271117,
,,,,95.0,11.0,7.0,,,,,,,,,,,,,blau,blue,b,1.0,b,1.0,0.5765208000084385,,,,,,,,,,7.0,11.0,95.0,6.0,351.3810880999954,,,,,,,,,,,,,,,,,351.3653671999928,351.46437380000134,352.2649396999914,352.2492018000048,,,,,,,,,,,,,,,,,,,,,,,,,,,,,,,,,,,352.25146249998943,352.2649396999914,352.2649396999914,352.84890209999867,b,1.0,0.5765208000084385,,,,,,sub-096,1,stroop_test,59.95678314271117,
,,,,96.0,0.0,8.0,,,,,,,,,,,,,blau,red,r,0.0,r,1.0,0.9036668999760876,,,,,,,,,,8.0,0.0,96.0,4.0,352.8643003999896,,,,,,,,,,,,,,,,,352.8492153999978,354.0649196000013,354.8813482999976,354.8644007999974,,,,,,,,,,,,,,,,,,,,,,,,,,,,,,,,,,,354.864817499998,354.8813482999976,354.8813482999976,355.79788050000207,r,1.0,0.9036668999760876,,,,,,sub-096,1,stroop_test,59.95678314271117,
,,,,97.0,1.0,8.0,,,,,,,,,,,,,blau,yellow,g,0.0,g,1.0,0.5884120999835432,,,,,,,,,,8.0,1.0,97.0,7.0,355.81522089999635,,,,,,,,,,,,,,,,,355.79814989998704,356.5975773999817,357.3979244999937,357.38163779999013,,,,,,,,,,,,,,,,,,,,,,,,,,,,,,,,,,,357.38209649999044,357.3979244999937,357.3979244999937,357.9990453000064,g,1.0,0.5884120999835432,,,,,,sub-096,1,stroop_test,59.95678314271117,
,,,,98.0,2.0,8.0,,,,,,,,,,,,,gelb,blue,b,0.0,b,1.0,1.3047810999851208,,,,,,,,,,8.0,2.0,98.0,9.0,358.0137645000068,,,,,,,,,,,,,,,,,357.9994019999868,358.81407059999765,359.6148772999877,359.59850970000844,,,,,,,,,,,,,,,,,,,,,,,,,,,,,,,,,,,359.60084780000034,359.6148772999877,359.6148772999877,360.9319430000032,b,1.0,1.3047810999851208,,,,,,sub-096,1,stroop_test,59.95678314271117,
,,,,99.0,3.0,8.0,,,,,,,,,,,,,blau,blue,b,1.0,b,1.0,1.20432229997823,,,,,,,,,,8.0,3.0,99.0,5.0,360.94697829999495,,,,,,,,,,,,,,,,,360.9322717000032,362.14757430000464,362.94702880000114,362.93142959999386,,,,,,,,,,,,,,,,,,,,,,,,,,,,,,,,,,,362.9336852999986,362.94702880000114,362.94702880000114,364.16527549998136,b,1.0,1.20432229997823,,,,,,sub-096,1,stroop_test,59.95678314271117,
,,,,100.0,4.0,8.0,,,,,,,,,,,,,blau,blue,b,1.0,b,1.0,0.4191673000168521,,,,,,,,,,8.0,4.0,100.0,6.0,364.1807808000012,,,,,,,,,,,,,,,,,364.1655710999912,364.53093399998033,365.3309753999929,365.31506510000327,,,,,,,,,,,,,,,,,,,,,,,,,,,,,,,,,,,365.3154424999957,365.3309753999929,365.3309753999929,365.7658892000036,b,1.0,0.4191673000168521,,,,,,sub-096,1,stroop_test,59.95678314271117,
,,,,101.0,5.0,8.0,,,,,,,,,,,,,rot,yellow,g,0.0,r,0.0,1.639518899988616,,,,,,,,,,8.0,5.0,101.0,3.0,365.7808740999899,,,,,,,,,,,,,,,,,365.766168800008,366.5810066999984,367.3807098999969,367.3639869999897,,,,,,,,,,,,,,,,,,,,,,,,,,,,,,,,,,,367.3662763999892,367.3807098999969,367.3807098999969,369.0312595999858,r,0.0,1.639518899988616,,,,,,sub-096,1,stroop_test,59.95678314271117,
,,,,102.0,6.0,8.0,,,,,,,,,,,,,rot,red,r,1.0,r,1.0,0.5163145999831613,,,,,,,,,,8.0,6.0,102.0,0.0,369.0466353000084,,,,,,,,,,,,,,,,,369.0315594999993,369.8310392999847,370.6300498000055,370.6139430000039,,,,,,,,,,,,,,,,,,,,,,,,,,,,,,,,,,,370.6143780999992,370.6300498000055,370.6300498000055,371.1484868999978,r,1.0,0.5163145999831613,,,,,,sub-096,1,stroop_test,59.95678314271117,
,,,,103.0,7.0,8.0,,,,,,,,,,,,,gelb,red,r,0.0,r,1.0,2.278047100000549,,,,,,,,,,8.0,7.0,103.0,8.0,371.16415419999976,,,,,,,,,,,,,,,,,371.14876539999386,372.3633868999896,373.1635112999938,373.1483368999907,,,,,,,,,,,,,,,,,,,,,,,,,,,,,,,,,,,373.1507453999948,373.1635112999938,373.1635112999938,375.4489743000013,r,1.0,2.278047100000549,,,,,,sub-096,1,stroop_test,59.95678314271117,
,,,,104.0,8.0,8.0,,,,,,,,,,,,,rot,red,r,1.0,r,1.0,0.6307961999846157,,,,,,,,,,8.0,8.0,104.0,1.0,375.4641037999827,,,,,,,,,,,,,,,,,375.44929160000174,375.8132078000053,376.6133136999852,376.59827960000257,,,,,,,,,,,,,,,,,,,,,,,,,,,,,,,,,,,376.6007726999815,376.6133136999852,376.6133136999852,377.2486697999993,r,1.0,0.6307961999846157,,,,,,sub-096,1,stroop_test,59.95678314271117,
,,,,105.0,9.0,8.0,,,,,,,,,,,,,rot,blue,b,0.0,b,1.0,0.6822052999923471,,,,,,,,,,8.0,9.0,105.0,2.0,377.2634575999982,,,,,,,,,,,,,,,,,377.2489737999858,378.4637191999937,379.2637540999858,379.2478688999836,,,,,,,,,,,,,,,,,,,,,,,,,,,,,,,,,,,379.24830489998567,379.2637540999858,379.2637540999858,379.9481579999847,b,1.0,0.6822052999923471,,,,,,sub-096,1,stroop_test,59.95678314271117,
,,,,106.0,10.0,8.0,,,,,,,,,,,,,gelb,yellow,g,1.0,g,1.0,0.5127091000031214,,,,,,,,,,8.0,10.0,106.0,11.0,379.96362579998095,,,,,,,,,,,,,,,,,379.9484397000051,380.7464924999804,381.54752120000194,381.5311068999872,,,,,,,,,,,,,,,,,,,,,,,,,,,,,,,,,,,381.53344130000914,381.54752120000194,381.54752120000194,382.0650658000086,g,1.0,0.5127091000031214,,,,,,sub-096,1,stroop_test,59.95678314271117,
,,,,107.0,11.0,8.0,,,,,,,,,,,,,gelb,yellow,g,1.0,g,1.0,0.3820727000129409,,,,,,,,,,8.0,11.0,107.0,10.0,382.0798655999824,,,,,,,,,,,,,,,,,382.0653532999859,382.1808926000085,382.9807495999849,382.9649061000091,,,,,,,,,,,,,,,,,,,,,,,,,,,,,,,,,,,382.9654491999827,382.9807495999849,382.9807495999849,383.36488829998416,g,1.0,0.3820727000129409,,,,,,sub-096,1,stroop_test,59.95678314271117,
,,,,108.0,0.0,9.0,,,,,,,,,,,,,rot,blue,b,0.0,b,1.0,0.8821399000007659,,,,,,,,,,9.0,0.0,108.0,2.0,383.3804443999834,,,,,,,,,,,,,,,,,383.36516929999925,384.580603999988,385.3806122999813,385.3640356999822,,,,,,,,,,,,,,,,,,,,,,,,,,,,,,,,,,,385.3665146999992,385.3806122999813,385.3806122999813,386.2641633999883,b,1.0,0.8821399000007659,,,,,,sub-096,1,stroop_test,59.95678314271117,
,,,,109.0,1.0,9.0,,,,,,,,,,,,,gelb,yellow,g,1.0,g,1.0,0.7000611999828834,,,,,,,,,,9.0,1.0,109.0,11.0,386.2796674999991,,,,,,,,,,,,,,,,,386.2645117999928,386.63008249999257,387.4305437000002,387.41400419999263,,,,,,,,,,,,,,,,,,,,,,,,,,,,,,,,,,,387.4170519000036,387.4305437000002,387.4305437000002,388.1483011999808,g,1.0,0.7000611999828834,,,,,,sub-096,1,stroop_test,59.95678314271117,
,,,,110.0,2.0,9.0,,,,,,,,,,,,,rot,red,r,1.0,r,1.0,0.8577651999949012,,,,,,,,,,9.0,2.0,110.0,1.0,388.1636473999824,,,,,,,,,,,,,,,,,388.1487280000001,389.3628807000059,390.16365750000114,390.1479660999903,,,,,,,,,,,,,,,,,,,,,,,,,,,,,,,,,,,390.1502945999964,390.16365750000114,390.16365750000114,391.03157039999496,r,1.0,0.8577651999949012,,,,,,sub-096,1,stroop_test,59.95678314271117,
,,,,111.0,3.0,9.0,,,,,,,,,,,,,blau,blue,b,1.0,b,1.0,0.5459062999871094,,,,,,,,,,9.0,3.0,111.0,5.0,391.04715579998447,,,,,,,,,,,,,,,,,391.0318533999962,391.1304403999821,391.9305954999873,391.9146226999874,,,,,,,,,,,,,,,,,,,,,,,,,,,,,,,,,,,391.9168352999841,391.9305954999873,391.9305954999873,392.480644700001,b,1.0,0.5459062999871094,,,,,,sub-096,1,stroop_test,59.95678314271117,
,,,,112.0,4.0,9.0,,,,,,,,,,,,,blau,blue,b,1.0,b,1.0,0.686066900001606,,,,,,,,,,9.0,4.0,112.0,6.0,392.4968227999925,,,,,,,,,,,,,,,,,392.4809353000019,393.68037299998105,394.4802990999888,394.46501260000514,,,,,,,,,,,,,,,,,,,,,,,,,,,,,,,,,,,394.465429200005,394.4802990999888,394.4802990999888,395.1808954000008,b,1.0,0.686066900001606,,,,,,sub-096,1,stroop_test,59.95678314271117,
,,,,113.0,5.0,9.0,,,,,,,,,,,,,gelb,yellow,g,1.0,g,1.0,0.4710115999914706,,,,,,,,,,9.0,5.0,113.0,10.0,395.1962242999871,,,,,,,,,,,,,,,,,395.1812863999803,396.3805610999989,397.19730460000574,397.1806718999869,,,,,,,,,,,,,,,,,,,,,,,,,,,,,,,,,,,397.1829564000072,397.19730460000574,397.19730460000574,397.6817887999932,g,1.0,0.4710115999914706,,,,,,sub-096,1,stroop_test,59.95678314271117,
,,,,114.0,6.0,9.0,,,,,,,,,,,,,rot,red,r,1.0,r,1.0,0.7457375999947544,,,,,,,,,,9.0,6.0,114.0,0.0,397.69661429998814,,,,,,,,,,,,,,,,,397.6821484999964,397.7967096999928,398.5965274999908,398.5813707000052,,,,,,,,,,,,,,,,,,,,,,,,,,,,,,,,,,,398.5838317000016,398.5965274999908,398.5965274999908,399.3478127999988,r,1.0,0.7457375999947544,,,,,,sub-096,1,stroop_test,59.95678314271117,
,,,,115.0,7.0,9.0,,,,,,,,,,,,,blau,red,r,0.0,r,1.0,0.7572441000083927,,,,,,,,,,9.0,7.0,115.0,4.0,399.3628276999807,,,,,,,,,,,,,,,,,399.3481721999997,400.5638770000078,401.379866800009,401.36389139998937,,,,,,,,,,,,,,,,,,,,,,,,,,,,,,,,,,,401.3664812000061,401.379866800009,401.379866800009,402.1472556999943,r,1.0,0.7572441000083927,,,,,,sub-096,1,stroop_test,59.95678314271117,
,,,,116.0,8.0,9.0,,,,,,,,,,,,,blau,yellow,g,0.0,g,1.0,1.0890076000068802,,,,,,,,,,9.0,8.0,116.0,7.0,402.1625953000039,,,,,,,,,,,,,,,,,402.1475601999846,402.4964375999989,403.2960801000008,403.2800572999986,,,,,,,,,,,,,,,,,,,,,,,,,,,,,,,,,,,403.2804530999856,403.2960801000008,403.2960801000008,404.39776859999984,g,1.0,1.0890076000068802,,,,,,sub-096,1,stroop_test,59.95678314271117,
,,,,117.0,9.0,9.0,,,,,,,,,,,,,gelb,red,r,0.0,r,1.0,1.0020100999972783,,,,,,,,,,9.0,9.0,117.0,8.0,404.4126584999904,,,,,,,,,,,,,,,,,404.39815659998567,404.7633248000057,405.5635710000061,405.5476548000006,,,,,,,,,,,,,,,,,,,,,,,,,,,,,,,,,,,405.54995479999343,405.5635710000061,405.5635710000061,406.5804148000025,r,1.0,1.0020100999972783,,,,,,sub-096,1,stroop_test,59.95678314271117,
,,,,118.0,10.0,9.0,,,,,,,,,,,,,gelb,blue,b,0.0,b,1.0,0.7560974000080023,,,,,,,,,,9.0,10.0,118.0,9.0,406.5965014999965,,,,,,,,,,,,,,,,,406.5806927999947,407.7790978999983,408.5800761999853,408.564094500005,,,,,,,,,,,,,,,,,,,,,,,,,,,,,,,,,,,408.5645695999847,408.5800761999853,408.5800761999853,409.3475879000034,b,1.0,0.7560974000080023,,,,,,sub-096,1,stroop_test,59.95678314271117,
,,,,119.0,11.0,9.0,,,,,,,,,,,,,rot,yellow,g,0.0,g,1.0,1.1132908999861684,,,,,,,,,,9.0,11.0,119.0,3.0,409.3622334999964,,,,,,,,,,,,,,,,,409.3479246000061,409.4630631000037,410.26339020000887,410.2469465000031,,,,,,,,,,,,,,,,,,,,,,,,,,,,,,,,,,,410.2492421999923,410.26339020000887,410.26339020000887,411.3801893999917,g,1.0,1.1132908999861684,,,,,,sub-096,1,stroop_test,59.95678314271117,
,,,,,,,,,,,,,,,,,,,,,,,,,,,,,,,,,,,,,,,,,,,,,,,,,,,,,,,,,,,,,,,,,,,,,,,,,,,,,,,,,,,,,,,,,,,,,,,,,,,,,,411.3803205000004,411.3962183999829,416.3955999999889,416.3797398000024,sub-096,1,stroop_test,59.95678314271117,
