wordCTK,colorCTK,corrAnsCTK,congruentCTK,thisN,thisTrialN,thisRepN,keyResp_CTK.keys,keyResp_CTK.corr,keyResp_CTK.rt,keyResp_CTK.duration,wordPractice,colorPractice,corrAnsPractice,congruentPractice,respPractice.keys,respPractice.corr,respPractice.rt,respPractice.duration,word,color,corrAns,congruent,keyResp_test_run.keys,keyResp_test_run.corr,keyResp_test_run.rt,keyResp_test_run.duration,trials_CTK.thisRepN,trials_CTK.thisTrialN,trials_CTK.thisN,trials_CTK.thisIndex,trials_practice.thisRepN,trials_practice.thisTrialN,trials_practice.thisN,trials_practice.thisIndex,trials_test.thisRepN,trials_test.thisTrialN,trials_test.thisN,trials_test.thisIndex,thisRow.t,notes,instruction.started,instr_text.started,instr_image.started,instr_resp.started,instruction.stopped,instr_resp.keys,instr_resp.rt,instr_resp.duration,instr_color_to_key.started,instr_ctk.started,resp_ctk.started,instr_color_to_key.stopped,resp_ctk.keys,resp_ctk.rt,resp_ctk.duration,ITI.started,fixcross.started,fixcross.stopped,ITI.stopped,color_to_key_run.started,stimulus_CTK.started,keyResp_CTK.started,color_to_key_run.stopped,trials_CTK.keyResp_CTK.keys,trials_CTK.keyResp_CTK.corr,trials_CTK.keyResp_CTK.rt,trials_CTK.keyResp_CTK.duration,instr_practice.started,instr_practice_text.started,instr_practice_resp.started,instr_practice.stopped,instr_practice_resp.keys,instr_practice_resp.rt,instr_practice_resp.duration,practice_run.started,stimulus_practice.started,respPractice.started,practice_run.stopped,trials_practice.respPractice.keys,trials_practice.respPractice.corr,trials_practice.respPractice.rt,trials_practice.respPractice.duration,feedback.started,textFeedback.started,feedback.stopped,textFeedback.stopped,instr_test.started,instr_test_text.started,instr_test_resp.started,instr_test.stopped,instr_test_resp.keys,instr_test_resp.rt,instr_test_resp.duration,test_run.started,stimulus_test_run.started,keyResp_test_run.started,test_run.stopped,trials_test.keyResp_test_run.keys,trials_test.keyResp_test_run.corr,trials_test.keyResp_test_run.rt,trials_test.keyResp_test_run.duration,goodbye.started,textGoodbye.started,textGoodbye.stopped,goodbye.stopped,participant,session,expName,frameRate,Unnamed: 113
,,,,,,,,,,,,,,,,,,,,,,,,,,,,,,,,,,,,,,,,,0.0108557079802267,0.033420166990254,0.033420166990254,0.033420166990254,77.42738862498663,space,77.3248400829907,,,,,,,,,,,,,,,,,,,,,,,,,,,,,,,,,,,,,,,,,,,,,,,,,,,,,,,,,,,sub-173,1,stroop_test,,
,,,,,,,,,,,,,,,,,,,,,,,,,,,,,,,,,,,,,,,,,,,,,,,,,77.4276045000006,77.47203124998487,77.47203124998487,85.08747050000238,space,7.612837916996796,,,,,,,,,,,,,,,,,,,,,,,,,,,,,,,,,,,,,,,,,,,,,,,,,,,,sub-173,1,stroop_test,,
test,red,r,1.0,0.0,0.0,0.0,r,1.0,1.2300553329987451,,,,,,,,,,,,,,,,,,0.0,0.0,0.0,0.0,,,,,,,,,85.1331827499962,,,,,,,,,,,,,,,,,85.11189420797746,85.90102437499445,86.70215774999815,86.68748216697713,86.69529612499173,86.70215774999815,86.70215774999815,87.93924691699794,r,1.0,1.2300553329987451,,,,,,,,,,,,,,,,,,,,,,,,,,,,,,,,,,,,,,,,sub-173,1,stroop_test,,
test,yellow,g,1.0,1.0,1.0,0.0,g,1.0,1.0984309159975965,,,,,,,,,,,,,,,,,,0.0,1.0,1.0,1.0,,,,,,,,,87.9491953329998,,,,,,,,,,,,,,,,,87.93965029198444,88.73713624998345,89.53840270798537,89.53085912499228,89.53153479198227,89.53840270798537,89.53840270798537,90.6645077499852,g,1.0,1.0984309159975965,,,,,,,,,,,,,,,,,,,,,,,,,,,,,,,,,,,,,,,,sub-173,1,stroop_test,,
test,blue,b,1.0,2.0,2.0,0.0,b,1.0,0.4204042089986615,,,,,,,,,,,,,,,,,,0.0,2.0,2.0,2.0,,,,,,,,,90.67477020798832,,,,,,,,,,,,,,,,,90.66491004198906,91.86357158300234,92.6560247919988,92.64773841699936,92.64850949999528,92.6560247919988,92.6560247919988,93.08162974999868,b,1.0,0.4204042089986615,,,,,,,,,,,,,,,,,,,,,,,,,,,,,,,,,,,,,,,,sub-173,1,stroop_test,,
test,red,r,1.0,3.0,0.0,1.0,r,1.0,0.6587606669927482,,,,,,,,,,,,,,,,,,1.0,0.0,3.0,0.0,,,,,,,,,93.09130016699784,,,,,,,,,,,,,,,,,93.0820257079904,93.18021599997884,93.9720030000026,93.96406112497787,93.96471299999394,93.9720030000026,93.9720030000026,94.63321458298014,r,1.0,0.6587606669927482,,,,,,,,,,,,,,,,,,,,,,,,,,,,,,,,,,,,,,,,sub-173,1,stroop_test,,
test,yellow,g,1.0,4.0,1.0,1.0,g,1.0,0.5080713750212453,,,,,,,,,,,,,,,,,,1.0,1.0,4.0,1.0,,,,,,,,,94.6430560000008,,,,,,,,,,,,,,,,,94.63359520799712,95.43025916698387,96.22284887498245,96.21458775000065,96.2153685829835,96.22284887498245,96.22284887498245,96.74325487497843,g,1.0,0.5080713750212453,,,,,,,,,,,,,,,,,,,,,,,,,,,,,,,,,,,,,,,,sub-173,1,stroop_test,,
test,blue,b,1.0,5.0,2.0,1.0,b,1.0,0.4675273750035558,,,,,,,,,,,,,,,,,,1.0,2.0,5.0,2.0,,,,,,,,,96.75177524998436,,,,,,,,,,,,,,,,,96.74368366698036,96.83813854199252,97.63878062498408,97.63080795799031,97.63145566699676,97.63878062498408,97.63878062498408,98.11577433298226,b,1.0,0.4675273750035558,,,,,,,,,,,,,,,,,,,,,,,,,,,,,,,,,,,,,,,,sub-173,1,stroop_test,,
test,blue,b,1.0,6.0,0.0,2.0,b,1.0,0.6255220829916652,,,,,,,,,,,,,,,,,,2.0,0.0,6.0,2.0,,,,,,,,,98.12568145798286,,,,,,,,,,,,,,,,,98.1161739579984,99.3135619169916,100.10558587498964,100.0975945419923,100.09823962498922,100.10558587498964,100.10558587498964,100.73997554197558,b,1.0,0.6255220829916652,,,,,,,,,,,,,,,,,,,,,,,,,,,,,,,,,,,,,,,,sub-173,1,stroop_test,,
test,yellow,g,1.0,7.0,1.0,2.0,g,1.0,0.5176050000009127,,,,,,,,,,,,,,,,,,2.0,1.0,7.0,1.0,,,,,,,,,100.74619620799784,,,,,,,,,,,,,,,,,100.74020362499868,101.08687187498435,101.87967379199108,101.87011208297918,101.87083624998922,101.87967379199108,101.87967379199108,102.3997279999894,g,1.0,0.5176050000009127,,,,,,,,,,,,,,,,,,,,,,,,,,,,,,,,,,,,,,,,sub-173,1,stroop_test,,
test,red,r,1.0,8.0,2.0,2.0,r,1.0,0.398385332984617,,,,,,,,,,,,,,,,,,2.0,2.0,8.0,0.0,,,,,,,,,102.40973574999953,,,,,,,,,,,,,,,,,102.40016124999966,102.49696466699244,103.28935674999956,103.28120924998076,103.28187645800062,103.28935674999956,103.28935674999956,103.69868574998692,r,1.0,0.398385332984617,,,,,,,,,,,,,,,,,,,,,,,,,,,,,,,,,,,,,,,,sub-173,1,stroop_test,,
test,red,r,1.0,9.0,0.0,3.0,r,1.0,0.7026561250095256,,,,,,,,,,,,,,,,,,3.0,0.0,9.0,0.0,,,,,,,,,103.7081739580026,,,,,,,,,,,,,,,,,103.6990651669912,104.04720083298162,104.83957662500325,104.83102033298928,104.83167254200087,104.83957662500325,104.83957662500325,105.54948975000298,r,1.0,0.7026561250095256,,,,,,,,,,,,,,,,,,,,,,,,,,,,,,,,,,,,,,,,sub-173,1,stroop_test,,
test,blue,b,1.0,10.0,1.0,3.0,b,1.0,0.6458632920111995,,,,,,,,,,,,,,,,,,3.0,1.0,10.0,2.0,,,,,,,,,105.55993320798734,,,,,,,,,,,,,,,,,105.55007712499356,105.64638695798932,106.43868208298228,106.43085299999802,106.43153141697984,106.43868208298228,106.43868208298228,107.08856587499032,b,1.0,0.6458632920111995,,,,,,,,,,,,,,,,,,,,,,,,,,,,,,,,,,,,,,,,sub-173,1,stroop_test,,
test,yellow,g,1.0,11.0,2.0,3.0,g,1.0,0.7687152919825166,,,,,,,,,,,,,,,,,,3.0,2.0,11.0,1.0,,,,,,,,,107.09883220799384,,,,,,,,,,,,,,,,,107.08894612497534,107.43655754197972,108.23897095798748,108.23092587498832,108.2315816670016,108.23897095798748,108.23897095798748,109.01559704198736,g,1.0,0.7687152919825166,,,,,,,,,,,,,,,,,,,,,,,,,,,,,,,,,,,,,,,,sub-173,1,stroop_test,,
,,,,,,,,,,,,,,,,,,,,,,,,,,,,,,,,,,,,,,,,,,,,,,,,,,,,,,,,,,,,,,,,,,,,109.0158098329848,109.02679966698634,109.02679966698634,118.63250637499732,space,9.600287207984366,,,,,,,,,,,,,,,,,,,,,,,,,,,,,,,,,sub-173,1,stroop_test,,
,,,,0.0,0.0,0.0,,,,,blau,yellow,g,0.0,g,1.0,1.5713461249833929,,,,,,,,,,,,,,0.0,0.0,0.0,7.0,,,,,118.65625070797978,,,,,,,,,,,,,,,,,118.64732083299896,118.98057162499754,119.77768420797656,119.76441679199344,,,,,,,,,,,,,,,,119.77028379199328,119.77768420797656,119.77768420797656,121.35537149998709,g,1.0,1.5713461249833929,,121.36225820798428,121.37279795799986,122.36391737498344,,,,,,,,,,,,,,,,,,,,,sub-173,1,stroop_test,,
,,,,1.0,1.0,0.0,,,,,gelb,yellow,g,1.0,g,1.0,1.1233488750003744,,,,,,,,,,,,,,0.0,1.0,1.0,11.0,,,,,122.3691503329901,,,,,,,,,,,,,,,,,122.36440441699231,122.45390758299618,123.2603673329868,123.24784370799898,,,,,,,,,,,,,,,,123.25289445798262,123.2603673329868,123.2603673329868,124.3885502499761,g,1.0,1.1233488750003744,,124.38913258299,124.40225883299718,125.38656120799716,125.3971649579762,,,,,,,,,,,,,,,,,,,,sub-173,1,stroop_test,,
,,,,2.0,2.0,0.0,,,,,rot,red,r,1.0,r,1.0,0.5615310409921221,,,,,,,,,,,,,,0.0,2.0,2.0,1.0,,,,,125.3971649579762,,,,,,,,,,,,,,,,,125.38703762498336,126.5866391249874,127.38216645800276,127.3699052919983,,,,,,,,,,,,,,,,127.3746014579956,127.38216645800276,127.38216645800276,127.94929099999716,r,1.0,0.5615310409921221,,127.94998641699203,127.9605239579978,128.94820849999087,128.95464829198318,,,,,,,,,,,,,,,,,,,,sub-173,1,stroop_test,,
,,,,3.0,3.0,0.0,,,,,rot,blue,b,0.0,b,1.0,1.275935000012396,,,,,,,,,,,,,,0.0,3.0,3.0,2.0,,,,,128.95464829198318,,,,,,,,,,,,,,,,,128.94871216698084,129.74730583297787,130.5392501669994,130.53135554198525,,,,,,,,,,,,,,,,130.53199304197915,130.5392501669994,130.5392501669994,131.82165599998552,b,1.0,1.275935000012396,,131.8222225419886,131.83310554199852,132.82102725000004,132.83048691699514,,,,,,,,,,,,,,,,,,,,sub-173,1,stroop_test,,
,,,,4.0,4.0,0.0,,,,,rot,red,r,1.0,r,1.0,0.89656695901067,,,,,,,,,,,,,,0.0,4.0,4.0,0.0,,,,,132.83048691699514,,,,,,,,,,,,,,,,,132.8215270829969,133.6204949579842,134.42262199998368,134.41461812498164,,,,,,,,,,,,,,,,134.41527279198635,134.42262199998368,134.42262199998368,135.32167299999855,r,1.0,0.89656695901067,,135.32223558297846,135.3331785829796,136.32110516697867,136.33039820799604,,,,,,,,,,,,,,,,,,,,sub-173,1,stroop_test,,
,,,,5.0,5.0,0.0,,,,,blau,red,r,0.0,r,1.0,0.8871194579987787,,,,,,,,,,,,,,0.0,5.0,5.0,4.0,,,,,136.33039820799604,,,,,,,,,,,,,,,,,136.32159395798226,137.52089508299832,138.32707770800334,138.31513833298231,,,,,,,,,,,,,,,,138.31979987499653,138.32707770800334,138.32707770800334,139.21670020799502,r,1.0,0.8871194579987787,,139.21735900000203,139.2284149999905,140.21457754197763,140.21989449998364,,,,,,,,,,,,,,,,,,,,sub-173,1,stroop_test,,
,,,,6.0,6.0,0.0,,,,,blau,blue,b,1.0,b,1.0,0.5972747500054538,,,,,,,,,,,,,,0.0,6.0,6.0,5.0,,,,,140.21989449998364,,,,,,,,,,,,,,,,,140.21503191700322,140.56426245797775,141.35598716698587,141.3480088749784,,,,,,,,,,,,,,,,141.34867716699955,141.35598716698587,141.35598716698587,141.95583616697695,b,1.0,0.5972747500054538,,141.95640804199502,141.96892912499607,142.95524349997868,142.96371462498792,,,,,,,,,,,,,,,,,,,,sub-173,1,stroop_test,,
,,,,7.0,7.0,0.0,,,,,rot,yellow,g,0.0,g,1.0,0.9820359169971198,,,,,,,,,,,,,,0.0,7.0,7.0,3.0,,,,,142.96371462498792,,,,,,,,,,,,,,,,,142.95569449997856,143.05388125000172,143.8599573749816,143.8482022919925,,,,,,,,,,,,,,,,143.85218566699768,143.8599573749816,143.8599573749816,144.84952045799582,g,1.0,0.9820359169971198,,144.85024862497812,144.86175129198818,145.84803633298725,145.85396174999187,,,,,,,,,,,,,,,,,,,,sub-173,1,stroop_test,,
,,,,8.0,8.0,0.0,,,,,blau,blue,b,1.0,b,1.0,0.5574675000098068,,,,,,,,,,,,,,0.0,8.0,8.0,6.0,,,,,145.85396174999187,,,,,,,,,,,,,,,,,145.84847916697618,145.94771391697577,146.74219900000026,146.73135004198411,,,,,,,,,,,,,,,,146.73500866699032,146.74219900000026,146.74219900000026,147.30445229198085,b,1.0,0.5574675000098068,,147.3051757499925,147.3162908749946,148.30350262499996,148.3141435419966,,,,,,,,,,,,,,,,,,,,sub-173,1,stroop_test,,
,,,,9.0,9.0,0.0,,,,,gelb,red,r,0.0,r,1.0,0.5941362500016112,,,,,,,,,,,,,,0.0,9.0,9.0,8.0,,,,,148.3141435419966,,,,,,,,,,,,,,,,,148.30396712498623,148.66282749999664,149.45974170797854,149.44795041700127,,,,,,,,,,,,,,,,149.4525252500025,149.45974170797854,149.45974170797854,150.05661466700258,r,1.0,0.5941362500016112,,150.05720762498095,150.06970733299386,151.05347766698105,151.0642482919793,,,,,,,,,,,,,,,,,,,,sub-173,1,stroop_test,,
,,,,10.0,10.0,0.0,,,,,gelb,yellow,g,1.0,g,1.0,0.5847003330127336,,,,,,,,,,,,,,0.0,10.0,10.0,10.0,,,,,151.0642482919793,,,,,,,,,,,,,,,,,151.05393687498872,151.40381274998072,152.20593858297798,152.1983645829896,,,,,,,,,,,,,,,,152.19904587499332,152.20593858297798,152.20593858297798,152.7993110829848,g,1.0,0.5847003330127336,,152.79989633298828,152.81069816698437,153.79818904199055,153.80425033299252,,,,,,,,,,,,,,,,,,,,sub-173,1,stroop_test,,
,,,,11.0,11.0,0.0,,,,,gelb,blue,b,0.0,b,1.0,0.6439518749830313,,,,,,,,,,,,,,0.0,11.0,11.0,9.0,,,,,153.80425033299252,,,,,,,,,,,,,,,,,153.79863820798346,153.89759941698867,154.6894359169819,154.68143720799708,,,,,,,,,,,,,,,,154.68212058299105,154.6894359169819,154.6894359169819,155.33868691697717,b,1.0,0.6439518749830313,,155.33926608299953,155.3501034579822,156.33656029199483,156.34746624997933,,,,,,,,,,,,,,,,,,,,sub-173,1,stroop_test,,
,,,,12.0,0.0,1.0,,,,,blau,yellow,g,0.0,g,1.0,0.5336898750101682,,,,,,,,,,,,,,1.0,0.0,12.0,7.0,,,,,156.34746624997933,,,,,,,,,,,,,,,,,156.33702762497705,157.53699408299872,158.34725529199932,158.3209822079807,,,,,,,,,,,,,,,,158.3244547919894,158.34725529199932,158.34725529199932,158.8834345829964,g,1.0,0.5336898750101682,,158.88401320797857,158.89496191698709,159.88147208298324,159.8870875419816,,,,,,,,,,,,,,,,,,,,sub-173,1,stroop_test,,
,,,,13.0,1.0,1.0,,,,,gelb,yellow,g,1.0,g,1.0,0.9381518750160468,,,,,,,,,,,,,,1.0,1.0,13.0,10.0,,,,,159.8870875419816,,,,,,,,,,,,,,,,,159.88193483298528,160.23085345799336,161.0269609169918,161.01509591698414,,,,,,,,,,,,,,,,161.01952750000055,161.0269609169918,161.0269609169918,161.97765887499554,g,1.0,0.9381518750160468,,161.97826016700128,161.987740749988,162.97175379199325,162.98045387500315,,,,,,,,,,,,,,,,,,,,sub-173,1,stroop_test,,
,,,,14.0,2.0,1.0,,,,,gelb,yellow,g,1.0,g,1.0,0.5430038330086973,,,,,,,,,,,,,,1.0,2.0,14.0,11.0,,,,,162.98045387500315,,,,,,,,,,,,,,,,,162.9722532919841,164.17099045799114,164.9638381669938,164.95474570797523,,,,,,,,,,,,,,,,164.95545312500326,164.9638381669938,164.9638381669938,165.51664370798972,g,1.0,0.5430038330086973,,165.51734529199894,165.52852958298172,166.5150781669945,166.5208865829918,,,,,,,,,,,,,,,,,,,,sub-173,1,stroop_test,,
,,,,15.0,3.0,1.0,,,,,rot,red,r,1.0,r,1.0,0.5377124999940861,,,,,,,,,,,,,,1.0,3.0,15.0,0.0,,,,,166.5208865829918,,,,,,,,,,,,,,,,,166.5155669169908,167.31432145799045,168.11038429199834,168.09848637497635,,,,,,,,,,,,,,,,168.10283383299247,168.11038429199834,168.11038429199834,168.65062829200178,r,1.0,0.5377124999940861,,168.65126016698196,168.6619327919907,169.64811687500332,169.65400487498846,,,,,,,,,,,,,,,,,,,,sub-173,1,stroop_test,,
,,,,16.0,4.0,1.0,,,,,rot,blue,b,0.0,b,1.0,0.5744392079941463,,,,,,,,,,,,,,1.0,4.0,16.0,2.0,,,,,169.65400487498846,,,,,,,,,,,,,,,,,169.64863716700347,169.9976082079811,170.79006370800198,170.78195770797902,,,,,,,,,,,,,,,,170.78266116700252,170.79006370800198,170.79006370800198,171.36697799997637,b,1.0,0.5744392079941463,,171.3676484579919,171.37854729199898,172.36503737498424,172.37103220800054,,,,,,,,,,,,,,,,,,,,sub-173,1,stroop_test,,
,,,,17.0,5.0,1.0,,,,,blau,red,r,0.0,r,1.0,0.5496182499919087,,,,,,,,,,,,,,1.0,5.0,17.0,4.0,,,,,172.37103220800054,,,,,,,,,,,,,,,,,172.36548812498222,173.5645384999807,174.36039833299583,174.34881774999667,,,,,,,,,,,,,,,,174.3528537079983,174.36039833299583,174.36039833299583,174.91627549999976,r,1.0,0.5496182499919087,,174.91685929198866,174.9277474169794,175.91501908298233,175.9209114999976,,,,,,,,,,,,,,,,,,,,sub-173,1,stroop_test,,
,,,,18.0,6.0,1.0,,,,,gelb,red,r,0.0,r,1.0,0.738894041016465,,,,,,,,,,,,,,1.0,6.0,18.0,8.0,,,,,175.9209114999976,,,,,,,,,,,,,,,,,175.91547429197817,176.01446474998374,176.81113249997725,176.79864774999442,,,,,,,,,,,,,,,,176.80356566698174,176.81113249997725,176.81113249997725,177.55564679199597,r,1.0,0.738894041016465,,177.55620854199515,177.56907129197498,178.55356233299244,178.5645607499755,,,,,,,,,,,,,,,,,,,,sub-173,1,stroop_test,,
,,,,19.0,7.0,1.0,,,,,rot,yellow,g,0.0,g,1.0,0.6506129170011263,,,,,,,,,,,,,,1.0,7.0,19.0,3.0,,,,,178.5645607499755,,,,,,,,,,,,,,,,,178.55393362499308,179.35334129197872,180.15021270798752,180.1383453749877,,,,,,,,,,,,,,,,180.14221016698866,180.15021270798752,180.15021270798752,180.8048666669929,g,1.0,0.6506129170011263,,180.80555008299416,180.81619337497975,181.8039237499761,181.8145248329965,,,,,,,,,,,,,,,,,,,,sub-173,1,stroop_test,,
,,,,20.0,8.0,1.0,,,,,rot,red,r,1.0,r,1.0,0.634136042004684,,,,,,,,,,,,,,1.0,8.0,20.0,1.0,,,,,181.8145248329965,,,,,,,,,,,,,,,,,181.8044434579788,182.15439829198291,182.9566142919939,182.94862254199688,,,,,,,,,,,,,,,,182.9492865829961,182.9566142919939,182.9566142919939,183.599950874981,r,1.0,0.634136042004684,,183.60069166700123,183.61166608298663,184.59841941698687,184.60415904197723,,,,,,,,,,,,,,,,,,,,sub-173,1,stroop_test,,
,,,,21.0,9.0,1.0,,,,,gelb,blue,b,0.0,b,1.0,0.5122400829859544,,,,,,,,,,,,,,1.0,9.0,21.0,9.0,,,,,184.60415904197723,,,,,,,,,,,,,,,,,184.5988850419817,184.69789037498413,185.49281712499211,185.481728416984,,,,,,,,,,,,,,,,185.4856287500006,185.49281712499211,185.49281712499211,186.0165655829769,b,1.0,0.5122400829859544,,186.01727650000248,186.0282073749986,187.0150663749955,187.0210354999872,,,,,,,,,,,,,,,,,,,,sub-173,1,stroop_test,,
,,,,22.0,10.0,1.0,,,,,blau,blue,b,1.0,b,1.0,0.539970457990421,,,,,,,,,,,,,,1.0,10.0,22.0,5.0,,,,,187.0210354999872,,,,,,,,,,,,,,,,,187.01553124998463,187.11475204199087,187.9111664169759,187.89874191698615,,,,,,,,,,,,,,,,187.9035969999968,187.9111664169759,187.9111664169759,188.45603037497492,b,1.0,0.539970457990421,,188.45673091697967,188.4693696670001,189.45484841699363,189.4642665830033,,,,,,,,,,,,,,,,,,,,sub-173,1,stroop_test,,
,,,,23.0,11.0,1.0,,,,,blau,blue,b,1.0,b,1.0,0.4418771250057034,,,,,,,,,,,,,,1.0,11.0,23.0,6.0,,,,,189.4642665830033,,,,,,,,,,,,,,,,,189.455313457991,190.65412558297976,191.4473166669777,191.4370820419863,,,,,,,,,,,,,,,,191.43771866700263,191.4473166669777,191.4473166669777,191.8998579579929,b,1.0,0.4418771250057034,,191.90043358298132,191.91141991698527,192.8985699999903,192.90618849999737,,,,,,,,,,,,,,,,,,,,sub-173,1,stroop_test,,
,,,,,,,,,,,,,,,,,,,,,,,,,,,,,,,,,,,,,,,,,,,,,,,,,,,,,,,,,,,,,,,,,,,,,,,,,,,,,,,,,,,,,,,192.89874241699,192.90618849999737,192.90618849999737,197.08915816698573,space,4.179259458003799,,,,,,,,,,,,,,sub-173,1,stroop_test,,
,,,,0.0,0.0,0.0,,,,,,,,,,,,,gelb,red,r,0.0,r,1.0,0.4954917499853764,,,,,,,,,,0.0,0.0,0.0,8.0,197.11322766699595,,,,,,,,,,,,,,,,,197.1038387499866,198.28802537499,199.09266745799687,199.08189283299728,,,,,,,,,,,,,,,,,,,,,,,,,,,,,,,,,,,199.08537041698585,199.09266745799687,199.09266745799687,199.5908292499953,r,1.0,0.4954917499853764,,,,,,sub-173,1,stroop_test,,
,,,,1.0,1.0,0.0,,,,,,,,,,,,,rot,red,r,1.0,r,1.0,0.4116588339966256,,,,,,,,,,0.0,1.0,1.0,0.0,199.6026369579777,,,,,,,,,,,,,,,,,199.5913631669828,199.93776083298144,200.7435692499857,200.73170670800027,,,,,,,,,,,,,,,,,,,,,,,,,,,,,,,,,,,200.73603687499417,200.7435692499857,200.7435692499857,201.15783695798015,r,1.0,0.4116588339966256,,,,,,sub-173,1,stroop_test,,
,,,,2.0,2.0,0.0,,,,,,,,,,,,,blau,blue,b,1.0,b,1.0,0.4649413750157691,,,,,,,,,,0.0,2.0,2.0,5.0,201.1690739999758,,,,,,,,,,,,,,,,,201.15841824997915,201.504785541998,202.30035449998104,202.2889057919965,,,,,,,,,,,,,,,,,,,,,,,,,,,,,,,,,,,202.2928676669835,202.30035449998104,202.30035449998104,202.7779067499796,b,1.0,0.4649413750157691,,,,,,sub-173,1,stroop_test,,
,,,,3.0,3.0,0.0,,,,,,,,,,,,,gelb,blue,b,0.0,b,1.0,0.4745990000083111,,,,,,,,,,0.0,3.0,3.0,9.0,202.7863415829779,,,,,,,,,,,,,,,,,202.77835333297844,203.97156720797648,204.7776934999856,204.76564541697732,,,,,,,,,,,,,,,,,,,,,,,,,,,,,,,,,,,204.77017783297924,204.7776934999856,204.7776934999856,205.25603387498995,b,1.0,0.4745990000083111,,,,,,sub-173,1,stroop_test,,
,,,,4.0,4.0,0.0,,,,,,,,,,,,,gelb,yellow,g,1.0,g,1.0,0.5614418339973781,,,,,,,,,,0.0,4.0,4.0,11.0,205.266918874986,,,,,,,,,,,,,,,,,205.25646408298053,206.05454341697623,206.84677454197663,206.83888870797816,,,,,,,,,,,,,,,,,,,,,,,,,,,,,,,,,,,206.83957291700065,206.84677454197663,206.84677454197663,207.41729220800332,g,1.0,0.5614418339973781,,,,,,sub-173,1,stroop_test,,
,,,,5.0,5.0,0.0,,,,,,,,,,,,,rot,blue,b,0.0,b,1.0,0.7051381249912083,,,,,,,,,,0.0,5.0,5.0,2.0,207.4274848329951,,,,,,,,,,,,,,,,,207.417833332991,207.7646689169924,208.560020874982,208.54868779197568,,,,,,,,,,,,,,,,,,,,,,,,,,,,,,,,,,,208.55270549998383,208.560020874982,208.560020874982,209.2771778749884,b,1.0,0.7051381249912083,,,,,,sub-173,1,stroop_test,,
,,,,6.0,6.0,0.0,,,,,,,,,,,,,rot,red,r,1.0,r,1.0,0.5719467500166502,,,,,,,,,,0.0,6.0,6.0,1.0,209.285257874988,,,,,,,,,,,,,,,,,209.2777212079964,209.62140437497877,210.4142015419784,210.40525474998867,,,,,,,,,,,,,,,,,,,,,,,,,,,,,,,,,,,210.4060219579842,210.4142015419784,210.4142015419784,210.9897594169888,r,1.0,0.5719467500166502,,,,,,sub-173,1,stroop_test,,
,,,,7.0,7.0,0.0,,,,,,,,,,,,,blau,blue,b,1.0,b,1.0,0.5579404580057599,,,,,,,,,,0.0,7.0,7.0,6.0,211.0001924999815,,,,,,,,,,,,,,,,,210.99020779199785,211.78860462497687,212.5842264169769,212.5722556669789,,,,,,,,,,,,,,,,,,,,,,,,,,,,,,,,,,,212.57660608299196,212.5842264169769,212.5842264169769,213.15036579198204,b,1.0,0.5579404580057599,,,,,,sub-173,1,stroop_test,,
,,,,8.0,8.0,0.0,,,,,,,,,,,,,blau,yellow,g,0.0,g,1.0,0.7524160410102922,,,,,,,,,,0.0,8.0,8.0,7.0,213.16040883297683,,,,,,,,,,,,,,,,,213.150908666983,213.49833962498812,214.29011924998483,214.28208574999007,,,,,,,,,,,,,,,,,,,,,,,,,,,,,,,,,,,214.2827804579865,214.29011924998483,214.29011924998483,215.050056957989,g,1.0,0.7524160410102922,,,,,,sub-173,1,stroop_test,,
,,,,9.0,9.0,0.0,,,,,,,,,,,,,blau,red,r,0.0,r,1.0,0.4526924160018097,,,,,,,,,,0.0,9.0,9.0,4.0,215.06033470798863,,,,,,,,,,,,,,,,,215.05061566698717,216.248097417003,217.04020995798052,217.03219220798928,,,,,,,,,,,,,,,,,,,,,,,,,,,,,,,,,,,217.032853666984,217.04020995798052,217.04020995798052,217.49980925000276,r,1.0,0.4526924160018097,,,,,,sub-173,1,stroop_test,,
,,,,10.0,10.0,0.0,,,,,,,,,,,,,rot,yellow,g,0.0,g,1.0,0.6343456250033341,,,,,,,,,,0.0,10.0,10.0,3.0,217.50976991700009,,,,,,,,,,,,,,,,,217.50024412499624,217.84832033299608,218.6437657919887,218.6320452079817,,,,,,,,,,,,,,,,,,,,,,,,,,,,,,,,,,,218.63654300000053,218.6437657919887,218.6437657919887,219.2832967499853,g,1.0,0.6343456250033341,,,,,,sub-173,1,stroop_test,,
,,,,11.0,11.0,0.0,,,,,,,,,,,,,gelb,yellow,g,1.0,g,1.0,0.5221315830131061,,,,,,,,,,0.0,11.0,11.0,10.0,219.29317999997875,,,,,,,,,,,,,,,,,219.28374625000288,219.6316194999963,220.42695774999447,220.41564854199527,,,,,,,,,,,,,,,,,,,,,,,,,,,,,,,,,,,220.419582832983,220.42695774999447,220.42695774999447,220.9580242499942,g,1.0,0.5221315830131061,,,,,,sub-173,1,stroop_test,,
,,,,12.0,0.0,1.0,,,,,,,,,,,,,blau,blue,b,1.0,b,1.0,0.4080910420161672,,,,,,,,,,1.0,0.0,12.0,5.0,220.96414391699363,,,,,,,,,,,,,,,,,220.95825441699708,221.3044567499892,222.11461874999804,222.08804670799876,,,,,,,,,,,,,,,,,,,,,,,,,,,,,,,,,,,222.09169333300088,222.11461874999804,222.11461874999804,222.5334580419876,b,1.0,0.4080910420161672,,,,,,sub-173,1,stroop_test,,
,,,,13.0,1.0,1.0,,,,,,,,,,,,,gelb,red,r,0.0,r,1.0,0.7009076249960344,,,,,,,,,,1.0,1.0,13.0,8.0,222.543368166982,,,,,,,,,,,,,,,,,222.53390054198096,222.63155591700345,223.4268465829955,223.415514332999,,,,,,,,,,,,,,,,,,,,,,,,,,,,,,,,,,,223.41938591699,223.4268465829955,223.4268465829955,224.13308462497665,r,1.0,0.7009076249960344,,,,,,sub-173,1,stroop_test,,
,,,,14.0,2.0,1.0,,,,,,,,,,,,,gelb,blue,b,0.0,b,1.0,0.8036422909935936,,,,,,,,,,1.0,2.0,14.0,9.0,224.1427732919983,,,,,,,,,,,,,,,,,224.13352804200255,224.48158791699095,225.2735074579832,225.26547349998145,,,,,,,,,,,,,,,,,,,,,,,,,,,,,,,,,,,225.26614349999,225.2735074579832,225.2735074579832,226.0842849999899,b,1.0,0.8036422909935936,,,,,,sub-173,1,stroop_test,,
,,,,15.0,3.0,1.0,,,,,,,,,,,,,rot,red,r,1.0,r,1.0,0.5550308329984546,,,,,,,,,,1.0,3.0,15.0,0.0,226.0946085829928,,,,,,,,,,,,,,,,,226.0848615829891,227.28166262499872,228.0772419169953,228.0658741249936,,,,,,,,,,,,,,,,,,,,,,,,,,,,,,,,,,,228.0697712499823,228.0772419169953,228.0772419169953,228.64481629198417,r,1.0,0.5550308329984546,,,,,,sub-173,1,stroop_test,,
,,,,16.0,4.0,1.0,,,,,,,,,,,,,blau,yellow,g,0.0,g,1.0,0.6834097909741104,,,,,,,,,,1.0,4.0,16.0,7.0,228.65358379198003,,,,,,,,,,,,,,,,,228.64526545797708,229.4382550829905,230.2478361669928,230.2219250419876,,,,,,,,,,,,,,,,,,,,,,,,,,,,,,,,,,,230.22526241699236,230.2478361669928,230.2478361669928,230.9337729169929,g,1.0,0.6834097909741104,,,,,,sub-173,1,stroop_test,,
,,,,17.0,5.0,1.0,,,,,,,,,,,,,gelb,yellow,g,1.0,g,1.0,0.5316202079993673,,,,,,,,,,1.0,5.0,17.0,10.0,230.943694082991,,,,,,,,,,,,,,,,,230.93422191697755,231.7317897499888,232.52776295799413,232.51571791697643,,,,,,,,,,,,,,,,,,,,,,,,,,,,,,,,,,,232.52033958298853,232.52776295799413,232.52776295799413,233.06709270799183,g,1.0,0.5316202079993673,,,,,,sub-173,1,stroop_test,,
,,,,18.0,6.0,1.0,,,,,,,,,,,,,gelb,yellow,g,1.0,g,1.0,0.4639241250115447,,,,,,,,,,1.0,6.0,18.0,11.0,233.07694274999085,,,,,,,,,,,,,,,,,233.06766191698264,234.26503112498904,235.0566467919853,235.0491323329916,,,,,,,,,,,,,,,,,,,,,,,,,,,,,,,,,,,235.0498252499965,235.0566467919853,235.0566467919853,235.53356149999308,g,1.0,0.4639241250115447,,,,,,sub-173,1,stroop_test,,
,,,,19.0,7.0,1.0,,,,,,,,,,,,,blau,red,r,0.0,r,1.0,0.4788073329837061,,,,,,,,,,1.0,7.0,19.0,4.0,235.5516975419887,,,,,,,,,,,,,,,,,235.53403854198405,235.88069333299063,236.67725079198132,236.6658142079832,,,,,,,,,,,,,,,,,,,,,,,,,,,,,,,,,,,236.6700732499885,236.67725079198132,236.67725079198132,237.1673740419792,r,1.0,0.4788073329837061,,,,,,sub-173,1,stroop_test,,
,,,,20.0,8.0,1.0,,,,,,,,,,,,,rot,blue,b,0.0,b,1.0,0.4439806249865796,,,,,,,,,,1.0,8.0,20.0,2.0,237.1776922919962,,,,,,,,,,,,,,,,,237.16793845797656,238.38175012500145,239.17676199998823,239.1658281669952,,,,,,,,,,,,,,,,,,,,,,,,,,,,,,,,,,,239.1693614169781,239.17676199998823,239.17676199998823,239.62286570799188,b,1.0,0.4439806249865796,,,,,,sub-173,1,stroop_test,,
,,,,21.0,9.0,1.0,,,,,,,,,,,,,rot,yellow,g,0.0,g,1.0,0.5375143339915667,,,,,,,,,,1.0,9.0,21.0,3.0,239.63465674998588,,,,,,,,,,,,,,,,,239.6232979579945,239.72119208300137,240.53179620800077,240.50460241700057,,,,,,,,,,,,,,,,,,,,,,,,,,,,,,,,,,,240.5052617499896,240.53179620800077,240.53179620800077,241.07291420799447,g,1.0,0.5375143339915667,,,,,,sub-173,1,stroop_test,,
,,,,22.0,10.0,1.0,,,,,,,,,,,,,rot,red,r,1.0,r,1.0,0.365811458992539,,,,,,,,,,1.0,10.0,22.0,1.0,241.0839540419984,,,,,,,,,,,,,,,,,241.0733599999803,241.87160708298325,242.67412454198347,242.6659491249884,,,,,,,,,,,,,,,,,,,,,,,,,,,,,,,,,,,242.66663629197865,242.67412454198347,242.67412454198347,243.0501397079788,r,1.0,0.365811458992539,,,,,,sub-173,1,stroop_test,,
,,,,23.0,11.0,1.0,,,,,,,,,,,,,blau,blue,b,1.0,b,1.0,0.4548562919953838,,,,,,,,,,1.0,11.0,23.0,6.0,243.0600007920002,,,,,,,,,,,,,,,,,243.05059412500125,244.248623958003,245.0442664579896,245.03235199998016,,,,,,,,,,,,,,,,,,,,,,,,,,,,,,,,,,,245.037012832996,245.0442664579896,245.0442664579896,245.5113848329929,b,1.0,0.4548562919953838,,,,,,sub-173,1,stroop_test,,
,,,,24.0,0.0,2.0,,,,,,,,,,,,,rot,red,r,1.0,r,1.0,0.8502539999899454,,,,,,,,,,2.0,0.0,24.0,0.0,245.5192370419973,,,,,,,,,,,,,,,,,245.51184370799456,245.6052005829988,246.4148020829889,246.38867712498177,,,,,,,,,,,,,,,,,,,,,,,,,,,,,,,,,,,246.39207816700215,246.4148020829889,246.4148020829889,247.2675324169977,r,1.0,0.8502539999899454,,,,,,sub-173,1,stroop_test,,
,,,,25.0,1.0,2.0,,,,,,,,,,,,,gelb,yellow,g,1.0,g,1.0,0.4609001660137437,,,,,,,,,,2.0,1.0,25.0,10.0,247.27747787500263,,,,,,,,,,,,,,,,,247.26804737499333,248.06530145800207,248.8597393329837,248.84891349999816,,,,,,,,,,,,,,,,,,,,,,,,,,,,,,,,,,,248.8524527080008,248.8597393329837,248.8597393329837,249.32316775000072,g,1.0,0.4609001660137437,,,,,,sub-173,1,stroop_test,,
,,,,26.0,2.0,2.0,,,,,,,,,,,,,blau,blue,b,1.0,b,1.0,0.4400920420011971,,,,,,,,,,2.0,2.0,26.0,5.0,249.33395779199785,,,,,,,,,,,,,,,,,249.3235972079856,250.1224098749808,250.92778166697823,250.91609733298537,,,,,,,,,,,,,,,,,,,,,,,,,,,,,,,,,,,250.920595707983,250.92778166697823,250.92778166697823,251.3729207080032,b,1.0,0.4400920420011971,,,,,,sub-173,1,stroop_test,,
,,,,27.0,3.0,2.0,,,,,,,,,,,,,blau,blue,b,1.0,b,1.0,0.5148929999850225,,,,,,,,,,2.0,3.0,27.0,6.0,251.39880254198212,,,,,,,,,,,,,,,,,251.37335116698523,251.72190391700133,252.52403299999423,252.51587783297876,,,,,,,,,,,,,,,,,,,,,,,,,,,,,,,,,,,252.516550832981,252.52403299999423,252.52403299999423,253.0501710829849,b,1.0,0.5148929999850225,,,,,,sub-173,1,stroop_test,,
,,,,28.0,4.0,2.0,,,,,,,,,,,,,rot,blue,b,0.0,r,0.0,0.5370363749971148,,,,,,,,,,2.0,4.0,28.0,2.0,253.05987837500288,,,,,,,,,,,,,,,,,253.05060141699505,254.2486169579788,255.04539479198863,255.03287358299715,,,,,,,,,,,,,,,,,,,,,,,,,,,,,,,,,,,255.0375113329792,255.04539479198863,255.04539479198863,255.58474095800196,r,0.0,0.5370363749971148,,,,,,sub-173,1,stroop_test,,
,,,,29.0,5.0,2.0,,,,,,,,,,,,,gelb,red,r,0.0,r,1.0,0.7977011660113931,,,,,,,,,,2.0,5.0,29.0,8.0,255.59486766697955,,,,,,,,,,,,,,,,,255.58518349999213,256.7819759580016,257.577989582991,257.5661467079772,,,,,,,,,,,,,,,,,,,,,,,,,,,,,,,,,,,257.57048658299027,257.577989582991,257.577989582991,258.38423995798803,r,1.0,0.7977011660113931,,,,,,sub-173,1,stroop_test,,
,,,,30.0,6.0,2.0,,,,,,,,,,,,,gelb,yellow,g,1.0,g,1.0,0.6119769170181826,,,,,,,,,,2.0,6.0,30.0,11.0,258.3950273329974,,,,,,,,,,,,,,,,,258.3849331669917,258.4819511669921,259.27318150000065,259.26561858298373,,,,,,,,,,,,,,,,,,,,,,,,,,,,,,,,,,,259.26627133297734,259.27318150000065,259.27318150000065,259.88992229200085,g,1.0,0.6119769170181826,,,,,,sub-173,1,stroop_test,,
,,,,31.0,7.0,2.0,,,,,,,,,,,,,gelb,blue,b,0.0,b,1.0,0.5937987500219606,,,,,,,,,,2.0,7.0,31.0,9.0,259.9150528329774,,,,,,,,,,,,,,,,,259.8903593749856,259.9816798749962,260.7733134999871,260.7657811669924,,,,,,,,,,,,,,,,,,,,,,,,,,,,,,,,,,,260.7664712079859,260.7733134999871,260.7733134999871,261.3734611669788,b,1.0,0.5937987500219606,,,,,,sub-173,1,stroop_test,,
,,,,32.0,8.0,2.0,,,,,,,,,,,,,rot,yellow,g,0.0,g,1.0,0.8642994170077145,,,,,,,,,,2.0,8.0,32.0,3.0,261.38424508299795,,,,,,,,,,,,,,,,,261.3739996669756,262.1722887079813,262.96819074999075,262.95573337498354,,,,,,,,,,,,,,,,,,,,,,,,,,,,,,,,,,,262.9593287919997,262.96819074999075,262.96819074999075,263.84518837498035,g,1.0,0.8642994170077145,,,,,,sub-173,1,stroop_test,,
,,,,33.0,9.0,2.0,,,,,,,,,,,,,blau,yellow,g,0.0,g,1.0,0.5330750000139233,,,,,,,,,,2.0,9.0,33.0,7.0,263.8537199579878,,,,,,,,,,,,,,,,,263.84564541699365,264.18914849997964,264.9938380419917,264.9826692499919,,,,,,,,,,,,,,,,,,,,,,,,,,,,,,,,,,,264.98664354198263,264.9938380419917,264.9938380419917,265.53436820799834,g,1.0,0.5330750000139233,,,,,,sub-173,1,stroop_test,,
,,,,34.0,10.0,2.0,,,,,,,,,,,,,rot,red,r,1.0,r,1.0,0.5112620829895604,,,,,,,,,,2.0,10.0,34.0,1.0,265.544427041983,,,,,,,,,,,,,,,,,265.5348815829784,266.3321905419871,267.12528237499646,267.115854499978,,,,,,,,,,,,,,,,,,,,,,,,,,,,,,,,,,,267.1186842499883,267.12528237499646,267.12528237499646,267.6406910419755,r,1.0,0.5112620829895604,,,,,,sub-173,1,stroop_test,,
,,,,35.0,11.0,2.0,,,,,,,,,,,,,blau,red,r,0.0,r,1.0,0.4937113340129144,,,,,,,,,,2.0,11.0,35.0,4.0,267.65115079199313,,,,,,,,,,,,,,,,,267.64125079198857,268.43839258298976,269.235125666979,269.2224722079991,,,,,,,,,,,,,,,,,,,,,,,,,,,,,,,,,,,269.22609291700064,269.235125666979,269.235125666979,269.7341439169832,r,1.0,0.4937113340129144,,,,,,sub-173,1,stroop_test,,
,,,,36.0,0.0,3.0,,,,,,,,,,,,,rot,red,r,1.0,r,1.0,0.4891605830052867,,,,,,,,,,3.0,0.0,36.0,0.0,269.74421162498766,,,,,,,,,,,,,,,,,269.7346879999968,270.53209629197954,271.3272710829915,271.3160470829753,,,,,,,,,,,,,,,,,,,,,,,,,,,,,,,,,,,271.31987612499506,271.3272710829915,271.3272710829915,271.82347179198405,r,1.0,0.4891605830052867,,,,,,sub-173,1,stroop_test,,
,,,,37.0,1.0,3.0,,,,,,,,,,,,,gelb,yellow,g,1.0,g,1.0,0.620879458001582,,,,,,,,,,3.0,1.0,37.0,11.0,271.8344585419982,,,,,,,,,,,,,,,,,271.8239023749775,273.0223624999926,273.8281054169929,273.81617758297944,,,,,,,,,,,,,,,,,,,,,,,,,,,,,,,,,,,273.8208478750021,273.8281054169929,273.8281054169929,274.4513494579878,g,1.0,0.620879458001582,,,,,,sub-173,1,stroop_test,,
,,,,38.0,2.0,3.0,,,,,,,,,,,,,rot,blue,b,0.0,b,1.0,0.69737191699096,,,,,,,,,,3.0,2.0,38.0,2.0,274.4612949999864,,,,,,,,,,,,,,,,,274.451799249975,275.24877904198365,276.04507066699443,276.03305137497955,,,,,,,,,,,,,,,,,,,,,,,,,,,,,,,,,,,276.03747079198365,276.04507066699443,276.04507066699443,276.75056320798467,b,1.0,0.69737191699096,,,,,,sub-173,1,stroop_test,,
,,,,39.0,3.0,3.0,,,,,,,,,,,,,gelb,red,r,0.0,r,1.0,0.6128065000229981,,,,,,,,,,3.0,3.0,39.0,8.0,276.7603628329816,,,,,,,,,,,,,,,,,276.7510094579775,277.54882749999524,278.34478858299553,278.3330529999803,,,,,,,,,,,,,,,,,,,,,,,,,,,,,,,,,,,278.33727112499764,278.34478858299553,278.34478858299553,278.9677382079826,r,1.0,0.6128065000229981,,,,,,sub-173,1,stroop_test,,
,,,,40.0,4.0,3.0,,,,,,,,,,,,,blau,blue,b,1.0,b,1.0,0.5056730420037638,,,,,,,,,,3.0,4.0,40.0,5.0,278.9779263329983,,,,,,,,,,,,,,,,,278.9682944999949,279.765081791993,280.5608721250028,280.5493350829929,,,,,,,,,,,,,,,,,,,,,,,,,,,,,,,,,,,280.55345112498617,280.5608721250028,280.5608721250028,281.0724431669805,b,1.0,0.5056730420037638,,,,,,sub-173,1,stroop_test,,
,,,,41.0,5.0,3.0,,,,,,,,,,,,,gelb,yellow,g,1.0,g,1.0,0.6015522500092629,,,,,,,,,,3.0,5.0,41.0,10.0,281.0816249999916,,,,,,,,,,,,,,,,,281.0726694169862,281.1712913749798,281.9656782919774,281.9546561249881,,,,,,,,,,,,,,,,,,,,,,,,,,,,,,,,,,,281.95847974999924,281.9656782919774,281.9656782919774,282.57359933300177,g,1.0,0.6015522500092629,,,,,,sub-173,1,stroop_test,,
,,,,42.0,6.0,3.0,,,,,,,,,,,,,rot,yellow,g,0.0,g,1.0,0.9337979170086328,,,,,,,,,,3.0,6.0,42.0,3.0,282.585539666994,,,,,,,,,,,,,,,,,282.5740398329799,282.67066670799977,283.48212954198243,283.4549596249999,,,,,,,,,,,,,,,,,,,,,,,,,,,,,,,,,,,283.4575576669886,283.48212954198243,283.48212954198243,284.4184204999765,g,1.0,0.9337979170086328,,,,,,sub-173,1,stroop_test,,
,,,,43.0,7.0,3.0,,,,,,,,,,,,,blau,blue,b,1.0,b,1.0,0.5984000000171363,,,,,,,,,,3.0,7.0,43.0,6.0,284.428182957985,,,,,,,,,,,,,,,,,284.41898849999416,285.21549420797965,286.01056862500263,285.99963562499033,,,,,,,,,,,,,,,,,,,,,,,,,,,,,,,,,,,286.0032680419972,286.01056862500263,286.01056862500263,286.61721954197856,b,1.0,0.5984000000171363,,,,,,sub-173,1,stroop_test,,
,,,,44.0,8.0,3.0,,,,,,,,,,,,,blau,yellow,g,0.0,g,1.0,0.8407342919963412,,,,,,,,,,3.0,8.0,44.0,7.0,286.6270837079792,,,,,,,,,,,,,,,,,286.61767366700224,287.8155540000007,288.6083268329967,288.5996799169807,,,,,,,,,,,,,,,,,,,,,,,,,,,,,,,,,,,288.60048541700235,288.6083268329967,288.6083268329967,289.451748958003,g,1.0,0.8407342919963412,,,,,,sub-173,1,stroop_test,,
,,,,45.0,9.0,3.0,,,,,,,,,,,,,rot,red,r,1.0,r,1.0,0.6567547919985373,,,,,,,,,,3.0,9.0,45.0,1.0,289.462020957988,,,,,,,,,,,,,,,,,289.4523337499995,289.7988963749958,290.5941025829816,290.5829923329875,,,,,,,,,,,,,,,,,,,,,,,,,,,,,,,,,,,290.58693958297954,290.5941025829816,290.5941025829816,291.2572615829995,r,1.0,0.6567547919985373,,,,,,sub-173,1,stroop_test,,
,,,,46.0,10.0,3.0,,,,,,,,,,,,,gelb,blue,b,0.0,b,1.0,0.6242769999953452,,,,,,,,,,3.0,10.0,46.0,9.0,291.2681002919853,,,,,,,,,,,,,,,,,291.2578275830019,291.6057127919921,292.4107552919886,292.39954549999675,,,,,,,,,,,,,,,,,,,,,,,,,,,,,,,,,,,292.40335479198257,292.4107552919886,292.4107552919886,293.0404564169876,b,1.0,0.6242769999953452,,,,,,sub-173,1,stroop_test,,
,,,,47.0,11.0,3.0,,,,,,,,,,,,,blau,red,r,0.0,r,1.0,0.6425164169922937,,,,,,,,,,3.0,11.0,47.0,4.0,293.0515217499924,,,,,,,,,,,,,,,,,293.0408930830017,294.2389263749937,295.04360512498533,295.0329430419952,,,,,,,,,,,,,,,,,,,,,,,,,,,,,,,,,,,295.0364384169807,295.04360512498533,295.04360512498533,295.6903227499861,r,1.0,0.6425164169922937,,,,,,sub-173,1,stroop_test,,
,,,,48.0,0.0,4.0,,,,,,,,,,,,,gelb,red,r,0.0,r,1.0,0.6174509169941302,,,,,,,,,,4.0,0.0,48.0,8.0,295.7012448329769,,,,,,,,,,,,,,,,,295.6907662919839,296.0377096669981,296.832249041996,296.8219478749961,,,,,,,,,,,,,,,,,,,,,,,,,,,,,,,,,,,296.82508316700114,296.832249041996,296.832249041996,297.4552626249788,r,1.0,0.6174509169941302,,,,,,sub-173,1,stroop_test,,
,,,,49.0,1.0,4.0,,,,,,,,,,,,,blau,blue,b,1.0,b,1.0,0.538105290994281,,,,,,,,,,4.0,1.0,49.0,5.0,297.46519062499283,,,,,,,,,,,,,,,,,297.4556039579911,298.25408266700106,299.04840641698684,299.0380347079772,,,,,,,,,,,,,,,,,,,,,,,,,,,,,,,,,,,299.0412245419866,299.04840641698684,299.04840641698684,299.59058316698065,b,1.0,0.538105290994281,,,,,,sub-173,1,stroop_test,,
,,,,50.0,2.0,4.0,,,,,,,,,,,,,rot,yellow,g,0.0,g,1.0,0.7240534999873489,,,,,,,,,,4.0,2.0,50.0,3.0,299.60922283297987,,,,,,,,,,,,,,,,,299.5910233749892,300.7880029999942,301.5923102919769,301.58271066698944,,,,,,,,,,,,,,,,,,,,,,,,,,,,,,,,,,,301.5853011669824,301.5923102919769,301.5923102919769,302.3290202920034,g,1.0,0.7240534999873489,,,,,,sub-173,1,stroop_test,,
,,,,51.0,3.0,4.0,,,,,,,,,,,,,rot,red,r,1.0,r,1.0,0.4678407500032335,,,,,,,,,,4.0,3.0,51.0,0.0,302.3371787919896,,,,,,,,,,,,,,,,,302.3294669169991,303.52111620799406,304.3150957499747,304.3049355419935,,,,,,,,,,,,,,,,,,,,,,,,,,,,,,,,,,,304.30561270797625,304.3150957499747,304.3150957499747,304.7952075829962,r,1.0,0.4678407500032335,,,,,,sub-173,1,stroop_test,,
,,,,52.0,4.0,4.0,,,,,,,,,,,,,gelb,blue,b,0.0,b,1.0,0.5110728750005364,,,,,,,,,,4.0,4.0,52.0,9.0,304.80323195797973,,,,,,,,,,,,,,,,,304.7956576249853,305.1385411669908,305.94875641699764,305.9218414579809,,,,,,,,,,,,,,,,,,,,,,,,,,,,,,,,,,,305.925814666989,305.94875641699764,305.94875641699764,306.4677835829789,b,1.0,0.5110728750005364,,,,,,sub-173,1,stroop_test,,
,,,,53.0,5.0,4.0,,,,,,,,,,,,,blau,blue,b,1.0,b,1.0,0.4546994580014143,,,,,,,,,,4.0,5.0,53.0,6.0,306.4776081669843,,,,,,,,,,,,,,,,,306.46823474997655,307.26574287499534,308.06171849998645,308.0496815419756,,,,,,,,,,,,,,,,,,,,,,,,,,,,,,,,,,,308.05436816698057,308.06171849998645,308.06171849998645,308.5291021669982,b,1.0,0.4546994580014143,,,,,,sub-173,1,stroop_test,,
,,,,54.0,6.0,4.0,,,,,,,,,,,,,blau,red,r,0.0,r,1.0,0.577135041996371,,,,,,,,,,4.0,6.0,54.0,4.0,308.537569416978,,,,,,,,,,,,,,,,,308.529541707976,309.3233652079944,310.12438612498227,310.1163475420035,,,,,,,,,,,,,,,,,,,,,,,,,,,,,,,,,,,310.11699295797735,310.12438612498227,310.12438612498227,310.7066893329902,r,1.0,0.577135041996371,,,,,,sub-173,1,stroop_test,,
,,,,55.0,7.0,4.0,,,,,,,,,,,,,gelb,yellow,g,1.0,g,1.0,0.4555858749954495,,,,,,,,,,4.0,7.0,55.0,11.0,310.7321899169765,,,,,,,,,,,,,,,,,310.707115666999,311.9059191669803,312.7105585419922,312.6998639169906,,,,,,,,,,,,,,,,,,,,,,,,,,,,,,,,,,,312.7032589579758,312.7105585419922,312.7105585419922,313.16859424998984,g,1.0,0.4555858749954495,,,,,,sub-173,1,stroop_test,,
,,,,56.0,8.0,4.0,,,,,,,,,,,,,rot,blue,b,0.0,b,1.0,0.7077517499856185,,,,,,,,,,4.0,8.0,56.0,2.0,313.1785424169793,,,,,,,,,,,,,,,,,313.16910045797704,313.51598187498166,314.3124670419784,314.30030570799136,,,,,,,,,,,,,,,,,,,,,,,,,,,,,,,,,,,314.30474783299724,314.3124670419784,314.3124670419784,315.02390512498096,b,1.0,0.7077517499856185,,,,,,sub-173,1,stroop_test,,
,,,,57.0,9.0,4.0,,,,,,,,,,,,,blau,yellow,g,0.0,g,1.0,0.5106964170117863,,,,,,,,,,4.0,9.0,57.0,7.0,315.0344413330022,,,,,,,,,,,,,,,,,315.0243322500028,316.2224190419947,317.0277937919891,317.01658187498106,,,,,,,,,,,,,,,,,,,,,,,,,,,,,,,,,,,317.02050816698465,317.0277937919891,317.0277937919891,317.54121112497523,g,1.0,0.5106964170117863,,,,,,sub-173,1,stroop_test,,
,,,,58.0,10.0,4.0,,,,,,,,,,,,,gelb,yellow,g,1.0,g,1.0,0.4943677080154884,,,,,,,,,,4.0,10.0,58.0,10.0,317.5512637499778,,,,,,,,,,,,,,,,,317.5416415829968,317.8890181669849,318.6914692919818,318.6827903749945,,,,,,,,,,,,,,,,,,,,,,,,,,,,,,,,,,,318.6851027919911,318.6914692919818,318.6914692919818,319.1902052079968,g,1.0,0.4943677080154884,,,,,,sub-173,1,stroop_test,,
,,,,59.0,11.0,4.0,,,,,,,,,,,,,rot,red,r,1.0,r,1.0,0.5886670000036247,,,,,,,,,,4.0,11.0,59.0,1.0,319.2155827919778,,,,,,,,,,,,,,,,,319.19062020798447,319.28869887499604,320.0848887079919,320.0722985829925,,,,,,,,,,,,,,,,,,,,,,,,,,,,,,,,,,,320.07682333298726,320.0848887079919,320.0848887079919,320.6847632499994,r,1.0,0.5886670000036247,,,,,,sub-173,1,stroop_test,,
,,,,60.0,0.0,5.0,,,,,,,,,,,,,rot,red,r,1.0,r,1.0,0.5362382500024978,,,,,,,,,,5.0,0.0,60.0,0.0,320.69491212497815,,,,,,,,,,,,,,,,,320.68534295799327,320.7821244999941,321.57420891697984,321.5663931669842,,,,,,,,,,,,,,,,,,,,,,,,,,,,,,,,,,,321.5670519169944,321.57420891697984,321.57420891697984,322.11769762498443,r,1.0,0.5362382500024978,,,,,,sub-173,1,stroop_test,,
,,,,61.0,1.0,5.0,,,,,,,,,,,,,gelb,red,r,0.0,r,1.0,0.6003424589871429,,,,,,,,,,5.0,1.0,61.0,8.0,322.1276186670002,,,,,,,,,,,,,,,,,322.1181510829774,322.21596279199,323.0111279169796,322.9998510000005,,,,,,,,,,,,,,,,,,,,,,,,,,,,,,,,,,,323.00378908298444,323.0111279169796,323.0111279169796,323.6176994580019,r,1.0,0.6003424589871429,,,,,,sub-173,1,stroop_test,,
,,,,62.0,2.0,5.0,,,,,,,,,,,,,gelb,yellow,g,1.0,g,1.0,0.5054915000218898,,,,,,,,,,5.0,2.0,62.0,11.0,323.6275325419847,,,,,,,,,,,,,,,,,323.61813545797486,323.96592349998537,324.7578260419832,324.74989949999144,,,,,,,,,,,,,,,,,,,,,,,,,,,,,,,,,,,324.75054016697686,324.7578260419832,324.7578260419832,325.2675051249971,g,1.0,0.5054915000218898,,,,,,sub-173,1,stroop_test,,
,,,,63.0,3.0,5.0,,,,,,,,,,,,,blau,blue,b,1.0,b,1.0,0.4463407500006724,,,,,,,,,,5.0,3.0,63.0,6.0,325.27722995798104,,,,,,,,,,,,,,,,,325.2679403749935,325.6159512079903,326.41300624998985,326.39982604197576,,,,,,,,,,,,,,,,,,,,,,,,,,,,,,,,,,,326.4056490419898,326.41300624998985,326.41300624998985,326.86710183299147,b,1.0,0.4463407500006724,,,,,,sub-173,1,stroop_test,,
,,,,64.0,4.0,5.0,,,,,,,,,,,,,gelb,yellow,g,1.0,g,1.0,0.5685762499924749,,,,,,,,,,5.0,4.0,64.0,10.0,326.8741663330002,,,,,,,,,,,,,,,,,326.867567749985,327.6661987499974,328.46102562500164,328.4499614169763,,,,,,,,,,,,,,,,,,,,,,,,,,,,,,,,,,,328.4538747499755,328.46102562500164,328.46102562500164,329.03458495798986,g,1.0,0.5685762499924749,,,,,,sub-173,1,stroop_test,,
,,,,65.0,5.0,5.0,,,,,,,,,,,,,blau,yellow,g,0.0,g,1.0,0.5554760830127634,,,,,,,,,,5.0,5.0,65.0,7.0,329.04613599999,,,,,,,,,,,,,,,,,329.0350662919809,329.1327893330017,329.9276474999788,329.9165619169944,,,,,,,,,,,,,,,,,,,,,,,,,,,,,,,,,,,329.92052129199146,329.9276474999788,329.9276474999788,330.48569004199817,g,1.0,0.5554760830127634,,,,,,sub-173,1,stroop_test,,
,,,,66.0,6.0,5.0,,,,,,,,,,,,,rot,yellow,g,0.0,g,1.0,0.489076166995801,,,,,,,,,,5.0,6.0,66.0,3.0,330.4957859169808,,,,,,,,,,,,,,,,,330.4862773749919,331.68272729197633,332.4780097079929,332.4667305419862,,,,,,,,,,,,,,,,,,,,,,,,,,,,,,,,,,,332.47059899999294,332.4780097079929,332.4780097079929,332.9733546669886,g,1.0,0.489076166995801,,,,,,sub-173,1,stroop_test,,
,,,,67.0,7.0,5.0,,,,,,,,,,,,,rot,red,r,1.0,r,1.0,0.4047131669940427,,,,,,,,,,5.0,7.0,67.0,1.0,332.99905766698066,,,,,,,,,,,,,,,,,332.9737890829856,333.7733661669772,334.57481312498567,334.5666483329842,,,,,,,,,,,,,,,,,,,,,,,,,,,,,,,,,,,334.56732241698774,334.57481312498567,334.57481312498567,334.9847610829747,r,1.0,0.4047131669940427,,,,,,sub-173,1,stroop_test,,
,,,,68.0,8.0,5.0,,,,,,,,,,,,,gelb,blue,b,0.0,b,1.0,0.5855247080035042,,,,,,,,,,5.0,8.0,68.0,9.0,334.9943282500026,,,,,,,,,,,,,,,,,334.9852097919793,335.7826633749937,336.57763104198966,336.5666124999989,,,,,,,,,,,,,,,,,,,,,,,,,,,,,,,,,,,336.57054970797617,336.57763104198966,336.57763104198966,337.1681392499886,b,1.0,0.5855247080035042,,,,,,sub-173,1,stroop_test,,
,,,,69.0,9.0,5.0,,,,,,,,,,,,,blau,red,r,0.0,r,1.0,0.7516503329970874,,,,,,,,,,5.0,9.0,69.0,4.0,337.1778845419758,,,,,,,,,,,,,,,,,337.168635332986,338.3660672919941,339.1611876669922,339.1499534999893,,,,,,,,,,,,,,,,,,,,,,,,,,,,,,,,,,,339.15386379198753,339.1611876669922,339.1611876669922,339.91770454199286,r,1.0,0.7516503329970874,,,,,,sub-173,1,stroop_test,,
,,,,70.0,10.0,5.0,,,,,,,,,,,,,rot,blue,b,0.0,b,1.0,0.6525097080157138,,,,,,,,,,5.0,10.0,70.0,2.0,339.9272967919824,,,,,,,,,,,,,,,,,339.918149916979,340.0162042499869,340.8085552499979,340.7999528749788,,,,,,,,,,,,,,,,,,,,,,,,,,,,,,,,,,,340.80300033299136,340.8085552499979,340.8085552499979,341.46810949998326,b,1.0,0.6525097080157138,,,,,,sub-173,1,stroop_test,,
,,,,71.0,11.0,5.0,,,,,,,,,,,,,blau,blue,b,1.0,b,1.0,0.4998276669939514,,,,,,,,,,5.0,11.0,71.0,5.0,341.4770297079813,,,,,,,,,,,,,,,,,341.4683974169893,341.5657815829909,342.36172529199393,342.3504140419828,,,,,,,,,,,,,,,,,,,,,,,,,,,,,,,,,,,342.3543695829867,342.36172529199393,342.36172529199393,342.86775016700267,b,1.0,0.4998276669939514,,,,,,sub-173,1,stroop_test,,
,,,,72.0,0.0,6.0,,,,,,,,,,,,,rot,blue,b,0.0,b,1.0,0.6163497910019942,,,,,,,,,,6.0,0.0,72.0,2.0,342.877745167003,,,,,,,,,,,,,,,,,342.8681855000032,343.2163831249927,344.0118864999968,344.0005952499924,,,,,,,,,,,,,,,,,,,,,,,,,,,,,,,,,,,344.00438912498066,344.0118864999968,344.0118864999968,344.63487120799255,b,1.0,0.6163497910019942,,,,,,sub-173,1,stroop_test,,
,,,,73.0,1.0,6.0,,,,,,,,,,,,,gelb,yellow,g,1.0,g,1.0,0.5392486670170911,,,,,,,,,,6.0,1.0,73.0,11.0,344.6455117079895,,,,,,,,,,,,,,,,,344.6355161249812,344.7328654169978,345.52962783299154,345.5170447079872,,,,,,,,,,,,,,,,,,,,,,,,,,,,,,,,,,,345.521908374998,345.52962783299154,345.52962783299154,346.07411099999445,g,1.0,0.5392486670170911,,,,,,sub-173,1,stroop_test,,
,,,,74.0,2.0,6.0,,,,,,,,,,,,,gelb,red,r,0.0,r,1.0,0.444062374997884,,,,,,,,,,6.0,2.0,74.0,8.0,346.0849498749885,,,,,,,,,,,,,,,,,346.074531374994,346.4230539169803,347.2244825419912,347.2166825829772,,,,,,,,,,,,,,,,,,,,,,,,,,,,,,,,,,,347.21733683298226,347.2244825419912,347.2244825419912,347.6734230829752,r,1.0,0.444062374997884,,,,,,sub-173,1,stroop_test,,
,,,,75.0,3.0,6.0,,,,,,,,,,,,,blau,blue,b,1.0,b,1.0,0.4828227499965578,,,,,,,,,,6.0,3.0,75.0,5.0,347.69900995798525,,,,,,,,,,,,,,,,,347.67385429199203,348.0229061249993,348.8281918749853,348.8169629579934,,,,,,,,,,,,,,,,,,,,,,,,,,,,,,,,,,,348.82087929197587,348.8281918749853,348.8281918749853,349.3183168329997,b,1.0,0.4828227499965578,,,,,,sub-173,1,stroop_test,,
,,,,76.0,4.0,6.0,,,,,,,,,,,,,gelb,yellow,g,1.0,g,1.0,0.5465085000032559,,,,,,,,,,6.0,4.0,76.0,10.0,349.3281557500013,,,,,,,,,,,,,,,,,349.3187974999892,350.115985499986,350.91130445798626,350.90002216698485,,,,,,,,,,,,,,,,,,,,,,,,,,,,,,,,,,,350.90381620798144,350.91130445798626,350.91130445798626,351.4682539579808,g,1.0,0.5465085000032559,,,,,,sub-173,1,stroop_test,,
,,,,77.0,5.0,6.0,,,,,,,,,,,,,blau,yellow,g,0.0,g,1.0,0.4177597910165787,,,,,,,,,,6.0,5.0,77.0,7.0,351.4782476249966,,,,,,,,,,,,,,,,,351.46879216699745,352.66618699999526,353.4618540829979,353.45052237500204,,,,,,,,,,,,,,,,,,,,,,,,,,,,,,,,,,,353.4546461669961,353.4618540829979,353.4618540829979,353.88488020800287,g,1.0,0.4177597910165787,,,,,,sub-173,1,stroop_test,,
,,,,78.0,6.0,6.0,,,,,,,,,,,,,blau,red,r,0.0,r,1.0,0.3420764580077957,,,,,,,,,,6.0,6.0,78.0,4.0,353.89495270798216,,,,,,,,,,,,,,,,,353.885403332999,355.0830994579883,355.8751067919948,355.86703475000104,,,,,,,,,,,,,,,,,,,,,,,,,,,,,,,,,,,355.8677458750026,355.8751067919948,355.8751067919948,356.22368999998434,r,1.0,0.3420764580077957,,,,,,sub-173,1,stroop_test,,
,,,,79.0,7.0,6.0,,,,,,,,,,,,,rot,red,r,1.0,r,1.0,0.3951917079975828,,,,,,,,,,6.0,7.0,79.0,1.0,356.2493627079821,,,,,,,,,,,,,,,,,356.224240999989,356.5730690420023,357.37857912498293,357.3668063749792,,,,,,,,,,,,,,,,,,,,,,,,,,,,,,,,,,,357.37117216698243,357.37857912498293,357.37857912498293,357.7849916669948,r,1.0,0.3951917079975828,,,,,,sub-173,1,stroop_test,,
,,,,80.0,8.0,6.0,,,,,,,,,,,,,gelb,blue,b,0.0,b,1.0,0.4552188749948982,,,,,,,,,,6.0,8.0,80.0,9.0,357.79517662498984,,,,,,,,,,,,,,,,,357.785541166988,357.8830169999856,358.6774983329815,358.6667392079835,,,,,,,,,,,,,,,,,,,,,,,,,,,,,,,,,,,358.67027924998547,358.6774983329815,358.6774983329815,359.1350394579931,b,1.0,0.4552188749948982,,,,,,sub-173,1,stroop_test,,
,,,,81.0,9.0,6.0,,,,,,,,,,,,,blau,blue,b,1.0,b,1.0,0.509533290984109,,,,,,,,,,6.0,9.0,81.0,6.0,359.1448980419955,,,,,,,,,,,,,,,,,359.1354764580028,359.9329739169916,360.7278754579893,360.7168370829895,,,,,,,,,,,,,,,,,,,,,,,,,,,,,,,,,,,360.72065270799794,360.7278754579893,360.7278754579893,361.2409946669941,b,1.0,0.509533290984109,,,,,,sub-173,1,stroop_test,,
,,,,82.0,10.0,6.0,,,,,,,,,,,,,rot,yellow,g,0.0,g,1.0,0.3969319160096347,,,,,,,,,,6.0,10.0,82.0,3.0,361.25222629198106,,,,,,,,,,,,,,,,,361.2414184169902,361.589133292,362.39560933297616,362.3839427079947,,,,,,,,,,,,,,,,,,,,,,,,,,,,,,,,,,,362.3879536250024,362.39560933297616,362.39560933297616,362.8020143749891,g,1.0,0.3969319160096347,,,,,,sub-173,1,stroop_test,,
,,,,83.0,11.0,6.0,,,,,,,,,,,,,rot,red,r,1.0,r,1.0,0.4784282910113688,,,,,,,,,,6.0,11.0,83.0,0.0,362.81212550000055,,,,,,,,,,,,,,,,,362.802635207976,362.8996196249791,363.69268908299273,363.6840182500018,,,,,,,,,,,,,,,,,,,,,,,,,,,,,,,,,,,363.68493391698576,363.69268908299273,363.69268908299273,364.173771791975,r,1.0,0.4784282910113688,,,,,,sub-173,1,stroop_test,,
,,,,84.0,0.0,7.0,,,,,,,,,,,,,gelb,blue,b,0.0,b,1.0,0.4711935419763904,,,,,,,,,,7.0,0.0,84.0,9.0,364.1993355419836,,,,,,,,,,,,,,,,,364.17422124999575,365.3717614169873,366.1661034580029,366.1557270829799,,,,,,,,,,,,,,,,,,,,,,,,,,,,,,,,,,,366.15896437497577,366.1661034580029,366.1661034580029,366.6416481249908,b,1.0,0.4711935419763904,,,,,,sub-173,1,stroop_test,,
,,,,85.0,1.0,7.0,,,,,,,,,,,,,rot,blue,b,0.0,b,1.0,0.4071989580115769,,,,,,,,,,7.0,1.0,85.0,2.0,366.6520375830005,,,,,,,,,,,,,,,,,366.6421863329888,366.9897970829916,367.79581758298445,367.7837451669912,,,,,,,,,,,,,,,,,,,,,,,,,,,,,,,,,,,367.7881609999749,367.79581758298445,367.79581758298445,368.20696941699134,b,1.0,0.4071989580115769,,,,,,sub-173,1,stroop_test,,
,,,,86.0,2.0,7.0,,,,,,,,,,,,,blau,yellow,g,0.0,g,1.0,0.3983089579851366,,,,,,,,,,7.0,2.0,86.0,7.0,368.2327550420014,,,,,,,,,,,,,,,,,368.2074172499997,369.00595308298944,369.8025478749769,369.79054950000136,,,,,,,,,,,,,,,,,,,,,,,,,,,,,,,,,,,369.79447479199735,369.8025478749769,369.8025478749769,370.2083294579934,g,1.0,0.3983089579851366,,,,,,sub-173,1,stroop_test,,
,,,,87.0,3.0,7.0,,,,,,,,,,,,,blau,red,r,0.0,r,1.0,0.5245972079865169,,,,,,,,,,7.0,3.0,87.0,4.0,370.21885725000175,,,,,,,,,,,,,,,,,370.2088739579776,370.29941258300096,371.0918206249771,371.0835407919949,,,,,,,,,,,,,,,,,,,,,,,,,,,,,,,,,,,371.08419395799865,371.0918206249771,371.0918206249771,371.6189238749794,r,1.0,0.5245972079865169,,,,,,sub-173,1,stroop_test,,
,,,,88.0,4.0,7.0,,,,,,,,,,,,,rot,red,r,1.0,r,1.0,0.5864176250179298,,,,,,,,,,7.0,4.0,88.0,1.0,371.62873162498,,,,,,,,,,,,,,,,,371.6194109999924,371.9664843749779,372.7631361249951,372.7503369170008,,,,,,,,,,,,,,,,,,,,,,,,,,,,,,,,,,,372.7555585419759,372.7631361249951,372.7631361249951,373.3519764999801,r,1.0,0.5864176250179298,,,,,,sub-173,1,stroop_test,,
,,,,89.0,5.0,7.0,,,,,,,,,,,,,rot,yellow,g,0.0,g,1.0,0.8115937920229044,,,,,,,,,,7.0,5.0,89.0,3.0,373.36208854199504,,,,,,,,,,,,,,,,,373.3524162499816,373.6997592499829,374.4920500419976,374.48382908297936,,,,,,,,,,,,,,,,,,,,,,,,,,,,,,,,,,,374.48460391699336,374.4920500419976,374.4920500419976,375.307704707986,g,1.0,0.8115937920229044,,,,,,sub-173,1,stroop_test,,
,,,,90.0,6.0,7.0,,,,,,,,,,,,,rot,red,r,1.0,r,1.0,0.4646642500010784,,,,,,,,,,7.0,6.0,90.0,0.0,375.31825625000056,,,,,,,,,,,,,,,,,375.308126332995,376.1063520829776,376.9083272079879,376.9003788749978,,,,,,,,,,,,,,,,,,,,,,,,,,,,,,,,,,,376.9010254579771,376.9083272079879,376.9083272079879,377.375585916976,r,1.0,0.4646642500010784,,,,,,sub-173,1,stroop_test,,
,,,,91.0,7.0,7.0,,,,,,,,,,,,,gelb,red,r,0.0,r,1.0,0.6339478340232745,,,,,,,,,,7.0,7.0,91.0,8.0,377.38571254198905,,,,,,,,,,,,,,,,,377.3761374579917,377.4718905829941,378.2666022919875,378.2557353749871,,,,,,,,,,,,,,,,,,,,,,,,,,,,,,,,,,,378.2593153329799,378.2666022919875,378.2666022919875,378.9134791669785,r,1.0,0.6339478340232745,,,,,,sub-173,1,stroop_test,,
,,,,92.0,8.0,7.0,,,,,,,,,,,,,blau,blue,b,1.0,b,1.0,0.4043378329952247,,,,,,,,,,7.0,8.0,92.0,6.0,378.92180695798015,,,,,,,,,,,,,,,,,378.9139203329978,379.0048047079763,379.7993572079868,379.7890355830023,,,,,,,,,,,,,,,,,,,,,,,,,,,,,,,,,,,379.7924241249857,379.7993572079868,379.7993572079868,380.2080088749936,b,1.0,0.4043378329952247,,,,,,sub-173,1,stroop_test,,
,,,,93.0,9.0,7.0,,,,,,,,,,,,,gelb,yellow,g,1.0,g,1.0,0.5966927080007736,,,,,,,,,,7.0,9.0,93.0,11.0,380.2179964169918,,,,,,,,,,,,,,,,,380.2084431249823,380.3064505419752,381.1113519579813,381.1005227499991,,,,,,,,,,,,,,,,,,,,,,,,,,,,,,,,,,,381.1040747079824,381.1113519579813,381.1113519579813,381.71818933298346,g,1.0,0.5966927080007736,,,,,,sub-173,1,stroop_test,,
,,,,94.0,10.0,7.0,,,,,,,,,,,,,blau,blue,b,1.0,b,1.0,0.5050588339800015,,,,,,,,,,7.0,10.0,94.0,5.0,381.7280412499968,,,,,,,,,,,,,,,,,381.7186171670037,381.81596070798696,382.6113218749815,382.6005050419772,,,,,,,,,,,,,,,,,,,,,,,,,,,,,,,,,,,382.6040200419957,382.6113218749815,382.6113218749815,383.1188581669994,b,1.0,0.5050588339800015,,,,,,sub-173,1,stroop_test,,
,,,,95.0,11.0,7.0,,,,,,,,,,,,,gelb,yellow,g,1.0,g,1.0,0.3887082079891115,,,,,,,,,,7.0,11.0,95.0,10.0,383.1286487079924,,,,,,,,,,,,,,,,,383.11939958299627,383.466520166985,384.2611274579831,384.25037766699097,,,,,,,,,,,,,,,,,,,,,,,,,,,,,,,,,,,384.25377120799385,384.2611274579831,384.2611274579831,384.652522791992,g,1.0,0.3887082079891115,,,,,,sub-173,1,stroop_test,,
,,,,96.0,0.0,8.0,,,,,,,,,,,,,blau,blue,b,1.0,b,1.0,0.4049539580009877,,,,,,,,,,8.0,0.0,96.0,6.0,384.66284908298985,,,,,,,,,,,,,,,,,384.6530893750023,384.74989341699984,385.5460954169976,385.53395679200185,,,,,,,,,,,,,,,,,,,,,,,,,,,,,,,,,,,385.5386682499957,385.5460954169976,385.5460954169976,385.9577273329778,b,1.0,0.4049539580009877,,,,,,sub-173,1,stroop_test,,
,,,,97.0,1.0,8.0,,,,,,,,,,,,,rot,red,r,1.0,r,1.0,0.4769369999994524,,,,,,,,,,8.0,1.0,97.0,0.0,385.9683589579945,,,,,,,,,,,,,,,,,385.9581454999861,386.3063367079885,387.1022607499908,387.0904061670008,,,,,,,,,,,,,,,,,,,,,,,,,,,,,,,,,,,387.093800542003,387.1022607499908,387.1022607499908,387.5846101249917,r,1.0,0.4769369999994524,,,,,,sub-173,1,stroop_test,,
,,,,98.0,2.0,8.0,,,,,,,,,,,,,rot,blue,b,0.0,b,1.0,1.0877749579958618,,,,,,,,,,8.0,2.0,98.0,2.0,387.5943881669955,,,,,,,,,,,,,,,,,387.585040416976,387.68328674999066,388.4751332079759,388.46715129198856,,,,,,,,,,,,,,,,,,,,,,,,,,,,,,,,,,,388.46780033299,388.4751332079759,388.4751332079759,389.56888212499325,b,1.0,1.0877749579958618,,,,,,sub-173,1,stroop_test,,
,,,,99.0,3.0,8.0,,,,,,,,,,,,,gelb,yellow,g,1.0,g,1.0,0.4105856249807402,,,,,,,,,,8.0,3.0,99.0,11.0,389.5785955000029,,,,,,,,,,,,,,,,,389.5693325829925,390.7666882920021,391.5616487499792,391.5505891669891,,,,,,,,,,,,,,,,,,,,,,,,,,,,,,,,,,,391.5541605829785,391.5616487499792,391.5616487499792,391.9747922499955,g,1.0,0.4105856249807402,,,,,,sub-173,1,stroop_test,,
,,,,100.0,4.0,8.0,,,,,,,,,,,,,gelb,red,r,0.0,g,0.0,0.5532913329952862,,,,,,,,,,8.0,4.0,100.0,8.0,391.9847641249944,,,,,,,,,,,,,,,,,391.9753162080015,392.0709445829853,392.8661271669844,392.8555529579753,,,,,,,,,,,,,,,,,,,,,,,,,,,,,,,,,,,392.8560903329926,392.8661271669844,392.8661271669844,393.4244675829832,g,0.0,0.5532913329952862,,,,,,sub-173,1,stroop_test,,
,,,,101.0,5.0,8.0,,,,,,,,,,,,,blau,blue,b,1.0,b,1.0,0.4488529169757385,,,,,,,,,,8.0,5.0,101.0,5.0,393.4496709169762,,,,,,,,,,,,,,,,,393.424896291981,393.7737850830017,394.577942666976,394.56719524998334,,,,,,,,,,,,,,,,,,,,,,,,,,,,,,,,,,,394.57061316698673,394.577942666976,394.577942666976,395.0355946669879,b,1.0,0.4488529169757385,,,,,,sub-173,1,stroop_test,,
,,,,102.0,6.0,8.0,,,,,,,,,,,,,rot,yellow,g,0.0,g,1.0,0.6013248749950435,,,,,,,,,,8.0,6.0,102.0,3.0,395.0457368749776,,,,,,,,,,,,,,,,,395.0361351250031,395.3834247079794,396.1782013749762,396.1674066669948,,,,,,,,,,,,,,,,,,,,,,,,,,,,,,,,,,,396.1708932499751,396.1782013749762,396.1782013749762,396.7849565419892,g,1.0,0.6013248749950435,,,,,,sub-173,1,stroop_test,,
,,,,103.0,7.0,8.0,,,,,,,,,,,,,rot,red,r,1.0,r,1.0,0.7623068329994567,,,,,,,,,,8.0,7.0,103.0,1.0,396.7946457079961,,,,,,,,,,,,,,,,,396.7854023749824,397.9833418329945,398.7764291249914,398.7677303329983,,,,,,,,,,,,,,,,,,,,,,,,,,,,,,,,,,,398.7685353749839,398.7764291249914,398.7764291249914,399.5423010829836,r,1.0,0.7623068329994567,,,,,,sub-173,1,stroop_test,,
,,,,104.0,8.0,8.0,,,,,,,,,,,,,blau,red,r,0.0,r,1.0,0.5283554999914486,,,,,,,,,,8.0,8.0,104.0,4.0,399.5525906669791,,,,,,,,,,,,,,,,,399.54286849999335,399.8903759169916,400.6953209999774,400.6839717080002,,,,,,,,,,,,,,,,,,,,,,,,,,,,,,,,,,,400.68789358300273,400.6953209999774,400.6953209999774,401.2355224999774,r,1.0,0.5283554999914486,,,,,,sub-173,1,stroop_test,,
,,,,105.0,9.0,8.0,,,,,,,,,,,,,gelb,yellow,g,1.0,g,1.0,0.524967250006739,,,,,,,,,,8.0,9.0,105.0,10.0,401.24601741699735,,,,,,,,,,,,,,,,,401.2361333329754,402.03353962500114,402.8289729579992,402.8173303749936,,,,,,,,,,,,,,,,,,,,,,,,,,,,,,,,,,,402.8219696249871,402.8289729579992,402.8289729579992,403.3573875829752,g,1.0,0.524967250006739,,,,,,sub-173,1,stroop_test,,
,,,,106.0,10.0,8.0,,,,,,,,,,,,,blau,yellow,g,0.0,g,1.0,0.6227032910101116,,,,,,,,,,8.0,10.0,106.0,7.0,403.3830727500026,,,,,,,,,,,,,,,,,403.3578190830012,404.1564967499871,404.96192654198967,404.9506532079831,,,,,,,,,,,,,,,,,,,,,,,,,,,,,,,,,,,404.9545450419828,404.96192654198967,404.96192654198967,405.59009416698245,g,1.0,0.6227032910101116,,,,,,sub-173,1,stroop_test,,
,,,,107.0,11.0,8.0,,,,,,,,,,,,,gelb,blue,b,0.0,b,1.0,0.4287456670135725,,,,,,,,,,8.0,11.0,107.0,9.0,405.6234378749796,,,,,,,,,,,,,,,,,405.5904506249936,405.9334082919813,406.72902166697895,406.717618249997,,,,,,,,,,,,,,,,,,,,,,,,,,,,,,,,,,,406.72153420798713,406.72902166697895,406.72902166697895,407.16899670800194,b,1.0,0.4287456670135725,,,,,,sub-173,1,stroop_test,,
,,,,108.0,0.0,9.0,,,,,,,,,,,,,blau,blue,b,1.0,b,1.0,0.4249482919985894,,,,,,,,,,9.0,0.0,108.0,5.0,407.1790082499792,,,,,,,,,,,,,,,,,407.169555542001,407.2663590829761,408.06178354198346,408.0506398330035,,,,,,,,,,,,,,,,,,,,,,,,,,,,,,,,,,,408.05447649999405,408.06178354198346,408.06178354198346,408.49136995797744,b,1.0,0.4249482919985894,,,,,,sub-173,1,stroop_test,,
,,,,109.0,1.0,9.0,,,,,,,,,,,,,rot,red,r,1.0,r,1.0,0.5311094169737771,,,,,,,,,,9.0,1.0,109.0,1.0,408.5023247499776,,,,,,,,,,,,,,,,,408.4917962499894,409.28990279199206,410.0864734579809,410.0740222919849,,,,,,,,,,,,,,,,,,,,,,,,,,,,,,,,,,,410.0775943329791,410.0864734579809,410.0864734579809,410.623912207986,r,1.0,0.5311094169737771,,,,,,sub-173,1,stroop_test,,
,,,,110.0,2.0,9.0,,,,,,,,,,,,,rot,yellow,g,0.0,g,1.0,0.5382952080108225,,,,,,,,,,9.0,2.0,110.0,3.0,410.6336664169794,,,,,,,,,,,,,,,,,410.6243387499999,410.7234693329956,411.5252062919899,411.5174399169919,,,,,,,,,,,,,,,,,,,,,,,,,,,,,,,,,,,411.5181589999993,411.5252062919899,411.5252062919899,412.0687716669927,g,1.0,0.5382952080108225,,,,,,sub-173,1,stroop_test,,
,,,,111.0,3.0,9.0,,,,,,,,,,,,,gelb,yellow,g,1.0,g,1.0,0.4652977079967968,,,,,,,,,,9.0,3.0,111.0,11.0,412.0788929580012,,,,,,,,,,,,,,,,,412.0693131669832,412.8668440420006,413.661409124994,413.6507129999809,,,,,,,,,,,,,,,,,,,,,,,,,,,,,,,,,,,413.6542155829957,413.661409124994,413.661409124994,414.1362400829967,g,1.0,0.4652977079967968,,,,,,sub-173,1,stroop_test,,
,,,,112.0,4.0,9.0,,,,,,,,,,,,,gelb,red,r,0.0,r,1.0,0.898281792004127,,,,,,,,,,9.0,4.0,112.0,8.0,414.1462397080031,,,,,,,,,,,,,,,,,414.1367942919896,414.2332177499775,415.0256474170019,415.0173813749861,,,,,,,,,,,,,,,,,,,,,,,,,,,,,,,,,,,415.0180425419821,415.0256474170019,415.0256474170019,415.9371285829984,r,1.0,0.898281792004127,,,,,,sub-173,1,stroop_test,,
,,,,113.0,5.0,9.0,,,,,,,,,,,,,rot,red,r,1.0,r,1.0,0.4447852919984143,,,,,,,,,,9.0,5.0,113.0,0.0,415.9501460829924,,,,,,,,,,,,,,,,,415.9375703749829,416.2835569999879,417.0805712500005,417.0678463329969,,,,,,,,,,,,,,,,,,,,,,,,,,,,,,,,,,,417.0727435419976,417.0805712500005,417.0805712500005,417.5352202079957,r,1.0,0.4447852919984143,,,,,,sub-173,1,stroop_test,,
,,,,114.0,6.0,9.0,,,,,,,,,,,,,blau,yellow,g,0.0,g,1.0,0.5911231250211131,,,,,,,,,,9.0,6.0,114.0,7.0,417.54552595797577,,,,,,,,,,,,,,,,,417.53566333299386,418.73344691700186,419.5280400829797,419.5175115829916,,,,,,,,,,,,,,,,,,,,,,,,,,,,,,,,,,,419.52087887498783,419.5280400829797,419.5280400829797,420.1245951250021,g,1.0,0.5911231250211131,,,,,,sub-173,1,stroop_test,,
,,,,115.0,7.0,9.0,,,,,,,,,,,,,blau,red,r,0.0,r,1.0,0.6285881660005543,,,,,,,,,,9.0,7.0,115.0,4.0,420.14988524999353,,,,,,,,,,,,,,,,,420.1250192919979,420.2233386249864,421.0263438329857,421.01763724998455,,,,,,,,,,,,,,,,,,,,,,,,,,,,,,,,,,,421.0182701669983,421.0263438329857,421.0263438329857,421.6597215419752,r,1.0,0.6285881660005543,,,,,,sub-173,1,stroop_test,,
,,,,116.0,8.0,9.0,,,,,,,,,,,,,gelb,blue,b,0.0,b,1.0,0.777741874975618,,,,,,,,,,9.0,8.0,116.0,9.0,421.6713814579998,,,,,,,,,,,,,,,,,421.66026974999113,422.00669387498056,422.8028507919808,422.7908556249749,,,,,,,,,,,,,,,,,,,,,,,,,,,,,,,,,,,422.79458704197896,422.8028507919808,422.8028507919808,423.58591366698965,b,1.0,0.777741874975618,,,,,,sub-173,1,stroop_test,,
,,,,117.0,9.0,9.0,,,,,,,,,,,,,rot,blue,b,0.0,b,1.0,0.598531333002029,,,,,,,,,,9.0,9.0,117.0,2.0,423.5957732919778,,,,,,,,,,,,,,,,,423.5863548329799,423.93357591697713,424.7297549579816,424.7177658329893,,,,,,,,,,,,,,,,,,,,,,,,,,,,,,,,,,,424.7221549169917,424.7297549579816,424.7297549579816,425.335201082984,b,1.0,0.598531333002029,,,,,,sub-173,1,stroop_test,,
,,,,118.0,10.0,9.0,,,,,,,,,,,,,blau,blue,b,1.0,b,1.0,0.4555263750080485,,,,,,,,,,9.0,10.0,118.0,6.0,425.3452574169787,,,,,,,,,,,,,,,,,425.3356419169868,425.4334921249829,426.2279064169852,426.2173619169917,,,,,,,,,,,,,,,,,,,,,,,,,,,,,,,,,,,426.22067616699496,426.2279064169852,426.2279064169852,426.6854583329987,b,1.0,0.4555263750080485,,,,,,sub-173,1,stroop_test,,
,,,,119.0,11.0,9.0,,,,,,,,,,,,,gelb,yellow,g,1.0,g,1.0,0.5387736660195515,,,,,,,,,,9.0,11.0,119.0,10.0,426.6952099170012,,,,,,,,,,,,,,,,,426.685888832988,426.78369879198726,427.5799399169919,427.5677429579955,,,,,,,,,,,,,,,,,,,,,,,,,,,,,,,,,,,427.5723246669804,427.5799399169919,427.5799399169919,428.1235880419845,g,1.0,0.5387736660195515,,,,,,sub-173,1,stroop_test,,
,,,,,,,,,,,,,,,,,,,,,,,,,,,,,,,,,,,,,,,,,,,,,,,,,,,,,,,,,,,,,,,,,,,,,,,,,,,,,,,,,,,,,,,,,,,,,,,,,,,,,,428.12385212499066,428.1352592499752,433.1426297919825,433.1301592499949,sub-173,1,stroop_test,,
