wordCTK,colorCTK,corrAnsCTK,congruentCTK,thisN,thisTrialN,thisRepN,keyResp_CTK.keys,keyResp_CTK.corr,keyResp_CTK.rt,keyResp_CTK.duration,wordPractice,colorPractice,corrAnsPractice,congruentPractice,respPractice.keys,respPractice.corr,respPractice.rt,respPractice.duration,word,color,corrAns,congruent,keyResp_test_run.keys,keyResp_test_run.corr,keyResp_test_run.rt,keyResp_test_run.duration,trials_CTK.thisRepN,trials_CTK.thisTrialN,trials_CTK.thisN,trials_CTK.thisIndex,trials_practice.thisRepN,trials_practice.thisTrialN,trials_practice.thisN,trials_practice.thisIndex,trials_test.thisRepN,trials_test.thisTrialN,trials_test.thisN,trials_test.thisIndex,thisRow.t,notes,instruction.started,instr_text.started,instr_image.started,instr_resp.started,instruction.stopped,instr_resp.keys,instr_resp.rt,instr_resp.duration,instr_color_to_key.started,instr_ctk.started,resp_ctk.started,instr_color_to_key.stopped,resp_ctk.keys,resp_ctk.rt,resp_ctk.duration,ITI.started,fixcross.started,fixcross.stopped,ITI.stopped,color_to_key_run.started,stimulus_CTK.started,keyResp_CTK.started,color_to_key_run.stopped,trials_CTK.keyResp_CTK.keys,trials_CTK.keyResp_CTK.corr,trials_CTK.keyResp_CTK.rt,trials_CTK.keyResp_CTK.duration,instr_practice.started,instr_practice_text.started,instr_practice_resp.started,instr_practice.stopped,instr_practice_resp.keys,instr_practice_resp.rt,instr_practice_resp.duration,practice_run.started,stimulus_practice.started,respPractice.started,practice_run.stopped,trials_practice.respPractice.keys,trials_practice.respPractice.corr,trials_practice.respPractice.rt,trials_practice.respPractice.duration,feedback.started,textFeedback.started,feedback.stopped,textFeedback.stopped,instr_test.started,instr_test_text.started,instr_test_resp.started,instr_test.stopped,instr_test_resp.keys,instr_test_resp.rt,instr_test_resp.duration,test_run.started,stimulus_test_run.started,keyResp_test_run.started,test_run.stopped,trials_test.keyResp_test_run.keys,trials_test.keyResp_test_run.corr,trials_test.keyResp_test_run.rt,trials_test.keyResp_test_run.duration,goodbye.started,textGoodbye.started,goodbye.stopped,participant,session,expName,frameRate,Unnamed: 112
,,,,,,,,,,,,,,,,,,,,,,,,,,,,,,,,,,,,,,,,,0.0031336999998075,0.0899505999998382,0.0899505999998382,0.0899505999998382,56.62419459999978,space,56.52768420000007,,,,,,,,,,,,,,,,,,,,,,,,,,,,,,,,,,,,,,,,,,,,,,,,,,,,,,,,,,sub-063,1,stroop_test,60.025991254222525,
,,,,,,,,,,,,,,,,,,,,,,,,,,,,,,,,,,,,,,,,,,,,,,,,,56.624347399999806,56.63853409999979,56.63853409999979,68.06890359999989,space,11.416198399999985,,,,,,,,,,,,,,,,,,,,,,,,,,,,,,,,,,,,,,,,,,,,,,,,,,,sub-063,1,stroop_test,60.025991254222525,
test,blue,b,1.0,0.0,0.0,0.0,b,1.0,1.210099999999784,,,,,,,,,,,,,,,,,,0.0,0.0,0.0,2.0,,,,,,,,,68.09393499999987,,,,,,,,,,,,,,,,,68.0897794,68.88146429999983,69.68073589999995,69.66611429999989,69.67612079999981,69.68073589999995,69.68073589999995,70.89976059999981,b,1.0,1.210099999999784,,,,,,,,,,,,,,,,,,,,,,,,,,,,,,,,,,,,,,,sub-063,1,stroop_test,60.025991254222525,
test,yellow,g,1.0,1.0,1.0,0.0,g,1.0,1.7061647000000448,,,,,,,,,,,,,,,,,,0.0,1.0,1.0,1.0,,,,,,,,,70.91400859999999,,,,,,,,,,,,,,,,,70.9003361,72.1131496999999,72.91265299999986,72.89717699999983,72.89812729999994,72.91265299999986,72.91265299999986,74.63137069999993,g,1.0,1.7061647000000448,,,,,,,,,,,,,,,,,,,,,,,,,,,,,,,,,,,,,,,sub-063,1,stroop_test,60.025991254222525,
test,red,r,1.0,2.0,2.0,0.0,r,1.0,0.4778263999999126,,,,,,,,,,,,,,,,,,0.0,2.0,2.0,0.0,,,,,,,,,74.64521619999982,,,,,,,,,,,,,,,,,74.63194849999991,75.84412179999981,76.64383929999985,76.62866589999999,76.62965199999985,76.64383929999985,76.64383929999985,77.13040139999998,r,1.0,0.4778263999999126,,,,,,,,,,,,,,,,,,,,,,,,,,,,,,,,,,,,,,,sub-063,1,stroop_test,60.025991254222525,
test,yellow,g,1.0,3.0,0.0,1.0,g,1.0,0.8178393000000597,,,,,,,,,,,,,,,,,,1.0,0.0,3.0,1.0,,,,,,,,,77.1432868999998,,,,,,,,,,,,,,,,,77.13099309999984,77.94297359999996,78.74258229999987,78.72784769999998,78.7287672,78.74258229999987,78.74258229999987,79.5776586999998,g,1.0,0.8178393000000597,,,,,,,,,,,,,,,,,,,,,,,,,,,,,,,,,,,,,,,sub-063,1,stroop_test,60.025991254222525,
test,red,r,1.0,4.0,1.0,1.0,r,1.0,1.443973399999777,,,,,,,,,,,,,,,,,,1.0,1.0,4.0,0.0,,,,,,,,,79.59222549999981,,,,,,,,,,,,,,,,,79.57829789999982,79.94189849999998,80.74140449999982,80.7266697,80.72760279999989,80.74140449999982,80.74140449999982,82.19283419999988,r,1.0,1.443973399999777,,,,,,,,,,,,,,,,,,,,,,,,,,,,,,,,,,,,,,,sub-063,1,stroop_test,60.025991254222525,
test,blue,b,1.0,5.0,2.0,1.0,b,1.0,1.0600884000000406,,,,,,,,,,,,,,,,,,1.0,2.0,5.0,2.0,,,,,,,,,82.20747949999986,,,,,,,,,,,,,,,,,82.1934033,82.30768569999987,83.1070878999999,83.09175659999983,83.0931298999999,83.1070878999999,83.1070878999999,84.17562539999994,b,1.0,1.0600884000000406,,,,,,,,,,,,,,,,,,,,,,,,,,,,,,,,,,,,,,,sub-063,1,stroop_test,60.025991254222525,
test,red,r,1.0,6.0,0.0,2.0,r,1.0,0.8573268999998618,,,,,,,,,,,,,,,,,,2.0,0.0,6.0,0.0,,,,,,,,,84.1894969,,,,,,,,,,,,,,,,,84.17619029999992,85.3889350999998,86.18851519999998,86.17402149999998,86.17497419999995,86.18851519999998,86.18851519999998,87.05732609999995,r,1.0,0.8573268999998618,,,,,,,,,,,,,,,,,,,,,,,,,,,,,,,,,,,,,,,sub-063,1,stroop_test,60.025991254222525,
test,blue,b,1.0,7.0,1.0,2.0,b,1.0,0.7126741000001857,,,,,,,,,,,,,,,,,,2.0,1.0,7.0,2.0,,,,,,,,,87.07157059999986,,,,,,,,,,,,,,,,,87.05794549999996,87.42142899999999,88.22074079999993,88.2060614999998,88.2070620999998,88.22074079999993,88.22074079999993,88.93823679999991,b,1.0,0.7126741000001857,,,,,,,,,,,,,,,,,,,,,,,,,,,,,,,,,,,,,,,sub-063,1,stroop_test,60.025991254222525,
test,yellow,g,1.0,8.0,2.0,2.0,g,1.0,1.3410949999999957,,,,,,,,,,,,,,,,,,2.0,2.0,8.0,1.0,,,,,,,,,88.9538063,,,,,,,,,,,,,,,,,88.93868389999989,89.30374149999989,90.10331459999998,90.0872887999999,90.08785639999996,90.10331459999998,90.10331459999998,91.4543918999998,g,1.0,1.3410949999999957,,,,,,,,,,,,,,,,,,,,,,,,,,,,,,,,,,,,,,,sub-063,1,stroop_test,60.025991254222525,
test,red,r,1.0,9.0,0.0,3.0,r,1.0,0.7777285999998185,,,,,,,,,,,,,,,,,,3.0,0.0,9.0,0.0,,,,,,,,,91.4687895999998,,,,,,,,,,,,,,,,,91.45484739999984,91.8190806,92.61830469999995,92.60419079999996,92.60514479999983,92.61830469999995,92.61830469999995,93.40327649999996,r,1.0,0.7777285999998185,,,,,,,,,,,,,,,,,,,,,,,,,,,,,,,,,,,,,,,sub-063,1,stroop_test,60.025991254222525,
test,yellow,g,1.0,10.0,1.0,3.0,g,1.0,0.6165915999999925,,,,,,,,,,,,,,,,,,3.0,1.0,10.0,1.0,,,,,,,,,93.4178164,,,,,,,,,,,,,,,,,93.40377799999987,94.21778289999996,95.01708919999987,95.00305549999985,95.0039999999999,95.01708919999987,95.01708919999987,95.63683119999996,g,1.0,0.6165915999999925,,,,,,,,,,,,,,,,,,,,,,,,,,,,,,,,,,,,,,,sub-063,1,stroop_test,60.025991254222525,
test,blue,b,1.0,11.0,2.0,3.0,b,1.0,0.4198492000000442,,,,,,,,,,,,,,,,,,3.0,2.0,11.0,2.0,,,,,,,,,95.6499245,,,,,,,,,,,,,,,,,95.63740549999989,96.849516,97.64935139999989,97.63394759999984,97.6350132,97.64935139999989,97.64935139999989,98.08364149999989,b,1.0,0.4198492000000442,,,,,,,,,,,,,,,,,,,,,,,,,,,,,,,,,,,,,,,sub-063,1,stroop_test,60.025991254222525,
,,,,,,,,,,,,,,,,,,,,,,,,,,,,,,,,,,,,,,,,,,,,,,,,,,,,,,,,,,,,,,,,,,,,98.08387939999989,98.09906929999988,98.09906929999988,104.2143231,space,6.11090779999995,,,,,,,,,,,,,,,,,,,,,,,,,,,,,,,,sub-063,1,stroop_test,60.025991254222525,
,,,,0.0,0.0,0.0,,,,,blau,blue,b,1.0,b,1.0,0.8761147000000165,,,,,,,,,,,,,,0.0,0.0,0.0,6.0,,,,,104.22848789999988,,,,,,,,,,,,,,,,,104.2248298999998,105.02788029999988,105.82728359999987,105.8120864,,,,,,,,,,,,,,,,105.82199609999998,105.82728359999987,105.82728359999987,106.71332519999989,b,1.0,0.8761147000000165,,106.72455679999985,106.72960329999978,107.72742019999988,,,,,,,,,,,,,,,,,,,,sub-063,1,stroop_test,60.025991254222525,
,,,,1.0,1.0,0.0,,,,,gelb,blue,b,0.0,b,1.0,0.8022541000000274,,,,,,,,,,,,,,0.0,1.0,1.0,9.0,,,,,107.74338629999988,,,,,,,,,,,,,,,,,107.7284373,108.9261414,109.72525769999991,109.71066469999982,,,,,,,,,,,,,,,,109.7169727999999,109.72525769999991,109.72525769999991,110.54416509999989,b,1.0,0.8022541000000274,,110.54507149999996,110.55868149999992,111.54316659999996,111.55809359999988,,,,,,,,,,,,,,,,,,,sub-063,1,stroop_test,60.025991254222525,
,,,,2.0,2.0,0.0,,,,,gelb,red,r,0.0,r,1.0,0.7976571000001513,,,,,,,,,,,,,,0.0,2.0,2.0,8.0,,,,,111.55809359999988,,,,,,,,,,,,,,,,,111.5438881,112.35747109999988,113.15707989999989,113.14162459999989,,,,,,,,,,,,,,,,113.14254559999996,113.15707989999989,113.15707989999989,113.95850269999984,r,1.0,0.7976571000001513,,113.95916089999992,113.97308879999991,114.9581667,114.9724723999998,,,,,,,,,,,,,,,,,,,sub-063,1,stroop_test,60.025991254222525,
,,,,3.0,3.0,0.0,,,,,rot,blue,b,0.0,b,1.0,0.7509986000000026,,,,,,,,,,,,,,0.0,3.0,3.0,2.0,,,,,114.9724723999998,,,,,,,,,,,,,,,,,114.95897189999982,115.07246459999988,115.87189109999986,115.85718239999984,,,,,,,,,,,,,,,,115.86394429999996,115.87189109999986,115.87189109999986,116.62557389999984,b,1.0,0.7509986000000026,,116.62650459999986,116.63847079999982,117.6381945999999,,,,,,,,,,,,,,,,,,,,sub-063,1,stroop_test,60.025991254222525,
,,,,4.0,4.0,0.0,,,,,rot,red,r,1.0,r,1.0,0.9698097000000416,,,,,,,,,,,,,,0.0,4.0,4.0,0.0,,,,,117.65428159999988,,,,,,,,,,,,,,,,,117.63899249999986,117.73782629999982,118.5375780999998,118.5227043,,,,,,,,,,,,,,,,118.52375229999984,118.5375780999998,118.5375780999998,119.5217693999998,r,1.0,0.9698097000000416,,119.52256539999983,119.53705569999988,120.52130829999987,120.5360498,,,,,,,,,,,,,,,,,,,sub-063,1,stroop_test,60.025991254222525,
,,,,5.0,5.0,0.0,,,,,rot,yellow,g,0.0,g,1.0,0.5359668999999485,,,,,,,,,,,,,,0.0,5.0,5.0,3.0,,,,,120.5360498,,,,,,,,,,,,,,,,,120.52199569999992,121.33609699999988,122.1520756,122.13745029999995,,,,,,,,,,,,,,,,122.1385128999998,122.1520756,122.1520756,122.7040798999999,g,1.0,0.5359668999999485,,122.70505899999988,122.71800139999982,123.70254569999996,123.71759669999985,,,,,,,,,,,,,,,,,,,sub-063,1,stroop_test,60.025991254222525,
,,,,6.0,6.0,0.0,,,,,blau,red,r,0.0,r,1.0,1.170028099999854,,,,,,,,,,,,,,0.0,6.0,6.0,4.0,,,,,123.71759669999985,,,,,,,,,,,,,,,,,123.70313669999996,124.06733629999984,124.86695499999996,124.85206569999993,,,,,,,,,,,,,,,,124.85770149999983,124.86695499999996,124.86695499999996,126.05195479999998,r,1.0,1.170028099999854,,126.05288229999996,126.0662550999998,127.05077659999984,127.0656919999999,,,,,,,,,,,,,,,,,,,sub-063,1,stroop_test,60.025991254222525,
,,,,7.0,7.0,0.0,,,,,blau,blue,b,1.0,b,1.0,0.6506876999999349,,,,,,,,,,,,,,0.0,7.0,7.0,5.0,,,,,127.0656919999999,,,,,,,,,,,,,,,,,127.05141449999996,128.26523869999983,129.0649054999999,129.0501016999999,,,,,,,,,,,,,,,,129.05082829999992,129.0649054999999,129.0649054999999,129.73306239999988,b,1.0,0.6506876999999349,,129.73434669999983,129.7478111999999,130.73265309999988,130.74728269999991,,,,,,,,,,,,,,,,,,,sub-063,1,stroop_test,60.025991254222525,
,,,,8.0,8.0,0.0,,,,,blau,yellow,g,0.0,g,1.0,1.626299900000049,,,,,,,,,,,,,,0.0,8.0,8.0,7.0,,,,,130.74728269999991,,,,,,,,,,,,,,,,,130.7333666999998,131.0972386999999,131.89622799999984,131.88129919999983,,,,,,,,,,,,,,,,131.88217109999982,131.89622799999984,131.89622799999984,133.53142589999993,g,1.0,1.626299900000049,,133.53219539999986,133.54576799999995,134.52981999999997,134.54520609999986,,,,,,,,,,,,,,,,,,,sub-063,1,stroop_test,60.025991254222525,
,,,,9.0,9.0,0.0,,,,,rot,red,r,1.0,r,1.0,0.7650906000001214,,,,,,,,,,,,,,0.0,9.0,9.0,1.0,,,,,134.54520609999986,,,,,,,,,,,,,,,,,134.53045939999993,134.8949690999998,135.69443899999987,135.67928979999988,,,,,,,,,,,,,,,,135.68416389999993,135.69443899999987,135.69443899999987,136.46316219999994,r,1.0,0.7650906000001214,,136.46393539999983,136.4775557999999,137.4617644,137.47701719999986,,,,,,,,,,,,,,,,,,,sub-063,1,stroop_test,60.025991254222525,
,,,,10.0,10.0,0.0,,,,,gelb,yellow,g,1.0,g,1.0,0.5416760000000522,,,,,,,,,,,,,,0.0,10.0,10.0,10.0,,,,,137.47701719999986,,,,,,,,,,,,,,,,,137.46236579999982,138.27676169999995,139.07592999999997,139.0606962999998,,,,,,,,,,,,,,,,139.06645249999997,139.07592999999997,139.07592999999997,139.62838709999983,g,1.0,0.5416760000000522,,139.62924699999985,139.64229179999984,140.62753249999992,140.64211639999985,,,,,,,,,,,,,,,,,,,sub-063,1,stroop_test,60.025991254222525,
,,,,11.0,11.0,0.0,,,,,gelb,yellow,g,1.0,g,1.0,0.4857629999999062,,,,,,,,,,,,,,0.0,11.0,11.0,11.0,,,,,140.64211639999985,,,,,,,,,,,,,,,,,140.62829749999992,141.4416233999998,142.2407857999999,142.22604739999997,,,,,,,,,,,,,,,,142.2268360999999,142.2407857999999,142.2407857999999,142.74383249999983,g,1.0,0.4857629999999062,,142.74473639999997,142.75706739999987,143.74258559999998,143.7567803999998,,,,,,,,,,,,,,,,,,,sub-063,1,stroop_test,60.025991254222525,
,,,,12.0,0.0,1.0,,,,,gelb,red,r,0.0,r,1.0,0.7457756999999674,,,,,,,,,,,,,,1.0,0.0,12.0,8.0,,,,,143.7567803999998,,,,,,,,,,,,,,,,,143.7433514999998,144.95605239999986,145.75590909999983,145.7409315,,,,,,,,,,,,,,,,145.74180619999993,145.75590909999983,145.75590909999983,146.507071,r,1.0,0.7457756999999674,,146.50777989999983,146.52202519999992,147.5068245,147.52156649999984,,,,,,,,,,,,,,,,,,,sub-063,1,stroop_test,60.025991254222525,
,,,,13.0,1.0,1.0,,,,,rot,blue,b,0.0,b,1.0,0.7018213000001197,,,,,,,,,,,,,,1.0,1.0,13.0,2.0,,,,,147.52156649999984,,,,,,,,,,,,,,,,,147.5073711,148.72067399999992,149.5202542999998,149.50522619999992,,,,,,,,,,,,,,,,149.51134319999983,149.5202542999998,149.5202542999998,150.23903569999993,b,1.0,0.7018213000001197,,150.2399128999998,150.2532071999999,151.2379689999998,151.2527776999998,,,,,,,,,,,,,,,,,,,sub-063,1,stroop_test,60.025991254222525,
,,,,14.0,2.0,1.0,,,,,rot,yellow,g,0.0,g,1.0,1.2840298999999504,,,,,,,,,,,,,,1.0,2.0,14.0,3.0,,,,,151.2527776999998,,,,,,,,,,,,,,,,,151.23870049999982,151.3527400999999,152.1522117999998,152.1367201999999,,,,,,,,,,,,,,,,152.13762199999996,152.1522117999998,152.1522117999998,153.45391289999998,g,1.0,1.2840298999999504,,153.4549588,153.46813899999984,154.45269459999986,154.46762599999988,,,,,,,,,,,,,,,,,,,sub-063,1,stroop_test,60.025991254222525,
,,,,15.0,3.0,1.0,,,,,rot,red,r,1.0,r,1.0,0.8130671000001257,,,,,,,,,,,,,,1.0,3.0,15.0,0.0,,,,,154.46762599999988,,,,,,,,,,,,,,,,,154.4533366999999,155.26712089999978,156.06619119999982,156.0505953999998,,,,,,,,,,,,,,,,156.05132909999998,156.06619119999982,156.06619119999982,156.8843685999998,r,1.0,0.8130671000001257,,156.8851682999998,156.8993363999998,157.88408089999984,157.89892009999994,,,,,,,,,,,,,,,,,,,sub-063,1,stroop_test,60.025991254222525,
,,,,16.0,4.0,1.0,,,,,blau,blue,b,1.0,b,1.0,0.4961533999999119,,,,,,,,,,,,,,1.0,4.0,16.0,5.0,,,,,157.89892009999994,,,,,,,,,,,,,,,,,157.88480299999992,158.6982400999998,159.4977958999998,159.4827499999999,,,,,,,,,,,,,,,,159.48765759999992,159.4977958999998,159.4977958999998,159.99941509999985,b,1.0,0.4961533999999119,,160.00023999999985,160.01426109999989,160.99888569999985,161.01393989999997,,,,,,,,,,,,,,,,,,,sub-063,1,stroop_test,60.025991254222525,
,,,,17.0,5.0,1.0,,,,,blau,blue,b,1.0,b,1.0,0.6416784999998981,,,,,,,,,,,,,,1.0,5.0,17.0,6.0,,,,,161.01393989999997,,,,,,,,,,,,,,,,,160.99952199999984,161.1139804999998,161.91325259999985,161.89803789999996,,,,,,,,,,,,,,,,161.89902239999992,161.91325259999985,161.91325259999985,162.56541939999988,b,1.0,0.6416784999998981,,162.56639109999992,162.579931,163.56446889999984,163.57918459999996,,,,,,,,,,,,,,,,,,,sub-063,1,stroop_test,60.025991254222525,
,,,,18.0,6.0,1.0,,,,,gelb,yellow,g,1.0,g,1.0,0.7694180999999389,,,,,,,,,,,,,,1.0,6.0,18.0,10.0,,,,,163.57918459999996,,,,,,,,,,,,,,,,,163.56516869999996,163.67922629999998,164.47842819999985,164.4631348999999,,,,,,,,,,,,,,,,164.46777429999997,164.47842819999985,164.47842819999985,165.26440779999984,g,1.0,0.7694180999999389,,165.26531539999996,165.27842629999986,166.2627031999998,166.27779999999984,,,,,,,,,,,,,,,,,,,sub-063,1,stroop_test,60.025991254222525,
,,,,19.0,7.0,1.0,,,,,blau,yellow,g,0.0,g,1.0,0.7903122000000167,,,,,,,,,,,,,,1.0,7.0,19.0,7.0,,,,,166.27779999999984,,,,,,,,,,,,,,,,,166.26327289999995,167.4767316,168.2764534999999,168.26134909999996,,,,,,,,,,,,,,,,168.26643309999986,168.2764534999999,168.2764534999999,169.0785833,g,1.0,0.7903122000000167,,169.0793322999998,169.09266549999984,170.07706229999985,170.09221489999982,,,,,,,,,,,,,,,,,,,sub-063,1,stroop_test,60.025991254222525,
,,,,20.0,8.0,1.0,,,,,rot,red,r,1.0,r,1.0,0.5680526999999529,,,,,,,,,,,,,,1.0,8.0,20.0,1.0,,,,,170.09221489999982,,,,,,,,,,,,,,,,,170.07777389999978,170.89190459999986,171.69126089999986,171.6762835999998,,,,,,,,,,,,,,,,171.6814493999998,171.69126089999986,171.69126089999986,172.2769440999998,r,1.0,0.5680526999999529,,172.27806399999986,172.2906860999999,173.2748598999999,173.2901930999999,,,,,,,,,,,,,,,,,,,sub-063,1,stroop_test,60.025991254222525,
,,,,21.0,9.0,1.0,,,,,blau,red,r,0.0,g,0.0,0.7121211999999559,,,,,,,,,,,,,,1.0,9.0,21.0,4.0,,,,,173.2901930999999,,,,,,,,,,,,,,,,,173.27532439999982,173.6405416,174.4397343999999,174.42471,,,,,,,,,,,,,,,,174.43016239999997,174.4397343999999,174.4397343999999,175.1581190999998,g,0.0,0.7121211999999559,,175.16552189999993,175.17270599999983,176.15751499999988,176.17230969999991,,,,,,,,,,,,,,,,,,,sub-063,1,stroop_test,60.025991254222525,
,,,,22.0,10.0,1.0,,,,,gelb,blue,b,0.0,b,1.0,0.6099237999999332,,,,,,,,,,,,,,1.0,10.0,22.0,9.0,,,,,176.17230969999991,,,,,,,,,,,,,,,,,176.15804559999992,176.97193749999997,177.77121669999997,177.75680669999997,,,,,,,,,,,,,,,,177.7624156999998,177.77121669999997,177.77121669999997,178.3906589999999,b,1.0,0.6099237999999332,,178.3957833999998,178.40452959999993,179.38943139999992,179.4037687,,,,,,,,,,,,,,,,,,,sub-063,1,stroop_test,60.025991254222525,
,,,,23.0,11.0,1.0,,,,,gelb,yellow,g,1.0,g,1.0,1.17677290000006,,,,,,,,,,,,,,1.0,11.0,23.0,11.0,,,,,179.4037687,,,,,,,,,,,,,,,,,179.39010759999996,179.50386179999987,180.30309149999997,180.2877563,,,,,,,,,,,,,,,,180.28862569999976,180.30309149999997,180.30309149999997,181.4879136999998,g,1.0,1.17677290000006,,181.488797,181.5027375,182.48704679999992,182.50198419999992,,,,,,,,,,,,,,,,,,,sub-063,1,stroop_test,60.025991254222525,
,,,,,,,,,,,,,,,,,,,,,,,,,,,,,,,,,,,,,,,,,,,,,,,,,,,,,,,,,,,,,,,,,,,,,,,,,,,,,,,,,,,,,,,182.48736039999997,182.50198419999992,182.50198419999992,188.71807689999991,space,6.2056532999999945,,,,,,,,,,,,,sub-063,1,stroop_test,60.025991254222525,
,,,,0.0,0.0,0.0,,,,,,,,,,,,,blau,red,r,0.0,r,1.0,0.8830293000000893,,,,,,,,,,0.0,0.0,0.0,4.0,188.7344642999999,,,,,,,,,,,,,,,,,188.7307925,189.0818287999998,189.8812929999999,189.8659538999998,,,,,,,,,,,,,,,,,,,,,,,,,,,,,,,,,,,189.87082209999997,189.8812929999999,189.8812929999999,190.7680389,r,1.0,0.8830293000000893,,,,,sub-063,1,stroop_test,60.025991254222525,
,,,,1.0,1.0,0.0,,,,,,,,,,,,,rot,yellow,g,0.0,g,1.0,0.8192867000000206,,,,,,,,,,0.0,1.0,1.0,3.0,190.7806051,,,,,,,,,,,,,,,,,190.7686646,190.8805097999998,191.6800662999999,191.66540769999983,,,,,,,,,,,,,,,,,,,,,,,,,,,,,,,,,,,191.67087359999985,191.6800662999999,191.6800662999999,192.5151704,g,1.0,0.8192867000000206,,,,,sub-063,1,stroop_test,60.025991254222525,
,,,,2.0,2.0,0.0,,,,,,,,,,,,,gelb,red,r,0.0,r,1.0,0.856404300000122,,,,,,,,,,0.0,2.0,2.0,8.0,192.52977809999996,,,,,,,,,,,,,,,,,192.5158752,192.8795966999999,193.6794891,193.6645844,,,,,,,,,,,,,,,,,,,,,,,,,,,,,,,,,,,193.6697830999999,193.6794891,193.6794891,194.5480131999998,r,1.0,0.856404300000122,,,,,sub-063,1,stroop_test,60.025991254222525,
,,,,3.0,3.0,0.0,,,,,,,,,,,,,gelb,blue,b,0.0,b,1.0,0.5954914999999801,,,,,,,,,,0.0,3.0,3.0,9.0,194.56211729999995,,,,,,,,,,,,,,,,,194.5488676,194.66233829999987,195.4616904999998,195.4461806999998,,,,,,,,,,,,,,,,,,,,,,,,,,,,,,,,,,,195.44716589999985,195.4616904999998,195.4616904999998,196.0635201,b,1.0,0.5954914999999801,,,,,sub-063,1,stroop_test,60.025991254222525,
,,,,4.0,4.0,0.0,,,,,,,,,,,,,blau,blue,b,1.0,b,1.0,0.6531704999999874,,,,,,,,,,0.0,4.0,4.0,6.0,196.0775031999999,,,,,,,,,,,,,,,,,196.0641157,197.27681599999983,198.07633579999992,198.06185149999988,,,,,,,,,,,,,,,,,,,,,,,,,,,,,,,,,,,198.06797749999987,198.07633579999992,198.07633579999992,198.74521129999997,b,1.0,0.6531704999999874,,,,,sub-063,1,stroop_test,60.025991254222525,
,,,,5.0,5.0,0.0,,,,,,,,,,,,,blau,yellow,g,0.0,g,1.0,0.9141222999999172,,,,,,,,,,0.0,5.0,5.0,7.0,198.7598492,,,,,,,,,,,,,,,,,198.7459196,198.85986159999996,199.65920959999997,199.6440783999999,,,,,,,,,,,,,,,,,,,,,,,,,,,,,,,,,,,199.64493859999996,199.65920959999997,199.65920959999997,200.5774574,g,1.0,0.9141222999999172,,,,,sub-063,1,stroop_test,60.025991254222525,
,,,,6.0,6.0,0.0,,,,,,,,,,,,,rot,blue,b,0.0,b,1.0,1.1082632999998625,,,,,,,,,,0.0,6.0,6.0,2.0,200.5921418999999,,,,,,,,,,,,,,,,,200.5781348999999,201.7916627999998,202.5909463999999,202.57620999999995,,,,,,,,,,,,,,,,,,,,,,,,,,,,,,,,,,,202.5820557,202.5909463999999,202.5909463999999,203.7097187999998,b,1.0,1.1082632999998625,,,,,sub-063,1,stroop_test,60.025991254222525,
,,,,7.0,7.0,0.0,,,,,,,,,,,,,gelb,yellow,g,1.0,g,1.0,0.8033680999999433,,,,,,,,,,0.0,7.0,7.0,10.0,203.72343409999985,,,,,,,,,,,,,,,,,203.7103957999998,204.5232157999999,205.32269569999997,205.3080782999998,,,,,,,,,,,,,,,,,,,,,,,,,,,,,,,,,,,205.31411869999988,205.32269569999997,205.32269569999997,206.1420254,g,1.0,0.8033680999999433,,,,,sub-063,1,stroop_test,60.025991254222525,
,,,,8.0,8.0,0.0,,,,,,,,,,,,,rot,red,r,1.0,r,1.0,0.7576845999999477,,,,,,,,,,0.0,8.0,8.0,1.0,206.15589889999976,,,,,,,,,,,,,,,,,206.1426543,206.95530839999992,207.7546519,207.7395674999998,,,,,,,,,,,,,,,,,,,,,,,,,,,,,,,,,,,207.7451997999999,207.7546519,207.7546519,208.52348229999984,r,1.0,0.7576845999999477,,,,,sub-063,1,stroop_test,60.025991254222525,
,,,,9.0,9.0,0.0,,,,,,,,,,,,,blau,blue,b,1.0,b,1.0,0.5511880999999903,,,,,,,,,,0.0,9.0,9.0,5.0,208.537509,,,,,,,,,,,,,,,,,208.52408089999997,209.7373032999999,210.5364963999998,210.5210525,,,,,,,,,,,,,,,,,,,,,,,,,,,,,,,,,,,210.5248872,210.5364963999998,210.5364963999998,211.1054465,b,1.0,0.5511880999999903,,,,,sub-063,1,stroop_test,60.025991254222525,
,,,,10.0,10.0,0.0,,,,,,,,,,,,,rot,red,r,1.0,r,1.0,0.77893569999992,,,,,,,,,,0.0,10.0,10.0,0.0,211.11944189999983,,,,,,,,,,,,,,,,,211.10616579999987,211.2193886,212.0190118999999,212.00371199999995,,,,,,,,,,,,,,,,,,,,,,,,,,,,,,,,,,,212.0092771,212.0190118999999,212.0190118999999,212.8043121999999,r,1.0,0.77893569999992,,,,,sub-063,1,stroop_test,60.025991254222525,
,,,,11.0,11.0,0.0,,,,,,,,,,,,,gelb,yellow,g,1.0,g,1.0,0.4227079999998295,,,,,,,,,,0.0,11.0,11.0,11.0,212.81867519999992,,,,,,,,,,,,,,,,,212.8049394,212.9184800999999,213.7179177999999,213.70312739999983,,,,,,,,,,,,,,,,,,,,,,,,,,,,,,,,,,,213.7085563999999,213.7179177999999,213.7179177999999,214.1542582999998,g,1.0,0.4227079999998295,,,,,sub-063,1,stroop_test,60.025991254222525,
,,,,12.0,0.0,1.0,,,,,,,,,,,,,gelb,red,r,0.0,r,1.0,0.5974571000001561,,,,,,,,,,1.0,0.0,12.0,8.0,214.1678546999999,,,,,,,,,,,,,,,,,214.1549547999998,214.9673928,215.76697909999984,215.7516736,,,,,,,,,,,,,,,,,,,,,,,,,,,,,,,,,,,215.75282939999988,215.76697909999984,215.76697909999984,216.36811049999983,r,1.0,0.5974571000001561,,,,,sub-063,1,stroop_test,60.025991254222525,
,,,,13.0,1.0,1.0,,,,,,,,,,,,,rot,yellow,g,0.0,g,1.0,0.6506686000000172,,,,,,,,,,1.0,1.0,13.0,3.0,216.3831694999999,,,,,,,,,,,,,,,,,216.36859489999983,216.7332749,217.5325441,217.51788229999988,,,,,,,,,,,,,,,,,,,,,,,,,,,,,,,,,,,217.5241246999999,217.5325441,217.5325441,218.1854096999998,g,1.0,0.6506686000000172,,,,,sub-063,1,stroop_test,60.025991254222525,
,,,,14.0,2.0,1.0,,,,,,,,,,,,,blau,red,r,0.0,r,1.0,0.7347562999998445,,,,,,,,,,1.0,2.0,14.0,4.0,218.1987674999998,,,,,,,,,,,,,,,,,218.1859562,218.99858189999983,219.7979452999998,219.7831839999999,,,,,,,,,,,,,,,,,,,,,,,,,,,,,,,,,,,219.7882923,219.7979452999998,219.7979452999998,220.5492379,r,1.0,0.7347562999998445,,,,,sub-063,1,stroop_test,60.025991254222525,
,,,,15.0,3.0,1.0,,,,,,,,,,,,,rot,red,r,1.0,r,1.0,0.6853092999999717,,,,,,,,,,1.0,3.0,15.0,1.0,220.5641068,,,,,,,,,,,,,,,,,220.5497830999998,220.66437399999995,221.4636602999999,221.4486714,,,,,,,,,,,,,,,,,,,,,,,,,,,,,,,,,,,221.4553262999998,221.4636602999999,221.4636602999999,222.16554389999988,r,1.0,0.6853092999999717,,,,,sub-063,1,stroop_test,60.025991254222525,
,,,,16.0,4.0,1.0,,,,,,,,,,,,,rot,red,r,1.0,r,1.0,0.6146611000001485,,,,,,,,,,1.0,4.0,16.0,0.0,222.17999599999985,,,,,,,,,,,,,,,,,222.16612639999997,223.37970419999988,224.17893569999976,224.1636039,,,,,,,,,,,,,,,,,,,,,,,,,,,,,,,,,,,224.16461979999983,224.17893569999976,224.17893569999976,224.7982924999999,r,1.0,0.6146611000001485,,,,,sub-063,1,stroop_test,60.025991254222525,
,,,,17.0,5.0,1.0,,,,,,,,,,,,,blau,blue,b,1.0,b,1.0,0.6192713999998887,,,,,,,,,,1.0,5.0,17.0,6.0,224.81196419999992,,,,,,,,,,,,,,,,,224.7989275,224.9117563,225.71129339999996,225.6963384999999,,,,,,,,,,,,,,,,,,,,,,,,,,,,,,,,,,,225.7011367,225.71129339999996,225.71129339999996,226.3466441999999,b,1.0,0.6192713999998887,,,,,sub-063,1,stroop_test,60.025991254222525,
,,,,18.0,6.0,1.0,,,,,,,,,,,,,gelb,yellow,g,1.0,g,1.0,0.7384704999999485,,,,,,,,,,1.0,6.0,18.0,10.0,226.36087409999985,,,,,,,,,,,,,,,,,226.34724519999983,226.4610399999999,227.2604543,227.2452079,,,,,,,,,,,,,,,,,,,,,,,,,,,,,,,,,,,227.2506331999998,227.2604543,227.2604543,228.0132498999999,g,1.0,0.7384704999999485,,,,,sub-063,1,stroop_test,60.025991254222525,
,,,,19.0,7.0,1.0,,,,,,,,,,,,,gelb,yellow,g,1.0,g,1.0,0.5095487000000958,,,,,,,,,,1.0,7.0,19.0,11.0,228.02710619999996,,,,,,,,,,,,,,,,,228.0140379999998,228.82644809999988,229.62602279999987,229.61141569999995,,,,,,,,,,,,,,,,,,,,,,,,,,,,,,,,,,,229.6124077999998,229.62602279999987,229.62602279999987,230.1447945,g,1.0,0.5095487000000958,,,,,sub-063,1,stroop_test,60.025991254222525,
,,,,20.0,8.0,1.0,,,,,,,,,,,,,gelb,blue,b,0.0,b,1.0,0.5619113000000198,,,,,,,,,,1.0,8.0,20.0,9.0,230.15886239999983,,,,,,,,,,,,,,,,,230.14544409999985,231.3582001,232.15786839999987,232.14313989999985,,,,,,,,,,,,,,,,,,,,,,,,,,,,,,,,,,,232.14404419999985,232.15786839999987,232.15786839999987,232.7262265999998,b,1.0,0.5619113000000198,,,,,sub-063,1,stroop_test,60.025991254222525,
,,,,21.0,9.0,1.0,,,,,,,,,,,,,rot,blue,b,0.0,b,1.0,0.934079200000042,,,,,,,,,,1.0,9.0,21.0,2.0,232.74108749999985,,,,,,,,,,,,,,,,,232.72684659999985,232.8409592999999,233.6401957999999,233.62570299999996,,,,,,,,,,,,,,,,,,,,,,,,,,,,,,,,,,,233.63174549999985,233.6401957999999,233.6401957999999,234.5771150999999,b,1.0,0.934079200000042,,,,,sub-063,1,stroop_test,60.025991254222525,
,,,,22.0,10.0,1.0,,,,,,,,,,,,,blau,yellow,g,0.0,g,1.0,1.098787899999934,,,,,,,,,,1.0,10.0,22.0,7.0,234.590066,,,,,,,,,,,,,,,,,234.57808979999984,234.69027289999983,235.48927989999996,235.4744728999999,,,,,,,,,,,,,,,,,,,,,,,,,,,,,,,,,,,235.4796184999998,235.48927989999996,235.48927989999996,236.5919518999999,g,1.0,1.098787899999934,,,,,sub-063,1,stroop_test,60.025991254222525,
,,,,23.0,11.0,1.0,,,,,,,,,,,,,blau,blue,b,1.0,b,1.0,0.6595638000001145,,,,,,,,,,1.0,11.0,23.0,5.0,236.6055987,,,,,,,,,,,,,,,,,236.5926305999999,237.80468109999995,238.60452259999988,238.58989139999997,,,,,,,,,,,,,,,,,,,,,,,,,,,,,,,,,,,238.59092189999976,238.60452259999988,238.60452259999988,239.27288679999992,b,1.0,0.6595638000001145,,,,,sub-063,1,stroop_test,60.025991254222525,
,,,,24.0,0.0,2.0,,,,,,,,,,,,,gelb,yellow,g,1.0,g,1.0,0.5365823999998156,,,,,,,,,,2.0,0.0,24.0,11.0,239.2875029999998,,,,,,,,,,,,,,,,,239.27354049999985,240.08682079999997,240.88637959999983,240.8716069,,,,,,,,,,,,,,,,,,,,,,,,,,,,,,,,,,,240.8774517999998,240.88637959999983,240.88637959999983,241.4392863999999,g,1.0,0.5365823999998156,,,,,sub-063,1,stroop_test,60.025991254222525,
,,,,25.0,1.0,2.0,,,,,,,,,,,,,gelb,yellow,g,1.0,g,1.0,0.5211520000000291,,,,,,,,,,2.0,1.0,25.0,10.0,241.45228079999995,,,,,,,,,,,,,,,,,241.44007569999985,242.65212509999992,243.45166399999997,243.4370176,,,,,,,,,,,,,,,,,,,,,,,,,,,,,,,,,,,243.4379250999998,243.45166399999997,243.45166399999997,243.98754609999992,g,1.0,0.5211520000000291,,,,,sub-063,1,stroop_test,60.025991254222525,
,,,,26.0,2.0,2.0,,,,,,,,,,,,,rot,yellow,g,0.0,g,1.0,0.5393194999999196,,,,,,,,,,2.0,2.0,26.0,3.0,244.00105829999984,,,,,,,,,,,,,,,,,243.98845399999985,244.1011527999999,244.90063229999987,244.88644959999988,,,,,,,,,,,,,,,,,,,,,,,,,,,,,,,,,,,244.89200349999987,244.90063229999987,244.90063229999987,245.453941,g,1.0,0.5393194999999196,,,,,sub-063,1,stroop_test,60.025991254222525,
,,,,27.0,3.0,2.0,,,,,,,,,,,,,rot,blue,b,0.0,b,1.0,0.5038326999999754,,,,,,,,,,2.0,3.0,27.0,2.0,245.46758279999997,,,,,,,,,,,,,,,,,245.4549176999999,245.81712049999987,246.6167152999999,246.60178269999983,,,,,,,,,,,,,,,,,,,,,,,,,,,,,,,,,,,246.6027087,246.6167152999999,246.6167152999999,247.13609989999983,b,1.0,0.5038326999999754,,,,,sub-063,1,stroop_test,60.025991254222525,
,,,,28.0,4.0,2.0,,,,,,,,,,,,,blau,red,r,0.0,r,1.0,0.5277627000000393,,,,,,,,,,2.0,4.0,28.0,4.0,247.1496021999999,,,,,,,,,,,,,,,,,247.1367472999998,247.2492984999999,248.04886979999992,248.03452989999985,,,,,,,,,,,,,,,,,,,,,,,,,,,,,,,,,,,248.0398611999999,248.04886979999992,248.04886979999992,248.58481729999997,r,1.0,0.5277627000000393,,,,,sub-063,1,stroop_test,60.025991254222525,
,,,,29.0,5.0,2.0,,,,,,,,,,,,,blau,yellow,g,0.0,g,1.0,0.8312526999998227,,,,,,,,,,2.0,5.0,29.0,7.0,248.5987843999999,,,,,,,,,,,,,,,,,248.58546869999984,249.39862249999987,250.19800429999987,250.18277479999983,,,,,,,,,,,,,,,,,,,,,,,,,,,,,,,,,,,250.18381249999996,250.19800429999987,250.19800429999987,251.03256409999997,g,1.0,0.8312526999998227,,,,,sub-063,1,stroop_test,60.025991254222525,
,,,,30.0,6.0,2.0,,,,,,,,,,,,,gelb,blue,b,0.0,b,1.0,0.3434764000000996,,,,,,,,,,2.0,6.0,30.0,9.0,251.04713229999996,,,,,,,,,,,,,,,,,251.0330778,251.8468112999999,252.64637049999988,252.6316503999999,,,,,,,,,,,,,,,,,,,,,,,,,,,,,,,,,,,252.6377043,252.64637049999988,252.64637049999988,252.99858629999997,b,1.0,0.3434764000000996,,,,,sub-063,1,stroop_test,60.025991254222525,
,,,,31.0,7.0,2.0,,,,,,,,,,,,,blau,blue,b,1.0,b,1.0,0.5317347000000154,,,,,,,,,,2.0,7.0,31.0,6.0,253.013074,,,,,,,,,,,,,,,,,252.99930339999992,253.11343779999996,253.9125165999999,253.8974377999998,,,,,,,,,,,,,,,,,,,,,,,,,,,,,,,,,,,253.90203769999997,253.9125165999999,253.9125165999999,254.4482418,b,1.0,0.5317347000000154,,,,,sub-063,1,stroop_test,60.025991254222525,
,,,,32.0,8.0,2.0,,,,,,,,,,,,,gelb,red,r,0.0,r,1.0,0.6179618999999548,,,,,,,,,,2.0,8.0,32.0,8.0,254.46216809999987,,,,,,,,,,,,,,,,,254.44892359999997,255.6615594,256.4609839,256.4457831,,,,,,,,,,,,,,,,,,,,,,,,,,,,,,,,,,,256.45167879999985,256.4609839,256.4609839,257.0960963,r,1.0,0.6179618999999548,,,,,sub-063,1,stroop_test,60.025991254222525,
,,,,33.0,9.0,2.0,,,,,,,,,,,,,rot,red,r,1.0,r,1.0,0.5488789999999426,,,,,,,,,,2.0,9.0,33.0,1.0,257.1109821,,,,,,,,,,,,,,,,,257.09677739999984,257.4607093999998,258.25985059999994,258.2452808999999,,,,,,,,,,,,,,,,,,,,,,,,,,,,,,,,,,,258.25107179999986,258.25985059999994,258.25985059999994,258.81243419999987,r,1.0,0.5488789999999426,,,,,sub-063,1,stroop_test,60.025991254222525,
,,,,34.0,10.0,2.0,,,,,,,,,,,,,blau,blue,b,1.0,b,1.0,0.5249350000001414,,,,,,,,,,2.0,10.0,34.0,5.0,258.8265592999999,,,,,,,,,,,,,,,,,258.81306189999987,259.1767123,259.9760392999999,259.9618132999999,,,,,,,,,,,,,,,,,,,,,,,,,,,,,,,,,,,259.9664587,259.9760392999999,259.9760392999999,260.51185429999987,b,1.0,0.5249350000001414,,,,,sub-063,1,stroop_test,60.025991254222525,
,,,,35.0,11.0,2.0,,,,,,,,,,,,,rot,red,r,1.0,r,1.0,0.4750175000001491,,,,,,,,,,2.0,11.0,35.0,0.0,260.5256592999999,,,,,,,,,,,,,,,,,260.51245759999983,260.6254131999999,261.42509129999985,261.4105335999998,,,,,,,,,,,,,,,,,,,,,,,,,,,,,,,,,,,261.4163478999999,261.42509129999985,261.42509129999985,261.9109643999998,r,1.0,0.4750175000001491,,,,,sub-063,1,stroop_test,60.025991254222525,
,,,,36.0,0.0,3.0,,,,,,,,,,,,,rot,red,r,1.0,r,1.0,0.7350089999999909,,,,,,,,,,3.0,0.0,36.0,0.0,261.92521839999995,,,,,,,,,,,,,,,,,261.9116847999999,262.02497389999985,262.8242273999999,262.8088618,,,,,,,,,,,,,,,,,,,,,,,,,,,,,,,,,,,262.8098447,262.8242273999999,262.8242273999999,263.5757864999998,r,1.0,0.7350089999999909,,,,,sub-063,1,stroop_test,60.025991254222525,
,,,,37.0,1.0,3.0,,,,,,,,,,,,,rot,blue,b,0.0,b,1.0,0.6633776000001035,,,,,,,,,,3.0,1.0,37.0,2.0,263.5903893999998,,,,,,,,,,,,,,,,,263.5764824999999,264.39019489999987,265.1896552999999,265.1755188,,,,,,,,,,,,,,,,,,,,,,,,,,,,,,,,,,,265.1764418999999,265.1896552999999,265.1896552999999,265.8579759,b,1.0,0.6633776000001035,,,,,sub-063,1,stroop_test,60.025991254222525,
,,,,38.0,2.0,3.0,,,,,,,,,,,,,blau,yellow,g,0.0,g,1.0,0.5411027999998623,,,,,,,,,,3.0,2.0,38.0,7.0,265.8725078,,,,,,,,,,,,,,,,,265.8585389,266.6719473999999,267.4715180999999,267.4559932999998,,,,,,,,,,,,,,,,,,,,,,,,,,,,,,,,,,,267.46031689999995,267.4715180999999,267.4715180999999,268.0242712,g,1.0,0.5411027999998623,,,,,sub-063,1,stroop_test,60.025991254222525,
,,,,39.0,3.0,3.0,,,,,,,,,,,,,rot,yellow,g,0.0,g,1.0,0.4738746000000446,,,,,,,,,,3.0,3.0,39.0,3.0,268.0379553999999,,,,,,,,,,,,,,,,,268.02486069999986,268.8378757999999,269.63699269999984,269.6226290999998,,,,,,,,,,,,,,,,,,,,,,,,,,,,,,,,,,,269.628612,269.63699269999984,269.63699269999984,270.1234854999998,g,1.0,0.4738746000000446,,,,,sub-063,1,stroop_test,60.025991254222525,
,,,,40.0,4.0,3.0,,,,,,,,,,,,,gelb,red,r,0.0,r,1.0,0.6448806999999306,,,,,,,,,,3.0,4.0,40.0,8.0,270.13722919999987,,,,,,,,,,,,,,,,,270.1241693999998,270.93674339999984,271.7357992999998,271.72131879999984,,,,,,,,,,,,,,,,,,,,,,,,,,,,,,,,,,,271.727173,271.7357992999998,271.7357992999998,272.3878600999999,r,1.0,0.6448806999999306,,,,,sub-063,1,stroop_test,60.025991254222525,
,,,,41.0,5.0,3.0,,,,,,,,,,,,,blau,red,r,0.0,r,1.0,0.6945266000000174,,,,,,,,,,3.0,5.0,41.0,4.0,272.40226899999993,,,,,,,,,,,,,,,,,272.3885121999999,272.50273049999987,273.318587,273.30387989999986,,,,,,,,,,,,,,,,,,,,,,,,,,,,,,,,,,,273.30893709999987,273.318587,273.318587,274.0204253999998,r,1.0,0.6945266000000174,,,,,sub-063,1,stroop_test,60.025991254222525,
,,,,42.0,6.0,3.0,,,,,,,,,,,,,gelb,yellow,g,1.0,g,1.0,0.4799163000000135,,,,,,,,,,3.0,6.0,42.0,10.0,274.0346451999999,,,,,,,,,,,,,,,,,274.0210708999998,275.23391709999987,276.0332291,276.01892999999995,,,,,,,,,,,,,,,,,,,,,,,,,,,,,,,,,,,276.0241636999999,276.0332291,276.0332291,276.5186190999998,g,1.0,0.4799163000000135,,,,,sub-063,1,stroop_test,60.025991254222525,
,,,,43.0,7.0,3.0,,,,,,,,,,,,,blau,blue,b,1.0,b,1.0,0.4791417999999794,,,,,,,,,,3.0,7.0,43.0,6.0,276.5336309999998,,,,,,,,,,,,,,,,,276.5192267,277.3328491999998,278.13256449999994,278.1177392999998,,,,,,,,,,,,,,,,,,,,,,,,,,,,,,,,,,,278.1227468999998,278.13256449999994,278.13256449999994,278.6170858999999,b,1.0,0.4791417999999794,,,,,sub-063,1,stroop_test,60.025991254222525,
,,,,44.0,8.0,3.0,,,,,,,,,,,,,gelb,blue,b,0.0,b,1.0,0.9120563999999832,,,,,,,,,,3.0,8.0,44.0,9.0,278.6320369,,,,,,,,,,,,,,,,,278.6176423999998,278.9819624,279.78149659999985,279.7668813999999,,,,,,,,,,,,,,,,,,,,,,,,,,,,,,,,,,,279.7721078999998,279.78149659999985,279.78149659999985,280.6994533999998,b,1.0,0.9120563999999832,,,,,sub-063,1,stroop_test,60.025991254222525,
,,,,45.0,9.0,3.0,,,,,,,,,,,,,gelb,yellow,g,1.0,g,1.0,1.3247191000000385,,,,,,,,,,3.0,9.0,45.0,11.0,280.7145427999999,,,,,,,,,,,,,,,,,280.7000561,281.91400239999984,282.7137614999999,282.6985705999998,,,,,,,,,,,,,,,,,,,,,,,,,,,,,,,,,,,282.69940559999986,282.7137614999999,282.7137614999999,284.04910389999986,g,1.0,1.3247191000000385,,,,,sub-063,1,stroop_test,60.025991254222525,
,,,,46.0,10.0,3.0,,,,,,,,,,,,,blau,blue,b,1.0,b,1.0,0.5158548000001701,,,,,,,,,,3.0,10.0,46.0,5.0,284.0630044999998,,,,,,,,,,,,,,,,,284.0497214999998,284.4126329999999,285.2119753999998,285.1966043,,,,,,,,,,,,,,,,,,,,,,,,,,,,,,,,,,,285.2019227999999,285.2119753999998,285.2119753999998,285.7324253999998,b,1.0,0.5158548000001701,,,,,sub-063,1,stroop_test,60.025991254222525,
,,,,47.0,11.0,3.0,,,,,,,,,,,,,rot,red,r,1.0,r,1.0,0.6134862999999768,,,,,,,,,,3.0,11.0,47.0,1.0,285.74501369999984,,,,,,,,,,,,,,,,,285.73301019999985,285.8449705999999,286.64446299999986,286.6288381999998,,,,,,,,,,,,,,,,,,,,,,,,,,,,,,,,,,,286.6339000999999,286.64446299999986,286.64446299999986,287.2635903999999,r,1.0,0.6134862999999768,,,,,sub-063,1,stroop_test,60.025991254222525,
,,,,48.0,0.0,4.0,,,,,,,,,,,,,blau,blue,b,1.0,b,1.0,0.6577743000000282,,,,,,,,,,4.0,0.0,48.0,6.0,287.2775740999998,,,,,,,,,,,,,,,,,287.2641246999999,287.3774065,288.1772021999998,288.1623407,,,,,,,,,,,,,,,,,,,,,,,,,,,,,,,,,,,288.16709419999984,288.1772021999998,288.1772021999998,288.84575559999985,b,1.0,0.6577743000000282,,,,,sub-063,1,stroop_test,60.025991254222525,
,,,,49.0,1.0,4.0,,,,,,,,,,,,,rot,red,r,1.0,r,1.0,0.5435654000000341,,,,,,,,,,4.0,1.0,49.0,1.0,288.8602277,,,,,,,,,,,,,,,,,288.84636449999994,289.6597403999999,290.458848,290.44424589999994,,,,,,,,,,,,,,,,,,,,,,,,,,,,,,,,,,,290.4507864999998,290.458848,290.458848,291.010777,r,1.0,0.5435654000000341,,,,,sub-063,1,stroop_test,60.025991254222525,
,,,,50.0,2.0,4.0,,,,,,,,,,,,,gelb,red,r,0.0,r,1.0,0.5721390000001065,,,,,,,,,,4.0,2.0,50.0,8.0,291.0255738999999,,,,,,,,,,,,,,,,,291.0113485999998,291.1251336999999,291.9246956999998,291.9102667999998,,,,,,,,,,,,,,,,,,,,,,,,,,,,,,,,,,,291.91650949999985,291.9246956999998,291.9246956999998,292.51086429999987,r,1.0,0.5721390000001065,,,,,sub-063,1,stroop_test,60.025991254222525,
,,,,51.0,3.0,4.0,,,,,,,,,,,,,blau,red,r,0.0,r,1.0,0.4789809999999761,,,,,,,,,,4.0,3.0,51.0,4.0,292.52427279999984,,,,,,,,,,,,,,,,,292.5115225999998,292.6246014999999,293.42391699999985,293.4089535999999,,,,,,,,,,,,,,,,,,,,,,,,,,,,,,,,,,,293.4142516999998,293.42391699999985,293.42391699999985,293.9096877999998,r,1.0,0.4789809999999761,,,,,sub-063,1,stroop_test,60.025991254222525,
,,,,52.0,4.0,4.0,,,,,,,,,,,,,rot,yellow,g,0.0,g,1.0,0.6035403999999289,,,,,,,,,,4.0,4.0,52.0,3.0,293.9236993999998,,,,,,,,,,,,,,,,,293.9102504,294.2737123999998,295.0727519,295.0580275,,,,,,,,,,,,,,,,,,,,,,,,,,,,,,,,,,,295.06483189999994,295.0727519,295.0727519,295.6919406999998,g,1.0,0.6035403999999289,,,,,sub-063,1,stroop_test,60.025991254222525,
,,,,53.0,5.0,4.0,,,,,,,,,,,,,rot,red,r,1.0,r,1.0,1.164538599999787,,,,,,,,,,4.0,5.0,53.0,0.0,295.7059566999999,,,,,,,,,,,,,,,,,295.6926110999998,296.50589119999995,297.3057647999999,297.2896337,,,,,,,,,,,,,,,,,,,,,,,,,,,,,,,,,,,297.29022439999994,297.3057647999999,297.3057647999999,298.4742641999999,r,1.0,1.164538599999787,,,,,sub-063,1,stroop_test,60.025991254222525,
,,,,54.0,6.0,4.0,,,,,,,,,,,,,gelb,yellow,g,1.0,g,1.0,0.6082092999999986,,,,,,,,,,4.0,6.0,54.0,11.0,298.48789399999987,,,,,,,,,,,,,,,,,298.4748774999998,299.6875773,300.48645809999994,300.4720791999998,,,,,,,,,,,,,,,,,,,,,,,,,,,,,,,,,,,300.4779010999998,300.48645809999994,300.48645809999994,301.1055987,g,1.0,0.6082092999999986,,,,,sub-063,1,stroop_test,60.025991254222525,
,,,,55.0,7.0,4.0,,,,,,,,,,,,,blau,blue,b,1.0,b,1.0,0.6768174999999701,,,,,,,,,,4.0,7.0,55.0,5.0,301.11975269999994,,,,,,,,,,,,,,,,,301.10623609999993,301.4694808999998,302.2690200999998,302.2541931999999,,,,,,,,,,,,,,,,,,,,,,,,,,,,,,,,,,,302.2600832999999,302.2690200999998,302.2690200999998,302.9546002999998,b,1.0,0.6768174999999701,,,,,sub-063,1,stroop_test,60.025991254222525,
,,,,56.0,8.0,4.0,,,,,,,,,,,,,gelb,blue,b,0.0,b,1.0,0.9636617000001024,,,,,,,,,,4.0,8.0,56.0,9.0,302.9687224999998,,,,,,,,,,,,,,,,,302.9553024999998,303.7682023,304.5675583,304.5534042999998,,,,,,,,,,,,,,,,,,,,,,,,,,,,,,,,,,,304.5586090999998,304.5675583,304.5675583,305.5362627999998,b,1.0,0.9636617000001024,,,,,sub-063,1,stroop_test,60.025991254222525,
,,,,57.0,9.0,4.0,,,,,,,,,,,,,rot,blue,b,0.0,b,1.0,0.4948773999999503,,,,,,,,,,4.0,9.0,57.0,2.0,305.5508207999999,,,,,,,,,,,,,,,,,305.5368704,305.9005060999998,306.69974649999995,306.6851912,,,,,,,,,,,,,,,,,,,,,,,,,,,,,,,,,,,306.69046619999995,306.69974649999995,306.69974649999995,307.2029484999998,b,1.0,0.4948773999999503,,,,,sub-063,1,stroop_test,60.025991254222525,
,,,,58.0,10.0,4.0,,,,,,,,,,,,,gelb,yellow,g,1.0,g,1.0,0.7060457999998562,,,,,,,,,,4.0,10.0,58.0,10.0,307.21610429999987,,,,,,,,,,,,,,,,,307.2036349,307.31609609999987,308.11605889999987,308.10187759999985,,,,,,,,,,,,,,,,,,,,,,,,,,,,,,,,,,,308.1069977999998,308.11605889999987,308.11605889999987,308.8347184,g,1.0,0.7060457999998562,,,,,sub-063,1,stroop_test,60.025991254222525,
,,,,59.0,11.0,4.0,,,,,,,,,,,,,blau,yellow,g,0.0,g,1.0,0.7893215999999939,,,,,,,,,,4.0,11.0,59.0,7.0,308.8489652999999,,,,,,,,,,,,,,,,,308.8354890999999,308.9488575999999,309.7487136,309.7335839,,,,,,,,,,,,,,,,,,,,,,,,,,,,,,,,,,,309.7379051999999,309.7487136,309.7487136,310.5516180999998,g,1.0,0.7893215999999939,,,,,sub-063,1,stroop_test,60.025991254222525,
,,,,60.0,0.0,5.0,,,,,,,,,,,,,gelb,red,r,0.0,r,1.0,1.3857151999998223,,,,,,,,,,5.0,0.0,60.0,8.0,310.5646344999998,,,,,,,,,,,,,,,,,310.5522295999999,310.9143519,311.7137805,311.6989569,,,,,,,,,,,,,,,,,,,,,,,,,,,,,,,,,,,311.7057927999999,311.7137805,311.7137805,313.1148632999998,r,1.0,1.3857151999998223,,,,,sub-063,1,stroop_test,60.025991254222525,
,,,,61.0,1.0,5.0,,,,,,,,,,,,,rot,red,r,1.0,r,1.0,0.5433095999999296,,,,,,,,,,5.0,1.0,61.0,0.0,313.1297763,,,,,,,,,,,,,,,,,313.1154096999999,313.47973119999983,314.2792906,314.2641484999999,,,,,,,,,,,,,,,,,,,,,,,,,,,,,,,,,,,314.2692368999999,314.2792906,314.2792906,314.8315703999999,r,1.0,0.5433095999999296,,,,,sub-063,1,stroop_test,60.025991254222525,
,,,,62.0,2.0,5.0,,,,,,,,,,,,,rot,red,r,1.0,r,1.0,0.438056799999913,,,,,,,,,,5.0,2.0,62.0,1.0,314.8457927999998,,,,,,,,,,,,,,,,,314.8321666999998,315.6449597999999,316.44495499999994,316.4299784,,,,,,,,,,,,,,,,,,,,,,,,,,,,,,,,,,,316.4310056999998,316.44495499999994,316.44495499999994,316.8966903999999,r,1.0,0.438056799999913,,,,,sub-063,1,stroop_test,60.025991254222525,
,,,,63.0,3.0,5.0,,,,,,,,,,,,,gelb,yellow,g,1.0,g,1.0,0.8304218000000674,,,,,,,,,,5.0,3.0,63.0,11.0,316.9108147999998,,,,,,,,,,,,,,,,,316.8971839999999,317.0110668,317.81051849999994,317.79627099999993,,,,,,,,,,,,,,,,,,,,,,,,,,,,,,,,,,,317.8016022999998,317.81051849999994,317.81051849999994,318.6450321,g,1.0,0.8304218000000674,,,,,sub-063,1,stroop_test,60.025991254222525,
,,,,64.0,4.0,5.0,,,,,,,,,,,,,blau,blue,b,1.0,b,1.0,0.3952116000000387,,,,,,,,,,5.0,4.0,64.0,5.0,318.6598368,,,,,,,,,,,,,,,,,318.64558109999984,319.8591359999998,320.65878729999986,320.64446069999985,,,,,,,,,,,,,,,,,,,,,,,,,,,,,,,,,,,320.64970819999985,320.65878729999986,320.65878729999986,321.0611118999998,b,1.0,0.3952116000000387,,,,,sub-063,1,stroop_test,60.025991254222525,
,,,,65.0,5.0,5.0,,,,,,,,,,,,,gelb,blue,b,0.0,b,1.0,0.5533630999998422,,,,,,,,,,5.0,5.0,65.0,9.0,321.0756932999998,,,,,,,,,,,,,,,,,321.06172589999983,321.4254738999998,322.2244738999998,322.2099306,,,,,,,,,,,,,,,,,,,,,,,,,,,,,,,,,,,322.2156375999998,322.2244738999998,322.2244738999998,322.79363349999994,b,1.0,0.5533630999998422,,,,,sub-063,1,stroop_test,60.025991254222525,
,,,,66.0,6.0,5.0,,,,,,,,,,,,,blau,red,r,0.0,r,1.0,0.5544234999999844,,,,,,,,,,5.0,6.0,66.0,4.0,322.8076263999999,,,,,,,,,,,,,,,,,322.7943333999999,323.1574354999998,323.9568893999999,323.9421485999999,,,,,,,,,,,,,,,,,,,,,,,,,,,,,,,,,,,323.9487668,323.9568893999999,323.9568893999999,324.5248380999999,r,1.0,0.5544234999999844,,,,,sub-063,1,stroop_test,60.025991254222525,
,,,,67.0,7.0,5.0,,,,,,,,,,,,,rot,yellow,g,0.0,g,1.0,0.7020700000000488,,,,,,,,,,5.0,7.0,67.0,3.0,324.54039909999983,,,,,,,,,,,,,,,,,324.52532269999983,325.73965039999985,326.53912709999986,326.5236544999998,,,,,,,,,,,,,,,,,,,,,,,,,,,,,,,,,,,326.52911529999983,326.53912709999986,326.53912709999986,327.2578853,g,1.0,0.7020700000000488,,,,,sub-063,1,stroop_test,60.025991254222525,
,,,,68.0,8.0,5.0,,,,,,,,,,,,,blau,blue,b,1.0,b,1.0,0.6176579999998921,,,,,,,,,,5.0,8.0,68.0,6.0,327.2718815999999,,,,,,,,,,,,,,,,,327.25859419999983,327.37215419999984,328.1714694,328.15656579999995,,,,,,,,,,,,,,,,,,,,,,,,,,,,,,,,,,,328.1617259999998,328.1714694,328.1714694,328.8062685,b,1.0,0.6176579999998921,,,,,sub-063,1,stroop_test,60.025991254222525,
,,,,69.0,9.0,5.0,,,,,,,,,,,,,blau,yellow,g,0.0,g,1.0,0.704966400000103,,,,,,,,,,5.0,9.0,69.0,7.0,328.8207903,,,,,,,,,,,,,,,,,328.8069375,328.9211611999999,329.7204833999999,329.7059536,,,,,,,,,,,,,,,,,,,,,,,,,,,,,,,,,,,329.7069879999999,329.7204833999999,329.7204833999999,330.4388655999999,g,1.0,0.704966400000103,,,,,sub-063,1,stroop_test,60.025991254222525,
,,,,70.0,10.0,5.0,,,,,,,,,,,,,gelb,yellow,g,1.0,g,1.0,0.5141441999999188,,,,,,,,,,5.0,10.0,70.0,10.0,330.45333919999985,,,,,,,,,,,,,,,,,330.4395396,331.25310969999987,332.0522607999999,332.03775499999983,,,,,,,,,,,,,,,,,,,,,,,,,,,,,,,,,,,332.0432472,332.0522607999999,332.0522607999999,332.57143729999984,g,1.0,0.5141441999999188,,,,,sub-063,1,stroop_test,60.025991254222525,
,,,,71.0,11.0,5.0,,,,,,,,,,,,,rot,blue,b,0.0,b,1.0,0.6823226999999861,,,,,,,,,,5.0,11.0,71.0,2.0,332.5855491,,,,,,,,,,,,,,,,,332.5720200999999,332.6860021,333.4851093,333.4699023999999,,,,,,,,,,,,,,,,,,,,,,,,,,,,,,,,,,,333.4756828,333.4851093,333.4851093,334.1708678,b,1.0,0.6823226999999861,,,,,sub-063,1,stroop_test,60.025991254222525,
,,,,72.0,0.0,6.0,,,,,,,,,,,,,blau,yellow,g,0.0,g,1.0,1.1724649999998746,,,,,,,,,,6.0,0.0,72.0,7.0,334.18460889999983,,,,,,,,,,,,,,,,,334.1714431999999,334.28490999999985,335.08432449999987,335.0697057,,,,,,,,,,,,,,,,,,,,,,,,,,,,,,,,,,,335.0751607,335.08432449999987,335.08432449999987,336.2694749,g,1.0,1.1724649999998746,,,,,sub-063,1,stroop_test,60.025991254222525,
,,,,73.0,1.0,6.0,,,,,,,,,,,,,rot,red,r,1.0,r,1.0,0.9659904000000096,,,,,,,,,,6.0,1.0,73.0,1.0,336.2838133999999,,,,,,,,,,,,,,,,,336.27007579999986,336.6334436,337.4328529999998,337.4190855999998,,,,,,,,,,,,,,,,,,,,,,,,,,,,,,,,,,,337.4244775999998,337.4328529999998,337.4328529999998,338.40215119999993,r,1.0,0.9659904000000096,,,,,sub-063,1,stroop_test,60.025991254222525,
,,,,74.0,2.0,6.0,,,,,,,,,,,,,blau,blue,b,1.0,b,1.0,0.6832885999999689,,,,,,,,,,6.0,2.0,74.0,5.0,338.41596349999986,,,,,,,,,,,,,,,,,338.40276429999994,338.7659858999998,339.56515969999987,339.5503999,,,,,,,,,,,,,,,,,,,,,,,,,,,,,,,,,,,339.5561582999999,339.56515969999987,339.56515969999987,340.2509501999998,b,1.0,0.6832885999999689,,,,,sub-063,1,stroop_test,60.025991254222525,
,,,,75.0,3.0,6.0,,,,,,,,,,,,,rot,red,r,1.0,r,1.0,0.5202520000000277,,,,,,,,,,6.0,3.0,75.0,0.0,340.2650699999999,,,,,,,,,,,,,,,,,340.2516037999999,341.46420309999985,342.26383399999986,342.2481647999998,,,,,,,,,,,,,,,,,,,,,,,,,,,,,,,,,,,342.2544499999999,342.26383399999986,342.26383399999986,342.79937789999985,r,1.0,0.5202520000000277,,,,,sub-063,1,stroop_test,60.025991254222525,
,,,,76.0,4.0,6.0,,,,,,,,,,,,,gelb,red,r,0.0,r,1.0,0.4662502000001041,,,,,,,,,,6.0,4.0,76.0,8.0,342.81368299999986,,,,,,,,,,,,,,,,,342.8000841999999,344.0131577,344.8122242999998,344.7968497999998,,,,,,,,,,,,,,,,,,,,,,,,,,,,,,,,,,,344.8020958999998,344.8122242999998,344.8122242999998,345.2822915999998,r,1.0,0.4662502000001041,,,,,sub-063,1,stroop_test,60.025991254222525,
,,,,77.0,5.0,6.0,,,,,,,,,,,,,gelb,blue,b,0.0,b,1.0,0.5671652000000904,,,,,,,,,,6.0,5.0,77.0,9.0,345.29539679999993,,,,,,,,,,,,,,,,,345.2830664999999,345.6446867999998,346.44498639999983,346.4301317999998,,,,,,,,,,,,,,,,,,,,,,,,,,,,,,,,,,,346.4310403999998,346.44498639999983,346.44498639999983,347.0306908,b,1.0,0.5671652000000904,,,,,sub-063,1,stroop_test,60.025991254222525,
,,,,78.0,6.0,6.0,,,,,,,,,,,,,gelb,yellow,g,1.0,g,1.0,0.4787103000001025,,,,,,,,,,6.0,6.0,78.0,10.0,347.0443154,,,,,,,,,,,,,,,,,347.0316290999999,347.8439509,348.6434952,348.6285098999999,,,,,,,,,,,,,,,,,,,,,,,,,,,,,,,,,,,348.62954079999986,348.6434952,348.6434952,349.1298932999998,g,1.0,0.4787103000001025,,,,,sub-063,1,stroop_test,60.025991254222525,
,,,,79.0,7.0,6.0,,,,,,,,,,,,,rot,blue,b,0.0,b,1.0,0.7910337999999228,,,,,,,,,,6.0,7.0,79.0,2.0,349.1433843,,,,,,,,,,,,,,,,,349.1305375999998,350.34271139999987,351.14213389999986,351.12709759999984,,,,,,,,,,,,,,,,,,,,,,,,,,,,,,,,,,,351.1323525999999,351.14213389999986,351.14213389999986,351.9440539999998,b,1.0,0.7910337999999228,,,,,sub-063,1,stroop_test,60.025991254222525,
,,,,80.0,8.0,6.0,,,,,,,,,,,,,gelb,yellow,g,1.0,g,1.0,0.7428471000000627,,,,,,,,,,6.0,8.0,80.0,11.0,351.95860019999986,,,,,,,,,,,,,,,,,351.9447143,352.3081835999999,353.1077421,353.0924303999998,,,,,,,,,,,,,,,,,,,,,,,,,,,,,,,,,,,353.0979193999999,353.1077421,353.1077421,353.8598714,g,1.0,0.7428471000000627,,,,,sub-063,1,stroop_test,60.025991254222525,
,,,,81.0,9.0,6.0,,,,,,,,,,,,,rot,yellow,g,0.0,g,1.0,0.6847861000001103,,,,,,,,,,6.0,9.0,81.0,3.0,353.8740773999998,,,,,,,,,,,,,,,,,353.8604638999998,355.0735308999999,355.8727749999998,355.8576453999999,,,,,,,,,,,,,,,,,,,,,,,,,,,,,,,,,,,355.86386819999984,355.8727749999998,355.8727749999998,356.5745149999998,g,1.0,0.6847861000001103,,,,,sub-063,1,stroop_test,60.025991254222525,
,,,,82.0,10.0,6.0,,,,,,,,,,,,,blau,blue,b,1.0,b,1.0,0.593001299999969,,,,,,,,,,6.0,10.0,82.0,6.0,356.5888471999999,,,,,,,,,,,,,,,,,356.5752342999999,356.93889739999986,357.7386637,357.72323089999986,,,,,,,,,,,,,,,,,,,,,,,,,,,,,,,,,,,357.72746329999995,357.7386637,357.7386637,358.3407557999999,b,1.0,0.593001299999969,,,,,sub-063,1,stroop_test,60.025991254222525,
,,,,83.0,11.0,6.0,,,,,,,,,,,,,blau,red,r,0.0,r,1.0,0.8853830000000471,,,,,,,,,,6.0,11.0,83.0,4.0,358.3548185999998,,,,,,,,,,,,,,,,,358.3414372,358.4546098999999,359.2543559999999,359.2395614999998,,,,,,,,,,,,,,,,,,,,,,,,,,,,,,,,,,,359.2405331,359.2543559999999,359.2543559999999,360.156757,r,1.0,0.8853830000000471,,,,,sub-063,1,stroop_test,60.025991254222525,
,,,,84.0,0.0,7.0,,,,,,,,,,,,,blau,red,r,0.0,r,1.0,1.1174246999999011,,,,,,,,,,7.0,0.0,84.0,4.0,360.1703808,,,,,,,,,,,,,,,,,360.15741949999983,360.9702560999999,361.7696153,361.7550971999999,,,,,,,,,,,,,,,,,,,,,,,,,,,,,,,,,,,361.7561079999998,361.7696153,361.7696153,362.9043671999998,r,1.0,1.1174246999999011,,,,,sub-063,1,stroop_test,60.025991254222525,
,,,,85.0,1.0,7.0,,,,,,,,,,,,,gelb,blue,b,0.0,b,1.0,1.5472039999999652,,,,,,,,,,7.0,1.0,85.0,9.0,362.9193082999998,,,,,,,,,,,,,,,,,362.9049822999998,363.2689929999999,364.0684340999999,364.0538178999998,,,,,,,,,,,,,,,,,,,,,,,,,,,,,,,,,,,364.0588596999999,364.0684340999999,364.0684340999999,365.6205599,b,1.0,1.5472039999999652,,,,,sub-063,1,stroop_test,60.025991254222525,
,,,,86.0,2.0,7.0,,,,,,,,,,,,,gelb,yellow,g,1.0,g,1.0,0.946011500000168,,,,,,,,,,7.0,2.0,86.0,10.0,365.6340945999998,,,,,,,,,,,,,,,,,365.6212214999998,366.8332337999998,367.6332252,367.6184931999999,,,,,,,,,,,,,,,,,,,,,,,,,,,,,,,,,,,367.6194890999998,367.6332252,367.6332252,368.5851081999999,g,1.0,0.946011500000168,,,,,sub-063,1,stroop_test,60.025991254222525,
,,,,87.0,3.0,7.0,,,,,,,,,,,,,blau,yellow,g,0.0,g,1.0,1.0777947999999924,,,,,,,,,,7.0,3.0,87.0,7.0,368.5992147,,,,,,,,,,,,,,,,,368.5859297999998,369.7986871999999,370.597957,370.5828687999999,,,,,,,,,,,,,,,,,,,,,,,,,,,,,,,,,,,370.5881895999999,370.597957,370.597957,371.6837429999998,g,1.0,1.0777947999999924,,,,,sub-063,1,stroop_test,60.025991254222525,
,,,,88.0,4.0,7.0,,,,,,,,,,,,,rot,red,r,1.0,r,1.0,0.5989087000000382,,,,,,,,,,7.0,4.0,88.0,1.0,371.69794979999983,,,,,,,,,,,,,,,,,371.6843784999999,372.0472333999999,372.8469998999999,372.8320233999998,,,,,,,,,,,,,,,,,,,,,,,,,,,,,,,,,,,372.8377601,372.8469998999999,372.8469998999999,373.44919259999983,r,1.0,0.5989087000000382,,,,,sub-063,1,stroop_test,60.025991254222525,
,,,,89.0,5.0,7.0,,,,,,,,,,,,,blau,blue,b,1.0,b,1.0,0.4978940999999395,,,,,,,,,,7.0,5.0,89.0,6.0,373.4633084,,,,,,,,,,,,,,,,,373.44999899999993,374.2632334,375.0623447999999,375.0477171999999,,,,,,,,,,,,,,,,,,,,,,,,,,,,,,,,,,,375.0527356,375.0623447999999,375.0623447999999,375.5648471,b,1.0,0.4978940999999395,,,,,sub-063,1,stroop_test,60.025991254222525,
,,,,90.0,6.0,7.0,,,,,,,,,,,,,blau,blue,b,1.0,b,1.0,0.5091532999999799,,,,,,,,,,7.0,6.0,90.0,5.0,375.5785919,,,,,,,,,,,,,,,,,375.5655887999999,375.6784263999998,376.4780595,376.4634312999999,,,,,,,,,,,,,,,,,,,,,,,,,,,,,,,,,,,376.4643640999998,376.4780595,376.4780595,376.9961787999998,b,1.0,0.5091532999999799,,,,,sub-063,1,stroop_test,60.025991254222525,
,,,,91.0,7.0,7.0,,,,,,,,,,,,,rot,blue,b,0.0,b,1.0,0.481992400000081,,,,,,,,,,7.0,7.0,91.0,2.0,377.0113354,,,,,,,,,,,,,,,,,376.9966367,377.3611798,378.1603885999998,378.1453826999998,,,,,,,,,,,,,,,,,,,,,,,,,,,,,,,,,,,378.1506508,378.1603885999998,378.1603885999998,378.6468476,b,1.0,0.481992400000081,,,,,sub-063,1,stroop_test,60.025991254222525,
,,,,92.0,8.0,7.0,,,,,,,,,,,,,rot,yellow,g,0.0,g,1.0,0.6788848000001053,,,,,,,,,,7.0,8.0,92.0,3.0,378.6604849999999,,,,,,,,,,,,,,,,,378.6475206,378.7602562,379.55988319999983,379.5445694,,,,,,,,,,,,,,,,,,,,,,,,,,,,,,,,,,,379.5455503999999,379.55988319999983,379.55988319999983,380.2445332,g,1.0,0.6788848000001053,,,,,sub-063,1,stroop_test,60.025991254222525,
,,,,93.0,9.0,7.0,,,,,,,,,,,,,gelb,yellow,g,1.0,g,1.0,0.492882100000088,,,,,,,,,,7.0,9.0,93.0,11.0,380.2593101999999,,,,,,,,,,,,,,,,,380.2451091999999,380.6093429999999,381.4087017,381.3940662,,,,,,,,,,,,,,,,,,,,,,,,,,,,,,,,,,,381.3992712999998,381.4087017,381.4087017,381.9111839,g,1.0,0.492882100000088,,,,,sub-063,1,stroop_test,60.025991254222525,
,,,,94.0,10.0,7.0,,,,,,,,,,,,,gelb,red,r,0.0,r,1.0,0.4390929000001051,,,,,,,,,,7.0,10.0,94.0,8.0,381.92485509999983,,,,,,,,,,,,,,,,,381.9118962999999,383.1246815999998,383.9244061,383.9091474999998,,,,,,,,,,,,,,,,,,,,,,,,,,,,,,,,,,,383.9102306,383.9244061,383.9244061,384.3765291999998,r,1.0,0.4390929000001051,,,,,sub-063,1,stroop_test,60.025991254222525,
,,,,95.0,11.0,7.0,,,,,,,,,,,,,rot,red,r,1.0,r,1.0,0.485357299999805,,,,,,,,,,7.0,11.0,95.0,0.0,384.3906569999999,,,,,,,,,,,,,,,,,384.37711519999993,385.590164,386.3892991999999,386.3743904999999,,,,,,,,,,,,,,,,,,,,,,,,,,,,,,,,,,,386.3808434999999,386.3892991999999,386.3892991999999,386.8921186999999,r,1.0,0.485357299999805,,,,,sub-063,1,stroop_test,60.025991254222525,
,,,,96.0,0.0,8.0,,,,,,,,,,,,,rot,red,r,1.0,r,1.0,0.4348740999998881,,,,,,,,,,8.0,0.0,96.0,1.0,386.9061006,,,,,,,,,,,,,,,,,386.8928200999999,387.2557685999998,388.0553089999999,388.0399934999998,,,,,,,,,,,,,,,,,,,,,,,,,,,,,,,,,,,388.04089909999993,388.0553089999999,388.0553089999999,388.5068781,r,1.0,0.4348740999998881,,,,,sub-063,1,stroop_test,60.025991254222525,
,,,,97.0,1.0,8.0,,,,,,,,,,,,,blau,red,r,0.0,r,1.0,0.4067152999998598,,,,,,,,,,8.0,1.0,97.0,4.0,388.5212566999999,,,,,,,,,,,,,,,,,388.5076798,388.8714175,389.6708276999998,389.6560596999998,,,,,,,,,,,,,,,,,,,,,,,,,,,,,,,,,,,389.6606683,389.6708276999998,389.6708276999998,390.0907514999999,r,1.0,0.4067152999998598,,,,,sub-063,1,stroop_test,60.025991254222525,
,,,,98.0,2.0,8.0,,,,,,,,,,,,,gelb,blue,b,0.0,b,1.0,0.4383136999999806,,,,,,,,,,8.0,2.0,98.0,9.0,390.1040569999998,,,,,,,,,,,,,,,,,390.0915421,391.3031802999999,392.1028747999999,392.0876166999999,,,,,,,,,,,,,,,,,,,,,,,,,,,,,,,,,,,392.09292059999984,392.1028747999999,392.1028747999999,392.55537559999993,b,1.0,0.4383136999999806,,,,,sub-063,1,stroop_test,60.025991254222525,
,,,,99.0,3.0,8.0,,,,,,,,,,,,,blau,blue,b,1.0,b,1.0,0.3981735999998363,,,,,,,,,,8.0,3.0,99.0,5.0,392.5690797999998,,,,,,,,,,,,,,,,,392.5560916999998,392.91937169999983,393.7185754,393.7044179999998,,,,,,,,,,,,,,,,,,,,,,,,,,,,,,,,,,,393.7092952999999,393.7185754,393.7185754,394.12120329999993,b,1.0,0.3981735999998363,,,,,sub-063,1,stroop_test,60.025991254222525,
,,,,100.0,4.0,8.0,,,,,,,,,,,,,rot,yellow,g,0.0,g,1.0,0.7848286000000826,,,,,,,,,,8.0,4.0,100.0,3.0,394.1353428,,,,,,,,,,,,,,,,,394.1219540999998,394.2355031999998,395.0343367999999,395.0194107,,,,,,,,,,,,,,,,,,,,,,,,,,,,,,,,,,,395.0241971999999,395.0343367999999,395.0343367999999,395.83624409999993,g,1.0,0.7848286000000826,,,,,sub-063,1,stroop_test,60.025991254222525,
,,,,101.0,5.0,8.0,,,,,,,,,,,,,rot,red,r,1.0,r,1.0,0.6204590000002099,,,,,,,,,,8.0,5.0,101.0,0.0,395.8509153,,,,,,,,,,,,,,,,,395.8369369,396.2006105999999,397.0002801999999,396.9860511,,,,,,,,,,,,,,,,,,,,,,,,,,,,,,,,,,,396.9872108999998,397.0002801999999,397.0002801999999,397.6361165999999,r,1.0,0.6204590000002099,,,,,sub-063,1,stroop_test,60.025991254222525,
,,,,102.0,6.0,8.0,,,,,,,,,,,,,rot,blue,b,0.0,b,1.0,0.7099360999998225,,,,,,,,,,8.0,6.0,102.0,2.0,397.6498947999999,,,,,,,,,,,,,,,,,397.6370023,398.8494231,399.6486286,399.6343909999998,,,,,,,,,,,,,,,,,,,,,,,,,,,,,,,,,,,399.6353812,399.6486286,399.6486286,400.3678246,b,1.0,0.7099360999998225,,,,,sub-063,1,stroop_test,60.025991254222525,
,,,,103.0,7.0,8.0,,,,,,,,,,,,,blau,blue,b,1.0,b,1.0,0.910257300000012,,,,,,,,,,8.0,7.0,103.0,6.0,400.3818546999999,,,,,,,,,,,,,,,,,400.3683497,401.18105649999984,401.9807659999999,401.9648424,,,,,,,,,,,,,,,,,,,,,,,,,,,,,,,,,,,401.9697973,401.9807659999999,401.9807659999999,402.9000340999999,b,1.0,0.910257300000012,,,,,sub-063,1,stroop_test,60.025991254222525,
,,,,104.0,8.0,8.0,,,,,,,,,,,,,blau,yellow,g,0.0,g,1.0,0.7011909000000287,,,,,,,,,,8.0,8.0,104.0,7.0,402.9136318999999,,,,,,,,,,,,,,,,,402.9006585999998,404.1130202999998,404.9124528,404.8980669,,,,,,,,,,,,,,,,,,,,,,,,,,,,,,,,,,,404.8990207,404.9124528,404.9124528,405.6319487999999,g,1.0,0.7011909000000287,,,,,sub-063,1,stroop_test,60.025991254222525,
,,,,105.0,9.0,8.0,,,,,,,,,,,,,gelb,yellow,g,1.0,g,1.0,0.5181537999999364,,,,,,,,,,8.0,9.0,105.0,11.0,405.645415,,,,,,,,,,,,,,,,,405.6327494,405.99551069999984,406.79464829999984,406.7802336,,,,,,,,,,,,,,,,,,,,,,,,,,,,,,,,,,,406.7862387999999,406.79464829999984,406.79464829999984,407.3299212999998,g,1.0,0.5181537999999364,,,,,sub-063,1,stroop_test,60.025991254222525,
,,,,106.0,10.0,8.0,,,,,,,,,,,,,gelb,yellow,g,1.0,g,1.0,0.4954792999999426,,,,,,,,,,8.0,10.0,106.0,10.0,407.3446383999999,,,,,,,,,,,,,,,,,407.3305905999998,407.4445738,408.2440413999998,408.2294617999999,,,,,,,,,,,,,,,,,,,,,,,,,,,,,,,,,,,408.2304913999999,408.2440413999998,408.2440413999998,408.7466422999999,g,1.0,0.4954792999999426,,,,,sub-063,1,stroop_test,60.025991254222525,
,,,,107.0,11.0,8.0,,,,,,,,,,,,,gelb,red,r,0.0,r,1.0,0.6320365000001402,,,,,,,,,,8.0,11.0,107.0,8.0,408.7602319999999,,,,,,,,,,,,,,,,,408.7473954,408.8602798,409.6597972,409.6455492,,,,,,,,,,,,,,,,,,,,,,,,,,,,,,,,,,,409.6465814999999,409.6597972,409.6597972,410.2956551,r,1.0,0.6320365000001402,,,,,sub-063,1,stroop_test,60.025991254222525,
,,,,108.0,0.0,9.0,,,,,,,,,,,,,blau,yellow,g,0.0,g,1.0,0.5452878999999484,,,,,,,,,,9.0,0.0,108.0,7.0,410.3090229,,,,,,,,,,,,,,,,,410.2962760999999,410.4094000999999,411.2089477999998,411.1943078999998,,,,,,,,,,,,,,,,,,,,,,,,,,,,,,,,,,,411.1987804999999,411.2089477999998,411.2089477999998,411.7602445,g,1.0,0.5452878999999484,,,,,sub-063,1,stroop_test,60.025991254222525,
,,,,109.0,1.0,9.0,,,,,,,,,,,,,blau,blue,b,1.0,b,1.0,0.598115099999859,,,,,,,,,,9.0,1.0,109.0,5.0,411.7753725,,,,,,,,,,,,,,,,,411.7607632999998,412.1256338999999,412.9248203,412.9098932,,,,,,,,,,,,,,,,,,,,,,,,,,,,,,,,,,,412.91084779999983,412.9248203,412.9248203,413.52754489999984,b,1.0,0.598115099999859,,,,,sub-063,1,stroop_test,60.025991254222525,
,,,,110.0,2.0,9.0,,,,,,,,,,,,,rot,yellow,g,0.0,g,1.0,1.2584648000001837,,,,,,,,,,9.0,2.0,110.0,3.0,413.54145789999984,,,,,,,,,,,,,,,,,413.5281229999998,413.6414576999998,414.4567657999999,414.4411005999998,,,,,,,,,,,,,,,,,,,,,,,,,,,,,,,,,,,414.44722549999983,414.4567657999999,414.4567657999999,415.7237816,g,1.0,1.2584648000001837,,,,,sub-063,1,stroop_test,60.025991254222525,
,,,,111.0,3.0,9.0,,,,,,,,,,,,,gelb,yellow,g,1.0,g,1.0,0.5719673999999486,,,,,,,,,,9.0,3.0,111.0,10.0,415.7395561999999,,,,,,,,,,,,,,,,,415.7241217999999,416.9392324999999,417.7386041,417.7239096999999,,,,,,,,,,,,,,,,,,,,,,,,,,,,,,,,,,,417.73050679999983,417.7386041,417.7386041,418.3242777999999,g,1.0,0.5719673999999486,,,,,sub-063,1,stroop_test,60.025991254222525,
,,,,112.0,4.0,9.0,,,,,,,,,,,,,gelb,red,r,0.0,r,1.0,0.6145712000000003,,,,,,,,,,9.0,4.0,112.0,8.0,418.3384139,,,,,,,,,,,,,,,,,418.3249844999998,419.1381655999999,419.9377436,419.9234283999999,,,,,,,,,,,,,,,,,,,,,,,,,,,,,,,,,,,419.9243938999998,419.9377436,419.9377436,420.5566239,r,1.0,0.6145712000000003,,,,,sub-063,1,stroop_test,60.025991254222525,
,,,,113.0,5.0,9.0,,,,,,,,,,,,,blau,blue,b,1.0,b,1.0,0.553477900000189,,,,,,,,,,9.0,5.0,113.0,6.0,420.5708639999998,,,,,,,,,,,,,,,,,420.5572633999998,420.9205013999999,421.7196107999998,421.7045309999999,,,,,,,,,,,,,,,,,,,,,,,,,,,,,,,,,,,421.7099214,421.7196107999998,421.7196107999998,422.288194,b,1.0,0.553477900000189,,,,,sub-063,1,stroop_test,60.025991254222525,
,,,,114.0,6.0,9.0,,,,,,,,,,,,,rot,blue,b,0.0,b,1.0,0.5515694999999141,,,,,,,,,,9.0,6.0,114.0,2.0,422.3030377,,,,,,,,,,,,,,,,,422.2887564999999,422.6528687999999,423.4518673,423.4372229999999,,,,,,,,,,,,,,,,,,,,,,,,,,,,,,,,,,,423.4434319999998,423.4518673,423.4518673,424.0206444999999,b,1.0,0.5515694999999141,,,,,sub-063,1,stroop_test,60.025991254222525,
,,,,115.0,7.0,9.0,,,,,,,,,,,,,gelb,blue,b,0.0,b,1.0,0.469667999999956,,,,,,,,,,9.0,7.0,115.0,9.0,424.0354626999999,,,,,,,,,,,,,,,,,424.0213942999999,424.8351126999999,425.6341676999998,425.6201977999999,,,,,,,,,,,,,,,,,,,,,,,,,,,,,,,,,,,425.6254222,425.6341676999998,425.6341676999998,426.1195177999998,b,1.0,0.469667999999956,,,,,sub-063,1,stroop_test,60.025991254222525,
,,,,116.0,8.0,9.0,,,,,,,,,,,,,blau,red,r,0.0,r,1.0,0.6979782999999316,,,,,,,,,,9.0,8.0,116.0,4.0,426.1340894,,,,,,,,,,,,,,,,,426.1201709,426.2340479,427.0334426999998,427.0189522999999,,,,,,,,,,,,,,,,,,,,,,,,,,,,,,,,,,,427.0243031,427.0334426999998,427.0334426999998,427.7360710999999,r,1.0,0.6979782999999316,,,,,sub-063,1,stroop_test,60.025991254222525,
,,,,117.0,9.0,9.0,,,,,,,,,,,,,rot,red,r,1.0,r,1.0,0.5289494000001014,,,,,,,,,,9.0,9.0,117.0,1.0,427.7497394999998,,,,,,,,,,,,,,,,,427.7366771999998,428.94895899999983,429.74869089999993,429.7342830999999,,,,,,,,,,,,,,,,,,,,,,,,,,,,,,,,,,,429.7404359,429.74869089999993,429.74869089999993,430.2840884,r,1.0,0.5289494000001014,,,,,sub-063,1,stroop_test,60.025991254222525,
,,,,118.0,10.0,9.0,,,,,,,,,,,,,gelb,yellow,g,1.0,g,1.0,0.7844920000000002,,,,,,,,,,9.0,10.0,118.0,11.0,430.29860439999993,,,,,,,,,,,,,,,,,430.2846652999999,431.0982761999999,431.89746219999984,431.8831298999999,,,,,,,,,,,,,,,,,,,,,,,,,,,,,,,,,,,431.8887040999998,431.89746219999984,431.89746219999984,432.7003401999998,g,1.0,0.7844920000000002,,,,,sub-063,1,stroop_test,60.025991254222525,
,,,,119.0,11.0,9.0,,,,,,,,,,,,,rot,red,r,1.0,r,1.0,0.5536064999998871,,,,,,,,,,9.0,11.0,119.0,0.0,432.7137567999998,,,,,,,,,,,,,,,,,432.7009297999998,433.5137209,434.329485,434.3152593,,,,,,,,,,,,,,,,,,,,,,,,,,,,,,,,,,,434.32028919999993,434.329485,434.329485,434.8979703,r,1.0,0.5536064999998871,,,,,sub-063,1,stroop_test,60.025991254222525,
,,,,,,,,,,,,,,,,,,,,,,,,,,,,,,,,,,,,,,,,,,,,,,,,,,,,,,,,,,,,,,,,,,,,,,,,,,,,,,,,,,,,,,,,,,,,,,,,,,,,,,434.8983489,434.9124827999999,439.91049509999993,sub-063,1,stroop_test,60.025991254222525,
