wordCTK,colorCTK,corrAnsCTK,congruentCTK,thisN,thisTrialN,thisRepN,keyResp_CTK.keys,keyResp_CTK.corr,keyResp_CTK.rt,keyResp_CTK.duration,wordPractice,colorPractice,corrAnsPractice,congruentPractice,respPractice.keys,respPractice.corr,respPractice.rt,respPractice.duration,word,color,corrAns,congruent,keyResp_test_run.keys,keyResp_test_run.corr,keyResp_test_run.rt,keyResp_test_run.duration,trials_CTK.thisRepN,trials_CTK.thisTrialN,trials_CTK.thisN,trials_CTK.thisIndex,trials_practice.thisRepN,trials_practice.thisTrialN,trials_practice.thisN,trials_practice.thisIndex,trials_test.thisRepN,trials_test.thisTrialN,trials_test.thisN,trials_test.thisIndex,thisRow.t,notes,instruction.started,instr_text.started,instr_image.started,instr_resp.started,instruction.stopped,instr_resp.keys,instr_resp.rt,instr_resp.duration,instr_color_to_key.started,instr_ctk.started,resp_ctk.started,instr_color_to_key.stopped,resp_ctk.keys,resp_ctk.rt,resp_ctk.duration,ITI.started,fixcross.started,fixcross.stopped,ITI.stopped,color_to_key_run.started,stimulus_CTK.started,keyResp_CTK.started,color_to_key_run.stopped,trials_CTK.keyResp_CTK.keys,trials_CTK.keyResp_CTK.corr,trials_CTK.keyResp_CTK.rt,trials_CTK.keyResp_CTK.duration,instr_practice.started,instr_practice_text.started,instr_practice_resp.started,instr_practice.stopped,instr_practice_resp.keys,instr_practice_resp.rt,instr_practice_resp.duration,practice_run.started,stimulus_practice.started,respPractice.started,practice_run.stopped,trials_practice.respPractice.keys,trials_practice.respPractice.corr,trials_practice.respPractice.rt,trials_practice.respPractice.duration,feedback.started,textFeedback.started,feedback.stopped,textFeedback.stopped,instr_test.started,instr_test_text.started,instr_test_resp.started,instr_test.stopped,instr_test_resp.keys,instr_test_resp.rt,instr_test_resp.duration,test_run.started,stimulus_test_run.started,keyResp_test_run.started,test_run.stopped,trials_test.keyResp_test_run.keys,trials_test.keyResp_test_run.corr,trials_test.keyResp_test_run.rt,trials_test.keyResp_test_run.duration,goodbye.started,textGoodbye.started,textGoodbye.stopped,goodbye.stopped,participant,session,expName,frameRate,Unnamed: 113
,,,,,,,,,,,,,,,,,,,,,,,,,,,,,,,,,,,,,,,,,0.0081668749917298,0.0147992080310359,0.0147992080310359,0.0147992080310359,31.78465112502454,space,31.73052020801697,,,,,,,,,,,,,,,,,,,,,,,,,,,,,,,,,,,,,,,,,,,,,,,,,,,,,,,,,,,sub-033,1,stroop_test,,
,,,,,,,,,,,,,,,,,,,,,,,,,,,,,,,,,,,,,,,,,,,,,,,,,31.78474183299113,31.80504358303733,31.80504358303733,38.718874707992654,space,6.911242500005756,,,,,,,,,,,,,,,,,,,,,,,,,,,,,,,,,,,,,,,,,,,,,,,,,,,,sub-033,1,stroop_test,,
test,blue,b,1.0,0.0,0.0,0.0,b,1.0,1.201372166047804,,,,,,,,,,,,,,,,,,0.0,0.0,0.0,2.0,,,,,,,,,38.74998395802686,,,,,,,,,,,,,,,,,38.73716079199221,39.91482883301797,40.7151714170468,40.70000900002197,40.7081925420207,40.7151714170468,40.7151714170468,41.928848750016186,b,1.0,1.201372166047804,,,,,,,,,,,,,,,,,,,,,,,,,,,,,,,,,,,,,,,,sub-033,1,stroop_test,,
test,yellow,g,1.0,1.0,1.0,0.0,g,1.0,2.0089475830318406,,,,,,,,,,,,,,,,,,0.0,1.0,1.0,1.0,,,,,,,,,41.93357404199196,,,,,,,,,,,,,,,,,41.92921529203886,42.722834667016286,43.52424095803872,43.51653366704704,43.517291916999966,43.52424095803872,43.52424095803872,45.54584675002843,g,1.0,2.0089475830318406,,,,,,,,,,,,,,,,,,,,,,,,,,,,,,,,,,,,,,,,sub-033,1,stroop_test,,
test,red,r,1.0,2.0,2.0,0.0,r,1.0,0.8399687079945579,,,,,,,,,,,,,,,,,,0.0,2.0,2.0,0.0,,,,,,,,,45.55010991700692,,,,,,,,,,,,,,,,,45.54623545799405,46.738479499996174,47.53098525002133,47.52235612500226,47.52295425004559,47.53098525002133,47.53098525002133,48.374375457991846,r,1.0,0.8399687079945579,,,,,,,,,,,,,,,,,,,,,,,,,,,,,,,,,,,,,,,,sub-033,1,stroop_test,,
test,blue,b,1.0,3.0,0.0,1.0,b,1.0,1.5994191250065342,,,,,,,,,,,,,,,,,,1.0,0.0,3.0,2.0,,,,,,,,,48.384227958042175,,,,,,,,,,,,,,,,,48.374856833019294,49.5727401250042,50.3750848750351,50.36706175003201,50.36786545801442,50.3750848750351,50.3750848750351,51.9845416250173,b,1.0,1.5994191250065342,,,,,,,,,,,,,,,,,,,,,,,,,,,,,,,,,,,,,,,,sub-033,1,stroop_test,,
test,red,r,1.0,4.0,1.0,1.0,r,1.0,1.0155578330159187,,,,,,,,,,,,,,,,,,1.0,1.0,4.0,0.0,,,,,,,,,51.994325042003766,,,,,,,,,,,,,,,,,51.985171833017375,52.3323400420486,53.12418195803184,53.11667108302936,53.117302375030704,53.12418195803184,53.12418195803184,54.15097570803482,r,1.0,1.0155578330159187,,,,,,,,,,,,,,,,,,,,,,,,,,,,,,,,,,,,,,,,sub-033,1,stroop_test,,
test,yellow,g,1.0,5.0,2.0,1.0,g,1.0,0.7764633339829743,,,,,,,,,,,,,,,,,,1.0,2.0,5.0,1.0,,,,,,,,,54.160841958015226,,,,,,,,,,,,,,,,,54.15158225002233,55.34901900001569,56.14020895800786,56.13313750002999,56.13368520804215,56.14020895800786,56.14020895800786,56.927642124996055,g,1.0,0.7764633339829743,,,,,,,,,,,,,,,,,,,,,,,,,,,,,,,,,,,,,,,,sub-033,1,stroop_test,,
test,red,r,1.0,6.0,0.0,2.0,r,1.0,1.3128634589957071,,,,,,,,,,,,,,,,,,2.0,0.0,6.0,0.0,,,,,,,,,56.9339887080132,,,,,,,,,,,,,,,,,56.92812774999766,58.121698458038736,58.91410229203757,58.9058506670408,58.90641937503824,58.91410229203757,58.91410229203757,60.23480129201198,r,1.0,1.3128634589957071,,,,,,,,,,,,,,,,,,,,,,,,,,,,,,,,,,,,,,,,sub-033,1,stroop_test,,
test,yellow,g,1.0,7.0,1.0,2.0,g,1.0,0.9032746250159108,,,,,,,,,,,,,,,,,,2.0,1.0,7.0,1.0,,,,,,,,,60.24674475000938,,,,,,,,,,,,,,,,,60.23566129204119,61.432044042041525,62.22435966704506,62.21625066699926,62.21696820802754,62.22435966704506,62.22435966704506,63.13459887501085,g,1.0,0.9032746250159108,,,,,,,,,,,,,,,,,,,,,,,,,,,,,,,,,,,,,,,,sub-033,1,stroop_test,,
test,blue,b,1.0,8.0,2.0,2.0,b,1.0,0.6263250419870019,,,,,,,,,,,,,,,,,,2.0,2.0,8.0,2.0,,,,,,,,,63.14715062500909,,,,,,,,,,,,,,,,,63.13528650003718,63.482338583038654,64.2729944580351,64.26579608302563,64.26641237502918,64.2729944580351,64.2729944580351,64.90235408302397,b,1.0,0.6263250419870019,,,,,,,,,,,,,,,,,,,,,,,,,,,,,,,,,,,,,,,,sub-033,1,stroop_test,,
test,red,r,1.0,9.0,0.0,3.0,r,1.0,0.9314829999930224,,,,,,,,,,,,,,,,,,3.0,0.0,9.0,0.0,,,,,,,,,64.91465258301469,,,,,,,,,,,,,,,,,64.90325970802223,66.09889304201351,66.8912772500189,66.88293404201977,66.88372320804046,66.8912772500189,66.8912772500189,67.83417775004636,r,1.0,0.9314829999930224,,,,,,,,,,,,,,,,,,,,,,,,,,,,,,,,,,,,,,,,sub-033,1,stroop_test,,
test,yellow,g,1.0,10.0,1.0,3.0,g,1.0,0.8748278330313042,,,,,,,,,,,,,,,,,,3.0,1.0,10.0,1.0,,,,,,,,,67.84548345801886,,,,,,,,,,,,,,,,,67.8348794580088,68.63213987502968,69.42417254199972,69.41629062499851,69.41704833303811,69.42417254199972,69.42417254199972,70.30169795802794,g,1.0,0.8748278330313042,,,,,,,,,,,,,,,,,,,,,,,,,,,,,,,,,,,,,,,,sub-033,1,stroop_test,,
test,blue,b,1.0,11.0,2.0,3.0,b,1.0,0.5656834580004215,,,,,,,,,,,,,,,,,,3.0,2.0,11.0,2.0,,,,,,,,,70.31304745801026,,,,,,,,,,,,,,,,,70.302475125005,71.49889379204251,72.29097025003284,72.28291862504557,72.28371762501774,72.29097025003284,72.29097025003284,72.86759999999776,b,1.0,0.5656834580004215,,,,,,,,,,,,,,,,,,,,,,,,,,,,,,,,,,,,,,,,sub-033,1,stroop_test,,
,,,,,,,,,,,,,,,,,,,,,,,,,,,,,,,,,,,,,,,,,,,,,,,,,,,,,,,,,,,,,,,,,,,,72.86789766704896,72.88096304202918,72.88096304202918,81.10085120802978,space,8.215774082986172,,,,,,,,,,,,,,,,,,,,,,,,,,,,,,,,,sub-033,1,stroop_test,,
,,,,0.0,0.0,0.0,,,,,gelb,red,r,0.0,r,1.0,1.70165945898043,,,,,,,,,,,,,,0.0,0.0,0.0,8.0,,,,,81.12277916702442,,,,,,,,,,,,,,,,,81.11542745801853,82.29868654202437,83.09718958300073,83.08260183304083,,,,,,,,,,,,,,,,83.09034962503938,83.09718958300073,83.09718958300073,84.80126912501873,r,1.0,1.70165945898043,,84.81033620802918,84.81924020801671,85.80464729201049,,,,,,,,,,,,,,,,,,,,,sub-033,1,stroop_test,,
,,,,1.0,1.0,0.0,,,,,gelb,yellow,g,1.0,g,1.0,0.660265457991045,,,,,,,,,,,,,,0.0,1.0,1.0,11.0,,,,,85.8153123750235,,,,,,,,,,,,,,,,,85.80513300001621,86.9986192920478,87.79022004199214,87.7828103750362,,,,,,,,,,,,,,,,87.78357708302792,87.79022004199214,87.79022004199214,88.45658345799893,g,1.0,0.660265457991045,,88.45733866700903,88.46932041703258,89.45572354202159,89.46528333303286,,,,,,,,,,,,,,,,,,,,sub-033,1,stroop_test,,
,,,,2.0,2.0,0.0,,,,,rot,red,r,1.0,r,1.0,0.7740792499971576,,,,,,,,,,,,,,0.0,2.0,2.0,1.0,,,,,89.46528333303286,,,,,,,,,,,,,,,,,89.45612658304162,89.55464845802635,90.36322550004115,90.34946991701143,,,,,,,,,,,,,,,,90.35574995802016,90.36322550004115,90.36322550004115,91.14021054201294,r,1.0,0.7740792499971576,,91.14089020801477,91.15244779200292,92.13883958302904,92.14858441700926,,,,,,,,,,,,,,,,,,,,sub-033,1,stroop_test,,
,,,,3.0,3.0,0.0,,,,,rot,blue,b,0.0,b,1.0,1.508756708994042,,,,,,,,,,,,,,0.0,3.0,3.0,2.0,,,,,92.14858441700926,,,,,,,,,,,,,,,,,92.13924725004472,92.488063833036,93.28047724999487,93.27174358302727,,,,,,,,,,,,,,,,93.27231612504691,93.28047724999487,93.28047724999487,94.800388667034,b,1.0,1.508756708994042,,94.80122512503294,94.81186441704632,95.79924641700929,95.80444125004578,,,,,,,,,,,,,,,,,,,,sub-033,1,stroop_test,,
,,,,4.0,4.0,0.0,,,,,blau,red,r,0.0,r,1.0,1.530320416961331,,,,,,,,,,,,,,0.0,4.0,4.0,4.0,,,,,95.80444125004578,,,,,,,,,,,,,,,,,95.79967204201968,95.89853550004771,96.69587545801188,96.6826116250013,,,,,,,,,,,,,,,,96.68913895799778,96.69587545801188,96.69587545801188,98.23378595802932,r,1.0,1.530320416961331,,98.23462575004667,98.245480667043,99.23244258301564,99.23764550004852,,,,,,,,,,,,,,,,,,,,sub-033,1,stroop_test,,
,,,,5.0,5.0,0.0,,,,,gelb,blue,b,0.0,b,1.0,1.441798082960304,,,,,,,,,,,,,,0.0,5.0,5.0,9.0,,,,,99.23764550004852,,,,,,,,,,,,,,,,,99.23286408302374,99.58192879200216,100.37796479201644,100.36604345799424,,,,,,,,,,,,,,,,100.3706879580277,100.37796479201644,100.37796479201644,101.82286412501708,b,1.0,1.441798082960304,,101.82360554201296,101.83566312503535,102.82160525000654,102.83171450003285,,,,,,,,,,,,,,,,,,,,sub-033,1,stroop_test,,
,,,,6.0,6.0,0.0,,,,,rot,red,r,1.0,r,1.0,1.1580976660479791,,,,,,,,,,,,,,0.0,6.0,6.0,0.0,,,,,102.83171450003285,,,,,,,,,,,,,,,,,102.8220075420104,102.92219941702206,103.71777820802528,103.70556287502404,,,,,,,,,,,,,,,,103.7102291250485,103.71777820802528,103.71777820802528,104.88403566699708,r,1.0,1.1580976660479791,,104.88499445799972,104.8960529169999,105.88286466704449,105.88861645804718,,,,,,,,,,,,,,,,,,,,sub-033,1,stroop_test,,
,,,,7.0,7.0,0.0,,,,,rot,yellow,g,0.0,g,1.0,0.9120922919828444,,,,,,,,,,,,,,0.0,7.0,7.0,3.0,,,,,105.88861645804718,,,,,,,,,,,,,,,,,105.88340733299265,107.08174545801012,107.87337887502508,107.86583766702095,,,,,,,,,,,,,,,,107.86665008304408,107.87337887502508,107.87337887502508,108.79012987500757,g,1.0,0.9120922919828444,,108.7908673750353,108.80273116700118,109.78761883301196,109.79830750002291,,,,,,,,,,,,,,,,,,,,sub-033,1,stroop_test,,
,,,,8.0,8.0,0.0,,,,,gelb,yellow,g,1.0,g,1.0,1.340150916017592,,,,,,,,,,,,,,0.0,8.0,8.0,10.0,,,,,109.79830750002291,,,,,,,,,,,,,,,,,109.78802345803706,110.98807383299572,111.78327158303,111.77168550004716,,,,,,,,,,,,,,,,111.77541345800272,111.78327158303,111.78327158303,113.13361195800826,g,1.0,1.340150916017592,,113.13450375001412,113.14521666703511,114.13264500000514,114.13839916704455,,,,,,,,,,,,,,,,,,,,sub-033,1,stroop_test,,
,,,,9.0,9.0,0.0,,,,,blau,blue,b,1.0,b,1.0,1.289064500015229,,,,,,,,,,,,,,0.0,9.0,9.0,5.0,,,,,114.13839916704455,,,,,,,,,,,,,,,,,114.13319879199844,114.48162266699364,115.2766334580374,115.2657541250228,,,,,,,,,,,,,,,,115.26962404203368,115.2766334580374,115.2766334580374,116.57867462502328,b,1.0,1.289064500015229,,116.57924112502953,116.5850317919976,117.57149433303856,117.58163324999624,,,,,,,,,,,,,,,,,,,,sub-033,1,stroop_test,,
,,,,10.0,10.0,0.0,,,,,blau,yellow,g,0.0,g,1.0,0.8652432499802671,,,,,,,,,,,,,,0.0,10.0,10.0,7.0,,,,,117.58163324999624,,,,,,,,,,,,,,,,,117.5719098750269,118.7718950000126,119.57359124999492,119.56596429203636,,,,,,,,,,,,,,,,119.5667191669927,119.57359124999492,119.57359124999492,120.45026054204207,g,1.0,0.8652432499802671,,120.4511619580444,120.462478292,121.44890804204624,121.45451904204674,,,,,,,,,,,,,,,,,,,,sub-033,1,stroop_test,,
,,,,11.0,11.0,0.0,,,,,blau,blue,b,1.0,b,1.0,1.4587931249989197,,,,,,,,,,,,,,0.0,11.0,11.0,6.0,,,,,121.45451904204674,,,,,,,,,,,,,,,,,121.44932929199422,122.24832350004,123.0399476250168,123.03236287500476,,,,,,,,,,,,,,,,123.03311283304356,123.0399476250168,123.0399476250168,124.50158620800356,b,1.0,1.4587931249989197,,124.502741333039,124.5158987500472,125.4990710830316,125.50478104199284,,,,,,,,,,,,,,,,,,,,sub-033,1,stroop_test,,
,,,,12.0,0.0,1.0,,,,,gelb,red,r,0.0,r,1.0,1.0991516659851186,,,,,,,,,,,,,,1.0,0.0,12.0,8.0,,,,,125.50478104199284,,,,,,,,,,,,,,,,,125.49960241699593,126.2983224170166,127.09342770802324,127.08223400003044,,,,,,,,,,,,,,,,127.08620612503728,127.09342770802324,127.09342770802324,128.2002373750438,r,1.0,1.0991516659851186,,128.2012801670353,128.2135612500133,129.19908824999584,129.2047920000041,,,,,,,,,,,,,,,,,,,,sub-033,1,stroop_test,,
,,,,13.0,1.0,1.0,,,,,gelb,blue,b,0.0,b,1.0,0.9147988749900832,,,,,,,,,,,,,,1.0,1.0,13.0,9.0,,,,,129.2047920000041,,,,,,,,,,,,,,,,,129.19963200000348,129.29819649999263,130.08942862501135,130.0821147080278,,,,,,,,,,,,,,,,130.0827175420127,130.08942862501135,130.08942862501135,131.0066238330328,b,1.0,0.9147988749900832,,131.00769724999554,131.01951887499308,132.00481595803285,132.01476266700774,,,,,,,,,,,,,,,,,,,,sub-033,1,stroop_test,,
,,,,14.0,2.0,1.0,,,,,blau,red,r,0.0,r,1.0,1.005595666996669,,,,,,,,,,,,,,1.0,2.0,14.0,4.0,,,,,132.01476266700774,,,,,,,,,,,,,,,,,132.00522995804204,132.35421179200057,133.1480275830254,133.137268416991,,,,,,,,,,,,,,,,133.14093191700522,133.1480275830254,133.1480275830254,134.15644750004867,r,1.0,1.005595666996669,,134.15718095802004,134.1686543750111,135.15474241704214,135.1648269580328,,,,,,,,,,,,,,,,,,,,sub-033,1,stroop_test,,
,,,,15.0,3.0,1.0,,,,,rot,blue,b,0.0,b,1.0,1.1650617500417866,,,,,,,,,,,,,,1.0,3.0,15.0,2.0,,,,,135.1648269580328,,,,,,,,,,,,,,,,,135.15515241702087,135.50428575003752,136.29978233302245,136.28794387500966,,,,,,,,,,,,,,,,136.29232987499563,136.29978233302245,136.29978233302245,137.46722562500509,b,1.0,1.1650617500417866,,137.46826983301435,137.4797967080376,138.46531225001672,138.47089745802805,,,,,,,,,,,,,,,,,,,,sub-033,1,stroop_test,,
,,,,16.0,4.0,1.0,,,,,gelb,yellow,g,1.0,g,1.0,1.8129175420035608,,,,,,,,,,,,,,1.0,4.0,16.0,11.0,,,,,138.47089745802805,,,,,,,,,,,,,,,,,138.46575591701549,138.81481141701806,139.61051975004375,139.5988831249997,,,,,,,,,,,,,,,,139.60344454203732,139.61051975004375,139.61051975004375,141.4334527500323,g,1.0,1.8129175420035608,,141.4344471670338,141.4460469170008,142.43227729201317,142.4381022080197,,,,,,,,,,,,,,,,,,,,sub-033,1,stroop_test,,
,,,,17.0,5.0,1.0,,,,,gelb,yellow,g,1.0,g,1.0,0.9801664170227014,,,,,,,,,,,,,,1.0,5.0,17.0,10.0,,,,,142.4381022080197,,,,,,,,,,,,,,,,,142.4328029170283,143.23120987502625,144.02347537502646,144.0155156670371,,,,,,,,,,,,,,,,144.01627100002952,144.02347537502646,144.02347537502646,145.0060722079943,g,1.0,0.9801664170227014,,145.00698933302192,145.0189460000256,146.00439554202603,146.01468504202785,,,,,,,,,,,,,,,,,,,,sub-033,1,stroop_test,,
,,,,18.0,6.0,1.0,,,,,rot,red,r,1.0,r,1.0,0.8331820829771459,,,,,,,,,,,,,,1.0,6.0,18.0,0.0,,,,,146.01468504202785,,,,,,,,,,,,,,,,,146.0048087920295,146.8046635420178,147.59963891701773,147.5882364170393,,,,,,,,,,,,,,,,147.59185937501024,147.59963891701773,147.59963891701773,148.43947441701312,r,1.0,0.8331820829771459,,148.4402142080362,148.45233191701118,149.43818283302244,149.447803499992,,,,,,,,,,,,,,,,,,,,sub-033,1,stroop_test,,
,,,,19.0,7.0,1.0,,,,,rot,red,r,1.0,r,1.0,1.0420344159938395,,,,,,,,,,,,,,1.0,7.0,19.0,1.0,,,,,149.447803499992,,,,,,,,,,,,,,,,,149.43861283303704,149.7881780830212,150.58983833302045,150.58217012503883,,,,,,,,,,,,,,,,150.5828924170346,150.58983833302045,150.58983833302045,151.6450683750445,r,1.0,1.0420344159938395,,151.6456880000187,151.6520665420103,152.63717550004367,152.6479287080001,,,,,,,,,,,,,,,,,,,,sub-033,1,stroop_test,,
,,,,20.0,8.0,1.0,,,,,blau,yellow,g,0.0,g,1.0,1.0221786250476723,,,,,,,,,,,,,,1.0,8.0,20.0,7.0,,,,,152.6479287080001,,,,,,,,,,,,,,,,,152.63758233300177,153.43813491699984,154.24371316703036,154.2320920000202,,,,,,,,,,,,,,,,154.2366118330392,154.24371316703036,154.24371316703036,155.27235312503765,g,1.0,1.0221786250476723,,155.2731284580077,155.28509954200126,156.27058866701557,156.28110329201445,,,,,,,,,,,,,,,,,,,,sub-033,1,stroop_test,,
,,,,21.0,9.0,1.0,,,,,blau,blue,b,1.0,b,1.0,1.936121999984607,,,,,,,,,,,,,,1.0,9.0,21.0,5.0,,,,,156.28110329201445,,,,,,,,,,,,,,,,,156.27099858300062,156.37109462503577,157.17305912502343,157.16523050004616,,,,,,,,,,,,,,,,157.1660001249984,157.17305912502343,157.17305912502343,159.1165437080199,b,1.0,1.936121999984607,,159.11753725004382,159.12875545804854,160.11514362500748,160.12056058301823,,,,,,,,,,,,,,,,,,,,sub-033,1,stroop_test,,
,,,,22.0,10.0,1.0,,,,,blau,blue,b,1.0,b,1.0,2.0092242500395514,,,,,,,,,,,,,,1.0,10.0,22.0,6.0,,,,,160.12056058301823,,,,,,,,,,,,,,,,,160.1155775830266,160.214391000045,161.00598016701406,160.9985414580442,,,,,,,,,,,,,,,,160.9991667920258,161.00598016701406,161.00598016701406,163.02866595803062,b,1.0,2.0092242500395514,,163.02937025000574,163.03508979204344,164.02131187502528,164.03121920803096,,,,,,,,,,,,,,,,,,,,sub-033,1,stroop_test,,
,,,,23.0,11.0,1.0,,,,,rot,yellow,g,0.0,g,1.0,1.357291999971494,,,,,,,,,,,,,,1.0,11.0,23.0,3.0,,,,,164.03121920803096,,,,,,,,,,,,,,,,,164.02174525003647,165.220529000042,166.0309131250251,166.00401187501848,,,,,,,,,,,,,,,,166.00757470802637,166.0309131250251,166.0309131250251,167.4012863750104,g,1.0,1.357291999971494,,167.40188391704578,167.41434941702755,168.3985654170392,168.40594754199265,,,,,,,,,,,,,,,,,,,,sub-033,1,stroop_test,,
,,,,,,,,,,,,,,,,,,,,,,,,,,,,,,,,,,,,,,,,,,,,,,,,,,,,,,,,,,,,,,,,,,,,,,,,,,,,,,,,,,,,,,,168.39873391704168,168.40594754199265,168.40594754199265,172.20996900001774,space,3.792721249978058,,,,,,,,,,,,,,sub-033,1,stroop_test,,
,,,,0.0,0.0,0.0,,,,,,,,,,,,,gelb,yellow,g,1.0,g,1.0,1.154916208004579,,,,,,,,,,0.0,0.0,0.0,11.0,172.2287456250051,,,,,,,,,,,,,,,,,172.22392850002507,172.554403792019,173.359724458016,173.34847575001186,,,,,,,,,,,,,,,,,,,,,,,,,,,,,,,,,,,173.35251625004457,173.359724458016,173.359724458016,174.51765275001526,g,1.0,1.154916208004579,,,,,,sub-033,1,stroop_test,,
,,,,1.0,1.0,0.0,,,,,,,,,,,,,rot,yellow,g,0.0,g,1.0,1.1835965830250643,,,,,,,,,,0.0,1.0,1.0,3.0,174.52823041699594,,,,,,,,,,,,,,,,,174.5183725830284,175.71436245803488,176.5097542500007,176.49839700001758,,,,,,,,,,,,,,,,,,,,,,,,,,,,,,,,,,,176.50256708299275,176.5097542500007,176.5097542500007,177.6997682080255,g,1.0,1.1835965830250643,,,,,,sub-033,1,stroop_test,,
,,,,2.0,2.0,0.0,,,,,,,,,,,,,gelb,yellow,g,1.0,g,1.0,0.9360527079552412,,,,,,,,,,0.0,2.0,2.0,10.0,177.71030500001507,,,,,,,,,,,,,,,,,177.700379832997,177.79759604204446,178.59283933299594,178.5817294580047,,,,,,,,,,,,,,,,,,,,,,,,,,,,,,,,,,,178.58567333302926,178.59283933299594,178.59283933299594,179.53296933299862,g,1.0,0.9360527079552412,,,,,,sub-033,1,stroop_test,,
,,,,3.0,3.0,0.0,,,,,,,,,,,,,blau,blue,b,1.0,b,1.0,0.9161644160049036,,,,,,,,,,0.0,3.0,3.0,6.0,179.5435237500351,,,,,,,,,,,,,,,,,179.53364575002342,179.8808910420048,180.6756320419954,180.66480941703776,,,,,,,,,,,,,,,,,,,,,,,,,,,,,,,,,,,180.66868400003293,180.6756320419954,180.6756320419954,181.5996449580416,b,1.0,0.9161644160049036,,,,,,sub-033,1,stroop_test,,
,,,,4.0,4.0,0.0,,,,,,,,,,,,,rot,red,r,1.0,r,1.0,0.9887590000289492,,,,,,,,,,0.0,4.0,4.0,0.0,181.61004437500375,,,,,,,,,,,,,,,,,181.6003270420479,182.39760233304696,183.1933339170064,183.18176716699963,,,,,,,,,,,,,,,,,,,,,,,,,,,,,,,,,,,183.1861887500272,183.1933339170064,183.1933339170064,184.18849870801205,r,1.0,0.9887590000289492,,,,,,sub-033,1,stroop_test,,
,,,,5.0,5.0,0.0,,,,,,,,,,,,,gelb,red,r,0.0,r,1.0,1.0297484169714153,,,,,,,,,,0.0,5.0,5.0,8.0,184.19947420799872,,,,,,,,,,,,,,,,,184.18904675001977,184.28062033304013,185.07660366699565,185.06487541703973,,,,,,,,,,,,,,,,,,,,,,,,,,,,,,,,,,,185.06894725002348,185.07660366699565,185.07660366699565,186.1165084170061,r,1.0,1.0297484169714153,,,,,,sub-033,1,stroop_test,,
,,,,6.0,6.0,0.0,,,,,,,,,,,,,blau,yellow,g,0.0,g,1.0,1.306874749949202,,,,,,,,,,0.0,6.0,6.0,7.0,186.1283907080069,,,,,,,,,,,,,,,,,186.117345458013,186.46426033304303,187.2611064580269,187.24832950002747,,,,,,,,,,,,,,,,,,,,,,,,,,,,,,,,,,,187.25411312503277,187.2611064580269,187.2611064580269,188.5718450830318,g,1.0,1.306874749949202,,,,,,sub-033,1,stroop_test,,
,,,,7.0,7.0,0.0,,,,,,,,,,,,,blau,blue,b,1.0,b,1.0,1.2030598749988712,,,,,,,,,,0.0,7.0,7.0,5.0,188.58327225001997,,,,,,,,,,,,,,,,,188.5724209580221,188.66968491702573,189.46265308302827,189.4540087080095,,,,,,,,,,,,,,,,,,,,,,,,,,,,,,,,,,,189.4546282920055,189.46265308302827,189.46265308302827,190.67232737503943,b,1.0,1.2030598749988712,,,,,,sub-033,1,stroop_test,,
,,,,8.0,8.0,0.0,,,,,,,,,,,,,gelb,blue,b,0.0,b,1.0,1.6764166659559123,,,,,,,,,,0.0,8.0,8.0,9.0,190.68319995800263,,,,,,,,,,,,,,,,,190.67291125003248,190.77000975003463,191.5803935830481,191.5537404170027,,,,,,,,,,,,,,,,,,,,,,,,,,,,,,,,,,,191.5573787500034,191.5803935830481,191.5803935830481,193.2664212080417,b,1.0,1.6764166659559123,,,,,,sub-033,1,stroop_test,,
,,,,9.0,9.0,0.0,,,,,,,,,,,,,blau,red,r,0.0,r,1.0,0.847797000024002,,,,,,,,,,0.0,9.0,9.0,4.0,193.2781302080257,,,,,,,,,,,,,,,,,193.26722829201023,194.0641689579934,194.86009045800893,194.84823729202617,,,,,,,,,,,,,,,,,,,,,,,,,,,,,,,,,,,194.8528675000416,194.86009045800893,194.86009045800893,195.71634958300277,r,1.0,0.847797000024002,,,,,,sub-033,1,stroop_test,,
,,,,10.0,10.0,0.0,,,,,,,,,,,,,rot,blue,b,0.0,b,1.0,1.104573166987393,,,,,,,,,,0.0,10.0,10.0,2.0,195.72798491700087,,,,,,,,,,,,,,,,,195.71715891704665,196.064165082993,196.86029383301505,196.8482465000125,,,,,,,,,,,,,,,,,,,,,,,,,,,,,,,,,,,196.85284383303951,196.86029383301505,196.86029383301505,197.97882704203948,b,1.0,1.104573166987393,,,,,,sub-033,1,stroop_test,,
,,,,11.0,11.0,0.0,,,,,,,,,,,,,rot,red,r,1.0,r,1.0,0.9447631250368432,,,,,,,,,,0.0,11.0,11.0,1.0,197.9839339579921,,,,,,,,,,,,,,,,,197.9793525830028,198.06947637500707,198.8626243750332,198.8539868750377,,,,,,,,,,,,,,,,,,,,,,,,,,,,,,,,,,,198.8545743750292,198.8626243750332,198.8626243750332,199.81622204201997,r,1.0,0.9447631250368432,,,,,,sub-033,1,stroop_test,,
,,,,12.0,0.0,1.0,,,,,,,,,,,,,gelb,red,r,0.0,r,1.0,0.9422015420277604,,,,,,,,,,1.0,0.0,12.0,8.0,199.827589292021,,,,,,,,,,,,,,,,,199.8169629580225,201.0140177080175,201.8098866250366,201.79818099999105,,,,,,,,,,,,,,,,,,,,,,,,,,,,,,,,,,,201.8028265000321,201.8098866250366,201.8098866250366,202.75581333303128,r,1.0,0.9422015420277604,,,,,,sub-033,1,stroop_test,,
,,,,13.0,1.0,1.0,,,,,,,,,,,,,rot,red,r,1.0,r,1.0,0.7620461669866927,,,,,,,,,,1.0,1.0,13.0,1.0,202.76637095800837,,,,,,,,,,,,,,,,,202.7563952920027,202.85592037503372,203.65966637502424,203.6479876670055,,,,,,,,,,,,,,,,,,,,,,,,,,,,,,,,,,,203.65204379201168,203.65966637502424,203.65966637502424,204.4328086670139,r,1.0,0.7620461669866927,,,,,,sub-033,1,stroop_test,,
,,,,14.0,2.0,1.0,,,,,,,,,,,,,blau,blue,b,1.0,b,1.0,0.6363437079708092,,,,,,,,,,1.0,2.0,14.0,5.0,204.4441947080195,,,,,,,,,,,,,,,,,204.43362137500665,205.6306576670031,206.42793516704117,206.4148603749927,,,,,,,,,,,,,,,,,,,,,,,,,,,,,,,,,,,206.42080095800335,206.42793516704117,206.42793516704117,207.06702091702027,b,1.0,0.6363437079708092,,,,,,sub-033,1,stroop_test,,
,,,,15.0,3.0,1.0,,,,,,,,,,,,,gelb,yellow,g,1.0,g,1.0,0.6216817499953322,,,,,,,,,,1.0,3.0,15.0,11.0,207.0782766250195,,,,,,,,,,,,,,,,,207.06783950002864,207.8640348330373,208.65930695802672,208.64793575002116,,,,,,,,,,,,,,,,,,,,,,,,,,,,,,,,,,,208.65225133299828,208.65930695802672,208.65930695802672,209.2844190000324,g,1.0,0.6216817499953322,,,,,,sub-033,1,stroop_test,,
,,,,16.0,4.0,1.0,,,,,,,,,,,,,blau,blue,b,1.0,b,1.0,0.7648731250083074,,,,,,,,,,1.0,4.0,16.0,6.0,209.2959080000292,,,,,,,,,,,,,,,,,209.28522650001105,210.0804326670477,210.87551362504016,210.864575500018,,,,,,,,,,,,,,,,,,,,,,,,,,,,,,,,,,,210.8685280420468,210.87551362504016,210.87551362504016,211.6493108750437,b,1.0,0.7648731250083074,,,,,,sub-033,1,stroop_test,,
,,,,17.0,5.0,1.0,,,,,,,,,,,,,rot,red,r,1.0,r,1.0,1.0609497500117868,,,,,,,,,,1.0,5.0,17.0,0.0,211.66030216700165,,,,,,,,,,,,,,,,,211.65004941704683,212.84728416701543,213.64233712502755,213.63116645801347,,,,,,,,,,,,,,,,,,,,,,,,,,,,,,,,,,,213.6351262500393,213.64233712502755,213.64233712502755,214.70566112501547,r,1.0,1.0609497500117868,,,,,,sub-033,1,stroop_test,,
,,,,18.0,6.0,1.0,,,,,,,,,,,,,gelb,blue,b,0.0,b,1.0,0.999278541014064,,,,,,,,,,1.0,6.0,18.0,9.0,214.7162284170045,,,,,,,,,,,,,,,,,214.70645841700025,214.80348804203092,215.59862950001843,215.5868991670432,,,,,,,,,,,,,,,,,,,,,,,,,,,,,,,,,,,215.5906302499934,215.59862950001843,215.59862950001843,216.61171858303717,b,1.0,0.999278541014064,,,,,,sub-033,1,stroop_test,,
,,,,19.0,7.0,1.0,,,,,,,,,,,,,blau,red,r,0.0,r,1.0,0.65694854198955,,,,,,,,,,1.0,7.0,19.0,4.0,216.61599070800003,,,,,,,,,,,,,,,,,216.6122454580036,216.7022541250335,217.498589291994,217.48704962502237,,,,,,,,,,,,,,,,,,,,,,,,,,,,,,,,,,,217.4907178330468,217.498589291994,217.498589291994,218.16589962504804,r,1.0,0.65694854198955,,,,,,sub-033,1,stroop_test,,
,,,,20.0,8.0,1.0,,,,,,,,,,,,,blau,yellow,g,0.0,g,1.0,0.7206089159590192,,,,,,,,,,1.0,8.0,20.0,7.0,218.17722779203905,,,,,,,,,,,,,,,,,218.1666591670364,218.26380433299343,219.05582862504525,219.0480264170328,,,,,,,,,,,,,,,,,,,,,,,,,,,,,,,,,,,219.0488102500094,219.05582862504525,219.05582862504525,219.7824899170082,g,1.0,0.7206089159590192,,,,,,sub-033,1,stroop_test,,
,,,,21.0,9.0,1.0,,,,,,,,,,,,,gelb,yellow,g,1.0,g,1.0,1.5056948749697767,,,,,,,,,,1.0,9.0,21.0,10.0,219.79311804199824,,,,,,,,,,,,,,,,,219.78326587501212,220.5805271670106,221.37623754201925,221.364491208049,,,,,,,,,,,,,,,,,,,,,,,,,,,,,,,,,,,221.36920820799423,221.37623754201925,221.37623754201925,222.88865770801203,g,1.0,1.5056948749697767,,,,,,sub-033,1,stroop_test,,
,,,,22.0,10.0,1.0,,,,,,,,,,,,,rot,blue,b,0.0,b,1.0,1.3206580840051174,,,,,,,,,,1.0,10.0,22.0,2.0,222.8993722080486,,,,,,,,,,,,,,,,,222.8892329580267,223.2360120830126,224.03406687499955,224.0204468750162,,,,,,,,,,,,,,,,,,,,,,,,,,,,,,,,,,,224.02711920801084,224.03406687499955,224.03406687499955,225.3661012080265,b,1.0,1.3206580840051174,,,,,,sub-033,1,stroop_test,,
,,,,23.0,11.0,1.0,,,,,,,,,,,,,rot,yellow,g,0.0,g,1.0,0.9535252499626948,,,,,,,,,,1.0,11.0,23.0,3.0,225.37727804202584,,,,,,,,,,,,,,,,,225.36688162502836,225.7137206250336,226.5048869170132,226.49784387502584,,,,,,,,,,,,,,,,,,,,,,,,,,,,,,,,,,,226.4984515000251,226.5048869170132,226.5048869170132,227.46586662501795,g,1.0,0.9535252499626948,,,,,,sub-033,1,stroop_test,,
,,,,24.0,0.0,2.0,,,,,,,,,,,,,gelb,yellow,g,1.0,g,1.0,0.7802567499456927,,,,,,,,,,2.0,0.0,24.0,11.0,227.47674770804588,,,,,,,,,,,,,,,,,227.46661158301868,227.8138473330182,228.60884404199896,228.5976942080306,,,,,,,,,,,,,,,,,,,,,,,,,,,,,,,,,,,228.60183595801936,228.60884404199896,228.60884404199896,229.39934283302864,g,1.0,0.7802567499456927,,,,,,sub-033,1,stroop_test,,
,,,,25.0,1.0,2.0,,,,,,,,,,,,,blau,red,r,0.0,r,1.0,0.9175212090485728,,,,,,,,,,2.0,1.0,25.0,4.0,229.4104090000037,,,,,,,,,,,,,,,,,229.4001305830316,230.59707616700325,231.39219054201385,231.38099254202095,,,,,,,,,,,,,,,,,,,,,,,,,,,,,,,,,,,231.38503612502245,231.39219054201385,231.39219054201385,232.31554112501908,r,1.0,0.9175212090485728,,,,,,sub-033,1,stroop_test,,
,,,,26.0,2.0,2.0,,,,,,,,,,,,,blau,blue,b,1.0,b,1.0,0.6625632499926724,,,,,,,,,,2.0,2.0,26.0,6.0,232.32415270799535,,,,,,,,,,,,,,,,,232.3161626670044,233.11364220804532,233.9056819170364,233.89788258302724,,,,,,,,,,,,,,,,,,,,,,,,,,,,,,,,,,,233.89863741700535,233.9056819170364,233.9056819170364,234.5715315830312,b,1.0,0.6625632499926724,,,,,,sub-033,1,stroop_test,,
,,,,27.0,3.0,2.0,,,,,,,,,,,,,rot,red,r,1.0,r,1.0,0.6845344580360688,,,,,,,,,,2.0,3.0,27.0,1.0,234.58187929203268,,,,,,,,,,,,,,,,,234.57210904202657,234.66940641700057,235.46497879200612,235.4534623750369,,,,,,,,,,,,,,,,,,,,,,,,,,,,,,,,,,,235.4570013330085,235.46497879200612,235.46497879200612,236.15305150003405,r,1.0,0.6845344580360688,,,,,,sub-033,1,stroop_test,,
,,,,28.0,4.0,2.0,,,,,,,,,,,,,gelb,red,r,0.0,r,1.0,0.9392170420032926,,,,,,,,,,2.0,4.0,28.0,8.0,236.16213291703025,,,,,,,,,,,,,,,,,236.1535358750261,236.2526371669956,237.0484501250321,237.03683979203925,,,,,,,,,,,,,,,,,,,,,,,,,,,,,,,,,,,237.04047933302357,237.0484501250321,237.0484501250321,237.99895949999336,r,1.0,0.9392170420032926,,,,,,sub-033,1,stroop_test,,
,,,,29.0,5.0,2.0,,,,,,,,,,,,,gelb,blue,b,0.0,b,1.0,1.132593500020448,,,,,,,,,,2.0,5.0,29.0,9.0,238.00869816704653,,,,,,,,,,,,,,,,,237.9997194170137,239.1970870000077,239.98916954203744,239.9811654170044,,,,,,,,,,,,,,,,,,,,,,,,,,,,,,,,,,,239.9819674580358,239.98916954203744,239.98916954203744,241.1321394999977,b,1.0,1.132593500020448,,,,,,sub-033,1,stroop_test,,
,,,,30.0,6.0,2.0,,,,,,,,,,,,,rot,red,r,1.0,r,1.0,0.69251699995948,,,,,,,,,,2.0,6.0,30.0,0.0,241.1421311669983,,,,,,,,,,,,,,,,,241.13283516699448,241.228794958035,242.0262690000236,242.0142798750312,,,,,,,,,,,,,,,,,,,,,,,,,,,,,,,,,,,242.018780125014,242.0262690000236,242.0262690000236,242.72137095802464,r,1.0,0.69251699995948,,,,,,sub-033,1,stroop_test,,
,,,,31.0,7.0,2.0,,,,,,,,,,,,,rot,yellow,g,0.0,g,1.0,0.9607721250504256,,,,,,,,,,2.0,7.0,31.0,3.0,242.73153033299604,,,,,,,,,,,,,,,,,242.7220142080332,242.8189949170337,243.6120135830133,243.6035366670112,,,,,,,,,,,,,,,,,,,,,,,,,,,,,,,,,,,243.6041151250247,243.6120135830133,243.6120135830133,244.5821642919909,g,1.0,0.9607721250504256,,,,,,sub-033,1,stroop_test,,
,,,,32.0,8.0,2.0,,,,,,,,,,,,,blau,blue,b,1.0,b,1.0,0.7067151250084862,,,,,,,,,,2.0,8.0,32.0,5.0,244.59261983301255,,,,,,,,,,,,,,,,,244.58291137503693,244.93010654201495,245.72722050000448,245.71422020799943,,,,,,,,,,,,,,,,,,,,,,,,,,,,,,,,,,,245.7203285000287,245.72722050000448,245.72722050000448,246.4380272499984,b,1.0,0.7067151250084862,,,,,,sub-033,1,stroop_test,,
,,,,33.0,9.0,2.0,,,,,,,,,,,,,blau,yellow,g,0.0,g,1.0,1.025873499980662,,,,,,,,,,2.0,9.0,33.0,7.0,246.4490710000391,,,,,,,,,,,,,,,,,246.4385863750358,247.63614925002912,248.4286074170377,248.42035708302865,,,,,,,,,,,,,,,,,,,,,,,,,,,,,,,,,,,248.420932042005,248.4286074170377,248.4286074170377,249.46545112499732,g,1.0,1.025873499980662,,,,,,sub-033,1,stroop_test,,
,,,,34.0,10.0,2.0,,,,,,,,,,,,,gelb,yellow,g,1.0,g,1.0,0.8687330830143765,,,,,,,,,,2.0,10.0,34.0,10.0,249.4763615000411,,,,,,,,,,,,,,,,,249.46621312503703,249.8134567500092,250.608514291991,250.59737987502007,,,,,,,,,,,,,,,,,,,,,,,,,,,,,,,,,,,250.6013667500229,250.608514291991,250.608514291991,251.4823391670361,g,1.0,0.8687330830143765,,,,,,sub-033,1,stroop_test,,
,,,,35.0,11.0,2.0,,,,,,,,,,,,,rot,blue,b,0.0,b,1.0,1.0325205830158666,,,,,,,,,,2.0,11.0,35.0,2.0,251.4934921670356,,,,,,,,,,,,,,,,,251.48312220803928,251.83011508302295,252.6264123750152,252.61451804201351,,,,,,,,,,,,,,,,,,,,,,,,,,,,,,,,,,,252.6190690830117,252.6264123750152,252.6264123750152,253.665575208026,b,1.0,1.0325205830158666,,,,,,sub-033,1,stroop_test,,
,,,,36.0,0.0,3.0,,,,,,,,,,,,,gelb,yellow,g,1.0,g,1.0,0.9266022079973482,,,,,,,,,,3.0,0.0,36.0,10.0,253.6758985830238,,,,,,,,,,,,,,,,,253.6663200420444,254.01345595804744,254.80943066702457,254.79766575002577,,,,,,,,,,,,,,,,,,,,,,,,,,,,,,,,,,,254.8022654580418,254.80943066702457,254.80943066702457,255.73845279199304,g,1.0,0.9266022079973482,,,,,,sub-033,1,stroop_test,,
,,,,37.0,1.0,3.0,,,,,,,,,,,,,gelb,yellow,g,1.0,g,1.0,0.6026860420242883,,,,,,,,,,3.0,1.0,37.0,11.0,255.7490579170408,,,,,,,,,,,,,,,,,255.73921145801432,255.83565729204565,256.6285226250184,256.6200107920449,,,,,,,,,,,,,,,,,,,,,,,,,,,,,,,,,,,256.6205763750477,256.6285226250184,256.6285226250184,257.2428307920345,g,1.0,0.6026860420242883,,,,,,sub-033,1,stroop_test,,
,,,,38.0,2.0,3.0,,,,,,,,,,,,,blau,red,r,0.0,r,1.0,1.075525666004978,,,,,,,,,,3.0,2.0,38.0,4.0,257.2486416250468,,,,,,,,,,,,,,,,,257.24335325002903,257.336407958006,258.14650362503016,258.119562708016,,,,,,,,,,,,,,,,,,,,,,,,,,,,,,,,,,,258.12322520802263,258.14650362503016,258.14650362503016,259.23212012503063,r,1.0,1.075525666004978,,,,,,sub-033,1,stroop_test,,
,,,,39.0,3.0,3.0,,,,,,,,,,,,,rot,blue,b,0.0,b,1.0,1.0805884170113131,,,,,,,,,,3.0,3.0,39.0,2.0,259.24301129201194,,,,,,,,,,,,,,,,,259.23290104203625,259.3300337080145,260.1257744170143,260.1141052500461,,,,,,,,,,,,,,,,,,,,,,,,,,,,,,,,,,,260.11855087499134,260.1257744170143,260.1257744170143,261.2154888749937,b,1.0,1.0805884170113131,,,,,,sub-033,1,stroop_test,,
,,,,40.0,4.0,3.0,,,,,,,,,,,,,gelb,red,r,0.0,g,0.0,0.7726084169698879,,,,,,,,,,3.0,4.0,40.0,8.0,261.22628133301623,,,,,,,,,,,,,,,,,261.21628287504427,262.013378542033,262.80886545800604,262.7974826670252,,,,,,,,,,,,,,,,,,,,,,,,,,,,,,,,,,,262.8017305000103,262.80886545800604,262.80886545800604,263.5935282499995,g,0.0,0.7726084169698879,,,,,,sub-033,1,stroop_test,,
,,,,41.0,5.0,3.0,,,,,,,,,,,,,blau,blue,b,1.0,b,1.0,1.7377840839908458,,,,,,,,,,3.0,5.0,41.0,5.0,263.5986490829964,,,,,,,,,,,,,,,,,263.5940534170368,264.786302833003,265.5817351250444,265.5699685,,,,,,,,,,,,,,,,,,,,,,,,,,,,,,,,,,,265.57468125002924,265.5817351250444,265.5817351250444,267.32191625004634,b,1.0,1.7377840839908458,,,,,,sub-033,1,stroop_test,,
,,,,42.0,6.0,3.0,,,,,,,,,,,,,gelb,blue,b,0.0,b,1.0,1.0258849170058966,,,,,,,,,,3.0,6.0,42.0,9.0,267.3343163750251,,,,,,,,,,,,,,,,,267.3227077500196,268.5205949170049,269.32516808301443,269.3137449580245,,,,,,,,,,,,,,,,,,,,,,,,,,,,,,,,,,,269.318015167024,269.32516808301443,269.32516808301443,270.35490941704484,b,1.0,1.0258849170058966,,,,,,sub-033,1,stroop_test,,
,,,,43.0,7.0,3.0,,,,,,,,,,,,,rot,yellow,g,0.0,g,1.0,1.7610358749516308,,,,,,,,,,3.0,7.0,43.0,3.0,270.3653775830171,,,,,,,,,,,,,,,,,270.35548066702904,270.70280400000047,271.4980188750196,271.4864462920232,,,,,,,,,,,,,,,,,,,,,,,,,,,,,,,,,,,271.490036333038,271.4980188750196,271.4980188750196,273.26547033304814,g,1.0,1.7610358749516308,,,,,,sub-033,1,stroop_test,,
,,,,44.0,8.0,3.0,,,,,,,,,,,,,rot,red,r,1.0,r,1.0,0.88229641597718,,,,,,,,,,3.0,8.0,44.0,0.0,273.2756982080173,,,,,,,,,,,,,,,,,273.2662631670246,273.61304920801194,274.4050687919953,274.39719066704856,,,,,,,,,,,,,,,,,,,,,,,,,,,,,,,,,,,274.3979662920465,274.4050687919953,274.4050687919953,275.3012920420151,r,1.0,0.88229641597718,,,,,,sub-033,1,stroop_test,,
,,,,45.0,9.0,3.0,,,,,,,,,,,,,blau,yellow,g,0.0,g,1.0,1.1021506660035811,,,,,,,,,,3.0,9.0,45.0,7.0,275.313231875014,,,,,,,,,,,,,,,,,275.3016823329963,275.3963806250249,276.19206412503263,276.1806162080029,,,,,,,,,,,,,,,,,,,,,,,,,,,,,,,,,,,276.1849632920348,276.19206412503263,276.19206412503263,277.29858058301033,g,1.0,1.1021506660035811,,,,,,sub-033,1,stroop_test,,
,,,,46.0,10.0,3.0,,,,,,,,,,,,,blau,blue,b,1.0,b,1.0,1.341627417015843,,,,,,,,,,3.0,10.0,46.0,6.0,277.30912500002887,,,,,,,,,,,,,,,,,277.29924620804377,277.3964132920373,278.1882622500416,278.18068854202284,,,,,,,,,,,,,,,,,,,,,,,,,,,,,,,,,,,278.181439875043,278.1882622500416,278.1882622500416,279.53239904204383,b,1.0,1.341627417015843,,,,,,sub-033,1,stroop_test,,
,,,,47.0,11.0,3.0,,,,,,,,,,,,,rot,red,r,1.0,r,1.0,0.8912859580013901,,,,,,,,,,3.0,11.0,47.0,1.0,279.54280512500554,,,,,,,,,,,,,,,,,279.5331293329946,279.6298351250007,280.4257263750187,280.4140475830063,,,,,,,,,,,,,,,,,,,,,,,,,,,,,,,,,,,280.4185095830471,280.4257263750187,280.4257263750187,281.32160045800265,r,1.0,0.8912859580013901,,,,,,sub-033,1,stroop_test,,
,,,,48.0,0.0,4.0,,,,,,,,,,,,,rot,red,r,1.0,r,1.0,0.6990895830094814,,,,,,,,,,4.0,0.0,48.0,0.0,281.3322198750102,,,,,,,,,,,,,,,,,281.32216029200936,281.67000308301067,282.471684667049,282.4639407080249,,,,,,,,,,,,,,,,,,,,,,,,,,,,,,,,,,,282.46469858300406,282.471684667049,282.471684667049,283.18188591703074,r,1.0,0.6990895830094814,,,,,,sub-033,1,stroop_test,,
,,,,49.0,1.0,4.0,,,,,,,,,,,,,gelb,blue,b,0.0,b,1.0,0.8067287910380401,,,,,,,,,,4.0,1.0,49.0,9.0,283.19258579204325,,,,,,,,,,,,,,,,,283.1825959580019,284.3798068750184,285.1748240000452,285.16373712499626,,,,,,,,,,,,,,,,,,,,,,,,,,,,,,,,,,,285.16766100004315,285.1748240000452,285.1748240000452,285.9874445000314,b,1.0,0.8067287910380401,,,,,,sub-033,1,stroop_test,,
,,,,50.0,2.0,4.0,,,,,,,,,,,,,gelb,red,r,0.0,r,1.0,1.6638067919993773,,,,,,,,,,4.0,2.0,50.0,8.0,285.9984845000436,,,,,,,,,,,,,,,,,285.9879946670262,286.08955850003986,286.8881891249912,286.88060120801674,,,,,,,,,,,,,,,,,,,,,,,,,,,,,,,,,,,286.8813780830242,286.8881891249912,286.8881891249912,288.55458550003823,r,1.0,1.6638067919993773,,,,,,sub-033,1,stroop_test,,
,,,,51.0,3.0,4.0,,,,,,,,,,,,,blau,blue,b,1.0,b,1.0,1.565562499978114,,,,,,,,,,4.0,3.0,51.0,5.0,288.5652412920026,,,,,,,,,,,,,,,,,288.55519279203145,288.9024331670371,289.6983691670466,289.68587854201905,,,,,,,,,,,,,,,,,,,,,,,,,,,,,,,,,,,289.6906640829984,289.6983691670466,289.6983691670466,291.27549495804124,b,1.0,1.565562499978114,,,,,,sub-033,1,stroop_test,,
,,,,52.0,4.0,4.0,,,,,,,,,,,,,blau,red,r,0.0,b,0.0,0.9850877090357244,,,,,,,,,,4.0,4.0,52.0,4.0,291.28117299999576,,,,,,,,,,,,,,,,,291.27597262500785,291.36840550001943,292.16147445800016,292.1527792499983,,,,,,,,,,,,,,,,,,,,,,,,,,,,,,,,,,,292.1533505420084,292.16147445800016,292.16147445800016,293.1491529580089,b,0.0,0.9850877090357244,,,,,,sub-033,1,stroop_test,,
,,,,53.0,5.0,4.0,,,,,,,,,,,,,rot,blue,b,0.0,b,1.0,2.289716375002172,,,,,,,,,,4.0,5.0,53.0,2.0,293.15977187501267,,,,,,,,,,,,,,,,,293.14987683302024,293.24629362503765,294.04181312501896,294.0303537080181,,,,,,,,,,,,,,,,,,,,,,,,,,,,,,,,,,,294.0346067500068,294.04181312501896,294.04181312501896,296.3379380000406,b,1.0,2.289716375002172,,,,,,sub-033,1,stroop_test,,
,,,,54.0,6.0,4.0,,,,,,,,,,,,,gelb,yellow,g,1.0,g,1.0,0.915917125006672,,,,,,,,,,4.0,6.0,54.0,10.0,296.34836037503555,,,,,,,,,,,,,,,,,296.3385341670364,297.1363157500164,297.9312408750411,297.9199034170015,,,,,,,,,,,,,,,,,,,,,,,,,,,,,,,,,,,297.92368300003,297.9312408750411,297.9312408750411,298.85879758303054,g,1.0,0.915917125006672,,,,,,sub-033,1,stroop_test,,
,,,,55.0,7.0,4.0,,,,,,,,,,,,,blau,blue,b,1.0,b,1.0,0.7010473749833182,,,,,,,,,,4.0,7.0,55.0,6.0,298.86445720802294,,,,,,,,,,,,,,,,,298.859270792047,299.65212983300444,300.4625334170414,300.43607341701863,,,,,,,,,,,,,,,,,,,,,,,,,,,,,,,,,,,300.4396859999979,300.4625334170414,300.4625334170414,301.17728320800234,b,1.0,0.7010473749833182,,,,,,sub-033,1,stroop_test,,
,,,,56.0,8.0,4.0,,,,,,,,,,,,,rot,yellow,g,0.0,g,1.0,0.9986582910059952,,,,,,,,,,4.0,8.0,56.0,3.0,301.1824396669981,,,,,,,,,,,,,,,,,301.1777896670392,302.3688942500157,303.16436737502227,303.1530690829968,,,,,,,,,,,,,,,,,,,,,,,,,,,,,,,,,,,303.1565917080152,303.16436737502227,303.16436737502227,304.1654472920345,g,1.0,0.9986582910059952,,,,,,sub-033,1,stroop_test,,
,,,,57.0,9.0,4.0,,,,,,,,,,,,,rot,red,r,1.0,r,1.0,0.8858619160018861,,,,,,,,,,4.0,9.0,57.0,1.0,304.17614520801,,,,,,,,,,,,,,,,,304.16617654199945,304.9629312500474,305.75425724999513,305.746799375047,,,,,,,,,,,,,,,,,,,,,,,,,,,,,,,,,,,305.7474165420281,305.75425724999513,305.75425724999513,306.6481794170104,r,1.0,0.8858619160018861,,,,,,sub-033,1,stroop_test,,
,,,,58.0,10.0,4.0,,,,,,,,,,,,,gelb,yellow,g,1.0,g,1.0,1.0286037499899976,,,,,,,,,,4.0,10.0,58.0,11.0,306.6602807500167,,,,,,,,,,,,,,,,,306.64898004202405,307.4460427080048,308.2417232080479,308.2302095830091,,,,,,,,,,,,,,,,,,,,,,,,,,,,,,,,,,,308.2344564170344,308.2417232080479,308.2417232080479,309.2813760419958,g,1.0,1.0286037499899976,,,,,,sub-033,1,stroop_test,,
,,,,59.0,11.0,4.0,,,,,,,,,,,,,blau,yellow,g,0.0,g,1.0,1.1574665840016678,,,,,,,,,,4.0,11.0,59.0,7.0,309.29283387499163,,,,,,,,,,,,,,,,,309.2821962920134,310.47947658301564,311.2762031670427,311.2635457080323,,,,,,,,,,,,,,,,,,,,,,,,,,,,,,,,,,,311.2690735000069,311.2762031670427,311.2762031670427,312.4378174580052,g,1.0,1.1574665840016678,,,,,,sub-033,1,stroop_test,,
,,,,60.0,0.0,5.0,,,,,,,,,,,,,rot,red,r,1.0,r,1.0,1.4068891670322046,,,,,,,,,,5.0,0.0,60.0,0.0,312.448402958049,,,,,,,,,,,,,,,,,312.43836058303714,312.78598029201385,313.5811748330016,313.5696286250022,,,,,,,,,,,,,,,,,,,,,,,,,,,,,,,,,,,313.57328437501565,313.5811748330016,313.5811748330016,314.9982030420215,r,1.0,1.4068891670322046,,,,,,sub-033,1,stroop_test,,
,,,,61.0,1.0,5.0,,,,,,,,,,,,,rot,red,r,1.0,r,1.0,1.0764782080077566,,,,,,,,,,5.0,1.0,61.0,1.0,315.00946833303897,,,,,,,,,,,,,,,,,314.99893454200355,316.19601854204666,316.9873148330371,316.9799610830378,,,,,,,,,,,,,,,,,,,,,,,,,,,,,,,,,,,316.9805578330416,316.9873148330371,316.9873148330371,318.0703265000484,r,1.0,1.0764782080077566,,,,,,sub-033,1,stroop_test,,
,,,,62.0,2.0,5.0,,,,,,,,,,,,,rot,blue,b,0.0,b,1.0,1.210740042035468,,,,,,,,,,5.0,2.0,62.0,2.0,318.0813122499967,,,,,,,,,,,,,,,,,318.0709045000258,318.4193743329961,319.21113591699395,319.20258604199626,,,,,,,,,,,,,,,,,,,,,,,,,,,,,,,,,,,319.203161042009,319.21113591699395,319.21113591699395,320.4314818750136,b,1.0,1.210740042035468,,,,,,sub-033,1,stroop_test,,
,,,,63.0,3.0,5.0,,,,,,,,,,,,,gelb,yellow,g,1.0,g,1.0,1.2625003339489922,,,,,,,,,,5.0,3.0,63.0,10.0,320.4427211250295,,,,,,,,,,,,,,,,,320.43227654200746,320.5292719170102,321.3252249170328,321.31350325001404,,,,,,,,,,,,,,,,,,,,,,,,,,,,,,,,,,,321.3181179999956,321.3252249170328,321.3252249170328,322.5980608329992,g,1.0,1.2625003339489922,,,,,,sub-033,1,stroop_test,,
,,,,64.0,4.0,5.0,,,,,,,,,,,,,blau,blue,b,1.0,b,1.0,1.858229665958788,,,,,,,,,,5.0,4.0,64.0,5.0,322.60922275000485,,,,,,,,,,,,,,,,,322.59876666701166,322.69617000001017,323.49156612501247,323.4801974170259,,,,,,,,,,,,,,,,,,,,,,,,,,,,,,,,,,,323.4846550000366,323.49156612501247,323.49156612501247,325.3540694169933,b,1.0,1.858229665958788,,,,,,sub-033,1,stroop_test,,
,,,,65.0,5.0,5.0,,,,,,,,,,,,,rot,yellow,g,0.0,g,1.0,1.281827417027671,,,,,,,,,,5.0,5.0,65.0,3.0,325.3646457080031,,,,,,,,,,,,,,,,,325.354657332995,325.4541837500292,326.25868037500186,326.2467166670249,,,,,,,,,,,,,,,,,,,,,,,,,,,,,,,,,,,326.25139604200376,326.25868037500186,326.25868037500186,327.54804833303206,g,1.0,1.281827417027671,,,,,,sub-033,1,stroop_test,,
,,,,66.0,6.0,5.0,,,,,,,,,,,,,blau,blue,b,1.0,b,1.0,1.6177681249682792,,,,,,,,,,5.0,6.0,66.0,6.0,327.5591846250463,,,,,,,,,,,,,,,,,327.5488619169919,327.6458615830052,328.441793792008,328.4301298750215,,,,,,,,,,,,,,,,,,,,,,,,,,,,,,,,,,,328.43456583301304,328.441793792008,328.441793792008,330.0647890000255,b,1.0,1.6177681249682792,,,,,,sub-033,1,stroop_test,,
,,,,67.0,7.0,5.0,,,,,,,,,,,,,gelb,blue,b,0.0,b,1.0,1.3547507919720374,,,,,,,,,,5.0,7.0,67.0,9.0,330.07592529203976,,,,,,,,,,,,,,,,,330.0655775000341,330.86258075002115,331.659693041991,331.6466512079933,,,,,,,,,,,,,,,,,,,,,,,,,,,,,,,,,,,331.65271700004814,331.659693041991,331.659693041991,333.0205140420003,b,1.0,1.3547507919720374,,,,,,sub-033,1,stroop_test,,
,,,,68.0,8.0,5.0,,,,,,,,,,,,,blau,red,r,0.0,r,1.0,1.3843597089871764,,,,,,,,,,5.0,8.0,68.0,4.0,333.03168179199565,,,,,,,,,,,,,,,,,333.02115479204804,333.3695309170289,334.16426404204685,334.1527135420474,,,,,,,,,,,,,,,,,,,,,,,,,,,,,,,,,,,334.1563963330118,334.16426404204685,334.16426404204685,335.55401791702025,r,1.0,1.3843597089871764,,,,,,sub-033,1,stroop_test,,
,,,,69.0,9.0,5.0,,,,,,,,,,,,,blau,yellow,g,0.0,g,1.0,0.8784365419996902,,,,,,,,,,5.0,9.0,69.0,7.0,335.56459183304105,,,,,,,,,,,,,,,,,335.5546040830086,335.901978333015,336.6943858330487,336.68543770804536,,,,,,,,,,,,,,,,,,,,,,,,,,,,,,,,,,,336.68602420802927,336.6943858330487,336.6943858330487,337.581193207996,g,1.0,0.8784365419996902,,,,,,sub-033,1,stroop_test,,
,,,,70.0,10.0,5.0,,,,,,,,,,,,,gelb,red,r,0.0,r,1.0,1.0389547499944456,,,,,,,,,,5.0,10.0,70.0,8.0,337.592211167037,,,,,,,,,,,,,,,,,337.5818985000369,338.3791935000336,339.174271958007,339.1631187500316,,,,,,,,,,,,,,,,,,,,,,,,,,,,,,,,,,,339.1672325830441,339.174271958007,339.174271958007,340.2267687920248,r,1.0,1.0389547499944456,,,,,,sub-033,1,stroop_test,,
,,,,71.0,11.0,5.0,,,,,,,,,,,,,gelb,yellow,g,1.0,g,1.0,1.2267921249731444,,,,,,,,,,5.0,11.0,71.0,11.0,340.2307711670292,,,,,,,,,,,,,,,,,340.2273134580464,341.4194937500288,342.22078016703017,342.21320579200983,,,,,,,,,,,,,,,,,,,,,,,,,,,,,,,,,,,342.21396354201715,342.22078016703017,342.22078016703017,343.45370479201665,g,1.0,1.2267921249731444,,,,,,sub-033,1,stroop_test,,
,,,,72.0,0.0,6.0,,,,,,,,,,,,,gelb,yellow,g,1.0,g,1.0,1.6887030830257572,,,,,,,,,,6.0,0.0,72.0,10.0,343.464656791999,,,,,,,,,,,,,,,,,343.45430195803056,344.2523616250255,345.0442057500477,345.03562508302275,,,,,,,,,,,,,,,,,,,,,,,,,,,,,,,,,,,345.03620450000744,345.0442057500477,345.0442057500477,346.7369257080136,g,1.0,1.6887030830257572,,,,,,sub-033,1,stroop_test,,
,,,,73.0,1.0,6.0,,,,,,,,,,,,,blau,blue,b,1.0,b,1.0,1.582724500040058,,,,,,,,,,6.0,1.0,73.0,5.0,346.747376000043,,,,,,,,,,,,,,,,,346.737459667027,346.8346335000242,347.630641249998,347.61907279200386,,,,,,,,,,,,,,,,,,,,,,,,,,,,,,,,,,,347.6227600420243,347.630641249998,347.630641249998,349.2252488330123,b,1.0,1.582724500040058,,,,,,sub-033,1,stroop_test,,
,,,,74.0,2.0,6.0,,,,,,,,,,,,,gelb,yellow,g,1.0,g,1.0,1.1418951660161838,,,,,,,,,,6.0,2.0,74.0,11.0,349.2311340000015,,,,,,,,,,,,,,,,,349.225840041996,349.3218044170062,350.12446495803306,350.1130880420096,,,,,,,,,,,,,,,,,,,,,,,,,,,,,,,,,,,350.11703625001246,350.12446495803306,350.12446495803306,351.27029783301987,g,1.0,1.1418951660161838,,,,,,sub-033,1,stroop_test,,
,,,,75.0,3.0,6.0,,,,,,,,,,,,,gelb,blue,b,0.0,b,1.0,0.8883072919561528,,,,,,,,,,6.0,3.0,75.0,9.0,351.2809805830475,,,,,,,,,,,,,,,,,351.27083829202456,352.0677962080226,352.8607818330056,352.85249520803336,,,,,,,,,,,,,,,,,,,,,,,,,,,,,,,,,,,352.85309704201063,352.8607818330056,352.8607818330056,353.7543171670404,b,1.0,0.8883072919561528,,,,,,sub-033,1,stroop_test,,
,,,,76.0,4.0,6.0,,,,,,,,,,,,,blau,red,r,0.0,r,1.0,1.89401791698765,,,,,,,,,,6.0,4.0,76.0,4.0,353.7673328749952,,,,,,,,,,,,,,,,,353.75491270801285,353.8538479580311,354.65757620800287,354.6462770420476,,,,,,,,,,,,,,,,,,,,,,,,,,,,,,,,,,,354.6503284579958,354.65757620800287,354.65757620800287,356.55427741701715,r,1.0,1.89401791698765,,,,,,sub-033,1,stroop_test,,
,,,,77.0,5.0,6.0,,,,,,,,,,,,,rot,red,r,1.0,r,1.0,0.665000582986977,,,,,,,,,,6.0,5.0,77.0,1.0,356.5666653329972,,,,,,,,,,,,,,,,,356.5549097500043,357.75141775002703,358.5473458750057,358.53530579200014,,,,,,,,,,,,,,,,,,,,,,,,,,,,,,,,,,,358.5399193330086,358.5473458750057,358.5473458750057,359.2149284580373,r,1.0,0.665000582986977,,,,,,sub-033,1,stroop_test,,
,,,,78.0,6.0,6.0,,,,,,,,,,,,,blau,yellow,g,0.0,g,1.0,0.9951002500019968,,,,,,,,,,6.0,6.0,78.0,7.0,359.2257392500178,,,,,,,,,,,,,,,,,359.2157383750309,360.01238733303035,360.807716957992,360.7961108330055,,,,,,,,,,,,,,,,,,,,,,,,,,,,,,,,,,,360.8005849579931,360.807716957992,360.807716957992,361.8139267920051,g,1.0,0.9951002500019968,,,,,,sub-033,1,stroop_test,,
,,,,79.0,7.0,6.0,,,,,,,,,,,,,blau,blue,b,1.0,b,1.0,1.515683125006035,,,,,,,,,,6.0,7.0,79.0,6.0,361.8246635420364,,,,,,,,,,,,,,,,,361.8146350420429,363.0121889580041,363.8037386250217,363.7962441670242,,,,,,,,,,,,,,,,,,,,,,,,,,,,,,,,,,,363.7969855830306,363.8037386250217,363.8037386250217,365.330904750037,b,1.0,1.515683125006035,,,,,,sub-033,1,stroop_test,,
,,,,80.0,8.0,6.0,,,,,,,,,,,,,rot,red,r,1.0,r,1.0,0.9280246670241468,,,,,,,,,,6.0,8.0,80.0,0.0,365.3430438330397,,,,,,,,,,,,,,,,,365.3318011250231,365.67883420799626,366.4755256249919,366.4631350000273,,,,,,,,,,,,,,,,,,,,,,,,,,,,,,,,,,,366.46761854202487,366.4755256249919,366.4755256249919,367.41422387503553,r,1.0,0.9280246670241468,,,,,,sub-033,1,stroop_test,,
,,,,81.0,9.0,6.0,,,,,,,,,,,,,rot,blue,b,0.0,b,1.0,1.1916981660178865,,,,,,,,,,6.0,9.0,81.0,2.0,367.4262034580461,,,,,,,,,,,,,,,,,367.4150380830397,367.5119817079976,368.304086958,368.2964455420152,,,,,,,,,,,,,,,,,,,,,,,,,,,,,,,,,,,368.2972186250263,368.304086958,368.304086958,369.49837325001135,b,1.0,1.1916981660178865,,,,,,sub-033,1,stroop_test,,
,,,,82.0,10.0,6.0,,,,,,,,,,,,,gelb,red,r,0.0,r,1.0,1.5390823329798875,,,,,,,,,,6.0,10.0,82.0,8.0,369.5101285830024,,,,,,,,,,,,,,,,,369.499241625017,370.2954280000413,371.0913197080372,371.079582083039,,,,,,,,,,,,,,,,,,,,,,,,,,,,,,,,,,,371.083947792009,371.0913197080372,371.0913197080372,372.636238667008,r,1.0,1.5390823329798875,,,,,,sub-033,1,stroop_test,,
,,,,83.0,11.0,6.0,,,,,,,,,,,,,rot,yellow,g,0.0,g,1.0,1.043497041973751,,,,,,,,,,6.0,11.0,83.0,3.0,372.6477574580349,,,,,,,,,,,,,,,,,372.6368329169927,373.435426583048,374.2301336250384,374.2187305830303,,,,,,,,,,,,,,,,,,,,,,,,,,,,,,,,,,,374.2222463749931,374.2301336250384,374.2301336250384,375.2807107500266,g,1.0,1.043497041973751,,,,,,sub-033,1,stroop_test,,
,,,,84.0,0.0,7.0,,,,,,,,,,,,,rot,blue,b,0.0,b,1.0,1.51821241696598,,,,,,,,,,7.0,0.0,84.0,2.0,375.2922523750458,,,,,,,,,,,,,,,,,375.2814257499994,376.0787765000132,376.8699501670199,376.8627198750037,,,,,,,,,,,,,,,,,,,,,,,,,,,,,,,,,,,376.8633224579971,376.8699501670199,376.8699501670199,378.39772158302367,b,1.0,1.51821241696598,,,,,,sub-033,1,stroop_test,,
,,,,85.0,1.0,7.0,,,,,,,,,,,,,gelb,blue,b,0.0,b,1.0,1.1561395839671604,,,,,,,,,,7.0,1.0,85.0,9.0,378.4093703330145,,,,,,,,,,,,,,,,,378.3985504170414,379.5952183330082,380.3912158750463,380.3794786670478,,,,,,,,,,,,,,,,,,,,,,,,,,,,,,,,,,,380.3840575829963,380.3912158750463,380.3912158750463,381.5536820419948,b,1.0,1.1561395839671604,,,,,,sub-033,1,stroop_test,,
,,,,86.0,2.0,7.0,,,,,,,,,,,,,gelb,yellow,g,1.0,g,1.0,0.8920274999691173,,,,,,,,,,7.0,2.0,86.0,10.0,381.5642804169911,,,,,,,,,,,,,,,,,381.55435849999776,381.6504460830474,382.4451490420033,382.4341219170019,,,,,,,,,,,,,,,,,,,,,,,,,,,,,,,,,,,382.4346893330221,382.4451490420033,382.4451490420033,383.3474470000365,g,1.0,0.8920274999691173,,,,,,sub-033,1,stroop_test,,
,,,,87.0,3.0,7.0,,,,,,,,,,,,,gelb,yellow,g,1.0,g,1.0,0.7220239999587648,,,,,,,,,,7.0,3.0,87.0,11.0,383.3591703330167,,,,,,,,,,,,,,,,,383.3482757500024,384.5452305829968,385.3368664580048,385.3292555829976,,,,,,,,,,,,,,,,,,,,,,,,,,,,,,,,,,,385.330007667013,385.3368664580048,385.3368664580048,386.06398920802167,g,1.0,0.7220239999587648,,,,,,sub-033,1,stroop_test,,
,,,,88.0,4.0,7.0,,,,,,,,,,,,,blau,red,r,0.0,r,1.0,2.1535451249801554,,,,,,,,,,7.0,4.0,88.0,4.0,386.0757268330199,,,,,,,,,,,,,,,,,386.0647389170481,386.86198874999536,387.65887708304217,387.6459984580288,,,,,,,,,,,,,,,,,,,,,,,,,,,,,,,,,,,387.6519424170256,387.65887708304217,387.65887708304217,389.82685079204384,r,1.0,2.1535451249801554,,,,,,sub-033,1,stroop_test,,
,,,,89.0,5.0,7.0,,,,,,,,,,,,,rot,red,r,1.0,r,1.0,0.9680611249641516,,,,,,,,,,7.0,5.0,89.0,0.0,389.83146329200827,,,,,,,,,,,,,,,,,389.8273864579969,390.6179800420068,391.413604500005,391.40201420802623,,,,,,,,,,,,,,,,,,,,,,,,,,,,,,,,,,,391.40571712504607,391.413604500005,391.413604500005,392.3860482500168,r,1.0,0.9680611249641516,,,,,,sub-033,1,stroop_test,,
,,,,90.0,6.0,7.0,,,,,,,,,,,,,blau,blue,b,1.0,b,1.0,1.5830619579646736,,,,,,,,,,7.0,6.0,90.0,6.0,392.41158762504347,,,,,,,,,,,,,,,,,392.3865525420406,393.58505554200383,394.3798725419911,394.3683326250175,,,,,,,,,,,,,,,,,,,,,,,,,,,,,,,,,,,394.3719494580291,394.3798725419911,394.3798725419911,395.96952162502566,b,1.0,1.5830619579646736,,,,,,sub-033,1,stroop_test,,
,,,,91.0,7.0,7.0,,,,,,,,,,,,,blau,blue,b,1.0,b,1.0,0.7050597079796717,,,,,,,,,,7.0,7.0,91.0,5.0,395.9799634999945,,,,,,,,,,,,,,,,,395.9701122500119,397.1679467500071,397.9603132920456,397.9515755000175,,,,,,,,,,,,,,,,,,,,,,,,,,,,,,,,,,,397.9521501249983,397.9603132920456,397.9603132920456,398.6694076250424,b,1.0,0.7050597079796717,,,,,,sub-033,1,stroop_test,,
,,,,92.0,8.0,7.0,,,,,,,,,,,,,rot,red,r,1.0,r,1.0,0.9532900840276852,,,,,,,,,,7.0,8.0,92.0,1.0,398.6796118330094,,,,,,,,,,,,,,,,,398.6699955420336,399.4684943750035,400.26309233304346,400.25154741702136,,,,,,,,,,,,,,,,,,,,,,,,,,,,,,,,,,,400.2551650830428,400.26309233304346,400.26309233304346,401.2198630830389,r,1.0,0.9532900840276852,,,,,,sub-033,1,stroop_test,,
,,,,93.0,9.0,7.0,,,,,,,,,,,,,rot,yellow,g,0.0,g,1.0,1.3786104580503888,,,,,,,,,,7.0,9.0,93.0,3.0,401.2303045419976,,,,,,,,,,,,,,,,,401.2204382080236,401.56862120801816,402.3602530420176,402.35190962499473,,,,,,,,,,,,,,,,,,,,,,,,,,,,,,,,,,,402.3524943750235,402.3602530420176,402.3602530420176,403.7473119170172,g,1.0,1.3786104580503888,,,,,,sub-033,1,stroop_test,,
,,,,94.0,10.0,7.0,,,,,,,,,,,,,gelb,red,r,0.0,r,1.0,1.013383708021138,,,,,,,,,,7.0,10.0,94.0,8.0,403.7577452920377,,,,,,,,,,,,,,,,,403.7480734580313,404.94513562502107,405.7406172920018,405.7291652919957,,,,,,,,,,,,,,,,,,,,,,,,,,,,,,,,,,,405.73358016699785,405.7406172920018,405.7406172920018,406.76377237500856,r,1.0,1.013383708021138,,,,,,sub-033,1,stroop_test,,
,,,,95.0,11.0,7.0,,,,,,,,,,,,,blau,yellow,g,0.0,g,1.0,1.0656444579944946,,,,,,,,,,7.0,11.0,95.0,7.0,406.7741905419971,,,,,,,,,,,,,,,,,406.7645158750238,406.8613439580077,407.6571333330357,407.6456732079969,,,,,,,,,,,,,,,,,,,,,,,,,,,,,,,,,,,407.6500866670394,407.6571333330357,407.6571333330357,408.730388667027,g,1.0,1.0656444579944946,,,,,,sub-033,1,stroop_test,,
,,,,96.0,0.0,8.0,,,,,,,,,,,,,rot,blue,b,0.0,b,1.0,0.9874452499789186,,,,,,,,,,8.0,0.0,96.0,2.0,408.7406798330485,,,,,,,,,,,,,,,,,408.73111799999606,409.0781891249935,409.8753317500232,409.8625010830001,,,,,,,,,,,,,,,,,,,,,,,,,,,,,,,,,,,409.86830858304165,409.8753317500232,409.8753317500232,410.8694703330402,b,1.0,0.9874452499789186,,,,,,sub-033,1,stroop_test,,
,,,,97.0,1.0,8.0,,,,,,,,,,,,,gelb,red,r,0.0,r,1.0,0.7196869169711135,,,,,,,,,,8.0,1.0,97.0,8.0,410.8802387920441,,,,,,,,,,,,,,,,,410.8700646670186,412.0684748330386,412.8632292500115,412.8517160000047,,,,,,,,,,,,,,,,,,,,,,,,,,,,,,,,,,,412.85542816703673,412.8632292500115,412.8632292500115,413.5858142920188,r,1.0,0.7196869169711135,,,,,,sub-033,1,stroop_test,,
,,,,98.0,2.0,8.0,,,,,,,,,,,,,rot,red,r,1.0,r,1.0,0.6491741669597104,,,,,,,,,,8.0,2.0,98.0,1.0,413.5963859580224,,,,,,,,,,,,,,,,,413.5863751670113,414.3851757920347,415.1796749579953,415.1683204169967,,,,,,,,,,,,,,,,,,,,,,,,,,,,,,,,,,,415.17192158300895,415.1796749579953,415.1796749579953,415.84223854204174,r,1.0,0.6491741669597104,,,,,,sub-033,1,stroop_test,,
,,,,99.0,3.0,8.0,,,,,,,,,,,,,rot,red,r,1.0,r,1.0,0.8530689590261318,,,,,,,,,,8.0,3.0,99.0,0.0,415.8466487500118,,,,,,,,,,,,,,,,,415.8426817080472,415.9342119999928,416.7267687499989,416.7180495420471,,,,,,,,,,,,,,,,,,,,,,,,,,,,,,,,,,,416.7186412920128,416.7267687499989,416.7267687499989,417.586337833025,r,1.0,0.8530689590261318,,,,,,sub-033,1,stroop_test,,
,,,,100.0,4.0,8.0,,,,,,,,,,,,,blau,red,r,0.0,r,1.0,1.9703220420051368,,,,,,,,,,8.0,4.0,100.0,4.0,417.5965426250477,,,,,,,,,,,,,,,,,417.5869091670029,418.7843310830067,419.5797990830033,419.568301583,,,,,,,,,,,,,,,,,,,,,,,,,,,,,,,,,,,419.5719138330314,419.5797990830033,419.5797990830033,421.5527807920007,r,1.0,1.9703220420051368,,,,,,sub-033,1,stroop_test,,
,,,,101.0,5.0,8.0,,,,,,,,,,,,,gelb,yellow,g,1.0,g,1.0,1.5729967500083148,,,,,,,,,,8.0,5.0,101.0,10.0,421.5632598749944,,,,,,,,,,,,,,,,,421.5533608749975,422.35076162504265,423.1611775830388,423.13467937504174,,,,,,,,,,,,,,,,,,,,,,,,,,,,,,,,,,,423.1383584580035,423.1611775830388,423.1611775830388,424.736274667026,g,1.0,1.5729967500083148,,,,,,sub-033,1,stroop_test,,
,,,,102.0,6.0,8.0,,,,,,,,,,,,,rot,yellow,g,0.0,g,1.0,1.1580157079733908,,,,,,,,,,8.0,6.0,102.0,3.0,424.7475826250157,,,,,,,,,,,,,,,,,424.7367864170228,425.0841792080319,425.8796905000345,425.8679002500139,,,,,,,,,,,,,,,,,,,,,,,,,,,,,,,,,,,425.8715845830157,425.8796905000345,425.8796905000345,427.04676429199753,g,1.0,1.1580157079733908,,,,,,sub-033,1,stroop_test,,
,,,,103.0,7.0,8.0,,,,,,,,,,,,,blau,yellow,g,0.0,g,1.0,1.0556077920482494,,,,,,,,,,8.0,7.0,103.0,7.0,427.058453375008,,,,,,,,,,,,,,,,,427.0475130830309,427.3948497920064,428.190379250038,428.1790439170436,,,,,,,,,,,,,,,,,,,,,,,,,,,,,,,,,,,428.1831035420182,428.190379250038,428.190379250038,429.2525136250188,g,1.0,1.0556077920482494,,,,,,sub-033,1,stroop_test,,
,,,,104.0,8.0,8.0,,,,,,,,,,,,,blau,blue,b,1.0,b,1.0,1.3582148749846965,,,,,,,,,,8.0,8.0,104.0,5.0,429.2637883330463,,,,,,,,,,,,,,,,,429.2531050420366,430.05080458300654,430.8532589999959,430.8456085000071,,,,,,,,,,,,,,,,,,,,,,,,,,,,,,,,,,,430.8463760000304,430.8532589999959,430.8532589999959,432.214114041999,b,1.0,1.3582148749846965,,,,,,sub-033,1,stroop_test,,
,,,,105.0,9.0,8.0,,,,,,,,,,,,,gelb,yellow,g,1.0,g,1.0,1.155383792007342,,,,,,,,,,8.0,9.0,105.0,11.0,432.2256304170005,,,,,,,,,,,,,,,,,432.2149415829917,433.411407000036,434.2085459580412,434.1954781250097,,,,,,,,,,,,,,,,,,,,,,,,,,,,,,,,,,,434.2015021670377,434.2085459580412,434.2085459580412,435.3694182500476,g,1.0,1.155383792007342,,,,,,sub-033,1,stroop_test,,
,,,,106.0,10.0,8.0,,,,,,,,,,,,,blau,blue,b,1.0,b,1.0,0.9385952499578708,,,,,,,,,,8.0,10.0,106.0,6.0,435.380255917029,,,,,,,,,,,,,,,,,435.37001120799687,435.717419875029,436.5128555420088,436.5013330420479,,,,,,,,,,,,,,,,,,,,,,,,,,,,,,,,,,,436.5049696250353,436.5128555420088,436.5128555420088,437.4646273330436,b,1.0,0.9385952499578708,,,,,,sub-033,1,stroop_test,,
,,,,107.0,11.0,8.0,,,,,,,,,,,,,gelb,blue,b,0.0,b,1.0,1.115731332974974,,,,,,,,,,8.0,11.0,107.0,9.0,437.47780666704057,,,,,,,,,,,,,,,,,437.46499333303655,438.26126729202224,439.0565699170111,439.0452339170152,,,,,,,,,,,,,,,,,,,,,,,,,,,,,,,,,,,439.049579375016,439.0565699170111,439.0565699170111,440.179946542019,b,1.0,1.115731332974974,,,,,,sub-033,1,stroop_test,,
,,,,108.0,0.0,9.0,,,,,,,,,,,,,rot,blue,b,0.0,b,1.0,0.9424482909962536,,,,,,,,,,9.0,0.0,108.0,2.0,440.1909297920065,,,,,,,,,,,,,,,,,440.1805585420225,440.277896500018,441.07362050004303,441.06200916704256,,,,,,,,,,,,,,,,,,,,,,,,,,,,,,,,,,,441.0663133750204,441.07362050004303,441.07362050004303,442.0189750830177,b,1.0,0.9424482909962536,,,,,,sub-033,1,stroop_test,,
,,,,109.0,1.0,9.0,,,,,,,,,,,,,gelb,yellow,g,1.0,g,1.0,1.2857193750096485,,,,,,,,,,9.0,1.0,109.0,11.0,442.02965858299285,,,,,,,,,,,,,,,,,442.0195294170408,443.217439250031,444.01299966702936,444.0011943330173,,,,,,,,,,,,,,,,,,,,,,,,,,,,,,,,,,,444.0048521250137,444.01299966702936,444.01299966702936,445.3029379170039,g,1.0,1.2857193750096485,,,,,,sub-033,1,stroop_test,,
,,,,110.0,2.0,9.0,,,,,,,,,,,,,blau,yellow,g,0.0,g,1.0,0.8992225409601815,,,,,,,,,,9.0,2.0,110.0,7.0,445.3135334170074,,,,,,,,,,,,,,,,,445.3034711250221,445.65088870801264,446.4460558330175,446.4345560420188,,,,,,,,,,,,,,,,,,,,,,,,,,,,,,,,,,,446.43817091704113,446.4460558330175,446.4460558330175,447.3595065000118,g,1.0,0.8992225409601815,,,,,,sub-033,1,stroop_test,,
,,,,111.0,3.0,9.0,,,,,,,,,,,,,blau,blue,b,1.0,b,1.0,0.5749032080057077,,,,,,,,,,9.0,3.0,111.0,6.0,447.3640253749909,,,,,,,,,,,,,,,,,447.36007433303166,448.5515296250233,449.3531990000047,449.3452642080374,,,,,,,,,,,,,,,,,,,,,,,,,,,,,,,,,,,449.3460118329968,449.3531990000047,449.3531990000047,449.9306919579976,b,1.0,0.5749032080057077,,,,,,sub-033,1,stroop_test,,
,,,,112.0,4.0,9.0,,,,,,,,,,,,,blau,blue,b,1.0,b,1.0,0.7132154590217397,,,,,,,,,,9.0,4.0,112.0,5.0,449.941513458034,,,,,,,,,,,,,,,,,449.9314035830321,450.7277342500165,451.5193405420287,451.5119264170062,,,,,,,,,,,,,,,,,,,,,,,,,,,,,,,,,,,451.5125334170298,451.5193405420287,451.5193405420287,452.2358923330321,b,1.0,0.7132154590217397,,,,,,sub-033,1,stroop_test,,
,,,,113.0,5.0,9.0,,,,,,,,,,,,,rot,yellow,g,0.0,g,1.0,0.9513501250185072,,,,,,,,,,9.0,5.0,113.0,3.0,452.24684962502215,,,,,,,,,,,,,,,,,452.2364142500446,452.584057,453.3802760000108,453.367922458041,,,,,,,,,,,,,,,,,,,,,,,,,,,,,,,,,,,453.37299620802514,453.3802760000108,453.3802760000108,454.3355639580405,g,1.0,0.9513501250185072,,,,,,sub-033,1,stroop_test,,
,,,,114.0,6.0,9.0,,,,,,,,,,,,,blau,red,r,0.0,r,1.0,0.6826555840088986,,,,,,,,,,9.0,6.0,114.0,4.0,454.3463213330251,,,,,,,,,,,,,,,,,454.3361370830098,454.43341858300846,455.2292369170464,455.2175296249916,,,,,,,,,,,,,,,,,,,,,,,,,,,,,,,,,,,455.2211562920129,455.2292369170464,455.2292369170464,455.9261171250255,r,1.0,0.6826555840088986,,,,,,sub-033,1,stroop_test,,
,,,,115.0,7.0,9.0,,,,,,,,,,,,,gelb,red,r,0.0,r,1.0,0.7855589579558,,,,,,,,,,9.0,7.0,115.0,8.0,455.93051358300727,,,,,,,,,,,,,,,,,455.92660337500274,456.0171940420405,456.8126983330003,456.8012061250047,,,,,,,,,,,,,,,,,,,,,,,,,,,,,,,,,,,456.8048316250206,456.8126983330003,456.8126983330003,457.6020759580424,r,1.0,0.7855589579558,,,,,,sub-033,1,stroop_test,,
,,,,116.0,8.0,9.0,,,,,,,,,,,,,rot,red,r,1.0,r,1.0,0.6413910409901291,,,,,,,,,,9.0,8.0,116.0,0.0,457.6131456670119,,,,,,,,,,,,,,,,,457.6026145420037,457.95049341704,458.7458492920268,458.73428520804737,,,,,,,,,,,,,,,,,,,,,,,,,,,,,,,,,,,458.7378529169946,458.7458492920268,458.7458492920268,459.3963260000455,r,1.0,0.6413910409901291,,,,,,sub-033,1,stroop_test,,
,,,,117.0,9.0,9.0,,,,,,,,,,,,,gelb,yellow,g,1.0,g,1.0,0.7236281250370666,,,,,,,,,,9.0,9.0,117.0,10.0,459.4073537500226,,,,,,,,,,,,,,,,,459.3970204170328,460.194471166993,460.99019166699145,460.9786444170168,,,,,,,,,,,,,,,,,,,,,,,,,,,,,,,,,,,460.98309091699775,460.99019166699145,460.99019166699145,461.7194216250209,g,1.0,0.7236281250370666,,,,,,sub-033,1,stroop_test,,
,,,,118.0,10.0,9.0,,,,,,,,,,,,,gelb,blue,b,0.0,b,1.0,0.6155672920285724,,,,,,,,,,9.0,10.0,118.0,9.0,461.730074333027,,,,,,,,,,,,,,,,,461.7200150830322,462.51776229200186,463.3094557500445,463.3009228330338,,,,,,,,,,,,,,,,,,,,,,,,,,,,,,,,,,,463.3015086670057,463.3094557500445,463.3094557500445,463.9296834170236,b,1.0,0.6155672920285724,,,,,,sub-033,1,stroop_test,,
,,,,119.0,11.0,9.0,,,,,,,,,,,,,rot,red,r,1.0,r,1.0,0.6804864169680513,,,,,,,,,,9.0,11.0,119.0,1.0,463.9406638750224,,,,,,,,,,,,,,,,,463.9303580830456,464.7276945000049,465.52262329199584,465.51149687502766,,,,,,,,,,,,,,,,,,,,,,,,,,,,,,,,,,,465.5153440830181,465.52262329199584,465.52262329199584,466.2130998750217,r,1.0,0.6804864169680513,,,,,,sub-033,1,stroop_test,,
,,,,,,,,,,,,,,,,,,,,,,,,,,,,,,,,,,,,,,,,,,,,,,,,,,,,,,,,,,,,,,,,,,,,,,,,,,,,,,,,,,,,,,,,,,,,,,,,,,,,,,466.2134581670398,466.2251685420051,471.2155049580033,471.2115950000007,sub-033,1,stroop_test,,
