wordCTK,colorCTK,corrAnsCTK,congruentCTK,thisN,thisTrialN,thisRepN,keyResp_CTK.keys,keyResp_CTK.corr,keyResp_CTK.rt,keyResp_CTK.duration,wordPractice,colorPractice,corrAnsPractice,congruentPractice,respPractice.keys,respPractice.corr,respPractice.rt,respPractice.duration,word,color,corrAns,congruent,keyResp_test_run.keys,keyResp_test_run.corr,keyResp_test_run.rt,keyResp_test_run.duration,trials_CTK.thisRepN,trials_CTK.thisTrialN,trials_CTK.thisN,trials_CTK.thisIndex,trials_practice.thisRepN,trials_practice.thisTrialN,trials_practice.thisN,trials_practice.thisIndex,trials_test.thisRepN,trials_test.thisTrialN,trials_test.thisN,trials_test.thisIndex,thisRow.t,notes,instruction.started,instr_text.started,instr_image.started,instr_resp.started,instruction.stopped,instr_resp.keys,instr_resp.rt,instr_resp.duration,instr_color_to_key.started,instr_ctk.started,resp_ctk.started,instr_color_to_key.stopped,resp_ctk.keys,resp_ctk.rt,resp_ctk.duration,ITI.started,fixcross.started,fixcross.stopped,ITI.stopped,color_to_key_run.started,stimulus_CTK.started,keyResp_CTK.started,color_to_key_run.stopped,trials_CTK.keyResp_CTK.keys,trials_CTK.keyResp_CTK.corr,trials_CTK.keyResp_CTK.rt,trials_CTK.keyResp_CTK.duration,instr_practice.started,instr_practice_text.started,instr_practice_resp.started,instr_practice.stopped,instr_practice_resp.keys,instr_practice_resp.rt,instr_practice_resp.duration,practice_run.started,stimulus_practice.started,respPractice.started,practice_run.stopped,trials_practice.respPractice.keys,trials_practice.respPractice.corr,trials_practice.respPractice.rt,trials_practice.respPractice.duration,feedback.started,textFeedback.started,textFeedback.stopped,feedback.stopped,instr_test.started,instr_test_text.started,instr_test_resp.started,instr_test.stopped,instr_test_resp.keys,instr_test_resp.rt,instr_test_resp.duration,test_run.started,stimulus_test_run.started,keyResp_test_run.started,test_run.stopped,trials_test.keyResp_test_run.keys,trials_test.keyResp_test_run.corr,trials_test.keyResp_test_run.rt,trials_test.keyResp_test_run.duration,goodbye.started,textGoodbye.started,textGoodbye.stopped,goodbye.stopped,participant,session,expName,frameRate,Unnamed: 113
,,,,,,,,,,,,,,,,,,,,,,,,,,,,,,,,,,,,,,,,,0.0042594000697135,0.090539600001648,0.090539600001648,0.090539600001648,33.0856498000212,space,32.924750899896026,,,,,,,,,,,,,,,,,,,,,,,,,,,,,,,,,,,,,,,,,,,,,,,,,,,,,,,,,,,sub-051,1,stroop_test,60.05558748352716,
,,,,,,,,,,,,,,,,,,,,,,,,,,,,,,,,,,,,,,,,,,,,,,,,,33.08569229999557,33.09818179998547,33.09818179998547,39.0323650999926,space,5.930470800027251,,,,,,,,,,,,,,,,,,,,,,,,,,,,,,,,,,,,,,,,,,,,,,,,,,,,sub-051,1,stroop_test,60.05558748352716,
test,red,r,1.0,0.0,0.0,0.0,r,1.0,1.8292358999606224,,,,,,,,,,,,,,,,,,0.0,0.0,0.0,0.0,,,,,,,,,39.06750350003131,,,,,,,,,,,,,,,,,39.06244189990685,39.137032999889925,39.937130499864,39.92152559990063,39.92556559992954,39.937130499864,39.937130499864,41.770842500030994,r,1.0,1.8292358999606224,,,,,,,,,,,,,,,,,,,,,,,,,,,,,,,,,,,,,,,,sub-051,1,stroop_test,60.05558748352716,
test,blue,b,1.0,1.0,1.0,0.0,b,1.0,1.367783699883148,,,,,,,,,,,,,,,,,,0.0,1.0,1.0,2.0,,,,,,,,,41.78689779993147,,,,,,,,,,,,,,,,,41.77109019993805,42.12087079999037,42.92062420002185,42.90406149998307,42.904373599914834,42.92062420002185,42.92062420002185,44.30493930005469,b,1.0,1.367783699883148,,,,,,,,,,,,,,,,,,,,,,,,,,,,,,,,,,,,,,,,sub-051,1,stroop_test,60.05558748352716,
test,yellow,g,1.0,2.0,2.0,0.0,g,1.0,1.1093419000972062,,,,,,,,,,,,,,,,,,0.0,2.0,2.0,1.0,,,,,,,,,44.32014089985751,,,,,,,,,,,,,,,,,44.30519139999524,44.670983999967575,45.4706369000487,45.45381209999323,45.45414160005748,45.4706369000487,45.4706369000487,46.58770659985021,g,1.0,1.1093419000972062,,,,,,,,,,,,,,,,,,,,,,,,,,,,,,,,,,,,,,,,sub-051,1,stroop_test,60.05558748352716,
test,yellow,g,1.0,3.0,0.0,1.0,g,1.0,0.5562564001884311,,,,,,,,,,,,,,,,,,1.0,0.0,3.0,1.0,,,,,,,,,46.60367919993587,,,,,,,,,,,,,,,,,46.5879486000631,47.387059999862686,48.18718499992974,48.17107559996657,48.17139200004749,48.18718499992974,48.18718499992974,48.75462080002762,g,1.0,0.5562564001884311,,,,,,,,,,,,,,,,,,,,,,,,,,,,,,,,,,,,,,,,sub-051,1,stroop_test,60.05558748352716,
test,red,r,1.0,4.0,1.0,1.0,r,1.0,0.7118128000292927,,,,,,,,,,,,,,,,,,1.0,1.0,4.0,0.0,,,,,,,,,48.77066509984434,,,,,,,,,,,,,,,,,48.75483760004863,48.870853499975055,49.67057029996067,49.65421579987742,49.65453219995834,49.67057029996067,49.67057029996067,50.38770490000024,r,1.0,0.7118128000292927,,,,,,,,,,,,,,,,,,,,,,,,,,,,,,,,,,,,,,,,sub-051,1,stroop_test,60.05558748352716,
test,blue,b,1.0,5.0,2.0,1.0,b,1.0,0.4657940999604761,,,,,,,,,,,,,,,,,,1.0,2.0,5.0,2.0,,,,,,,,,50.40417009987869,,,,,,,,,,,,,,,,,50.3879331999924,50.73743209987879,51.53729099989869,51.52108959993348,51.5214197000023,51.53729099989869,51.53729099989869,52.004783199867234,b,1.0,0.4657940999604761,,,,,,,,,,,,,,,,,,,,,,,,,,,,,,,,,,,,,,,,sub-051,1,stroop_test,60.05558748352716,
test,red,r,1.0,6.0,0.0,2.0,r,1.0,0.7474450001027435,,,,,,,,,,,,,,,,,,2.0,0.0,6.0,0.0,,,,,,,,,52.02031200006604,,,,,,,,,,,,,,,,,52.00502040004358,52.820811399957165,53.620154599891976,53.603763999883085,53.60425730003044,53.620154599891976,53.620154599891976,54.37146850000136,r,1.0,0.7474450001027435,,,,,,,,,,,,,,,,,,,,,,,,,,,,,,,,,,,,,,,,sub-051,1,stroop_test,60.05558748352716,
test,blue,b,1.0,7.0,1.0,2.0,b,1.0,0.4736121001187712,,,,,,,,,,,,,,,,,,2.0,1.0,7.0,2.0,,,,,,,,,54.3869467000477,,,,,,,,,,,,,,,,,54.371693399967626,54.73726910003461,55.53735879994929,55.52131340000778,55.52164900000207,55.53735879994929,55.53735879994929,56.02100479998626,b,1.0,0.4736121001187712,,,,,,,,,,,,,,,,,,,,,,,,,,,,,,,,,,,,,,,,sub-051,1,stroop_test,60.05558748352716,
test,yellow,g,1.0,8.0,2.0,2.0,g,1.0,0.4955583000555634,,,,,,,,,,,,,,,,,,2.0,2.0,8.0,1.0,,,,,,,,,56.03812939999625,,,,,,,,,,,,,,,,,56.02123719989322,56.8371186000295,57.63703490002081,57.62017649994232,57.620515199843794,57.63703490002081,57.63703490002081,58.137753000017256,g,1.0,0.4955583000555634,,,,,,,,,,,,,,,,,,,,,,,,,,,,,,,,,,,,,,,,sub-051,1,stroop_test,60.05558748352716,
test,yellow,g,1.0,9.0,0.0,3.0,g,1.0,0.5442090001888573,,,,,,,,,,,,,,,,,,3.0,0.0,9.0,1.0,,,,,,,,,58.15400630002841,,,,,,,,,,,,,,,,,58.13797719986178,58.23757639992982,59.03694080002606,59.020374099956825,59.02075979998335,59.03694080002606,59.03694080002606,59.58800849993713,g,1.0,0.5442090001888573,,,,,,,,,,,,,,,,,,,,,,,,,,,,,,,,,,,,,,,,sub-051,1,stroop_test,60.05558748352716,
test,blue,b,1.0,10.0,1.0,3.0,b,1.0,0.5219318000599742,,,,,,,,,,,,,,,,,,3.0,1.0,10.0,2.0,,,,,,,,,59.60378720005974,,,,,,,,,,,,,,,,,59.5882147999946,59.93664159998298,60.73695970000699,60.72069579991512,60.72105419985019,60.73695970000699,60.73695970000699,61.27074810001068,b,1.0,0.5219318000599742,,,,,,,,,,,,,,,,,,,,,,,,,,,,,,,,,,,,,,,,sub-051,1,stroop_test,60.05558748352716,
test,red,r,1.0,11.0,2.0,3.0,r,1.0,0.3350338998716324,,,,,,,,,,,,,,,,,,3.0,2.0,11.0,0.0,,,,,,,,,61.28712500003167,,,,,,,,,,,,,,,,,61.27097499999218,61.62017979985103,62.42035360005684,62.40400139987469,62.40433849999681,62.42035360005684,62.42035360005684,62.77142439992167,r,1.0,0.3350338998716324,,,,,,,,,,,,,,,,,,,,,,,,,,,,,,,,,,,,,,,,sub-051,1,stroop_test,60.05558748352716,
,,,,,,,,,,,,,,,,,,,,,,,,,,,,,,,,,,,,,,,,,,,,,,,,,,,,,,,,,,,,,,,,,,,,62.77152509987354,62.78708509984426,62.78708509984426,66.63777829986066,space,3.8457387001253664,,,,,,,,,,,,,,,,,,,,,,,,,,,,,,,,,sub-051,1,stroop_test,60.05558748352716,
,,,,0.0,0.0,0.0,,,,,rot,blue,b,0.0,r,0.0,1.3669606000185013,,,,,,,,,,,,,,0.0,0.0,0.0,2.0,,,,,66.6650233999826,,,,,,,,,,,,,,,,,66.66073810006492,67.43693899991922,68.23691369988956,68.22112090000883,,,,,,,,,,,,,,,,68.22428909991868,68.23691369988956,68.23691369988956,69.60489249997772,r,0.0,1.3669606000185013,,69.6097468000371,69.62045749998651,70.62043959996663,70.60408239997923,,,,,,,,,,,,,,,,,,,,sub-051,1,stroop_test,60.05558748352716,
,,,,1.0,1.0,0.0,,,,,gelb,blue,b,0.0,b,1.0,0.8430541998241097,,,,,,,,,,,,,,0.0,1.0,1.0,9.0,,,,,70.62043959996663,,,,,,,,,,,,,,,,,70.60429439996369,71.42018650006503,72.22025859984569,72.20401209988631,,,,,,,,,,,,,,,,72.20806930004619,72.22025859984569,72.22025859984569,73.07046439987607,b,1.0,0.8430541998241097,,73.0737141999416,73.0868283000309,74.08724959986284,74.0704834999051,,,,,,,,,,,,,,,,,,,,sub-051,1,stroop_test,60.05558748352716,
,,,,2.0,2.0,0.0,,,,,blau,blue,b,1.0,b,1.0,0.622062899870798,,,,,,,,,,,,,,0.0,2.0,2.0,5.0,,,,,74.08724959986284,,,,,,,,,,,,,,,,,74.07069889991544,74.17029000003822,74.97025160002522,74.95388379995711,,,,,,,,,,,,,,,,74.95663470006548,74.97025160002522,74.97025160002522,75.60415679984726,b,1.0,0.622062899870798,,75.60450899996795,75.62060320004821,,76.61981730000116,,,,,,,,,,,,,,,,,,,,sub-051,1,stroop_test,60.05558748352716,
,,,,3.0,3.0,0.0,,,,,rot,red,r,1.0,r,1.0,0.7680517002008855,,,,,,,,,,,,,,0.0,3.0,3.0,0.0,,,,,76.63684539985843,,,,,,,,,,,,,,,,,76.62003710004501,76.95367319998331,77.75362259987742,77.73709969990887,,,,,,,,,,,,,,,,77.73883859999478,77.75362259987742,77.75362259987742,78.53791740001179,r,1.0,0.7680517002008855,,78.53839030000381,78.55402199993841,79.55355469998904,79.53763210005127,,,,,,,,,,,,,,,,,,,,sub-051,1,stroop_test,60.05558748352716,
,,,,4.0,4.0,0.0,,,,,gelb,red,r,0.0,r,1.0,1.2387693000491709,,,,,,,,,,,,,,0.0,4.0,4.0,8.0,,,,,79.55355469998904,,,,,,,,,,,,,,,,,79.53783999988809,80.75315129989758,81.55369769991376,81.53731939988211,,,,,,,,,,,,,,,,81.53970109997317,81.55369769991376,81.55369769991376,82.80443640006706,r,1.0,1.2387693000491709,,82.80479049985297,82.82034570001997,83.82069609989412,83.80391689995304,,,,,,,,,,,,,,,,,,,,sub-051,1,stroop_test,60.05558748352716,
,,,,5.0,5.0,0.0,,,,,gelb,yellow,g,1.0,g,1.0,0.8910864000208676,,,,,,,,,,,,,,0.0,5.0,5.0,11.0,,,,,83.82069609989412,,,,,,,,,,,,,,,,,83.80413109995425,84.60380439995788,85.40383269987069,85.38702140003443,,,,,,,,,,,,,,,,85.38732689991593,85.40383269987069,85.40383269987069,86.30447670002468,g,1.0,0.8910864000208676,,86.30483340006322,86.3202913000714,87.31996120000258,87.30364729999565,,,,,,,,,,,,,,,,,,,,sub-051,1,stroop_test,60.05558748352716,
,,,,6.0,6.0,0.0,,,,,rot,yellow,g,0.0,g,1.0,0.5338414998259395,,,,,,,,,,,,,,0.0,6.0,6.0,3.0,,,,,87.31996120000258,,,,,,,,,,,,,,,,,87.30391649994999,87.66997940000147,88.470118700061,88.45356499985792,,,,,,,,,,,,,,,,88.45545569993556,88.470118700061,88.470118700061,89.02084619994275,g,1.0,0.5338414998259395,,89.02123539987952,89.03678149986081,90.03703880007379,90.02079920005053,,,,,,,,,,,,,,,,,,,,sub-051,1,stroop_test,60.05558748352716,
,,,,7.0,7.0,0.0,,,,,blau,red,r,0.0,r,1.0,1.0367185999639332,,,,,,,,,,,,,,0.0,7.0,7.0,4.0,,,,,90.03703880007379,,,,,,,,,,,,,,,,,90.02103279996663,90.12024659989402,90.92043019994162,90.904002700001,,,,,,,,,,,,,,,,90.9058570000343,90.92043019994162,90.92043019994162,91.9708771998994,r,1.0,1.0367185999639332,,91.9712642999366,91.98775850003584,,92.98712980002163,,,,,,,,,,,,,,,,,,,,sub-051,1,stroop_test,60.05558748352716,
,,,,8.0,8.0,0.0,,,,,gelb,yellow,g,1.0,g,1.0,0.6997297999914736,,,,,,,,,,,,,,0.0,8.0,8.0,10.0,,,,,93.00332559994422,,,,,,,,,,,,,,,,,92.98735750000924,94.18687009997666,94.98712279996836,94.97080609994008,,,,,,,,,,,,,,,,94.97288449993356,94.98712279996836,94.98712279996836,95.68778879987076,g,1.0,0.6997297999914736,,95.68811189988628,95.70312869991176,96.70400450006127,96.68749619997106,,,,,,,,,,,,,,,,,,,,sub-051,1,stroop_test,60.05558748352716,
,,,,9.0,9.0,0.0,,,,,rot,red,r,1.0,r,1.0,0.6177989998832345,,,,,,,,,,,,,,0.0,9.0,9.0,1.0,,,,,96.70400450006127,,,,,,,,,,,,,,,,,96.68775599985383,97.903772899881,98.70383120002224,98.68789319996722,,,,,,,,,,,,,,,,98.6899875998497,98.70383120002224,98.70383120002224,99.33769519999623,r,1.0,0.6177989998832345,,99.33802749984898,99.35433729994112,100.35363719984888,100.33770500007086,,,,,,,,,,,,,,,,,,,,sub-051,1,stroop_test,60.05558748352716,
,,,,10.0,10.0,0.0,,,,,blau,yellow,g,0.0,g,1.0,0.8243172999937087,,,,,,,,,,,,,,0.0,10.0,10.0,7.0,,,,,100.35363719984888,,,,,,,,,,,,,,,,,100.33793250005692,101.53705959999934,102.33719270001166,102.3205786999315,,,,,,,,,,,,,,,,102.32242839992978,102.33719270001166,102.33719270001166,103.17086629988626,g,1.0,0.8243172999937087,,103.17122179991566,103.18697179993616,104.18699710001238,104.17076279991306,,,,,,,,,,,,,,,,,,,,sub-051,1,stroop_test,60.05558748352716,
,,,,11.0,11.0,0.0,,,,,blau,blue,b,1.0,b,1.0,0.6287629001308233,,,,,,,,,,,,,,0.0,11.0,11.0,6.0,,,,,104.18699710001238,,,,,,,,,,,,,,,,,104.1710053998977,104.2704465999268,105.06996420002542,105.05397989996708,,,,,,,,,,,,,,,,105.05433049984276,105.06996420002542,105.06996420002542,105.70395049988292,b,1.0,0.6287629001308233,,105.70428519998676,105.72008390002884,106.72009409987368,106.70387710002252,,,,,,,,,,,,,,,,,,,,sub-051,1,stroop_test,60.05558748352716,
,,,,12.0,0.0,1.0,,,,,gelb,yellow,g,1.0,g,1.0,0.8812864001374692,,,,,,,,,,,,,,1.0,0.0,12.0,11.0,,,,,106.72009409987368,,,,,,,,,,,,,,,,,106.70408749999478,107.92022109986284,108.72020999994128,108.70410829992034,,,,,,,,,,,,,,,,108.70616149995476,108.72020999994128,108.72020999994128,109.6043587999884,g,1.0,0.8812864001374692,,109.6046976998914,109.62008260004222,110.62043439992703,110.6040221999865,,,,,,,,,,,,,,,,,,,,sub-051,1,stroop_test,60.05558748352716,
,,,,13.0,1.0,1.0,,,,,rot,red,r,1.0,r,1.0,0.519192999927327,,,,,,,,,,,,,,1.0,1.0,13.0,0.0,,,,,110.62043439992703,,,,,,,,,,,,,,,,,110.60425979993306,110.95361379999667,111.7536104999017,111.73742599994875,,,,,,,,,,,,,,,,111.73911729990505,111.7536104999017,111.7536104999017,112.2880073999986,r,1.0,0.519192999927327,,112.28836499992758,112.30326709989458,113.30308589991182,113.28716409998016,,,,,,,,,,,,,,,,,,,,sub-051,1,stroop_test,60.05558748352716,
,,,,14.0,2.0,1.0,,,,,rot,red,r,1.0,r,1.0,0.4818708000238985,,,,,,,,,,,,,,1.0,2.0,14.0,1.0,,,,,113.30308589991182,,,,,,,,,,,,,,,,,113.28738959995098,113.40345939993858,114.20374120003544,114.18742099986412,,,,,,,,,,,,,,,,114.18775699986143,114.20374120003544,114.20374120003544,114.68785999994724,r,1.0,0.4818708000238985,,114.68821579986252,114.70365719986148,115.7037029999774,115.68736229999922,,,,,,,,,,,,,,,,,,,,sub-051,1,stroop_test,60.05558748352716,
,,,,15.0,3.0,1.0,,,,,gelb,red,r,0.0,r,1.0,0.5284126999322325,,,,,,,,,,,,,,1.0,3.0,15.0,8.0,,,,,115.7037029999774,,,,,,,,,,,,,,,,,115.68757209996691,116.0366060999222,116.83676590002142,116.82066709990612,,,,,,,,,,,,,,,,116.82302919984797,116.83676590002142,116.83676590002142,117.37071150005796,r,1.0,0.5284126999322325,,117.37106149992906,117.38711820007302,118.38724919990636,118.37046110001393,,,,,,,,,,,,,,,,,,,,sub-051,1,stroop_test,60.05558748352716,
,,,,16.0,4.0,1.0,,,,,rot,blue,b,0.0,b,1.0,0.5242292999755591,,,,,,,,,,,,,,1.0,4.0,16.0,2.0,,,,,118.38724919990636,,,,,,,,,,,,,,,,,118.37066289992072,119.17025349987672,119.9706047999207,119.9538060000632,,,,,,,,,,,,,,,,119.9555436000228,119.9706047999207,119.9706047999207,120.50401779985988,b,1.0,0.5242292999755591,,120.50436670007184,120.52039119997062,121.52039409987628,121.50388069986366,,,,,,,,,,,,,,,,,,,,sub-051,1,stroop_test,60.05558748352716,
,,,,17.0,5.0,1.0,,,,,blau,yellow,g,0.0,g,1.0,0.7281492000911385,,,,,,,,,,,,,,1.0,5.0,17.0,7.0,,,,,121.52039409987628,,,,,,,,,,,,,,,,,121.50410839985123,121.6198833999224,122.4201100000646,122.40379459992982,,,,,,,,,,,,,,,,122.40560589986852,122.4201100000646,122.4201100000646,123.15402629994789,g,1.0,0.7281492000911385,,123.1543753000442,123.1705171999056,124.17029200005344,124.15406329999678,,,,,,,,,,,,,,,,,,,,sub-051,1,stroop_test,60.05558748352716,
,,,,18.0,6.0,1.0,,,,,rot,yellow,g,0.0,g,1.0,0.856401699827984,,,,,,,,,,,,,,1.0,6.0,18.0,3.0,,,,,124.17029200005344,,,,,,,,,,,,,,,,,124.1542948000133,125.36964039993472,126.17033009999432,126.15380829991771,,,,,,,,,,,,,,,,126.15548760001548,126.17033009999432,126.17033009999432,127.03769070003182,g,1.0,0.856401699827984,,127.03807609993964,127.05315100005828,128.0535063999705,128.03764269989915,,,,,,,,,,,,,,,,,,,,sub-051,1,stroop_test,60.05558748352716,
,,,,19.0,7.0,1.0,,,,,gelb,blue,b,0.0,b,1.0,0.5070254001766443,,,,,,,,,,,,,,1.0,7.0,19.0,9.0,,,,,128.0535063999705,,,,,,,,,,,,,,,,,128.0378614999354,128.1531396000646,128.95375610003248,128.9374110000208,,,,,,,,,,,,,,,,128.93945740000345,128.95375610003248,128.95375610003248,129.47119189985096,b,1.0,0.5070254001766443,,129.47159580001608,129.48718639998697,130.4870333999861,130.47018209984526,,,,,,,,,,,,,,,,,,,,sub-051,1,stroop_test,60.05558748352716,
,,,,20.0,8.0,1.0,,,,,gelb,yellow,g,1.0,g,1.0,0.5370871000923216,,,,,,,,,,,,,,1.0,8.0,20.0,10.0,,,,,130.4870333999861,,,,,,,,,,,,,,,,,130.47043059999123,130.56961130001582,131.370073299855,131.3534824999515,,,,,,,,,,,,,,,,131.35381169989705,131.370073299855,131.370073299855,131.92094439989887,g,1.0,0.5370871000923216,,131.92139979987405,131.93627399997786,132.93666799995117,132.9204496999737,,,,,,,,,,,,,,,,,,,,sub-051,1,stroop_test,60.05558748352716,
,,,,21.0,9.0,1.0,,,,,blau,blue,b,1.0,b,1.0,0.696448199916631,,,,,,,,,,,,,,1.0,9.0,21.0,6.0,,,,,132.93666799995117,,,,,,,,,,,,,,,,,132.92066120007075,133.71998599986546,134.520145899849,134.5040052998811,,,,,,,,,,,,,,,,134.506071300013,134.520145899849,134.520145899849,135.22035630000755,b,1.0,0.696448199916631,,135.22077100002207,135.23702710005455,136.23735219985247,136.22068849997595,,,,,,,,,,,,,,,,,,,,sub-051,1,stroop_test,60.05558748352716,
,,,,22.0,10.0,1.0,,,,,blau,red,r,0.0,r,1.0,0.8081491000484675,,,,,,,,,,,,,,1.0,10.0,22.0,4.0,,,,,136.23735219985247,,,,,,,,,,,,,,,,,136.2209043998737,136.56986270006746,137.3702996999491,137.3538539998699,,,,,,,,,,,,,,,,137.35417079995386,137.3702996999491,137.3702996999491,138.18764939997345,r,1.0,0.8081491000484675,,138.18799469992518,138.2035167000722,139.20333859999664,139.1872083998751,,,,,,,,,,,,,,,,,,,,sub-051,1,stroop_test,60.05558748352716,
,,,,23.0,11.0,1.0,,,,,blau,blue,b,1.0,b,1.0,0.4677363999653607,,,,,,,,,,,,,,1.0,11.0,23.0,5.0,,,,,139.20333859999664,,,,,,,,,,,,,,,,,139.18743059993722,139.5534844000358,140.35311140003614,140.33730080001988,,,,,,,,,,,,,,,,140.33760259998962,140.35311140003614,140.35311140003614,140.83752489998005,b,1.0,0.4677363999653607,,140.83785969996825,140.85351320006885,141.85332480003126,141.8374260000419,,,,,,,,,,,,,,,,,,,,sub-051,1,stroop_test,60.05558748352716,
,,,,,,,,,,,,,,,,,,,,,,,,,,,,,,,,,,,,,,,,,,,,,,,,,,,,,,,,,,,,,,,,,,,,,,,,,,,,,,,,,,,,,,,141.83752209995873,141.85332480003126,141.85332480003126,192.83740139985457,space,50.969126199837774,,,,,,,,,,,,,,sub-051,1,stroop_test,60.05558748352716,
,,,,0.0,0.0,0.0,,,,,,,,,,,,,blau,red,r,0.0,r,1.0,0.8526991999242455,,,,,,,,,,0.0,0.0,0.0,4.0,192.86418709997088,,,,,,,,,,,,,,,,,192.8598785998765,193.6364933999721,194.4360108000692,194.42006729985587,,,,,,,,,,,,,,,,,,,,,,,,,,,,,,,,,,,194.42178319999948,194.4360108000692,194.4360108000692,195.30384980002415,r,1.0,0.8526991999242455,,,,,,sub-051,1,stroop_test,60.05558748352716,
,,,,1.0,1.0,0.0,,,,,,,,,,,,,gelb,red,r,0.0,r,1.0,0.6329723000526428,,,,,,,,,,0.0,1.0,1.0,8.0,195.31972959986888,,,,,,,,,,,,,,,,,195.3041081998963,196.50308679998847,197.3030727000441,197.28689179988575,,,,,,,,,,,,,,,,,,,,,,,,,,,,,,,,,,,197.28904829989187,197.3030727000441,197.3030727000441,197.93747989996336,r,1.0,0.6329723000526428,,,,,,sub-051,1,stroop_test,60.05558748352716,
,,,,2.0,2.0,0.0,,,,,,,,,,,,,blau,yellow,g,0.0,g,1.0,0.5207620000001043,,,,,,,,,,0.0,2.0,2.0,7.0,197.9526869000401,,,,,,,,,,,,,,,,,197.93772709998305,198.75342769990675,199.55287549993955,199.53710950003008,,,,,,,,,,,,,,,,,,,,,,,,,,,,,,,,,,,199.538791900035,199.55287549993955,199.55287549993955,200.08721180004068,g,1.0,0.5207620000001043,,,,,,sub-051,1,stroop_test,60.05558748352716,
,,,,3.0,3.0,0.0,,,,,,,,,,,,,rot,red,r,1.0,r,1.0,0.5838884999975562,,,,,,,,,,0.0,3.0,3.0,0.0,200.10296539985572,,,,,,,,,,,,,,,,,200.0874494998716,200.43653579987583,201.236424600007,201.22017019987103,,,,,,,,,,,,,,,,,,,,,,,,,,,,,,,,,,,201.22188570001163,201.236424600007,201.236424600007,201.83727269992232,r,1.0,0.5838884999975562,,,,,,sub-051,1,stroop_test,60.05558748352716,
,,,,4.0,4.0,0.0,,,,,,,,,,,,,rot,blue,b,0.0,b,1.0,0.5530819001141936,,,,,,,,,,0.0,4.0,4.0,2.0,201.8532100999728,,,,,,,,,,,,,,,,,201.8375337999314,202.1860758999828,202.9863940998912,202.96995759988204,,,,,,,,,,,,,,,,,,,,,,,,,,,,,,,,,,,202.97028720006347,202.9863940998912,202.9863940998912,203.55347419995812,b,1.0,0.5530819001141936,,,,,,sub-051,1,stroop_test,60.05558748352716,
,,,,5.0,5.0,0.0,,,,,,,,,,,,,rot,yellow,g,0.0,g,1.0,0.5080135001335293,,,,,,,,,,0.0,5.0,5.0,3.0,203.56951339985244,,,,,,,,,,,,,,,,,203.55374150001444,204.35317879985087,205.1534013999626,205.136758599896,,,,,,,,,,,,,,,,,,,,,,,,,,,,,,,,,,,205.1371994998772,205.1534013999626,205.1534013999626,205.67058839998208,g,1.0,0.5080135001335293,,,,,,sub-051,1,stroop_test,60.05558748352716,
,,,,6.0,6.0,0.0,,,,,,,,,,,,,rot,red,r,1.0,r,1.0,0.5617059001233429,,,,,,,,,,0.0,6.0,6.0,1.0,205.68606500001624,,,,,,,,,,,,,,,,,205.67082970007323,206.87011329992677,207.66987750004049,207.65341309993528,,,,,,,,,,,,,,,,,,,,,,,,,,,,,,,,,,,207.6537372998428,207.66987750004049,207.66987750004049,208.2369411999825,r,1.0,0.5617059001233429,,,,,,sub-051,1,stroop_test,60.05558748352716,
,,,,7.0,7.0,0.0,,,,,,,,,,,,,blau,blue,b,1.0,b,1.0,0.570508100092411,,,,,,,,,,0.0,7.0,7.0,6.0,208.2529610998463,,,,,,,,,,,,,,,,,208.23719189991243,209.03639440005645,209.8362147998996,209.8202787998598,,,,,,,,,,,,,,,,,,,,,,,,,,,,,,,,,,,209.821985000046,209.8362147998996,209.8362147998996,210.42071669991128,b,1.0,0.570508100092411,,,,,,sub-051,1,stroop_test,60.05558748352716,
,,,,8.0,8.0,0.0,,,,,,,,,,,,,gelb,blue,b,0.0,b,1.0,0.5830616999883205,,,,,,,,,,0.0,8.0,8.0,9.0,210.43633809988387,,,,,,,,,,,,,,,,,210.42095629987307,211.63672659988515,212.43615660001524,212.4198761999141,,,,,,,,,,,,,,,,,,,,,,,,,,,,,,,,,,,212.4218522999436,212.43615660001524,212.43615660001524,213.02051609987396,b,1.0,0.5830616999883205,,,,,,sub-051,1,stroop_test,60.05558748352716,
,,,,9.0,9.0,0.0,,,,,,,,,,,,,blau,blue,b,1.0,b,1.0,0.4314149999991059,,,,,,,,,,0.0,9.0,9.0,5.0,213.0363878000062,,,,,,,,,,,,,,,,,213.0207678999286,213.82010430004448,214.6196163999848,214.60338900005445,,,,,,,,,,,,,,,,,,,,,,,,,,,,,,,,,,,214.606322000036,214.6196163999848,214.6196163999848,215.0539824999869,b,1.0,0.4314149999991059,,,,,,sub-051,1,stroop_test,60.05558748352716,
,,,,10.0,10.0,0.0,,,,,,,,,,,,,gelb,yellow,g,1.0,b,0.0,0.4015357999596745,,,,,,,,,,0.0,10.0,10.0,11.0,215.06936650001444,,,,,,,,,,,,,,,,,215.05422579986043,216.2697324999608,217.0691543000285,217.05302720004693,,,,,,,,,,,,,,,,,,,,,,,,,,,,,,,,,,,217.05518799996932,217.0691543000285,217.0691543000285,217.48680999991484,b,0.0,0.4015357999596745,,,,,,sub-051,1,stroop_test,60.05558748352716,
,,,,11.0,11.0,0.0,,,,,,,,,,,,,gelb,yellow,g,1.0,g,1.0,0.6497935999650508,,,,,,,,,,0.0,11.0,11.0,10.0,217.5027441000566,,,,,,,,,,,,,,,,,217.48704659985376,217.60279350006024,218.40235939994452,218.3864255999215,,,,,,,,,,,,,,,,,,,,,,,,,,,,,,,,,,,218.38672939990647,218.40235939994452,218.40235939994452,219.0541699000169,g,1.0,0.6497935999650508,,,,,,sub-051,1,stroop_test,60.05558748352716,
,,,,12.0,0.0,1.0,,,,,,,,,,,,,rot,yellow,g,0.0,g,1.0,0.468855399871245,,,,,,,,,,1.0,0.0,12.0,3.0,219.0699084000662,,,,,,,,,,,,,,,,,219.0544076999649,219.86980209988545,220.6702129999176,220.6534305999521,,,,,,,,,,,,,,,,,,,,,,,,,,,,,,,,,,,220.65495719993487,220.6702129999176,220.6702129999176,221.15390709997155,g,1.0,0.468855399871245,,,,,,sub-051,1,stroop_test,60.05558748352716,
,,,,13.0,1.0,1.0,,,,,,,,,,,,,blau,red,r,0.0,r,1.0,0.7144096998963505,,,,,,,,,,1.0,1.0,13.0,4.0,221.1700087999925,,,,,,,,,,,,,,,,,221.15415890002623,221.5194605998695,222.31972200004384,222.3035597000271,,,,,,,,,,,,,,,,,,,,,,,,,,,,,,,,,,,222.3053329999093,222.31972200004384,222.31972200004384,223.03676149994132,r,1.0,0.7144096998963505,,,,,,sub-051,1,stroop_test,60.05558748352716,
,,,,14.0,2.0,1.0,,,,,,,,,,,,,gelb,yellow,g,1.0,g,1.0,0.5932047001551837,,,,,,,,,,1.0,2.0,14.0,10.0,223.05242559988983,,,,,,,,,,,,,,,,,223.0370036000386,224.2530125998892,225.05293680005707,225.0366080000531,,,,,,,,,,,,,,,,,,,,,,,,,,,,,,,,,,,225.0386431000661,225.05293680005707,225.05293680005707,225.6537341000512,g,1.0,0.5932047001551837,,,,,,sub-051,1,stroop_test,60.05558748352716,
,,,,15.0,3.0,1.0,,,,,,,,,,,,,blau,yellow,g,0.0,g,1.0,0.4143199000973254,,,,,,,,,,1.0,3.0,15.0,7.0,225.6695485999808,,,,,,,,,,,,,,,,,225.65397299989127,226.00301559991203,226.86169539997357,226.7868945999071,,,,,,,,,,,,,,,,,,,,,,,,,,,,,,,,,,,226.85596219985743,226.86169539997357,226.86169539997357,227.2869030998554,g,1.0,0.4143199000973254,,,,,,sub-051,1,stroop_test,60.05558748352716,
,,,,16.0,4.0,1.0,,,,,,,,,,,,,blau,blue,b,1.0,b,1.0,0.5175272000487894,,,,,,,,,,1.0,4.0,16.0,6.0,227.30316850007512,,,,,,,,,,,,,,,,,227.28721520002,227.63673079991716,228.4363196999766,228.420077299932,,,,,,,,,,,,,,,,,,,,,,,,,,,,,,,,,,,228.42041180003437,228.4363196999766,228.4363196999766,228.97022449993528,b,1.0,0.5175272000487894,,,,,,sub-051,1,stroop_test,60.05558748352716,
,,,,17.0,5.0,1.0,,,,,,,,,,,,,gelb,yellow,g,1.0,g,1.0,0.6375992000102997,,,,,,,,,,1.0,5.0,17.0,11.0,228.98668059986085,,,,,,,,,,,,,,,,,228.97046129987572,229.76957900007253,230.5700395999011,230.5534911998548,,,,,,,,,,,,,,,,,,,,,,,,,,,,,,,,,,,230.5555533999577,230.5700395999011,230.5700395999011,231.2196619999595,g,1.0,0.6375992000102997,,,,,,sub-051,1,stroop_test,60.05558748352716,
,,,,18.0,6.0,1.0,,,,,,,,,,,,,rot,blue,b,0.0,r,0.0,0.6674486000556499,,,,,,,,,,1.0,6.0,18.0,2.0,231.2363746999763,,,,,,,,,,,,,,,,,231.2199452999048,232.4197110999376,233.21975839999504,233.2036061000545,,,,,,,,,,,,,,,,,,,,,,,,,,,,,,,,,,,233.2053382999729,233.21975839999504,233.21975839999504,233.90382159990256,r,0.0,0.6674486000556499,,,,,,sub-051,1,stroop_test,60.05558748352716,
,,,,19.0,7.0,1.0,,,,,,,,,,,,,rot,red,r,1.0,r,1.0,0.5198349000420421,,,,,,,,,,1.0,7.0,19.0,1.0,233.91989589994773,,,,,,,,,,,,,,,,,233.90407379996032,234.7025669000577,235.5030906999018,235.48660170007497,,,,,,,,,,,,,,,,,,,,,,,,,,,,,,,,,,,235.4869083999656,235.5030906999018,235.5030906999018,236.0371465999633,r,1.0,0.5198349000420421,,,,,,sub-051,1,stroop_test,60.05558748352716,
,,,,20.0,8.0,1.0,,,,,,,,,,,,,gelb,blue,b,0.0,b,1.0,0.8131726998835802,,,,,,,,,,1.0,8.0,20.0,9.0,236.0530167999677,,,,,,,,,,,,,,,,,236.0374259999953,237.23631509998813,238.036183899967,238.01970990002155,,,,,,,,,,,,,,,,,,,,,,,,,,,,,,,,,,,238.0218894998543,238.036183899967,238.036183899967,238.8533042999916,b,1.0,0.8131726998835802,,,,,,sub-051,1,stroop_test,60.05558748352716,
,,,,21.0,9.0,1.0,,,,,,,,,,,,,rot,red,r,1.0,r,1.0,0.5727219998370856,,,,,,,,,,1.0,9.0,21.0,0.0,238.86943689989857,,,,,,,,,,,,,,,,,238.8535581000615,239.6530017000623,240.4530126999598,240.4366246999707,,,,,,,,,,,,,,,,,,,,,,,,,,,,,,,,,,,240.43837579991668,240.4530126999598,240.4530126999598,241.0368701999541,r,1.0,0.5727219998370856,,,,,,sub-051,1,stroop_test,60.05558748352716,
,,,,22.0,10.0,1.0,,,,,,,,,,,,,gelb,red,r,0.0,r,1.0,0.821926899952814,,,,,,,,,,1.0,10.0,22.0,8.0,241.0533376999665,,,,,,,,,,,,,,,,,241.03709060000256,242.2361262999475,243.03641579998657,243.01982959988527,,,,,,,,,,,,,,,,,,,,,,,,,,,,,,,,,,,243.02192900003865,243.03641579998657,243.03641579998657,243.87017169990577,r,1.0,0.821926899952814,,,,,,sub-051,1,stroop_test,60.05558748352716,
,,,,23.0,11.0,1.0,,,,,,,,,,,,,blau,blue,b,1.0,b,1.0,0.5158673000987619,,,,,,,,,,1.0,11.0,23.0,5.0,243.88615869986825,,,,,,,,,,,,,,,,,243.87043949984945,244.21952349995263,245.0197769999504,245.0030791000463,,,,,,,,,,,,,,,,,,,,,,,,,,,,,,,,,,,245.0048994999379,245.0197769999504,245.0197769999504,245.5372913000174,b,1.0,0.5158673000987619,,,,,,sub-051,1,stroop_test,60.05558748352716,
,,,,24.0,0.0,2.0,,,,,,,,,,,,,rot,red,r,1.0,r,1.0,0.4908497000578791,,,,,,,,,,2.0,0.0,24.0,0.0,245.553062699968,,,,,,,,,,,,,,,,,245.53756139986217,246.7527186998632,247.55271509988236,247.5363532998599,,,,,,,,,,,,,,,,,,,,,,,,,,,,,,,,,,,247.5380466999486,247.55271509988236,247.55271509988236,248.0537153999321,r,1.0,0.4908497000578791,,,,,,sub-051,1,stroop_test,60.05558748352716,
,,,,25.0,1.0,2.0,,,,,,,,,,,,,gelb,red,r,0.0,r,1.0,0.8469452999997884,,,,,,,,,,2.0,1.0,25.0,8.0,248.0696655998472,,,,,,,,,,,,,,,,,248.05397889995947,249.26925670006312,250.0697271998506,250.0533221999649,,,,,,,,,,,,,,,,,,,,,,,,,,,,,,,,,,,250.0557407999877,250.0697271998506,250.0697271998506,250.92025209986605,r,1.0,0.8469452999997884,,,,,,sub-051,1,stroop_test,60.05558748352716,
,,,,26.0,2.0,2.0,,,,,,,,,,,,,blau,red,r,0.0,r,1.0,0.7205364999826998,,,,,,,,,,2.0,2.0,26.0,4.0,250.93637440004383,,,,,,,,,,,,,,,,,250.9205129998736,251.71952599985525,252.5196314000059,252.5030799000524,,,,,,,,,,,,,,,,,,,,,,,,,,,,,,,,,,,252.50494039990008,252.5196314000059,252.5196314000059,253.2534896999132,r,1.0,0.7205364999826998,,,,,,sub-051,1,stroop_test,60.05558748352716,
,,,,27.0,3.0,2.0,,,,,,,,,,,,,blau,blue,b,1.0,b,1.0,0.5021410000044852,,,,,,,,,,2.0,3.0,27.0,6.0,253.2690628999844,,,,,,,,,,,,,,,,,253.25374259985983,254.05272140004672,254.8529852000065,254.8369481998961,,,,,,,,,,,,,,,,,,,,,,,,,,,,,,,,,,,254.83725399989635,254.8529852000065,254.8529852000065,255.370438199956,b,1.0,0.5021410000044852,,,,,,sub-051,1,stroop_test,60.05558748352716,
,,,,28.0,4.0,2.0,,,,,,,,,,,,,gelb,yellow,g,1.0,g,1.0,0.5373100999277085,,,,,,,,,,2.0,4.0,28.0,11.0,255.38631029985845,,,,,,,,,,,,,,,,,255.37072060001083,256.1861413998995,256.98610179987736,256.96974109997973,,,,,,,,,,,,,,,,,,,,,,,,,,,,,,,,,,,256.9716727999039,256.98610179987736,256.98610179987736,257.5369144999422,g,1.0,0.5373100999277085,,,,,,sub-051,1,stroop_test,60.05558748352716,
,,,,29.0,5.0,2.0,,,,,,,,,,,,,gelb,blue,b,0.0,b,1.0,1.1342402000445873,,,,,,,,,,2.0,5.0,29.0,9.0,257.5536597999744,,,,,,,,,,,,,,,,,257.53715580003336,257.90228849998675,258.70269379997626,258.6866425999906,,,,,,,,,,,,,,,,,,,,,,,,,,,,,,,,,,,258.6869727000594,258.70269379997626,258.70269379997626,259.85354829998687,b,1.0,1.1342402000445873,,,,,,sub-051,1,stroop_test,60.05558748352716,
,,,,30.0,6.0,2.0,,,,,,,,,,,,,gelb,yellow,g,1.0,g,1.0,0.5977767999283969,,,,,,,,,,2.0,6.0,30.0,10.0,259.86904809996486,,,,,,,,,,,,,,,,,259.85383159993216,260.6691020000726,261.4694171999581,261.4534582998604,,,,,,,,,,,,,,,,,,,,,,,,,,,,,,,,,,,261.453789900057,261.4694171999581,261.4694171999581,262.07025339989923,g,1.0,0.5977767999283969,,,,,,sub-051,1,stroop_test,60.05558748352716,
,,,,31.0,7.0,2.0,,,,,,,,,,,,,rot,yellow,g,0.0,g,1.0,0.6655037000309676,,,,,,,,,,2.0,7.0,31.0,3.0,262.0861853999086,,,,,,,,,,,,,,,,,262.07049269997515,262.1696679000743,262.9694920999464,262.9532892999705,,,,,,,,,,,,,,,,,,,,,,,,,,,,,,,,,,,262.9552348998841,262.9694920999464,262.9694920999464,263.6373610999435,g,1.0,0.6655037000309676,,,,,,sub-051,1,stroop_test,60.05558748352716,
,,,,32.0,8.0,2.0,,,,,,,,,,,,,rot,red,r,1.0,r,1.0,0.5757639000657946,,,,,,,,,,2.0,8.0,32.0,1.0,263.6524877999909,,,,,,,,,,,,,,,,,263.63760709995404,264.452976499917,265.25240970007144,265.2365415999666,,,,,,,,,,,,,,,,,,,,,,,,,,,,,,,,,,,265.2368989000097,265.25240970007144,265.25240970007144,265.8364587998949,r,1.0,0.5757639000657946,,,,,,sub-051,1,stroop_test,60.05558748352716,
,,,,33.0,9.0,2.0,,,,,,,,,,,,,blau,yellow,g,0.0,g,1.0,0.5917194001376629,,,,,,,,,,2.0,9.0,33.0,7.0,265.85254290001467,,,,,,,,,,,,,,,,,265.8366952999495,266.63651610002853,267.43624319997616,267.420200600056,,,,,,,,,,,,,,,,,,,,,,,,,,,,,,,,,,,267.4223954998888,267.43624319997616,267.43624319997616,268.0366733998526,g,1.0,0.5917194001376629,,,,,,sub-051,1,stroop_test,60.05558748352716,
,,,,34.0,10.0,2.0,,,,,,,,,,,,,blau,blue,b,1.0,b,1.0,0.4977626998443156,,,,,,,,,,2.0,10.0,34.0,5.0,268.0530087999068,,,,,,,,,,,,,,,,,268.036915200064,268.8362183000427,269.6361018999014,269.6195563999936,,,,,,,,,,,,,,,,,,,,,,,,,,,,,,,,,,,269.6198672000319,269.6361018999014,269.6361018999014,270.13666890002787,b,1.0,0.4977626998443156,,,,,,sub-051,1,stroop_test,60.05558748352716,
,,,,35.0,11.0,2.0,,,,,,,,,,,,,rot,blue,b,0.0,b,1.0,0.5347808999940753,,,,,,,,,,2.0,11.0,35.0,2.0,270.1529679999221,,,,,,,,,,,,,,,,,270.1369080999866,270.2530231999699,271.0528537000064,271.0366080000531,,,,,,,,,,,,,,,,,,,,,,,,,,,,,,,,,,,271.0383371000644,271.0528537000064,271.0528537000064,271.6036679998506,b,1.0,0.5347808999940753,,,,,,sub-051,1,stroop_test,60.05558748352716,
,,,,36.0,0.0,3.0,,,,,,,,,,,,,blau,red,r,0.0,r,1.0,0.5583558001089841,,,,,,,,,,3.0,0.0,36.0,4.0,271.620099700056,,,,,,,,,,,,,,,,,271.6039038999006,271.9694884000346,272.76958870003,272.7539394998457,,,,,,,,,,,,,,,,,,,,,,,,,,,,,,,,,,,272.7558458000421,272.76958870003,272.76958870003,273.3366139999125,r,1.0,0.5583558001089841,,,,,,sub-051,1,stroop_test,60.05558748352716,
,,,,37.0,1.0,3.0,,,,,,,,,,,,,rot,blue,b,0.0,b,1.0,0.967826999956742,,,,,,,,,,3.0,1.0,37.0,2.0,273.35236019990407,,,,,,,,,,,,,,,,,273.33688659989275,273.4360197999049,274.23622790002264,274.21998789999634,,,,,,,,,,,,,,,,,,,,,,,,,,,,,,,,,,,274.22165479999967,274.23622790002264,274.23622790002264,275.21983799990267,b,1.0,0.967826999956742,,,,,,sub-051,1,stroop_test,60.05558748352716,
,,,,38.0,2.0,3.0,,,,,,,,,,,,,gelb,red,r,0.0,r,1.0,0.5163920999038965,,,,,,,,,,3.0,2.0,38.0,8.0,275.2359525000211,,,,,,,,,,,,,,,,,275.2200716000516,276.0197099999059,276.8193196998909,276.8033201000653,,,,,,,,,,,,,,,,,,,,,,,,,,,,,,,,,,,276.80531349987723,276.8193196998909,276.8193196998909,277.3369382000528,r,1.0,0.5163920999038965,,,,,,sub-051,1,stroop_test,60.05558748352716,
,,,,39.0,3.0,3.0,,,,,,,,,,,,,blau,blue,b,1.0,b,1.0,0.6891105000395328,,,,,,,,,,3.0,3.0,39.0,5.0,277.35277989995666,,,,,,,,,,,,,,,,,277.3371757999994,278.5360793999862,279.33603150001727,279.3196202998515,,,,,,,,,,,,,,,,,,,,,,,,,,,,,,,,,,,279.3217356000096,279.33603150001727,279.33603150001727,280.0369015999604,b,1.0,0.6891105000395328,,,,,,sub-051,1,stroop_test,60.05558748352716,
,,,,40.0,4.0,3.0,,,,,,,,,,,,,rot,red,r,1.0,r,1.0,0.6239158001262695,,,,,,,,,,3.0,4.0,40.0,0.0,280.0524186999537,,,,,,,,,,,,,,,,,280.03713509999216,280.83607920003124,281.63608109997585,281.61946099996567,,,,,,,,,,,,,,,,,,,,,,,,,,,,,,,,,,,281.62129290006123,281.63608109997585,281.63608109997585,282.2707062000409,r,1.0,0.6239158001262695,,,,,,sub-051,1,stroop_test,60.05558748352716,
,,,,41.0,5.0,3.0,,,,,,,,,,,,,gelb,yellow,g,1.0,g,1.0,0.382848700042814,,,,,,,,,,3.0,5.0,41.0,11.0,282.2859853999689,,,,,,,,,,,,,,,,,282.2709492000285,282.3691869999748,283.1692065999377,283.1528278000187,,,,,,,,,,,,,,,,,,,,,,,,,,,,,,,,,,,283.15493299998343,283.1692065999377,283.1692065999377,283.5533875999972,g,1.0,0.382848700042814,,,,,,sub-051,1,stroop_test,60.05558748352716,
,,,,42.0,6.0,3.0,,,,,,,,,,,,,rot,yellow,g,0.0,g,1.0,0.6179527998901904,,,,,,,,,,3.0,6.0,42.0,3.0,283.56930490001105,,,,,,,,,,,,,,,,,283.55364459985867,284.352966299979,285.15256039984524,285.13637560000643,,,,,,,,,,,,,,,,,,,,,,,,,,,,,,,,,,,285.13813229999505,285.15256039984524,285.15256039984524,285.7866503999103,g,1.0,0.6179527998901904,,,,,,sub-051,1,stroop_test,60.05558748352716,
,,,,43.0,7.0,3.0,,,,,,,,,,,,,gelb,yellow,g,1.0,g,1.0,0.4001003999728709,,,,,,,,,,3.0,7.0,43.0,10.0,285.8028265000321,,,,,,,,,,,,,,,,,285.78688799985684,286.98573599988595,287.7860695000272,287.7698687999509,,,,,,,,,,,,,,,,,,,,,,,,,,,,,,,,,,,287.7718602998648,287.7860695000272,287.7860695000272,288.1871805000119,g,1.0,0.4001003999728709,,,,,,sub-051,1,stroop_test,60.05558748352716,
,,,,44.0,8.0,3.0,,,,,,,,,,,,,blau,blue,b,1.0,b,1.0,0.5229126999620348,,,,,,,,,,3.0,8.0,44.0,6.0,288.20269070006907,,,,,,,,,,,,,,,,,288.1874662998598,288.5524536999874,289.35253929998726,289.3363667000085,,,,,,,,,,,,,,,,,,,,,,,,,,,,,,,,,,,289.3384956000373,289.35253929998726,289.35253929998726,289.8863735999912,b,1.0,0.5229126999620348,,,,,,sub-051,1,stroop_test,60.05558748352716,
,,,,45.0,9.0,3.0,,,,,,,,,,,,,rot,red,r,1.0,r,1.0,0.5496129998937249,,,,,,,,,,3.0,9.0,45.0,1.0,289.9022494999226,,,,,,,,,,,,,,,,,289.8866607998498,289.98604290001094,290.7858938998543,290.76954689994454,,,,,,,,,,,,,,,,,,,,,,,,,,,,,,,,,,,290.7713194999378,290.7858938998543,290.7858938998543,291.33700509998016,r,1.0,0.5496129998937249,,,,,,sub-051,1,stroop_test,60.05558748352716,
,,,,46.0,10.0,3.0,,,,,,,,,,,,,gelb,blue,b,0.0,b,1.0,0.8394210999831557,,,,,,,,,,3.0,10.0,46.0,9.0,291.35268569993787,,,,,,,,,,,,,,,,,291.33728850004263,292.5528356998693,293.3522542999126,293.33635209989734,,,,,,,,,,,,,,,,,,,,,,,,,,,,,,,,,,,293.33820490003563,293.3522542999126,293.3522542999126,294.2035966999829,b,1.0,0.8394210999831557,,,,,,sub-051,1,stroop_test,60.05558748352716,
,,,,47.0,11.0,3.0,,,,,,,,,,,,,blau,yellow,g,0.0,g,1.0,0.6826315999496728,,,,,,,,,,3.0,11.0,47.0,7.0,294.21927949995734,,,,,,,,,,,,,,,,,294.2038713998627,294.5697900999803,295.3694076000247,295.352951399982,,,,,,,,,,,,,,,,,,,,,,,,,,,,,,,,,,,295.35480599990115,295.3694076000247,295.3694076000247,296.0536138999741,g,1.0,0.6826315999496728,,,,,,sub-051,1,stroop_test,60.05558748352716,
,,,,48.0,0.0,4.0,,,,,,,,,,,,,rot,red,r,1.0,r,1.0,0.5785089998971671,,,,,,,,,,4.0,0.0,48.0,1.0,296.06903839996085,,,,,,,,,,,,,,,,,296.05386250000447,296.85265829996206,297.65274100005627,297.6363923999015,,,,,,,,,,,,,,,,,,,,,,,,,,,,,,,,,,,297.63807430001907,297.65274100005627,297.65274100005627,298.2364576999098,r,1.0,0.5785089998971671,,,,,,sub-051,1,stroop_test,60.05558748352716,
,,,,49.0,1.0,4.0,,,,,,,,,,,,,rot,yellow,g,0.0,g,1.0,0.5751714000944048,,,,,,,,,,4.0,1.0,49.0,3.0,298.25312729994766,,,,,,,,,,,,,,,,,298.2367304000072,299.4360094999429,300.2358931999188,300.21991049987264,,,,,,,,,,,,,,,,,,,,,,,,,,,,,,,,,,,300.2202389999293,300.2358931999188,300.2358931999188,300.81974419998005,g,1.0,0.5751714000944048,,,,,,sub-051,1,stroop_test,60.05558748352716,
,,,,50.0,2.0,4.0,,,,,,,,,,,,,blau,blue,b,1.0,b,1.0,0.5511412001214921,,,,,,,,,,4.0,2.0,50.0,6.0,300.8365899999626,,,,,,,,,,,,,,,,,300.8199938999024,302.0192970999051,302.8191808999982,302.80328850005753,,,,,,,,,,,,,,,,,,,,,,,,,,,,,,,,,,,302.8054343999829,302.8191808999982,302.8191808999982,303.3867527998518,b,1.0,0.5511412001214921,,,,,,sub-051,1,stroop_test,60.05558748352716,
,,,,51.0,3.0,4.0,,,,,,,,,,,,,rot,blue,b,0.0,b,1.0,0.676503999857232,,,,,,,,,,4.0,3.0,51.0,2.0,303.4026208999567,,,,,,,,,,,,,,,,,303.38701039995067,303.7524601998739,304.55254579987377,304.53633589996025,,,,,,,,,,,,,,,,,,,,,,,,,,,,,,,,,,,304.53812170005403,304.55254579987377,304.55254579987377,305.23663479997776,b,1.0,0.676503999857232,,,,,,sub-051,1,stroop_test,60.05558748352716,
,,,,52.0,4.0,4.0,,,,,,,,,,,,,blau,yellow,g,0.0,g,1.0,0.5947310999035835,,,,,,,,,,4.0,4.0,52.0,7.0,305.25257879984565,,,,,,,,,,,,,,,,,305.23686839989386,305.33589209988713,306.1357066000346,306.1196711000521,,,,,,,,,,,,,,,,,,,,,,,,,,,,,,,,,,,306.121382100042,306.1357066000346,306.1357066000346,306.7364544000011,g,1.0,0.5947310999035835,,,,,,sub-051,1,stroop_test,60.05558748352716,
,,,,53.0,5.0,4.0,,,,,,,,,,,,,gelb,red,r,0.0,r,1.0,0.5504020999651402,,,,,,,,,,4.0,5.0,53.0,8.0,306.7524327998981,,,,,,,,,,,,,,,,,306.7367163999006,307.5363900999073,308.3354561000597,308.31918150000274,,,,,,,,,,,,,,,,,,,,,,,,,,,,,,,,,,,308.3210817000363,308.3354561000597,308.3354561000597,308.8871378998738,r,1.0,0.5504020999651402,,,,,,sub-051,1,stroop_test,60.05558748352716,
,,,,54.0,6.0,4.0,,,,,,,,,,,,,blau,blue,b,1.0,b,1.0,0.5630441999528557,,,,,,,,,,4.0,6.0,54.0,5.0,308.9027299999725,,,,,,,,,,,,,,,,,308.8873761999421,309.2528689999599,310.0522008999251,310.0362394000404,,,,,,,,,,,,,,,,,,,,,,,,,,,,,,,,,,,310.0379909998737,310.0522008999251,310.0522008999251,310.6201333999634,b,1.0,0.5630441999528557,,,,,,sub-051,1,stroop_test,60.05558748352716,
,,,,55.0,7.0,4.0,,,,,,,,,,,,,gelb,blue,b,0.0,g,0.0,0.7128428998403251,,,,,,,,,,4.0,7.0,55.0,9.0,310.63628809992224,,,,,,,,,,,,,,,,,310.6203952999785,311.8195129998494,312.61926289997064,312.6030325999018,,,,,,,,,,,,,,,,,,,,,,,,,,,,,,,,,,,312.60537140001543,312.61926289997064,312.61926289997064,313.33692339994013,g,0.0,0.7128428998403251,,,,,,sub-051,1,stroop_test,60.05558748352716,
,,,,56.0,8.0,4.0,,,,,,,,,,,,,blau,red,r,0.0,r,1.0,0.6717858000192791,,,,,,,,,,4.0,8.0,56.0,4.0,313.3525884998962,,,,,,,,,,,,,,,,,313.3371891998686,313.7023839999456,314.50291749998,314.48620279994793,,,,,,,,,,,,,,,,,,,,,,,,,,,,,,,,,,,314.48795360000804,314.50291749998,314.50291749998,315.1862850000616,r,1.0,0.6717858000192791,,,,,,sub-051,1,stroop_test,60.05558748352716,
,,,,57.0,9.0,4.0,,,,,,,,,,,,,rot,red,r,1.0,r,1.0,0.670224100118503,,,,,,,,,,4.0,9.0,57.0,0.0,315.20181669993326,,,,,,,,,,,,,,,,,315.18651030003093,316.38598069990985,317.1859496999532,317.16969639994204,,,,,,,,,,,,,,,,,,,,,,,,,,,,,,,,,,,317.1715691999998,317.1859496999532,317.1859496999532,317.8699280000292,r,1.0,0.670224100118503,,,,,,sub-051,1,stroop_test,60.05558748352716,
,,,,58.0,10.0,4.0,,,,,,,,,,,,,gelb,yellow,g,1.0,g,1.0,0.6942837000824511,,,,,,,,,,4.0,10.0,58.0,10.0,317.88523790007457,,,,,,,,,,,,,,,,,317.8701661999803,318.2192311999388,319.019188700011,319.0033307999838,,,,,,,,,,,,,,,,,,,,,,,,,,,,,,,,,,,319.0053803999908,319.019188700011,319.019188700011,319.71966469986364,g,1.0,0.6942837000824511,,,,,,sub-051,1,stroop_test,60.05558748352716,
,,,,59.0,11.0,4.0,,,,,,,,,,,,,gelb,yellow,g,1.0,g,1.0,0.420624400023371,,,,,,,,,,4.0,11.0,59.0,11.0,319.7358572999947,,,,,,,,,,,,,,,,,319.7198820998892,320.06917809997685,320.8694122999441,320.8527857998852,,,,,,,,,,,,,,,,,,,,,,,,,,,,,,,,,,,320.8531152999494,320.8694122999441,320.8694122999441,321.30323409987614,g,1.0,0.420624400023371,,,,,,sub-051,1,stroop_test,60.05558748352716,
,,,,60.0,0.0,5.0,,,,,,,,,,,,,blau,blue,b,1.0,b,1.0,0.5150285998824984,,,,,,,,,,5.0,0.0,60.0,6.0,321.319262499921,,,,,,,,,,,,,,,,,321.30347370007075,322.50229909992777,323.30180440004915,323.28602129989304,,,,,,,,,,,,,,,,,,,,,,,,,,,,,,,,,,,323.2877177000046,323.30180440004915,323.30180440004915,323.8199591999873,b,1.0,0.5150285998824984,,,,,,sub-051,1,stroop_test,60.05558748352716,
,,,,61.0,1.0,5.0,,,,,,,,,,,,,blau,blue,b,1.0,b,1.0,0.4045492999721318,,,,,,,,,,5.0,1.0,61.0,5.0,323.83603730006143,,,,,,,,,,,,,,,,,323.8202072000131,325.0191011999268,325.81879619997926,325.8028275000397,,,,,,,,,,,,,,,,,,,,,,,,,,,,,,,,,,,325.803115000017,325.81879619997926,325.81879619997926,326.2370454999618,b,1.0,0.4045492999721318,,,,,,sub-051,1,stroop_test,60.05558748352716,
,,,,62.0,2.0,5.0,,,,,,,,,,,,,blau,yellow,g,0.0,g,1.0,0.6738545000553131,,,,,,,,,,5.0,2.0,62.0,7.0,326.2526438999921,,,,,,,,,,,,,,,,,326.2372842000332,326.5855529999826,327.3865258998703,327.37005789997056,,,,,,,,,,,,,,,,,,,,,,,,,,,,,,,,,,,327.3703574000392,327.3865258998703,327.3865258998703,328.0702783998568,g,1.0,0.6738545000553131,,,,,,sub-051,1,stroop_test,60.05558748352716,
,,,,63.0,3.0,5.0,,,,,,,,,,,,,gelb,red,r,0.0,r,1.0,0.5609996998682618,,,,,,,,,,5.0,3.0,63.0,8.0,328.0860919000115,,,,,,,,,,,,,,,,,328.0705528999679,328.4191741999239,329.21923409984447,329.20330929988995,,,,,,,,,,,,,,,,,,,,,,,,,,,,,,,,,,,329.2058355000336,329.21923409984447,329.21923409984447,329.7866775000002,r,1.0,0.5609996998682618,,,,,,sub-051,1,stroop_test,60.05558748352716,
,,,,64.0,4.0,5.0,,,,,,,,,,,,,rot,yellow,g,0.0,g,1.0,0.6311401999555528,,,,,,,,,,5.0,4.0,64.0,3.0,329.8034009998664,,,,,,,,,,,,,,,,,329.78691469994374,330.13600269984454,330.93583859992214,330.91947879991494,,,,,,,,,,,,,,,,,,,,,,,,,,,,,,,,,,,330.921223500045,330.93583859992214,330.93583859992214,331.5698905000463,g,1.0,0.6311401999555528,,,,,,sub-051,1,stroop_test,60.05558748352716,
,,,,65.0,5.0,5.0,,,,,,,,,,,,,rot,red,r,1.0,r,1.0,0.5926328001078218,,,,,,,,,,5.0,5.0,65.0,1.0,331.5858348000329,,,,,,,,,,,,,,,,,331.5701543998439,331.6692073000595,332.4689849000424,332.4525949000381,,,,,,,,,,,,,,,,,,,,,,,,,,,,,,,,,,,332.4529244999867,332.4689849000424,332.4689849000424,333.0700252999086,r,1.0,0.5926328001078218,,,,,,sub-051,1,stroop_test,60.05558748352716,
,,,,66.0,6.0,5.0,,,,,,,,,,,,,gelb,blue,b,0.0,b,1.0,0.519633200019598,,,,,,,,,,5.0,6.0,66.0,9.0,333.08566209999844,,,,,,,,,,,,,,,,,333.07026090007275,333.4190827999264,334.2194979998749,334.2026575000491,,,,,,,,,,,,,,,,,,,,,,,,,,,,,,,,,,,334.2046763999388,334.2194979998749,334.2194979998749,334.7534312000498,b,1.0,0.519633200019598,,,,,,sub-051,1,stroop_test,60.05558748352716,
,,,,67.0,7.0,5.0,,,,,,,,,,,,,blau,red,r,0.0,r,1.0,0.8181639998219907,,,,,,,,,,5.0,7.0,67.0,4.0,334.7693787000608,,,,,,,,,,,,,,,,,334.7537050000392,335.9697316000238,336.7690558000468,336.75315060000867,,,,,,,,,,,,,,,,,,,,,,,,,,,,,,,,,,,336.75497470004484,336.7690558000468,336.7690558000468,337.6030323000159,r,1.0,0.8181639998219907,,,,,,sub-051,1,stroop_test,60.05558748352716,
,,,,68.0,8.0,5.0,,,,,,,,,,,,,gelb,yellow,g,1.0,g,1.0,0.5650504999794066,,,,,,,,,,5.0,8.0,68.0,11.0,337.6190177998505,,,,,,,,,,,,,,,,,337.6032799000386,337.70244979998097,338.50268279993907,338.4864294999279,,,,,,,,,,,,,,,,,,,,,,,,,,,,,,,,,,,338.488902800018,338.50268279993907,338.50268279993907,339.0698559999,g,1.0,0.5650504999794066,,,,,,sub-051,1,stroop_test,60.05558748352716,
,,,,69.0,9.0,5.0,,,,,,,,,,,,,gelb,yellow,g,1.0,g,1.0,0.4666637999471277,,,,,,,,,,5.0,9.0,69.0,10.0,339.0857865998987,,,,,,,,,,,,,,,,,339.07011729991063,339.1859824999701,339.985970800044,339.96921869996004,,,,,,,,,,,,,,,,,,,,,,,,,,,,,,,,,,,339.9695439999923,339.985970800044,339.985970800044,340.453703999985,g,1.0,0.4666637999471277,,,,,,sub-051,1,stroop_test,60.05558748352716,
,,,,70.0,10.0,5.0,,,,,,,,,,,,,rot,red,r,1.0,r,1.0,0.4445638000033796,,,,,,,,,,5.0,10.0,70.0,0.0,340.46860189992003,,,,,,,,,,,,,,,,,340.4539707999211,341.6689559998922,342.468937800033,342.45245580002666,,,,,,,,,,,,,,,,,,,,,,,,,,,,,,,,,,,342.4542431998998,342.468937800033,342.468937800033,342.91984199988656,r,1.0,0.4445638000033796,,,,,,sub-051,1,stroop_test,60.05558748352716,
,,,,71.0,11.0,5.0,,,,,,,,,,,,,rot,blue,b,0.0,r,0.0,0.7016661998350173,,,,,,,,,,5.0,11.0,71.0,2.0,342.9362375999335,,,,,,,,,,,,,,,,,342.920116199879,343.7358780000359,344.5357935000211,344.5195577999111,,,,,,,,,,,,,,,,,,,,,,,,,,,,,,,,,,,344.51985859987326,344.5357935000211,344.5357935000211,345.2532804000657,r,0.0,0.7016661998350173,,,,,,sub-051,1,stroop_test,60.05558748352716,
,,,,72.0,0.0,6.0,,,,,,,,,,,,,blau,yellow,g,0.0,g,1.0,0.6403108998201787,,,,,,,,,,6.0,0.0,72.0,7.0,345.26921060006134,,,,,,,,,,,,,,,,,345.2535164998844,346.45224340003915,347.2530091998633,347.23635670007206,,,,,,,,,,,,,,,,,,,,,,,,,,,,,,,,,,,347.2380563998595,347.2530091998633,347.2530091998633,347.9027984000277,g,1.0,0.6403108998201787,,,,,,sub-051,1,stroop_test,60.05558748352716,
,,,,73.0,1.0,6.0,,,,,,,,,,,,,blau,red,r,0.0,b,0.0,0.8617442001122981,,,,,,,,,,6.0,1.0,73.0,4.0,347.91902689985,,,,,,,,,,,,,,,,,347.9030780000612,348.2524999999441,349.0522838998586,349.0359634999186,,,,,,,,,,,,,,,,,,,,,,,,,,,,,,,,,,,349.03625470004044,349.0522838998586,349.0522838998586,349.9197139998432,b,0.0,0.8617442001122981,,,,,,sub-051,1,stroop_test,60.05558748352716,
,,,,74.0,2.0,6.0,,,,,,,,,,,,,gelb,yellow,g,1.0,g,1.0,0.6100895998533815,,,,,,,,,,6.0,2.0,74.0,10.0,349.9357819999568,,,,,,,,,,,,,,,,,349.91994989989325,351.1187934000045,351.91886839992367,351.90259770001285,,,,,,,,,,,,,,,,,,,,,,,,,,,,,,,,,,,351.90429669991136,351.91886839992367,351.91886839992367,352.5360332999844,g,1.0,0.6100895998533815,,,,,,sub-051,1,stroop_test,60.05558748352716,
,,,,75.0,3.0,6.0,,,,,,,,,,,,,rot,red,r,1.0,r,1.0,0.5340467998757958,,,,,,,,,,6.0,3.0,75.0,1.0,352.5524408998899,,,,,,,,,,,,,,,,,352.5362728999462,352.8857362000272,353.6852054998744,353.66941179987043,,,,,,,,,,,,,,,,,,,,,,,,,,,,,,,,,,,353.6716153998859,353.6852054998744,353.6852054998744,354.22047509998083,r,1.0,0.5340467998757958,,,,,,sub-051,1,stroop_test,60.05558748352716,
,,,,76.0,4.0,6.0,,,,,,,,,,,,,gelb,blue,b,0.0,b,1.0,0.6810113999526948,,,,,,,,,,6.0,4.0,76.0,9.0,354.2356861999724,,,,,,,,,,,,,,,,,354.2207985999994,355.03570770006627,355.8357553000096,355.8193242000416,,,,,,,,,,,,,,,,,,,,,,,,,,,,,,,,,,,355.8210791000165,355.8357553000096,355.8357553000096,356.51988040003926,b,1.0,0.6810113999526948,,,,,,sub-051,1,stroop_test,60.05558748352716,
,,,,77.0,5.0,6.0,,,,,,,,,,,,,rot,blue,b,0.0,b,1.0,0.5305487001314759,,,,,,,,,,6.0,5.0,77.0,2.0,356.535652599996,,,,,,,,,,,,,,,,,356.520121099893,356.8689737999812,357.6691421000287,357.6526390998624,,,,,,,,,,,,,,,,,,,,,,,,,,,,,,,,,,,357.6544450998772,357.6691421000287,357.6691421000287,358.2030422999524,b,1.0,0.5305487001314759,,,,,,sub-051,1,stroop_test,60.05558748352716,
,,,,78.0,6.0,6.0,,,,,,,,,,,,,gelb,red,r,0.0,r,1.0,0.496107499813661,,,,,,,,,,6.0,6.0,78.0,8.0,358.21923699998297,,,,,,,,,,,,,,,,,358.2032889998518,359.0189618000295,359.8187646998558,359.8028357999865,,,,,,,,,,,,,,,,,,,,,,,,,,,,,,,,,,,359.8047404000536,359.8187646998558,359.8187646998558,360.3201347999275,r,1.0,0.496107499813661,,,,,,sub-051,1,stroop_test,60.05558748352716,
,,,,79.0,7.0,6.0,,,,,,,,,,,,,gelb,yellow,g,1.0,g,1.0,0.5843929999973625,,,,,,,,,,6.0,7.0,79.0,11.0,360.3357855000068,,,,,,,,,,,,,,,,,360.32041969988495,361.5355642999057,362.3359137000516,362.3194009999279,,,,,,,,,,,,,,,,,,,,,,,,,,,,,,,,,,,362.31975969998166,362.3359137000516,362.3359137000516,362.9364813999273,g,1.0,0.5843929999973625,,,,,,sub-051,1,stroop_test,60.05558748352716,
,,,,80.0,8.0,6.0,,,,,,,,,,,,,blau,blue,b,1.0,b,1.0,0.5020370001439005,,,,,,,,,,6.0,8.0,80.0,5.0,362.9525917000137,,,,,,,,,,,,,,,,,362.9367170999758,363.0362517000176,363.8355165999383,363.81957419984974,,,,,,,,,,,,,,,,,,,,,,,,,,,,,,,,,,,363.8215003998485,363.8355165999383,363.8355165999383,364.35291759995744,b,1.0,0.5020370001439005,,,,,,sub-051,1,stroop_test,60.05558748352716,
,,,,81.0,9.0,6.0,,,,,,,,,,,,,blau,blue,b,1.0,b,1.0,0.5830027000047266,,,,,,,,,,6.0,9.0,81.0,6.0,364.3687801000197,,,,,,,,,,,,,,,,,364.35328010004014,365.5523178000003,366.3525230998639,366.33578239986673,,,,,,,,,,,,,,,,,,,,,,,,,,,,,,,,,,,366.3361037999857,366.3525230998639,366.3525230998639,366.936791999964,b,1.0,0.5830027000047266,,,,,,sub-051,1,stroop_test,60.05558748352716,
,,,,82.0,10.0,6.0,,,,,,,,,,,,,rot,red,r,1.0,r,1.0,0.4486575999762863,,,,,,,,,,6.0,10.0,82.0,0.0,366.95201130001806,,,,,,,,,,,,,,,,,366.93704240000807,367.05272819986567,367.8527263000142,367.83585250005126,,,,,,,,,,,,,,,,,,,,,,,,,,,,,,,,,,,367.83838670002297,367.8527263000142,367.8527263000142,368.30320299998857,r,1.0,0.4486575999762863,,,,,,sub-051,1,stroop_test,60.05558748352716,
,,,,83.0,11.0,6.0,,,,,,,,,,,,,rot,yellow,g,0.0,g,1.0,0.6283066999167204,,,,,,,,,,6.0,11.0,83.0,3.0,368.31857679993846,,,,,,,,,,,,,,,,,368.3035380998626,369.5195329999551,370.3191010998562,370.3028815998696,,,,,,,,,,,,,,,,,,,,,,,,,,,,,,,,,,,370.3032374000177,370.3191010998562,370.3191010998562,370.9529204999562,g,1.0,0.6283066999167204,,,,,,sub-051,1,stroop_test,60.05558748352716,
,,,,84.0,0.0,7.0,,,,,,,,,,,,,rot,yellow,g,0.0,g,1.0,0.4503539002034813,,,,,,,,,,7.0,0.0,84.0,3.0,370.968909899937,,,,,,,,,,,,,,,,,370.953160099918,371.7524208999239,372.5523401999381,372.53621399984695,,,,,,,,,,,,,,,,,,,,,,,,,,,,,,,,,,,372.53652679990046,372.5523401999381,372.5523401999381,373.0040923999623,g,1.0,0.4503539002034813,,,,,,sub-051,1,stroop_test,60.05558748352716,
,,,,85.0,1.0,7.0,,,,,,,,,,,,,blau,yellow,g,0.0,g,1.0,0.5078537999652326,,,,,,,,,,7.0,1.0,85.0,7.0,373.0190608999692,,,,,,,,,,,,,,,,,373.00438779988326,373.8183565000072,374.6189945999067,374.60283349989913,,,,,,,,,,,,,,,,,,,,,,,,,,,,,,,,,,,374.6046128999442,374.6189945999067,374.6189945999067,375.1365926999133,g,1.0,0.5078537999652326,,,,,,sub-051,1,stroop_test,60.05558748352716,
,,,,86.0,2.0,7.0,,,,,,,,,,,,,blau,blue,b,1.0,b,1.0,0.4821945999283343,,,,,,,,,,7.0,2.0,86.0,6.0,375.1522208999377,,,,,,,,,,,,,,,,,375.1368323999923,375.9520014999434,376.7524033999071,376.7360620999243,,,,,,,,,,,,,,,,,,,,,,,,,,,,,,,,,,,376.7363776999992,376.7524033999071,376.7524033999071,377.2367455000058,b,1.0,0.4821945999283343,,,,,,sub-051,1,stroop_test,60.05558748352716,
,,,,87.0,3.0,7.0,,,,,,,,,,,,,gelb,yellow,g,1.0,g,1.0,0.6180704000871629,,,,,,,,,,7.0,3.0,87.0,10.0,377.2524007000029,,,,,,,,,,,,,,,,,377.23698280006647,378.4519608998671,379.2520439999644,379.23558029998094,,,,,,,,,,,,,,,,,,,,,,,,,,,,,,,,,,,379.23792349989526,379.2520439999644,379.2520439999644,379.886517399922,g,1.0,0.6180704000871629,,,,,,sub-051,1,stroop_test,60.05558748352716,
,,,,88.0,4.0,7.0,,,,,,,,,,,,,blau,red,r,0.0,r,1.0,1.0124524000566453,,,,,,,,,,7.0,4.0,88.0,4.0,379.9020354000386,,,,,,,,,,,,,,,,,379.88676539994776,380.2355943999719,381.036072100047,381.019604299916,,,,,,,,,,,,,,,,,,,,,,,,,,,,,,,,,,,381.021440600045,381.036072100047,381.036072100047,382.05278389994055,r,1.0,1.0124524000566453,,,,,,sub-051,1,stroop_test,60.05558748352716,
,,,,89.0,5.0,7.0,,,,,,,,,,,,,rot,red,r,1.0,r,1.0,0.4775364999659359,,,,,,,,,,7.0,5.0,89.0,1.0,382.0687653999776,,,,,,,,,,,,,,,,,382.0530781999696,382.40228229993954,383.20246870000847,383.1863406000193,,,,,,,,,,,,,,,,,,,,,,,,,,,,,,,,,,,383.1889857999049,383.20246870000847,383.20246870000847,383.6861910000444,r,1.0,0.4775364999659359,,,,,,sub-051,1,stroop_test,60.05558748352716,
,,,,90.0,6.0,7.0,,,,,,,,,,,,,gelb,blue,b,0.0,b,1.0,0.8457609000615776,,,,,,,,,,7.0,6.0,90.0,9.0,383.7022931999527,,,,,,,,,,,,,,,,,383.68643600004725,384.0361088998616,384.8354171998799,384.81969220004976,,,,,,,,,,,,,,,,,,,,,,,,,,,,,,,,,,,384.82166679995134,384.8354171998799,384.8354171998799,385.6860521000344,b,1.0,0.8457609000615776,,,,,,sub-051,1,stroop_test,60.05558748352716,
,,,,91.0,7.0,7.0,,,,,,,,,,,,,rot,red,r,1.0,r,1.0,0.6176549000665545,,,,,,,,,,7.0,7.0,91.0,0.0,385.701981500024,,,,,,,,,,,,,,,,,385.6862977999263,386.48580050002784,387.285944199888,387.2695011000615,,,,,,,,,,,,,,,,,,,,,,,,,,,,,,,,,,,387.2714112999384,387.285944199888,387.285944199888,387.9196526999585,r,1.0,0.6176549000665545,,,,,,sub-051,1,stroop_test,60.05558748352716,
,,,,92.0,8.0,7.0,,,,,,,,,,,,,blau,blue,b,1.0,b,1.0,0.5528543000109494,,,,,,,,,,7.0,8.0,92.0,5.0,387.9355460000224,,,,,,,,,,,,,,,,,387.919893699931,388.7189364000224,389.518918500049,389.5027608999517,,,,,,,,,,,,,,,,,,,,,,,,,,,,,,,,,,,389.50467549986206,389.518918500049,389.518918500049,390.0861221000087,b,1.0,0.5528543000109494,,,,,,sub-051,1,stroop_test,60.05558748352716,
,,,,93.0,9.0,7.0,,,,,,,,,,,,,gelb,yellow,g,1.0,g,1.0,0.5772311000619084,,,,,,,,,,7.0,9.0,93.0,11.0,390.1019500000402,,,,,,,,,,,,,,,,,390.08636449999176,391.28578679985367,392.0855324999429,392.0694349000696,,,,,,,,,,,,,,,,,,,,,,,,,,,,,,,,,,,392.0715760998428,392.0855324999429,392.0855324999429,392.6694920998998,g,1.0,0.5772311000619084,,,,,,sub-051,1,stroop_test,60.05558748352716,
,,,,94.0,10.0,7.0,,,,,,,,,,,,,rot,blue,b,0.0,b,1.0,0.5918316999450326,,,,,,,,,,7.0,10.0,94.0,2.0,392.68579089990817,,,,,,,,,,,,,,,,,392.6697352000047,393.8685182000045,394.66872409987263,394.6522369000595,,,,,,,,,,,,,,,,,,,,,,,,,,,,,,,,,,,394.65451769996434,394.66872409987263,394.66872409987263,395.2695851000026,b,1.0,0.5918316999450326,,,,,,sub-051,1,stroop_test,60.05558748352716,
,,,,95.0,11.0,7.0,,,,,,,,,,,,,gelb,red,r,0.0,r,1.0,0.3752009000163525,,,,,,,,,,7.0,11.0,95.0,8.0,395.2855316998903,,,,,,,,,,,,,,,,,395.2698899998795,395.6351568000391,396.4353018000256,396.4193243000191,,,,,,,,,,,,,,,,,,,,,,,,,,,,,,,,,,,396.4212197000161,396.4353018000256,396.4353018000256,396.8195829000324,r,1.0,0.3752009000163525,,,,,,sub-051,1,stroop_test,60.05558748352716,
,,,,96.0,0.0,8.0,,,,,,,,,,,,,rot,red,r,1.0,r,1.0,0.6327247999142855,,,,,,,,,,8.0,0.0,96.0,1.0,396.8358727998566,,,,,,,,,,,,,,,,,396.8198231998831,397.6189755999949,398.419555200031,398.40253329998814,,,,,,,,,,,,,,,,,,,,,,,,,,,,,,,,,,,398.4041889999062,398.419555200031,398.419555200031,399.0532523000147,r,1.0,0.6327247999142855,,,,,,sub-051,1,stroop_test,60.05558748352716,
,,,,97.0,1.0,8.0,,,,,,,,,,,,,gelb,yellow,g,1.0,g,1.0,0.6479809999000281,,,,,,,,,,8.0,1.0,97.0,10.0,399.068597599864,,,,,,,,,,,,,,,,,399.0535170000512,399.4190326000098,400.2186614000239,400.20259679993615,,,,,,,,,,,,,,,,,,,,,,,,,,,,,,,,,,,400.2046664999798,400.2186614000239,400.2186614000239,400.86985670006834,g,1.0,0.6479809999000281,,,,,,sub-051,1,stroop_test,60.05558748352716,
,,,,98.0,2.0,8.0,,,,,,,,,,,,,rot,red,r,1.0,r,1.0,0.5630246000364423,,,,,,,,,,8.0,2.0,98.0,0.0,400.8854594998993,,,,,,,,,,,,,,,,,400.87009910005145,400.9851841998752,401.785765199922,401.7692811999004,,,,,,,,,,,,,,,,,,,,,,,,,,,,,,,,,,,401.7711010999046,401.785765199922,401.785765199922,402.3525658000726,r,1.0,0.5630246000364423,,,,,,sub-051,1,stroop_test,60.05558748352716,
,,,,99.0,3.0,8.0,,,,,,,,,,,,,blau,red,r,0.0,r,1.0,0.4638384999707341,,,,,,,,,,8.0,3.0,99.0,4.0,402.3687425998505,,,,,,,,,,,,,,,,,402.3528595999815,402.70232119993307,403.5022054999136,403.4861589998473,,,,,,,,,,,,,,,,,,,,,,,,,,,,,,,,,,,403.4883921998553,403.5022054999136,403.5022054999136,403.96938499994576,r,1.0,0.4638384999707341,,,,,,sub-051,1,stroop_test,60.05558748352716,
,,,,100.0,4.0,8.0,,,,,,,,,,,,,blau,yellow,g,0.0,b,0.0,0.7393256002105772,,,,,,,,,,8.0,4.0,100.0,7.0,403.9859718000516,,,,,,,,,,,,,,,,,403.9696477998514,405.1689847998787,405.96875189989805,405.9523523999378,,,,,,,,,,,,,,,,,,,,,,,,,,,,,,,,,,,405.9526645999868,405.96875189989805,405.96875189989805,406.71961779985577,b,0.0,0.7393256002105772,,,,,,sub-051,1,stroop_test,60.05558748352716,
,,,,101.0,5.0,8.0,,,,,,,,,,,,,blau,blue,b,1.0,b,1.0,0.5434449000749737,,,,,,,,,,8.0,5.0,101.0,5.0,406.735513899941,,,,,,,,,,,,,,,,,406.71985880006105,406.81892560003325,407.61890939995646,407.6022472998593,,,,,,,,,,,,,,,,,,,,,,,,,,,,,,,,,,,407.6026023000013,407.61890939995646,407.61890939995646,408.1697664000094,b,1.0,0.5434449000749737,,,,,,sub-051,1,stroop_test,60.05558748352716,
,,,,102.0,6.0,8.0,,,,,,,,,,,,,rot,yellow,g,0.0,g,1.0,0.7956140998285264,,,,,,,,,,8.0,6.0,102.0,3.0,408.18541839998215,,,,,,,,,,,,,,,,,408.170024999883,408.985355099896,409.78532249992713,409.7692906998564,,,,,,,,,,,,,,,,,,,,,,,,,,,,,,,,,,,409.7712201999966,409.78532249992713,409.78532249992713,410.58559100003913,g,1.0,0.7956140998285264,,,,,,sub-051,1,stroop_test,60.05558748352716,
,,,,103.0,7.0,8.0,,,,,,,,,,,,,gelb,yellow,g,1.0,g,1.0,0.5090334999840707,,,,,,,,,,8.0,7.0,103.0,11.0,410.6015562999528,,,,,,,,,,,,,,,,,410.58585299993865,410.9357483000495,411.7352648999076,411.7198183999863,,,,,,,,,,,,,,,,,,,,,,,,,,,,,,,,,,,411.7219024999067,411.7352648999076,411.7352648999076,412.252975899959,g,1.0,0.5090334999840707,,,,,,sub-051,1,stroop_test,60.05558748352716,
,,,,104.0,8.0,8.0,,,,,,,,,,,,,blau,blue,b,1.0,b,1.0,0.7087809001095593,,,,,,,,,,8.0,8.0,104.0,6.0,412.2689596998971,,,,,,,,,,,,,,,,,412.2532160999253,413.45234449999407,414.2521281000227,414.23557200003415,,,,,,,,,,,,,,,,,,,,,,,,,,,,,,,,,,,414.2373857998755,414.2521281000227,414.2521281000227,414.96923669986427,b,1.0,0.7087809001095593,,,,,,sub-051,1,stroop_test,60.05558748352716,
,,,,105.0,9.0,8.0,,,,,,,,,,,,,rot,blue,b,0.0,b,1.0,0.4275936000049114,,,,,,,,,,8.0,9.0,105.0,2.0,414.9855891999323,,,,,,,,,,,,,,,,,414.9694793999661,415.0687971999869,415.86906210007146,415.8525771000423,,,,,,,,,,,,,,,,,,,,,,,,,,,,,,,,,,,415.8543404999655,415.86906210007146,415.86906210007146,416.3025328000076,b,1.0,0.4275936000049114,,,,,,sub-051,1,stroop_test,60.05558748352716,
,,,,106.0,10.0,8.0,,,,,,,,,,,,,gelb,blue,b,0.0,b,1.0,0.6690332000143826,,,,,,,,,,8.0,10.0,106.0,9.0,416.3186886999756,,,,,,,,,,,,,,,,,416.3027548000682,417.5019515999593,418.302314599976,418.2851841999218,,,,,,,,,,,,,,,,,,,,,,,,,,,,,,,,,,,418.2875786998775,418.302314599976,418.302314599976,418.9861379999202,b,1.0,0.6690332000143826,,,,,,sub-051,1,stroop_test,60.05558748352716,
,,,,107.0,11.0,8.0,,,,,,,,,,,,,gelb,red,r,0.0,r,1.0,0.7133704000152647,,,,,,,,,,8.0,11.0,107.0,8.0,419.0020999999251,,,,,,,,,,,,,,,,,418.9863839999307,419.3354990000371,420.1351149000693,420.1192256000359,,,,,,,,,,,,,,,,,,,,,,,,,,,,,,,,,,,420.1195439998992,420.1351149000693,420.1351149000693,420.8530001000036,r,1.0,0.7133704000152647,,,,,,sub-051,1,stroop_test,60.05558748352716,
,,,,108.0,0.0,9.0,,,,,,,,,,,,,gelb,yellow,g,1.0,g,1.0,0.7569946998264641,,,,,,,,,,9.0,0.0,108.0,11.0,420.8689458998852,,,,,,,,,,,,,,,,,420.8532582998741,422.0683627000544,422.8684410999995,422.8519299000036,,,,,,,,,,,,,,,,,,,,,,,,,,,,,,,,,,,422.85224669985473,422.8684410999995,422.8684410999995,423.6360515998677,g,1.0,0.7569946998264641,,,,,,sub-051,1,stroop_test,60.05558748352716,
,,,,109.0,1.0,9.0,,,,,,,,,,,,,rot,yellow,g,0.0,g,1.0,0.5047233998775482,,,,,,,,,,9.0,1.0,109.0,3.0,423.65223099989817,,,,,,,,,,,,,,,,,423.6363460998982,423.73541209986433,424.5351835999172,424.5195005999413,,,,,,,,,,,,,,,,,,,,,,,,,,,,,,,,,,,424.5212673998904,424.5351835999172,424.5351835999172,425.0529151998926,g,1.0,0.5047233998775482,,,,,,sub-051,1,stroop_test,60.05558748352716,
,,,,110.0,2.0,9.0,,,,,,,,,,,,,blau,blue,b,1.0,b,1.0,0.5412332001142204,,,,,,,,,,9.0,2.0,110.0,5.0,425.068904099986,,,,,,,,,,,,,,,,,425.0531858999748,425.1684975998942,425.9689235999249,425.9526688999031,,,,,,,,,,,,,,,,,,,,,,,,,,,,,,,,,,,425.9545352999121,425.9689235999249,425.9689235999249,426.51981569989584,b,1.0,0.5412332001142204,,,,,,sub-051,1,stroop_test,60.05558748352716,
,,,,111.0,3.0,9.0,,,,,,,,,,,,,blau,red,r,0.0,r,1.0,0.6089000999927521,,,,,,,,,,9.0,3.0,111.0,4.0,426.5361671000719,,,,,,,,,,,,,,,,,426.5200857999735,427.33542919997126,428.1352643999271,428.1195449000225,,,,,,,,,,,,,,,,,,,,,,,,,,,,,,,,,,,428.119869499933,428.1352643999271,428.1352643999271,428.7530461000279,r,1.0,0.6089000999927521,,,,,,sub-051,1,stroop_test,60.05558748352716,
,,,,112.0,4.0,9.0,,,,,,,,,,,,,blau,yellow,g,0.0,g,1.0,0.6248822000343353,,,,,,,,,,9.0,4.0,112.0,7.0,428.768628400052,,,,,,,,,,,,,,,,,428.75339019997045,429.1187326000072,429.9185955999419,429.9026158000343,,,,,,,,,,,,,,,,,,,,,,,,,,,,,,,,,,,429.9029349000193,429.9185955999419,429.9185955999419,430.552854700014,g,1.0,0.6248822000343353,,,,,,sub-051,1,stroop_test,60.05558748352716,
,,,,113.0,5.0,9.0,,,,,,,,,,,,,rot,blue,b,0.0,b,1.0,0.4815440000966191,,,,,,,,,,9.0,5.0,113.0,2.0,430.56858089985326,,,,,,,,,,,,,,,,,430.55307370005175,431.352001799969,432.1521769000683,432.1356226999778,,,,,,,,,,,,,,,,,,,,,,,,,,,,,,,,,,,432.1373570000287,432.1521769000683,432.1521769000683,432.6358954999596,b,1.0,0.4815440000966191,,,,,,sub-051,1,stroop_test,60.05558748352716,
,,,,114.0,6.0,9.0,,,,,,,,,,,,,gelb,red,r,0.0,r,1.0,0.6653634000103921,,,,,,,,,,9.0,6.0,114.0,8.0,432.6521433999296,,,,,,,,,,,,,,,,,432.636134600034,432.9852942000143,433.78498349990696,433.7691071999725,,,,,,,,,,,,,,,,,,,,,,,,,,,,,,,,,,,433.7714145998471,433.78498349990696,433.78498349990696,434.4525478000287,r,1.0,0.6653634000103921,,,,,,sub-051,1,stroop_test,60.05558748352716,
,,,,115.0,7.0,9.0,,,,,,,,,,,,,blau,blue,b,1.0,b,1.0,0.4849118001293391,,,,,,,,,,9.0,7.0,115.0,6.0,434.4687584999483,,,,,,,,,,,,,,,,,434.4528477999848,434.8021760999691,435.6018709999044,435.5856168000028,,,,,,,,,,,,,,,,,,,,,,,,,,,,,,,,,,,435.5875766999088,435.6018709999044,435.6018709999044,436.1026246000547,b,1.0,0.4849118001293391,,,,,,sub-051,1,stroop_test,60.05558748352716,
,,,,116.0,8.0,9.0,,,,,,,,,,,,,rot,red,r,1.0,r,1.0,0.7130352999083698,,,,,,,,,,9.0,8.0,116.0,0.0,436.1187157998793,,,,,,,,,,,,,,,,,436.102909399895,437.3023421000689,438.1019830000587,438.0861493998673,,,,,,,,,,,,,,,,,,,,,,,,,,,,,,,,,,,438.0878415000625,438.1019830000587,438.1019830000587,438.819537299918,r,1.0,0.7130352999083698,,,,,,sub-051,1,stroop_test,60.05558748352716,
,,,,117.0,9.0,9.0,,,,,,,,,,,,,gelb,yellow,g,1.0,g,1.0,0.4868387000169605,,,,,,,,,,9.0,9.0,117.0,10.0,438.8352286000736,,,,,,,,,,,,,,,,,438.8198347999714,440.01863309997134,440.8187340998557,440.8030016999692,,,,,,,,,,,,,,,,,,,,,,,,,,,,,,,,,,,440.8050911999308,440.8187340998557,440.8187340998557,441.3194247998763,g,1.0,0.4868387000169605,,,,,,sub-051,1,stroop_test,60.05558748352716,
,,,,118.0,10.0,9.0,,,,,,,,,,,,,rot,red,r,1.0,r,1.0,0.5323274000547826,,,,,,,,,,9.0,10.0,118.0,1.0,441.33508479991,,,,,,,,,,,,,,,,,441.3196638999507,441.4188033000101,442.2187079000287,442.20227780006826,,,,,,,,,,,,,,,,,,,,,,,,,,,,,,,,,,,442.2041600998491,442.2187079000287,442.2187079000287,442.7530093998648,r,1.0,0.5323274000547826,,,,,,sub-051,1,stroop_test,60.05558748352716,
,,,,119.0,11.0,9.0,,,,,,,,,,,,,gelb,blue,b,0.0,b,1.0,0.7124202998820692,,,,,,,,,,9.0,11.0,119.0,9.0,442.7685684999451,,,,,,,,,,,,,,,,,442.7532515998464,442.8690070998855,443.6684363998938,443.6521991000045,,,,,,,,,,,,,,,,,,,,,,,,,,,,,,,,,,,443.6545408000238,443.6684363998938,443.6684363998938,444.3857114999555,b,1.0,0.7124202998820692,,,,,,sub-051,1,stroop_test,60.05558748352716,
,,,,,,,,,,,,,,,,,,,,,,,,,,,,,,,,,,,,,,,,,,,,,,,,,,,,,,,,,,,,,,,,,,,,,,,,,,,,,,,,,,,,,,,,,,,,,,,,,,,,,,444.385826600017,444.4021393998992,449.401620300021,449.3854416999966,sub-051,1,stroop_test,60.05558748352716,
