wordCTK,colorCTK,corrAnsCTK,congruentCTK,thisN,thisTrialN,thisRepN,keyResp_CTK.keys,keyResp_CTK.corr,keyResp_CTK.rt,keyResp_CTK.duration,wordPractice,colorPractice,corrAnsPractice,congruentPractice,respPractice.keys,respPractice.corr,respPractice.rt,respPractice.duration,word,color,corrAns,congruent,keyResp_test_run.keys,keyResp_test_run.corr,keyResp_test_run.rt,keyResp_test_run.duration,trials_CTK.thisRepN,trials_CTK.thisTrialN,trials_CTK.thisN,trials_CTK.thisIndex,trials_practice.thisRepN,trials_practice.thisTrialN,trials_practice.thisN,trials_practice.thisIndex,trials_test.thisRepN,trials_test.thisTrialN,trials_test.thisN,trials_test.thisIndex,thisRow.t,notes,instruction.started,instr_text.started,instr_image.started,instr_resp.started,instruction.stopped,instr_resp.keys,instr_resp.rt,instr_resp.duration,instr_color_to_key.started,instr_ctk.started,resp_ctk.started,instr_color_to_key.stopped,resp_ctk.keys,resp_ctk.rt,resp_ctk.duration,ITI.started,fixcross.started,fixcross.stopped,ITI.stopped,color_to_key_run.started,stimulus_CTK.started,keyResp_CTK.started,color_to_key_run.stopped,trials_CTK.keyResp_CTK.keys,trials_CTK.keyResp_CTK.corr,trials_CTK.keyResp_CTK.rt,trials_CTK.keyResp_CTK.duration,instr_practice.started,instr_practice_text.started,instr_practice_resp.started,instr_practice.stopped,instr_practice_resp.keys,instr_practice_resp.rt,instr_practice_resp.duration,practice_run.started,stimulus_practice.started,respPractice.started,practice_run.stopped,trials_practice.respPractice.keys,trials_practice.respPractice.corr,trials_practice.respPractice.rt,trials_practice.respPractice.duration,feedback.started,textFeedback.started,feedback.stopped,textFeedback.stopped,instr_test.started,instr_test_text.started,instr_test_resp.started,instr_test.stopped,instr_test_resp.keys,instr_test_resp.rt,instr_test_resp.duration,test_run.started,stimulus_test_run.started,keyResp_test_run.started,test_run.stopped,trials_test.keyResp_test_run.keys,trials_test.keyResp_test_run.corr,trials_test.keyResp_test_run.rt,trials_test.keyResp_test_run.duration,goodbye.started,textGoodbye.started,goodbye.stopped,participant,session,expName,frameRate,Unnamed: 112
,,,,,,,,,,,,,,,,,,,,,,,,,,,,,,,,,,,,,,,,,0.0033671999699436,0.0386780999833717,0.0386780999833717,0.0386780999833717,4.017293400014751,space,3.95611359999748,,,,,,,,,,,,,,,,,,,,,,,,,,,,,,,,,,,,,,,,,,,,,,,,,,,,,,,,,,sub-106,3,stroop_test,60.040515340711714,
,,,,,,,,,,,,,,,,,,,,,,,,,,,,,,,,,,,,,,,,,,,,,,,,,4.017407700011972,4.024860400008038,4.024860400008038,5.885612800018862,space,1.846874599985313,,,,,,,,,,,,,,,,,,,,,,,,,,,,,,,,,,,,,,,,,,,,,,,,,,,sub-106,3,stroop_test,60.040515340711714,
test,blue,b,1.0,0.0,0.0,0.0,b,1.0,0.7028630999848247,,,,,,,,,,,,,,,,,,0.0,0.0,0.0,2.0,,,,,,,,,5.910770000016782,,,,,,,,,,,,,,,,,5.906310999998823,6.699250000005122,7.504554699989967,7.48362289997749,7.496679199975915,7.504554699989967,7.504554699989967,8.217112899990752,b,1.0,0.7028630999848247,,,,,,,,,,,,,,,,,,,,,,,,,,,,,,,,,,,,,,,sub-106,3,stroop_test,60.040515340711714,
test,yellow,g,1.0,1.0,1.0,0.0,g,1.0,0.5022572999587283,,,,,,,,,,,,,,,,,,0.0,1.0,1.0,1.0,,,,,,,,,8.231333800009452,,,,,,,,,,,,,,,,,8.217852299974766,9.030437399982477,9.829546199995091,9.81386019999627,9.81454449996818,9.829546199995091,9.829546199995091,10.348757800005842,g,1.0,0.5022572999587283,,,,,,,,,,,,,,,,,,,,,,,,,,,,,,,,,,,,,,,sub-106,3,stroop_test,60.040515340711714,
test,red,r,1.0,2.0,2.0,0.0,r,1.0,0.6944372999714687,,,,,,,,,,,,,,,,,,0.0,2.0,2.0,0.0,,,,,,,,,10.362612499971874,,,,,,,,,,,,,,,,,10.349513199995272,10.462747499987016,11.262022499984596,11.246491600002628,11.247640300018247,11.262022499984596,11.262022499984596,11.9636341999867,r,1.0,0.6944372999714687,,,,,,,,,,,,,,,,,,,,,,,,,,,,,,,,,,,,,,,sub-106,3,stroop_test,60.040515340711714,
test,blue,b,1.0,3.0,0.0,1.0,b,1.0,0.6015923999948427,,,,,,,,,,,,,,,,,,1.0,0.0,3.0,2.0,,,,,,,,,11.977805899980012,,,,,,,,,,,,,,,,,11.964333800016902,12.777533299988136,13.59309719997691,13.577175999991596,13.578206399979535,13.59309719997691,13.59309719997691,14.211578799993733,b,1.0,0.6015923999948427,,,,,,,,,,,,,,,,,,,,,,,,,,,,,,,,,,,,,,,sub-106,3,stroop_test,60.040515340711714,
test,red,r,1.0,4.0,1.0,1.0,r,1.0,0.54413840000052,,,,,,,,,,,,,,,,,,1.0,1.0,4.0,0.0,,,,,,,,,14.225381399970502,,,,,,,,,,,,,,,,,14.21227259997977,14.326257799984887,15.141551300010178,15.126242699974682,15.127257400017696,15.141551300010178,15.141551300010178,15.693490499979816,r,1.0,0.54413840000052,,,,,,,,,,,,,,,,,,,,,,,,,,,,,,,,,,,,,,,sub-106,3,stroop_test,60.040515340711714,
test,yellow,g,1.0,5.0,2.0,1.0,g,1.0,0.5530398999690078,,,,,,,,,,,,,,,,,,1.0,2.0,5.0,1.0,,,,,,,,,15.707527599995956,,,,,,,,,,,,,,,,,15.694202499988023,16.05739089997951,16.872912599996198,16.857059200003278,16.857719199964777,16.872912599996198,16.872912599996198,17.440978099999484,g,1.0,0.5530398999690078,,,,,,,,,,,,,,,,,,,,,,,,,,,,,,,,,,,,,,,sub-106,3,stroop_test,60.040515340711714,
test,blue,b,1.0,6.0,0.0,2.0,b,1.0,0.5491552000166848,,,,,,,,,,,,,,,,,,2.0,0.0,6.0,2.0,,,,,,,,,17.455684999993537,,,,,,,,,,,,,,,,,17.44143740000436,17.556456699967384,18.37174879998201,18.356162899988703,18.357099999964703,18.37174879998201,18.37174879998201,18.924381699995138,b,1.0,0.5491552000166848,,,,,,,,,,,,,,,,,,,,,,,,,,,,,,,,,,,,,,,sub-106,3,stroop_test,60.040515340711714,
test,red,r,1.0,7.0,1.0,2.0,r,1.0,0.3783878000103868,,,,,,,,,,,,,,,,,,2.0,1.0,7.0,0.0,,,,,,,,,18.93785079999361,,,,,,,,,,,,,,,,,18.9251334000146,19.73764539998956,20.553092400019523,20.53758579998976,20.538497500005175,20.553092400019523,20.553092400019523,20.93896780000068,r,1.0,0.3783878000103868,,,,,,,,,,,,,,,,,,,,,,,,,,,,,,,,,,,,,,,sub-106,3,stroop_test,60.040515340711714,
test,yellow,g,1.0,8.0,2.0,2.0,g,1.0,0.5125601000036113,,,,,,,,,,,,,,,,,,2.0,2.0,8.0,1.0,,,,,,,,,20.95275569998193,,,,,,,,,,,,,,,,,20.93977509997785,22.151661499985494,22.951286699972115,22.93586409999989,22.937207899987698,22.951286699972115,22.951286699972115,23.46872760000406,g,1.0,0.5125601000036113,,,,,,,,,,,,,,,,,,,,,,,,,,,,,,,,,,,,,,,sub-106,3,stroop_test,60.040515340711714,
test,yellow,g,1.0,9.0,0.0,3.0,g,1.0,0.3640608999994583,,,,,,,,,,,,,,,,,,3.0,0.0,9.0,1.0,,,,,,,,,23.48344400001224,,,,,,,,,,,,,,,,,23.469274599978235,24.283081499976102,25.098549699992876,25.0825689000194,25.08317060000263,25.098549699992876,25.098549699992876,25.466660199977923,g,1.0,0.3640608999994583,,,,,,,,,,,,,,,,,,,,,,,,,,,,,,,,,,,,,,,sub-106,3,stroop_test,60.040515340711714,
test,red,r,1.0,10.0,1.0,3.0,r,1.0,0.4843553999671712,,,,,,,,,,,,,,,,,,3.0,1.0,10.0,0.0,,,,,,,,,25.48155359999509,,,,,,,,,,,,,,,,,25.4671577999834,25.58142329996917,26.380691199970897,26.364890899974853,26.365581799997017,26.380691199970897,26.380691199970897,26.88158420001855,r,1.0,0.4843553999671712,,,,,,,,,,,,,,,,,,,,,,,,,,,,,,,,,,,,,,,sub-106,3,stroop_test,60.040515340711714,
test,blue,b,1.0,11.0,2.0,3.0,b,1.0,0.4063759000273421,,,,,,,,,,,,,,,,,,3.0,2.0,11.0,2.0,,,,,,,,,26.89696179999737,,,,,,,,,,,,,,,,,26.881957400008105,27.246573099982925,28.0458595000091,28.0300578000024,28.03088239999488,28.0458595000091,28.0458595000091,28.463339900015853,b,1.0,0.4063759000273421,,,,,,,,,,,,,,,,,,,,,,,,,,,,,,,,,,,,,,,sub-106,3,stroop_test,60.040515340711714,
,,,,,,,,,,,,,,,,,,,,,,,,,,,,,,,,,,,,,,,,,,,,,,,,,,,,,,,,,,,,,,,,,,,,28.463498700002678,28.47892069997033,28.47892069997033,30.745364799979143,space,2.2532101000542752,,,,,,,,,,,,,,,,,,,,,,,,,,,,,,,,sub-106,3,stroop_test,60.040515340711714,
,,,,0.0,0.0,0.0,,,,,gelb,yellow,g,1.0,g,1.0,0.8142859000363387,,,,,,,,,,,,,,0.0,0.0,0.0,10.0,,,,,30.76468899997417,,,,,,,,,,,,,,,,,30.76054639997892,31.10964530002093,31.90883309999481,31.89307769999141,,,,,,,,,,,,,,,,31.90270759997657,31.90883309999481,31.90883309999481,32.72659879998537,g,1.0,0.8142859000363387,,32.738560499972664,32.74843079998391,33.74076590000186,,,,,,,,,,,,,,,,,,,,sub-106,3,stroop_test,60.040515340711714,
,,,,1.0,1.0,0.0,,,,,gelb,blue,b,0.0,b,1.0,0.5050538000068627,,,,,,,,,,,,,,0.0,1.0,1.0,9.0,,,,,33.75709500000812,,,,,,,,,,,,,,,,,33.74139260000084,33.840355599997565,34.639669299998786,34.62396669998998,,,,,,,,,,,,,,,,34.624660399975255,34.639669299998786,34.639669299998786,35.15803559997585,b,1.0,0.5050538000068627,,35.158905200019944,35.1726358999731,36.171577400004026,,,,,,,,,,,,,,,,,,,,sub-106,3,stroop_test,60.040515340711714,
,,,,2.0,2.0,0.0,,,,,blau,yellow,g,0.0,g,1.0,0.4028445999720134,,,,,,,,,,,,,,0.0,2.0,2.0,7.0,,,,,36.18810939998366,,,,,,,,,,,,,,,,,36.17186140001286,36.9707633999642,37.77003830001922,37.75387399998726,,,,,,,,,,,,,,,,37.757638600014616,37.77003830001922,37.77003830001922,38.18743649998214,g,1.0,0.4028445999720134,,38.18793740001274,38.20301719999407,39.20211989997188,,,,,,,,,,,,,,,,,,,,sub-106,3,stroop_test,60.040515340711714,
,,,,3.0,3.0,0.0,,,,,gelb,yellow,g,1.0,g,1.0,0.3817825999576598,,,,,,,,,,,,,,0.0,3.0,3.0,11.0,,,,,39.21849389997078,,,,,,,,,,,,,,,,,39.20238079997944,39.55196979996981,40.35730229999172,40.33672760002082,,,,,,,,,,,,,,,,40.3472176999785,40.35730229999172,40.35730229999172,40.75361760001397,g,1.0,0.3817825999576598,,40.754816800006665,40.76756710000336,41.75225790002151,41.7670766999945,,,,,,,,,,,,,,,,,,,sub-106,3,stroop_test,60.040515340711714,
,,,,4.0,4.0,0.0,,,,,rot,red,r,1.0,r,1.0,0.3166256000404246,,,,,,,,,,,,,,0.0,4.0,4.0,1.0,,,,,41.7670766999945,,,,,,,,,,,,,,,,,41.75316899997415,42.96537220000755,43.77291800000239,43.75014449999435,,,,,,,,,,,,,,,,43.76491319999332,43.77291800000239,43.77291800000239,44.10133570001926,r,1.0,0.3166256000404246,,44.10288079996826,44.11466650001239,45.09836760000326,45.11362399999052,,,,,,,,,,,,,,,,,,,sub-106,3,stroop_test,60.040515340711714,
,,,,5.0,5.0,0.0,,,,,gelb,red,r,0.0,r,1.0,0.4919003999675624,,,,,,,,,,,,,,0.0,5.0,5.0,8.0,,,,,45.11362399999052,,,,,,,,,,,,,,,,,45.09901519998675,46.312405699980445,47.122258999967016,47.09741350001423,,,,,,,,,,,,,,,,47.11066970002139,47.122258999967016,47.122258999967016,47.63016760000028,r,1.0,0.4919003999675624,,47.631159299984574,47.64431619999232,48.62898989999667,48.643591100000776,,,,,,,,,,,,,,,,,,,sub-106,3,stroop_test,60.040515340711714,
,,,,6.0,6.0,0.0,,,,,blau,red,r,0.0,r,1.0,0.3950751000083983,,,,,,,,,,,,,,0.0,6.0,6.0,4.0,,,,,48.643591100000776,,,,,,,,,,,,,,,,,48.62977940001292,48.74376769998344,49.5459039999987,49.52792490000138,,,,,,,,,,,,,,,,49.53663970000344,49.5459039999987,49.5459039999987,49.94584790000226,r,1.0,0.3950751000083983,,49.94723709998652,49.95912159996806,50.94270539999707,50.95792780001648,,,,,,,,,,,,,,,,,,,sub-106,3,stroop_test,60.040515340711714,
,,,,7.0,7.0,0.0,,,,,rot,red,r,1.0,r,1.0,0.4896082999766804,,,,,,,,,,,,,,0.0,7.0,7.0,0.0,,,,,50.95792780001648,,,,,,,,,,,,,,,,,50.94333939999342,52.15683029999491,52.95611349999672,52.94039689999772,,,,,,,,,,,,,,,,52.94657249999,52.95611349999672,52.95611349999672,53.45648579997942,r,1.0,0.4896082999766804,,53.45701630000258,53.47201520000817,54.45599950000178,54.47148020000896,,,,,,,,,,,,,,,,,,,sub-106,3,stroop_test,60.040515340711714,
,,,,8.0,8.0,0.0,,,,,rot,blue,b,0.0,b,1.0,0.8652874000254087,,,,,,,,,,,,,,0.0,8.0,8.0,2.0,,,,,54.47148020000896,,,,,,,,,,,,,,,,,54.45661459997064,54.82131999998819,55.62048549996689,55.60576279996894,,,,,,,,,,,,,,,,55.607148099981714,55.62048549996689,55.62048549996689,56.48872670001583,b,1.0,0.8652874000254087,,56.48982499999693,56.50272380001843,57.486641499970574,57.5021243999945,,,,,,,,,,,,,,,,,,,sub-106,3,stroop_test,60.040515340711714,
,,,,9.0,9.0,0.0,,,,,rot,yellow,g,0.0,g,1.0,0.7576917999540456,,,,,,,,,,,,,,0.0,9.0,9.0,3.0,,,,,57.5021243999945,,,,,,,,,,,,,,,,,57.4873386999825,58.30087679997087,59.1005320000113,59.08513590000803,,,,,,,,,,,,,,,,59.08621629996924,59.1005320000113,59.1005320000113,59.86703710001893,g,1.0,0.7576917999540456,,59.86745259998133,59.882806800014805,60.86616619996494,60.88185229996452,,,,,,,,,,,,,,,,,,,sub-106,3,stroop_test,60.040515340711714,
,,,,10.0,10.0,0.0,,,,,blau,blue,b,1.0,b,1.0,0.5556828000117093,,,,,,,,,,,,,,0.0,10.0,10.0,5.0,,,,,60.88185229996452,,,,,,,,,,,,,,,,,60.86659609997878,61.68107210000744,62.48034760000883,62.46463890001178,,,,,,,,,,,,,,,,62.46993169997586,62.48034760000883,62.48034760000883,63.04806429997552,b,1.0,0.5556828000117093,,63.04878459998872,63.06318479997572,64.0465102000162,64.06210769998142,,,,,,,,,,,,,,,,,,,sub-106,3,stroop_test,60.040515340711714,
,,,,11.0,11.0,0.0,,,,,blau,blue,b,1.0,b,1.0,0.4530976000241935,,,,,,,,,,,,,,0.0,11.0,11.0,6.0,,,,,64.06210769998142,,,,,,,,,,,,,,,,,64.04697029996896,65.26096480002161,66.06034949998138,66.0445999999647,,,,,,,,,,,,,,,,66.0452607999905,66.06034949998138,66.06034949998138,66.52789600001415,b,1.0,0.4530976000241935,,66.52847999997903,66.5432311000186,67.52682929998264,67.5422205000068,,,,,,,,,,,,,,,,,,,sub-106,3,stroop_test,60.040515340711714,
,,,,12.0,0.0,1.0,,,,,blau,red,r,0.0,r,1.0,0.4834864000440575,,,,,,,,,,,,,,1.0,0.0,12.0,4.0,,,,,67.5422205000068,,,,,,,,,,,,,,,,,67.52736080001341,68.34149199997773,69.14082789997337,69.12505829997826,,,,,,,,,,,,,,,,69.12575969996396,69.14082789997337,69.14082789997337,69.64120650000405,r,1.0,0.4834864000440575,,69.64172800001688,69.65699499996845,70.64098109997576,70.65646259998903,,,,,,,,,,,,,,,,,,,sub-106,3,stroop_test,60.040515340711714,
,,,,13.0,1.0,1.0,,,,,blau,blue,b,1.0,b,1.0,0.4614280999521725,,,,,,,,,,,,,,1.0,1.0,13.0,6.0,,,,,70.65646259998903,,,,,,,,,,,,,,,,,70.64169809996383,71.85478160000639,72.65414659999078,72.63825149997137,,,,,,,,,,,,,,,,72.63891059998423,72.65414659999078,72.65414659999078,73.12178149999818,b,1.0,0.4614280999521725,,73.12272519996623,73.13699199998518,74.11997649999103,74.13587309996365,,,,,,,,,,,,,,,,,,,sub-106,3,stroop_test,60.040515340711714,
,,,,14.0,2.0,1.0,,,,,gelb,yellow,g,1.0,g,1.0,0.643834299989976,,,,,,,,,,,,,,1.0,2.0,14.0,10.0,,,,,74.13587309996365,,,,,,,,,,,,,,,,,74.12023289996432,74.23597089998657,75.03524579998339,75.01941599999554,,,,,,,,,,,,,,,,75.02603549999185,75.03524579998339,75.03524579998339,75.68626009998843,g,1.0,0.643834299989976,,75.68707450001966,75.70124799996847,76.6855033999891,76.70065279997652,,,,,,,,,,,,,,,,,,,sub-106,3,stroop_test,60.040515340711714,
,,,,15.0,3.0,1.0,,,,,rot,blue,b,0.0,b,1.0,0.6359947000164539,,,,,,,,,,,,,,1.0,3.0,15.0,2.0,,,,,76.70065279997652,,,,,,,,,,,,,,,,,76.6862360999803,76.80039609997766,77.59980969998287,77.58376179996412,,,,,,,,,,,,,,,,77.58888779999688,77.59980969998287,77.59980969998287,78.25117730000056,b,1.0,0.6359947000164539,,78.25213400000939,78.26577649998944,79.26483709999593,,,,,,,,,,,,,,,,,,,,sub-106,3,stroop_test,60.040515340711714,
,,,,16.0,4.0,1.0,,,,,blau,blue,b,1.0,b,1.0,0.4660700000240467,,,,,,,,,,,,,,1.0,4.0,16.0,5.0,,,,,79.28116730001057,,,,,,,,,,,,,,,,,79.26527769997483,79.61427089996869,80.41354460001457,80.3976775999763,,,,,,,,,,,,,,,,80.40239210001891,80.41354460001457,80.41354460001457,80.88137519999873,b,1.0,0.4660700000240467,,80.88207240001066,80.89646020001965,81.8796276000212,81.89543279999634,,,,,,,,,,,,,,,,,,,sub-106,3,stroop_test,60.040515340711714,
,,,,17.0,5.0,1.0,,,,,gelb,red,r,0.0,r,1.0,0.534652600006666,,,,,,,,,,,,,,1.0,5.0,17.0,8.0,,,,,81.89543279999634,,,,,,,,,,,,,,,,,81.88005169999087,82.69452199997613,83.49404059996596,83.47821929998463,,,,,,,,,,,,,,,,83.48426539998036,83.49404059996596,83.49404059996596,84.04423299996415,r,1.0,0.534652600006666,,84.04457510000793,84.06003779999446,85.04485070001101,85.05980619997717,,,,,,,,,,,,,,,,,,,sub-106,3,stroop_test,60.040515340711714,
,,,,18.0,6.0,1.0,,,,,gelb,blue,b,0.0,b,1.0,0.4988223999971524,,,,,,,,,,,,,,1.0,6.0,18.0,9.0,,,,,85.05980619997717,,,,,,,,,,,,,,,,,85.04583710001316,85.85866680002073,86.6577319999924,86.64202929998282,,,,,,,,,,,,,,,,86.64274089998798,86.6577319999924,86.6577319999924,87.16068719996838,b,1.0,0.4988223999971524,,87.16186170000583,87.1741404000204,88.17318639997393,,,,,,,,,,,,,,,,,,,,sub-106,3,stroop_test,60.040515340711714,
,,,,19.0,7.0,1.0,,,,,rot,red,r,1.0,r,1.0,0.4880868999753147,,,,,,,,,,,,,,1.0,7.0,19.0,0.0,,,,,88.190238900017,,,,,,,,,,,,,,,,,88.17355649999809,89.37183049996383,90.1710970000131,90.15531130001182,,,,,,,,,,,,,,,,90.16173380002148,90.1710970000131,90.1710970000131,90.67349859996466,r,1.0,0.4880868999753147,,90.67528199998196,90.68728459998964,91.67046970000956,91.6862638000166,,,,,,,,,,,,,,,,,,,sub-106,3,stroop_test,60.040515340711714,
,,,,20.0,8.0,1.0,,,,,rot,red,r,1.0,r,1.0,0.4710881000501103,,,,,,,,,,,,,,1.0,8.0,20.0,1.0,,,,,91.6862638000166,,,,,,,,,,,,,,,,,91.67089409998152,92.4856936999713,93.28487249999309,93.26891129999422,,,,,,,,,,,,,,,,93.26959169999463,93.28487249999309,93.28487249999309,93.76893089996884,r,1.0,0.4710881000501103,,93.7696024000179,93.7843620000058,94.76783279998926,94.78340859996388,,,,,,,,,,,,,,,,,,,sub-106,3,stroop_test,60.040515340711714,
,,,,21.0,9.0,1.0,,,,,gelb,yellow,g,1.0,g,1.0,1.0014736000448463,,,,,,,,,,,,,,1.0,9.0,21.0,11.0,,,,,94.78340859996388,,,,,,,,,,,,,,,,,94.76841979997698,94.88325690000784,95.6826069999952,95.66677010001148,,,,,,,,,,,,,,,,95.67177600000286,95.6826069999952,95.6826069999952,96.69988899998134,g,1.0,1.0014736000448463,,96.70063390000723,96.71498569997492,97.69826859998284,97.71394220000366,,,,,,,,,,,,,,,,,,,sub-106,3,stroop_test,60.040515340711714,
,,,,22.0,10.0,1.0,,,,,rot,yellow,g,0.0,g,1.0,0.5520042999996804,,,,,,,,,,,,,,1.0,10.0,22.0,3.0,,,,,97.71394220000366,,,,,,,,,,,,,,,,,97.69864309998228,98.91289370000597,99.71219009999186,99.6963981000008,,,,,,,,,,,,,,,,99.70144089998212,99.71219009999186,99.71219009999186,100.27988619997632,g,1.0,0.5520042999996804,,100.28060800000094,100.29502499999944,101.27835290000075,101.29399779997766,,,,,,,,,,,,,,,,,,,sub-106,3,stroop_test,60.040515340711714,
,,,,23.0,11.0,1.0,,,,,blau,yellow,g,0.0,g,1.0,0.5614419000339694,,,,,,,,,,,,,,1.0,11.0,23.0,7.0,,,,,101.29399779997766,,,,,,,,,,,,,,,,,101.27882529998897,102.49287219997495,103.29230709996772,103.276580500009,,,,,,,,,,,,,,,,103.28229299996748,103.29230709996772,103.29230709996772,103.8611131000216,g,1.0,0.5614419000339694,,103.86229949997504,103.8751992000034,104.8593568999786,104.8745956000057,,,,,,,,,,,,,,,,,,,sub-106,3,stroop_test,60.040515340711714,
,,,,,,,,,,,,,,,,,,,,,,,,,,,,,,,,,,,,,,,,,,,,,,,,,,,,,,,,,,,,,,,,,,,,,,,,,,,,,,,,,,,,,,,104.85973039997045,104.8745956000057,104.8745956000057,107.59006279997992,space,2.7075563999824226,,,,,,,,,,,,,sub-106,3,stroop_test,60.040515340711714,
,,,,0.0,0.0,0.0,,,,,,,,,,,,,blau,blue,b,1.0,b,1.0,0.6559323000255972,,,,,,,,,,0.0,0.0,0.0,5.0,107.6070738999988,,,,,,,,,,,,,,,,,107.6032546000206,107.70515049999813,108.5061123999767,108.48911520000549,,,,,,,,,,,,,,,,,,,,,,,,,,,,,,,,,,,108.49679840001043,108.5061123999767,108.5061123999767,109.17302879999625,b,1.0,0.6559323000255972,,,,,sub-106,3,stroop_test,60.040515340711714,
,,,,1.0,1.0,0.0,,,,,,,,,,,,,rot,red,r,1.0,r,1.0,0.3974317000247538,,,,,,,,,,0.0,1.0,1.0,0.0,109.18680229998428,,,,,,,,,,,,,,,,,109.17387920001056,109.53676509996876,110.3448739000014,110.32143110001924,,,,,,,,,,,,,,,,,,,,,,,,,,,,,,,,,,,110.33349839999572,110.3448739000014,110.3448739000014,110.75555349997012,r,1.0,0.3974317000247538,,,,,sub-106,3,stroop_test,60.040515340711714,
,,,,2.0,2.0,0.0,,,,,,,,,,,,,gelb,red,r,0.0,r,1.0,0.404514400055632,,,,,,,,,,0.0,2.0,2.0,8.0,110.76862420002,,,,,,,,,,,,,,,,,110.756668899965,111.5681686999742,112.37370100000408,112.35254160000476,,,,,,,,,,,,,,,,,,,,,,,,,,,,,,,,,,,112.36314370000036,112.37370100000408,112.37370100000408,112.78511910000816,r,1.0,0.404514400055632,,,,,sub-106,3,stroop_test,60.040515340711714,
,,,,3.0,3.0,0.0,,,,,,,,,,,,,blau,blue,b,1.0,b,1.0,0.5157770999940112,,,,,,,,,,0.0,3.0,3.0,6.0,112.79977859999052,,,,,,,,,,,,,,,,,112.78560730000028,113.15007400000468,113.96553940000013,113.9496999999974,,,,,,,,,,,,,,,,,,,,,,,,,,,,,,,,,,,113.95441160001792,113.96553940000013,113.96553940000013,114.4847675000201,b,1.0,0.5157770999940112,,,,,sub-106,3,stroop_test,60.040515340711714,
,,,,4.0,4.0,0.0,,,,,,,,,,,,,gelb,yellow,g,1.0,g,1.0,0.5530578999896534,,,,,,,,,,0.0,4.0,4.0,11.0,114.49847839999713,,,,,,,,,,,,,,,,,114.48562479997054,114.59865639999045,115.41417419997742,115.3983177000191,,,,,,,,,,,,,,,,,,,,,,,,,,,,,,,,,,,115.40327239996986,115.41417419997742,115.41417419997742,115.98155889997724,g,1.0,0.5530578999896534,,,,,sub-106,3,stroop_test,60.040515340711714,
,,,,5.0,5.0,0.0,,,,,,,,,,,,,blau,yellow,g,0.0,g,1.0,0.4193913000053726,,,,,,,,,,0.0,5.0,5.0,7.0,115.99682940001368,,,,,,,,,,,,,,,,,115.9819051999948,116.79611489997478,117.59542739996688,117.57927019998895,,,,,,,,,,,,,,,,,,,,,,,,,,,,,,,,,,,117.5827756000217,117.59542739996688,117.59542739996688,118.02965480001876,g,1.0,0.4193913000053726,,,,,sub-106,3,stroop_test,60.040515340711714,
,,,,6.0,6.0,0.0,,,,,,,,,,,,,gelb,yellow,g,1.0,g,1.0,0.388081900018733,,,,,,,,,,0.0,6.0,6.0,10.0,118.04491679999046,,,,,,,,,,,,,,,,,118.03004320000764,119.24415909999516,120.04643609997584,120.02843649999704,,,,,,,,,,,,,,,,,,,,,,,,,,,,,,,,,,,120.03776119998656,120.04643609997584,120.04643609997584,120.44450639997376,g,1.0,0.388081900018733,,,,,sub-106,3,stroop_test,60.040515340711714,
,,,,7.0,7.0,0.0,,,,,,,,,,,,,rot,red,r,1.0,r,1.0,0.5142080999794416,,,,,,,,,,0.0,7.0,7.0,1.0,120.45934160001345,,,,,,,,,,,,,,,,,120.44501899997704,120.55957939999644,121.35864130000118,121.34274110000116,,,,,,,,,,,,,,,,,,,,,,,,,,,,,,,,,,,121.34609449998244,121.35864130000118,121.35864130000118,121.87800839997362,r,1.0,0.5142080999794416,,,,,sub-106,3,stroop_test,60.040515340711714,
,,,,8.0,8.0,0.0,,,,,,,,,,,,,gelb,blue,b,0.0,b,1.0,0.4914893000386655,,,,,,,,,,0.0,8.0,8.0,9.0,121.89147959998807,,,,,,,,,,,,,,,,,121.87890539999351,122.24150950001786,123.04280150000704,123.02554729999974,,,,,,,,,,,,,,,,,,,,,,,,,,,,,,,,,,,123.03361609997228,123.04280150000704,123.04280150000704,123.5439804000198,b,1.0,0.4914893000386655,,,,,sub-106,3,stroop_test,60.040515340711714,
,,,,9.0,9.0,0.0,,,,,,,,,,,,,rot,blue,b,0.0,b,1.0,0.468112500035204,,,,,,,,,,0.0,9.0,9.0,2.0,123.5569238999742,,,,,,,,,,,,,,,,,123.54503999999724,124.35629959998188,125.15542349999303,125.13966310000978,,,,,,,,,,,,,,,,,,,,,,,,,,,,,,,,,,,125.14606250001816,125.15542349999303,125.15542349999303,125.63961800001562,b,1.0,0.468112500035204,,,,,sub-106,3,stroop_test,60.040515340711714,
,,,,10.0,10.0,0.0,,,,,,,,,,,,,rot,yellow,g,0.0,g,1.0,0.5468426999868825,,,,,,,,,,0.0,10.0,10.0,3.0,125.65449099999388,,,,,,,,,,,,,,,,,125.6401228000177,125.75467120000394,126.55429880000884,126.53889630001504,,,,,,,,,,,,,,,,,,,,,,,,,,,,,,,,,,,126.54002570000011,126.55429880000884,126.55429880000884,127.10631140001352,g,1.0,0.5468426999868825,,,,,sub-106,3,stroop_test,60.040515340711714,
,,,,11.0,11.0,0.0,,,,,,,,,,,,,blau,red,r,0.0,r,1.0,0.3656456000171602,,,,,,,,,,0.0,11.0,11.0,4.0,127.12007249996532,,,,,,,,,,,,,,,,,127.10712579998652,127.91914010001346,128.71830459998455,128.70243750000373,,,,,,,,,,,,,,,,,,,,,,,,,,,,,,,,,,,128.70571619999828,128.71830459998455,128.71830459998455,129.0891496000113,r,1.0,0.3656456000171602,,,,,sub-106,3,stroop_test,60.040515340711714,
,,,,12.0,0.0,1.0,,,,,,,,,,,,,blau,yellow,g,0.0,g,1.0,0.5553672999958508,,,,,,,,,,1.0,0.0,12.0,7.0,129.1016990999924,,,,,,,,,,,,,,,,,129.0902875000029,129.45117570000002,130.25100950000342,130.23600219999207,,,,,,,,,,,,,,,,,,,,,,,,,,,,,,,,,,,130.23752039996907,130.25100950000342,130.25100950000342,130.8194389999844,g,1.0,0.5553672999958508,,,,,sub-106,3,stroop_test,60.040515340711714,
,,,,13.0,1.0,1.0,,,,,,,,,,,,,rot,blue,b,0.0,b,1.0,0.4013231999706477,,,,,,,,,,1.0,1.0,13.0,2.0,130.83315369999036,,,,,,,,,,,,,,,,,130.8202707999735,131.18352839996805,131.99877730000298,131.98345220001647,,,,,,,,,,,,,,,,,,,,,,,,,,,,,,,,,,,131.991312499973,131.99877730000298,131.99877730000298,132.41764549998334,b,1.0,0.4013231999706477,,,,,sub-106,3,stroop_test,60.040515340711714,
,,,,14.0,2.0,1.0,,,,,,,,,,,,,blau,blue,b,1.0,b,1.0,0.3714882999775,,,,,,,,,,1.0,2.0,14.0,6.0,132.4314568999689,,,,,,,,,,,,,,,,,132.41860139998607,133.23141720000422,134.04714929999318,134.03154449997237,,,,,,,,,,,,,,,,,,,,,,,,,,,,,,,,,,,134.03786480001872,134.04714929999318,134.04714929999318,134.43216769996798,b,1.0,0.3714882999775,,,,,sub-106,3,stroop_test,60.040515340711714,
,,,,15.0,3.0,1.0,,,,,,,,,,,,,blau,red,r,0.0,b,0.0,0.7763929999782704,,,,,,,,,,1.0,3.0,15.0,4.0,134.44638689997373,,,,,,,,,,,,,,,,,134.4328356999904,135.24581320001744,136.045148300007,136.03001529996982,,,,,,,,,,,,,,,,,,,,,,,,,,,,,,,,,,,136.03119499998866,136.045148300007,136.045148300007,136.83048030000646,b,0.0,0.7763929999782704,,,,,sub-106,3,stroop_test,60.040515340711714,
,,,,16.0,4.0,1.0,,,,,,,,,,,,,gelb,yellow,g,1.0,g,1.0,0.4946990000316873,,,,,,,,,,1.0,4.0,16.0,11.0,136.84427820000565,,,,,,,,,,,,,,,,,136.8313178999815,137.64355019998038,138.44447129999753,138.4280349999899,,,,,,,,,,,,,,,,,,,,,,,,,,,,,,,,,,,138.43673199997284,138.44447129999753,138.44447129999753,138.94534989999374,g,1.0,0.4946990000316873,,,,,sub-106,3,stroop_test,60.040515340711714,
,,,,17.0,5.0,1.0,,,,,,,,,,,,,gelb,blue,b,0.0,b,1.0,1.0351194000104442,,,,,,,,,,1.0,5.0,17.0,9.0,138.95895499998005,,,,,,,,,,,,,,,,,138.94615119998343,139.0593238999718,139.87501829996472,139.85947939998005,,,,,,,,,,,,,,,,,,,,,,,,,,,,,,,,,,,139.86057489999803,139.87501829996472,139.87501829996472,140.9262418000144,b,1.0,1.0351194000104442,,,,,sub-106,3,stroop_test,60.040515340711714,
,,,,18.0,6.0,1.0,,,,,,,,,,,,,blau,blue,b,1.0,b,1.0,0.8516025000135414,,,,,,,,,,1.0,6.0,18.0,5.0,140.94023700000253,,,,,,,,,,,,,,,,,140.92706919997,142.13969400001224,142.95588839997072,142.94003160001012,,,,,,,,,,,,,,,,,,,,,,,,,,,,,,,,,,,142.94776000001002,142.95588839997072,142.95588839997072,143.8235152999987,b,1.0,0.8516025000135414,,,,,sub-106,3,stroop_test,60.040515340711714,
,,,,19.0,7.0,1.0,,,,,,,,,,,,,rot,yellow,g,0.0,r,0.0,1.1225842999992892,,,,,,,,,,1.0,7.0,19.0,3.0,143.8377260999987,,,,,,,,,,,,,,,,,143.8243144999724,144.18773870001314,145.00316829996882,144.98720049997792,,,,,,,,,,,,,,,,,,,,,,,,,,,,,,,,,,,144.9924834999838,145.00316829996882,145.00316829996882,146.1382125999662,r,0.0,1.1225842999992892,,,,,sub-106,3,stroop_test,60.040515340711714,
,,,,20.0,8.0,1.0,,,,,,,,,,,,,rot,red,r,1.0,r,1.0,0.5939763999776915,,,,,,,,,,1.0,8.0,20.0,0.0,146.15219270001398,,,,,,,,,,,,,,,,,146.13904009998078,146.95198750001146,147.76752649998525,147.75166559999343,,,,,,,,,,,,,,,,,,,,,,,,,,,,,,,,,,,147.75253150000935,147.76752649998525,147.76752649998525,148.36904379999032,r,1.0,0.5939763999776915,,,,,sub-106,3,stroop_test,60.040515340711714,
,,,,21.0,9.0,1.0,,,,,,,,,,,,,rot,red,r,1.0,r,1.0,0.4704658000264317,,,,,,,,,,1.0,9.0,21.0,1.0,148.38326339999912,,,,,,,,,,,,,,,,,148.36969650001265,149.18246199999703,149.98181470000418,149.96594069997082,,,,,,,,,,,,,,,,,,,,,,,,,,,,,,,,,,,149.9665806000121,149.98181470000418,149.98181470000418,150.46760159998666,r,1.0,0.4704658000264317,,,,,sub-106,3,stroop_test,60.040515340711714,
,,,,22.0,10.0,1.0,,,,,,,,,,,,,gelb,yellow,g,1.0,g,1.0,0.4949013000004925,,,,,,,,,,1.0,10.0,22.0,10.0,150.48156539996853,,,,,,,,,,,,,,,,,150.4684050999931,151.2811238999711,152.08520550001413,152.06537049997132,,,,,,,,,,,,,,,,,,,,,,,,,,,,,,,,,,,152.07574900001055,152.08520550001413,152.08520550001413,152.582448799978,g,1.0,0.4949013000004925,,,,,sub-106,3,stroop_test,60.040515340711714,
,,,,23.0,11.0,1.0,,,,,,,,,,,,,gelb,red,r,0.0,r,1.0,0.8675687999930233,,,,,,,,,,1.0,11.0,23.0,8.0,152.59611949999817,,,,,,,,,,,,,,,,,152.58317970001372,152.9462548000156,153.74522450001675,153.7300402999972,,,,,,,,,,,,,,,,,,,,,,,,,,,,,,,,,,,153.73115860001417,153.74522450001675,153.74522450001675,154.63004859996727,r,1.0,0.8675687999930233,,,,,sub-106,3,stroop_test,60.040515340711714,
,,,,24.0,0.0,2.0,,,,,,,,,,,,,blau,yellow,g,0.0,g,1.0,1.2098334999755025,,,,,,,,,,2.0,0.0,24.0,7.0,154.64429670001846,,,,,,,,,,,,,,,,,154.6309181000106,154.9940373999998,155.80050429998664,155.7782585999812,,,,,,,,,,,,,,,,,,,,,,,,,,,,,,,,,,,155.78750490001403,155.80050429998664,155.80050429998664,157.02693739999086,g,1.0,1.2098334999755025,,,,,sub-106,3,stroop_test,60.040515340711714,
,,,,25.0,1.0,2.0,,,,,,,,,,,,,blau,blue,b,1.0,b,1.0,0.8766095000319183,,,,,,,,,,2.0,1.0,25.0,5.0,157.0417881999747,,,,,,,,,,,,,,,,,157.02749609999591,157.14232669997727,157.95824239996728,157.94261029997142,,,,,,,,,,,,,,,,,,,,,,,,,,,,,,,,,,,157.94372400001157,157.95824239996728,157.95824239996728,158.84436669998104,b,1.0,0.8766095000319183,,,,,sub-106,3,stroop_test,60.040515340711714,
,,,,26.0,2.0,2.0,,,,,,,,,,,,,rot,red,r,1.0,r,1.0,0.470595599967055,,,,,,,,,,2.0,2.0,26.0,1.0,158.85705310001504,,,,,,,,,,,,,,,,,158.8454427999677,160.0562752999831,160.86448729998665,160.84105469996575,,,,,,,,,,,,,,,,,,,,,,,,,,,,,,,,,,,160.85335140000095,160.86448729998665,160.86448729998665,161.34167649998562,r,1.0,0.470595599967055,,,,,sub-106,3,stroop_test,60.040515340711714,
,,,,27.0,3.0,2.0,,,,,,,,,,,,,blau,red,r,0.0,r,1.0,0.4538727999897674,,,,,,,,,,2.0,3.0,27.0,4.0,161.35481270001037,,,,,,,,,,,,,,,,,161.34279259998584,162.55384010000853,163.35270049999235,163.33708769996883,,,,,,,,,,,,,,,,,,,,,,,,,,,,,,,,,,,163.34188530000392,163.35270049999235,163.35270049999235,163.82222979998917,r,1.0,0.4538727999897674,,,,,sub-106,3,stroop_test,60.040515340711714,
,,,,28.0,4.0,2.0,,,,,,,,,,,,,gelb,red,r,0.0,r,1.0,0.424534699996002,,,,,,,,,,2.0,4.0,28.0,8.0,163.83583389996784,,,,,,,,,,,,,,,,,163.82314049999695,164.63519050000468,165.43588800000725,165.4194215000025,,,,,,,,,,,,,,,,,,,,,,,,,,,,,,,,,,,165.42747529997723,165.43588800000725,165.43588800000725,165.86996229999932,r,1.0,0.424534699996002,,,,,sub-106,3,stroop_test,60.040515340711714,
,,,,29.0,5.0,2.0,,,,,,,,,,,,,rot,yellow,g,0.0,g,1.0,1.264928399992641,,,,,,,,,,2.0,5.0,29.0,3.0,165.88351010001497,,,,,,,,,,,,,,,,,165.87089750001903,166.68331180000678,167.48648479999974,167.4670591999893,,,,,,,,,,,,,,,,,,,,,,,,,,,,,,,,,,,167.4765963999671,167.48648479999974,167.48648479999974,168.76717740000458,g,1.0,1.264928399992641,,,,,sub-106,3,stroop_test,60.040515340711714,
,,,,30.0,6.0,2.0,,,,,,,,,,,,,gelb,yellow,g,1.0,g,1.0,0.3717347999918274,,,,,,,,,,2.0,6.0,30.0,11.0,168.78143480001015,,,,,,,,,,,,,,,,,168.7680233999854,169.13101969996933,169.93900999997277,169.91605980001623,,,,,,,,,,,,,,,,,,,,,,,,,,,,,,,,,,,169.9275499000214,169.93900999997277,169.93900999997277,170.31681619997835,g,1.0,0.3717347999918274,,,,,sub-106,3,stroop_test,60.040515340711714,
,,,,31.0,7.0,2.0,,,,,,,,,,,,,rot,blue,b,0.0,b,1.0,0.7191629000008106,,,,,,,,,,2.0,7.0,31.0,2.0,170.32974630000535,,,,,,,,,,,,,,,,,170.3179324999801,171.52879060001578,172.32834920001915,172.31255610001972,,,,,,,,,,,,,,,,,,,,,,,,,,,,,,,,,,,172.32028320000973,172.32834920001915,172.32834920001915,173.06257740000729,b,1.0,0.7191629000008106,,,,,sub-106,3,stroop_test,60.040515340711714,
,,,,32.0,8.0,2.0,,,,,,,,,,,,,blau,blue,b,1.0,b,1.0,0.4669020000146702,,,,,,,,,,2.0,8.0,32.0,6.0,173.0768893000204,,,,,,,,,,,,,,,,,173.06332449999172,173.4270846999716,174.22742189996643,174.21086779999314,,,,,,,,,,,,,,,,,,,,,,,,,,,,,,,,,,,174.2200752000208,174.22742189996643,174.22742189996643,174.71220930002164,b,1.0,0.4669020000146702,,,,,sub-106,3,stroop_test,60.040515340711714,
,,,,33.0,9.0,2.0,,,,,,,,,,,,,rot,red,r,1.0,r,1.0,0.4778469000011682,,,,,,,,,,2.0,9.0,33.0,0.0,174.7253403000068,,,,,,,,,,,,,,,,,174.71341809997102,174.8252143000136,175.6277442999999,175.60954019997737,,,,,,,,,,,,,,,,,,,,,,,,,,,,,,,,,,,175.61860960000195,175.6277442999999,175.6277442999999,176.11040999996476,r,1.0,0.4778469000011682,,,,,sub-106,3,stroop_test,60.040515340711714,
,,,,34.0,10.0,2.0,,,,,,,,,,,,,gelb,yellow,g,1.0,g,1.0,0.4017116000177338,,,,,,,,,,2.0,10.0,34.0,10.0,176.1241822000011,,,,,,,,,,,,,,,,,176.11123249999946,177.3233800000162,178.12513060000492,178.1073810000089,,,,,,,,,,,,,,,,,,,,,,,,,,,,,,,,,,,178.116683500004,178.12513060000492,178.12513060000492,178.5399219999672,g,1.0,0.4017116000177338,,,,,sub-106,3,stroop_test,60.040515340711714,
,,,,35.0,11.0,2.0,,,,,,,,,,,,,gelb,blue,b,0.0,b,1.0,0.5975184999988414,,,,,,,,,,2.0,11.0,35.0,9.0,178.55503360001603,,,,,,,,,,,,,,,,,178.54030629998306,179.35481950000394,180.1704303000006,180.1546745999949,,,,,,,,,,,,,,,,,,,,,,,,,,,,,,,,,,,180.15551379998212,180.1704303000006,180.1704303000006,180.7716347000096,b,1.0,0.5975184999988414,,,,,sub-106,3,stroop_test,60.040515340711714,
,,,,36.0,0.0,3.0,,,,,,,,,,,,,rot,red,r,1.0,r,1.0,0.4293601999524981,,,,,,,,,,3.0,0.0,36.0,1.0,180.7863137999666,,,,,,,,,,,,,,,,,180.77224730001765,181.98580450000009,182.7903080999968,182.77003139996668,,,,,,,,,,,,,,,,,,,,,,,,,,,,,,,,,,,182.7817615999957,182.7903080999968,182.7903080999968,183.2363917999901,r,1.0,0.4293601999524981,,,,,sub-106,3,stroop_test,60.040515340711714,
,,,,37.0,1.0,3.0,,,,,,,,,,,,,blau,red,r,0.0,r,1.0,0.60222669999348,,,,,,,,,,3.0,1.0,37.0,4.0,183.2505939999828,,,,,,,,,,,,,,,,,183.23714370001107,183.35108089999997,184.15459190000547,184.1348446999909,,,,,,,,,,,,,,,,,,,,,,,,,,,,,,,,,,,184.14597610000052,184.15459190000547,184.15459190000547,184.76749019999988,r,1.0,0.60222669999348,,,,,sub-106,3,stroop_test,60.040515340711714,
,,,,38.0,2.0,3.0,,,,,,,,,,,,,blau,blue,b,1.0,b,1.0,0.5732643000083044,,,,,,,,,,3.0,2.0,38.0,5.0,184.78244729997823,,,,,,,,,,,,,,,,,184.76797980000265,185.58225049998143,186.381595999992,186.36644239997256,,,,,,,,,,,,,,,,,,,,,,,,,,,,,,,,,,,186.367668699997,186.381595999992,186.381595999992,186.9654967999668,b,1.0,0.5732643000083044,,,,,sub-106,3,stroop_test,60.040515340711714,
,,,,39.0,3.0,3.0,,,,,,,,,,,,,blau,blue,b,1.0,b,1.0,0.4362163000041619,,,,,,,,,,3.0,3.0,39.0,6.0,186.9804289999884,,,,,,,,,,,,,,,,,186.9660391000216,187.77998160000425,188.57929789996703,188.5640676000039,,,,,,,,,,,,,,,,,,,,,,,,,,,,,,,,,,,188.5650192999747,188.57929789996703,188.57929789996703,189.0311627999763,b,1.0,0.4362163000041619,,,,,sub-106,3,stroop_test,60.040515340711714,
,,,,40.0,4.0,3.0,,,,,,,,,,,,,gelb,yellow,g,1.0,g,1.0,0.4647071000072174,,,,,,,,,,3.0,4.0,40.0,11.0,189.04540589998945,,,,,,,,,,,,,,,,,189.03188299998877,189.3954667999642,190.1985824999865,190.17954350000943,,,,,,,,,,,,,,,,,,,,,,,,,,,,,,,,,,,190.18933889997425,190.1985824999865,190.1985824999865,190.67894329997944,g,1.0,0.4647071000072174,,,,,sub-106,3,stroop_test,60.040515340711714,
,,,,41.0,5.0,3.0,,,,,,,,,,,,,rot,blue,b,0.0,r,0.0,0.4957073999685235,,,,,,,,,,3.0,5.0,41.0,2.0,190.6936409000191,,,,,,,,,,,,,,,,,190.67954139999347,190.79396649997216,191.5986672000145,191.5780672999681,,,,,,,,,,,,,,,,,,,,,,,,,,,,,,,,,,,191.58891419996507,191.5986672000145,191.5986672000145,192.1113829999813,r,0.0,0.4957073999685235,,,,,sub-106,3,stroop_test,60.040515340711714,
,,,,42.0,6.0,3.0,,,,,,,,,,,,,gelb,blue,b,0.0,b,1.0,0.7032659000251442,,,,,,,,,,3.0,6.0,42.0,9.0,192.12561849999477,,,,,,,,,,,,,,,,,192.1120446000132,192.4756514999899,193.27690739999525,193.2596501999651,,,,,,,,,,,,,,,,,,,,,,,,,,,,,,,,,,,193.2687482999754,193.27690739999525,193.27690739999525,193.9917545000208,b,1.0,0.7032659000251442,,,,,sub-106,3,stroop_test,60.040515340711714,
,,,,43.0,7.0,3.0,,,,,,,,,,,,,rot,red,r,1.0,r,1.0,0.4892246999661438,,,,,,,,,,3.0,7.0,43.0,0.0,194.00745199999076,,,,,,,,,,,,,,,,,193.99211829999692,195.2061859999667,196.0076583999908,195.99063109996496,,,,,,,,,,,,,,,,,,,,,,,,,,,,,,,,,,,195.9992130000028,196.0076583999908,196.0076583999908,196.50895410001976,r,1.0,0.4892246999661438,,,,,sub-106,3,stroop_test,60.040515340711714,
,,,,44.0,8.0,3.0,,,,,,,,,,,,,blau,yellow,g,0.0,g,1.0,0.6715966999763623,,,,,,,,,,3.0,8.0,44.0,7.0,196.52202490001216,,,,,,,,,,,,,,,,,196.51003409997796,197.32129130000249,198.1241304000141,198.10528519999932,,,,,,,,,,,,,,,,,,,,,,,,,,,,,,,,,,,198.11467029998312,198.1241304000141,198.1241304000141,198.8059863999952,g,1.0,0.6715966999763623,,,,,sub-106,3,stroop_test,60.040515340711714,
,,,,45.0,9.0,3.0,,,,,,,,,,,,,rot,yellow,g,0.0,g,1.0,0.400452799978666,,,,,,,,,,3.0,9.0,45.0,3.0,198.8196341000148,,,,,,,,,,,,,,,,,198.8068154999637,199.1695342999883,199.97825440001907,199.95445399999156,,,,,,,,,,,,,,,,,,,,,,,,,,,,,,,,,,,199.9678465999896,199.97825440001907,199.97825440001907,200.38709550001656,g,1.0,0.400452799978666,,,,,sub-106,3,stroop_test,60.040515340711714,
,,,,46.0,10.0,3.0,,,,,,,,,,,,,gelb,yellow,g,1.0,g,1.0,0.326969799993094,,,,,,,,,,3.0,10.0,46.0,10.0,200.4013267999981,,,,,,,,,,,,,,,,,200.3877647999907,200.75172379997093,201.55400349997217,201.53566639998465,,,,,,,,,,,,,,,,,,,,,,,,,,,,,,,,,,,201.5447659000056,201.55400349997217,201.55400349997217,201.8868730000104,g,1.0,0.326969799993094,,,,,sub-106,3,stroop_test,60.040515340711714,
,,,,47.0,11.0,3.0,,,,,,,,,,,,,gelb,red,r,0.0,r,1.0,0.517035000026226,,,,,,,,,,3.0,11.0,47.0,8.0,201.9001839999692,,,,,,,,,,,,,,,,,201.88778459996684,203.099136099976,203.89858540002024,203.88376499997685,,,,,,,,,,,,,,,,,,,,,,,,,,,,,,,,,,,203.8852440000046,203.89858540002024,203.89858540002024,204.4326998000033,r,1.0,0.517035000026226,,,,,sub-106,3,stroop_test,60.040515340711714,
,,,,48.0,0.0,4.0,,,,,,,,,,,,,rot,red,r,1.0,r,1.0,0.4782478000270203,,,,,,,,,,4.0,0.0,48.0,1.0,204.447447500017,,,,,,,,,,,,,,,,,204.43338010000295,204.79715820000277,205.60082729998976,205.5817022999981,,,,,,,,,,,,,,,,,,,,,,,,,,,,,,,,,,,205.59167389996583,205.60082729998976,205.60082729998976,206.08239310001957,r,1.0,0.4782478000270203,,,,,sub-106,3,stroop_test,60.040515340711714,
,,,,49.0,1.0,4.0,,,,,,,,,,,,,gelb,blue,b,0.0,b,1.0,0.6420486000133678,,,,,,,,,,4.0,1.0,49.0,9.0,206.09625980001877,,,,,,,,,,,,,,,,,206.08320749999257,206.1959169000038,206.99498089996632,206.9790853000013,,,,,,,,,,,,,,,,,,,,,,,,,,,,,,,,,,,206.98177549999676,206.99498089996632,206.99498089996632,207.6463725999929,b,1.0,0.6420486000133678,,,,,sub-106,3,stroop_test,60.040515340711714,
,,,,50.0,2.0,4.0,,,,,,,,,,,,,rot,blue,b,0.0,b,1.0,0.4260768999811262,,,,,,,,,,4.0,2.0,50.0,2.0,207.66111539996928,,,,,,,,,,,,,,,,,207.64685630000892,208.86052549997112,209.67023559997324,209.6452143000206,,,,,,,,,,,,,,,,,,,,,,,,,,,,,,,,,,,209.65626720001453,209.67023559997324,209.67023559997324,210.111982500006,b,1.0,0.4260768999811262,,,,,sub-106,3,stroop_test,60.040515340711714,
,,,,51.0,3.0,4.0,,,,,,,,,,,,,blau,blue,b,1.0,b,1.0,0.4132889999891631,,,,,,,,,,4.0,3.0,51.0,6.0,210.12573249998968,,,,,,,,,,,,,,,,,210.11279440001817,211.324729999993,212.125370499969,212.1089264000184,,,,,,,,,,,,,,,,,,,,,,,,,,,,,,,,,,,212.1172579000122,212.125370499969,212.125370499969,212.5428479000111,b,1.0,0.4132889999891631,,,,,sub-106,3,stroop_test,60.040515340711714,
,,,,52.0,4.0,4.0,,,,,,,,,,,,,gelb,yellow,g,1.0,g,1.0,0.4616080000414513,,,,,,,,,,4.0,4.0,52.0,10.0,212.55676890001632,,,,,,,,,,,,,,,,,212.54364940000232,213.75601479999025,214.55839159997413,214.5401274000178,,,,,,,,,,,,,,,,,,,,,,,,,,,,,,,,,,,214.5493188999826,214.55839159997413,214.55839159997413,215.02252870000663,g,1.0,0.4616080000414513,,,,,sub-106,3,stroop_test,60.040515340711714,
,,,,53.0,5.0,4.0,,,,,,,,,,,,,blau,blue,b,1.0,b,1.0,0.5778298999648541,,,,,,,,,,4.0,5.0,53.0,5.0,215.0375661000144,,,,,,,,,,,,,,,,,215.0229828999727,216.2365616000025,217.03926410002168,217.0213193999953,,,,,,,,,,,,,,,,,,,,,,,,,,,,,,,,,,,217.03034529997967,217.03926410002168,217.03926410002168,217.62200669996676,b,1.0,0.5778298999648541,,,,,sub-106,3,stroop_test,60.040515340711714,
,,,,54.0,6.0,4.0,,,,,,,,,,,,,rot,red,r,1.0,r,1.0,0.5014546999591403,,,,,,,,,,4.0,6.0,54.0,0.0,217.6354215000174,,,,,,,,,,,,,,,,,217.6228981000022,217.9853237000061,218.79042689997004,218.76963250001427,,,,,,,,,,,,,,,,,,,,,,,,,,,,,,,,,,,218.7806997000007,218.79042689997004,218.79042689997004,219.30417869996745,r,1.0,0.5014546999591403,,,,,sub-106,3,stroop_test,60.040515340711714,
,,,,55.0,7.0,4.0,,,,,,,,,,,,,blau,red,r,0.0,r,1.0,0.4085947000421583,,,,,,,,,,4.0,7.0,55.0,4.0,219.31723370001416,,,,,,,,,,,,,,,,,219.30511429999024,219.4171585000004,220.2182987999986,220.2010060999892,,,,,,,,,,,,,,,,,,,,,,,,,,,,,,,,,,,220.2091467999853,220.2182987999986,220.2182987999986,220.6355919999769,r,1.0,0.4085947000421583,,,,,sub-106,3,stroop_test,60.040515340711714,
,,,,56.0,8.0,4.0,,,,,,,,,,,,,rot,yellow,g,0.0,g,1.0,0.5553103999700397,,,,,,,,,,4.0,8.0,56.0,3.0,220.64930869999807,,,,,,,,,,,,,,,,,220.6363950999803,220.9989237000118,221.8004792999709,221.78287160000764,,,,,,,,,,,,,,,,,,,,,,,,,,,,,,,,,,,221.79189739999129,221.8004792999709,221.8004792999709,222.36706780001987,g,1.0,0.5553103999700397,,,,,sub-106,3,stroop_test,60.040515340711714,
,,,,57.0,9.0,4.0,,,,,,,,,,,,,blau,yellow,g,0.0,g,1.0,0.3501945000025444,,,,,,,,,,4.0,9.0,57.0,7.0,222.381046399998,,,,,,,,,,,,,,,,,222.3678887999849,222.7309598000138,223.5314921999816,223.5150174999726,,,,,,,,,,,,,,,,,,,,,,,,,,,,,,,,,,,223.5230529999826,223.5314921999816,223.5314921999816,223.8991836999776,g,1.0,0.3501945000025444,,,,,sub-106,3,stroop_test,60.040515340711714,
,,,,58.0,10.0,4.0,,,,,,,,,,,,,gelb,yellow,g,1.0,g,1.0,0.3835808000294491,,,,,,,,,,4.0,10.0,58.0,11.0,223.9129281999776,,,,,,,,,,,,,,,,,223.89998250000644,225.1119832000113,225.91238069999963,225.89581640000688,,,,,,,,,,,,,,,,,,,,,,,,,,,,,,,,,,,225.9037869999884,225.91238069999963,225.91238069999963,226.3130647999933,g,1.0,0.3835808000294491,,,,,sub-106,3,stroop_test,60.040515340711714,
,,,,59.0,11.0,4.0,,,,,,,,,,,,,gelb,red,r,0.0,r,1.0,0.4512491000350564,,,,,,,,,,4.0,11.0,59.0,8.0,226.32759250001985,,,,,,,,,,,,,,,,,226.3139039999805,227.1268102999893,227.92606029997117,227.910372000013,,,,,,,,,,,,,,,,,,,,,,,,,,,,,,,,,,,227.9113535999786,227.92606029997117,227.92606029997117,228.394444799982,r,1.0,0.4512491000350564,,,,,sub-106,3,stroop_test,60.040515340711714,
,,,,60.0,0.0,5.0,,,,,,,,,,,,,blau,blue,b,1.0,b,1.0,0.4701934999902732,,,,,,,,,,5.0,0.0,60.0,6.0,228.40873859997373,,,,,,,,,,,,,,,,,228.3952781999833,228.7584169000038,229.5598103000084,229.54259869997625,,,,,,,,,,,,,,,,,,,,,,,,,,,,,,,,,,,229.55167189997155,229.5598103000084,229.5598103000084,230.04217009997228,b,1.0,0.4701934999902732,,,,,sub-106,3,stroop_test,60.040515340711714,
,,,,61.0,1.0,5.0,,,,,,,,,,,,,gelb,yellow,g,1.0,g,1.0,0.5259474000195041,,,,,,,,,,5.0,1.0,61.0,11.0,230.0570455999696,,,,,,,,,,,,,,,,,230.0427796000149,230.406984900008,231.2077961000032,231.19085909996647,,,,,,,,,,,,,,,,,,,,,,,,,,,,,,,,,,,231.1991221000208,231.2077961000032,231.2077961000032,231.74156799999764,g,1.0,0.5259474000195041,,,,,sub-106,3,stroop_test,60.040515340711714,
,,,,62.0,2.0,5.0,,,,,,,,,,,,,gelb,blue,b,0.0,b,1.0,0.6039753999793902,,,,,,,,,,5.0,2.0,62.0,9.0,231.7557357000187,,,,,,,,,,,,,,,,,231.7423638000037,232.10556669998917,232.9045923000085,232.88934150000568,,,,,,,,,,,,,,,,,,,,,,,,,,,,,,,,,,,232.89042000001064,232.9045923000085,232.9045923000085,233.5234533000039,b,1.0,0.6039753999793902,,,,,sub-106,3,stroop_test,60.040515340711714,
,,,,63.0,3.0,5.0,,,,,,,,,,,,,rot,yellow,g,0.0,g,1.0,0.6437168000265956,,,,,,,,,,5.0,3.0,63.0,3.0,233.5374457999715,,,,,,,,,,,,,,,,,233.52427459997125,234.73630320001396,235.53787050000392,235.52009459998223,,,,,,,,,,,,,,,,,,,,,,,,,,,,,,,,,,,235.52919839997776,235.53787050000392,235.53787050000392,236.18762059998696,g,1.0,0.6437168000265956,,,,,sub-106,3,stroop_test,60.040515340711714,
,,,,64.0,4.0,5.0,,,,,,,,,,,,,blau,red,r,0.0,r,1.0,0.5387126000132412,,,,,,,,,,5.0,4.0,64.0,4.0,236.2013806999894,,,,,,,,,,,,,,,,,236.188459899975,237.40037980000488,238.20140740001807,238.184254599968,,,,,,,,,,,,,,,,,,,,,,,,,,,,,,,,,,,238.19270879996475,238.20140740001807,238.20140740001807,238.7515925000189,r,1.0,0.5387126000132412,,,,,sub-106,3,stroop_test,60.040515340711714,
,,,,65.0,5.0,5.0,,,,,,,,,,,,,rot,red,r,1.0,r,1.0,0.3670805999427102,,,,,,,,,,5.0,5.0,65.0,1.0,238.76570200000424,,,,,,,,,,,,,,,,,238.75243529997533,239.96505519998027,240.7846802999848,240.76563290000195,,,,,,,,,,,,,,,,,,,,,,,,,,,,,,,,,,,240.77546729997263,240.7846802999848,240.7846802999848,241.1664728000178,r,1.0,0.3670805999427102,,,,,sub-106,3,stroop_test,60.040515340711714,
,,,,66.0,6.0,5.0,,,,,,,,,,,,,gelb,red,r,0.0,r,1.0,0.5274999999674037,,,,,,,,,,5.0,6.0,66.0,8.0,241.1804900999996,,,,,,,,,,,,,,,,,241.167398599966,241.28044629999204,242.0864781999844,242.06462949997515,,,,,,,,,,,,,,,,,,,,,,,,,,,,,,,,,,,242.07716709998203,242.0864781999844,242.0864781999844,242.63089109997964,r,1.0,0.5274999999674037,,,,,sub-106,3,stroop_test,60.040515340711714,
,,,,67.0,7.0,5.0,,,,,,,,,,,,,rot,blue,b,0.0,b,1.0,0.5476536999922246,,,,,,,,,,5.0,7.0,67.0,2.0,242.64531549997628,,,,,,,,,,,,,,,,,242.63159659999656,242.99530959996628,243.7955277999863,243.7791021000012,,,,,,,,,,,,,,,,,,,,,,,,,,,,,,,,,,,243.78684899996733,243.7955277999863,243.7955277999863,244.3482079000096,b,1.0,0.5476536999922246,,,,,sub-106,3,stroop_test,60.040515340711714,
,,,,68.0,8.0,5.0,,,,,,,,,,,,,gelb,yellow,g,1.0,g,1.0,0.4425192999769933,,,,,,,,,,5.0,8.0,68.0,10.0,244.3610052000149,,,,,,,,,,,,,,,,,244.3494710999657,245.55943039996785,246.35831440001493,246.34322079998677,,,,,,,,,,,,,,,,,,,,,,,,,,,,,,,,,,,246.35129949997645,246.35831440001493,246.35831440001493,246.8106305999681,g,1.0,0.4425192999769933,,,,,sub-106,3,stroop_test,60.040515340711714,
,,,,69.0,9.0,5.0,,,,,,,,,,,,,blau,yellow,g,0.0,g,1.0,0.6300024999654852,,,,,,,,,,5.0,9.0,69.0,7.0,246.82475799997337,,,,,,,,,,,,,,,,,246.81144459999632,247.17474779998884,247.9749485999928,247.95868909999265,,,,,,,,,,,,,,,,,,,,,,,,,,,,,,,,,,,247.9666462999885,247.9749485999928,247.9749485999928,248.60908720002044,g,1.0,0.6300024999654852,,,,,sub-106,3,stroop_test,60.040515340711714,
,,,,70.0,10.0,5.0,,,,,,,,,,,,,rot,red,r,1.0,r,1.0,0.3863294000038877,,,,,,,,,,5.0,10.0,70.0,0.0,248.6232294999645,,,,,,,,,,,,,,,,,248.6099263000069,248.72291690000569,249.53172899998023,249.50770969997396,,,,,,,,,,,,,,,,,,,,,,,,,,,,,,,,,,,249.51986980001675,249.53172899998023,249.53172899998023,249.9238583999686,r,1.0,0.3863294000038877,,,,,sub-106,3,stroop_test,60.040515340711714,
,,,,71.0,11.0,5.0,,,,,,,,,,,,,blau,blue,b,1.0,b,1.0,0.4980493999901227,,,,,,,,,,5.0,11.0,71.0,5.0,249.93865399999777,,,,,,,,,,,,,,,,,249.92449569999008,250.0387961000088,250.8427570000058,250.82270399999103,,,,,,,,,,,,,,,,,,,,,,,,,,,,,,,,,,,250.83313839999028,250.8427570000058,250.8427570000058,251.35648229997605,b,1.0,0.4980493999901227,,,,,sub-106,3,stroop_test,60.040515340711714,
,,,,72.0,0.0,6.0,,,,,,,,,,,,,blau,red,r,0.0,b,0.0,1.063623900001403,,,,,,,,,,6.0,0.0,72.0,4.0,251.3705312999664,,,,,,,,,,,,,,,,,251.3573052000138,251.7205074999947,252.5198684000061,252.50425439997343,,,,,,,,,,,,,,,,,,,,,,,,,,,,,,,,,,,252.50534829997923,252.5198684000061,252.5198684000061,253.58787009998923,b,0.0,1.063623900001403,,,,,sub-106,3,stroop_test,60.040515340711714,
,,,,73.0,1.0,6.0,,,,,,,,,,,,,rot,red,r,1.0,r,1.0,0.4682114999741316,,,,,,,,,,6.0,1.0,73.0,1.0,253.60208320000677,,,,,,,,,,,,,,,,,253.58866439998383,254.80062970001015,255.601693900011,255.58459260000384,,,,,,,,,,,,,,,,,,,,,,,,,,,,,,,,,,,255.5930464999983,255.601693900011,255.601693900011,256.08531930000754,r,1.0,0.4682114999741316,,,,,sub-106,3,stroop_test,60.040515340711714,
,,,,74.0,2.0,6.0,,,,,,,,,,,,,rot,yellow,g,0.0,g,1.0,0.544582000002265,,,,,,,,,,6.0,2.0,74.0,3.0,256.09947549999924,,,,,,,,,,,,,,,,,256.0861325999722,256.8988953999942,257.6980572000029,257.68293150002137,,,,,,,,,,,,,,,,,,,,,,,,,,,,,,,,,,,257.6842246999732,257.6980572000029,257.6980572000029,258.2510408000089,g,1.0,0.544582000002265,,,,,sub-106,3,stroop_test,60.040515340711714,
,,,,75.0,3.0,6.0,,,,,,,,,,,,,blau,blue,b,1.0,b,1.0,0.592977000051178,,,,,,,,,,6.0,3.0,75.0,5.0,258.2642654000083,,,,,,,,,,,,,,,,,258.25208830001066,258.36425029998645,259.168467600015,259.1486356999958,,,,,,,,,,,,,,,,,,,,,,,,,,,,,,,,,,,259.1594884999795,259.168467600015,259.168467600015,259.7652476999792,b,1.0,0.592977000051178,,,,,sub-106,3,stroop_test,60.040515340711714,
,,,,76.0,4.0,6.0,,,,,,,,,,,,,gelb,yellow,g,1.0,g,1.0,0.6113615000504069,,,,,,,,,,6.0,4.0,76.0,11.0,259.7792648000177,,,,,,,,,,,,,,,,,259.7659702000092,260.5790948999929,261.3877063000109,261.3634666000144,,,,,,,,,,,,,,,,,,,,,,,,,,,,,,,,,,,261.37571340001887,261.3877063000109,261.3877063000109,262.0135999000049,g,1.0,0.6113615000504069,,,,,sub-106,3,stroop_test,60.040515340711714,
,,,,77.0,5.0,6.0,,,,,,,,,,,,,rot,blue,b,0.0,b,1.0,0.7086351999896578,,,,,,,,,,6.0,5.0,77.0,2.0,262.0274147000164,,,,,,,,,,,,,,,,,262.01453440001933,263.2264963000198,264.0349121000036,264.0108489000122,,,,,,,,,,,,,,,,,,,,,,,,,,,,,,,,,,,264.02252900000894,264.0349121000036,264.0349121000036,264.76092380000046,b,1.0,0.7086351999896578,,,,,sub-106,3,stroop_test,60.040515340711714,
,,,,78.0,6.0,6.0,,,,,,,,,,,,,blau,yellow,g,0.0,g,1.0,0.6486507999943569,,,,,,,,,,6.0,6.0,78.0,7.0,264.7747367999982,,,,,,,,,,,,,,,,,264.76174669998,265.1241430999944,265.92483309999807,265.90821899997536,,,,,,,,,,,,,,,,,,,,,,,,,,,,,,,,,,,265.91642119997414,265.92483309999807,265.92483309999807,266.5759374999907,g,1.0,0.6486507999943569,,,,,sub-106,3,stroop_test,60.040515340711714,
,,,,79.0,7.0,6.0,,,,,,,,,,,,,gelb,blue,b,0.0,b,1.0,0.5116087000351399,,,,,,,,,,6.0,7.0,79.0,9.0,266.589831899968,,,,,,,,,,,,,,,,,266.57668170001125,267.388856799982,268.18981860001804,268.1730677000014,,,,,,,,,,,,,,,,,,,,,,,,,,,,,,,,,,,268.18136109999614,268.18981860001804,268.18981860001804,268.7069032000145,b,1.0,0.5116087000351399,,,,,sub-106,3,stroop_test,60.040515340711714,
,,,,80.0,8.0,6.0,,,,,,,,,,,,,gelb,yellow,g,1.0,g,1.0,0.4782241999637335,,,,,,,,,,6.0,8.0,80.0,10.0,268.7209671000019,,,,,,,,,,,,,,,,,268.7077224999666,268.82112809998216,269.6202151000034,269.605407199997,,,,,,,,,,,,,,,,,,,,,,,,,,,,,,,,,,,269.6064959000214,269.6202151000034,269.6202151000034,270.1053785000113,g,1.0,0.4782241999637335,,,,,sub-106,3,stroop_test,60.040515340711714,
,,,,81.0,9.0,6.0,,,,,,,,,,,,,blau,blue,b,1.0,b,1.0,0.4451131999958306,,,,,,,,,,6.0,9.0,81.0,6.0,270.11967759998515,,,,,,,,,,,,,,,,,270.1061103999964,270.9189500999637,271.7216049999697,271.7029771999805,,,,,,,,,,,,,,,,,,,,,,,,,,,,,,,,,,,271.7122251999681,271.7216049999697,271.7216049999697,272.17079339997144,b,1.0,0.4451131999958306,,,,,sub-106,3,stroop_test,60.040515340711714,
,,,,82.0,10.0,6.0,,,,,,,,,,,,,rot,red,r,1.0,r,1.0,0.4813800000119954,,,,,,,,,,6.0,10.0,82.0,0.0,272.1846858999925,,,,,,,,,,,,,,,,,272.17162470001495,272.98361970001133,273.79415749997133,273.768336499983,,,,,,,,,,,,,,,,,,,,,,,,,,,,,,,,,,,273.7801694999798,273.79415749997133,273.79415749997133,274.2862284000148,r,1.0,0.4813800000119954,,,,,sub-106,3,stroop_test,60.040515340711714,
,,,,83.0,11.0,6.0,,,,,,,,,,,,,gelb,red,r,0.0,r,1.0,0.7711081000161357,,,,,,,,,,6.0,11.0,83.0,8.0,274.2996204000083,,,,,,,,,,,,,,,,,274.2873545999755,275.4983218999696,276.3073006999912,276.2831245000125,,,,,,,,,,,,,,,,,,,,,,,,,,,,,,,,,,,276.29548450000584,276.3073006999912,276.3073006999912,277.08384169999044,r,1.0,0.7711081000161357,,,,,sub-106,3,stroop_test,60.040515340711714,
,,,,84.0,0.0,7.0,,,,,,,,,,,,,rot,red,r,1.0,r,1.0,0.5392614999436773,,,,,,,,,,7.0,0.0,84.0,0.0,277.0969485999667,,,,,,,,,,,,,,,,,277.08491570001934,277.89627159998054,278.7135475999676,278.6961898999871,,,,,,,,,,,,,,,,,,,,,,,,,,,,,,,,,,,278.70527410000795,278.7135475999676,278.7135475999676,279.26343290001387,r,1.0,0.5392614999436773,,,,,sub-106,3,stroop_test,60.040515340711714,
,,,,85.0,1.0,7.0,,,,,,,,,,,,,blau,red,r,0.0,r,1.0,0.3771932999952696,,,,,,,,,,7.0,1.0,85.0,4.0,279.27776739996625,,,,,,,,,,,,,,,,,279.2641406999901,280.07737139996607,280.8802032999811,280.86138129996834,,,,,,,,,,,,,,,,,,,,,,,,,,,,,,,,,,,280.8705132000032,280.8802032999811,280.8802032999811,281.26192969997646,r,1.0,0.3771932999952696,,,,,sub-106,3,stroop_test,60.040515340711714,
,,,,86.0,2.0,7.0,,,,,,,,,,,,,blau,blue,b,1.0,b,1.0,0.484782199957408,,,,,,,,,,7.0,2.0,86.0,6.0,281.2759390000137,,,,,,,,,,,,,,,,,281.26276409998536,281.3758635999984,282.1751538999961,282.16018120001536,,,,,,,,,,,,,,,,,,,,,,,,,,,,,,,,,,,282.16129810002167,282.1751538999961,282.1751538999961,282.6772580000106,b,1.0,0.484782199957408,,,,,sub-106,3,stroop_test,60.040515340711714,
,,,,87.0,3.0,7.0,,,,,,,,,,,,,rot,red,r,1.0,r,1.0,0.4068891000351868,,,,,,,,,,7.0,3.0,87.0,1.0,282.6914959999849,,,,,,,,,,,,,,,,,282.6780519000022,283.8901689000195,284.69278929999564,284.67425879999064,,,,,,,,,,,,,,,,,,,,,,,,,,,,,,,,,,,284.683709200006,284.69278929999564,284.69278929999564,285.10824349999893,r,1.0,0.4068891000351868,,,,,sub-106,3,stroop_test,60.040515340711714,
,,,,88.0,4.0,7.0,,,,,,,,,,,,,gelb,yellow,g,1.0,g,1.0,0.339851800003089,,,,,,,,,,7.0,4.0,88.0,11.0,285.12233969999943,,,,,,,,,,,,,,,,,285.1090670999838,286.32140080002137,287.1204346999875,287.105146899994,,,,,,,,,,,,,,,,,,,,,,,,,,,,,,,,,,,287.1123604999739,287.1204346999875,287.1204346999875,287.471615699993,g,1.0,0.339851800003089,,,,,sub-106,3,stroop_test,60.040515340711714,
,,,,89.0,5.0,7.0,,,,,,,,,,,,,rot,yellow,g,0.0,g,1.0,0.4778592000366188,,,,,,,,,,7.0,5.0,89.0,3.0,287.48670910001965,,,,,,,,,,,,,,,,,287.4721020999714,287.5869191999664,288.3917128000176,288.37082020001253,,,,,,,,,,,,,,,,,,,,,,,,,,,,,,,,,,,288.38246079999954,288.3917128000176,288.3917128000176,288.8722377999802,g,1.0,0.4778592000366188,,,,,sub-106,3,stroop_test,60.040515340711714,
,,,,90.0,6.0,7.0,,,,,,,,,,,,,gelb,red,r,0.0,r,1.0,0.4899743999703787,,,,,,,,,,7.0,6.0,90.0,8.0,288.88547779998044,,,,,,,,,,,,,,,,,288.87308250000933,289.6847818999668,290.4876856000046,290.4689176999964,,,,,,,,,,,,,,,,,,,,,,,,,,,,,,,,,,,290.47895299998345,290.4876856000046,290.4876856000046,290.9861959000118,r,1.0,0.4899743999703787,,,,,sub-106,3,stroop_test,60.040515340711714,
,,,,91.0,7.0,7.0,,,,,,,,,,,,,blau,yellow,g,0.0,b,0.0,0.594650300045032,,,,,,,,,,7.0,7.0,91.0,7.0,291.0004628999741,,,,,,,,,,,,,,,,,290.9869960999931,291.3501115000108,292.15695079998113,292.13385450001806,,,,,,,,,,,,,,,,,,,,,,,,,,,,,,,,,,,292.1481213999796,292.15695079998113,292.15695079998113,292.767978399992,b,0.0,0.594650300045032,,,,,sub-106,3,stroop_test,60.040515340711714,
,,,,92.0,8.0,7.0,,,,,,,,,,,,,gelb,yellow,g,1.0,g,1.0,0.3727390000130981,,,,,,,,,,7.0,8.0,92.0,10.0,292.78191069996683,,,,,,,,,,,,,,,,,292.7687715999782,293.13154179998673,293.9387996000005,293.9164525999804,,,,,,,,,,,,,,,,,,,,,,,,,,,,,,,,,,,293.928156399983,293.9387996000005,293.9387996000005,294.31827310001245,g,1.0,0.3727390000130981,,,,,sub-106,3,stroop_test,60.040515340711714,
,,,,93.0,9.0,7.0,,,,,,,,,,,,,blau,blue,b,1.0,b,1.0,0.6473788999719545,,,,,,,,,,7.0,9.0,93.0,5.0,294.33073390001664,,,,,,,,,,,,,,,,,294.31949610001175,294.4302516999888,295.2332730999915,295.2144344999688,,,,,,,,,,,,,,,,,,,,,,,,,,,,,,,,,,,295.2238771999837,295.2332730999915,295.2332730999915,295.89842809998663,b,1.0,0.6473788999719545,,,,,sub-106,3,stroop_test,60.040515340711714,
,,,,94.0,10.0,7.0,,,,,,,,,,,,,rot,blue,b,0.0,b,1.0,0.7778225000365637,,,,,,,,,,7.0,10.0,94.0,2.0,295.9123625999782,,,,,,,,,,,,,,,,,295.8993500000215,296.0124307000078,296.8199256999651,296.7967055999907,,,,,,,,,,,,,,,,,,,,,,,,,,,,,,,,,,,296.8099303999916,296.8199256999651,296.8199256999651,297.61318879999453,b,1.0,0.7778225000365637,,,,,sub-106,3,stroop_test,60.040515340711714,
,,,,95.0,11.0,7.0,,,,,,,,,,,,,gelb,blue,b,0.0,b,1.0,0.4225592999719083,,,,,,,,,,7.0,11.0,95.0,9.0,297.6273230999941,,,,,,,,,,,,,,,,,297.6139798999648,297.7272304999642,298.5280319000012,298.5113720999798,,,,,,,,,,,,,,,,,,,,,,,,,,,,,,,,,,,298.5194199999678,298.5280319000012,298.5280319000012,298.9621443999931,b,1.0,0.4225592999719083,,,,,sub-106,3,stroop_test,60.040515340711714,
,,,,96.0,0.0,8.0,,,,,,,,,,,,,gelb,red,r,0.0,r,1.0,0.5541155000100844,,,,,,,,,,8.0,0.0,96.0,8.0,298.9762618999812,,,,,,,,,,,,,,,,,298.9629997999873,300.1749639000045,300.974310999969,300.9592784999986,,,,,,,,,,,,,,,,,,,,,,,,,,,,,,,,,,,300.9605452999822,300.974310999969,300.974310999969,301.5434989000205,r,1.0,0.5541155000100844,,,,,sub-106,3,stroop_test,60.040515340711714,
,,,,97.0,1.0,8.0,,,,,,,,,,,,,gelb,yellow,g,1.0,g,1.0,0.4889011000050232,,,,,,,,,,8.0,1.0,97.0,11.0,301.55708009999944,,,,,,,,,,,,,,,,,301.5444131999975,301.65695410000626,302.4563448000117,302.4413146000006,,,,,,,,,,,,,,,,,,,,,,,,,,,,,,,,,,,302.44258410000475,302.4563448000117,302.4563448000117,302.958662799967,g,1.0,0.4889011000050232,,,,,sub-106,3,stroop_test,60.040515340711714,
,,,,98.0,2.0,8.0,,,,,,,,,,,,,blau,blue,b,1.0,b,1.0,0.5174075000104494,,,,,,,,,,8.0,2.0,98.0,6.0,302.9723314999719,,,,,,,,,,,,,,,,,302.9595690999995,303.0725699000177,303.8731524000177,303.85633229999803,,,,,,,,,,,,,,,,,,,,,,,,,,,,,,,,,,,303.86440839996794,303.8731524000177,303.8731524000177,304.4068616000004,b,1.0,0.5174075000104494,,,,,sub-106,3,stroop_test,60.040515340711714,
,,,,99.0,3.0,8.0,,,,,,,,,,,,,rot,yellow,g,0.0,g,1.0,0.8890862000407651,,,,,,,,,,8.0,3.0,99.0,3.0,304.4208818000043,,,,,,,,,,,,,,,,,304.407686999999,304.7711179999751,305.5897176999715,305.57126339996466,,,,,,,,,,,,,,,,,,,,,,,,,,,,,,,,,,,305.5804437000188,305.5897176999715,305.5897176999715,306.4883348000003,g,1.0,0.8890862000407651,,,,,sub-106,3,stroop_test,60.040515340711714,
,,,,100.0,4.0,8.0,,,,,,,,,,,,,blau,yellow,g,0.0,g,1.0,0.9302493999712168,,,,,,,,,,8.0,4.0,100.0,7.0,306.50238479999825,,,,,,,,,,,,,,,,,306.4891224000021,306.6023419999983,307.40231699997094,307.3866445000167,,,,,,,,,,,,,,,,,,,,,,,,,,,,,,,,,,,307.39451710000867,307.40231699997094,307.40231699997094,308.33786390000023,g,1.0,0.9302493999712168,,,,,sub-106,3,stroop_test,60.040515340711714,
,,,,101.0,5.0,8.0,,,,,,,,,,,,,gelb,yellow,g,1.0,g,1.0,0.3834338000160642,,,,,,,,,,8.0,5.0,101.0,10.0,308.3510360000073,,,,,,,,,,,,,,,,,308.33893289999105,309.15015970001696,309.9509120999719,309.9342760000145,,,,,,,,,,,,,,,,,,,,,,,,,,,,,,,,,,,309.9423775000032,309.9509120999719,309.9509120999719,310.3516455999925,g,1.0,0.3834338000160642,,,,,sub-106,3,stroop_test,60.040515340711714,
,,,,102.0,6.0,8.0,,,,,,,,,,,,,blau,blue,b,1.0,b,1.0,0.4700371000217274,,,,,,,,,,8.0,6.0,102.0,5.0,310.3656633999781,,,,,,,,,,,,,,,,,310.35244330001296,310.7151104999939,311.5148395000142,311.4991816999973,,,,,,,,,,,,,,,,,,,,,,,,,,,,,,,,,,,311.5069163999869,311.5148395000142,311.5148395000142,312.0000861000153,b,1.0,0.4700371000217274,,,,,sub-106,3,stroop_test,60.040515340711714,
,,,,103.0,7.0,8.0,,,,,,,,,,,,,rot,red,r,1.0,r,1.0,0.4334968999610282,,,,,,,,,,8.0,7.0,103.0,1.0,312.01412870001514,,,,,,,,,,,,,,,,,312.0009156999877,312.8131904000184,313.61776360002114,313.5971431999933,,,,,,,,,,,,,,,,,,,,,,,,,,,,,,,,,,,313.6080132999923,313.61776360002114,313.61776360002114,314.06522300001234,r,1.0,0.4334968999610282,,,,,sub-106,3,stroop_test,60.040515340711714,
,,,,104.0,8.0,8.0,,,,,,,,,,,,,rot,red,r,1.0,r,1.0,0.4056876000249758,,,,,,,,,,8.0,8.0,104.0,0.0,314.07873860001564,,,,,,,,,,,,,,,,,314.0661481000134,314.4284135000198,315.22777890000725,315.2122374000028,,,,,,,,,,,,,,,,,,,,,,,,,,,,,,,,,,,315.21336140000494,315.22777890000725,315.22777890000725,315.6465445999638,r,1.0,0.4056876000249758,,,,,sub-106,3,stroop_test,60.040515340711714,
,,,,105.0,9.0,8.0,,,,,,,,,,,,,gelb,blue,b,0.0,g,0.0,0.5303925999905914,,,,,,,,,,8.0,9.0,105.0,9.0,315.66073770000366,,,,,,,,,,,,,,,,,315.6473404999706,316.4599545999663,317.25940089998767,317.2444107999909,,,,,,,,,,,,,,,,,,,,,,,,,,,,,,,,,,,317.2525067999959,317.25940089998767,317.25940089998767,317.79483249998884,g,0.0,0.5303925999905914,,,,,sub-106,3,stroop_test,60.040515340711714,
,,,,106.0,10.0,8.0,,,,,,,,,,,,,blau,red,r,0.0,r,1.0,0.6758371000178158,,,,,,,,,,8.0,10.0,106.0,4.0,317.80810620001284,,,,,,,,,,,,,,,,,317.79575119999936,318.6080975999939,319.42904829996405,319.40845109999646,,,,,,,,,,,,,,,,,,,,,,,,,,,,,,,,,,,319.41948989999946,319.42904829996405,319.42904829996405,320.109624899982,r,1.0,0.6758371000178158,,,,,sub-106,3,stroop_test,60.040515340711714,
,,,,107.0,11.0,8.0,,,,,,,,,,,,,rot,blue,b,0.0,b,1.0,0.834091599972453,,,,,,,,,,8.0,11.0,107.0,2.0,320.1229604000109,,,,,,,,,,,,,,,,,320.1104836000013,320.4726711999974,321.2753568000044,321.2569707999937,,,,,,,,,,,,,,,,,,,,,,,,,,,,,,,,,,,321.266414200014,321.2753568000044,321.2753568000044,322.12348169996403,b,1.0,0.834091599972453,,,,,sub-106,3,stroop_test,60.040515340711714,
,,,,108.0,0.0,9.0,,,,,,,,,,,,,blau,red,r,0.0,r,1.0,0.5541040999814868,,,,,,,,,,9.0,0.0,108.0,4.0,322.1379010999808,,,,,,,,,,,,,,,,,322.1242914000177,323.3371628000168,324.15262670000084,324.13688239996554,,,,,,,,,,,,,,,,,,,,,,,,,,,,,,,,,,,324.14271250000456,324.15262670000084,324.15262670000084,324.7197647999856,r,1.0,0.5541040999814868,,,,,sub-106,3,stroop_test,60.040515340711714,
,,,,109.0,1.0,9.0,,,,,,,,,,,,,blau,blue,b,1.0,b,1.0,0.5480189999798313,,,,,,,,,,9.0,1.0,109.0,5.0,324.73494689998915,,,,,,,,,,,,,,,,,324.72024369996507,324.83497329999227,325.63454170001205,325.6195041000028,,,,,,,,,,,,,,,,,,,,,,,,,,,,,,,,,,,325.62058829999296,325.63454170001205,325.63454170001205,326.1866459000157,b,1.0,0.5480189999798313,,,,,sub-106,3,stroop_test,60.040515340711714,
,,,,110.0,2.0,9.0,,,,,,,,,,,,,blau,yellow,g,0.0,g,1.0,0.7776632999884896,,,,,,,,,,9.0,2.0,110.0,7.0,326.20057250000536,,,,,,,,,,,,,,,,,326.1874592999812,326.3006840000162,327.1000264000031,327.08434669999406,,,,,,,,,,,,,,,,,,,,,,,,,,,,,,,,,,,327.08555600000545,327.1000264000031,327.1000264000031,327.88378829997964,g,1.0,0.7776632999884896,,,,,sub-106,3,stroop_test,60.040515340711714,
,,,,111.0,3.0,9.0,,,,,,,,,,,,,rot,red,r,1.0,r,1.0,0.443695799971465,,,,,,,,,,9.0,3.0,111.0,0.0,327.89894649997586,,,,,,,,,,,,,,,,,327.8843011999852,328.6979437000118,329.4971261000028,329.48109419998946,,,,,,,,,,,,,,,,,,,,,,,,,,,,,,,,,,,329.4850450999802,329.4971261000028,329.4971261000028,329.9485147999949,r,1.0,0.443695799971465,,,,,sub-106,3,stroop_test,60.040515340711714,
,,,,112.0,4.0,9.0,,,,,,,,,,,,,rot,yellow,g,0.0,g,1.0,0.5463437000289559,,,,,,,,,,9.0,4.0,112.0,3.0,329.96376319997944,,,,,,,,,,,,,,,,,329.9490190999932,331.1630040999735,331.9788164999918,331.9636165999691,,,,,,,,,,,,,,,,,,,,,,,,,,,,,,,,,,,331.965121700021,331.9788164999918,331.9788164999918,332.52989110001363,g,1.0,0.5463437000289559,,,,,sub-106,3,stroop_test,60.040515340711714,
,,,,113.0,5.0,9.0,,,,,,,,,,,,,rot,blue,b,0.0,b,1.0,0.7061290999990888,,,,,,,,,,9.0,5.0,113.0,2.0,332.54478880000534,,,,,,,,,,,,,,,,,332.5305530999904,332.8943607999827,333.6936236000038,333.67835030000424,,,,,,,,,,,,,,,,,,,,,,,,,,,,,,,,,,,333.67940069996985,333.6936236000038,333.6936236000038,334.41215089999605,b,1.0,0.7061290999990888,,,,,sub-106,3,stroop_test,60.040515340711714,
,,,,114.0,6.0,9.0,,,,,,,,,,,,,gelb,red,r,0.0,r,1.0,1.0523661999613978,,,,,,,,,,9.0,6.0,114.0,8.0,334.42612829996506,,,,,,,,,,,,,,,,,334.4129656999721,334.7758235000074,335.57781420002,335.56007379997754,,,,,,,,,,,,,,,,,,,,,,,,,,,,,,,,,,,335.5677706999704,335.57781420002,335.57781420002,336.644588199968,r,1.0,1.0523661999613978,,,,,sub-106,3,stroop_test,60.040515340711714,
,,,,115.0,7.0,9.0,,,,,,,,,,,,,blau,blue,b,1.0,b,1.0,0.6654046999756247,,,,,,,,,,9.0,7.0,115.0,6.0,336.6581657999777,,,,,,,,,,,,,,,,,336.6457479000092,337.0072132999776,337.80958920001285,337.79215409996687,,,,,,,,,,,,,,,,,,,,,,,,,,,,,,,,,,,337.8023968000198,337.80958920001285,337.80958920001285,338.4903394000139,b,1.0,0.6654046999756247,,,,,sub-106,3,stroop_test,60.040515340711714,
,,,,116.0,8.0,9.0,,,,,,,,,,,,,rot,red,r,1.0,r,1.0,0.4861284999642521,,,,,,,,,,9.0,8.0,116.0,1.0,338.5054241999751,,,,,,,,,,,,,,,,,338.49081950000254,339.3051725999685,340.1060478999861,340.0888210000121,,,,,,,,,,,,,,,,,,,,,,,,,,,,,,,,,,,340.0974731000024,340.1060478999861,340.1060478999861,340.606298699975,r,1.0,0.4861284999642521,,,,,sub-106,3,stroop_test,60.040515340711714,
,,,,117.0,9.0,9.0,,,,,,,,,,,,,gelb,blue,b,0.0,b,1.0,0.920255500008352,,,,,,,,,,9.0,9.0,117.0,9.0,340.6206754000159,,,,,,,,,,,,,,,,,340.6071062000119,341.41992820001906,342.2352572999662,342.2195621000137,,,,,,,,,,,,,,,,,,,,,,,,,,,,,,,,,,,342.224896300002,342.2352572999662,342.2352572999662,343.17063269997016,b,1.0,0.920255500008352,,,,,sub-106,3,stroop_test,60.040515340711714,
,,,,118.0,10.0,9.0,,,,,,,,,,,,,gelb,yellow,g,1.0,g,1.0,0.5101208999985829,,,,,,,,,,9.0,10.0,118.0,10.0,343.1848757999833,,,,,,,,,,,,,,,,,343.1714464999968,343.5344045999809,344.33364560001064,344.3185036999639,,,,,,,,,,,,,,,,,,,,,,,,,,,,,,,,,,,344.31960370001616,344.33364560001064,344.33364560001064,344.8525758999749,g,1.0,0.5101208999985829,,,,,sub-106,3,stroop_test,60.040515340711714,
,,,,119.0,11.0,9.0,,,,,,,,,,,,,gelb,yellow,g,1.0,g,1.0,0.3602256000158377,,,,,,,,,,9.0,11.0,119.0,11.0,344.8664578999742,,,,,,,,,,,,,,,,,344.8534005999681,345.21617500000866,346.0156335000065,346.0002039999817,,,,,,,,,,,,,,,,,,,,,,,,,,,,,,,,,,,346.00129460002063,346.0156335000065,346.0156335000065,346.3843341000029,g,1.0,0.3602256000158377,,,,,sub-106,3,stroop_test,60.040515340711714,
,,,,,,,,,,,,,,,,,,,,,,,,,,,,,,,,,,,,,,,,,,,,,,,,,,,,,,,,,,,,,,,,,,,,,,,,,,,,,,,,,,,,,,,,,,,,,,,,,,,,,,346.38472309999634,346.3985209999955,351.39379170001484,sub-106,3,stroop_test,60.040515340711714,
