wordCTK,colorCTK,corrAnsCTK,congruentCTK,thisN,thisTrialN,thisRepN,keyResp_CTK.keys,keyResp_CTK.corr,keyResp_CTK.rt,keyResp_CTK.duration,wordPractice,colorPractice,corrAnsPractice,congruentPractice,respPractice.keys,respPractice.corr,respPractice.rt,respPractice.duration,word,color,corrAns,congruent,keyResp_test_run.keys,keyResp_test_run.corr,keyResp_test_run.rt,keyResp_test_run.duration,trials_CTK.thisRepN,trials_CTK.thisTrialN,trials_CTK.thisN,trials_CTK.thisIndex,trials_practice.thisRepN,trials_practice.thisTrialN,trials_practice.thisN,trials_practice.thisIndex,trials_test.thisRepN,trials_test.thisTrialN,trials_test.thisN,trials_test.thisIndex,thisRow.t,notes,instruction.started,instr_text.started,instr_image.started,instr_resp.started,instruction.stopped,instr_resp.keys,instr_resp.rt,instr_resp.duration,instr_color_to_key.started,instr_ctk.started,resp_ctk.started,instr_color_to_key.stopped,resp_ctk.keys,resp_ctk.rt,resp_ctk.duration,ITI.started,fixcross.started,fixcross.stopped,ITI.stopped,color_to_key_run.started,stimulus_CTK.started,keyResp_CTK.started,color_to_key_run.stopped,trials_CTK.keyResp_CTK.keys,trials_CTK.keyResp_CTK.corr,trials_CTK.keyResp_CTK.rt,trials_CTK.keyResp_CTK.duration,instr_practice.started,instr_practice_text.started,instr_practice_resp.started,instr_practice.stopped,instr_practice_resp.keys,instr_practice_resp.rt,instr_practice_resp.duration,practice_run.started,stimulus_practice.started,respPractice.started,practice_run.stopped,trials_practice.respPractice.keys,trials_practice.respPractice.corr,trials_practice.respPractice.rt,trials_practice.respPractice.duration,feedback.started,textFeedback.started,feedback.stopped,textFeedback.stopped,instr_test.started,instr_test_text.started,instr_test_resp.started,instr_test.stopped,instr_test_resp.keys,instr_test_resp.rt,instr_test_resp.duration,test_run.started,stimulus_test_run.started,keyResp_test_run.started,test_run.stopped,trials_test.keyResp_test_run.keys,trials_test.keyResp_test_run.corr,trials_test.keyResp_test_run.rt,trials_test.keyResp_test_run.duration,goodbye.started,textGoodbye.started,goodbye.stopped,participant,session,expName,frameRate,Unnamed: 112
,,,,,,,,,,,,,,,,,,,,,,,,,,,,,,,,,,,,,,,,,0.0196577900060219,0.0526134970059501,0.0526134970059501,0.0526134970059501,9.087407778002673,space,8.997944449998613,,,,,,,,,,,,,,,,,,,,,,,,,,,,,,,,,,,,,,,,,,,,,,,,,,,,,,,,,,sub-007,1,stroop_test,89.04809897734557,
,,,,,,,,,,,,,,,,,,,,,,,,,,,,,,,,,,,,,,,,,,,,,,,,,9.087480866000988,9.102123693999602,9.102123693999602,13.580705717002274,space,4.465020039999217,,,,,,,,,,,,,,,,,,,,,,,,,,,,,,,,,,,,,,,,,,,,,,,,,,,sub-007,1,stroop_test,89.04809897734557,
test,red,r,1.0,0.0,0.0,0.0,r,1.0,0.3955592720012646,,,,,,,,,,,,,,,,,,0.0,0.0,0.0,0.0,,,,,,,,,13.616809605999151,,,,,,,,,,,,,,,,,13.601715718999912,14.78024339100375,15.58843222699943,15.57037568600208,15.578364922002947,15.58843222699943,15.58843222699943,15.991880214001869,r,1.0,0.3955592720012646,,,,,,,,,,,,,,,,,,,,,,,,,,,,,,,,,,,,,,,sub-007,1,stroop_test,89.04809897734557,
test,yellow,g,1.0,1.0,1.0,0.0,g,1.0,0.4720011649988009,,,,,,,,,,,,,,,,,,0.0,1.0,1.0,1.0,,,,,,,,,16.00233511400438,,,,,,,,,,,,,,,,,15.992538967002474,16.362376871999004,17.17895454000245,17.162263140002324,17.162953582999762,17.17895454000245,17.17895454000245,17.663604503999522,g,1.0,0.4720011649988009,,,,,,,,,,,,,,,,,,,,,,,,,,,,,,,,,,,,,,,sub-007,1,stroop_test,89.04809897734557,
test,blue,b,1.0,2.0,2.0,0.0,b,1.0,0.506157563002489,,,,,,,,,,,,,,,,,,0.0,2.0,2.0,2.0,,,,,,,,,17.673353058999055,,,,,,,,,,,,,,,,,17.664017498005705,18.46089967500302,19.261393559005228,19.248825410999416,19.24947789200087,19.261393559005228,19.261393559005228,19.78020406200085,b,1.0,0.506157563002489,,,,,,,,,,,,,,,,,,,,,,,,,,,,,,,,,,,,,,,sub-007,1,stroop_test,89.04809897734557,
test,red,r,1.0,3.0,0.0,1.0,r,1.0,0.3489688560002832,,,,,,,,,,,,,,,,,,1.0,0.0,3.0,0.0,,,,,,,,,19.7920209790027,,,,,,,,,,,,,,,,,19.78061072900164,20.58742885399988,21.38136199400469,21.37127072200383,21.37192127000162,21.38136199400469,21.38136199400469,21.74208430800354,r,1.0,0.3489688560002832,,,,,,,,,,,,,,,,,,,,,,,,,,,,,,,,,,,,,,,sub-007,1,stroop_test,89.04809897734557,
test,blue,b,1.0,4.0,1.0,1.0,b,1.0,0.4108246180039714,,,,,,,,,,,,,,,,,,1.0,1.0,4.0,2.0,,,,,,,,,21.752473949003612,,,,,,,,,,,,,,,,,21.742639526004496,22.935810362003394,23.731785080002737,23.72075121100352,23.721353735003504,23.731785080002737,23.731785080002737,24.148512612002374,b,1.0,0.4108246180039714,,,,,,,,,,,,,,,,,,,,,,,,,,,,,,,,,,,,,,,sub-007,1,stroop_test,89.04809897734557,
test,yellow,g,1.0,5.0,2.0,1.0,g,1.0,0.5473756040009903,,,,,,,,,,,,,,,,,,1.0,2.0,5.0,1.0,,,,,,,,,24.157852794000064,,,,,,,,,,,,,,,,,24.148846060001237,24.24404469900037,25.06171404400084,25.04584535900358,25.04652907700074,25.06171404400084,25.06171404400084,25.618678969003668,g,1.0,0.5473756040009903,,,,,,,,,,,,,,,,,,,,,,,,,,,,,,,,,,,,,,,sub-007,1,stroop_test,89.04809897734557,
test,blue,b,1.0,6.0,0.0,2.0,b,1.0,0.546283700998174,,,,,,,,,,,,,,,,,,2.0,0.0,6.0,2.0,,,,,,,,,25.62978662700334,,,,,,,,,,,,,,,,,25.619092615001136,26.415430553999613,27.215282369004854,27.203682937004487,27.20432794000226,27.215282369004854,27.215282369004854,27.76870770900132,b,1.0,0.546283700998174,,,,,,,,,,,,,,,,,,,,,,,,,,,,,,,,,,,,,,,sub-007,1,stroop_test,89.04809897734557,
test,red,r,1.0,7.0,1.0,2.0,r,1.0,0.4887979170016479,,,,,,,,,,,,,,,,,,2.0,1.0,7.0,0.0,,,,,,,,,27.79463075300009,,,,,,,,,,,,,,,,,27.76914637900336,27.8701865700059,28.67429086700577,28.66372991400567,28.66438834099972,28.67429086700577,28.67429086700577,29.180560464003065,r,1.0,0.4887979170016479,,,,,,,,,,,,,,,,,,,,,,,,,,,,,,,,,,,,,,,sub-007,1,stroop_test,89.04809897734557,
test,yellow,g,1.0,8.0,2.0,2.0,g,1.0,0.5466934369978844,,,,,,,,,,,,,,,,,,2.0,2.0,8.0,1.0,,,,,,,,,29.19089995100512,,,,,,,,,,,,,,,,,29.181000167001912,30.387281105999136,31.19075722400157,31.17957275899971,31.180263587004447,31.19075722400157,31.19075722400157,31.741956353005666,g,1.0,0.5466934369978844,,,,,,,,,,,,,,,,,,,,,,,,,,,,,,,,,,,,,,,sub-007,1,stroop_test,89.04809897734557,
test,yellow,g,1.0,9.0,0.0,3.0,g,1.0,0.4223519160004798,,,,,,,,,,,,,,,,,,3.0,0.0,9.0,1.0,,,,,,,,,31.752410688000964,,,,,,,,,,,,,,,,,31.74259020500176,32.98035507700115,33.777822582000226,33.764881144001265,33.7654973739991,33.777822582000226,33.777822582000226,34.210736865999934,g,1.0,0.4223519160004798,,,,,,,,,,,,,,,,,,,,,,,,,,,,,,,,,,,,,,,sub-007,1,stroop_test,89.04809897734557,
test,blue,b,1.0,10.0,1.0,3.0,b,1.0,0.4200182490021689,,,,,,,,,,,,,,,,,,3.0,1.0,10.0,2.0,,,,,,,,,34.223346786006005,,,,,,,,,,,,,,,,,34.211278353002854,35.411107132000325,36.2064425330027,36.195703730001696,36.19650511399959,36.2064425330027,36.2064425330027,36.63144770900544,b,1.0,0.4200182490021689,,,,,,,,,,,,,,,,,,,,,,,,,,,,,,,,,,,,,,,sub-007,1,stroop_test,89.04809897734557,
test,red,r,1.0,11.0,2.0,3.0,r,1.0,0.3119263789994875,,,,,,,,,,,,,,,,,,3.0,2.0,11.0,0.0,,,,,,,,,36.64362124800391,,,,,,,,,,,,,,,,,36.63186527899961,37.835474637002335,38.63163728800282,38.62134343000071,38.62192802400386,38.63163728800282,38.63163728800282,38.94787733699923,r,1.0,0.3119263789994875,,,,,,,,,,,,,,,,,,,,,,,,,,,,,,,,,,,,,,,sub-007,1,stroop_test,89.04809897734557,
,,,,,,,,,,,,,,,,,,,,,,,,,,,,,,,,,,,,,,,,,,,,,,,,,,,,,,,,,,,,,,,,,,,,38.94819226600521,38.96048608700221,38.96048608700221,42.15196415199898,space,3.1832954109995626,,,,,,,,,,,,,,,,,,,,,,,,,,,,,,,,sub-007,1,stroop_test,89.04809897734557,
,,,,0.0,0.0,0.0,,,,,blau,yellow,g,0.0,b,0.0,0.409796941006789,,,,,,,,,,,,,,0.0,0.0,0.0,7.0,,,,,42.17810229900351,,,,,,,,,,,,,,,,,42.16790081300133,42.49295066600462,43.300599914000486,43.28274397000496,,,,,,,,,,,,,,,,43.29118069499964,43.300599914000486,43.300599914000486,43.7170690530038,b,0.0,0.409796941006789,,43.72567597300076,43.73723323500599,44.72907963300531,,,,,,,,,,,,,,,,,,,,sub-007,1,stroop_test,89.04809897734557,
,,,,1.0,1.0,0.0,,,,,gelb,yellow,g,1.0,g,1.0,0.5810230860006413,,,,,,,,,,,,,,0.0,1.0,1.0,10.0,,,,,44.7365383389988,,,,,,,,,,,,,,,,,44.729547379,44.81058502000087,45.61595049600146,45.60047534600017,,,,,,,,,,,,,,,,45.606070175999776,45.61595049600146,45.61595049600146,46.20252543500101,g,1.0,0.5810230860006413,,46.20945369400579,46.22141551600362,47.21188900800189,,,,,,,,,,,,,,,,,,,,sub-007,1,stroop_test,89.04809897734557,
,,,,2.0,2.0,0.0,,,,,rot,red,r,1.0,r,1.0,0.3588946279996889,,,,,,,,,,,,,,0.0,2.0,2.0,1.0,,,,,47.21982881100121,,,,,,,,,,,,,,,,,47.2123661709993,48.403946631005965,49.21164628800034,49.19605740500265,,,,,,,,,,,,,,,,49.20143854700291,49.21164628800034,49.21164628800034,49.58045338100055,r,1.0,0.3588946279996889,,49.5811164800034,49.59450363599899,50.5800639720037,50.58776942799887,,,,,,,,,,,,,,,,,,,sub-007,1,stroop_test,89.04809897734557,
,,,,3.0,3.0,0.0,,,,,rot,yellow,g,0.0,g,1.0,0.3509991530008847,,,,,,,,,,,,,,0.0,3.0,3.0,3.0,,,,,50.58776942799887,,,,,,,,,,,,,,,,,50.58051236100437,51.77804105700488,52.57386263499939,52.56324481800402,,,,,,,,,,,,,,,,52.56391079199966,52.57386263499939,52.57386263499939,52.93478096400213,g,1.0,0.3509991530008847,,52.93540538000525,52.94815424300032,53.93183806800516,53.94459376900341,,,,,,,,,,,,,,,,,,,sub-007,1,stroop_test,89.04809897734557,
,,,,4.0,4.0,0.0,,,,,gelb,blue,b,0.0,b,1.0,0.3067893539991928,,,,,,,,,,,,,,0.0,4.0,4.0,9.0,,,,,53.94459376900341,,,,,,,,,,,,,,,,,53.93230344600306,54.03689286900044,54.83804246200452,54.82131221600139,,,,,,,,,,,,,,,,54.82789209900511,54.83804246200452,54.83804246200452,55.15169637300278,b,1.0,0.3067893539991928,,55.15234083399992,55.16496235199884,56.16088184000546,,,,,,,,,,,,,,,,,,,,sub-007,1,stroop_test,89.04809897734557,
,,,,5.0,5.0,0.0,,,,,blau,blue,b,1.0,b,1.0,0.4067146820016205,,,,,,,,,,,,,,0.0,5.0,5.0,6.0,,,,,56.178754644002765,,,,,,,,,,,,,,,,,56.16153616800148,56.49326313900383,57.29384572900017,57.28002227900288,,,,,,,,,,,,,,,,57.28372619100264,57.29384572900017,57.29384572900017,57.70637278500362,b,1.0,0.4067146820016205,,57.70749397700274,57.71858592799981,58.70302720100153,58.72869069000444,,,,,,,,,,,,,,,,,,,sub-007,1,stroop_test,89.04809897734557,
,,,,6.0,6.0,0.0,,,,,rot,red,r,1.0,r,1.0,0.2907189360048505,,,,,,,,,,,,,,0.0,6.0,6.0,0.0,,,,,58.72869069000444,,,,,,,,,,,,,,,,,58.70350679500552,59.90244217600412,60.70281994400284,60.68733570900076,,,,,,,,,,,,,,,,60.6927253180038,60.70281994400284,60.70281994400284,61.00046333900536,r,1.0,0.2907189360048505,,61.00113403399882,61.01501707400166,62.01191055300296,,,,,,,,,,,,,,,,,,,,sub-007,1,stroop_test,89.04809897734557,
,,,,7.0,7.0,0.0,,,,,blau,red,r,0.0,r,1.0,0.3997600780057837,,,,,,,,,,,,,,0.0,7.0,7.0,4.0,,,,,62.01976443100284,,,,,,,,,,,,,,,,,62.01261793100275,63.195823439004016,63.99405411800399,63.98082957899896,,,,,,,,,,,,,,,,63.98421439900267,63.99405411800399,63.99405411800399,64.39813823800068,r,1.0,0.3997600780057837,,64.3988274190051,64.41129851100413,65.39632785499998,65.40419708099944,,,,,,,,,,,,,,,,,,,sub-007,1,stroop_test,89.04809897734557,
,,,,8.0,8.0,0.0,,,,,blau,blue,b,1.0,b,1.0,0.5062398209993262,,,,,,,,,,,,,,0.0,8.0,8.0,5.0,,,,,65.40419708099944,,,,,,,,,,,,,,,,,65.39682983000239,65.49580897299893,66.2985830510006,66.28777562400501,,,,,,,,,,,,,,,,66.28871361700294,66.2985830510006,66.2985830510006,66.81636186900141,b,1.0,0.5062398209993262,,66.81714999900578,66.8297920210025,67.81664468500094,67.82767282900022,,,,,,,,,,,,,,,,,,,sub-007,1,stroop_test,89.04809897734557,
,,,,9.0,9.0,0.0,,,,,gelb,yellow,g,1.0,g,1.0,0.3934171959990635,,,,,,,,,,,,,,0.0,9.0,9.0,11.0,,,,,67.82767282900022,,,,,,,,,,,,,,,,,67.81727754400345,68.61064494900347,69.41068417200586,69.39636746900214,,,,,,,,,,,,,,,,69.40025038600288,69.41068417200586,69.41068417200586,69.81338058500114,g,1.0,0.3934171959990635,,69.81409912000527,69.82753297599993,70.81223000300088,70.81949738600088,,,,,,,,,,,,,,,,,,,sub-007,1,stroop_test,89.04809897734557,
,,,,10.0,10.0,0.0,,,,,gelb,red,r,0.0,r,1.0,0.3264749529989785,,,,,,,,,,,,,,0.0,10.0,10.0,8.0,,,,,70.81949738600088,,,,,,,,,,,,,,,,,70.8127007380026,71.62828192000597,72.42691887300316,72.41641025500576,,,,,,,,,,,,,,,,72.41707857399888,72.42691887300316,72.42691887300316,72.7637376940038,r,1.0,0.3264749529989785,,72.76440998100588,72.77732513299998,73.77886529500392,,,,,,,,,,,,,,,,,,,,sub-007,1,stroop_test,89.04809897734557,
,,,,11.0,11.0,0.0,,,,,rot,blue,b,0.0,b,1.0,0.4362878179963445,,,,,,,,,,,,,,0.0,11.0,11.0,2.0,,,,,73.78740372700122,,,,,,,,,,,,,,,,,73.77953860600246,74.11038587700023,74.94420071000059,74.91291794700373,,,,,,,,,,,,,,,,74.91739929500181,74.94420071000059,74.94420071000059,75.39228397500119,b,1.0,0.4362878179963445,,75.39300936600193,75.40645962100098,76.39996316600445,,,,,,,,,,,,,,,,,,,,sub-007,1,stroop_test,89.04809897734557,
,,,,12.0,0.0,1.0,,,,,blau,blue,b,1.0,b,1.0,0.4354527069954201,,,,,,,,,,,,,,1.0,0.0,12.0,5.0,,,,,76.41097094900033,,,,,,,,,,,,,,,,,76.4006603020025,76.73652876000415,77.54428283500602,77.5291190870048,,,,,,,,,,,,,,,,77.53344208600174,77.54428283500602,77.54428283500602,77.99040559500281,b,1.0,0.4354527069954201,,77.99183726800402,78.00488322399906,78.99478586199984,,,,,,,,,,,,,,,,,,,,sub-007,1,stroop_test,89.04809897734557,
,,,,13.0,1.0,1.0,,,,,blau,blue,b,1.0,b,1.0,0.3734532939997734,,,,,,,,,,,,,,1.0,1.0,13.0,6.0,,,,,79.00332652400539,,,,,,,,,,,,,,,,,78.99546879300033,79.79452967600082,80.61066084800404,80.58357899600378,,,,,,,,,,,,,,,,80.58452711500286,80.61066084800404,80.61066084800404,80.99956193099933,b,1.0,0.3734532939997734,,81.00033727700065,81.01496685299935,82.00455251500534,,,,,,,,,,,,,,,,,,,,sub-007,1,stroop_test,89.04809897734557,
,,,,14.0,2.0,1.0,,,,,rot,red,r,1.0,r,1.0,0.3891796989992144,,,,,,,,,,,,,,1.0,2.0,14.0,1.0,,,,,82.01550098699954,,,,,,,,,,,,,,,,,82.00542320500244,82.79693752800085,83.5961514580049,83.58127891200274,,,,,,,,,,,,,,,,83.58513643000333,83.5961514580049,83.5961514580049,83.9911932899995,r,1.0,0.3891796989992144,,83.99292486200284,84.01312400800089,84.99508527700527,,,,,,,,,,,,,,,,,,,,sub-007,1,stroop_test,89.04809897734557,
,,,,15.0,3.0,1.0,,,,,blau,yellow,g,0.0,g,1.0,0.363646151003195,,,,,,,,,,,,,,1.0,3.0,15.0,7.0,,,,,85.00737433200266,,,,,,,,,,,,,,,,,84.99611029900552,85.34482702099922,86.14911754200148,86.13266003999888,,,,,,,,,,,,,,,,86.1369109130028,86.14911754200148,86.14911754200148,86.52816159000213,g,1.0,0.363646151003195,,86.52941093900154,86.55295811000542,87.53606421400036,,,,,,,,,,,,,,,,,,,,sub-007,1,stroop_test,89.04809897734557,
,,,,16.0,4.0,1.0,,,,,rot,blue,b,0.0,b,1.0,0.5123737020039698,,,,,,,,,,,,,,1.0,4.0,16.0,2.0,,,,,87.54587692900532,,,,,,,,,,,,,,,,,87.53680640500534,88.33017611700052,89.13801059999969,89.12118903500232,,,,,,,,,,,,,,,,89.12649223500193,89.13801059999969,89.13801059999969,89.66424120500596,b,1.0,0.5123737020039698,,89.66499995499908,89.6792098779988,90.66945738500362,,,,,,,,,,,,,,,,,,,,sub-007,1,stroop_test,89.04809897734557,
,,,,17.0,5.0,1.0,,,,,rot,yellow,g,0.0,g,1.0,0.5251714600017294,,,,,,,,,,,,,,1.0,5.0,17.0,3.0,,,,,90.67855688700364,,,,,,,,,,,,,,,,,90.67009820400564,91.8661211350045,92.66780207100236,92.65506177200588,,,,,,,,,,,,,,,,92.65589774100226,92.66780207100236,92.66780207100236,93.1973232599994,g,1.0,0.5251714600017294,,93.19817997499922,93.21068300700426,94.19802173800416,94.21232817800046,,,,,,,,,,,,,,,,,,,sub-007,1,stroop_test,89.04809897734557,
,,,,18.0,6.0,1.0,,,,,gelb,red,r,0.0,r,1.0,0.3211984379959176,,,,,,,,,,,,,,1.0,6.0,18.0,8.0,,,,,94.21232817800046,,,,,,,,,,,,,,,,,94.19849374500336,94.5499322290052,95.35120479300532,95.33413677700446,,,,,,,,,,,,,,,,95.33912292700552,95.35120479300532,95.35120479300532,95.68574972900387,r,1.0,0.3211984379959176,,95.6864617550018,95.70155240900203,96.68764885500424,,,,,,,,,,,,,,,,,,,,sub-007,1,stroop_test,89.04809897734557,
,,,,19.0,7.0,1.0,,,,,gelb,blue,b,0.0,b,1.0,0.3911269759992137,,,,,,,,,,,,,,1.0,7.0,19.0,9.0,,,,,96.69875345400214,,,,,,,,,,,,,,,,,96.6884310940004,97.4877068880014,98.29528430500068,98.28058161100488,,,,,,,,,,,,,,,,98.28145282900368,98.29528430500068,98.29528430500068,98.6915549960031,b,1.0,0.3911269759992137,,98.69250471800478,98.70458484600384,99.69172706700192,99.7025352960045,,,,,,,,,,,,,,,,,,,sub-007,1,stroop_test,89.04809897734557,
,,,,20.0,8.0,1.0,,,,,gelb,yellow,g,1.0,g,1.0,0.4681599860050482,,,,,,,,,,,,,,1.0,8.0,20.0,11.0,,,,,99.7025352960045,,,,,,,,,,,,,,,,,99.69259992799924,99.79524390699952,100.59225099700416,100.58095373100514,,,,,,,,,,,,,,,,100.58166592100316,100.59225099700416,100.59225099700416,101.06859875599912,g,1.0,0.4681599860050482,,101.06940591400053,101.08323161800216,102.0777019849993,,,,,,,,,,,,,,,,,,,,sub-007,1,stroop_test,89.04809897734557,
,,,,21.0,9.0,1.0,,,,,gelb,yellow,g,1.0,g,1.0,0.4798153090014239,,,,,,,,,,,,,,1.0,9.0,21.0,10.0,,,,,102.08619003000058,,,,,,,,,,,,,,,,,102.0781747680012,102.16349263900338,102.96928767600184,102.9570049660033,,,,,,,,,,,,,,,,102.95806931500556,102.96928767600184,102.96928767600184,103.45259053900372,g,1.0,0.4798153090014239,,103.4535255860028,103.46855170200432,104.45363466100387,,,,,,,,,,,,,,,,,,,,sub-007,1,stroop_test,89.04809897734557,
,,,,22.0,10.0,1.0,,,,,blau,red,r,0.0,r,1.0,0.3841815170017071,,,,,,,,,,,,,,1.0,10.0,22.0,4.0,,,,,104.46380862899969,,,,,,,,,,,,,,,,,104.4543148369994,105.25408041700577,106.06106384099984,106.04585296400182,,,,,,,,,,,,,,,,106.05022240600374,106.06106384099984,106.06106384099984,106.45684655200604,r,1.0,0.3841815170017071,,106.45775283800322,106.47046187500382,107.46192977600003,,,,,,,,,,,,,,,,,,,,sub-007,1,stroop_test,89.04809897734557,
,,,,23.0,11.0,1.0,,,,,rot,red,r,1.0,r,1.0,0.395403788999829,,,,,,,,,,,,,,1.0,11.0,23.0,0.0,,,,,107.47235243600151,,,,,,,,,,,,,,,,,107.46243301200592,107.56066297900544,108.36334198200348,108.34792080700572,,,,,,,,,,,,,,,,108.35177496200048,108.36334198200348,108.36334198200348,108.7636281840023,r,1.0,0.395403788999829,,108.7643411770041,108.7772557520002,109.771873812002,,,,,,,,,,,,,,,,,,,,sub-007,1,stroop_test,89.04809897734557,
,,,,,,,,,,,,,,,,,,,,,,,,,,,,,,,,,,,,,,,,,,,,,,,,,,,,,,,,,,,,,,,,,,,,,,,,,,,,,,,,,,,,,,,109.77228214700152,109.78916087499964,109.78916087499964,117.42352616599965,space,7.619523647001188,,,,,,,,,,,,,sub-007,1,stroop_test,89.04809897734557,
,,,,0.0,0.0,0.0,,,,,,,,,,,,,rot,yellow,g,0.0,g,1.0,0.600176903004467,,,,,,,,,,0.0,0.0,0.0,3.0,117.45988877000492,,,,,,,,,,,,,,,,,117.44583095100096,118.22647534299904,119.02711382700365,119.0106493170024,,,,,,,,,,,,,,,,,,,,,,,,,,,,,,,,,,,119.0151313669994,119.02711382700365,119.02711382700365,119.63951403700048,g,1.0,0.600176903004467,,,,,sub-007,1,stroop_test,89.04809897734557,
,,,,1.0,1.0,0.0,,,,,,,,,,,,,blau,red,r,0.0,r,1.0,0.3641014409950003,,,,,,,,,,0.0,1.0,1.0,4.0,119.6516662130016,,,,,,,,,,,,,,,,,119.64025601799948,120.84483079000348,121.64378162000504,121.6291101970055,,,,,,,,,,,,,,,,,,,,,,,,,,,,,,,,,,,121.63344373700238,121.64378162000504,121.64378162000504,122.03233108000131,r,1.0,0.3641014409950003,,,,,sub-007,1,stroop_test,89.04809897734557,
,,,,2.0,2.0,0.0,,,,,,,,,,,,,rot,blue,b,0.0,b,1.0,0.3432489639963023,,,,,,,,,,0.0,2.0,2.0,2.0,122.0446075159998,,,,,,,,,,,,,,,,,122.03293618500174,122.82926152800064,123.63142136500392,123.6158493490002,,,,,,,,,,,,,,,,,,,,,,,,,,,,,,,,,,,123.620338353001,123.63142136500392,123.63142136500392,123.98014399500244,b,1.0,0.3432489639963023,,,,,sub-007,1,stroop_test,89.04809897734557,
,,,,3.0,3.0,0.0,,,,,,,,,,,,,gelb,blue,b,0.0,b,1.0,0.3793333650028216,,,,,,,,,,0.0,3.0,3.0,9.0,123.992727775003,,,,,,,,,,,,,,,,,123.98072757400224,125.17959308699938,125.98521412300032,125.9700895970018,,,,,,,,,,,,,,,,,,,,,,,,,,,,,,,,,,,125.9752257709988,125.98521412300032,125.98521412300032,126.37417326400464,b,1.0,0.3793333650028216,,,,,sub-007,1,stroop_test,89.04809897734557,
,,,,4.0,4.0,0.0,,,,,,,,,,,,,blau,yellow,g,0.0,g,1.0,0.6839721299984376,,,,,,,,,,0.0,4.0,4.0,7.0,126.38715647400386,,,,,,,,,,,,,,,,,126.3749380310037,126.47749892200228,127.29292557100416,127.26415409000036,,,,,,,,,,,,,,,,,,,,,,,,,,,,,,,,,,,127.27424486000382,127.29292557100416,127.29292557100416,127.98424685700591,g,1.0,0.6839721299984376,,,,,sub-007,1,stroop_test,89.04809897734557,
,,,,5.0,5.0,0.0,,,,,,,,,,,,,blau,blue,b,1.0,b,1.0,0.4681114089980838,,,,,,,,,,0.0,5.0,5.0,5.0,128.00255790100346,,,,,,,,,,,,,,,,,127.98505384199962,128.799440417999,129.61954537700512,129.59592448799958,,,,,,,,,,,,,,,,,,,,,,,,,,,,,,,,,,,129.59789434000413,129.61954537700512,129.61954537700512,130.0988326250008,b,1.0,0.4681114089980838,,,,,sub-007,1,stroop_test,89.04809897734557,
,,,,6.0,6.0,0.0,,,,,,,,,,,,,gelb,yellow,g,1.0,g,1.0,0.3405837829996017,,,,,,,,,,0.0,6.0,6.0,11.0,130.117040516001,,,,,,,,,,,,,,,,,130.09971891999885,130.44413778900343,131.25103627700446,131.23348416400404,,,,,,,,,,,,,,,,,,,,,,,,,,,,,,,,,,,131.23870318300033,131.25103627700446,131.25103627700446,131.60630937400128,g,1.0,0.3405837829996017,,,,,sub-007,1,stroop_test,89.04809897734557,
,,,,7.0,7.0,0.0,,,,,,,,,,,,,gelb,red,r,0.0,r,1.0,0.3294557409972185,,,,,,,,,,0.0,7.0,7.0,8.0,131.6223223470006,,,,,,,,,,,,,,,,,131.60731951300113,132.40972020700428,133.20891094700346,133.19584104599926,,,,,,,,,,,,,,,,,,,,,,,,,,,,,,,,,,,133.1968971880051,133.20891094700346,133.20891094700346,133.55492602700542,r,1.0,0.3294557409972185,,,,,sub-007,1,stroop_test,89.04809897734557,
,,,,8.0,8.0,0.0,,,,,,,,,,,,,gelb,yellow,g,1.0,g,1.0,0.3404102060012519,,,,,,,,,,0.0,8.0,8.0,10.0,133.56975846300338,,,,,,,,,,,,,,,,,133.55564685900026,134.7497678630025,135.55140834500344,135.53954777699985,,,,,,,,,,,,,,,,,,,,,,,,,,,,,,,,,,,135.54080877300294,135.55140834500344,135.55140834500344,135.89718606500537,g,1.0,0.3404102060012519,,,,,sub-007,1,stroop_test,89.04809897734557,
,,,,9.0,9.0,0.0,,,,,,,,,,,,,rot,red,r,1.0,r,1.0,0.4255365370045183,,,,,,,,,,0.0,9.0,9.0,0.0,135.90870939800516,,,,,,,,,,,,,,,,,135.8977007390058,137.11050409400195,137.91964235100022,137.9013836689992,,,,,,,,,,,,,,,,,,,,,,,,,,,,,,,,,,,137.90693396400457,137.91964235100022,137.91964235100022,138.3561519520008,r,1.0,0.4255365370045183,,,,,sub-007,1,stroop_test,89.04809897734557,
,,,,10.0,10.0,0.0,,,,,,,,,,,,,blau,blue,b,1.0,b,1.0,0.4834228039981099,,,,,,,,,,0.0,10.0,10.0,6.0,138.36964653700124,,,,,,,,,,,,,,,,,138.35683170200355,139.1527964190027,139.96147714300605,139.9447118579992,,,,,,,,,,,,,,,,,,,,,,,,,,,,,,,,,,,139.94964177600195,139.96147714300605,139.96147714300605,140.44922515300277,b,1.0,0.4834228039981099,,,,,sub-007,1,stroop_test,89.04809897734557,
,,,,11.0,11.0,0.0,,,,,,,,,,,,,rot,red,r,1.0,r,1.0,0.4945570549971307,,,,,,,,,,0.0,11.0,11.0,1.0,140.46262764499988,,,,,,,,,,,,,,,,,140.45007615000213,140.55224123300286,141.3580926270006,141.33965491400158,,,,,,,,,,,,,,,,,,,,,,,,,,,,,,,,,,,141.34628642900498,141.3580926270006,141.3580926270006,141.85758621200512,r,1.0,0.4945570549971307,,,,,sub-007,1,stroop_test,89.04809897734557,
,,,,12.0,0.0,1.0,,,,,,,,,,,,,blau,blue,b,1.0,b,1.0,0.4468884800007799,,,,,,,,,,1.0,0.0,12.0,5.0,141.86876658000256,,,,,,,,,,,,,,,,,141.8580918890002,142.6603932470025,143.46190522300458,143.44504025700007,,,,,,,,,,,,,,,,,,,,,,,,,,,,,,,,,,,143.45007230800547,143.46190522300458,143.46190522300458,143.91482150200318,b,1.0,0.4468884800007799,,,,,sub-007,1,stroop_test,89.04809897734557,
,,,,13.0,1.0,1.0,,,,,,,,,,,,,gelb,yellow,g,1.0,g,1.0,0.4008205930003896,,,,,,,,,,1.0,1.0,13.0,11.0,143.92764867900405,,,,,,,,,,,,,,,,,143.9154750000016,144.02004903399938,144.82537517799938,144.80611397400207,,,,,,,,,,,,,,,,,,,,,,,,,,,,,,,,,,,144.8124215190037,144.82537517799938,144.82537517799938,145.23575498300488,g,1.0,0.4008205930003896,,,,,sub-007,1,stroop_test,89.04809897734557,
,,,,14.0,2.0,1.0,,,,,,,,,,,,,blau,red,r,0.0,r,1.0,0.3130313279980328,,,,,,,,,,1.0,2.0,14.0,4.0,145.25131186300132,,,,,,,,,,,,,,,,,145.23646950300463,145.5936459720033,146.39770726900315,146.38114751800458,,,,,,,,,,,,,,,,,,,,,,,,,,,,,,,,,,,146.3855853490022,146.39770726900315,146.39770726900315,146.73158591800166,r,1.0,0.3130313279980328,,,,,sub-007,1,stroop_test,89.04809897734557,
,,,,15.0,3.0,1.0,,,,,,,,,,,,,rot,red,r,1.0,r,1.0,0.369897768003284,,,,,,,,,,1.0,3.0,15.0,0.0,146.745851012005,,,,,,,,,,,,,,,,,146.73225793100573,146.8383784329999,147.6445839299995,147.62853604100383,,,,,,,,,,,,,,,,,,,,,,,,,,,,,,,,,,,147.63298550900072,147.6445839299995,147.6445839299995,148.0307969600035,r,1.0,0.369897768003284,,,,,sub-007,1,stroop_test,89.04809897734557,
,,,,16.0,4.0,1.0,,,,,,,,,,,,,blau,yellow,g,0.0,g,1.0,0.5404659409978194,,,,,,,,,,1.0,4.0,16.0,7.0,148.04354837000574,,,,,,,,,,,,,,,,,148.03138646900334,148.13125458300055,148.94463609700324,148.92935419000423,,,,,,,,,,,,,,,,,,,,,,,,,,,,,,,,,,,148.9336139280058,148.94463609700324,148.94463609700324,149.49771148400032,g,1.0,0.5404659409978194,,,,,sub-007,1,stroop_test,89.04809897734557,
,,,,17.0,5.0,1.0,,,,,,,,,,,,,blau,blue,b,1.0,b,1.0,0.4329459770015091,,,,,,,,,,1.0,5.0,17.0,6.0,149.50986067300255,,,,,,,,,,,,,,,,,149.49824725700455,150.3097271660008,151.1276748990058,151.09963523400074,,,,,,,,,,,,,,,,,,,,,,,,,,,,,,,,,,,151.10039600500022,151.1276748990058,151.1276748990058,151.57142092900176,b,1.0,0.4329459770015091,,,,,sub-007,1,stroop_test,89.04809897734557,
,,,,18.0,6.0,1.0,,,,,,,,,,,,,gelb,blue,b,0.0,b,1.0,0.413417992000177,,,,,,,,,,1.0,6.0,18.0,9.0,151.5875307410024,,,,,,,,,,,,,,,,,151.5721730639998,152.37738931600325,153.1794064900023,153.16227226100457,,,,,,,,,,,,,,,,,,,,,,,,,,,,,,,,,,,153.1672823609988,153.1794064900023,153.1794064900023,153.6035045009994,b,1.0,0.413417992000177,,,,,sub-007,1,stroop_test,89.04809897734557,
,,,,19.0,7.0,1.0,,,,,,,,,,,,,gelb,yellow,g,1.0,g,1.0,0.3836158970007091,,,,,,,,,,1.0,7.0,19.0,10.0,153.61737011399964,,,,,,,,,,,,,,,,,153.60425412800396,154.3993589160018,155.19971920800162,155.18457102500545,,,,,,,,,,,,,,,,,,,,,,,,,,,,,,,,,,,155.18544068300253,155.19971920800162,155.19971920800162,155.59040396800265,g,1.0,0.3836158970007091,,,,,sub-007,1,stroop_test,89.04809897734557,
,,,,20.0,8.0,1.0,,,,,,,,,,,,,rot,blue,b,0.0,b,1.0,0.489098294005089,,,,,,,,,,1.0,8.0,20.0,2.0,155.60356327000045,,,,,,,,,,,,,,,,,155.59144010800082,155.93569511399983,156.74182416300027,156.72264809600165,,,,,,,,,,,,,,,,,,,,,,,,,,,,,,,,,,,156.72916967399942,156.74182416300027,156.74182416300027,157.23751053400338,b,1.0,0.489098294005089,,,,,sub-007,1,stroop_test,89.04809897734557,
,,,,21.0,9.0,1.0,,,,,,,,,,,,,rot,red,r,1.0,r,1.0,0.3170348610001383,,,,,,,,,,1.0,9.0,21.0,1.0,157.2515953770053,,,,,,,,,,,,,,,,,157.23824681200497,157.5859763490007,158.3906273130051,158.37806187000388,,,,,,,,,,,,,,,,,,,,,,,,,,,,,,,,,,,158.37883226900158,158.3906273130051,158.3906273130051,158.7200720480032,r,1.0,0.3170348610001383,,,,,sub-007,1,stroop_test,89.04809897734557,
,,,,22.0,10.0,1.0,,,,,,,,,,,,,rot,yellow,g,0.0,g,1.0,0.4495544550009072,,,,,,,,,,1.0,10.0,22.0,3.0,158.73354381500394,,,,,,,,,,,,,,,,,158.72076902000117,158.8213432160046,159.63361451100354,159.61764022900024,,,,,,,,,,,,,,,,,,,,,,,,,,,,,,,,,,,159.61866538900358,159.63361451100354,159.63361451100354,160.09249186200032,g,1.0,0.4495544550009072,,,,,sub-007,1,stroop_test,89.04809897734557,
,,,,23.0,11.0,1.0,,,,,,,,,,,,,gelb,red,r,0.0,r,1.0,0.342266063002171,,,,,,,,,,1.0,11.0,23.0,8.0,160.10557324399997,,,,,,,,,,,,,,,,,160.09313132300304,160.8874047470017,161.6998347129993,161.68195359899985,,,,,,,,,,,,,,,,,,,,,,,,,,,,,,,,,,,161.68820009900082,161.6998347129993,161.6998347129993,162.0475893000039,r,1.0,0.342266063002171,,,,,sub-007,1,stroop_test,89.04809897734557,
,,,,24.0,0.0,2.0,,,,,,,,,,,,,blau,red,r,0.0,r,1.0,0.5323646719989483,,,,,,,,,,2.0,0.0,24.0,4.0,162.06179164800415,,,,,,,,,,,,,,,,,162.04829758200503,162.1548457780009,162.96380324300117,162.9456870330032,,,,,,,,,,,,,,,,,,,,,,,,,,,,,,,,,,,162.95124561100238,162.96380324300117,162.96380324300117,163.51319591700303,r,1.0,0.5323646719989483,,,,,sub-007,1,stroop_test,89.04809897734557,
,,,,25.0,1.0,2.0,,,,,,,,,,,,,gelb,yellow,g,1.0,g,1.0,0.6603687290044036,,,,,,,,,,2.0,1.0,25.0,11.0,163.52703679100523,,,,,,,,,,,,,,,,,163.5138390860011,164.31986637800583,165.12803781600087,165.11190652400546,,,,,,,,,,,,,,,,,,,,,,,,,,,,,,,,,,,165.1163278380045,165.12803781600087,165.12803781600087,165.79312088900042,g,1.0,0.6603687290044036,,,,,sub-007,1,stroop_test,89.04809897734557,
,,,,26.0,2.0,2.0,,,,,,,,,,,,,gelb,blue,b,0.0,b,1.0,0.3483999700038112,,,,,,,,,,2.0,2.0,26.0,9.0,165.80815067100048,,,,,,,,,,,,,,,,,165.79377002000547,165.88855551000597,166.68487716399977,166.67263831200398,,,,,,,,,,,,,,,,,,,,,,,,,,,,,,,,,,,166.67359443200257,166.68487716399977,166.68487716399977,167.03909664499952,b,1.0,0.3483999700038112,,,,,sub-007,1,stroop_test,89.04809897734557,
,,,,27.0,3.0,2.0,,,,,,,,,,,,,rot,blue,b,0.0,b,1.0,0.6212884209962795,,,,,,,,,,2.0,3.0,27.0,2.0,167.05114918700565,,,,,,,,,,,,,,,,,167.03987951000454,167.13644429100532,167.94770932000392,167.9289333380002,,,,,,,,,,,,,,,,,,,,,,,,,,,,,,,,,,,167.93473429600272,167.94770932000392,167.94770932000392,168.5771529470003,b,1.0,0.6212884209962795,,,,,sub-007,1,stroop_test,89.04809897734557,
,,,,28.0,4.0,2.0,,,,,,,,,,,,,blau,blue,b,1.0,b,1.0,0.3689071959961438,,,,,,,,,,2.0,4.0,28.0,5.0,168.59047719000228,,,,,,,,,,,,,,,,,168.57780122500117,168.6930008010022,169.49365826000576,169.47790030800388,,,,,,,,,,,,,,,,,,,,,,,,,,,,,,,,,,,169.48207837700463,169.49365826000576,169.49365826000576,169.8756542859992,b,1.0,0.3689071959961438,,,,,sub-007,1,stroop_test,89.04809897734557,
,,,,29.0,5.0,2.0,,,,,,,,,,,,,rot,yellow,g,0.0,g,1.0,0.5406417369958945,,,,,,,,,,2.0,5.0,29.0,3.0,169.88875076200202,,,,,,,,,,,,,,,,,169.87628548000066,170.6845859660025,171.4877029679992,171.4699518740017,,,,,,,,,,,,,,,,,,,,,,,,,,,,,,,,,,,171.47715897200396,171.4877029679992,171.4877029679992,172.04361253800016,g,1.0,0.5406417369958945,,,,,sub-007,1,stroop_test,89.04809897734557,
,,,,30.0,6.0,2.0,,,,,,,,,,,,,rot,red,r,1.0,r,1.0,0.3266639339999528,,,,,,,,,,2.0,6.0,30.0,1.0,172.05760929900134,,,,,,,,,,,,,,,,,172.0442466520035,172.83670648700354,173.6425751170027,173.63000492800347,,,,,,,,,,,,,,,,,,,,,,,,,,,,,,,,,,,173.63084261699987,173.6425751170027,173.6425751170027,173.99706940200122,r,1.0,0.3266639339999528,,,,,sub-007,1,stroop_test,89.04809897734557,
,,,,31.0,7.0,2.0,,,,,,,,,,,,,blau,blue,b,1.0,b,1.0,0.437106359997415,,,,,,,,,,2.0,7.0,31.0,6.0,174.01036926000234,,,,,,,,,,,,,,,,,173.99786182900425,174.79793924299884,175.60547358199983,175.58924805300194,,,,,,,,,,,,,,,,,,,,,,,,,,,,,,,,,,,175.5942964640053,175.60547358199983,175.60547358199983,176.05334106100054,b,1.0,0.437106359997415,,,,,sub-007,1,stroop_test,89.04809897734557,
,,,,32.0,8.0,2.0,,,,,,,,,,,,,gelb,yellow,g,1.0,b,0.0,0.5376766039989889,,,,,,,,,,2.0,8.0,32.0,10.0,176.06771892899997,,,,,,,,,,,,,,,,,176.0542315480052,176.40225197600375,177.20306288500433,177.18796795900562,,,,,,,,,,,,,,,,,,,,,,,,,,,,,,,,,,,177.192402613,177.20306288500433,177.20306288500433,177.75128596200375,b,0.0,0.5376766039989889,,,,,sub-007,1,stroop_test,89.04809897734557,
,,,,33.0,9.0,2.0,,,,,,,,,,,,,blau,yellow,g,0.0,g,1.0,0.6081541650055442,,,,,,,,,,2.0,9.0,33.0,7.0,177.76504173200374,,,,,,,,,,,,,,,,,177.7518708819989,178.5518325209996,179.36132713000552,179.34460673000285,,,,,,,,,,,,,,,,,,,,,,,,,,,,,,,,,,,179.3492255240053,179.36132713000552,179.36132713000552,179.97602899200135,g,1.0,0.6081541650055442,,,,,sub-007,1,stroop_test,89.04809897734557,
,,,,34.0,10.0,2.0,,,,,,,,,,,,,rot,red,r,1.0,r,1.0,0.654656104001333,,,,,,,,,,2.0,10.0,34.0,0.0,179.98954106400197,,,,,,,,,,,,,,,,,179.9766613210013,180.78651796700436,181.59736504500324,181.5812036819989,,,,,,,,,,,,,,,,,,,,,,,,,,,,,,,,,,,181.58579390600065,181.59736504500324,181.59736504500324,182.280842775006,r,1.0,0.654656104001333,,,,,sub-007,1,stroop_test,89.04809897734557,
,,,,35.0,11.0,2.0,,,,,,,,,,,,,gelb,red,r,0.0,r,1.0,0.4513652809982886,,,,,,,,,,2.0,11.0,35.0,8.0,182.29405309700087,,,,,,,,,,,,,,,,,182.28147645300487,183.48090166800105,184.29313608600205,184.27765932400507,,,,,,,,,,,,,,,,,,,,,,,,,,,,,,,,,,,184.281835050002,184.29313608600205,184.29313608600205,184.7630049530053,r,1.0,0.4513652809982886,,,,,sub-007,1,stroop_test,89.04809897734557,
,,,,36.0,0.0,3.0,,,,,,,,,,,,,blau,yellow,g,0.0,g,1.0,0.4855542000004789,,,,,,,,,,3.0,0.0,36.0,7.0,184.7763934440009,,,,,,,,,,,,,,,,,184.76362892200268,184.86498766300065,185.672776378,185.6560408380028,,,,,,,,,,,,,,,,,,,,,,,,,,,,,,,,,,,185.6607813330047,185.672776378,185.672776378,186.1643467160029,g,1.0,0.4855542000004789,,,,,sub-007,1,stroop_test,89.04809897734557,
,,,,37.0,1.0,3.0,,,,,,,,,,,,,gelb,blue,b,0.0,b,1.0,0.342132498997671,,,,,,,,,,3.0,1.0,37.0,9.0,186.17687219800428,,,,,,,,,,,,,,,,,186.16492783799916,186.51255911000044,187.31838906399932,187.29929240600177,,,,,,,,,,,,,,,,,,,,,,,,,,,,,,,,,,,187.30529184100303,187.31838906399932,187.31838906399932,187.6645558080054,b,1.0,0.342132498997671,,,,,sub-007,1,stroop_test,89.04809897734557,
,,,,38.0,2.0,3.0,,,,,,,,,,,,,rot,red,r,1.0,r,1.0,0.3491564770010882,,,,,,,,,,3.0,2.0,38.0,1.0,187.6782150460058,,,,,,,,,,,,,,,,,187.66523291799967,188.86159042500367,189.6772164659997,189.65307355500408,,,,,,,,,,,,,,,,,,,,,,,,,,,,,,,,,,,189.66080054399936,189.6772164659997,189.6772164659997,190.03322053900047,r,1.0,0.3491564770010882,,,,,sub-007,1,stroop_test,89.04809897734557,
,,,,39.0,3.0,3.0,,,,,,,,,,,,,blau,blue,b,1.0,b,1.0,0.53167130699876,,,,,,,,,,3.0,3.0,39.0,6.0,190.0464770320032,,,,,,,,,,,,,,,,,190.03378483300185,190.130913797002,190.937454289,190.9215004750004,,,,,,,,,,,,,,,,,,,,,,,,,,,,,,,,,,,190.9264103820024,190.937454289,190.937454289,191.48424148499907,b,1.0,0.53167130699876,,,,,sub-007,1,stroop_test,89.04809897734557,
,,,,40.0,4.0,3.0,,,,,,,,,,,,,rot,yellow,g,0.0,g,1.0,0.3649262629987788,,,,,,,,,,3.0,4.0,40.0,3.0,191.498300817002,,,,,,,,,,,,,,,,,191.48494907200077,191.83568883800035,192.64262326300377,192.6274265770044,,,,,,,,,,,,,,,,,,,,,,,,,,,,,,,,,,,192.63158916900284,192.64262326300377,192.64262326300377,193.0132727490054,g,1.0,0.3649262629987788,,,,,sub-007,1,stroop_test,89.04809897734557,
,,,,41.0,5.0,3.0,,,,,,,,,,,,,blau,blue,b,1.0,b,1.0,0.4237944790002075,,,,,,,,,,3.0,5.0,41.0,5.0,193.0253121470014,,,,,,,,,,,,,,,,,193.01384200600296,193.11851651799952,193.92604549500535,193.9107056330031,,,,,,,,,,,,,,,,,,,,,,,,,,,,,,,,,,,193.9152040800036,193.92604549500535,193.92604549500535,194.3654186760032,b,1.0,0.4237944790002075,,,,,sub-007,1,stroop_test,89.04809897734557,
,,,,42.0,6.0,3.0,,,,,,,,,,,,,gelb,red,r,0.0,r,1.0,0.3707322210029815,,,,,,,,,,3.0,6.0,42.0,8.0,194.3797214570004,,,,,,,,,,,,,,,,,194.36608523700124,194.469173933001,195.27525394300028,195.26059408000583,,,,,,,,,,,,,,,,,,,,,,,,,,,,,,,,,,,195.26465572800225,195.27525394300028,195.27525394300028,195.65947594300087,r,1.0,0.3707322210029815,,,,,sub-007,1,stroop_test,89.04809897734557,
,,,,43.0,7.0,3.0,,,,,,,,,,,,,gelb,yellow,g,1.0,g,1.0,0.3135629460011842,,,,,,,,,,3.0,7.0,43.0,11.0,195.67272340600172,,,,,,,,,,,,,,,,,195.66011630200228,196.8581298740028,197.6631276210028,197.64914087700163,,,,,,,,,,,,,,,,,,,,,,,,,,,,,,,,,,,197.64995106200516,197.6631276210028,197.6631276210028,197.98937301700064,g,1.0,0.3135629460011842,,,,,sub-007,1,stroop_test,89.04809897734557,
,,,,44.0,8.0,3.0,,,,,,,,,,,,,gelb,yellow,g,1.0,g,1.0,0.4169715409952914,,,,,,,,,,3.0,8.0,44.0,10.0,198.0045167480057,,,,,,,,,,,,,,,,,197.99015682499885,198.0926154800036,198.89358575900405,198.8819570590058,,,,,,,,,,,,,,,,,,,,,,,,,,,,,,,,,,,198.8826908800038,198.89358575900405,198.89358575900405,199.3184552620005,g,1.0,0.4169715409952914,,,,,sub-007,1,stroop_test,89.04809897734557,
,,,,45.0,9.0,3.0,,,,,,,,,,,,,blau,red,r,0.0,r,1.0,0.3610932310039061,,,,,,,,,,3.0,9.0,45.0,4.0,199.33251404200564,,,,,,,,,,,,,,,,,199.31909457399888,199.41536249800265,200.22111514700373,200.20399446400552,,,,,,,,,,,,,,,,,,,,,,,,,,,,,,,,,,,200.20944921699996,200.22111514700373,200.22111514700373,200.59046455300268,r,1.0,0.3610932310039061,,,,,sub-007,1,stroop_test,89.04809897734557,
,,,,46.0,10.0,3.0,,,,,,,,,,,,,rot,red,r,1.0,g,0.0,0.4049974219960859,,,,,,,,,,3.0,10.0,46.0,0.0,200.6036467130034,,,,,,,,,,,,,,,,,200.59136817300168,201.39294445600532,202.19595015099912,202.1804553730035,,,,,,,,,,,,,,,,,,,,,,,,,,,,,,,,,,,202.18501882800047,202.19595015099912,202.19595015099912,202.60739532300067,g,0.0,0.4049974219960859,,,,,sub-007,1,stroop_test,89.04809897734557,
,,,,47.0,11.0,3.0,,,,,,,,,,,,,rot,blue,b,0.0,b,1.0,1.2658110880001914,,,,,,,,,,3.0,11.0,47.0,2.0,202.62180865400296,,,,,,,,,,,,,,,,,202.60812872500537,202.71017624199885,203.51660426099988,203.50346492500103,,,,,,,,,,,,,,,,,,,,,,,,,,,,,,,,,,,203.50448288800544,203.51660426099988,203.51660426099988,204.7964419839991,b,1.0,1.2658110880001914,,,,,sub-007,1,stroop_test,89.04809897734557,
,,,,48.0,0.0,4.0,,,,,,,,,,,,,rot,blue,b,0.0,b,1.0,0.4258173630005331,,,,,,,,,,4.0,0.0,48.0,2.0,204.81027435899887,,,,,,,,,,,,,,,,,204.7970234020031,205.14449531900027,205.95126995399917,205.9376369040037,,,,,,,,,,,,,,,,,,,,,,,,,,,,,,,,,,,205.9385386620052,205.95126995399917,205.95126995399917,206.38399939100051,b,1.0,0.4258173630005331,,,,,sub-007,1,stroop_test,89.04809897734557,
,,,,49.0,1.0,4.0,,,,,,,,,,,,,blau,blue,b,1.0,b,1.0,0.4466586519993143,,,,,,,,,,4.0,1.0,49.0,5.0,206.3977110410051,,,,,,,,,,,,,,,,,206.38459159100603,206.48040404600036,207.28040856100412,207.2642191880004,,,,,,,,,,,,,,,,,,,,,,,,,,,,,,,,,,,207.268621893003,207.28040856100412,207.28040856100412,207.73185301299964,b,1.0,0.4466586519993143,,,,,sub-007,1,stroop_test,89.04809897734557,
,,,,50.0,2.0,4.0,,,,,,,,,,,,,rot,red,r,1.0,r,1.0,0.3391755150005338,,,,,,,,,,4.0,2.0,50.0,0.0,207.74466078200203,,,,,,,,,,,,,,,,,207.7324667700013,208.53395823000028,209.33737464000296,209.320115170005,,,,,,,,,,,,,,,,,,,,,,,,,,,,,,,,,,,209.32542237600137,209.33737464000296,209.33737464000296,209.68481790700025,r,1.0,0.3391755150005338,,,,,sub-007,1,stroop_test,89.04809897734557,
,,,,51.0,3.0,4.0,,,,,,,,,,,,,gelb,yellow,g,1.0,g,1.0,0.3749730769995949,,,,,,,,,,4.0,3.0,51.0,11.0,209.69850450599915,,,,,,,,,,,,,,,,,209.68540511400352,210.48963378400367,211.30368929199904,211.283463754,,,,,,,,,,,,,,,,,,,,,,,,,,,,,,,,,,,211.2901649750056,211.30368929199904,211.30368929199904,211.68526541900064,g,1.0,0.3749730769995949,,,,,sub-007,1,stroop_test,89.04809897734557,
,,,,52.0,4.0,4.0,,,,,,,,,,,,,gelb,yellow,g,1.0,g,1.0,0.3582472030029748,,,,,,,,,,4.0,4.0,52.0,10.0,211.699484913006,,,,,,,,,,,,,,,,,211.6858813620056,212.4787084710042,213.2750708599997,213.2628604640049,,,,,,,,,,,,,,,,,,,,,,,,,,,,,,,,,,,213.2636453160012,213.2750708599997,213.2750708599997,213.65047858700564,g,1.0,0.3582472030029748,,,,,sub-007,1,stroop_test,89.04809897734557,
,,,,53.0,5.0,4.0,,,,,,,,,,,,,blau,red,r,0.0,r,1.0,0.4073730740055907,,,,,,,,,,4.0,5.0,53.0,4.0,213.66478421600183,,,,,,,,,,,,,,,,,213.65128577300493,213.7513056240059,214.5573784529988,214.5390622470004,,,,,,,,,,,,,,,,,,,,,,,,,,,,,,,,,,,214.54454324000108,214.5573784529988,214.5573784529988,214.9786957260003,r,1.0,0.4073730740055907,,,,,sub-007,1,stroop_test,89.04809897734557,
,,,,54.0,6.0,4.0,,,,,,,,,,,,,gelb,blue,b,0.0,b,1.0,0.4436628929979633,,,,,,,,,,4.0,6.0,54.0,9.0,214.99081709400343,,,,,,,,,,,,,,,,,214.97923856400303,215.77636484600225,216.576557627006,216.5614943120017,,,,,,,,,,,,,,,,,,,,,,,,,,,,,,,,,,,216.56562936200496,216.576557627006,216.576557627006,217.02986151900404,b,1.0,0.4436628929979633,,,,,sub-007,1,stroop_test,89.04809897734557,
,,,,55.0,7.0,4.0,,,,,,,,,,,,,rot,red,r,1.0,r,1.0,0.508647745999042,,,,,,,,,,4.0,7.0,55.0,1.0,217.0438479650038,,,,,,,,,,,,,,,,,217.03048043900344,217.3842954970023,218.1935957240057,218.17726646699884,,,,,,,,,,,,,,,,,,,,,,,,,,,,,,,,,,,218.18238647100225,218.1935957240057,218.1935957240057,218.7142651000031,r,1.0,0.508647745999042,,,,,sub-007,1,stroop_test,89.04809897734557,
,,,,56.0,8.0,4.0,,,,,,,,,,,,,gelb,red,r,0.0,r,1.0,0.4227743079973152,,,,,,,,,,4.0,8.0,56.0,8.0,218.7281593430016,,,,,,,,,,,,,,,,,218.7149027769992,219.5266456600002,220.3360336400001,220.31250959799945,,,,,,,,,,,,,,,,,,,,,,,,,,,,,,,,,,,220.32152395100275,220.3360336400001,220.3360336400001,220.76264085500588,r,1.0,0.4227743079973152,,,,,sub-007,1,stroop_test,89.04809897734557,
,,,,57.0,9.0,4.0,,,,,,,,,,,,,rot,yellow,g,0.0,g,1.0,0.4668816499979584,,,,,,,,,,4.0,9.0,57.0,3.0,220.77600324100055,,,,,,,,,,,,,,,,,220.76321185800043,221.1199028100018,221.9278732130042,221.9109042030032,,,,,,,,,,,,,,,,,,,,,,,,,,,,,,,,,,,221.91590676300257,221.9278732130042,221.9278732130042,222.40015757900252,g,1.0,0.4668816499979584,,,,,sub-007,1,stroop_test,89.04809897734557,
,,,,58.0,10.0,4.0,,,,,,,,,,,,,blau,yellow,g,0.0,g,1.0,0.4696777959979954,,,,,,,,,,4.0,10.0,58.0,7.0,222.41287839800495,,,,,,,,,,,,,,,,,222.40071338500277,222.5032515790008,223.3046322060036,223.2878444529997,,,,,,,,,,,,,,,,,,,,,,,,,,,,,,,,,,,223.2930307010029,223.3046322060036,223.3046322060036,223.7844401629991,g,1.0,0.4696777959979954,,,,,sub-007,1,stroop_test,89.04809897734557,
,,,,59.0,11.0,4.0,,,,,,,,,,,,,blau,blue,b,1.0,b,1.0,0.4362353620017529,,,,,,,,,,4.0,11.0,59.0,6.0,223.7987460880031,,,,,,,,,,,,,,,,,223.7850593930052,224.97787197500293,225.78343144200332,225.77096688100573,,,,,,,,,,,,,,,,,,,,,,,,,,,,,,,,,,,225.7717794820055,225.78343144200332,225.78343144200332,226.23258496600465,b,1.0,0.4362353620017529,,,,,sub-007,1,stroop_test,89.04809897734557,
,,,,60.0,0.0,5.0,,,,,,,,,,,,,blau,blue,b,1.0,b,1.0,0.708243114000652,,,,,,,,,,5.0,0.0,60.0,6.0,226.24714572499943,,,,,,,,,,,,,,,,,226.23316387399973,227.43274085300072,228.23256366400165,228.21709506600016,,,,,,,,,,,,,,,,,,,,,,,,,,,,,,,,,,,228.21794833899912,228.23256366400165,228.23256366400165,228.9528061450037,b,1.0,0.708243114000652,,,,,sub-007,1,stroop_test,89.04809897734557,
,,,,61.0,1.0,5.0,,,,,,,,,,,,,gelb,yellow,g,1.0,g,1.0,0.5681443869980285,,,,,,,,,,5.0,1.0,61.0,10.0,228.96606448200328,,,,,,,,,,,,,,,,,228.95372108900483,230.1769256260013,230.97941780600377,230.96333910600515,,,,,,,,,,,,,,,,,,,,,,,,,,,,,,,,,,,230.9674955110022,230.97941780600377,230.97941780600377,231.5611363960052,g,1.0,0.5681443869980285,,,,,sub-007,1,stroop_test,89.04809897734557,
,,,,62.0,2.0,5.0,,,,,,,,,,,,,blau,red,r,0.0,r,1.0,0.7320506380056031,,,,,,,,,,5.0,2.0,62.0,4.0,231.5730510390058,,,,,,,,,,,,,,,,,231.56162087700068,231.66095804400535,232.4641433210054,232.4465557030053,,,,,,,,,,,,,,,,,,,,,,,,,,,,,,,,,,,232.45117370200023,232.4641433210054,232.4641433210054,233.20198909600003,r,1.0,0.7320506380056031,,,,,sub-007,1,stroop_test,89.04809897734557,
,,,,63.0,3.0,5.0,,,,,,,,,,,,,rot,blue,b,0.0,b,1.0,0.4994141639981535,,,,,,,,,,5.0,3.0,63.0,2.0,233.21635442400293,,,,,,,,,,,,,,,,,233.2026817060032,233.5486063540011,234.35429270700115,234.33575841900165,,,,,,,,,,,,,,,,,,,,,,,,,,,,,,,,,,,234.3430081140032,234.35429270700115,234.35429270700115,234.8671505300008,b,1.0,0.4994141639981535,,,,,sub-007,1,stroop_test,89.04809897734557,
,,,,64.0,4.0,5.0,,,,,,,,,,,,,rot,red,r,1.0,r,1.0,0.3687790870026219,,,,,,,,,,5.0,4.0,64.0,1.0,234.8805979480021,,,,,,,,,,,,,,,,,234.8677904710057,235.2120445680048,236.01578185800463,236.00284063800063,,,,,,,,,,,,,,,,,,,,,,,,,,,,,,,,,,,236.003804537002,236.01578185800463,236.01578185800463,236.38963949600293,r,1.0,0.3687790870026219,,,,,sub-007,1,stroop_test,89.04809897734557,
,,,,65.0,5.0,5.0,,,,,,,,,,,,,gelb,red,r,0.0,r,1.0,0.7165612000026158,,,,,,,,,,5.0,5.0,65.0,8.0,236.40245918399887,,,,,,,,,,,,,,,,,236.3904392410041,237.18903803400465,237.99211402900252,237.97702225000103,,,,,,,,,,,,,,,,,,,,,,,,,,,,,,,,,,,237.98125832599908,237.99211402900252,237.99211402900252,238.7164412630009,r,1.0,0.7165612000026158,,,,,sub-007,1,stroop_test,89.04809897734557,
,,,,66.0,6.0,5.0,,,,,,,,,,,,,gelb,blue,b,0.0,b,1.0,0.5265473540057428,,,,,,,,,,5.0,6.0,66.0,9.0,238.72969611400185,,,,,,,,,,,,,,,,,238.7170242110005,239.51387436400543,240.3140788430028,240.302407797004,,,,,,,,,,,,,,,,,,,,,,,,,,,,,,,,,,,240.3035886360012,240.3140788430028,240.3140788430028,240.85207175200048,b,1.0,0.5265473540057428,,,,,sub-007,1,stroop_test,89.04809897734557,
,,,,67.0,7.0,5.0,,,,,,,,,,,,,blau,yellow,g,0.0,g,1.0,0.4131047420014511,,,,,,,,,,5.0,7.0,67.0,7.0,240.8658906749988,,,,,,,,,,,,,,,,,240.8527510730055,241.1984472270051,242.00147709800515,241.98488418900524,,,,,,,,,,,,,,,,,,,,,,,,,,,,,,,,,,,241.9901540790015,242.00147709800515,242.00147709800515,242.43042272700404,g,1.0,0.4131047420014511,,,,,sub-007,1,stroop_test,89.04809897734557,
,,,,68.0,8.0,5.0,,,,,,,,,,,,,gelb,yellow,g,1.0,g,1.0,0.3130701740010408,,,,,,,,,,5.0,8.0,68.0,11.0,242.45459384100104,,,,,,,,,,,,,,,,,242.4319159020015,243.2436277470042,244.0645666679993,244.030365437,,,,,,,,,,,,,,,,,,,,,,,,,,,,,,,,,,,244.04141557600087,244.0645666679993,244.0645666679993,244.38539602200035,g,1.0,0.3130701740010408,,,,,sub-007,1,stroop_test,89.04809897734557,
,,,,69.0,9.0,5.0,,,,,,,,,,,,,rot,red,r,1.0,r,1.0,0.4667520729999523,,,,,,,,,,5.0,9.0,69.0,0.0,244.40350889000547,,,,,,,,,,,,,,,,,244.38615256000048,244.4980043390024,245.3093837250053,245.28965973500453,,,,,,,,,,,,,,,,,,,,,,,,,,,,,,,,,,,245.2955602990041,245.3093837250053,245.3093837250053,245.79133083600027,r,1.0,0.4667520729999523,,,,,sub-007,1,stroop_test,89.04809897734557,
,,,,70.0,10.0,5.0,,,,,,,,,,,,,blau,blue,b,1.0,b,1.0,0.3747503260019584,,,,,,,,,,5.0,10.0,70.0,5.0,245.8059695960037,,,,,,,,,,,,,,,,,245.79208379000195,245.8879225769997,246.7106717630013,246.68648041200504,,,,,,,,,,,,,,,,,,,,,,,,,,,,,,,,,,,246.6950374020016,246.7106717630013,246.7106717630013,247.0961589590006,b,1.0,0.3747503260019584,,,,,sub-007,1,stroop_test,89.04809897734557,
,,,,71.0,11.0,5.0,,,,,,,,,,,,,rot,yellow,g,0.0,g,1.0,0.2972302170019247,,,,,,,,,,5.0,11.0,71.0,3.0,247.10917476600295,,,,,,,,,,,,,,,,,247.09673925300007,248.29526963800163,249.1014345520016,249.08560818499973,,,,,,,,,,,,,,,,,,,,,,,,,,,,,,,,,,,249.0909172640022,249.1014345520016,249.1014345520016,249.40692227800173,g,1.0,0.2972302170019247,,,,,sub-007,1,stroop_test,89.04809897734557,
,,,,72.0,0.0,6.0,,,,,,,,,,,,,blau,yellow,g,0.0,g,1.0,0.4177488469940726,,,,,,,,,,6.0,0.0,72.0,7.0,249.42063895700267,,,,,,,,,,,,,,,,,249.40757960300107,249.51037577500392,250.32246513800052,250.3039083750045,,,,,,,,,,,,,,,,,,,,,,,,,,,,,,,,,,,250.31001529900092,250.32246513800052,250.32246513800052,250.75176427700356,g,1.0,0.4177488469940726,,,,,sub-007,1,stroop_test,89.04809897734557,
,,,,73.0,1.0,6.0,,,,,,,,,,,,,rot,red,r,1.0,r,1.0,0.297866057997453,,,,,,,,,,6.0,1.0,73.0,0.0,250.7653151160048,,,,,,,,,,,,,,,,,250.7523597640029,251.54709187400292,252.35876561300392,252.3429566180057,,,,,,,,,,,,,,,,,,,,,,,,,,,,,,,,,,,252.3474805040023,252.35876561300392,252.35876561300392,252.6632706320015,r,1.0,0.297866057997453,,,,,sub-007,1,stroop_test,89.04809897734557,
,,,,74.0,2.0,6.0,,,,,,,,,,,,,blau,blue,b,1.0,b,1.0,0.3668090100036352,,,,,,,,,,6.0,2.0,74.0,6.0,252.6760332220001,,,,,,,,,,,,,,,,,252.66385800699936,253.4606066039996,254.26174422400072,254.24578008400567,,,,,,,,,,,,,,,,,,,,,,,,,,,,,,,,,,,254.2495736580022,254.26174422400072,254.26174422400072,254.63325263000297,b,1.0,0.3668090100036352,,,,,sub-007,1,stroop_test,89.04809897734557,
,,,,75.0,3.0,6.0,,,,,,,,,,,,,gelb,red,r,0.0,r,1.0,0.3607131409953581,,,,,,,,,,6.0,3.0,75.0,8.0,254.6465489040056,,,,,,,,,,,,,,,,,254.633855787004,255.82731818400495,256.6368457360004,256.6199463410012,,,,,,,,,,,,,,,,,,,,,,,,,,,,,,,,,,,256.62526319600147,256.6368457360004,256.6368457360004,257.0007987610006,r,1.0,0.3607131409953581,,,,,sub-007,1,stroop_test,89.04809897734557,
,,,,76.0,4.0,6.0,,,,,,,,,,,,,gelb,yellow,g,1.0,g,1.0,0.5607735379962833,,,,,,,,,,6.0,4.0,76.0,10.0,257.0140704430014,,,,,,,,,,,,,,,,,257.0016253960057,257.35196385200106,258.15895296500094,258.14687955900445,,,,,,,,,,,,,,,,,,,,,,,,,,,,,,,,,,,258.1476845030047,258.15895296500094,258.15895296500094,258.72435906000464,g,1.0,0.5607735379962833,,,,,sub-007,1,stroop_test,89.04809897734557,
,,,,77.0,5.0,6.0,,,,,,,,,,,,,gelb,yellow,g,1.0,b,0.0,0.3541088470010436,,,,,,,,,,6.0,5.0,77.0,11.0,258.7384880150057,,,,,,,,,,,,,,,,,258.7249824910032,259.52588357900095,260.3243413930031,260.3127437160001,,,,,,,,,,,,,,,,,,,,,,,,,,,,,,,,,,,260.313428735004,260.3243413930031,260.3243413930031,260.6918850330039,b,0.0,0.3541088470010436,,,,,sub-007,1,stroop_test,89.04809897734557,
,,,,78.0,6.0,6.0,,,,,,,,,,,,,blau,red,r,0.0,r,1.0,0.5359989989956375,,,,,,,,,,6.0,6.0,78.0,4.0,260.705625857001,,,,,,,,,,,,,,,,,260.69251022700337,261.89254962900304,262.69699377000507,262.6815176110031,,,,,,,,,,,,,,,,,,,,,,,,,,,,,,,,,,,262.6857050270046,262.69699377000507,262.69699377000507,263.2450391310049,r,1.0,0.5359989989956375,,,,,sub-007,1,stroop_test,89.04809897734557,
,,,,79.0,7.0,6.0,,,,,,,,,,,,,rot,red,r,1.0,r,1.0,0.4579687069999636,,,,,,,,,,6.0,7.0,79.0,1.0,263.2578656360056,,,,,,,,,,,,,,,,,263.2456558070044,264.44242125299934,265.2481452850043,265.2317151009993,,,,,,,,,,,,,,,,,,,,,,,,,,,,,,,,,,,265.23686066400114,265.2481452850043,265.2481452850043,265.7192726330032,r,1.0,0.4579687069999636,,,,,sub-007,1,stroop_test,89.04809897734557,
,,,,80.0,8.0,6.0,,,,,,,,,,,,,gelb,blue,b,0.0,b,1.0,0.6121376040027826,,,,,,,,,,6.0,8.0,80.0,9.0,265.7331732060047,,,,,,,,,,,,,,,,,265.7199612440017,265.8249716900027,266.6302393440056,266.61281386700284,,,,,,,,,,,,,,,,,,,,,,,,,,,,,,,,,,,266.61848410300445,266.6302393440056,266.6302393440056,267.2512223890008,b,1.0,0.6121376040027826,,,,,sub-007,1,stroop_test,89.04809897734557,
,,,,81.0,9.0,6.0,,,,,,,,,,,,,blau,blue,b,1.0,b,1.0,0.3753462579988991,,,,,,,,,,6.0,9.0,81.0,5.0,267.2640046529996,,,,,,,,,,,,,,,,,267.2517862560053,267.60583178500383,268.4087732219996,268.392874612,,,,,,,,,,,,,,,,,,,,,,,,,,,,,,,,,,,268.3973116510024,268.4087732219996,268.4087732219996,268.7898695420008,b,1.0,0.3753462579988991,,,,,sub-007,1,stroop_test,89.04809897734557,
,,,,82.0,10.0,6.0,,,,,,,,,,,,,rot,yellow,g,0.0,g,1.0,0.7664972030033823,,,,,,,,,,6.0,10.0,82.0,3.0,268.80305807900004,,,,,,,,,,,,,,,,,268.7905039140024,268.8906681200024,269.7079607240012,269.692937247004,,,,,,,,,,,,,,,,,,,,,,,,,,,,,,,,,,,269.6966713380025,269.7079607240012,269.7079607240012,270.4803287260001,g,1.0,0.7664972030033823,,,,,sub-007,1,stroop_test,89.04809897734557,
,,,,83.0,11.0,6.0,,,,,,,,,,,,,rot,blue,b,0.0,b,1.0,0.9088969870063012,,,,,,,,,,6.0,11.0,83.0,2.0,270.49377601200104,,,,,,,,,,,,,,,,,270.4809741390054,271.6736578589989,272.47130441600166,272.45993527400424,,,,,,,,,,,,,,,,,,,,,,,,,,,,,,,,,,,272.4606430710046,272.47130441600166,272.47130441600166,273.38965722300054,b,1.0,0.9088969870063012,,,,,sub-007,1,stroop_test,89.04809897734557,
,,,,84.0,0.0,7.0,,,,,,,,,,,,,rot,blue,b,0.0,b,1.0,0.4267076559990528,,,,,,,,,,7.0,0.0,84.0,2.0,273.40248652000446,,,,,,,,,,,,,,,,,273.3902292830025,273.73655119300383,274.5391584340032,274.52784855999926,,,,,,,,,,,,,,,,,,,,,,,,,,,,,,,,,,,274.5286104370025,274.5391584340032,274.5391584340032,274.973347777006,b,1.0,0.4267076559990528,,,,,sub-007,1,stroop_test,89.04809897734557,
,,,,85.0,1.0,7.0,,,,,,,,,,,,,gelb,yellow,g,1.0,g,1.0,0.456926138002018,,,,,,,,,,7.0,1.0,85.0,10.0,274.98598605300504,,,,,,,,,,,,,,,,,274.973926384002,275.77527733999887,276.5753713610029,276.5599031640013,,,,,,,,,,,,,,,,,,,,,,,,,,,,,,,,,,,276.56417932600016,276.5753713610029,276.5753713610029,277.04419698900165,g,1.0,0.456926138002018,,,,,sub-007,1,stroop_test,89.04809897734557,
,,,,86.0,2.0,7.0,,,,,,,,,,,,,blau,blue,b,1.0,b,1.0,0.4816101359974709,,,,,,,,,,7.0,2.0,86.0,5.0,277.0568292169992,,,,,,,,,,,,,,,,,277.0447684210012,277.84555899700354,278.65062701800343,278.63539757900435,,,,,,,,,,,,,,,,,,,,,,,,,,,,,,,,,,,278.64080260899937,278.65062701800343,278.65062701800343,279.14469108400226,b,1.0,0.4816101359974709,,,,,sub-007,1,stroop_test,89.04809897734557,
,,,,87.0,3.0,7.0,,,,,,,,,,,,,rot,red,r,1.0,r,1.0,0.4440850099999807,,,,,,,,,,7.0,3.0,87.0,1.0,279.15806039200106,,,,,,,,,,,,,,,,,279.1453114690012,279.49232151500473,280.2922232120036,280.2768100110043,,,,,,,,,,,,,,,,,,,,,,,,,,,,,,,,,,,280.2809266570039,280.2922232120036,280.2922232120036,280.7457379780026,r,1.0,0.4440850099999807,,,,,sub-007,1,stroop_test,89.04809897734557,
,,,,88.0,4.0,7.0,,,,,,,,,,,,,blau,blue,b,1.0,b,1.0,0.5075228569985484,,,,,,,,,,7.0,4.0,88.0,6.0,280.7586833520036,,,,,,,,,,,,,,,,,280.7463518020013,281.94210858899896,282.74916948399914,282.73024310800247,,,,,,,,,,,,,,,,,,,,,,,,,,,,,,,,,,,282.736314202004,282.74916948399914,282.74916948399914,283.271464341,b,1.0,0.5075228569985484,,,,,sub-007,1,stroop_test,89.04809897734557,
,,,,89.0,5.0,7.0,,,,,,,,,,,,,gelb,red,r,0.0,r,1.0,0.3812295109964907,,,,,,,,,,7.0,5.0,89.0,8.0,283.28534401900106,,,,,,,,,,,,,,,,,283.27219490000425,283.62092008699983,284.42888642800244,284.4104324420041,,,,,,,,,,,,,,,,,,,,,,,,,,,,,,,,,,,284.4160421960041,284.42888642800244,284.42888642800244,284.8258192380017,r,1.0,0.3812295109964907,,,,,sub-007,1,stroop_test,89.04809897734557,
,,,,90.0,6.0,7.0,,,,,,,,,,,,,rot,yellow,g,0.0,g,1.0,0.3710519899977953,,,,,,,,,,7.0,6.0,90.0,3.0,284.84066238900414,,,,,,,,,,,,,,,,,284.82654165100394,286.0254055960031,286.84182075800345,286.82699670700094,,,,,,,,,,,,,,,,,,,,,,,,,,,,,,,,,,,286.8307992660048,286.84182075800345,286.84182075800345,287.22311753500253,g,1.0,0.3710519899977953,,,,,sub-007,1,stroop_test,89.04809897734557,
,,,,91.0,7.0,7.0,,,,,,,,,,,,,blau,yellow,g,0.0,g,1.0,0.4867450330057181,,,,,,,,,,7.0,7.0,91.0,7.0,287.2363642210039,,,,,,,,,,,,,,,,,287.2237250399994,287.3198588840023,288.12494583600346,288.110410289999,,,,,,,,,,,,,,,,,,,,,,,,,,,,,,,,,,,288.11416441700567,288.12494583600346,288.12494583600346,288.6158214440002,g,1.0,0.4867450330057181,,,,,sub-007,1,stroop_test,89.04809897734557,
,,,,92.0,8.0,7.0,,,,,,,,,,,,,rot,red,r,1.0,r,1.0,0.4836087730000145,,,,,,,,,,7.0,8.0,92.0,0.0,288.6301542069996,,,,,,,,,,,,,,,,,288.6163769460036,289.42537048600207,290.22527669700503,290.20981131400185,,,,,,,,,,,,,,,,,,,,,,,,,,,,,,,,,,,290.21390323700325,290.22527669700503,290.22527669700503,290.71690212500107,r,1.0,0.4836087730000145,,,,,sub-007,1,stroop_test,89.04809897734557,
,,,,93.0,9.0,7.0,,,,,,,,,,,,,gelb,yellow,g,1.0,g,1.0,0.4683865510014584,,,,,,,,,,7.0,9.0,93.0,11.0,290.731283429006,,,,,,,,,,,,,,,,,290.71754194400273,291.91412826300075,292.7205852859988,292.70241743000224,,,,,,,,,,,,,,,,,,,,,,,,,,,,,,,,,,,292.70794919300533,292.7205852859988,292.7205852859988,293.2017634980002,g,1.0,0.4683865510014584,,,,,sub-007,1,stroop_test,89.04809897734557,
,,,,94.0,10.0,7.0,,,,,,,,,,,,,gelb,blue,b,0.0,b,1.0,0.4595031099961488,,,,,,,,,,7.0,10.0,94.0,9.0,293.21589828900323,,,,,,,,,,,,,,,,,293.20260059900465,294.0249185270004,294.821802080005,294.810868022003,,,,,,,,,,,,,,,,,,,,,,,,,,,,,,,,,,,294.81153455200547,294.821802080005,294.821802080005,295.2891709000032,b,1.0,0.4595031099961488,,,,,sub-007,1,stroop_test,89.04809897734557,
,,,,95.0,11.0,7.0,,,,,,,,,,,,,blau,red,r,0.0,r,1.0,0.3244865790038602,,,,,,,,,,7.0,11.0,95.0,4.0,295.301452907006,,,,,,,,,,,,,,,,,295.289777072001,296.4900720650039,297.29232467800466,297.2760506590057,,,,,,,,,,,,,,,,,,,,,,,,,,,,,,,,,,,297.28061540400086,297.29232467800466,297.29232467800466,297.62841916300385,r,1.0,0.3244865790038602,,,,,sub-007,1,stroop_test,89.04809897734557,
,,,,96.0,0.0,8.0,,,,,,,,,,,,,blau,red,r,0.0,r,1.0,0.4086386359995231,,,,,,,,,,8.0,0.0,96.0,4.0,297.6417834189997,,,,,,,,,,,,,,,,,297.6290164630045,298.42775555400294,299.23755196200364,299.22660578600335,,,,,,,,,,,,,,,,,,,,,,,,,,,,,,,,,,,299.22728275300324,299.23755196200364,299.23755196200364,299.65078032699967,r,1.0,0.4086386359995231,,,,,sub-007,1,stroop_test,89.04809897734557,
,,,,97.0,1.0,8.0,,,,,,,,,,,,,blau,blue,b,1.0,b,1.0,0.4952775030033081,,,,,,,,,,8.0,1.0,97.0,6.0,299.66503972500504,,,,,,,,,,,,,,,,,299.6514776309996,299.99720748300024,300.8065043780007,300.7933782840046,,,,,,,,,,,,,,,,,,,,,,,,,,,,,,,,,,,300.7943807580013,300.8065043780007,300.8065043780007,301.31187113200576,b,1.0,0.4952775030033081,,,,,sub-007,1,stroop_test,89.04809897734557,
,,,,98.0,2.0,8.0,,,,,,,,,,,,,gelb,red,r,0.0,r,1.0,0.4492948789993534,,,,,,,,,,8.0,2.0,98.0,8.0,301.32440787200176,,,,,,,,,,,,,,,,,301.3124720620035,301.4190000070012,302.2267001709988,302.2102225810013,,,,,,,,,,,,,,,,,,,,,,,,,,,,,,,,,,,302.2151010700036,302.2267001709988,302.2267001709988,302.6906834550027,r,1.0,0.4492948789993534,,,,,sub-007,1,stroop_test,89.04809897734557,
,,,,99.0,3.0,8.0,,,,,,,,,,,,,blau,yellow,g,0.0,g,1.0,0.6209970870040706,,,,,,,,,,8.0,3.0,99.0,7.0,302.7056106580057,,,,,,,,,,,,,,,,,302.69178886300506,303.9089163220051,304.71191899300175,304.6961476889992,,,,,,,,,,,,,,,,,,,,,,,,,,,,,,,,,,,304.7009293860028,304.71191899300175,304.71191899300175,305.344463240006,g,1.0,0.6209970870040706,,,,,sub-007,1,stroop_test,89.04809897734557,
,,,,100.0,4.0,8.0,,,,,,,,,,,,,rot,blue,b,0.0,b,1.0,0.4548006430050009,,,,,,,,,,8.0,4.0,100.0,2.0,305.35711897600413,,,,,,,,,,,,,,,,,305.3449920800049,305.69193060100224,306.49217251400114,306.4774307129992,,,,,,,,,,,,,,,,,,,,,,,,,,,,,,,,,,,306.4811863089999,306.49217251400114,306.49217251400114,306.9791499810017,b,1.0,0.4548006430050009,,,,,sub-007,1,stroop_test,89.04809897734557,
,,,,101.0,5.0,8.0,,,,,,,,,,,,,rot,yellow,g,0.0,g,1.0,0.7101988260037615,,,,,,,,,,8.0,5.0,101.0,3.0,306.991303392002,,,,,,,,,,,,,,,,,306.97971466799936,307.33011111700034,308.1294476510011,308.118424884,,,,,,,,,,,,,,,,,,,,,,,,,,,,,,,,,,,308.1192003450051,308.1294476510011,308.1294476510011,308.84491712300223,g,1.0,0.7101988260037615,,,,,sub-007,1,stroop_test,89.04809897734557,
,,,,102.0,6.0,8.0,,,,,,,,,,,,,gelb,blue,b,0.0,b,1.0,0.4654949199975817,,,,,,,,,,8.0,6.0,102.0,9.0,308.8588761220017,,,,,,,,,,,,,,,,,308.845723462,309.1948880530035,309.9949248609992,309.9804846539992,,,,,,,,,,,,,,,,,,,,,,,,,,,,,,,,,,,309.9842744980051,309.9949248609992,309.9949248609992,310.470948123002,b,1.0,0.4654949199975817,,,,,sub-007,1,stroop_test,89.04809897734557,
,,,,103.0,7.0,8.0,,,,,,,,,,,,,blau,blue,b,1.0,b,1.0,0.4497042110015172,,,,,,,,,,8.0,7.0,103.0,5.0,310.48496477600565,,,,,,,,,,,,,,,,,310.4717320519994,311.6683898830015,312.4750303330002,312.4596209670053,,,,,,,,,,,,,,,,,,,,,,,,,,,,,,,,,,,312.463774433003,312.4750303330002,312.4750303330002,312.9340630270017,b,1.0,0.4497042110015172,,,,,sub-007,1,stroop_test,89.04809897734557,
,,,,104.0,8.0,8.0,,,,,,,,,,,,,gelb,yellow,g,1.0,g,1.0,0.4536248900039936,,,,,,,,,,8.0,8.0,104.0,11.0,312.9473495570055,,,,,,,,,,,,,,,,,312.9347258130001,314.1425756989993,314.9525383970031,314.935395848006,,,,,,,,,,,,,,,,,,,,,,,,,,,,,,,,,,,314.9411991050001,314.9525383970031,314.9525383970031,315.4115676229994,g,1.0,0.4536248900039936,,,,,sub-007,1,stroop_test,89.04809897734557,
,,,,105.0,9.0,8.0,,,,,,,,,,,,,gelb,yellow,g,1.0,g,1.0,0.4204346850019647,,,,,,,,,,8.0,9.0,105.0,10.0,315.42497584500234,,,,,,,,,,,,,,,,,315.41215933100466,316.6124941330054,317.42264221900405,317.40980373899947,,,,,,,,,,,,,,,,,,,,,,,,,,,,,,,,,,,317.41062205100025,317.42264221900405,317.42264221900405,317.8502552450009,g,1.0,0.4204346850019647,,,,,sub-007,1,stroop_test,89.04809897734557,
,,,,106.0,10.0,8.0,,,,,,,,,,,,,rot,red,r,1.0,r,1.0,0.3511050930028432,,,,,,,,,,8.0,10.0,106.0,0.0,317.863448134005,,,,,,,,,,,,,,,,,317.8509286960034,319.0435866219996,319.84821077900415,319.8309186379993,,,,,,,,,,,,,,,,,,,,,,,,,,,,,,,,,,,319.8371038010009,319.84821077900415,319.84821077900415,320.2107238030003,r,1.0,0.3511050930028432,,,,,sub-007,1,stroop_test,89.04809897734557,
,,,,107.0,11.0,8.0,,,,,,,,,,,,,rot,red,r,1.0,r,1.0,0.4166531860028044,,,,,,,,,,8.0,11.0,107.0,1.0,320.2233352600015,,,,,,,,,,,,,,,,,320.2113037270028,320.30820663300256,321.10694896100176,321.0947922780033,,,,,,,,,,,,,,,,,,,,,,,,,,,,,,,,,,,321.0955651539989,321.10694896100176,321.10694896100176,321.53214601600484,r,1.0,0.4166531860028044,,,,,sub-007,1,stroop_test,89.04809897734557,
,,,,108.0,0.0,9.0,,,,,,,,,,,,,blau,red,r,0.0,r,1.0,0.2739016769992304,,,,,,,,,,9.0,0.0,108.0,4.0,321.5447422300058,,,,,,,,,,,,,,,,,321.53271198400034,322.3340532250004,323.14141552599904,323.12619580400496,,,,,,,,,,,,,,,,,,,,,,,,,,,,,,,,,,,323.130287922002,323.14141552599904,323.14141552599904,323.4313195190043,r,1.0,0.2739016769992304,,,,,sub-007,1,stroop_test,89.04809897734557,
,,,,109.0,1.0,9.0,,,,,,,,,,,,,rot,yellow,g,0.0,g,1.0,0.4176197839988163,,,,,,,,,,9.0,1.0,109.0,3.0,323.45071749300405,,,,,,,,,,,,,,,,,323.4323575830058,323.79042373099946,324.5945881610023,324.5783788490007,,,,,,,,,,,,,,,,,,,,,,,,,,,,,,,,,,,324.5825104940013,324.5945881610023,324.5945881610023,325.0160978109998,g,1.0,0.4176197839988163,,,,,sub-007,1,stroop_test,89.04809897734557,
,,,,110.0,2.0,9.0,,,,,,,,,,,,,rot,red,r,1.0,r,1.0,0.366902953996032,,,,,,,,,,9.0,2.0,110.0,0.0,325.02825079900504,,,,,,,,,,,,,,,,,325.01674755900603,325.1184897070052,325.92095460300334,325.9094213070057,,,,,,,,,,,,,,,,,,,,,,,,,,,,,,,,,,,325.91037740600586,325.92095460300334,325.92095460300334,326.30012869500206,r,1.0,0.366902953996032,,,,,sub-007,1,stroop_test,89.04809897734557,
,,,,111.0,3.0,9.0,,,,,,,,,,,,,gelb,yellow,g,1.0,g,1.0,0.433098161003727,,,,,,,,,,9.0,3.0,111.0,11.0,326.3134011180009,,,,,,,,,,,,,,,,,326.30071030199906,326.3959681060005,327.2126702650057,327.1948879210031,,,,,,,,,,,,,,,,,,,,,,,,,,,,,,,,,,,327.1990945840007,327.2126702650057,327.2126702650057,327.661054062999,g,1.0,0.433098161003727,,,,,sub-007,1,stroop_test,89.04809897734557,
,,,,112.0,4.0,9.0,,,,,,,,,,,,,gelb,blue,b,0.0,b,1.0,0.362842640002782,,,,,,,,,,9.0,4.0,112.0,9.0,327.6745703560009,,,,,,,,,,,,,,,,,327.661787861005,327.7631462569989,328.57258726200234,328.5597636090024,,,,,,,,,,,,,,,,,,,,,,,,,,,,,,,,,,,328.560561186001,328.57258726200234,328.57258726200234,328.9452392750027,b,1.0,0.362842640002782,,,,,sub-007,1,stroop_test,89.04809897734557,
,,,,113.0,5.0,9.0,,,,,,,,,,,,,blau,blue,b,1.0,b,1.0,0.4228267340004095,,,,,,,,,,9.0,5.0,113.0,5.0,328.9577852880029,,,,,,,,,,,,,,,,,328.94582732800336,329.0443187030032,329.85143912100466,329.836338825,,,,,,,,,,,,,,,,,,,,,,,,,,,,,,,,,,,329.84083572400414,329.85143912100466,329.85143912100466,330.287802071005,b,1.0,0.4228267340004095,,,,,sub-007,1,stroop_test,89.04809897734557,
,,,,114.0,6.0,9.0,,,,,,,,,,,,,gelb,red,r,0.0,r,1.0,0.3586343970018788,,,,,,,,,,9.0,6.0,114.0,8.0,330.30122824299906,,,,,,,,,,,,,,,,,330.2884710740036,330.6366437500037,331.43983484800265,331.42569700300373,,,,,,,,,,,,,,,,,,,,,,,,,,,,,,,,,,,331.42959458100086,331.43983484800265,331.43983484800265,331.81178369100235,r,1.0,0.3586343970018788,,,,,sub-007,1,stroop_test,89.04809897734557,
,,,,115.0,7.0,9.0,,,,,,,,,,,,,rot,blue,b,0.0,b,1.0,0.5236413040038315,,,,,,,,,,9.0,7.0,115.0,2.0,331.82486990000325,,,,,,,,,,,,,,,,,331.81236440300563,332.61064211399935,333.41605716300546,333.3984424139999,,,,,,,,,,,,,,,,,,,,,,,,,,,,,,,,,,,333.4044874590036,333.41605716300546,333.41605716300546,333.9468938800055,b,1.0,0.5236413040038315,,,,,sub-007,1,stroop_test,89.04809897734557,
,,,,116.0,8.0,9.0,,,,,,,,,,,,,gelb,yellow,g,1.0,g,1.0,0.4731691699998919,,,,,,,,,,9.0,8.0,116.0,10.0,333.9622452210024,,,,,,,,,,,,,,,,,333.94758432700473,334.7517378500052,335.55915130799985,335.5415833130028,,,,,,,,,,,,,,,,,,,,,,,,,,,,,,,,,,,335.5468739019998,335.55915130799985,335.55915130799985,336.0449197170019,g,1.0,0.4731691699998919,,,,,sub-007,1,stroop_test,89.04809897734557,
,,,,117.0,9.0,9.0,,,,,,,,,,,,,blau,yellow,g,0.0,g,1.0,0.3808279479999328,,,,,,,,,,9.0,9.0,117.0,7.0,336.0583773920007,,,,,,,,,,,,,,,,,336.0455044830014,336.8412230250033,337.64626816200325,337.62943678900047,,,,,,,,,,,,,,,,,,,,,,,,,,,,,,,,,,,337.63402325900097,337.64626816200325,337.64626816200325,338.0391239560049,g,1.0,0.3808279479999328,,,,,sub-007,1,stroop_test,89.04809897734557,
,,,,118.0,10.0,9.0,,,,,,,,,,,,,blau,blue,b,1.0,b,1.0,0.5005417659995146,,,,,,,,,,9.0,10.0,118.0,6.0,338.0527417350022,,,,,,,,,,,,,,,,,338.0396989639994,338.8411376170043,339.6422339260025,339.627146415005,,,,,,,,,,,,,,,,,,,,,,,,,,,,,,,,,,,339.62815210300323,339.6422339260025,339.6422339260025,340.1557580939989,b,1.0,0.5005417659995146,,,,,sub-007,1,stroop_test,89.04809897734557,
,,,,119.0,11.0,9.0,,,,,,,,,,,,,rot,red,r,1.0,r,1.0,0.392269194999244,,,,,,,,,,9.0,11.0,119.0,1.0,340.1678531910002,,,,,,,,,,,,,,,,,340.15632975200424,340.2581449330028,341.0632260240018,341.04711857100483,,,,,,,,,,,,,,,,,,,,,,,,,,,,,,,,,,,341.05172015300195,341.0632260240018,341.0632260240018,341.46760984900175,r,1.0,0.392269194999244,,,,,sub-007,1,stroop_test,89.04809897734557,
,,,,,,,,,,,,,,,,,,,,,,,,,,,,,,,,,,,,,,,,,,,,,,,,,,,,,,,,,,,,,,,,,,,,,,,,,,,,,,,,,,,,,,,,,,,,,,,,,,,,,,341.46790095300094,341.48547095899994,346.4746603730018,sub-007,1,stroop_test,89.04809897734557,
