wordCTK,colorCTK,corrAnsCTK,congruentCTK,thisN,thisTrialN,thisRepN,keyResp_CTK.keys,keyResp_CTK.corr,keyResp_CTK.rt,keyResp_CTK.duration,wordPractice,colorPractice,corrAnsPractice,congruentPractice,respPractice.keys,respPractice.corr,respPractice.rt,respPractice.duration,word,color,corrAns,congruent,keyResp_test_run.keys,keyResp_test_run.corr,keyResp_test_run.rt,keyResp_test_run.duration,trials_CTK.thisRepN,trials_CTK.thisTrialN,trials_CTK.thisN,trials_CTK.thisIndex,trials_practice.thisRepN,trials_practice.thisTrialN,trials_practice.thisN,trials_practice.thisIndex,trials_test.thisRepN,trials_test.thisTrialN,trials_test.thisN,trials_test.thisIndex,thisRow.t,notes,instruction.started,instr_text.started,instr_image.started,instr_resp.started,instruction.stopped,instr_resp.keys,instr_resp.rt,instr_resp.duration,instr_color_to_key.started,instr_ctk.started,resp_ctk.started,instr_color_to_key.stopped,resp_ctk.keys,resp_ctk.rt,resp_ctk.duration,ITI.started,fixcross.started,fixcross.stopped,ITI.stopped,color_to_key_run.started,stimulus_CTK.started,keyResp_CTK.started,color_to_key_run.stopped,trials_CTK.keyResp_CTK.keys,trials_CTK.keyResp_CTK.corr,trials_CTK.keyResp_CTK.rt,trials_CTK.keyResp_CTK.duration,instr_practice.started,instr_practice_text.started,instr_practice_resp.started,instr_practice.stopped,instr_practice_resp.keys,instr_practice_resp.rt,instr_practice_resp.duration,practice_run.started,stimulus_practice.started,respPractice.started,practice_run.stopped,trials_practice.respPractice.keys,trials_practice.respPractice.corr,trials_practice.respPractice.rt,trials_practice.respPractice.duration,feedback.started,textFeedback.started,textFeedback.stopped,feedback.stopped,instr_test.started,instr_test_text.started,instr_test_resp.started,instr_test.stopped,instr_test_resp.keys,instr_test_resp.rt,instr_test_resp.duration,test_run.started,stimulus_test_run.started,keyResp_test_run.started,test_run.stopped,trials_test.keyResp_test_run.keys,trials_test.keyResp_test_run.corr,trials_test.keyResp_test_run.rt,trials_test.keyResp_test_run.duration,goodbye.started,textGoodbye.started,textGoodbye.stopped,goodbye.stopped,participant,session,expName,frameRate,Unnamed: 113
,,,,,,,,,,,,,,,,,,,,,,,,,,,,,,,,,,,,,,,,,0.0096785000000636,0.017775833999849,0.017775833999849,0.017775833999849,32.53913654200005,space,32.48167000000012,,,,,,,,,,,,,,,,,,,,,,,,,,,,,,,,,,,,,,,,,,,,,,,,,,,,,,,,,,,sub-077,1,stroop_test,,
,,,,,,,,,,,,,,,,,,,,,,,,,,,,,,,,,,,,,,,,,,,,,,,,,32.53921079199995,32.55670929200005,32.55670929200005,35.06772733399998,space,2.508169167000005,,,,,,,,,,,,,,,,,,,,,,,,,,,,,,,,,,,,,,,,,,,,,,,,,,,,sub-077,1,stroop_test,,
test,red,r,1.0,0.0,0.0,0.0,r,1.0,0.7135732500000813,,,,,,,,,,,,,,,,,,0.0,0.0,0.0,0.0,,,,,,,,,35.09299520900004,,,,,,,,,,,,,,,,,35.08063795899989,35.428645125,36.23013670899991,36.216767583999854,36.22395887499988,36.23013670899991,36.23013670899991,36.94620295899995,r,1.0,0.7135732500000813,,,,,,,,,,,,,,,,,,,,,,,,,,,,,,,,,,,,,,,,sub-077,1,stroop_test,,
test,blue,b,1.0,1.0,1.0,0.0,b,1.0,0.6937930830001733,,,,,,,,,,,,,,,,,,0.0,1.0,1.0,2.0,,,,,,,,,36.955289499999935,,,,,,,,,,,,,,,,,36.946800749999966,37.293819374999885,38.08602516699989,38.07769912499998,38.07848916700004,38.08602516699989,38.08602516699989,38.78550066699995,b,1.0,0.6937930830001733,,,,,,,,,,,,,,,,,,,,,,,,,,,,,,,,,,,,,,,,sub-077,1,stroop_test,,
test,yellow,g,1.0,2.0,2.0,0.0,g,1.0,4.040021124999839,,,,,,,,,,,,,,,,,,0.0,2.0,2.0,1.0,,,,,,,,,38.79591800000003,,,,,,,,,,,,,,,,,38.78600000000006,39.58331695900006,40.37535545900005,40.36744216700004,40.368037834000006,40.37535545900005,40.37535545900005,44.419035500000064,g,1.0,4.040021124999839,,,,,,,,,,,,,,,,,,,,,,,,,,,,,,,,,,,,,,,,sub-077,1,stroop_test,,
test,yellow,g,1.0,3.0,0.0,1.0,g,1.0,0.6187190000000555,,,,,,,,,,,,,,,,,,1.0,0.0,3.0,1.0,,,,,,,,,44.42923045899988,,,,,,,,,,,,,,,,,44.41958137500001,45.616332333999935,46.40911145899986,46.39966162499991,46.40024212499998,46.40911145899986,46.40911145899986,47.03489175000004,g,1.0,0.6187190000000555,,,,,,,,,,,,,,,,,,,,,,,,,,,,,,,,,,,,,,,,sub-077,1,stroop_test,,
test,red,r,1.0,4.0,1.0,1.0,r,1.0,0.7029015830000844,,,,,,,,,,,,,,,,,,1.0,1.0,4.0,0.0,,,,,,,,,47.04522020900004,,,,,,,,,,,,,,,,,47.035391208999954,47.38299400000005,48.17534816700004,48.16671762500005,48.167299875000026,48.17534816700004,48.17534816700004,48.88500833399985,r,1.0,0.7029015830000844,,,,,,,,,,,,,,,,,,,,,,,,,,,,,,,,,,,,,,,,sub-077,1,stroop_test,,
test,blue,b,1.0,5.0,2.0,1.0,b,1.0,0.5759742920001827,,,,,,,,,,,,,,,,,,1.0,2.0,5.0,2.0,,,,,,,,,48.89528879199997,,,,,,,,,,,,,,,,,48.88549983400003,50.08345699999995,50.87560491699992,50.866868333999946,50.86742933400001,50.87560491699992,50.87560491699992,51.462531708999904,b,1.0,0.5759742920001827,,,,,,,,,,,,,,,,,,,,,,,,,,,,,,,,,,,,,,,,sub-077,1,stroop_test,,
test,yellow,g,1.0,6.0,0.0,2.0,g,1.0,0.46638883300011,,,,,,,,,,,,,,,,,,2.0,0.0,6.0,1.0,,,,,,,,,51.47241424999993,,,,,,,,,,,,,,,,,51.463198334000026,52.6601885,53.45127941700002,53.44409170899985,53.44470308399991,53.45127941700002,53.45127941700002,53.928908999999976,g,1.0,0.46638883300011,,,,,,,,,,,,,,,,,,,,,,,,,,,,,,,,,,,,,,,,sub-077,1,stroop_test,,
test,blue,b,1.0,7.0,1.0,2.0,b,1.0,0.4603759159999754,,,,,,,,,,,,,,,,,,2.0,1.0,7.0,2.0,,,,,,,,,53.939104584000006,,,,,,,,,,,,,,,,,53.929516250000006,55.12685658400005,55.91867283400006,55.910822542000005,55.911548667000034,55.91867283400006,55.91867283400006,56.384680791999926,b,1.0,0.4603759159999754,,,,,,,,,,,,,,,,,,,,,,,,,,,,,,,,,,,,,,,,sub-077,1,stroop_test,,
test,red,r,1.0,8.0,2.0,2.0,r,1.0,0.5486699160001081,,,,,,,,,,,,,,,,,,2.0,2.0,8.0,0.0,,,,,,,,,56.3953093749999,,,,,,,,,,,,,,,,,56.38516262500002,57.58270274999995,58.37536766699986,58.36644916699993,58.367045167000015,58.37536766699986,58.37536766699986,58.92912295899987,r,1.0,0.5486699160001081,,,,,,,,,,,,,,,,,,,,,,,,,,,,,,,,,,,,,,,,sub-077,1,stroop_test,,
test,blue,b,1.0,9.0,0.0,3.0,b,1.0,0.7596197500001836,,,,,,,,,,,,,,,,,,3.0,0.0,9.0,2.0,,,,,,,,,58.9392110419999,,,,,,,,,,,,,,,,,58.929746541999975,59.02690499999994,59.81827645899989,59.81102633399996,59.81169999999997,59.81827645899989,59.81827645899989,60.58489541699987,b,1.0,0.7596197500001836,,,,,,,,,,,,,,,,,,,,,,,,,,,,,,,,,,,,,,,,sub-077,1,stroop_test,,
test,red,r,1.0,10.0,1.0,3.0,r,1.0,0.6253074999999626,,,,,,,,,,,,,,,,,,3.0,1.0,10.0,0.0,,,,,,,,,60.59508670900004,,,,,,,,,,,,,,,,,60.585388333999845,60.933464792,61.73544504200004,61.72771133399988,61.728456709000056,61.73544504200004,61.73544504200004,62.36381404200006,r,1.0,0.6253074999999626,,,,,,,,,,,,,,,,,,,,,,,,,,,,,,,,,,,,,,,,sub-077,1,stroop_test,,
test,yellow,g,1.0,11.0,2.0,3.0,g,1.0,0.5095262500001354,,,,,,,,,,,,,,,,,,3.0,2.0,11.0,1.0,,,,,,,,,62.37394975000007,,,,,,,,,,,,,,,,,62.36444099999994,63.160306125000034,63.95224966699993,63.94435854199992,63.94510516700007,63.95224966699993,63.95224966699993,64.46903599999996,g,1.0,0.5095262500001354,,,,,,,,,,,,,,,,,,,,,,,,,,,,,,,,,,,,,,,,sub-077,1,stroop_test,,
,,,,,,,,,,,,,,,,,,,,,,,,,,,,,,,,,,,,,,,,,,,,,,,,,,,,,,,,,,,,,,,,,,,,64.46925945899989,64.48013524999988,64.48013524999988,70.18600749999996,space,5.703471499999978,,,,,,,,,,,,,,,,,,,,,,,,,,,,,,,,,sub-077,1,stroop_test,,
,,,,0.0,0.0,0.0,,,,,gelb,yellow,g,1.0,g,1.0,1.036872833999951,,,,,,,,,,,,,,0.0,0.0,0.0,11.0,,,,,70.20777658399993,,,,,,,,,,,,,,,,,70.20127304199991,70.983279584,71.79254579200006,71.77770925000004,,,,,,,,,,,,,,,,71.785426959,71.79254579200006,71.79254579200006,72.83449179199988,g,1.0,1.036872833999951,,72.84185341700004,72.84989737499995,73.84352983400004,73.83310204200006,,,,,,,,,,,,,,,,,,,,sub-077,1,stroop_test,,
,,,,1.0,1.0,0.0,,,,,rot,yellow,g,0.0,g,1.0,1.2394253330000993,,,,,,,,,,,,,,0.0,1.0,1.0,3.0,,,,,73.84352983400004,,,,,,,,,,,,,,,,,73.83352812499993,75.03312229199992,75.82946816699996,75.81696387500006,,,,,,,,,,,,,,,,75.82203254199999,75.82946816699996,75.82946816699996,77.07910720899986,g,1.0,1.2394253330000993,,77.07998320899992,77.0892429999999,78.08316058399987,78.07766225,,,,,,,,,,,,,,,,,,,,sub-077,1,stroop_test,,
,,,,2.0,2.0,0.0,,,,,blau,red,r,0.0,r,1.0,0.8403409170000486,,,,,,,,,,,,,,0.0,2.0,2.0,4.0,,,,,78.08316058399987,,,,,,,,,,,,,,,,,78.0780770419999,79.27689920900002,80.07489533399985,80.060927042,,,,,,,,,,,,,,,,80.067758959,80.07489533399985,80.07489533399985,80.91808083399997,r,1.0,0.8403409170000486,,80.91878291700004,80.92910616699987,81.92678058399997,81.91656399999988,,,,,,,,,,,,,,,,,,,,sub-077,1,stroop_test,,
,,,,3.0,3.0,0.0,,,,,gelb,blue,b,0.0,b,1.0,0.5209689999999227,,,,,,,,,,,,,,0.0,3.0,3.0,9.0,,,,,81.92678058399997,,,,,,,,,,,,,,,,,81.91699033400005,82.71628133399986,83.51148937499988,83.50017112499995,,,,,,,,,,,,,,,,83.50378566699987,83.51148937499988,83.51148937499988,84.03506637500004,b,1.0,0.5209689999999227,,84.03583408400004,84.04554595900004,85.04338041699998,85.03324900000007,,,,,,,,,,,,,,,,,,,,sub-077,1,stroop_test,,
,,,,4.0,4.0,0.0,,,,,blau,blue,b,1.0,b,1.0,0.5373480839998592,,,,,,,,,,,,,,0.0,4.0,4.0,6.0,,,,,85.04338041699998,,,,,,,,,,,,,,,,,85.03365829199993,85.38295362500003,86.178234084,86.16695483399985,,,,,,,,,,,,,,,,86.17066091699985,86.178234084,86.178234084,86.71827008399987,b,1.0,0.5373480839998592,,86.71901524999998,86.72919804200001,87.72687429200005,87.71684587499999,,,,,,,,,,,,,,,,,,,,sub-077,1,stroop_test,,
,,,,5.0,5.0,0.0,,,,,rot,red,r,1.0,r,1.0,0.5605725000000348,,,,,,,,,,,,,,0.0,5.0,5.0,1.0,,,,,87.72687429200005,,,,,,,,,,,,,,,,,87.71726687499995,87.81622583399985,88.61123550000002,88.59940525000002,,,,,,,,,,,,,,,,88.60392691699985,88.61123550000002,88.61123550000002,89.17886533399997,r,1.0,0.5605725000000348,,89.17972658400004,89.19093066699998,90.18350575,90.17768391699995,,,,,,,,,,,,,,,,,,,,sub-077,1,stroop_test,,
,,,,6.0,6.0,0.0,,,,,gelb,yellow,g,1.0,g,1.0,0.4564556670000002,,,,,,,,,,,,,,0.0,6.0,6.0,10.0,,,,,90.18350575,,,,,,,,,,,,,,,,,90.17822741700002,90.27675079200004,91.070577125,91.06067816699988,,,,,,,,,,,,,,,,91.064195875,91.070577125,91.070577125,91.52967454200008,g,1.0,0.4564556670000002,,91.53066345899992,91.543164209,92.53300958399996,92.52746087499986,,,,,,,,,,,,,,,,,,,,sub-077,1,stroop_test,,
,,,,7.0,7.0,0.0,,,,,gelb,red,r,0.0,r,1.0,0.5979014579997965,,,,,,,,,,,,,,0.0,7.0,7.0,8.0,,,,,92.53300958399996,,,,,,,,,,,,,,,,,92.52790633399992,92.87672766700008,93.66877595899996,93.66087375000006,,,,,,,,,,,,,,,,93.66163070900006,93.66877595899996,93.66877595899996,94.2800877499999,r,1.0,0.5979014579997965,,94.28059933400004,94.29344904200002,95.28304991699996,95.27746495899989,,,,,,,,,,,,,,,,,,,,sub-077,1,stroop_test,,
,,,,8.0,8.0,0.0,,,,,rot,red,r,1.0,r,1.0,0.5921614999999747,,,,,,,,,,,,,,0.0,8.0,8.0,0.0,,,,,95.28304991699996,,,,,,,,,,,,,,,,,95.27788099999998,95.62679641699992,96.42337504199986,96.41117454200004,,,,,,,,,,,,,,,,96.4156089999999,96.42337504199986,96.42337504199986,97.01796954199996,r,1.0,0.5921614999999747,,97.01884566700004,97.03011908400003,98.02657508399987,98.01702950000004,,,,,,,,,,,,,,,,,,,,sub-077,1,stroop_test,,
,,,,9.0,9.0,0.0,,,,,blau,yellow,g,0.0,g,1.0,0.3564348750001045,,,,,,,,,,,,,,0.0,9.0,9.0,7.0,,,,,98.02657508399987,,,,,,,,,,,,,,,,,98.01743920900005,98.36641050000004,99.17647395899984,99.149622292,,,,,,,,,,,,,,,,99.15337704199987,99.17647395899984,99.17647395899984,99.53526149999992,g,1.0,0.3564348750001045,,99.53610341700004,99.54686320899988,100.54349208400004,100.53316245899988,,,,,,,,,,,,,,,,,,,,sub-077,1,stroop_test,,
,,,,10.0,10.0,0.0,,,,,blau,blue,b,1.0,b,1.0,0.4374061250000522,,,,,,,,,,,,,,0.0,10.0,10.0,5.0,,,,,100.54349208400004,,,,,,,,,,,,,,,,,100.53358916699996,101.33345008399988,102.13474166699984,102.12733670900002,,,,,,,,,,,,,,,,102.12800975000005,102.13474166699984,102.13474166699984,102.57878699999992,b,1.0,0.4374061250000522,,102.57969349999983,102.59123187499996,103.58348462499998,103.57771966699988,,,,,,,,,,,,,,,,,,,,sub-077,1,stroop_test,,
,,,,11.0,11.0,0.0,,,,,rot,blue,b,0.0,b,1.0,0.6387081670000043,,,,,,,,,,,,,,0.0,11.0,11.0,2.0,,,,,103.58348462499998,,,,,,,,,,,,,,,,,103.57823566699994,104.37678554199988,105.17210383399993,105.16084279200004,,,,,,,,,,,,,,,,105.1646539589999,105.17210383399993,105.17210383399993,105.82499283399989,b,1.0,0.6387081670000043,,105.82572608400004,105.83182962499995,106.82681245899994,106.8159801249999,,,,,,,,,,,,,,,,,,,,sub-077,1,stroop_test,,
,,,,12.0,0.0,1.0,,,,,blau,blue,b,1.0,b,1.0,0.609053541999856,,,,,,,,,,,,,,1.0,0.0,12.0,6.0,,,,,106.82681245899994,,,,,,,,,,,,,,,,,106.81637950000004,106.91611925000008,107.726494667,107.6995616669999,,,,,,,,,,,,,,,,107.70322624999994,107.726494667,107.726494667,108.34445537500004,b,1.0,0.609053541999856,,108.34500041699994,108.35361812499993,109.34963362500002,109.34406554199995,,,,,,,,,,,,,,,,,,,,sub-077,1,stroop_test,,
,,,,13.0,1.0,1.0,,,,,blau,blue,b,1.0,b,1.0,0.5926914579999902,,,,,,,,,,,,,,1.0,1.0,13.0,5.0,,,,,109.34963362500002,,,,,,,,,,,,,,,,,109.3445657499999,110.13375233400006,110.93633291699985,110.92755158399996,,,,,,,,,,,,,,,,110.928317375,110.93633291699985,110.93633291699985,111.53522383399992,b,1.0,0.5926914579999902,,111.5359962089999,111.54571862500006,112.54368954200004,112.53332995899996,,,,,,,,,,,,,,,,,,,,sub-077,1,stroop_test,,
,,,,14.0,2.0,1.0,,,,,rot,red,r,1.0,r,1.0,0.6676740420000442,,,,,,,,,,,,,,1.0,2.0,14.0,0.0,,,,,112.54368954200004,,,,,,,,,,,,,,,,,112.53372583400004,113.73294850000002,114.54309450000004,114.51621837499988,,,,,,,,,,,,,,,,114.51987462500006,114.54309450000004,114.54309450000004,115.21917074999988,r,1.0,0.6676740420000442,,115.21981345899984,115.22908416699988,116.22672312500003,116.216421459,,,,,,,,,,,,,,,,,,,,sub-077,1,stroop_test,,
,,,,15.0,3.0,1.0,,,,,rot,blue,b,0.0,b,1.0,0.5351334590000079,,,,,,,,,,,,,,1.0,3.0,15.0,2.0,,,,,116.22672312500003,,,,,,,,,,,,,,,,,116.21682316700004,117.01592670900004,117.80851008399986,117.80005612499986,,,,,,,,,,,,,,,,117.80061412500004,117.80851008399986,117.80851008399986,118.34640658399984,b,1.0,0.5351334590000079,,118.34733004200008,118.35796095899993,119.34998500000006,119.34424212499994,,,,,,,,,,,,,,,,,,,,sub-077,1,stroop_test,,
,,,,16.0,4.0,1.0,,,,,rot,red,r,1.0,r,1.0,0.5799544159999641,,,,,,,,,,,,,,1.0,4.0,16.0,1.0,,,,,119.34998500000006,,,,,,,,,,,,,,,,,119.34476504200006,119.69377962499992,120.48501029199996,120.47738762499988,,,,,,,,,,,,,,,,120.47799433399996,120.48501029199996,120.48501029199996,121.0677862089999,r,1.0,0.5799544159999641,,121.068562209,121.079123084,122.07667637500003,122.06692191699996,,,,,,,,,,,,,,,,,,,,sub-077,1,stroop_test,,
,,,,17.0,5.0,1.0,,,,,gelb,yellow,g,1.0,g,1.0,0.5432249589998719,,,,,,,,,,,,,,1.0,5.0,17.0,11.0,,,,,122.07667637500003,,,,,,,,,,,,,,,,,122.06732616699992,123.26687549999995,124.07262862499988,124.06089333399996,,,,,,,,,,,,,,,,124.06544741699986,124.07262862499988,124.07262862499988,124.61829679199992,g,1.0,0.5432249589998719,,124.619031834,124.62901424999995,125.62673437500008,125.616074584,,,,,,,,,,,,,,,,,,,,sub-077,1,stroop_test,,
,,,,18.0,6.0,1.0,,,,,blau,yellow,g,0.0,g,1.0,0.6181460840000454,,,,,,,,,,,,,,1.0,6.0,18.0,7.0,,,,,125.62673437500008,,,,,,,,,,,,,,,,,125.61648137499992,126.816969084,127.611563917,127.60002299999996,,,,,,,,,,,,,,,,127.603624417,127.611563917,127.611563917,128.2339622919999,g,1.0,0.6181460840000454,,128.23449845899995,128.24285070899987,129.23290954200002,129.22739520899995,,,,,,,,,,,,,,,,,,,,sub-077,1,stroop_test,,
,,,,19.0,7.0,1.0,,,,,blau,red,r,0.0,r,1.0,0.7286309169999186,,,,,,,,,,,,,,1.0,7.0,19.0,4.0,,,,,129.23290954200002,,,,,,,,,,,,,,,,,129.22781366699996,129.33348120899996,130.12525583399997,130.1164635,,,,,,,,,,,,,,,,130.11703987500005,130.12525583399997,130.12525583399997,130.86218066699985,r,1.0,0.7286309169999186,,130.86297999999988,130.873253042,131.8662052919999,131.8607722919999,,,,,,,,,,,,,,,,,,,,sub-077,1,stroop_test,,
,,,,20.0,8.0,1.0,,,,,gelb,blue,b,0.0,b,1.0,0.7012573750000684,,,,,,,,,,,,,,1.0,8.0,20.0,9.0,,,,,131.8662052919999,,,,,,,,,,,,,,,,,131.86119054200003,133.06011079199993,133.85567054199987,133.84418499999992,,,,,,,,,,,,,,,,133.848559584,133.85567054199987,133.85567054199987,134.56228608399988,b,1.0,0.7012573750000684,,134.56319333400006,134.57374204200005,135.566758875,135.5608951669999,,,,,,,,,,,,,,,,,,,,sub-077,1,stroop_test,,
,,,,21.0,9.0,1.0,,,,,gelb,red,r,0.0,r,1.0,0.7780271670001184,,,,,,,,,,,,,,1.0,9.0,21.0,8.0,,,,,135.566758875,,,,,,,,,,,,,,,,,135.5614197499999,136.36012579199996,137.1512164169999,137.14400879200002,,,,,,,,,,,,,,,,137.144594375,137.1512164169999,137.1512164169999,137.9344263339999,r,1.0,0.7780271670001184,,137.93514283399986,137.94577641699993,138.94330654199985,138.93286758399995,,,,,,,,,,,,,,,,,,,,sub-077,1,stroop_test,,
,,,,22.0,10.0,1.0,,,,,rot,yellow,g,0.0,g,1.0,0.5327685419999852,,,,,,,,,,,,,,1.0,10.0,22.0,3.0,,,,,138.94330654199985,,,,,,,,,,,,,,,,,138.93329441699984,139.03369974999987,139.84097958400002,139.82767587500007,,,,,,,,,,,,,,,,139.83356945900005,139.84097958400002,139.84097958400002,140.3784929169999,g,1.0,0.5327685419999852,,140.37929233399996,140.39027458400005,141.38278645900004,141.3773189169999,,,,,,,,,,,,,,,,,,,,sub-077,1,stroop_test,,
,,,,23.0,11.0,1.0,,,,,gelb,yellow,g,1.0,g,1.0,0.4553708749999714,,,,,,,,,,,,,,1.0,11.0,23.0,10.0,,,,,141.38278645900004,,,,,,,,,,,,,,,,,141.37773270899993,141.47668454199993,142.272355542,142.260793917,,,,,,,,,,,,,,,,142.26524433400004,142.272355542,142.272355542,142.73476449999998,g,1.0,0.4553708749999714,,142.7355494589999,142.74581666699987,143.74177874999987,143.7336849169999,,,,,,,,,,,,,,,,,,,,sub-077,1,stroop_test,,
,,,,,,,,,,,,,,,,,,,,,,,,,,,,,,,,,,,,,,,,,,,,,,,,,,,,,,,,,,,,,,,,,,,,,,,,,,,,,,,,,,,,,,,143.73385795900003,143.74177874999987,143.74177874999987,146.46216487499987,space,2.711658958000044,,,,,,,,,,,,,,sub-077,1,stroop_test,,
,,,,0.0,0.0,0.0,,,,,,,,,,,,,blau,yellow,g,0.0,g,1.0,0.519454167000049,,,,,,,,,,0.0,0.0,0.0,7.0,146.48550616700004,,,,,,,,,,,,,,,,,146.47907470899986,147.66014729199992,148.45505337500003,148.44398045899993,,,,,,,,,,,,,,,,,,,,,,,,,,,,,,,,,,,148.44793349999986,148.45505337500003,148.45505337500003,148.9786913339999,g,1.0,0.519454167000049,,,,,,sub-077,1,stroop_test,,
,,,,1.0,1.0,0.0,,,,,,,,,,,,,blau,blue,b,1.0,b,1.0,0.4780057919999763,,,,,,,,,,0.0,1.0,1.0,6.0,148.98788324999987,,,,,,,,,,,,,,,,,148.97927374999995,150.17679195899996,150.968578042,150.96084999999994,,,,,,,,,,,,,,,,,,,,,,,,,,,,,,,,,,,150.96160054200004,150.968578042,150.968578042,151.45123312500004,b,1.0,0.4780057919999763,,,,,,sub-077,1,stroop_test,,
,,,,2.0,2.0,0.0,,,,,,,,,,,,,gelb,yellow,g,1.0,g,1.0,0.5542815409999093,,,,,,,,,,0.0,2.0,2.0,10.0,151.4618043339999,,,,,,,,,,,,,,,,,151.45179949999988,151.55065383400006,152.35600362499986,152.34434599999986,,,,,,,,,,,,,,,,,,,,,,,,,,,,,,,,,,,152.34898199999998,152.35600362499986,152.35600362499986,152.9128694169999,g,1.0,0.5542815409999093,,,,,,sub-077,1,stroop_test,,
,,,,3.0,3.0,0.0,,,,,,,,,,,,,rot,blue,b,0.0,b,1.0,0.4214986250001402,,,,,,,,,,0.0,3.0,3.0,2.0,152.92284608399996,,,,,,,,,,,,,,,,,152.91355670899998,153.2600091249999,154.05728129199997,154.04426912500003,,,,,,,,,,,,,,,,,,,,,,,,,,,,,,,,,,,154.0498043749999,154.05728129199997,154.05728129199997,154.48500391699986,b,1.0,0.4214986250001402,,,,,,sub-077,1,stroop_test,,
,,,,4.0,4.0,0.0,,,,,,,,,,,,,gelb,blue,b,0.0,b,1.0,0.4726743749999968,,,,,,,,,,0.0,4.0,4.0,9.0,154.49502504199995,,,,,,,,,,,,,,,,,154.48555537499988,155.28298841699984,156.092991042,156.06604541699994,,,,,,,,,,,,,,,,,,,,,,,,,,,,,,,,,,,156.06967670899985,156.092991042,156.092991042,156.56796166699996,b,1.0,0.4726743749999968,,,,,,sub-077,1,stroop_test,,
,,,,5.0,5.0,0.0,,,,,,,,,,,,,blau,blue,b,1.0,b,1.0,0.4398195000001124,,,,,,,,,,0.0,5.0,5.0,5.0,156.57846208399997,,,,,,,,,,,,,,,,,156.56857454199985,156.9161893339999,157.71168662499986,157.69978045900007,,,,,,,,,,,,,,,,,,,,,,,,,,,,,,,,,,,157.70376029199997,157.71168662499986,157.71168662499986,158.162011334,b,1.0,0.4398195000001124,,,,,,sub-077,1,stroop_test,,
,,,,6.0,6.0,0.0,,,,,,,,,,,,,blau,red,r,0.0,r,1.0,0.5030975829999988,,,,,,,,,,0.0,6.0,6.0,4.0,158.17145741700006,,,,,,,,,,,,,,,,,158.16261095899995,158.9600364999999,159.7520320839999,159.7442102919999,,,,,,,,,,,,,,,,,,,,,,,,,,,,,,,,,,,159.74499233400002,159.7520320839999,159.7520320839999,160.26187133400003,r,1.0,0.5030975829999988,,,,,,sub-077,1,stroop_test,,
,,,,7.0,7.0,0.0,,,,,,,,,,,,,gelb,yellow,g,1.0,g,1.0,0.4891322500000115,,,,,,,,,,0.0,7.0,7.0,11.0,160.2713268749999,,,,,,,,,,,,,,,,,160.26247595899986,161.45998995900004,162.25557516699996,162.24403641699996,,,,,,,,,,,,,,,,,,,,,,,,,,,,,,,,,,,162.24838387499994,162.25557516699996,162.25557516699996,162.751397042,g,1.0,0.4891322500000115,,,,,,sub-077,1,stroop_test,,
,,,,8.0,8.0,0.0,,,,,,,,,,,,,rot,red,r,1.0,r,1.0,0.5210837500001162,,,,,,,,,,0.0,8.0,8.0,1.0,162.76132812499986,,,,,,,,,,,,,,,,,162.751984042,163.54996441699996,164.35612375000005,164.34414575000005,,,,,,,,,,,,,,,,,,,,,,,,,,,,,,,,,,,164.348681875,164.35612375000005,164.35612375000005,164.8889819169999,r,1.0,0.5210837500001162,,,,,,sub-077,1,stroop_test,,
,,,,9.0,9.0,0.0,,,,,,,,,,,,,rot,yellow,g,0.0,g,1.0,0.4975970830000733,,,,,,,,,,0.0,9.0,9.0,3.0,164.90967783399992,,,,,,,,,,,,,,,,,164.88934374999985,166.08260833400004,166.87504129199988,166.86667416699993,,,,,,,,,,,,,,,,,,,,,,,,,,,,,,,,,,,166.8672355839999,166.87504129199988,166.87504129199988,167.37855091699998,g,1.0,0.4975970830000733,,,,,,sub-077,1,stroop_test,,
,,,,10.0,10.0,0.0,,,,,,,,,,,,,rot,red,r,1.0,r,1.0,0.4534468330000436,,,,,,,,,,0.0,10.0,10.0,0.0,167.3883015419999,,,,,,,,,,,,,,,,,167.379123167,168.17646245900005,168.96866145900003,168.96074212500002,,,,,,,,,,,,,,,,,,,,,,,,,,,,,,,,,,,168.96152512499998,168.96866145900003,168.96866145900003,169.42876904199989,r,1.0,0.4534468330000436,,,,,,sub-077,1,stroop_test,,
,,,,11.0,11.0,0.0,,,,,,,,,,,,,gelb,red,r,0.0,r,1.0,0.6486547499998778,,,,,,,,,,0.0,11.0,11.0,8.0,169.43854120900005,,,,,,,,,,,,,,,,,169.42936741699987,170.22674212499987,171.02216508399988,171.01063058399995,,,,,,,,,,,,,,,,,,,,,,,,,,,,,,,,,,,171.01509533399985,171.02216508399988,171.02216508399988,171.67871874999992,r,1.0,0.6486547499998778,,,,,,sub-077,1,stroop_test,,
,,,,12.0,0.0,1.0,,,,,,,,,,,,,gelb,red,r,0.0,r,1.0,0.5257147499999064,,,,,,,,,,1.0,0.0,12.0,8.0,171.68817358399997,,,,,,,,,,,,,,,,,171.67932124999993,172.47683533400004,173.26857266699994,173.2607049589999,,,,,,,,,,,,,,,,,,,,,,,,,,,,,,,,,,,173.2614894589999,173.26857266699994,173.26857266699994,173.80158295899992,r,1.0,0.5257147499999064,,,,,,sub-077,1,stroop_test,,
,,,,13.0,1.0,1.0,,,,,,,,,,,,,gelb,yellow,g,1.0,g,1.0,0.3753262920001816,,,,,,,,,,1.0,1.0,13.0,11.0,173.81140312499997,,,,,,,,,,,,,,,,,173.80210866699986,174.59956816699992,175.39208545899987,175.38274579199992,,,,,,,,,,,,,,,,,,,,,,,,,,,,,,,,,,,175.38331174999985,175.39208545899987,175.39208545899987,175.77921954199996,g,1.0,0.3753262920001816,,,,,,sub-077,1,stroop_test,,
,,,,14.0,2.0,1.0,,,,,,,,,,,,,rot,yellow,g,0.0,g,1.0,0.903396124999972,,,,,,,,,,1.0,2.0,14.0,3.0,175.78894916700006,,,,,,,,,,,,,,,,,175.77988804200004,175.876497792,176.673762959,176.66081600000007,,,,,,,,,,,,,,,,,,,,,,,,,,,,,,,,,,,176.66629050000006,176.673762959,176.673762959,177.58006854199994,g,1.0,0.903396124999972,,,,,,sub-077,1,stroop_test,,
,,,,15.0,3.0,1.0,,,,,,,,,,,,,rot,red,r,1.0,r,1.0,0.5759511669998574,,,,,,,,,,1.0,3.0,15.0,1.0,177.59007529199994,,,,,,,,,,,,,,,,,177.58072425,177.67665829199996,178.46845937500007,178.46077691699998,,,,,,,,,,,,,,,,,,,,,,,,,,,,,,,,,,,178.46152637499995,178.46845937500007,178.46845937500007,179.0508937919999,r,1.0,0.5759511669998574,,,,,,sub-077,1,stroop_test,,
,,,,16.0,4.0,1.0,,,,,,,,,,,,,gelb,yellow,g,1.0,g,1.0,0.5850905830000102,,,,,,,,,,1.0,4.0,16.0,10.0,179.06157141699987,,,,,,,,,,,,,,,,,179.0514290839999,179.40049099999987,180.205827042,180.1940569589999,,,,,,,,,,,,,,,,,,,,,,,,,,,,,,,,,,,180.19866412500005,180.205827042,180.205827042,180.79518575,g,1.0,0.5850905830000102,,,,,,sub-077,1,stroop_test,,
,,,,17.0,5.0,1.0,,,,,,,,,,,,,blau,blue,b,1.0,b,1.0,0.3647855839999465,,,,,,,,,,1.0,5.0,17.0,6.0,180.80495266699995,,,,,,,,,,,,,,,,,180.79576695900005,181.59335804199983,182.38861724999992,182.377431917,,,,,,,,,,,,,,,,,,,,,,,,,,,,,,,,,,,182.3816207499999,182.38861724999992,182.38861724999992,182.761988625,b,1.0,0.3647855839999465,,,,,,sub-077,1,stroop_test,,
,,,,18.0,6.0,1.0,,,,,,,,,,,,,blau,blue,b,1.0,b,1.0,0.351489249999986,,,,,,,,,,1.0,6.0,18.0,5.0,182.7706639999999,,,,,,,,,,,,,,,,,182.76259687499987,183.55989708399989,184.35191250000003,184.344031334,,,,,,,,,,,,,,,,,,,,,,,,,,,,,,,,,,,184.344813834,184.35191250000003,184.35191250000003,184.71189937500003,b,1.0,0.351489249999986,,,,,,sub-077,1,stroop_test,,
,,,,19.0,7.0,1.0,,,,,,,,,,,,,rot,blue,b,0.0,b,1.0,0.3720542910000404,,,,,,,,,,1.0,7.0,19.0,2.0,184.721425209,,,,,,,,,,,,,,,,,184.71249450000005,185.51009795899995,186.305698875,186.29401204199985,,,,,,,,,,,,,,,,,,,,,,,,,,,,,,,,,,,186.29840283399997,186.305698875,186.305698875,186.68472700000007,b,1.0,0.3720542910000404,,,,,,sub-077,1,stroop_test,,
,,,,20.0,8.0,1.0,,,,,,,,,,,,,blau,yellow,g,0.0,g,1.0,0.5836279579998518,,,,,,,,,,1.0,8.0,20.0,7.0,186.69447654199985,,,,,,,,,,,,,,,,,186.68528508400004,187.03356325000004,187.83829112500007,187.8273315419999,,,,,,,,,,,,,,,,,,,,,,,,,,,,,,,,,,,187.831229209,187.83829112500007,187.83829112500007,188.42854716700003,g,1.0,0.5836279579998518,,,,,,sub-077,1,stroop_test,,
,,,,21.0,9.0,1.0,,,,,,,,,,,,,blau,red,r,0.0,r,1.0,0.5039434999998775,,,,,,,,,,1.0,9.0,21.0,4.0,188.43830295899988,,,,,,,,,,,,,,,,,188.429150917,189.62655962500003,190.41791520900009,190.4104984999999,,,,,,,,,,,,,,,,,,,,,,,,,,,,,,,,,,,190.4112275,190.41791520900009,190.41791520900009,190.92851762500004,r,1.0,0.5039434999998775,,,,,,sub-077,1,stroop_test,,
,,,,22.0,10.0,1.0,,,,,,,,,,,,,rot,red,r,1.0,r,1.0,0.530994458999885,,,,,,,,,,1.0,10.0,22.0,0.0,190.93826283399997,,,,,,,,,,,,,,,,,190.9291270419999,191.72644441700004,192.522714209,192.5109335,,,,,,,,,,,,,,,,,,,,,,,,,,,,,,,,,,,192.5153218339999,192.522714209,192.522714209,193.0619340000001,r,1.0,0.530994458999885,,,,,,sub-077,1,stroop_test,,
,,,,23.0,11.0,1.0,,,,,,,,,,,,,gelb,blue,b,0.0,b,1.0,0.9142209170001934,,,,,,,,,,1.0,11.0,23.0,9.0,193.0710872919999,,,,,,,,,,,,,,,,,193.062564417,193.159989625,193.95897225,193.943971209,,,,,,,,,,,,,,,,,,,,,,,,,,,,,,,,,,,193.952180042,193.95897225,193.95897225,194.878408459,b,1.0,0.9142209170001934,,,,,,sub-077,1,stroop_test,,
,,,,24.0,0.0,2.0,,,,,,,,,,,,,gelb,yellow,g,1.0,g,1.0,0.5665930840000328,,,,,,,,,,2.0,0.0,24.0,11.0,194.8881611249999,,,,,,,,,,,,,,,,,194.87901775,195.226496625,196.01822470899992,196.0105643750001,,,,,,,,,,,,,,,,,,,,,,,,,,,,,,,,,,,196.01133133400003,196.01822470899992,196.01822470899992,196.5952804169999,g,1.0,0.5665930840000328,,,,,,sub-077,1,stroop_test,,
,,,,25.0,1.0,2.0,,,,,,,,,,,,,blau,blue,b,1.0,b,1.0,0.5548716250000325,,,,,,,,,,2.0,1.0,25.0,6.0,196.6050325419999,,,,,,,,,,,,,,,,,196.59588683399988,197.3932057919999,198.18842395899992,198.177302542,,,,,,,,,,,,,,,,,,,,,,,,,,,,,,,,,,,198.18121645899987,198.18842395899992,198.18842395899992,198.74581383400005,b,1.0,0.5548716250000325,,,,,,sub-077,1,stroop_test,,
,,,,26.0,2.0,2.0,,,,,,,,,,,,,rot,yellow,g,0.0,g,1.0,0.4547148340000149,,,,,,,,,,2.0,2.0,26.0,3.0,198.7561157089999,,,,,,,,,,,,,,,,,198.74647220899988,199.94325308399996,200.73914820899995,200.72718599999985,,,,,,,,,,,,,,,,,,,,,,,,,,,,,,,,,,,200.73112008399997,200.73914820899995,200.73914820899995,201.2079603340001,g,1.0,0.4547148340000149,,,,,,sub-077,1,stroop_test,,
,,,,27.0,3.0,2.0,,,,,,,,,,,,,rot,blue,b,0.0,b,1.0,0.5515870419999374,,,,,,,,,,2.0,3.0,27.0,2.0,201.21288574999997,,,,,,,,,,,,,,,,,201.2084911249999,201.29871075000003,202.091739709,202.08273391700004,,,,,,,,,,,,,,,,,,,,,,,,,,,,,,,,,,,202.0833129170001,202.091739709,202.091739709,202.64596674999984,b,1.0,0.5515870419999374,,,,,,sub-077,1,stroop_test,,
,,,,28.0,4.0,2.0,,,,,,,,,,,,,rot,red,r,1.0,r,1.0,0.5329632079999556,,,,,,,,,,2.0,4.0,28.0,0.0,202.6578556249999,,,,,,,,,,,,,,,,,202.64677266700005,203.843291917,204.63533820899988,204.62757291699995,,,,,,,,,,,,,,,,,,,,,,,,,,,,,,,,,,,204.62833254199995,204.63533820899988,204.63533820899988,205.17860762500004,r,1.0,0.5329632079999556,,,,,,sub-077,1,stroop_test,,
,,,,29.0,5.0,2.0,,,,,,,,,,,,,blau,red,r,0.0,r,1.0,0.4953571659998488,,,,,,,,,,2.0,5.0,29.0,4.0,205.19031329199996,,,,,,,,,,,,,,,,,205.179381917,205.97660804199995,206.7720019589999,206.76060899999996,,,,,,,,,,,,,,,,,,,,,,,,,,,,,,,,,,,206.764725,206.7720019589999,206.7720019589999,207.27853400000004,r,1.0,0.4953571659998488,,,,,,sub-077,1,stroop_test,,
,,,,30.0,6.0,2.0,,,,,,,,,,,,,gelb,yellow,g,1.0,g,1.0,0.5838339580000138,,,,,,,,,,2.0,6.0,30.0,10.0,207.28973495900004,,,,,,,,,,,,,,,,,207.27923316700003,207.3765780419999,208.1716033749999,208.16048325,,,,,,,,,,,,,,,,,,,,,,,,,,,,,,,,,,,208.16441204199987,208.1716033749999,208.1716033749999,208.761926959,g,1.0,0.5838339580000138,,,,,,sub-077,1,stroop_test,,
,,,,31.0,7.0,2.0,,,,,,,,,,,,,gelb,red,r,0.0,r,1.0,0.5996694170000865,,,,,,,,,,2.0,7.0,31.0,8.0,208.77327416699995,,,,,,,,,,,,,,,,,208.76263512499983,209.55996370899996,210.352068167,210.34403391699996,,,,,,,,,,,,,,,,,,,,,,,,,,,,,,,,,,,210.344813959,210.352068167,210.352068167,210.96200924999997,r,1.0,0.5996694170000865,,,,,,sub-077,1,stroop_test,,
,,,,32.0,8.0,2.0,,,,,,,,,,,,,blau,blue,b,1.0,b,1.0,0.640644125000108,,,,,,,,,,2.0,8.0,32.0,5.0,210.973268125,,,,,,,,,,,,,,,,,210.962773834,211.05977600000008,211.85473024999988,211.8436784999999,,,,,,,,,,,,,,,,,,,,,,,,,,,,,,,,,,,211.84753883400003,211.85473024999988,211.85473024999988,212.5015793749999,b,1.0,0.640644125000108,,,,,,sub-077,1,stroop_test,,
,,,,33.0,9.0,2.0,,,,,,,,,,,,,rot,red,r,1.0,r,1.0,1.070968042000004,,,,,,,,,,2.0,9.0,33.0,1.0,212.5120099169999,,,,,,,,,,,,,,,,,212.50213699999995,212.59861475,213.39479616699987,213.38213399999995,,,,,,,,,,,,,,,,,,,,,,,,,,,,,,,,,,,213.38690154200003,213.39479616699987,213.39479616699987,214.4683944589999,r,1.0,1.070968042000004,,,,,,sub-077,1,stroop_test,,
,,,,34.0,10.0,2.0,,,,,,,,,,,,,gelb,blue,b,0.0,b,1.0,0.6541828330000499,,,,,,,,,,2.0,10.0,34.0,9.0,214.47876637499985,,,,,,,,,,,,,,,,,214.46895475,214.56570154199997,215.37661895899987,215.349479125,,,,,,,,,,,,,,,,,,,,,,,,,,,,,,,,,,,215.353055542,215.37661895899987,215.37661895899987,216.03418120900005,b,1.0,0.6541828330000499,,,,,,sub-077,1,stroop_test,,
,,,,35.0,11.0,2.0,,,,,,,,,,,,,blau,yellow,g,0.0,g,1.0,0.4251029170000038,,,,,,,,,,2.0,11.0,35.0,7.0,216.0443995420001,,,,,,,,,,,,,,,,,216.03473345899988,217.232452792,218.02821295900003,218.01650708400007,,,,,,,,,,,,,,,,,,,,,,,,,,,,,,,,,,,218.02015341699985,218.02821295900003,218.02821295900003,218.46187091699997,g,1.0,0.4251029170000038,,,,,,sub-077,1,stroop_test,,
,,,,36.0,0.0,3.0,,,,,,,,,,,,,gelb,red,r,0.0,r,1.0,0.4380723749998196,,,,,,,,,,3.0,0.0,36.0,8.0,218.47222958399996,,,,,,,,,,,,,,,,,218.46254587499996,219.65980929199984,220.455229125,220.44372974999987,,,,,,,,,,,,,,,,,,,,,,,,,,,,,,,,,,,220.448081084,220.455229125,220.455229125,220.89552224999989,r,1.0,0.4380723749998196,,,,,,sub-077,1,stroop_test,,
,,,,37.0,1.0,3.0,,,,,,,,,,,,,rot,blue,b,0.0,b,1.0,0.4635150419999263,,,,,,,,,,3.0,1.0,37.0,2.0,220.90458487499995,,,,,,,,,,,,,,,,,220.896234584,221.243125084,222.03923824999995,222.02733466699988,,,,,,,,,,,,,,,,,,,,,,,,,,,,,,,,,,,222.031936334,222.03923824999995,222.03923824999995,222.511840917,b,1.0,0.4635150419999263,,,,,,sub-077,1,stroop_test,,
,,,,38.0,2.0,3.0,,,,,,,,,,,,,rot,red,r,1.0,r,1.0,0.7875747499999761,,,,,,,,,,3.0,2.0,38.0,1.0,222.521786,,,,,,,,,,,,,,,,,222.512517292,222.610059459,223.40181479199987,223.39390983399997,,,,,,,,,,,,,,,,,,,,,,,,,,,,,,,,,,,223.394653459,223.40181479199987,223.40181479199987,224.19521604199983,r,1.0,0.7875747499999761,,,,,,sub-077,1,stroop_test,,
,,,,39.0,3.0,3.0,,,,,,,,,,,,,blau,yellow,g,0.0,g,1.0,0.4115253339998617,,,,,,,,,,3.0,3.0,39.0,7.0,224.20523774999992,,,,,,,,,,,,,,,,,224.19592216699996,225.39341141699992,226.188682042,226.17732645899991,,,,,,,,,,,,,,,,,,,,,,,,,,,,,,,,,,,226.1813175,226.188682042,226.188682042,226.61184012499984,g,1.0,0.4115253339998617,,,,,,sub-077,1,stroop_test,,
,,,,40.0,4.0,3.0,,,,,,,,,,,,,gelb,blue,b,0.0,b,1.0,0.4049019999999927,,,,,,,,,,3.0,4.0,40.0,9.0,226.620871459,,,,,,,,,,,,,,,,,226.61251399999992,227.4098564589999,228.20504683399983,228.19376987500004,,,,,,,,,,,,,,,,,,,,,,,,,,,,,,,,,,,228.19790975,228.20504683399983,228.20504683399983,228.61258779199989,b,1.0,0.4049019999999927,,,,,,sub-077,1,stroop_test,,
,,,,41.0,5.0,3.0,,,,,,,,,,,,,rot,yellow,g,0.0,g,1.0,0.7380497920000835,,,,,,,,,,3.0,5.0,41.0,3.0,228.622793584,,,,,,,,,,,,,,,,,228.613345709,228.95977779200007,229.75645399999985,229.743716875,,,,,,,,,,,,,,,,,,,,,,,,,,,,,,,,,,,229.74877825,229.75645399999985,229.75645399999985,230.50140695899995,g,1.0,0.7380497920000835,,,,,,sub-077,1,stroop_test,,
,,,,42.0,6.0,3.0,,,,,,,,,,,,,gelb,yellow,g,1.0,g,1.0,0.5715245829999276,,,,,,,,,,3.0,6.0,42.0,11.0,230.511918209,,,,,,,,,,,,,,,,,230.50205866700003,231.69983279200005,232.50560849999988,232.4938522089999,,,,,,,,,,,,,,,,,,,,,,,,,,,,,,,,,,,232.4984972919999,232.50560849999988,232.50560849999988,233.08978541700003,g,1.0,0.5715245829999276,,,,,,sub-077,1,stroop_test,,
,,,,43.0,7.0,3.0,,,,,,,,,,,,,blau,blue,b,1.0,b,1.0,0.7163516250000157,,,,,,,,,,3.0,7.0,43.0,5.0,233.09390545899987,,,,,,,,,,,,,,,,,233.0902195419999,233.883023292,234.68885920899996,234.67736683399997,,,,,,,,,,,,,,,,,,,,,,,,,,,,,,,,,,,234.68186625,234.68885920899996,234.68885920899996,235.41185383399988,b,1.0,0.7163516250000157,,,,,,sub-077,1,stroop_test,,
,,,,44.0,8.0,3.0,,,,,,,,,,,,,gelb,yellow,g,1.0,g,1.0,0.6556527919999553,,,,,,,,,,3.0,8.0,44.0,10.0,235.422154292,,,,,,,,,,,,,,,,,235.412546,235.50974774999983,236.3053756249999,236.29371441700005,,,,,,,,,,,,,,,,,,,,,,,,,,,,,,,,,,,236.29826149999985,236.3053756249999,236.3053756249999,236.968420292,g,1.0,0.6556527919999553,,,,,,sub-077,1,stroop_test,,
,,,,45.0,9.0,3.0,,,,,,,,,,,,,blau,red,r,0.0,r,1.0,0.5558240420000402,,,,,,,,,,3.0,9.0,45.0,4.0,236.97880250000003,,,,,,,,,,,,,,,,,236.96899670900007,237.0655724589999,237.859258042,237.848702042,,,,,,,,,,,,,,,,,,,,,,,,,,,,,,,,,,,237.852388584,237.859258042,237.859258042,238.41789849999984,r,1.0,0.5558240420000402,,,,,,sub-077,1,stroop_test,,
,,,,46.0,10.0,3.0,,,,,,,,,,,,,blau,blue,b,1.0,b,1.0,0.514680374999898,,,,,,,,,,3.0,10.0,46.0,6.0,238.428027125,,,,,,,,,,,,,,,,,238.4184565420001,238.515369125,239.3081849170001,239.2997860840001,,,,,,,,,,,,,,,,,,,,,,,,,,,,,,,,,,,239.30035254199996,239.3081849170001,239.3081849170001,239.82882037499985,b,1.0,0.514680374999898,,,,,,sub-077,1,stroop_test,,
,,,,47.0,11.0,3.0,,,,,,,,,,,,,rot,red,r,1.0,r,1.0,0.5787100420000115,,,,,,,,,,3.0,11.0,47.0,0.0,239.839512625,,,,,,,,,,,,,,,,,239.82971370899983,240.17646120899985,240.97211945899997,240.960588167,,,,,,,,,,,,,,,,,,,,,,,,,,,,,,,,,,,240.96481533399992,240.97211945899997,240.97211945899997,241.56191279199996,r,1.0,0.5787100420000115,,,,,,sub-077,1,stroop_test,,
,,,,48.0,0.0,4.0,,,,,,,,,,,,,gelb,blue,b,0.0,b,1.0,0.527412916000003,,,,,,,,,,4.0,0.0,48.0,9.0,241.57213125,,,,,,,,,,,,,,,,,241.56256145899988,242.35983995900008,243.15504554199995,243.1438378339999,,,,,,,,,,,,,,,,,,,,,,,,,,,,,,,,,,,243.14784791700004,243.15504554199995,243.15504554199995,243.68549829199992,b,1.0,0.527412916000003,,,,,,sub-077,1,stroop_test,,
,,,,49.0,1.0,4.0,,,,,,,,,,,,,rot,blue,b,0.0,b,1.0,0.5652257499998541,,,,,,,,,,4.0,1.0,49.0,2.0,243.69552387499996,,,,,,,,,,,,,,,,,243.68612212499988,244.48252104199992,245.278938167,245.2664741250001,,,,,,,,,,,,,,,,,,,,,,,,,,,,,,,,,,,245.27112520900005,245.278938167,245.278938167,245.850798167,b,1.0,0.5652257499998541,,,,,,sub-077,1,stroop_test,,
,,,,50.0,2.0,4.0,,,,,,,,,,,,,rot,red,r,1.0,r,1.0,0.5303029579999929,,,,,,,,,,4.0,2.0,50.0,0.0,245.8618998750001,,,,,,,,,,,,,,,,,245.85135474999996,247.049138375,247.84157870900003,247.8328212920001,,,,,,,,,,,,,,,,,,,,,,,,,,,,,,,,,,,247.83340520899992,247.84157870900003,247.84157870900003,248.37849145899983,r,1.0,0.5303029579999929,,,,,,sub-077,1,stroop_test,,
,,,,51.0,3.0,4.0,,,,,,,,,,,,,blau,blue,b,1.0,b,1.0,0.3858510000000024,,,,,,,,,,4.0,3.0,51.0,5.0,248.388751,,,,,,,,,,,,,,,,,248.37915833400007,249.576310792,250.37168862499996,250.36052966700004,,,,,,,,,,,,,,,,,,,,,,,,,,,,,,,,,,,250.364497584,250.37168862499996,250.37168862499996,250.76148195899987,b,1.0,0.3858510000000024,,,,,,sub-077,1,stroop_test,,
,,,,52.0,4.0,4.0,,,,,,,,,,,,,blau,red,r,0.0,r,1.0,0.7525343330000851,,,,,,,,,,4.0,4.0,52.0,4.0,250.7696545839999,,,,,,,,,,,,,,,,,250.76200983399983,251.959724542,252.751032917,252.74381374999984,,,,,,,,,,,,,,,,,,,,,,,,,,,,,,,,,,,252.7444009169999,252.751032917,252.751032917,253.51195766699996,r,1.0,0.7525343330000851,,,,,,sub-077,1,stroop_test,,
,,,,53.0,5.0,4.0,,,,,,,,,,,,,rot,red,r,1.0,r,1.0,0.548700209000117,,,,,,,,,,4.0,5.0,53.0,1.0,253.521024917,,,,,,,,,,,,,,,,,253.51272383399987,254.309683042,255.105294042,255.09382208400007,,,,,,,,,,,,,,,,,,,,,,,,,,,,,,,,,,,255.097798584,255.105294042,255.105294042,255.66175295900007,r,1.0,0.548700209000117,,,,,,sub-077,1,stroop_test,,
,,,,54.0,6.0,4.0,,,,,,,,,,,,,rot,yellow,g,0.0,g,1.0,0.5850448749999941,,,,,,,,,,4.0,6.0,54.0,3.0,255.67144683399988,,,,,,,,,,,,,,,,,255.66246966699987,256.0097068749999,256.801004292,256.7936428339999,,,,,,,,,,,,,,,,,,,,,,,,,,,,,,,,,,,256.7942438339999,256.801004292,256.801004292,257.39529316699986,g,1.0,0.5850448749999941,,,,,,sub-077,1,stroop_test,,
,,,,55.0,7.0,4.0,,,,,,,,,,,,,gelb,yellow,g,1.0,g,1.0,0.516148166999983,,,,,,,,,,4.0,7.0,55.0,10.0,257.4049627919999,,,,,,,,,,,,,,,,,257.396034334,258.19295333399987,258.98834112500003,258.977077459,,,,,,,,,,,,,,,,,,,,,,,,,,,,,,,,,,,258.981343875,258.98834112500003,258.98834112500003,259.51170558399986,g,1.0,0.516148166999983,,,,,,sub-077,1,stroop_test,,
,,,,56.0,8.0,4.0,,,,,,,,,,,,,gelb,red,r,0.0,r,1.0,0.6153589999998985,,,,,,,,,,4.0,8.0,56.0,8.0,259.521733459,,,,,,,,,,,,,,,,,259.51237375000005,260.7096735,261.50145329199995,261.49376395900003,,,,,,,,,,,,,,,,,,,,,,,,,,,,,,,,,,,261.494497167,261.50145329199995,261.50145329199995,262.1283905,r,1.0,0.6153589999998985,,,,,,sub-077,1,stroop_test,,
,,,,57.0,9.0,4.0,,,,,,,,,,,,,blau,yellow,g,0.0,g,1.0,0.4986395839998749,,,,,,,,,,4.0,9.0,57.0,7.0,262.13837454200007,,,,,,,,,,,,,,,,,262.12907579199987,263.32634870900006,264.12240225000005,264.110444875,,,,,,,,,,,,,,,,,,,,,,,,,,,,,,,,,,,264.115059834,264.12240225000005,264.12240225000005,264.62846795899986,g,1.0,0.4986395839998749,,,,,,sub-077,1,stroop_test,,
,,,,58.0,10.0,4.0,,,,,,,,,,,,,blau,blue,b,1.0,b,1.0,0.4115532079999866,,,,,,,,,,4.0,10.0,58.0,6.0,264.6383236249999,,,,,,,,,,,,,,,,,264.6291215419999,265.4264646669999,266.21820758399986,266.210490209,,,,,,,,,,,,,,,,,,,,,,,,,,,,,,,,,,,266.21122387499986,266.21820758399986,266.21820758399986,266.634161875,b,1.0,0.4115532079999866,,,,,,sub-077,1,stroop_test,,
,,,,59.0,11.0,4.0,,,,,,,,,,,,,gelb,yellow,g,1.0,g,1.0,0.6405149170000186,,,,,,,,,,4.0,11.0,59.0,11.0,266.6447673749999,,,,,,,,,,,,,,,,,266.63472345900004,267.43242587500004,268.2279773749999,268.2163438339999,,,,,,,,,,,,,,,,,,,,,,,,,,,,,,,,,,,268.220042292,268.2279773749999,268.2279773749999,268.878533375,g,1.0,0.6405149170000186,,,,,,sub-077,1,stroop_test,,
,,,,60.0,0.0,5.0,,,,,,,,,,,,,gelb,yellow,g,1.0,g,1.0,0.5354427910001505,,,,,,,,,,5.0,0.0,60.0,10.0,268.88833287500006,,,,,,,,,,,,,,,,,268.8792477499999,269.22637470899986,270.0174865839999,270.0102899589999,,,,,,,,,,,,,,,,,,,,,,,,,,,,,,,,,,,270.01089558399985,270.0174865839999,270.0174865839999,270.5618079169999,g,1.0,0.5354427910001505,,,,,,sub-077,1,stroop_test,,
,,,,61.0,1.0,5.0,,,,,,,,,,,,,blau,yellow,g,0.0,g,1.0,0.7600637499999721,,,,,,,,,,5.0,1.0,61.0,7.0,270.571824334,,,,,,,,,,,,,,,,,270.56245516700005,270.90960937499995,271.706461667,271.69372291700006,,,,,,,,,,,,,,,,,,,,,,,,,,,,,,,,,,,271.699339459,271.706461667,271.706461667,272.4788779589999,g,1.0,0.7600637499999721,,,,,,sub-077,1,stroop_test,,
,,,,62.0,2.0,5.0,,,,,,,,,,,,,rot,red,r,1.0,r,1.0,0.55795312500004,,,,,,,,,,5.0,2.0,62.0,1.0,272.4929339999999,,,,,,,,,,,,,,,,,272.47922845900007,273.2764413749999,274.072329334,274.06047887499994,,,,,,,,,,,,,,,,,,,,,,,,,,,,,,,,,,,274.06483891699986,274.072329334,274.072329334,274.63424729200005,r,1.0,0.55795312500004,,,,,,sub-077,1,stroop_test,,
,,,,63.0,3.0,5.0,,,,,,,,,,,,,rot,blue,b,0.0,b,1.0,0.8018454999998994,,,,,,,,,,5.0,3.0,63.0,2.0,274.6445859999999,,,,,,,,,,,,,,,,,274.6347874999999,275.832466959,276.6247968749999,276.6163079999999,,,,,,,,,,,,,,,,,,,,,,,,,,,,,,,,,,,276.6168883339999,276.6247968749999,276.6247968749999,277.42974470900003,b,1.0,0.8018454999998994,,,,,,sub-077,1,stroop_test,,
,,,,64.0,4.0,5.0,,,,,,,,,,,,,gelb,yellow,g,1.0,g,1.0,0.5435913750000054,,,,,,,,,,5.0,4.0,64.0,11.0,277.43985329199995,,,,,,,,,,,,,,,,,277.43048391699995,277.7764555419999,278.572432084,278.5605258339999,,,,,,,,,,,,,,,,,,,,,,,,,,,,,,,,,,,278.565210667,278.572432084,278.572432084,279.12683316699986,g,1.0,0.5435913750000054,,,,,,sub-077,1,stroop_test,,
,,,,65.0,5.0,5.0,,,,,,,,,,,,,blau,blue,b,1.0,b,1.0,0.5204501250000249,,,,,,,,,,5.0,5.0,65.0,5.0,279.1307159589999,,,,,,,,,,,,,,,,,279.1272134589999,279.2154587089999,280.01117487500005,279.99962212499986,,,,,,,,,,,,,,,,,,,,,,,,,,,,,,,,,,,280.00326174999987,280.01117487500005,280.01117487500005,280.534025792,b,1.0,0.5204501250000249,,,,,,sub-077,1,stroop_test,,
,,,,66.0,6.0,5.0,,,,,,,,,,,,,gelb,blue,b,0.0,b,1.0,0.5337507909998749,,,,,,,,,,5.0,6.0,66.0,9.0,280.541492375,,,,,,,,,,,,,,,,,280.53448916699995,281.33285824999984,282.12789304199987,282.1166732500001,,,,,,,,,,,,,,,,,,,,,,,,,,,,,,,,,,,282.1205005420002,282.12789304199987,282.12789304199987,282.6677840839998,b,1.0,0.5337507909998749,,,,,,sub-077,1,stroop_test,,
,,,,67.0,7.0,5.0,,,,,,,,,,,,,blau,blue,b,1.0,b,1.0,0.6100257080001938,,,,,,,,,,5.0,7.0,67.0,6.0,282.6780870839998,,,,,,,,,,,,,,,,,282.6683526669999,282.7651242090001,283.5759318750001,283.549452625,,,,,,,,,,,,,,,,,,,,,,,,,,,,,,,,,,,283.5530521249998,283.5759318750001,283.5759318750001,284.19502999999986,b,1.0,0.6100257080001938,,,,,,sub-077,1,stroop_test,,
,,,,68.0,8.0,5.0,,,,,,,,,,,,,rot,red,r,1.0,r,1.0,0.4515018750003037,,,,,,,,,,5.0,8.0,68.0,0.0,284.20465620899995,,,,,,,,,,,,,,,,,284.19562425000004,285.39282754199985,286.188210584,286.17694325,,,,,,,,,,,,,,,,,,,,,,,,,,,,,,,,,,,286.18071358399993,286.188210584,286.188210584,286.64512616699994,r,1.0,0.4515018750003037,,,,,,sub-077,1,stroop_test,,
,,,,69.0,9.0,5.0,,,,,,,,,,,,,gelb,red,r,0.0,r,1.0,0.5263299999996889,,,,,,,,,,5.0,9.0,69.0,8.0,286.6551227499999,,,,,,,,,,,,,,,,,286.645819542,287.4429074169998,288.24041450000004,288.2273379590001,,,,,,,,,,,,,,,,,,,,,,,,,,,,,,,,,,,288.233354209,288.24041450000004,288.24041450000004,288.7785159169998,r,1.0,0.5263299999996889,,,,,,sub-077,1,stroop_test,,
,,,,70.0,10.0,5.0,,,,,,,,,,,,,blau,red,r,0.0,r,1.0,0.5477993330000572,,,,,,,,,,5.0,10.0,70.0,4.0,288.78668683399974,,,,,,,,,,,,,,,,,288.77910654200014,288.8762334590001,289.6723300419999,289.66045566699995,,,,,,,,,,,,,,,,,,,,,,,,,,,,,,,,,,,289.6648512920001,289.6723300419999,289.6723300419999,290.2284196669998,r,1.0,0.5477993330000572,,,,,,sub-077,1,stroop_test,,
,,,,71.0,11.0,5.0,,,,,,,,,,,,,rot,yellow,g,0.0,g,1.0,0.4332921669997631,,,,,,,,,,5.0,11.0,71.0,3.0,290.237641917,,,,,,,,,,,,,,,,,290.2290711249998,290.32629275,291.1223110420001,291.1103456249998,,,,,,,,,,,,,,,,,,,,,,,,,,,,,,,,,,,291.114858292,291.1223110420001,291.1223110420001,291.5620333339998,g,1.0,0.4332921669997631,,,,,,sub-077,1,stroop_test,,
,,,,72.0,0.0,6.0,,,,,,,,,,,,,blau,blue,b,1.0,b,1.0,0.4714363329999287,,,,,,,,,,6.0,0.0,72.0,5.0,291.5719457089999,,,,,,,,,,,,,,,,,291.5627525,291.65969300000006,292.4550677090001,292.443599792,,,,,,,,,,,,,,,,,,,,,,,,,,,,,,,,,,,292.44796962500004,292.4550677090001,292.4550677090001,292.928979667,b,1.0,0.4714363329999287,,,,,,sub-077,1,stroop_test,,
,,,,73.0,1.0,6.0,,,,,,,,,,,,,blau,blue,b,1.0,b,1.0,0.5576719159998902,,,,,,,,,,6.0,1.0,73.0,6.0,292.93886937499974,,,,,,,,,,,,,,,,,292.9296563339999,294.12623429199994,294.91864904199974,294.9105558339997,,,,,,,,,,,,,,,,,,,,,,,,,,,,,,,,,,,294.9113665,294.91864904199974,294.91864904199974,295.4786757090001,b,1.0,0.5576719159998902,,,,,,sub-077,1,stroop_test,,
,,,,74.0,2.0,6.0,,,,,,,,,,,,,gelb,yellow,g,1.0,g,1.0,0.4881125000001702,,,,,,,,,,6.0,2.0,74.0,11.0,295.48859870900014,,,,,,,,,,,,,,,,,295.47938566699986,296.676381667,297.4722686669997,297.4604335419999,,,,,,,,,,,,,,,,,,,,,,,,,,,,,,,,,,,297.4650081670002,297.4722686669997,297.4722686669997,297.9729950420001,g,1.0,0.4881125000001702,,,,,,sub-077,1,stroop_test,,
,,,,75.0,3.0,6.0,,,,,,,,,,,,,blau,red,r,0.0,b,0.0,0.6677033329997357,,,,,,,,,,6.0,3.0,75.0,4.0,297.977351084,,,,,,,,,,,,,,,,,297.97343754199983,298.06616099999974,298.872422209,298.8605134589998,,,,,,,,,,,,,,,,,,,,,,,,,,,,,,,,,,,298.8651110840001,298.872422209,298.872422209,299.544813125,b,0.0,0.6677033329997357,,,,,,sub-077,1,stroop_test,,
,,,,76.0,4.0,6.0,,,,,,,,,,,,,gelb,yellow,g,1.0,g,1.0,0.9015827079997508,,,,,,,,,,6.0,4.0,76.0,10.0,299.5548167500001,,,,,,,,,,,,,,,,,299.5454185839999,299.64307016700013,300.43883945900006,300.42713458399976,,,,,,,,,,,,,,,,,,,,,,,,,,,,,,,,,,,300.4316140840001,300.43883945900006,300.43883945900006,301.3447729589998,g,1.0,0.9015827079997508,,,,,,sub-077,1,stroop_test,,
,,,,77.0,5.0,6.0,,,,,,,,,,,,,rot,red,r,1.0,r,1.0,0.5310308749999422,,,,,,,,,,6.0,5.0,77.0,1.0,301.352071625,,,,,,,,,,,,,,,,,301.3451917920001,301.69291875,302.4895020419999,302.47697412499974,,,,,,,,,,,,,,,,,,,,,,,,,,,,,,,,,,,302.4818772919998,302.4895020419999,302.4895020419999,303.0281696249999,r,1.0,0.5310308749999422,,,,,,sub-077,1,stroop_test,,
,,,,78.0,6.0,6.0,,,,,,,,,,,,,rot,yellow,g,0.0,g,1.0,0.7335693750001155,,,,,,,,,,6.0,6.0,78.0,3.0,303.0379566249999,,,,,,,,,,,,,,,,,303.0287611670001,303.126226375,303.917002917,303.910158834,,,,,,,,,,,,,,,,,,,,,,,,,,,,,,,,,,,303.9107517090001,303.917002917,303.917002917,304.66309349999983,g,1.0,0.7335693750001155,,,,,,sub-077,1,stroop_test,,
,,,,79.0,7.0,6.0,,,,,,,,,,,,,rot,red,r,1.0,g,0.0,0.4829062089997933,,,,,,,,,,6.0,7.0,79.0,0.0,304.6753175419999,,,,,,,,,,,,,,,,,304.66349575000004,305.4596444590002,306.2513435420001,306.243618042,,,,,,,,,,,,,,,,,,,,,,,,,,,,,,,,,,,306.2443590839998,306.2513435420001,306.2513435420001,306.7449817500001,g,0.0,0.4829062089997933,,,,,,sub-077,1,stroop_test,,
,,,,80.0,8.0,6.0,,,,,,,,,,,,,rot,blue,b,0.0,b,1.0,0.6794114999997873,,,,,,,,,,6.0,8.0,80.0,2.0,306.75469754200003,,,,,,,,,,,,,,,,,306.74559929199995,306.84291329200005,307.6349085420002,307.62701174999984,,,,,,,,,,,,,,,,,,,,,,,,,,,,,,,,,,,307.627750959,307.6349085420002,307.6349085420002,308.3171914999998,b,1.0,0.6794114999997873,,,,,,sub-077,1,stroop_test,,
,,,,81.0,9.0,6.0,,,,,,,,,,,,,gelb,red,r,0.0,r,1.0,0.9208468339998036,,,,,,,,,,6.0,9.0,81.0,8.0,308.3276809170002,,,,,,,,,,,,,,,,,308.31774133399995,309.11582450000014,309.9109708340002,309.89944375000005,,,,,,,,,,,,,,,,,,,,,,,,,,,,,,,,,,,309.9030109999999,309.9109708340002,309.9109708340002,310.8345569170001,r,1.0,0.9208468339998036,,,,,,sub-077,1,stroop_test,,
,,,,82.0,10.0,6.0,,,,,,,,,,,,,gelb,blue,b,0.0,b,1.0,0.5848821250001492,,,,,,,,,,6.0,10.0,82.0,9.0,310.84443787500004,,,,,,,,,,,,,,,,,310.83510612500004,311.1831644590002,311.98511662500005,311.97731658400016,,,,,,,,,,,,,,,,,,,,,,,,,,,,,,,,,,,311.97807349999994,311.98511662500005,311.98511662500005,312.5784684999999,b,1.0,0.5848821250001492,,,,,,sub-077,1,stroop_test,,
,,,,83.0,11.0,6.0,,,,,,,,,,,,,blau,yellow,g,0.0,g,1.0,0.5577589169997736,,,,,,,,,,6.0,11.0,83.0,7.0,312.58807695899986,,,,,,,,,,,,,,,,,312.579105542,312.676471709,313.4717605000001,313.4603542919999,,,,,,,,,,,,,,,,,,,,,,,,,,,,,,,,,,,313.4646459589999,313.4717605000001,313.4717605000001,314.03429074999985,g,1.0,0.5577589169997736,,,,,,sub-077,1,stroop_test,,
,,,,84.0,0.0,7.0,,,,,,,,,,,,,blau,red,r,0.0,r,1.0,0.8740809579999222,,,,,,,,,,7.0,0.0,84.0,4.0,314.04413529199974,,,,,,,,,,,,,,,,,314.03487195900016,314.383070375,315.17465491699977,315.1663450000001,,,,,,,,,,,,,,,,,,,,,,,,,,,,,,,,,,,315.16691916699983,315.17465491699977,315.17465491699977,316.05100870900014,r,1.0,0.8740809579999222,,,,,,sub-077,1,stroop_test,,
,,,,85.0,1.0,7.0,,,,,,,,,,,,,rot,yellow,g,0.0,g,1.0,0.7620751669996935,,,,,,,,,,7.0,1.0,85.0,3.0,316.0609289170002,,,,,,,,,,,,,,,,,316.05165637499977,316.14847608399987,316.94443820900005,316.93279733400004,,,,,,,,,,,,,,,,,,,,,,,,,,,,,,,,,,,316.93634391700016,316.94443820900005,316.94443820900005,317.71156087500003,g,1.0,0.7620751669996935,,,,,,sub-077,1,stroop_test,,
,,,,86.0,2.0,7.0,,,,,,,,,,,,,rot,red,r,1.0,r,1.0,0.550826749999942,,,,,,,,,,7.0,2.0,86.0,1.0,317.7214738749999,,,,,,,,,,,,,,,,,317.7121757919999,318.50968516700004,319.300769209,319.2935779999998,,,,,,,,,,,,,,,,,,,,,,,,,,,,,,,,,,,319.2941694169999,319.300769209,319.300769209,319.8617785840001,r,1.0,0.550826749999942,,,,,,sub-077,1,stroop_test,,
,,,,87.0,3.0,7.0,,,,,,,,,,,,,blau,blue,b,1.0,b,1.0,0.40838766700017,,,,,,,,,,7.0,3.0,87.0,5.0,319.8717065000001,,,,,,,,,,,,,,,,,319.8624143339998,321.059644209,321.85484291700004,321.8435627089998,,,,,,,,,,,,,,,,,,,,,,,,,,,,,,,,,,,321.8478224589999,321.85484291700004,321.85484291700004,322.2670316670001,b,1.0,0.40838766700017,,,,,,sub-077,1,stroop_test,,
,,,,88.0,4.0,7.0,,,,,,,,,,,,,gelb,blue,b,0.0,b,1.0,0.4867986250001195,,,,,,,,,,7.0,4.0,88.0,9.0,322.2756275840002,,,,,,,,,,,,,,,,,322.2674982919998,322.615650792,323.4116905000001,323.3994433749999,,,,,,,,,,,,,,,,,,,,,,,,,,,,,,,,,,,323.4045410419999,323.4116905000001,323.4116905000001,323.900781542,b,1.0,0.4867986250001195,,,,,,sub-077,1,stroop_test,,
,,,,89.0,5.0,7.0,,,,,,,,,,,,,blau,yellow,g,0.0,g,1.0,0.4723438329997407,,,,,,,,,,7.0,5.0,89.0,7.0,323.9111615420002,,,,,,,,,,,,,,,,,323.901399334,324.6997087499999,325.5092380840001,325.48271054199995,,,,,,,,,,,,,,,,,,,,,,,,,,,,,,,,,,,325.4862888749999,325.5092380840001,325.5092380840001,325.9842349999999,g,1.0,0.4723438329997407,,,,,,sub-077,1,stroop_test,,
,,,,90.0,6.0,7.0,,,,,,,,,,,,,gelb,red,r,0.0,r,1.0,0.5403408750003109,,,,,,,,,,7.0,6.0,90.0,8.0,325.994377084,,,,,,,,,,,,,,,,,325.98479599999973,326.7820861249997,327.5925124999999,327.56600820899985,,,,,,,,,,,,,,,,,,,,,,,,,,,,,,,,,,,327.56965274999993,327.5925124999999,327.5925124999999,328.145763084,r,1.0,0.5403408750003109,,,,,,sub-077,1,stroop_test,,
,,,,91.0,7.0,7.0,,,,,,,,,,,,,rot,blue,b,0.0,b,1.0,0.3393514999997933,,,,,,,,,,7.0,7.0,91.0,2.0,328.159469875,,,,,,,,,,,,,,,,,328.14618270899973,329.3427516669999,330.13809870900013,330.126846959,,,,,,,,,,,,,,,,,,,,,,,,,,,,,,,,,,,330.13078466700017,330.13809870900013,330.13809870900013,330.4840972090001,b,1.0,0.3393514999997933,,,,,,sub-077,1,stroop_test,,
,,,,92.0,8.0,7.0,,,,,,,,,,,,,gelb,yellow,g,1.0,g,1.0,0.5255768329998318,,,,,,,,,,7.0,8.0,92.0,11.0,330.4947602090001,,,,,,,,,,,,,,,,,330.48465895900017,330.58225975000005,331.37792949999994,331.36645795899994,,,,,,,,,,,,,,,,,,,,,,,,,,,,,,,,,,,331.370123834,331.37792949999994,331.37792949999994,331.9115575840001,g,1.0,0.5255768329998318,,,,,,sub-077,1,stroop_test,,
,,,,93.0,9.0,7.0,,,,,,,,,,,,,blau,blue,b,1.0,b,1.0,0.489566916000058,,,,,,,,,,7.0,9.0,93.0,6.0,331.92089758400016,,,,,,,,,,,,,,,,,331.9122443749998,333.10963349999975,333.904558709,333.8933162919998,,,,,,,,,,,,,,,,,,,,,,,,,,,,,,,,,,,333.897323875,333.904558709,333.904558709,334.40086116700013,b,1.0,0.489566916000058,,,,,,sub-077,1,stroop_test,,
,,,,94.0,10.0,7.0,,,,,,,,,,,,,gelb,yellow,g,1.0,g,1.0,0.6100351669997508,,,,,,,,,,7.0,10.0,94.0,10.0,334.41079854200007,,,,,,,,,,,,,,,,,334.401423542,335.19892416699986,336.0053322499998,335.9936124999999,,,,,,,,,,,,,,,,,,,,,,,,,,,,,,,,,,,335.99825250000004,336.0053322499998,336.0053322499998,336.61763433399983,g,1.0,0.6100351669997508,,,,,,sub-077,1,stroop_test,,
,,,,95.0,11.0,7.0,,,,,,,,,,,,,rot,red,r,1.0,r,1.0,0.4606806669999059,,,,,,,,,,7.0,11.0,95.0,0.0,336.62774954199995,,,,,,,,,,,,,,,,,336.6182345419997,336.9654283340001,337.7611246669999,337.7488652920001,,,,,,,,,,,,,,,,,,,,,,,,,,,,,,,,,,,337.753779959,337.7611246669999,337.7611246669999,338.22826637499975,r,1.0,0.4606806669999059,,,,,,sub-077,1,stroop_test,,
,,,,96.0,0.0,8.0,,,,,,,,,,,,,blau,yellow,g,0.0,g,1.0,0.7087122080001791,,,,,,,,,,8.0,0.0,96.0,7.0,338.238203417,,,,,,,,,,,,,,,,,338.22891745900006,339.02611720899995,339.8215285420001,339.81020575,,,,,,,,,,,,,,,,,,,,,,,,,,,,,,,,,,,339.8145278339998,339.8215285420001,339.8215285420001,340.53438983399974,g,1.0,0.7087122080001791,,,,,,sub-077,1,stroop_test,,
,,,,97.0,1.0,8.0,,,,,,,,,,,,,gelb,red,r,0.0,r,1.0,0.5675001249996967,,,,,,,,,,8.0,1.0,97.0,8.0,340.54427858400004,,,,,,,,,,,,,,,,,340.53493616700007,340.88239562499984,341.6777072089999,341.666027625,,,,,,,,,,,,,,,,,,,,,,,,,,,,,,,,,,,341.66964708399973,341.6777072089999,341.6777072089999,342.25028762500006,r,1.0,0.5675001249996967,,,,,,sub-077,1,stroop_test,,
,,,,98.0,2.0,8.0,,,,,,,,,,,,,rot,blue,b,0.0,b,1.0,0.4652889169997252,,,,,,,,,,8.0,2.0,98.0,2.0,342.25776666699994,,,,,,,,,,,,,,,,,342.2506226669998,343.0491526249998,343.844400042,343.832757917,,,,,,,,,,,,,,,,,,,,,,,,,,,,,,,,,,,343.8362705,343.844400042,343.844400042,344.3122075000001,b,1.0,0.4652889169997252,,,,,,sub-077,1,stroop_test,,
,,,,99.0,3.0,8.0,,,,,,,,,,,,,blau,red,r,0.0,r,1.0,0.7132199170000604,,,,,,,,,,8.0,3.0,99.0,4.0,344.32214762500007,,,,,,,,,,,,,,,,,344.3128785839999,344.4093814170001,345.20509204200016,345.19367837499976,,,,,,,,,,,,,,,,,,,,,,,,,,,,,,,,,,,345.19804991699993,345.20509204200016,345.20509204200016,345.9281847090001,r,1.0,0.7132199170000604,,,,,,sub-077,1,stroop_test,,
,,,,100.0,4.0,8.0,,,,,,,,,,,,,rot,red,r,1.0,r,1.0,0.6745528330002344,,,,,,,,,,8.0,4.0,100.0,1.0,345.937943167,,,,,,,,,,,,,,,,,345.9287899169999,346.72609145900014,347.5213655419998,347.51007641700016,,,,,,,,,,,,,,,,,,,,,,,,,,,,,,,,,,,347.5138414170001,347.5213655419998,347.5213655419998,348.2010358749999,r,1.0,0.6745528330002344,,,,,,sub-077,1,stroop_test,,
,,,,101.0,5.0,8.0,,,,,,,,,,,,,gelb,yellow,g,1.0,g,1.0,0.4582478750003247,,,,,,,,,,8.0,5.0,101.0,11.0,348.2111690840002,,,,,,,,,,,,,,,,,348.2015850419998,348.9996921249999,349.7941289999999,349.782873917,,,,,,,,,,,,,,,,,,,,,,,,,,,,,,,,,,,349.7864616669999,349.7941289999999,349.7941289999999,350.2614431669999,g,1.0,0.4582478750003247,,,,,,sub-077,1,stroop_test,,
,,,,102.0,6.0,8.0,,,,,,,,,,,,,rot,yellow,g,0.0,g,1.0,0.419782375000068,,,,,,,,,,8.0,6.0,102.0,3.0,350.2714753340001,,,,,,,,,,,,,,,,,350.2620379589998,351.0597076670001,351.85684037500005,351.8434244169998,,,,,,,,,,,,,,,,,,,,,,,,,,,,,,,,,,,351.84935641699985,351.85684037500005,351.85684037500005,352.279267292,g,1.0,0.419782375000068,,,,,,sub-077,1,stroop_test,,
,,,,103.0,7.0,8.0,,,,,,,,,,,,,blau,blue,b,1.0,b,1.0,0.4615029579999827,,,,,,,,,,8.0,7.0,103.0,5.0,352.2895252089997,,,,,,,,,,,,,,,,,352.279947084,353.476142,354.272091417,354.2602311669998,,,,,,,,,,,,,,,,,,,,,,,,,,,,,,,,,,,354.2648090839998,354.272091417,354.272091417,354.74483704199974,b,1.0,0.4615029579999827,,,,,,sub-077,1,stroop_test,,
,,,,104.0,8.0,8.0,,,,,,,,,,,,,rot,red,r,1.0,r,1.0,0.5949014579996401,,,,,,,,,,8.0,8.0,104.0,0.0,354.7547922919998,,,,,,,,,,,,,,,,,354.74548270900004,354.84281866699985,355.6388992500001,355.62696991699977,,,,,,,,,,,,,,,,,,,,,,,,,,,,,,,,,,,355.63153087499995,355.6388992500001,355.6388992500001,356.2447942919998,r,1.0,0.5949014579996401,,,,,,sub-077,1,stroop_test,,
,,,,105.0,9.0,8.0,,,,,,,,,,,,,gelb,blue,b,0.0,b,1.0,0.5780911669999114,,,,,,,,,,8.0,9.0,105.0,9.0,356.25482650000004,,,,,,,,,,,,,,,,,356.2454478750001,357.042776625,357.83776658399984,357.826734792,,,,,,,,,,,,,,,,,,,,,,,,,,,,,,,,,,,357.8306028339998,357.83776658399984,357.83776658399984,358.41830233400015,b,1.0,0.5780911669999114,,,,,,sub-077,1,stroop_test,,
,,,,106.0,10.0,8.0,,,,,,,,,,,,,gelb,yellow,g,1.0,g,1.0,0.6064688329997807,,,,,,,,,,8.0,10.0,106.0,10.0,358.4285995,,,,,,,,,,,,,,,,,358.418898292,358.5151303749999,359.3078555839997,359.299503834,,,,,,,,,,,,,,,,,,,,,,,,,,,,,,,,,,,359.300090792,359.3078555839997,359.3078555839997,359.91721441699974,g,1.0,0.6064688329997807,,,,,,sub-077,1,stroop_test,,
,,,,107.0,11.0,8.0,,,,,,,,,,,,,blau,blue,b,1.0,b,1.0,0.5326764999999796,,,,,,,,,,8.0,11.0,107.0,6.0,359.92745650000006,,,,,,,,,,,,,,,,,359.917769875,360.71567304200016,361.5111538339997,361.499553875,,,,,,,,,,,,,,,,,,,,,,,,,,,,,,,,,,,361.50329837499976,361.5111538339997,361.5111538339997,362.046595584,b,1.0,0.5326764999999796,,,,,,sub-077,1,stroop_test,,
,,,,108.0,0.0,9.0,,,,,,,,,,,,,gelb,yellow,g,1.0,g,1.0,0.538536084000043,,,,,,,,,,9.0,0.0,108.0,10.0,362.0566799590001,,,,,,,,,,,,,,,,,362.0472930420001,362.8427765000001,363.6386321669997,363.626750209,,,,,,,,,,,,,,,,,,,,,,,,,,,,,,,,,,,363.63127508399975,363.6386321669997,363.6386321669997,364.1840286669999,g,1.0,0.538536084000043,,,,,,sub-077,1,stroop_test,,
,,,,109.0,1.0,9.0,,,,,,,,,,,,,rot,yellow,g,0.0,g,1.0,0.5878524159998051,,,,,,,,,,9.0,1.0,109.0,3.0,364.1941729999999,,,,,,,,,,,,,,,,,364.1845898339998,364.982290125,365.77761708399976,365.7660095420001,,,,,,,,,,,,,,,,,,,,,,,,,,,,,,,,,,,365.7695323749999,365.77761708399976,365.77761708399976,366.3677163339999,g,1.0,0.5878524159998051,,,,,,sub-077,1,stroop_test,,
,,,,110.0,2.0,9.0,,,,,,,,,,,,,rot,red,r,1.0,r,1.0,0.4925577089998114,,,,,,,,,,9.0,2.0,110.0,0.0,366.3780836669998,,,,,,,,,,,,,,,,,366.368346834,367.1657473340001,367.957822584,367.9492392500001,,,,,,,,,,,,,,,,,,,,,,,,,,,,,,,,,,,367.9498143749997,367.957822584,367.957822584,368.4615328750001,r,1.0,0.4925577089998114,,,,,,sub-077,1,stroop_test,,
,,,,111.0,3.0,9.0,,,,,,,,,,,,,blau,blue,b,1.0,b,1.0,0.5373178750000989,,,,,,,,,,9.0,3.0,111.0,5.0,368.4714134589999,,,,,,,,,,,,,,,,,368.462168,368.5593825840001,369.35606937500006,369.3434391669998,,,,,,,,,,,,,,,,,,,,,,,,,,,,,,,,,,,369.34888716700016,369.35606937500006,369.35606937500006,369.9058814169998,b,1.0,0.5373178750000989,,,,,,sub-077,1,stroop_test,,
,,,,112.0,4.0,9.0,,,,,,,,,,,,,gelb,yellow,g,1.0,g,1.0,1.3832731669999705,,,,,,,,,,9.0,4.0,112.0,11.0,369.91040458399993,,,,,,,,,,,,,,,,,369.90626925000015,369.99832583399984,370.7939891249998,370.782966542,,,,,,,,,,,,,,,,,,,,,,,,,,,,,,,,,,,370.786734667,370.7939891249998,370.7939891249998,372.1839298750001,g,1.0,1.3832731669999705,,,,,,sub-077,1,stroop_test,,
,,,,113.0,5.0,9.0,,,,,,,,,,,,,gelb,red,r,0.0,r,1.0,0.5089922500001194,,,,,,,,,,9.0,5.0,113.0,8.0,372.1943137919998,,,,,,,,,,,,,,,,,372.184458875,372.9822435840001,373.77461070900017,373.76563862500007,,,,,,,,,,,,,,,,,,,,,,,,,,,,,,,,,,,373.7662177090001,373.77461070900017,373.77461070900017,374.2961647500001,r,1.0,0.5089922500001194,,,,,,sub-077,1,stroop_test,,
,,,,114.0,6.0,9.0,,,,,,,,,,,,,blau,blue,b,1.0,b,1.0,0.4489745419996325,,,,,,,,,,9.0,6.0,114.0,6.0,374.3092716669999,,,,,,,,,,,,,,,,,374.29656650000015,375.0927918339999,375.888569709,375.876682959,,,,,,,,,,,,,,,,,,,,,,,,,,,,,,,,,,,375.88128470899983,375.888569709,375.888569709,376.3446012089999,b,1.0,0.4489745419996325,,,,,,sub-077,1,stroop_test,,
,,,,115.0,7.0,9.0,,,,,,,,,,,,,blau,red,r,0.0,r,1.0,0.4837991249996776,,,,,,,,,,9.0,7.0,115.0,4.0,376.35462125,,,,,,,,,,,,,,,,,376.3452097089999,377.542836959,378.3348417920001,378.3270644999998,,,,,,,,,,,,,,,,,,,,,,,,,,,,,,,,,,,378.327825292,378.3348417920001,378.3348417920001,378.828382875,r,1.0,0.4837991249996776,,,,,,sub-077,1,stroop_test,,
,,,,116.0,8.0,9.0,,,,,,,,,,,,,rot,blue,b,0.0,b,1.0,0.5311325419997956,,,,,,,,,,9.0,8.0,116.0,2.0,378.8385734170001,,,,,,,,,,,,,,,,,378.829082667,379.626105542,380.42195737500015,380.4101721669999,,,,,,,,,,,,,,,,,,,,,,,,,,,,,,,,,,,380.41456804200016,380.42195737500015,380.42195737500015,380.961443875,b,1.0,0.5311325419997956,,,,,,sub-077,1,stroop_test,,
,,,,117.0,9.0,9.0,,,,,,,,,,,,,gelb,blue,b,0.0,b,1.0,0.6485519999996541,,,,,,,,,,9.0,9.0,117.0,9.0,380.9714952919999,,,,,,,,,,,,,,,,,380.96205358399993,382.159273667,382.9546903340001,382.943551584,,,,,,,,,,,,,,,,,,,,,,,,,,,,,,,,,,,382.9477824589999,382.9546903340001,382.9546903340001,383.6117501670001,b,1.0,0.6485519999996541,,,,,,sub-077,1,stroop_test,,
,,,,118.0,10.0,9.0,,,,,,,,,,,,,rot,red,r,1.0,r,1.0,0.5631814580001446,,,,,,,,,,9.0,10.0,118.0,1.0,383.621054875,,,,,,,,,,,,,,,,,383.6123956669999,384.8093695419998,385.6052288749997,385.5934523749997,,,,,,,,,,,,,,,,,,,,,,,,,,,,,,,,,,,385.597867125,385.6052288749997,385.6052288749997,386.178267667,r,1.0,0.5631814580001446,,,,,,sub-077,1,stroop_test,,
,,,,119.0,11.0,9.0,,,,,,,,,,,,,blau,yellow,g,0.0,g,1.0,0.4596562910001012,,,,,,,,,,9.0,11.0,119.0,7.0,386.18818166699975,,,,,,,,,,,,,,,,,386.17896145899977,386.9758998339999,387.7724470839999,387.76002533400015,,,,,,,,,,,,,,,,,,,,,,,,,,,,,,,,,,,387.765442209,387.7724470839999,387.7724470839999,388.234380375,g,1.0,0.4596562910001012,,,,,,sub-077,1,stroop_test,,
,,,,,,,,,,,,,,,,,,,,,,,,,,,,,,,,,,,,,,,,,,,,,,,,,,,,,,,,,,,,,,,,,,,,,,,,,,,,,,,,,,,,,,,,,,,,,,,,,,,,,,388.23469266699976,388.2457187089999,393.2426116669999,393.2321615000001,sub-077,1,stroop_test,,
