wordCTK,colorCTK,corrAnsCTK,congruentCTK,thisN,thisTrialN,thisRepN,keyResp_CTK.keys,keyResp_CTK.corr,keyResp_CTK.rt,keyResp_CTK.duration,wordPractice,colorPractice,corrAnsPractice,congruentPractice,respPractice.keys,respPractice.corr,respPractice.rt,respPractice.duration,word,color,corrAns,congruent,keyResp_test_run.keys,keyResp_test_run.corr,keyResp_test_run.rt,keyResp_test_run.duration,trials_CTK.thisRepN,trials_CTK.thisTrialN,trials_CTK.thisN,trials_CTK.thisIndex,trials_practice.thisRepN,trials_practice.thisTrialN,trials_practice.thisN,trials_practice.thisIndex,trials_test.thisRepN,trials_test.thisTrialN,trials_test.thisN,trials_test.thisIndex,thisRow.t,notes,instruction.started,instr_text.started,instr_image.started,instr_resp.started,instruction.stopped,instr_resp.keys,instr_resp.rt,instr_resp.duration,instr_color_to_key.started,instr_ctk.started,resp_ctk.started,instr_color_to_key.stopped,resp_ctk.keys,resp_ctk.rt,resp_ctk.duration,ITI.started,fixcross.started,fixcross.stopped,ITI.stopped,color_to_key_run.started,stimulus_CTK.started,keyResp_CTK.started,color_to_key_run.stopped,trials_CTK.keyResp_CTK.keys,trials_CTK.keyResp_CTK.corr,trials_CTK.keyResp_CTK.rt,trials_CTK.keyResp_CTK.duration,instr_practice.started,instr_practice_text.started,instr_practice_resp.started,instr_practice.stopped,instr_practice_resp.keys,instr_practice_resp.rt,instr_practice_resp.duration,practice_run.started,stimulus_practice.started,respPractice.started,practice_run.stopped,trials_practice.respPractice.keys,trials_practice.respPractice.corr,trials_practice.respPractice.rt,trials_practice.respPractice.duration,feedback.started,textFeedback.started,feedback.stopped,textFeedback.stopped,instr_test.started,instr_test_text.started,instr_test_resp.started,instr_test.stopped,instr_test_resp.keys,instr_test_resp.rt,instr_test_resp.duration,test_run.started,stimulus_test_run.started,keyResp_test_run.started,test_run.stopped,trials_test.keyResp_test_run.keys,trials_test.keyResp_test_run.corr,trials_test.keyResp_test_run.rt,trials_test.keyResp_test_run.duration,goodbye.started,textGoodbye.started,goodbye.stopped,participant,session,expName,frameRate,Unnamed: 112
,,,,,,,,,,,,,,,,,,,,,,,,,,,,,,,,,,,,,,,,,0.0136431389983044,0.0551698700000997,0.0551698700000997,0.0551698700000997,32.330575186002534,space,32.243426106004335,,,,,,,,,,,,,,,,,,,,,,,,,,,,,,,,,,,,,,,,,,,,,,,,,,,,,,,,,,sub-142,1,stroop_test,52.47564480818178,
,,,,,,,,,,,,,,,,,,,,,,,,,,,,,,,,,,,,,,,,,,,,,,,,,32.33064795500104,32.34794623099879,32.34794623099879,36.971345061996544,space,4.606344812003954,,,,,,,,,,,,,,,,,,,,,,,,,,,,,,,,,,,,,,,,,,,,,,,,,,,sub-142,1,stroop_test,52.47564480818178,
test,red,r,1.0,0.0,0.0,0.0,r,1.0,1.0794335290047457,,,,,,,,,,,,,,,,,,0.0,0.0,0.0,0.0,,,,,,,,,37.00090770099632,,,,,,,,,,,,,,,,,36.98832228699757,38.173454605996085,38.98795387300197,38.96871199599991,38.97437739199813,38.98795387300197,38.98795387300197,40.08285958199849,r,1.0,1.0794335290047457,,,,,,,,,,,,,,,,,,,,,,,,,,,,,,,,,,,,,,,sub-142,1,stroop_test,52.47564480818178,
test,blue,b,1.0,1.0,1.0,0.0,b,1.0,0.7754201610005111,,,,,,,,,,,,,,,,,,0.0,1.0,1.0,2.0,,,,,,,,,40.096000514997286,,,,,,,,,,,,,,,,,40.08331707499747,40.17968228300015,40.98844562200247,40.97483869500138,40.975378076997,40.98844562200247,40.98844562200247,41.77902532000007,b,1.0,0.7754201610005111,,,,,,,,,,,,,,,,,,,,,,,,,,,,,,,,,,,,,,,sub-142,1,stroop_test,52.47564480818178,
test,yellow,g,1.0,2.0,2.0,0.0,g,1.0,0.9649998210006744,,,,,,,,,,,,,,,,,,0.0,2.0,2.0,1.0,,,,,,,,,41.79277976400044,,,,,,,,,,,,,,,,,41.78012234599737,42.57742276399949,43.3851293100015,43.3722096019992,43.37345506899874,43.3851293100015,43.3851293100015,44.37105885599885,g,1.0,0.9649998210006744,,,,,,,,,,,,,,,,,,,,,,,,,,,,,,,,,,,,,,,sub-142,1,stroop_test,52.47564480818178,
test,red,r,1.0,3.0,0.0,1.0,r,1.0,0.88978803500504,,,,,,,,,,,,,,,,,,1.0,0.0,3.0,0.0,,,,,,,,,44.38236265500018,,,,,,,,,,,,,,,,,44.37161430999549,44.477576940997096,45.284927724002046,45.27158051900187,45.272876297996845,45.284927724002046,45.284927724002046,46.18257065299986,r,1.0,0.88978803500504,,,,,,,,,,,,,,,,,,,,,,,,,,,,,,,,,,,,,,,sub-142,1,stroop_test,52.47564480818178,
test,yellow,g,1.0,4.0,1.0,1.0,g,1.0,0.5266336019994924,,,,,,,,,,,,,,,,,,1.0,1.0,4.0,1.0,,,,,,,,,46.19535463499778,,,,,,,,,,,,,,,,,46.18293764299597,46.28895284399914,47.09357917300076,47.079767361996346,47.081315176001226,47.09357917300076,47.09357917300076,47.62803685700055,g,1.0,0.5266336019994924,,,,,,,,,,,,,,,,,,,,,,,,,,,,,,,,,,,,,,,sub-142,1,stroop_test,52.47564480818178,
test,blue,b,1.0,5.0,2.0,1.0,b,1.0,0.5020836860057898,,,,,,,,,,,,,,,,,,1.0,2.0,5.0,2.0,,,,,,,,,47.64235096199991,,,,,,,,,,,,,,,,,47.62841614500212,48.424251896001806,49.23669682099717,49.22097124299762,49.22151814300014,49.23669682099717,49.23669682099717,49.753780897997785,b,1.0,0.5020836860057898,,,,,,,,,,,,,,,,,,,,,,,,,,,,,,,,,,,,,,,sub-142,1,stroop_test,52.47564480818178,
test,blue,b,1.0,6.0,0.0,2.0,b,1.0,0.5265302420011722,,,,,,,,,,,,,,,,,,2.0,0.0,6.0,2.0,,,,,,,,,49.767558829000336,,,,,,,,,,,,,,,,,49.75415429400164,50.55022319099953,51.3498308729977,51.33634980300121,51.3379805959994,51.3498308729977,51.3498308729977,51.88535138899897,b,1.0,0.5265302420011722,,,,,,,,,,,,,,,,,,,,,,,,,,,,,,,,,,,,,,,sub-142,1,stroop_test,52.47564480818178,
test,yellow,g,1.0,7.0,1.0,2.0,g,1.0,0.7672612579990528,,,,,,,,,,,,,,,,,,2.0,1.0,7.0,1.0,,,,,,,,,51.89880945299956,,,,,,,,,,,,,,,,,51.88571954899817,52.23260215699702,53.03972010099824,53.02605674699589,53.026605949999066,53.03972010099824,53.03972010099824,53.81579198499821,g,1.0,0.7672612579990528,,,,,,,,,,,,,,,,,,,,,,,,,,,,,,,,,,,,,,,sub-142,1,stroop_test,52.47564480818178,
test,red,r,1.0,8.0,2.0,2.0,r,1.0,0.3601185790030285,,,,,,,,,,,,,,,,,,2.0,2.0,8.0,0.0,,,,,,,,,53.83030240499647,,,,,,,,,,,,,,,,,53.81616476199997,54.615891961999296,55.41416461899644,55.40192738799669,55.40250740599731,55.41416461899644,55.41416461899644,55.78615074700065,r,1.0,0.3601185790030285,,,,,,,,,,,,,,,,,,,,,,,,,,,,,,,,,,,,,,,sub-142,1,stroop_test,52.47564480818178,
test,blue,b,1.0,9.0,0.0,3.0,b,1.0,0.4407939979937509,,,,,,,,,,,,,,,,,,3.0,0.0,9.0,2.0,,,,,,,,,55.79903237600229,,,,,,,,,,,,,,,,,55.78651990999788,56.98798855699715,57.7905253009958,57.77691544299887,57.77763985600177,57.7905253009958,57.7905253009958,58.251854661000834,b,1.0,0.4407939979937509,,,,,,,,,,,,,,,,,,,,,,,,,,,,,,,,,,,,,,,sub-142,1,stroop_test,52.47564480818178,
test,red,r,1.0,10.0,1.0,3.0,r,1.0,0.7087300069979392,,,,,,,,,,,,,,,,,,3.0,1.0,10.0,0.0,,,,,,,,,58.26324862599722,,,,,,,,,,,,,,,,,58.25224355600221,59.45100205599738,60.25718398000026,60.24165122299746,60.24232833599672,60.25718398000026,60.25718398000026,60.98781435799901,r,1.0,0.7087300069979392,,,,,,,,,,,,,,,,,,,,,,,,,,,,,,,,,,,,,,,sub-142,1,stroop_test,52.47564480818178,
test,yellow,g,1.0,11.0,2.0,3.0,g,1.0,0.998340926002129,,,,,,,,,,,,,,,,,,3.0,2.0,11.0,1.0,,,,,,,,,60.99894137899537,,,,,,,,,,,,,,,,,60.98831089199666,61.09529266599566,61.90475812899968,61.89076495500194,61.89134405100049,61.90475812899968,61.90475812899968,62.91941893399781,g,1.0,0.998340926002129,,,,,,,,,,,,,,,,,,,,,,,,,,,,,,,,,,,,,,,sub-142,1,stroop_test,52.47564480818178,
,,,,,,,,,,,,,,,,,,,,,,,,,,,,,,,,,,,,,,,,,,,,,,,,,,,,,,,,,,,,,,,,,,,,62.91972874799831,62.93600460599555,62.93600460599555,74.16609410099773,space,11.212887399997271,,,,,,,,,,,,,,,,,,,,,,,,,,,,,,,,sub-142,1,stroop_test,52.47564480818178,
,,,,0.0,0.0,0.0,,,,,gelb,red,r,0.0,r,1.0,0.8868592909930157,,,,,,,,,,,,,,0.0,0.0,0.0,8.0,,,,,74.19251956399967,,,,,,,,,,,,,,,,,74.18006106300163,74.26205445199594,75.08433148099721,75.06634272199881,,,,,,,,,,,,,,,,75.07202330399741,75.08433148099721,75.08433148099721,75.97473898500175,r,1.0,0.8868592909930157,,75.98430212799576,75.9996579380022,76.99880541199673,,,,,,,,,,,,,,,,,,,,sub-142,1,stroop_test,52.47564480818178,
,,,,1.0,1.0,0.0,,,,,gelb,yellow,g,1.0,g,1.0,1.2019174929955625,,,,,,,,,,,,,,0.0,1.0,1.0,10.0,,,,,77.01733799599606,,,,,,,,,,,,,,,,,76.99943737599824,77.3237109699985,78.12353746499866,78.10782525599643,,,,,,,,,,,,,,,,78.10836418899999,78.12353746499866,78.12353746499866,79.33134608499677,g,1.0,1.2019174929955625,,79.33194500600075,79.34602817999985,80.34166541499872,,,,,,,,,,,,,,,,,,,,sub-142,1,stroop_test,52.47564480818178,
,,,,2.0,2.0,0.0,,,,,gelb,yellow,g,1.0,g,1.0,1.23581961599848,,,,,,,,,,,,,,0.0,2.0,2.0,11.0,,,,,80.35691400899668,,,,,,,,,,,,,,,,,80.34307535799599,80.43431601699558,81.23861371699604,81.22062545499648,,,,,,,,,,,,,,,,81.22168292100105,81.23861371699604,81.23861371699604,82.48607472400181,g,1.0,1.23581961599848,,82.48662725400209,82.50371315699886,83.49119295399578,,,,,,,,,,,,,,,,,,,,sub-142,1,stroop_test,52.47564480818178,
,,,,3.0,3.0,0.0,,,,,rot,blue,b,0.0,b,1.0,0.562937877002696,,,,,,,,,,,,,,0.0,3.0,3.0,2.0,,,,,83.50458485399577,,,,,,,,,,,,,,,,,83.49230374000035,84.2797505569979,85.08736570800102,85.06993782499922,,,,,,,,,,,,,,,,85.07516795099946,85.08736570800102,85.08736570800102,85.66601785300008,b,1.0,0.562937877002696,,85.66694272399764,85.68322706699837,86.66654591199767,,,,,,,,,,,,,,,,,,,,sub-142,1,stroop_test,52.47564480818178,
,,,,4.0,4.0,0.0,,,,,gelb,blue,b,0.0,b,1.0,0.7885018119995948,,,,,,,,,,,,,,0.0,4.0,4.0,9.0,,,,,86.68091266299598,,,,,,,,,,,,,,,,,86.66823125299561,87.46728840300057,88.27692650999961,88.25982993999787,,,,,,,,,,,,,,,,88.26490595300129,88.27692650999961,88.27692650999961,89.0858723709971,b,1.0,0.7885018119995948,,89.08645741899818,89.09800464999716,90.08698247999564,,,,,,,,,,,,,,,,,,,,sub-142,1,stroop_test,52.47564480818178,
,,,,5.0,5.0,0.0,,,,,blau,red,r,0.0,r,1.0,0.8101620129964431,,,,,,,,,,,,,,0.0,5.0,5.0,4.0,,,,,90.10335620799742,,,,,,,,,,,,,,,,,90.08751583300182,91.2869296659992,92.0915960659986,92.07309934899968,,,,,,,,,,,,,,,,92.0800412519966,92.0915960659986,92.0915960659986,92.92264035600238,r,1.0,0.8101620129964431,,92.9232336540008,92.93457735300036,93.92311252599757,93.93770528899768,,,,,,,,,,,,,,,,,,,sub-142,1,stroop_test,52.47564480818178,
,,,,6.0,6.0,0.0,,,,,blau,blue,b,1.0,b,1.0,1.322418474999722,,,,,,,,,,,,,,0.0,6.0,6.0,6.0,,,,,93.93770528899768,,,,,,,,,,,,,,,,,93.92346681399796,94.02873947999616,94.83776828600094,94.82235249599762,,,,,,,,,,,,,,,,94.8229270879965,94.83776828600094,94.83776828600094,96.17394248899654,b,1.0,1.322418474999722,,96.1745320150003,96.19049477500084,97.1816914489973,,,,,,,,,,,,,,,,,,,,sub-142,1,stroop_test,52.47564480818178,
,,,,7.0,7.0,0.0,,,,,rot,yellow,g,0.0,g,1.0,0.7699628940026741,,,,,,,,,,,,,,0.0,7.0,7.0,3.0,,,,,97.19434222400014,,,,,,,,,,,,,,,,,97.18273367499933,97.97430363400052,98.77944658699562,98.76300993400218,,,,,,,,,,,,,,,,98.76743517199792,98.77944658699562,98.77944658699562,99.56639495999843,g,1.0,0.7699628940026741,,99.56734534099814,99.58493038199958,100.56920324399834,,,,,,,,,,,,,,,,,,,,sub-142,1,stroop_test,52.47564480818178,
,,,,8.0,8.0,0.0,,,,,blau,blue,b,1.0,b,1.0,0.8901301939986297,,,,,,,,,,,,,,0.0,8.0,8.0,5.0,,,,,100.58282549699652,,,,,,,,,,,,,,,,,100.57049600299796,101.38373493599649,102.1853929889985,102.1701806189958,,,,,,,,,,,,,,,,102.17314390200043,102.1853929889985,102.1853929889985,103.08526783799608,b,1.0,0.8901301939986297,,103.08585286599556,103.10067020099814,104.0900179579985,,,,,,,,,,,,,,,,,,,,sub-142,1,stroop_test,52.47564480818178,
,,,,9.0,9.0,0.0,,,,,rot,red,r,1.0,r,1.0,1.2618106200025068,,,,,,,,,,,,,,0.0,9.0,9.0,0.0,,,,,104.10119716999908,,,,,,,,,,,,,,,,,104.09059857200192,104.19428412900017,104.99847774000229,104.98253713500162,,,,,,,,,,,,,,,,104.98645324300014,104.99847774000229,104.99847774000229,106.2701600319997,r,1.0,1.2618106200025068,,106.27106322899635,106.28687929800073,107.2779636339983,,,,,,,,,,,,,,,,,,,,sub-142,1,stroop_test,52.47564480818178,
,,,,10.0,10.0,0.0,,,,,rot,red,r,1.0,r,1.0,0.5674660959994071,,,,,,,,,,,,,,0.0,10.0,10.0,1.0,,,,,107.291559639998,,,,,,,,,,,,,,,,,107.27934114399976,107.62415033399884,108.43047955699876,108.41736794300232,,,,,,,,,,,,,,,,108.41865844900168,108.43047955699876,108.43047955699876,109.01493763300095,r,1.0,0.5674660959994071,,109.01574564600014,109.0310848809968,110.0256403339954,,,,,,,,,,,,,,,,,,,,sub-142,1,stroop_test,52.47564480818178,
,,,,11.0,11.0,0.0,,,,,blau,yellow,g,0.0,g,1.0,1.1097808470003656,,,,,,,,,,,,,,0.0,11.0,11.0,7.0,,,,,110.04060925299564,,,,,,,,,,,,,,,,,110.027143264997,110.81275723200088,111.6257687479956,111.6076736879986,,,,,,,,,,,,,,,,111.6139659190012,111.6257687479956,111.6257687479956,112.74290287299664,g,1.0,1.1097808470003656,,112.74357523099752,112.75960420799674,113.75185268499628,,,,,,,,,,,,,,,,,,,,sub-142,1,stroop_test,52.47564480818178,
,,,,12.0,0.0,1.0,,,,,gelb,yellow,g,1.0,g,1.0,0.6200039809991722,,,,,,,,,,,,,,1.0,0.0,12.0,10.0,,,,,113.76506858300128,,,,,,,,,,,,,,,,,113.75300888100172,114.94179279499804,115.74436279499788,115.72733133399744,,,,,,,,,,,,,,,,115.732395979001,115.74436279499788,115.74436279499788,116.37323958599882,g,1.0,0.6200039809991722,,116.37393221099774,116.38862014700136,117.38116145999813,,,,,,,,,,,,,,,,,,,,sub-142,1,stroop_test,52.47564480818178,
,,,,13.0,1.0,1.0,,,,,rot,red,r,1.0,r,1.0,0.8828859950008336,,,,,,,,,,,,,,1.0,1.0,13.0,1.0,,,,,117.39402606400108,,,,,,,,,,,,,,,,,117.38226704100089,117.47670078599911,118.2799002669999,118.26519011799974,,,,,,,,,,,,,,,,118.26832108099916,118.2799002669999,118.2799002669999,119.17121254799711,r,1.0,0.8828859950008336,,119.17201825600203,119.18939022399718,120.17732239399628,,,,,,,,,,,,,,,,,,,,sub-142,1,stroop_test,52.47564480818178,
,,,,14.0,2.0,1.0,,,,,gelb,yellow,g,1.0,g,1.0,0.9660099579996312,,,,,,,,,,,,,,1.0,2.0,14.0,11.0,,,,,120.1917040949993,,,,,,,,,,,,,,,,,120.17889799900148,120.27494748000026,121.0796693070006,121.06439747999684,,,,,,,,,,,,,,,,121.06750137399648,121.0796693070006,121.0796693070006,122.0601260780022,g,1.0,0.9660099579996312,,122.06109711799944,122.07760389900068,123.06761469699995,,,,,,,,,,,,,,,,,,,,sub-142,1,stroop_test,52.47564480818178,
,,,,15.0,3.0,1.0,,,,,rot,blue,b,0.0,b,1.0,1.4434952149968012,,,,,,,,,,,,,,1.0,3.0,15.0,2.0,,,,,123.08057940199797,,,,,,,,,,,,,,,,,123.06869914400158,123.86015937999764,124.6750330989962,124.6576693179959,,,,,,,,,,,,,,,,124.66343967500144,124.6750330989962,124.6750330989962,126.12547593699855,b,1.0,1.4434952149968012,,126.12635883299664,126.14277897199644,127.12979921400256,,,,,,,,,,,,,,,,,,,,sub-142,1,stroop_test,52.47564480818178,
,,,,16.0,4.0,1.0,,,,,gelb,blue,b,0.0,b,1.0,1.264988918999734,,,,,,,,,,,,,,1.0,4.0,16.0,9.0,,,,,127.1431795440003,,,,,,,,,,,,,,,,,127.13081672499538,127.9288074569995,128.74379892899742,128.72653001499566,,,,,,,,,,,,,,,,128.7318842329987,128.74379892899742,128.74379892899742,130.01359799099737,b,1.0,1.264988918999734,,130.0144888399955,130.03017907199683,131.0238851929971,,,,,,,,,,,,,,,,,,,,sub-142,1,stroop_test,52.47564480818178,
,,,,17.0,5.0,1.0,,,,,rot,yellow,g,0.0,g,1.0,0.8141986900009215,,,,,,,,,,,,,,1.0,5.0,17.0,3.0,,,,,131.03494192400103,,,,,,,,,,,,,,,,,131.02426336299686,131.8332528960018,132.63481312899967,132.6196103819966,,,,,,,,,,,,,,,,132.62251068800106,132.63481312899967,132.63481312899967,133.45704628800013,g,1.0,0.8141986900009215,,133.45777111999632,133.47459854000044,134.47055404700222,,,,,,,,,,,,,,,,,,,,sub-142,1,stroop_test,52.47564480818178,
,,,,18.0,6.0,1.0,,,,,blau,red,r,0.0,r,1.0,1.0835939229946234,,,,,,,,,,,,,,1.0,6.0,18.0,4.0,,,,,134.48531300300235,,,,,,,,,,,,,,,,,134.47093282599965,134.8043953699962,135.61740280999948,135.60081234000245,,,,,,,,,,,,,,,,135.60506250199978,135.61740280999948,135.61740280999948,136.716777499998,r,1.0,1.0835939229946234,,136.71761575099663,136.73266134499863,137.7243937489984,,,,,,,,,,,,,,,,,,,,sub-142,1,stroop_test,52.47564480818178,
,,,,19.0,7.0,1.0,,,,,blau,blue,b,1.0,b,1.0,2.1284755150045385,,,,,,,,,,,,,,1.0,7.0,19.0,6.0,,,,,137.73941331199603,,,,,,,,,,,,,,,,,137.7255218959981,138.07300406199647,138.87702882199665,138.86350137599948,,,,,,,,,,,,,,,,138.86472334899736,138.87702882199665,138.87702882199665,141.02598582599603,b,1.0,2.1284755150045385,,141.02672401499876,141.0400653359975,142.02922546199989,,,,,,,,,,,,,,,,,,,,sub-142,1,stroop_test,52.47564480818178,
,,,,20.0,8.0,1.0,,,,,blau,yellow,g,0.0,g,1.0,1.0602782380010467,,,,,,,,,,,,,,1.0,8.0,20.0,7.0,,,,,142.04437105800025,,,,,,,,,,,,,,,,,142.03068242000154,142.13489154399576,142.93674813099642,142.9213796740005,,,,,,,,,,,,,,,,142.92193939199933,142.93674813099642,142.93674813099642,144.0138273670018,g,1.0,1.0602782380010467,,144.01482757800113,144.0300135590005,145.01777301399852,,,,,,,,,,,,,,,,,,,,sub-142,1,stroop_test,52.47564480818178,
,,,,21.0,9.0,1.0,,,,,gelb,red,r,0.0,r,1.0,1.1316850059956778,,,,,,,,,,,,,,1.0,9.0,21.0,8.0,,,,,145.03324974599673,,,,,,,,,,,,,,,,,145.01816271500138,145.36324117799813,146.1762630230005,146.15856501099915,,,,,,,,,,,,,,,,146.1645567270025,146.1762630230005,146.1762630230005,147.317554371999,r,1.0,1.1316850059956778,,147.31840750399715,147.33514796500094,148.3195485010001,,,,,,,,,,,,,,,,,,,,sub-142,1,stroop_test,52.47564480818178,
,,,,22.0,10.0,1.0,,,,,blau,blue,b,1.0,b,1.0,0.8462561299966183,,,,,,,,,,,,,,1.0,10.0,22.0,5.0,,,,,148.33448159699765,,,,,,,,,,,,,,,,,148.31992802400055,148.6662462259992,149.47572012300225,149.45895005700004,,,,,,,,,,,,,,,,149.46399901199766,149.47572012300225,149.47572012300225,150.3403365319973,b,1.0,0.8462561299966183,,150.34090085900243,150.35394464399724,151.3398407919958,151.35372969500168,,,,,,,,,,,,,,,,,,,sub-142,1,stroop_test,52.47564480818178,
,,,,23.0,11.0,1.0,,,,,rot,red,r,1.0,r,1.0,0.808991269004764,,,,,,,,,,,,,,1.0,11.0,23.0,0.0,,,,,151.35372969500168,,,,,,,,,,,,,,,,,151.34017921600025,152.14974082700064,152.9597189970009,152.9431926679972,,,,,,,,,,,,,,,,152.94781120600237,152.9597189970009,152.9597189970009,153.78534571899945,r,1.0,0.808991269004764,,153.78593788099533,153.8004155939998,154.7871781579961,154.8018086660013,,,,,,,,,,,,,,,,,,,sub-142,1,stroop_test,52.47564480818178,
,,,,,,,,,,,,,,,,,,,,,,,,,,,,,,,,,,,,,,,,,,,,,,,,,,,,,,,,,,,,,,,,,,,,,,,,,,,,,,,,,,,,,,,154.78759983099735,154.8018086660013,154.8018086660013,157.34732550600165,space,2.541105078998953,,,,,,,,,,,,,sub-142,1,stroop_test,52.47564480818178,
,,,,0.0,0.0,0.0,,,,,,,,,,,,,blau,blue,b,1.0,b,1.0,0.8895005239974125,,,,,,,,,,0.0,0.0,0.0,6.0,157.37544267799967,,,,,,,,,,,,,,,,,157.36311923099856,158.149693389998,158.9625794099993,158.94647622599587,,,,,,,,,,,,,,,,,,,,,,,,,,,,,,,,,,,158.9504944099972,158.9625794099993,158.9625794099993,159.86704573599854,b,1.0,0.8895005239974125,,,,,sub-142,1,stroop_test,52.47564480818178,
,,,,1.0,1.0,0.0,,,,,,,,,,,,,rot,red,r,1.0,r,1.0,0.8420028079999611,,,,,,,,,,0.0,1.0,1.0,1.0,159.88386242799606,,,,,,,,,,,,,,,,,159.86766058699868,159.9677548940017,160.7756566780008,160.75713793600153,,,,,,,,,,,,,,,,,,,,,,,,,,,,,,,,,,,160.76429793900024,160.7756566780008,160.7756566780008,161.633449242996,r,1.0,0.8420028079999611,,,,,sub-142,1,stroop_test,52.47564480818178,
,,,,2.0,2.0,0.0,,,,,,,,,,,,,rot,blue,b,0.0,b,1.0,0.9647885539961862,,,,,,,,,,0.0,2.0,2.0,2.0,161.64668089000045,,,,,,,,,,,,,,,,,161.63386760599678,161.7351856919995,162.5384523649991,162.5238640280004,,,,,,,,,,,,,,,,,,,,,,,,,,,,,,,,,,,162.5246379109958,162.5384523649991,162.5384523649991,163.51870290599618,b,1.0,0.9647885539961862,,,,,sub-142,1,stroop_test,52.47564480818178,
,,,,3.0,3.0,0.0,,,,,,,,,,,,,rot,red,r,1.0,r,1.0,0.6285186269960832,,,,,,,,,,0.0,3.0,3.0,0.0,163.53310503299872,,,,,,,,,,,,,,,,,163.5193472960018,164.71819230500114,165.52243656000064,165.5067613689971,,,,,,,,,,,,,,,,,,,,,,,,,,,,,,,,,,,165.50729179699556,165.52243656000064,165.52243656000064,166.156831717999,r,1.0,0.6285186269960832,,,,,sub-142,1,stroop_test,52.47564480818178,
,,,,4.0,4.0,0.0,,,,,,,,,,,,,gelb,yellow,g,1.0,g,1.0,0.6125795150001068,,,,,,,,,,0.0,4.0,4.0,11.0,166.1731365730011,,,,,,,,,,,,,,,,,166.15725532299984,166.51623336399643,167.32438701499632,167.30739217899827,,,,,,,,,,,,,,,,,,,,,,,,,,,,,,,,,,,167.3126589789972,167.32438701499632,167.32438701499632,167.95410832500056,g,1.0,0.6125795150001068,,,,,sub-142,1,stroop_test,52.47564480818178,
,,,,5.0,5.0,0.0,,,,,,,,,,,,,gelb,yellow,g,1.0,g,1.0,0.6156058320048032,,,,,,,,,,0.0,5.0,5.0,10.0,167.97116064399597,,,,,,,,,,,,,,,,,167.95451160299854,168.05638855299912,168.85615526299807,168.84243568300008,,,,,,,,,,,,,,,,,,,,,,,,,,,,,,,,,,,168.84316558099815,168.85615526299807,168.85615526299807,169.48267428299732,g,1.0,0.6156058320048032,,,,,sub-142,1,stroop_test,52.47564480818178,
,,,,6.0,6.0,0.0,,,,,,,,,,,,,blau,red,r,0.0,r,1.0,0.9330602510017344,,,,,,,,,,0.0,6.0,6.0,4.0,169.4992880819991,,,,,,,,,,,,,,,,,169.48307558899978,170.6993973360004,171.5088545280014,171.49252851199708,,,,,,,,,,,,,,,,,,,,,,,,,,,,,,,,,,,171.49732829799905,171.5088545280014,171.5088545280014,172.45858173399756,r,1.0,0.9330602510017344,,,,,sub-142,1,stroop_test,52.47564480818178,
,,,,7.0,7.0,0.0,,,,,,,,,,,,,gelb,blue,b,0.0,b,1.0,0.7600914950016886,,,,,,,,,,0.0,7.0,7.0,9.0,172.4747315919958,,,,,,,,,,,,,,,,,172.4592097279965,172.55692116799764,173.36148457799572,173.346995959997,,,,,,,,,,,,,,,,,,,,,,,,,,,,,,,,,,,173.35005335899768,173.36148457799572,173.36148457799572,174.12594463399728,b,1.0,0.7600914950016886,,,,,sub-142,1,stroop_test,52.47564480818178,
,,,,8.0,8.0,0.0,,,,,,,,,,,,,rot,yellow,g,0.0,g,1.0,0.5041673820014694,,,,,,,,,,0.0,8.0,8.0,3.0,174.14089996199618,,,,,,,,,,,,,,,,,174.12657663400023,175.32670470800076,176.12800093500118,176.11313611399964,,,,,,,,,,,,,,,,,,,,,,,,,,,,,,,,,,,176.11652891300037,176.12800093500118,176.12800093500118,176.647556883996,g,1.0,0.5041673820014694,,,,,sub-142,1,stroop_test,52.47564480818178,
,,,,9.0,9.0,0.0,,,,,,,,,,,,,blau,blue,b,1.0,b,1.0,0.6199875320016872,,,,,,,,,,0.0,9.0,9.0,5.0,176.66027131499868,,,,,,,,,,,,,,,,,176.6479786389973,177.85492846200214,178.66558373600128,178.64808806400106,,,,,,,,,,,,,,,,,,,,,,,,,,,,,,,,,,,178.65302705799695,178.66558373600128,178.66558373600128,179.3002151260007,b,1.0,0.6199875320016872,,,,,sub-142,1,stroop_test,52.47564480818178,
,,,,10.0,10.0,0.0,,,,,,,,,,,,,gelb,red,r,0.0,r,1.0,0.8523881629953394,,,,,,,,,,0.0,10.0,10.0,8.0,179.3136524079964,,,,,,,,,,,,,,,,,179.30063192099624,179.65150039299624,180.4642244130009,180.4350638600008,,,,,,,,,,,,,,,,,,,,,,,,,,,,,,,,,,,180.43891286200235,180.4642244130009,180.4642244130009,181.32334003000145,r,1.0,0.8523881629953394,,,,,sub-142,1,stroop_test,52.47564480818178,
,,,,11.0,11.0,0.0,,,,,,,,,,,,,blau,yellow,g,0.0,g,1.0,0.5080475940048927,,,,,,,,,,0.0,11.0,11.0,7.0,181.3367437639972,,,,,,,,,,,,,,,,,181.32384728099717,182.1257255870005,182.93817640099587,182.9209063870003,,,,,,,,,,,,,,,,,,,,,,,,,,,,,,,,,,,182.9245296719964,182.93817640099587,182.93817640099587,183.45010540400108,g,1.0,0.5080475940048927,,,,,sub-142,1,stroop_test,52.47564480818178,
,,,,12.0,0.0,1.0,,,,,,,,,,,,,blau,blue,b,1.0,b,1.0,0.4434805970013258,,,,,,,,,,1.0,0.0,12.0,5.0,183.46320642499632,,,,,,,,,,,,,,,,,183.45053636300145,183.80527274699853,184.61266651999904,184.5996749059996,,,,,,,,,,,,,,,,,,,,,,,,,,,,,,,,,,,184.6009003229992,184.61266651999904,184.61266651999904,185.0692335409985,b,1.0,0.4434805970013258,,,,,sub-142,1,stroop_test,52.47564480818178,
,,,,13.0,1.0,1.0,,,,,,,,,,,,,rot,yellow,g,0.0,g,1.0,0.721826498003793,,,,,,,,,,1.0,1.0,13.0,3.0,185.08281220299975,,,,,,,,,,,,,,,,,185.0696657910012,185.4232896829999,186.2252863039976,186.2087353589959,,,,,,,,,,,,,,,,,,,,,,,,,,,,,,,,,,,186.21377983300044,186.2252863039976,186.2252863039976,186.95388554300007,g,1.0,0.721826498003793,,,,,sub-142,1,stroop_test,52.47564480818178,
,,,,14.0,2.0,1.0,,,,,,,,,,,,,blau,yellow,g,0.0,g,1.0,0.6847544420015765,,,,,,,,,,1.0,2.0,14.0,7.0,186.968057924998,,,,,,,,,,,,,,,,,186.9543021240024,187.30611811999552,188.10664550799996,188.08979993400132,,,,,,,,,,,,,,,,,,,,,,,,,,,,,,,,,,,188.0946074390013,188.10664550799996,188.10664550799996,188.79639222499827,g,1.0,0.6847544420015765,,,,,sub-142,1,stroop_test,52.47564480818178,
,,,,15.0,3.0,1.0,,,,,,,,,,,,,blau,red,r,0.0,r,1.0,0.7246216920029838,,,,,,,,,,1.0,3.0,15.0,4.0,188.80932111499715,,,,,,,,,,,,,,,,,188.79681668899863,188.90623171100012,189.70597345400165,189.6924060980018,,,,,,,,,,,,,,,,,,,,,,,,,,,,,,,,,,,189.69307986000055,189.70597345400165,189.70597345400165,190.44228679099612,r,1.0,0.7246216920029838,,,,,sub-142,1,stroop_test,52.47564480818178,
,,,,16.0,4.0,1.0,,,,,,,,,,,,,rot,red,r,1.0,r,1.0,0.5000370060006389,,,,,,,,,,1.0,4.0,16.0,1.0,190.45665042100157,,,,,,,,,,,,,,,,,190.44274218200007,190.56636019000143,191.3805613250006,191.35245453300013,,,,,,,,,,,,,,,,,,,,,,,,,,,,,,,,,,,191.3556303919977,191.3805613250006,191.3805613250006,191.8855224910003,r,1.0,0.5000370060006389,,,,,sub-142,1,stroop_test,52.47564480818178,
,,,,17.0,5.0,1.0,,,,,,,,,,,,,gelb,yellow,g,1.0,g,1.0,0.6545177389998571,,,,,,,,,,1.0,5.0,17.0,10.0,191.89866911900023,,,,,,,,,,,,,,,,,191.8859423760005,191.99656661300105,192.80427600099935,192.787439724998,,,,,,,,,,,,,,,,,,,,,,,,,,,,,,,,,,,192.79104053999615,192.80427600099935,192.80427600099935,193.46394233500175,g,1.0,0.6545177389998571,,,,,sub-142,1,stroop_test,52.47564480818178,
,,,,18.0,6.0,1.0,,,,,,,,,,,,,blau,blue,b,1.0,b,1.0,0.6710694880021038,,,,,,,,,,1.0,6.0,18.0,6.0,193.47906255199632,,,,,,,,,,,,,,,,,193.46469462399543,193.81719230599992,194.62587675899704,194.6095375939985,,,,,,,,,,,,,,,,,,,,,,,,,,,,,,,,,,,194.61443906099885,194.62587675899704,194.62587675899704,195.30325067500235,b,1.0,0.6710694880021038,,,,,sub-142,1,stroop_test,52.47564480818178,
,,,,19.0,7.0,1.0,,,,,,,,,,,,,rot,blue,b,0.0,b,1.0,0.5387082559973351,,,,,,,,,,1.0,7.0,19.0,2.0,195.317344365998,,,,,,,,,,,,,,,,,195.30378015500173,195.6555331490017,196.4653108689963,196.4498706379964,,,,,,,,,,,,,,,,,,,,,,,,,,,,,,,,,,,196.4533912580009,196.4653108689963,196.4653108689963,197.0100973669978,b,1.0,0.5387082559973351,,,,,sub-142,1,stroop_test,52.47564480818178,
,,,,20.0,8.0,1.0,,,,,,,,,,,,,gelb,red,r,0.0,r,1.0,0.6558425589973922,,,,,,,,,,1.0,8.0,20.0,8.0,197.0267871390024,,,,,,,,,,,,,,,,,197.0112124430016,197.8100142990006,198.61505724499875,198.59997699200176,,,,,,,,,,,,,,,,,,,,,,,,,,,,,,,,,,,198.60314732199916,198.61505724499875,198.61505724499875,199.2854369630004,r,1.0,0.6558425589973922,,,,,sub-142,1,stroop_test,52.47564480818178,
,,,,21.0,9.0,1.0,,,,,,,,,,,,,gelb,blue,b,0.0,b,1.0,0.7318811179939075,,,,,,,,,,1.0,9.0,21.0,9.0,199.29860122100217,,,,,,,,,,,,,,,,,199.28586118500243,199.6407348099965,200.4420642080004,200.4294273619962,,,,,,,,,,,,,,,,,,,,,,,,,,,,,,,,,,,200.43066756900225,200.4420642080004,200.4420642080004,201.1830467569962,b,1.0,0.7318811179939075,,,,,sub-142,1,stroop_test,52.47564480818178,
,,,,22.0,10.0,1.0,,,,,,,,,,,,,gelb,yellow,g,1.0,g,1.0,1.122136239995598,,,,,,,,,,1.0,10.0,22.0,11.0,201.19909852599807,,,,,,,,,,,,,,,,,201.18346305700103,201.2839662260012,202.09688473700223,202.08183283999824,,,,,,,,,,,,,,,,,,,,,,,,,,,,,,,,,,,202.08349456999716,202.09688473700223,202.09688473700223,203.2349646119983,g,1.0,1.122136239995598,,,,,sub-142,1,stroop_test,52.47564480818178,
,,,,23.0,11.0,1.0,,,,,,,,,,,,,rot,red,r,1.0,r,1.0,0.6746355340001173,,,,,,,,,,1.0,11.0,23.0,0.0,203.24817336600245,,,,,,,,,,,,,,,,,203.23538485600147,204.43882616300107,205.25319072300044,205.23528374899612,,,,,,,,,,,,,,,,,,,,,,,,,,,,,,,,,,,205.23826039199776,205.25319072300044,205.25319072300044,205.94163385299908,r,1.0,0.6746355340001173,,,,,sub-142,1,stroop_test,52.47564480818178,
,,,,24.0,0.0,2.0,,,,,,,,,,,,,rot,yellow,g,0.0,g,1.0,0.6677868629994919,,,,,,,,,,2.0,0.0,24.0,3.0,205.9560607919993,,,,,,,,,,,,,,,,,205.9420563099993,206.745179339996,207.55115079399548,207.5347166099964,,,,,,,,,,,,,,,,,,,,,,,,,,,,,,,,,,,207.5352944959959,207.55115079399548,207.55115079399548,208.225271784002,g,1.0,0.6677868629994919,,,,,sub-142,1,stroop_test,52.47564480818178,
,,,,25.0,1.0,2.0,,,,,,,,,,,,,blau,blue,b,1.0,b,1.0,0.8666927210069844,,,,,,,,,,2.0,1.0,25.0,6.0,208.23941178600217,,,,,,,,,,,,,,,,,208.22585786000127,209.43505649299917,210.2385498069998,210.22177701399775,,,,,,,,,,,,,,,,,,,,,,,,,,,,,,,,,,,210.2250743740005,210.2385498069998,210.2385498069998,211.109548538996,b,1.0,0.8666927210069844,,,,,sub-142,1,stroop_test,52.47564480818178,
,,,,26.0,2.0,2.0,,,,,,,,,,,,,rot,red,r,1.0,r,1.0,0.7046259409980848,,,,,,,,,,2.0,2.0,26.0,1.0,211.12647642999943,,,,,,,,,,,,,,,,,211.1102103230005,211.9322459429968,212.7486287209977,212.73291694599905,,,,,,,,,,,,,,,,,,,,,,,,,,,,,,,,,,,212.73643246600116,212.7486287209977,212.7486287209977,213.45933617300037,r,1.0,0.7046259409980848,,,,,sub-142,1,stroop_test,52.47564480818178,
,,,,27.0,3.0,2.0,,,,,,,,,,,,,gelb,yellow,g,1.0,g,1.0,0.7443100599994068,,,,,,,,,,2.0,3.0,27.0,10.0,213.47590326299544,,,,,,,,,,,,,,,,,213.460345968997,213.5564864869957,214.3639845889993,214.34788129099616,,,,,,,,,,,,,,,,,,,,,,,,,,,,,,,,,,,214.35181029100204,214.3639845889993,214.3639845889993,215.1150831909981,g,1.0,0.7443100599994068,,,,,sub-142,1,stroop_test,52.47564480818178,
,,,,28.0,4.0,2.0,,,,,,,,,,,,,gelb,red,r,0.0,r,1.0,0.7640129860010347,,,,,,,,,,2.0,4.0,28.0,8.0,215.129399833997,,,,,,,,,,,,,,,,,215.11571058299887,216.3293885009989,217.1343840269983,217.1183417209977,,,,,,,,,,,,,,,,,,,,,,,,,,,,,,,,,,,217.118854964996,217.1343840269983,217.1343840269983,217.9134171639962,r,1.0,0.7640129860010347,,,,,sub-142,1,stroop_test,52.47564480818178,
,,,,29.0,5.0,2.0,,,,,,,,,,,,,rot,blue,b,0.0,b,1.0,0.7337847810049425,,,,,,,,,,2.0,5.0,29.0,2.0,217.92738661300243,,,,,,,,,,,,,,,,,217.91403065199847,218.2821162699984,219.0894305580005,219.07248098799755,,,,,,,,,,,,,,,,,,,,,,,,,,,,,,,,,,,219.0772827510009,219.0894305580005,219.0894305580005,219.8281039579961,b,1.0,0.7337847810049425,,,,,sub-142,1,stroop_test,52.47564480818178,
,,,,30.0,6.0,2.0,,,,,,,,,,,,,blau,yellow,g,0.0,g,1.0,1.4094587090003188,,,,,,,,,,2.0,6.0,30.0,7.0,219.8415984769963,,,,,,,,,,,,,,,,,219.82886572599816,220.18664964100023,220.9899365539968,220.97314087700212,,,,,,,,,,,,,,,,,,,,,,,,,,,,,,,,,,,220.97809707499985,220.9899365539968,220.9899365539968,222.416378670001,g,1.0,1.4094587090003188,,,,,sub-142,1,stroop_test,52.47564480818178,
,,,,31.0,7.0,2.0,,,,,,,,,,,,,rot,red,r,1.0,r,1.0,0.6917334020035923,,,,,,,,,,2.0,7.0,31.0,0.0,222.4327442979993,,,,,,,,,,,,,,,,,222.41682472899996,223.6319453479955,224.43628644899584,224.41963665199728,,,,,,,,,,,,,,,,,,,,,,,,,,,,,,,,,,,224.42252851199737,224.43628644899584,224.43628644899584,225.1425987620023,r,1.0,0.6917334020035923,,,,,sub-142,1,stroop_test,52.47564480818178,
,,,,32.0,8.0,2.0,,,,,,,,,,,,,gelb,blue,b,0.0,b,1.0,0.6859813150003902,,,,,,,,,,2.0,8.0,32.0,9.0,225.1573460590007,,,,,,,,,,,,,,,,,225.1433094189997,225.51539876600145,226.32599966999987,226.3095539709975,,,,,,,,,,,,,,,,,,,,,,,,,,,,,,,,,,,226.31410848900123,226.32599966999987,226.32599966999987,227.0166311339999,b,1.0,0.6859813150003902,,,,,sub-142,1,stroop_test,52.47564480818178,
,,,,33.0,9.0,2.0,,,,,,,,,,,,,blau,red,r,0.0,r,1.0,0.7190330000012182,,,,,,,,,,2.0,9.0,33.0,4.0,227.0312891689973,,,,,,,,,,,,,,,,,227.0171156110009,228.214611094998,229.0269870369957,229.00844620099812,,,,,,,,,,,,,,,,,,,,,,,,,,,,,,,,,,,229.01405153000087,229.0269870369957,229.0269870369957,229.75298288899648,r,1.0,0.7190330000012182,,,,,sub-142,1,stroop_test,52.47564480818178,
,,,,34.0,10.0,2.0,,,,,,,,,,,,,gelb,yellow,g,1.0,g,1.0,0.7150714059971506,,,,,,,,,,2.0,10.0,34.0,11.0,229.7671944030008,,,,,,,,,,,,,,,,,229.7534133239969,230.55571273100213,231.3655034389958,231.34740768300253,,,,,,,,,,,,,,,,,,,,,,,,,,,,,,,,,,,231.3504745399987,231.3655034389958,231.3655034389958,232.09962081399863,g,1.0,0.7150714059971506,,,,,sub-142,1,stroop_test,52.47564480818178,
,,,,35.0,11.0,2.0,,,,,,,,,,,,,blau,blue,b,1.0,b,1.0,0.9766181599989068,,,,,,,,,,2.0,11.0,35.0,5.0,232.11033855899584,,,,,,,,,,,,,,,,,232.1000906209956,233.30001595499925,234.10135406399783,234.08560196500184,,,,,,,,,,,,,,,,,,,,,,,,,,,,,,,,,,,234.08966038499784,234.10135406399783,234.10135406399783,235.0927828470012,b,1.0,0.9766181599989068,,,,,sub-142,1,stroop_test,52.47564480818178,
,,,,36.0,0.0,3.0,,,,,,,,,,,,,rot,yellow,g,0.0,g,1.0,1.1590945979987737,,,,,,,,,,3.0,0.0,36.0,3.0,235.10709565499565,,,,,,,,,,,,,,,,,235.0939674170004,235.89255001499987,236.70518008399813,236.68779600199923,,,,,,,,,,,,,,,,,,,,,,,,,,,,,,,,,,,236.6916445410025,236.70518008399813,236.70518008399813,237.8681272859976,g,1.0,1.1590945979987737,,,,,sub-142,1,stroop_test,52.47564480818178,
,,,,37.0,1.0,3.0,,,,,,,,,,,,,gelb,red,r,0.0,r,1.0,0.6870818059978774,,,,,,,,,,3.0,1.0,37.0,8.0,237.8830043429989,,,,,,,,,,,,,,,,,237.8686877649961,238.22664149299817,239.0347303279996,239.01747704800076,,,,,,,,,,,,,,,,,,,,,,,,,,,,,,,,,,,239.022056445996,239.0347303279996,239.0347303279996,239.7277767630003,r,1.0,0.6870818059978774,,,,,sub-142,1,stroop_test,52.47564480818178,
,,,,38.0,2.0,3.0,,,,,,,,,,,,,blau,blue,b,1.0,b,1.0,0.657618689998344,,,,,,,,,,3.0,2.0,38.0,6.0,239.7412982859969,,,,,,,,,,,,,,,,,239.7285940779984,239.8395672780025,240.64154294599572,240.6236996860025,,,,,,,,,,,,,,,,,,,,,,,,,,,,,,,,,,,240.6295220019965,240.64154294599572,240.64154294599572,241.3160817320022,b,1.0,0.657618689998344,,,,,sub-142,1,stroop_test,52.47564480818178,
,,,,39.0,3.0,3.0,,,,,,,,,,,,,gelb,blue,b,0.0,b,1.0,1.146043507993454,,,,,,,,,,3.0,3.0,39.0,9.0,241.3333898339988,,,,,,,,,,,,,,,,,241.31653395100147,242.1301229849996,242.94312848999837,242.9268123149959,,,,,,,,,,,,,,,,,,,,,,,,,,,,,,,,,,,242.93153535199963,242.94312848999837,242.94312848999837,244.10317937299988,b,1.0,1.146043507993454,,,,,sub-142,1,stroop_test,52.47564480818178,
,,,,40.0,4.0,3.0,,,,,,,,,,,,,rot,red,r,1.0,r,1.0,0.7483325719949789,,,,,,,,,,3.0,4.0,40.0,0.0,244.11720734999835,,,,,,,,,,,,,,,,,244.1036171559972,245.30937504999747,246.1141689579963,246.09918125900003,,,,,,,,,,,,,,,,,,,,,,,,,,,,,,,,,,,246.10226775699996,246.1141689579963,246.1141689579963,246.8744968640021,r,1.0,0.7483325719949789,,,,,sub-142,1,stroop_test,52.47564480818178,
,,,,41.0,5.0,3.0,,,,,,,,,,,,,gelb,yellow,g,1.0,g,1.0,0.5968512989929877,,,,,,,,,,3.0,5.0,41.0,10.0,246.88901236999664,,,,,,,,,,,,,,,,,246.8750566439994,247.22245590799864,248.02738160399892,248.0114462509955,,,,,,,,,,,,,,,,,,,,,,,,,,,,,,,,,,,248.01570731399988,248.02738160399892,248.02738160399892,248.63207576199784,g,1.0,0.5968512989929877,,,,,sub-142,1,stroop_test,52.47564480818178,
,,,,42.0,6.0,3.0,,,,,,,,,,,,,rot,red,r,1.0,r,1.0,0.8764735660006409,,,,,,,,,,3.0,6.0,42.0,1.0,248.645356463996,,,,,,,,,,,,,,,,,248.63259910699708,249.8334464340005,250.6477855429985,250.62846563600036,,,,,,,,,,,,,,,,,,,,,,,,,,,,,,,,,,,250.6338283849982,250.6477855429985,250.6477855429985,251.539283428996,r,1.0,0.8764735660006409,,,,,sub-142,1,stroop_test,52.47564480818178,
,,,,43.0,7.0,3.0,,,,,,,,,,,,,blau,yellow,g,0.0,g,1.0,0.8960687219951069,,,,,,,,,,3.0,7.0,43.0,7.0,251.55426696300128,,,,,,,,,,,,,,,,,251.539701103,251.8878992259997,252.697928622998,252.68104797299748,,,,,,,,,,,,,,,,,,,,,,,,,,,,,,,,,,,252.68543044500257,252.697928622998,252.697928622998,253.5992730450016,g,1.0,0.8960687219951069,,,,,sub-142,1,stroop_test,52.47564480818178,
,,,,44.0,8.0,3.0,,,,,,,,,,,,,rot,blue,b,0.0,b,1.0,0.8345536630004062,,,,,,,,,,3.0,8.0,44.0,2.0,253.61585136900248,,,,,,,,,,,,,,,,,253.5996685400023,254.41496386099607,255.23150356300172,255.21383347099615,,,,,,,,,,,,,,,,,,,,,,,,,,,,,,,,,,,255.21670141600043,255.23150356300172,255.23150356300172,256.0799356810021,b,1.0,0.8345536630004062,,,,,sub-142,1,stroop_test,52.47564480818178,
,,,,45.0,9.0,3.0,,,,,,,,,,,,,blau,red,r,0.0,r,1.0,0.8373839990017586,,,,,,,,,,3.0,9.0,45.0,4.0,256.09263262400054,,,,,,,,,,,,,,,,,256.080355514001,256.1860324430017,256.9960363959981,256.97981069499656,,,,,,,,,,,,,,,,,,,,,,,,,,,,,,,,,,,256.98403585900087,256.9960363959981,256.9960363959981,257.84797110699583,r,1.0,0.8373839990017586,,,,,sub-142,1,stroop_test,52.47564480818178,
,,,,46.0,10.0,3.0,,,,,,,,,,,,,blau,blue,b,1.0,b,1.0,0.9310257289980656,,,,,,,,,,3.0,10.0,46.0,5.0,257.8611549749985,,,,,,,,,,,,,,,,,257.84840512799565,258.64247276199603,259.46479860299587,259.4470918250008,,,,,,,,,,,,,,,,,,,,,,,,,,,,,,,,,,,259.4477725889956,259.46479860299587,259.46479860299587,260.4078157449985,b,1.0,0.9310257289980656,,,,,sub-142,1,stroop_test,52.47564480818178,
,,,,47.0,11.0,3.0,,,,,,,,,,,,,gelb,yellow,g,1.0,g,1.0,0.5467736290011089,,,,,,,,,,3.0,11.0,47.0,11.0,260.4238936239999,,,,,,,,,,,,,,,,,260.4084351700003,260.7559326249975,261.557903146997,261.5415053149991,,,,,,,,,,,,,,,,,,,,,,,,,,,,,,,,,,,261.54626750900206,261.557903146997,261.557903146997,262.1156789519955,g,1.0,0.5467736290011089,,,,,sub-142,1,stroop_test,52.47564480818178,
,,,,48.0,0.0,4.0,,,,,,,,,,,,,rot,red,r,1.0,r,1.0,0.9277367410031728,,,,,,,,,,4.0,0.0,48.0,1.0,262.131964123997,,,,,,,,,,,,,,,,,262.11611934399843,263.33146883599693,264.13383598699875,264.1181051859967,,,,,,,,,,,,,,,,,,,,,,,,,,,,,,,,,,,264.12214346900146,264.13383598699875,264.13383598699875,265.0824769870014,r,1.0,0.9277367410031728,,,,,sub-142,1,stroop_test,52.47564480818178,
,,,,49.0,1.0,4.0,,,,,,,,,,,,,gelb,red,r,0.0,r,1.0,1.088964691000001,,,,,,,,,,4.0,1.0,49.0,8.0,265.09293072499713,,,,,,,,,,,,,,,,,265.0829182899979,265.8839390450012,266.6916576789954,266.67538737200084,,,,,,,,,,,,,,,,,,,,,,,,,,,,,,,,,,,266.6801803269991,266.6916576789954,266.6916576789954,267.79621217199747,r,1.0,1.088964691000001,,,,,sub-142,1,stroop_test,52.47564480818178,
,,,,50.0,2.0,4.0,,,,,,,,,,,,,blau,yellow,g,0.0,g,1.0,1.4054791079979625,,,,,,,,,,4.0,2.0,50.0,7.0,267.8089211909973,,,,,,,,,,,,,,,,,267.7966283610004,268.6015584699999,269.40723378999974,269.3907282979999,,,,,,,,,,,,,,,,,,,,,,,,,,,,,,,,,,,269.3958121379983,269.40723378999974,269.40723378999974,270.8190221299956,g,1.0,1.4054791079979625,,,,,sub-142,1,stroop_test,52.47564480818178,
,,,,51.0,3.0,4.0,,,,,,,,,,,,,blau,red,r,0.0,r,1.0,0.8795495720041799,,,,,,,,,,4.0,3.0,51.0,4.0,270.8331974390021,,,,,,,,,,,,,,,,,270.8196391800011,270.9242447409997,271.72517847299605,271.71247076599684,,,,,,,,,,,,,,,,,,,,,,,,,,,,,,,,,,,271.713810649002,271.72517847299605,271.72517847299605,272.61992802500026,r,1.0,0.8795495720041799,,,,,sub-142,1,stroop_test,52.47564480818178,
,,,,52.0,4.0,4.0,,,,,,,,,,,,,gelb,yellow,g,1.0,g,1.0,0.6994667510007275,,,,,,,,,,4.0,4.0,52.0,11.0,272.6335136569978,,,,,,,,,,,,,,,,,272.62061132000235,273.4217672879968,274.2320390940004,274.2108994610025,,,,,,,,,,,,,,,,,,,,,,,,,,,,,,,,,,,274.2181422220019,274.2320390940004,274.2320390940004,274.946658740002,g,1.0,0.6994667510007275,,,,,sub-142,1,stroop_test,52.47564480818178,
,,,,53.0,5.0,4.0,,,,,,,,,,,,,gelb,blue,b,0.0,b,1.0,1.3012736680029775,,,,,,,,,,4.0,5.0,53.0,9.0,274.96071189000213,,,,,,,,,,,,,,,,,274.94707895399915,276.1461202270002,276.9543144470008,276.93990193100035,,,,,,,,,,,,,,,,,,,,,,,,,,,,,,,,,,,276.940515176997,276.9543144470008,276.9543144470008,278.2723323169994,b,1.0,1.3012736680029775,,,,,sub-142,1,stroop_test,52.47564480818178,
,,,,54.0,6.0,4.0,,,,,,,,,,,,,blau,blue,b,1.0,b,1.0,1.0010281770009897,,,,,,,,,,4.0,6.0,54.0,5.0,278.285829501001,,,,,,,,,,,,,,,,,278.2728078099972,279.475577680998,280.28379756100185,280.267445710997,,,,,,,,,,,,,,,,,,,,,,,,,,,,,,,,,,,280.27192072400067,280.28379756100185,280.28379756100185,281.290811015002,b,1.0,1.0010281770009897,,,,,sub-142,1,stroop_test,52.47564480818178,
,,,,55.0,7.0,4.0,,,,,,,,,,,,,rot,yellow,g,0.0,g,1.0,1.2740069439969377,,,,,,,,,,4.0,7.0,55.0,3.0,281.3055724779988,,,,,,,,,,,,,,,,,281.29136081499746,281.4128635219968,282.22941996999725,282.20153257499624,,,,,,,,,,,,,,,,,,,,,,,,,,,,,,,,,,,282.2043455999956,282.22941996999725,282.22941996999725,283.51970780800184,g,1.0,1.2740069439969377,,,,,sub-142,1,stroop_test,52.47564480818178,
,,,,56.0,8.0,4.0,,,,,,,,,,,,,rot,blue,b,0.0,b,1.0,0.6723341879987856,,,,,,,,,,4.0,8.0,56.0,2.0,283.53317384699767,,,,,,,,,,,,,,,,,283.52022170800046,284.32075887000246,285.1230183509979,285.1093590899982,,,,,,,,,,,,,,,,,,,,,,,,,,,,,,,,,,,285.1105914110012,285.1230183509979,285.1230183509979,285.8005970230006,b,1.0,0.6723341879987856,,,,,sub-142,1,stroop_test,52.47564480818178,
,,,,57.0,9.0,4.0,,,,,,,,,,,,,blau,blue,b,1.0,b,1.0,0.795424540003296,,,,,,,,,,4.0,9.0,57.0,6.0,285.8139188519999,,,,,,,,,,,,,,,,,285.80100896899967,285.9127321479973,286.7190131870011,286.7007160909998,,,,,,,,,,,,,,,,,,,,,,,,,,,,,,,,,,,286.7038524669988,286.7190131870011,286.7190131870011,287.5200374519991,b,1.0,0.795424540003296,,,,,sub-142,1,stroop_test,52.47564480818178,
,,,,58.0,10.0,4.0,,,,,,,,,,,,,rot,red,r,1.0,r,1.0,0.8858871049960726,,,,,,,,,,4.0,10.0,58.0,0.0,287.5351658809959,,,,,,,,,,,,,,,,,287.52057704899926,288.33123625400185,289.14793785599613,289.1300396949955,,,,,,,,,,,,,,,,,,,,,,,,,,,,,,,,,,,289.1329474840022,289.14793785599613,289.14793785599613,290.0530713519984,r,1.0,0.8858871049960726,,,,,sub-142,1,stroop_test,52.47564480818178,
,,,,59.0,11.0,4.0,,,,,,,,,,,,,gelb,yellow,g,1.0,g,1.0,0.6699737640010426,,,,,,,,,,4.0,11.0,59.0,10.0,290.0647607339997,,,,,,,,,,,,,,,,,290.05361526199704,290.402092974,291.20881916800136,291.19253841799946,,,,,,,,,,,,,,,,,,,,,,,,,,,,,,,,,,,291.19729161800205,291.20881916800136,291.20881916800136,291.88464156899863,g,1.0,0.6699737640010426,,,,,sub-142,1,stroop_test,52.47564480818178,
,,,,60.0,0.0,5.0,,,,,,,,,,,,,rot,red,r,1.0,r,1.0,0.6590231829977711,,,,,,,,,,5.0,0.0,60.0,1.0,291.897988384997,,,,,,,,,,,,,,,,,291.8850567720001,291.99563104599656,292.8021044540001,292.78379118799785,,,,,,,,,,,,,,,,,,,,,,,,,,,,,,,,,,,292.78694394399645,292.8021044540001,292.8021044540001,293.4670929720014,r,1.0,0.6590231829977711,,,,,sub-142,1,stroop_test,52.47564480818178,
,,,,61.0,1.0,5.0,,,,,,,,,,,,,blau,blue,b,1.0,b,1.0,0.6892724739955156,,,,,,,,,,5.0,1.0,61.0,6.0,293.4818763700023,,,,,,,,,,,,,,,,,293.4677273950001,294.6719965989978,295.4742594679992,295.45550097299565,,,,,,,,,,,,,,,,,,,,,,,,,,,,,,,,,,,295.4613528799964,295.4742594679992,295.4742594679992,296.1719995309977,b,1.0,0.6892724739955156,,,,,sub-142,1,stroop_test,52.47564480818178,
,,,,62.0,2.0,5.0,,,,,,,,,,,,,blau,yellow,g,0.0,g,1.0,0.9178263309950124,,,,,,,,,,5.0,2.0,62.0,7.0,296.18713917199784,,,,,,,,,,,,,,,,,296.1725561380008,296.9769924020002,297.7828871699967,297.770406413998,,,,,,,,,,,,,,,,,,,,,,,,,,,,,,,,,,,297.77094997899985,297.7828871699967,297.7828871699967,298.70817803299724,g,1.0,0.9178263309950124,,,,,sub-142,1,stroop_test,52.47564480818178,
,,,,63.0,3.0,5.0,,,,,,,,,,,,,gelb,red,r,0.0,r,1.0,0.5735052729942254,,,,,,,,,,5.0,3.0,63.0,8.0,298.7244619519988,,,,,,,,,,,,,,,,,298.70867819600244,299.9139519129967,300.72454498700245,300.70708230799937,,,,,,,,,,,,,,,,,,,,,,,,,,,,,,,,,,,300.712554134996,300.72454498700245,300.72454498700245,301.3112174909984,r,1.0,0.5735052729942254,,,,,sub-142,1,stroop_test,52.47564480818178,
,,,,64.0,4.0,5.0,,,,,,,,,,,,,rot,blue,b,0.0,b,1.0,0.8219083129952196,,,,,,,,,,5.0,4.0,64.0,2.0,301.3261507499992,,,,,,,,,,,,,,,,,301.311719436002,302.5190282859985,303.3244917639968,303.3066250589982,,,,,,,,,,,,,,,,,,,,,,,,,,,,,,,,,,,303.3123504319956,303.3244917639968,303.3244917639968,304.15340810600173,b,1.0,0.8219083129952196,,,,,sub-142,1,stroop_test,52.47564480818178,
,,,,65.0,5.0,5.0,,,,,,,,,,,,,gelb,yellow,g,1.0,g,1.0,0.6260254940061714,,,,,,,,,,5.0,5.0,65.0,10.0,304.16908915599925,,,,,,,,,,,,,,,,,304.1538405839965,304.5051214139967,305.3088798789977,305.291995900996,,,,,,,,,,,,,,,,,,,,,,,,,,,,,,,,,,,305.296619130997,305.3088798789977,305.3088798789977,305.9423874119966,g,1.0,0.6260254940061714,,,,,sub-142,1,stroop_test,52.47564480818178,
,,,,66.0,6.0,5.0,,,,,,,,,,,,,rot,yellow,g,0.0,g,1.0,0.5820436450012494,,,,,,,,,,5.0,6.0,66.0,3.0,305.956667915998,,,,,,,,,,,,,,,,,305.94356964100007,306.7392930479982,307.54661679499986,307.5299725149962,,,,,,,,,,,,,,,,,,,,,,,,,,,,,,,,,,,307.53414955899643,307.54661679499986,307.54661679499986,308.13719752999896,g,1.0,0.5820436450012494,,,,,sub-142,1,stroop_test,52.47564480818178,
,,,,67.0,7.0,5.0,,,,,,,,,,,,,blau,red,r,0.0,r,1.0,0.8721912069959217,,,,,,,,,,5.0,7.0,67.0,4.0,308.1537874220012,,,,,,,,,,,,,,,,,308.1376124579984,308.252262369002,309.056972336999,309.03976798799704,,,,,,,,,,,,,,,,,,,,,,,,,,,,,,,,,,,309.04512390700256,309.056972336999,309.056972336999,309.9482561190016,r,1.0,0.8721912069959217,,,,,sub-142,1,stroop_test,52.47564480818178,
,,,,68.0,8.0,5.0,,,,,,,,,,,,,gelb,yellow,g,1.0,g,1.0,0.6136906699975953,,,,,,,,,,5.0,8.0,68.0,11.0,309.9584479240002,,,,,,,,,,,,,,,,,309.94867495099606,311.1506031519966,311.9543759549997,311.9381033059981,,,,,,,,,,,,,,,,,,,,,,,,,,,,,,,,,,,311.9414276940006,311.9543759549997,311.9543759549997,312.5821907270001,g,1.0,0.6136906699975953,,,,,sub-142,1,stroop_test,52.47564480818178,
,,,,69.0,9.0,5.0,,,,,,,,,,,,,gelb,blue,b,0.0,b,1.0,0.7282181859991397,,,,,,,,,,5.0,9.0,69.0,9.0,312.59536628099886,,,,,,,,,,,,,,,,,312.58260865099874,312.9477479950001,313.76269895999576,313.7372387630021,,,,,,,,,,,,,,,,,,,,,,,,,,,,,,,,,,,313.73778396000125,313.76269895999576,313.76269895999576,314.50066734600114,b,1.0,0.7282181859991397,,,,,sub-142,1,stroop_test,52.47564480818178,
,,,,70.0,10.0,5.0,,,,,,,,,,,,,blau,blue,b,1.0,b,1.0,0.6177721900021425,,,,,,,,,,5.0,10.0,70.0,5.0,314.5154602740004,,,,,,,,,,,,,,,,,314.5011030259993,314.86144434599555,315.6661573579986,315.64818161899893,,,,,,,,,,,,,,,,,,,,,,,,,,,,,,,,,,,315.65297447099874,315.6661573579986,315.6661573579986,316.3000788560021,b,1.0,0.6177721900021425,,,,,sub-142,1,stroop_test,52.47564480818178,
,,,,71.0,11.0,5.0,,,,,,,,,,,,,rot,red,r,1.0,r,1.0,0.6082100400017225,,,,,,,,,,5.0,11.0,71.0,0.0,316.3150639410014,,,,,,,,,,,,,,,,,316.3005236570025,317.50445580599626,318.30844405300013,318.2921932589961,,,,,,,,,,,,,,,,,,,,,,,,,,,,,,,,,,,318.29682549699646,318.30844405300013,318.30844405300013,318.9269829869954,r,1.0,0.6082100400017225,,,,,sub-142,1,stroop_test,52.47564480818178,
,,,,72.0,0.0,6.0,,,,,,,,,,,,,gelb,red,r,0.0,r,1.0,0.6436703220024356,,,,,,,,,,6.0,0.0,72.0,8.0,318.94057344299654,,,,,,,,,,,,,,,,,318.9275629370022,320.1282935769996,320.9359893119981,320.91921395700047,,,,,,,,,,,,,,,,,,,,,,,,,,,,,,,,,,,320.9221382579999,320.9359893119981,320.9359893119981,321.59495188300207,r,1.0,0.6436703220024356,,,,,sub-142,1,stroop_test,52.47564480818178,
,,,,73.0,1.0,6.0,,,,,,,,,,,,,gelb,blue,b,0.0,b,1.0,0.605688347000978,,,,,,,,,,6.0,1.0,73.0,9.0,321.6076033319987,,,,,,,,,,,,,,,,,321.5953791829961,322.40400505399884,323.2165874240018,323.2005317469957,,,,,,,,,,,,,,,,,,,,,,,,,,,,,,,,,,,323.20139512400056,323.2165874240018,323.2165874240018,323.83686209000007,b,1.0,0.605688347000978,,,,,sub-142,1,stroop_test,52.47564480818178,
,,,,74.0,2.0,6.0,,,,,,,,,,,,,blau,red,r,0.0,b,0.0,0.828884962000302,,,,,,,,,,6.0,2.0,74.0,4.0,323.8499689539967,,,,,,,,,,,,,,,,,323.8373042969979,324.1933989339959,325.00130014599563,324.984628487,,,,,,,,,,,,,,,,,,,,,,,,,,,,,,,,,,,324.9875449109968,325.00130014599563,325.00130014599563,325.8372087559983,b,0.0,0.828884962000302,,,,,sub-142,1,stroop_test,52.47564480818178,
,,,,75.0,3.0,6.0,,,,,,,,,,,,,gelb,yellow,g,1.0,g,1.0,1.2730785380044836,,,,,,,,,,6.0,3.0,75.0,11.0,325.8504491619969,,,,,,,,,,,,,,,,,325.8376211079958,325.9454232810021,326.7567592569976,326.74043847600115,,,,,,,,,,,,,,,,,,,,,,,,,,,,,,,,,,,326.74517857799947,326.7567592569976,326.7567592569976,328.0452768899995,g,1.0,1.2730785380044836,,,,,sub-142,1,stroop_test,52.47564480818178,
,,,,76.0,4.0,6.0,,,,,,,,,,,,,blau,blue,b,1.0,b,1.0,0.8716701580051449,,,,,,,,,,6.0,4.0,76.0,5.0,328.05817998499697,,,,,,,,,,,,,,,,,328.0456964900004,328.3981446399994,329.21476743499807,329.1984540459962,,,,,,,,,,,,,,,,,,,,,,,,,,,,,,,,,,,329.2026291189977,329.21476743499807,329.21476743499807,330.0904348049953,b,1.0,0.8716701580051449,,,,,sub-142,1,stroop_test,52.47564480818178,
,,,,77.0,5.0,6.0,,,,,,,,,,,,,rot,red,r,1.0,r,1.0,0.9167709419998572,,,,,,,,,,6.0,5.0,77.0,1.0,330.1057230259976,,,,,,,,,,,,,,,,,330.0908959879962,330.1980227909953,330.99952791899705,330.9815486459993,,,,,,,,,,,,,,,,,,,,,,,,,,,,,,,,,,,330.98469881599885,330.99952791899705,330.99952791899705,331.9295379219984,r,1.0,0.9167709419998572,,,,,sub-142,1,stroop_test,52.47564480818178,
,,,,78.0,6.0,6.0,,,,,,,,,,,,,blau,yellow,g,0.0,g,1.0,0.848212868993869,,,,,,,,,,6.0,6.0,78.0,7.0,331.9425733780008,,,,,,,,,,,,,,,,,331.9299517479958,332.2973905159961,333.1075228429981,333.0904803509984,,,,,,,,,,,,,,,,,,,,,,,,,,,,,,,,,,,333.09598809100135,333.1075228429981,333.1075228429981,333.9712211529986,g,1.0,0.848212868993869,,,,,sub-142,1,stroop_test,52.47564480818178,
,,,,79.0,7.0,6.0,,,,,,,,,,,,,gelb,yellow,g,1.0,g,1.0,0.7604191220016219,,,,,,,,,,6.0,7.0,79.0,10.0,333.9849776880001,,,,,,,,,,,,,,,,,333.9717066660014,334.327102614996,335.1396476230002,335.12311185499857,,,,,,,,,,,,,,,,,,,,,,,,,,,,,,,,,,,335.1279015649998,335.1396476230002,335.1396476230002,335.90598457199667,g,1.0,0.7604191220016219,,,,,sub-142,1,stroop_test,52.47564480818178,
,,,,80.0,8.0,6.0,,,,,,,,,,,,,rot,red,r,1.0,r,1.0,0.7195002649968956,,,,,,,,,,6.0,8.0,80.0,0.0,335.9218556889973,,,,,,,,,,,,,,,,,335.90655055800016,336.70546404799825,337.51018047099933,337.4944673229984,,,,,,,,,,,,,,,,,,,,,,,,,,,,,,,,,,,337.4982376970001,337.51018047099933,337.51018047099933,338.2432970289956,r,1.0,0.7195002649968956,,,,,sub-142,1,stroop_test,52.47564480818178,
,,,,81.0,9.0,6.0,,,,,,,,,,,,,rot,blue,b,0.0,b,1.0,0.7181950759986648,,,,,,,,,,6.0,9.0,81.0,2.0,338.2561037199994,,,,,,,,,,,,,,,,,338.24371507199976,339.45222309199744,340.2533153379991,340.237535000997,,,,,,,,,,,,,,,,,,,,,,,,,,,,,,,,,,,340.2380798070008,340.2533153379991,340.2533153379991,340.9852759540008,b,1.0,0.7181950759986648,,,,,sub-142,1,stroop_test,52.47564480818178,
,,,,82.0,10.0,6.0,,,,,,,,,,,,,rot,yellow,g,0.0,g,1.0,1.039281541001401,,,,,,,,,,6.0,10.0,82.0,3.0,341.0015922640014,,,,,,,,,,,,,,,,,340.98567041399656,341.79088578600204,342.5943046319953,342.5817340979993,,,,,,,,,,,,,,,,,,,,,,,,,,,,,,,,,,,342.5823897539958,342.5943046319953,342.5943046319953,343.64898910099873,g,1.0,1.039281541001401,,,,,sub-142,1,stroop_test,52.47564480818178,
,,,,83.0,11.0,6.0,,,,,,,,,,,,,blau,blue,b,1.0,b,1.0,0.7443158609967213,,,,,,,,,,6.0,11.0,83.0,6.0,343.6622779669997,,,,,,,,,,,,,,,,,343.64939777499967,344.8541652929998,345.6565462349972,345.6402495209986,,,,,,,,,,,,,,,,,,,,,,,,,,,,,,,,,,,345.64511587599554,345.6565462349972,345.6565462349972,346.4070170990017,b,1.0,0.7443158609967213,,,,,sub-142,1,stroop_test,52.47564480818178,
,,,,84.0,0.0,7.0,,,,,,,,,,,,,blau,yellow,g,0.0,g,1.0,0.8029391519958153,,,,,,,,,,7.0,0.0,84.0,7.0,346.4231917340003,,,,,,,,,,,,,,,,,346.40747837600065,347.2145930639963,348.0177210990005,348.0040098210011,,,,,,,,,,,,,,,,,,,,,,,,,,,,,,,,,,,348.0045445549986,348.0177210990005,348.0177210990005,348.8281168819958,g,1.0,0.8029391519958153,,,,,sub-142,1,stroop_test,52.47564480818178,
,,,,85.0,1.0,7.0,,,,,,,,,,,,,gelb,blue,b,0.0,b,1.0,1.8678178839982136,,,,,,,,,,7.0,1.0,85.0,9.0,348.84102568499657,,,,,,,,,,,,,,,,,348.8285378159999,349.6317834290021,350.44462974400085,350.4289901719967,,,,,,,,,,,,,,,,,,,,,,,,,,,,,,,,,,,350.4327172880003,350.44462974400085,350.44462974400085,352.3288468199971,b,1.0,1.8678178839982136,,,,,sub-142,1,stroop_test,52.47564480818178,
,,,,86.0,2.0,7.0,,,,,,,,,,,,,rot,blue,b,0.0,g,0.0,0.7874232009999105,,,,,,,,,,7.0,2.0,86.0,2.0,352.3418304969964,,,,,,,,,,,,,,,,,352.32929285499995,353.54524993000086,354.36110315499536,354.3428067009954,,,,,,,,,,,,,,,,,,,,,,,,,,,,,,,,,,,354.34828055399703,354.36110315499536,354.36110315499536,355.1649459179971,g,0.0,0.7874232009999105,,,,,sub-142,1,stroop_test,52.47564480818178,
,,,,87.0,3.0,7.0,,,,,,,,,,,,,rot,red,r,1.0,r,1.0,1.4429345879980249,,,,,,,,,,7.0,3.0,87.0,0.0,355.1817839380019,,,,,,,,,,,,,,,,,355.1655721089992,356.3730920250018,357.1867623790022,357.17115602899867,,,,,,,,,,,,,,,,,,,,,,,,,,,,,,,,,,,357.171662984998,357.1867623790022,357.1867623790022,358.6454401640003,r,1.0,1.4429345879980249,,,,,sub-142,1,stroop_test,52.47564480818178,
,,,,88.0,4.0,7.0,,,,,,,,,,,,,gelb,red,r,0.0,r,1.0,1.4762853610009188,,,,,,,,,,7.0,4.0,88.0,8.0,358.6589038940001,,,,,,,,,,,,,,,,,358.6458577459998,358.7407576629994,359.55406499200035,359.5367947199993,,,,,,,,,,,,,,,,,,,,,,,,,,,,,,,,,,,359.5408536249961,359.55406499200035,359.55406499200035,361.0360313819983,r,1.0,1.4762853610009188,,,,,sub-142,1,stroop_test,52.47564480818178,
,,,,89.0,5.0,7.0,,,,,,,,,,,,,blau,blue,b,1.0,b,1.0,1.0142090240042307,,,,,,,,,,7.0,5.0,89.0,6.0,361.0491540520016,,,,,,,,,,,,,,,,,361.03648521300056,361.1322528710007,361.9396152209956,361.9213597889975,,,,,,,,,,,,,,,,,,,,,,,,,,,,,,,,,,,361.92729685399536,361.9396152209956,361.9396152209956,362.9661550509991,b,1.0,1.0142090240042307,,,,,sub-142,1,stroop_test,52.47564480818178,
,,,,90.0,6.0,7.0,,,,,,,,,,,,,rot,yellow,g,0.0,g,1.0,1.0448707890027435,,,,,,,,,,7.0,6.0,90.0,3.0,362.9829912119967,,,,,,,,,,,,,,,,,362.96660295400216,363.7710193219973,364.5950359339986,364.5670273220021,,,,,,,,,,,,,,,,,,,,,,,,,,,,,,,,,,,364.5699418879958,364.5950359339986,364.5950359339986,365.6534903829961,g,1.0,1.0448707890027435,,,,,sub-142,1,stroop_test,52.47564480818178,
,,,,91.0,7.0,7.0,,,,,,,,,,,,,gelb,yellow,g,1.0,g,1.0,1.5766904949996388,,,,,,,,,,7.0,7.0,91.0,11.0,365.6677203250001,,,,,,,,,,,,,,,,,365.6539084670003,366.8634907820015,367.66696654599946,367.64869565900153,,,,,,,,,,,,,,,,,,,,,,,,,,,,,,,,,,,367.651578539997,367.66696654599946,367.66696654599946,369.2498798789966,g,1.0,1.5766904949996388,,,,,sub-142,1,stroop_test,52.47564480818178,
,,,,92.0,8.0,7.0,,,,,,,,,,,,,rot,red,r,1.0,r,1.0,0.8939878919991315,,,,,,,,,,7.0,8.0,92.0,1.0,369.2639912829982,,,,,,,,,,,,,,,,,369.2502965370004,370.051166254998,370.8608992520021,370.8445899380022,,,,,,,,,,,,,,,,,,,,,,,,,,,,,,,,,,,370.8487918730025,370.8608992520021,370.8608992520021,371.7604694969996,r,1.0,0.8939878919991315,,,,,sub-142,1,stroop_test,52.47564480818178,
,,,,93.0,9.0,7.0,,,,,,,,,,,,,blau,red,r,0.0,r,1.0,1.058368336998683,,,,,,,,,,7.0,9.0,93.0,4.0,371.7754523129988,,,,,,,,,,,,,,,,,371.7611482779976,371.8753232870004,372.68648625900096,372.6696445670023,,,,,,,,,,,,,,,,,,,,,,,,,,,,,,,,,,,372.67316140000185,372.68648625900096,372.68648625900096,373.7552122740017,r,1.0,1.058368336998683,,,,,sub-142,1,stroop_test,52.47564480818178,
,,,,94.0,10.0,7.0,,,,,,,,,,,,,blau,blue,b,1.0,b,1.0,0.8899686229997315,,,,,,,,,,7.0,10.0,94.0,5.0,373.7713835960021,,,,,,,,,,,,,,,,,373.7556266199972,374.104620074002,374.908522689002,374.8934699029997,,,,,,,,,,,,,,,,,,,,,,,,,,,,,,,,,,,374.89522061099706,374.908522689002,374.908522689002,375.8188680189997,b,1.0,0.8899686229997315,,,,,sub-142,1,stroop_test,52.47564480818178,
,,,,95.0,11.0,7.0,,,,,,,,,,,,,gelb,yellow,g,1.0,g,1.0,0.6601351220015204,,,,,,,,,,7.0,11.0,95.0,10.0,375.8304884120007,,,,,,,,,,,,,,,,,375.8193917559984,375.93003553200106,376.73897994499566,376.7226539999974,,,,,,,,,,,,,,,,,,,,,,,,,,,,,,,,,,,376.7276337299991,376.73897994499566,376.73897994499566,377.4141134189995,g,1.0,0.6601351220015204,,,,,sub-142,1,stroop_test,52.47564480818178,
,,,,96.0,0.0,8.0,,,,,,,,,,,,,blau,red,r,0.0,r,1.0,0.7247095839993563,,,,,,,,,,8.0,0.0,96.0,4.0,377.42872123100096,,,,,,,,,,,,,,,,,377.4147299039978,378.61519377100194,379.4201853689956,379.403361233999,,,,,,,,,,,,,,,,,,,,,,,,,,,,,,,,,,,379.4073163089997,379.4201853689956,379.4201853689956,380.1553908900023,r,1.0,0.7247095839993563,,,,,sub-142,1,stroop_test,52.47564480818178,
,,,,97.0,1.0,8.0,,,,,,,,,,,,,rot,yellow,g,0.0,g,1.0,0.8212447029945906,,,,,,,,,,8.0,1.0,97.0,3.0,380.1712555109989,,,,,,,,,,,,,,,,,380.1559643509973,381.3560369879997,382.1624471899995,382.14608244999545,,,,,,,,,,,,,,,,,,,,,,,,,,,,,,,,,,,382.1501917029964,382.1624471899995,382.1624471899995,382.9883672860015,g,1.0,0.8212447029945906,,,,,sub-142,1,stroop_test,52.47564480818178,
,,,,98.0,2.0,8.0,,,,,,,,,,,,,gelb,blue,b,0.0,b,1.0,0.904470406996552,,,,,,,,,,8.0,2.0,98.0,9.0,383.0013338189965,,,,,,,,,,,,,,,,,382.9887861370007,383.7967610709966,384.6060438810018,384.5893709849988,,,,,,,,,,,,,,,,,,,,,,,,,,,,,,,,,,,384.59428946399566,384.6060438810018,384.6060438810018,385.518283753001,b,1.0,0.904470406996552,,,,,sub-142,1,stroop_test,52.47564480818178,
,,,,99.0,3.0,8.0,,,,,,,,,,,,,gelb,yellow,g,1.0,g,1.0,0.7558307809958933,,,,,,,,,,8.0,3.0,99.0,11.0,385.5341429079999,,,,,,,,,,,,,,,,,385.5188863160001,386.3206411430001,387.12620278699615,387.1140804469978,,,,,,,,,,,,,,,,,,,,,,,,,,,,,,,,,,,387.1146337050013,387.12620278699615,387.12620278699615,387.9011358880016,g,1.0,0.7558307809958933,,,,,sub-142,1,stroop_test,52.47564480818178,
,,,,100.0,4.0,8.0,,,,,,,,,,,,,gelb,red,r,0.0,r,1.0,1.020522726001218,,,,,,,,,,8.0,4.0,100.0,8.0,387.91182411499904,,,,,,,,,,,,,,,,,387.90153623899823,388.25364054799866,389.0618503129954,389.0489097039972,,,,,,,,,,,,,,,,,,,,,,,,,,,,,,,,,,,389.04944223500206,389.0618503129954,389.0618503129954,390.0861981069975,r,1.0,1.020522726001218,,,,,sub-142,1,stroop_test,52.47564480818178,
,,,,101.0,5.0,8.0,,,,,,,,,,,,,rot,red,r,1.0,r,1.0,0.733429256004456,,,,,,,,,,8.0,5.0,101.0,1.0,390.1032888949994,,,,,,,,,,,,,,,,,390.0866446509972,390.8838423569978,391.6859774760014,391.6692677280007,,,,,,,,,,,,,,,,,,,,,,,,,,,,,,,,,,,391.6722654359983,391.6859774760014,391.6859774760014,392.42272572300135,r,1.0,0.733429256004456,,,,,sub-142,1,stroop_test,52.47564480818178,
,,,,102.0,6.0,8.0,,,,,,,,,,,,,blau,blue,b,1.0,b,1.0,0.9748639699973864,,,,,,,,,,8.0,6.0,102.0,5.0,392.4368993519965,,,,,,,,,,,,,,,,,392.4231624429958,393.22060135699576,394.022621322998,394.0063230809974,,,,,,,,,,,,,,,,,,,,,,,,,,,,,,,,,,,394.0112384179956,394.022621322998,394.022621322998,395.00379914199584,b,1.0,0.9748639699973864,,,,,sub-142,1,stroop_test,52.47564480818178,
,,,,103.0,7.0,8.0,,,,,,,,,,,,,blau,yellow,g,0.0,g,1.0,1.140623001003405,,,,,,,,,,8.0,7.0,103.0,7.0,395.0176968559972,,,,,,,,,,,,,,,,,395.00421280199953,396.20110930300143,397.0046593849984,396.9912292439985,,,,,,,,,,,,,,,,,,,,,,,,,,,,,,,,,,,396.991822416996,397.0046593849984,397.0046593849984,398.159982019999,g,1.0,1.140623001003405,,,,,sub-142,1,stroop_test,52.47564480818178,
,,,,104.0,8.0,8.0,,,,,,,,,,,,,blau,blue,b,1.0,b,1.0,0.8094334750057897,,,,,,,,,,8.0,8.0,104.0,6.0,398.1745341249989,,,,,,,,,,,,,,,,,398.1605094780025,398.5087832270001,399.319598889997,399.30418789500254,,,,,,,,,,,,,,,,,,,,,,,,,,,,,,,,,,,399.3047451279999,399.319598889997,399.319598889997,400.1481549529999,b,1.0,0.8094334750057897,,,,,sub-142,1,stroop_test,52.47564480818178,
,,,,105.0,9.0,8.0,,,,,,,,,,,,,rot,red,r,1.0,r,1.0,0.7152991969996947,,,,,,,,,,8.0,9.0,105.0,0.0,400.1584380389977,,,,,,,,,,,,,,,,,400.1485454029971,400.9506237499954,401.7503268739965,401.7338057230008,,,,,,,,,,,,,,,,,,,,,,,,,,,,,,,,,,,401.73693090600136,401.7503268739965,401.7503268739965,402.4737633909972,r,1.0,0.7152991969996947,,,,,sub-142,1,stroop_test,52.47564480818178,
,,,,106.0,10.0,8.0,,,,,,,,,,,,,gelb,yellow,g,1.0,g,1.0,0.5996595480028191,,,,,,,,,,8.0,10.0,106.0,10.0,402.4883847870005,,,,,,,,,,,,,,,,,402.474685702,402.585235833998,403.39635813100176,403.3805954560012,,,,,,,,,,,,,,,,,,,,,,,,,,,,,,,,,,,403.3849484070015,403.39635813100176,403.39635813100176,404.0111652229971,g,1.0,0.5996595480028191,,,,,sub-142,1,stroop_test,52.47564480818178,
,,,,107.0,11.0,8.0,,,,,,,,,,,,,rot,blue,b,0.0,b,1.0,0.947371918002318,,,,,,,,,,8.0,11.0,107.0,2.0,404.02581308299705,,,,,,,,,,,,,,,,,404.0116486920015,405.2172331319962,406.0217952469975,406.005163474998,,,,,,,,,,,,,,,,,,,,,,,,,,,,,,,,,,,406.0103836439957,406.0217952469975,406.0217952469975,406.9773130370013,b,1.0,0.947371918002318,,,,,sub-142,1,stroop_test,52.47564480818178,
,,,,108.0,0.0,9.0,,,,,,,,,,,,,rot,red,r,1.0,r,1.0,0.713544007994642,,,,,,,,,,9.0,0.0,108.0,1.0,406.9907398599971,,,,,,,,,,,,,,,,,406.9777560520015,408.1796983699969,408.9862722749968,408.9721262739986,,,,,,,,,,,,,,,,,,,,,,,,,,,,,,,,,,,408.9731054360018,408.9862722749968,408.9862722749968,409.710041737002,r,1.0,0.713544007994642,,,,,sub-142,1,stroop_test,52.47564480818178,
,,,,109.0,1.0,9.0,,,,,,,,,,,,,blau,yellow,g,0.0,g,1.0,1.2902317619955284,,,,,,,,,,9.0,1.0,109.0,7.0,409.7249293549976,,,,,,,,,,,,,,,,,409.7106740730014,409.8194003710014,410.6315921189962,410.6136908549961,,,,,,,,,,,,,,,,,,,,,,,,,,,,,,,,,,,410.6166759830012,410.6315921189962,410.6315921189962,411.9462980169992,g,1.0,1.2902317619955284,,,,,sub-142,1,stroop_test,52.47564480818178,
,,,,110.0,2.0,9.0,,,,,,,,,,,,,gelb,red,r,0.0,r,1.0,2.083160370006226,,,,,,,,,,9.0,2.0,110.0,8.0,411.9629643939989,,,,,,,,,,,,,,,,,411.94669631800207,412.3116812980006,413.1170900819998,413.1004314599995,,,,,,,,,,,,,,,,,,,,,,,,,,,,,,,,,,,413.1043933670008,413.1170900819998,413.1170900819998,415.2048900049994,r,1.0,2.083160370006226,,,,,sub-142,1,stroop_test,52.47564480818178,
,,,,111.0,3.0,9.0,,,,,,,,,,,,,gelb,blue,b,0.0,b,1.0,0.6437603060039692,,,,,,,,,,9.0,3.0,111.0,9.0,415.22054720600136,,,,,,,,,,,,,,,,,415.2053960729973,416.004111713999,416.8121752219959,416.79692168699694,,,,,,,,,,,,,,,,,,,,,,,,,,,,,,,,,,,416.7974806130005,416.8121752219959,416.8121752219959,417.4738734889979,b,1.0,0.6437603060039692,,,,,sub-142,1,stroop_test,52.47564480818178,
,,,,112.0,4.0,9.0,,,,,,,,,,,,,blau,blue,b,1.0,b,1.0,0.6093338579958072,,,,,,,,,,9.0,4.0,112.0,5.0,417.48813856700144,,,,,,,,,,,,,,,,,417.4752934099961,418.2734681820002,419.0748460670002,419.0587080210025,,,,,,,,,,,,,,,,,,,,,,,,,,,,,,,,,,,419.06330386999616,419.0748460670002,419.0748460670002,419.6884354259964,b,1.0,0.6093338579958072,,,,,sub-142,1,stroop_test,52.47564480818178,
,,,,113.0,5.0,9.0,,,,,,,,,,,,,gelb,yellow,g,1.0,g,1.0,1.0553315280048992,,,,,,,,,,9.0,5.0,113.0,11.0,419.702751908997,,,,,,,,,,,,,,,,,419.6889746259985,419.8004484639969,420.6056848820008,420.5889651010002,,,,,,,,,,,,,,,,,,,,,,,,,,,,,,,,,,,420.5938864810014,420.6056848820008,420.6056848820008,421.6642903669999,g,1.0,1.0553315280048992,,,,,sub-142,1,stroop_test,52.47564480818178,
,,,,114.0,6.0,9.0,,,,,,,,,,,,,blau,blue,b,1.0,b,1.0,0.5832629669966991,,,,,,,,,,9.0,6.0,114.0,6.0,421.6788111290007,,,,,,,,,,,,,,,,,421.6647410910009,422.8697068249967,423.6796042240021,423.663929634,,,,,,,,,,,,,,,,,,,,,,,,,,,,,,,,,,,423.66783017099806,423.6796042240021,423.6796042240021,424.27812025800085,b,1.0,0.5832629669966991,,,,,sub-142,1,stroop_test,52.47564480818178,
,,,,115.0,7.0,9.0,,,,,,,,,,,,,gelb,yellow,g,1.0,g,1.0,1.0886845019995235,,,,,,,,,,9.0,7.0,115.0,10.0,424.2912489360024,,,,,,,,,,,,,,,,,424.2785362750001,425.0833774240018,425.8887402639957,425.872466244,,,,,,,,,,,,,,,,,,,,,,,,,,,,,,,,,,,425.8772564519968,425.8887402639957,425.8887402639957,426.98369260800246,g,1.0,1.0886845019995235,,,,,sub-142,1,stroop_test,52.47564480818178,
,,,,116.0,8.0,9.0,,,,,,,,,,,,,rot,blue,b,0.0,b,1.0,0.7650851120051811,,,,,,,,,,9.0,8.0,116.0,2.0,426.9976869949969,,,,,,,,,,,,,,,,,426.9842088219957,427.081350030996,427.8851287889993,427.8685257010002,,,,,,,,,,,,,,,,,,,,,,,,,,,,,,,,,,,427.8720594749975,427.8851287889993,427.8851287889993,428.6554714680024,b,1.0,0.7650851120051811,,,,,sub-142,1,stroop_test,52.47564480818178,
,,,,117.0,9.0,9.0,,,,,,,,,,,,,rot,yellow,g,0.0,g,1.0,0.8701407959961216,,,,,,,,,,9.0,9.0,117.0,3.0,428.671215634,,,,,,,,,,,,,,,,,428.6559009429984,429.4596640500022,430.2689004880013,430.2546957180021,,,,,,,,,,,,,,,,,,,,,,,,,,,,,,,,,,,430.2555256129999,430.2689004880013,430.2689004880013,431.14568864899775,g,1.0,0.8701407959961216,,,,,sub-142,1,stroop_test,52.47564480818178,
,,,,118.0,10.0,9.0,,,,,,,,,,,,,blau,red,r,0.0,r,1.0,0.4451823530034744,,,,,,,,,,9.0,10.0,118.0,4.0,431.15924746199744,,,,,,,,,,,,,,,,,431.1464973309994,431.23932565,432.0525403790016,432.03585668600135,,,,,,,,,,,,,,,,,,,,,,,,,,,,,,,,,,,432.0390345709966,432.0525403790016,432.0525403790016,432.51299758399546,r,1.0,0.4451823530034744,,,,,sub-142,1,stroop_test,52.47564480818178,
,,,,119.0,11.0,9.0,,,,,,,,,,,,,rot,red,r,1.0,r,1.0,0.6315190450040973,,,,,,,,,,9.0,11.0,119.0,0.0,432.5281014759967,,,,,,,,,,,,,,,,,432.5136269689974,433.711839014999,434.51473285500106,434.49929463599983,,,,,,,,,,,,,,,,,,,,,,,,,,,,,,,,,,,434.5029639790009,434.51473285500106,434.51473285500106,435.15418453299935,r,1.0,0.6315190450040973,,,,,sub-142,1,stroop_test,52.47564480818178,
,,,,,,,,,,,,,,,,,,,,,,,,,,,,,,,,,,,,,,,,,,,,,,,,,,,,,,,,,,,,,,,,,,,,,,,,,,,,,,,,,,,,,,,,,,,,,,,,,,,,,,435.154404435998,435.17412855399743,440.1672900859994,sub-142,1,stroop_test,52.47564480818178,
