wordCTK,colorCTK,corrAnsCTK,congruentCTK,thisN,thisTrialN,thisRepN,keyResp_CTK.keys,keyResp_CTK.corr,keyResp_CTK.rt,keyResp_CTK.duration,wordPractice,colorPractice,corrAnsPractice,congruentPractice,respPractice.keys,respPractice.corr,respPractice.rt,respPractice.duration,word,color,corrAns,congruent,keyResp_test_run.keys,keyResp_test_run.corr,keyResp_test_run.rt,keyResp_test_run.duration,trials_CTK.thisRepN,trials_CTK.thisTrialN,trials_CTK.thisN,trials_CTK.thisIndex,trials_practice.thisRepN,trials_practice.thisTrialN,trials_practice.thisN,trials_practice.thisIndex,trials_test.thisRepN,trials_test.thisTrialN,trials_test.thisN,trials_test.thisIndex,thisRow.t,notes,instruction.started,instr_text.started,instr_image.started,instr_resp.started,instruction.stopped,instr_resp.keys,instr_resp.rt,instr_resp.duration,instr_color_to_key.started,instr_ctk.started,resp_ctk.started,instr_color_to_key.stopped,resp_ctk.keys,resp_ctk.rt,resp_ctk.duration,ITI.started,fixcross.started,fixcross.stopped,ITI.stopped,color_to_key_run.started,stimulus_CTK.started,keyResp_CTK.started,color_to_key_run.stopped,trials_CTK.keyResp_CTK.keys,trials_CTK.keyResp_CTK.corr,trials_CTK.keyResp_CTK.rt,trials_CTK.keyResp_CTK.duration,instr_practice.started,instr_practice_text.started,instr_practice_resp.started,instr_practice.stopped,instr_practice_resp.keys,instr_practice_resp.rt,instr_practice_resp.duration,practice_run.started,stimulus_practice.started,respPractice.started,practice_run.stopped,trials_practice.respPractice.keys,trials_practice.respPractice.corr,trials_practice.respPractice.rt,trials_practice.respPractice.duration,feedback.started,textFeedback.started,feedback.stopped,textFeedback.stopped,instr_test.started,instr_test_text.started,instr_test_resp.started,instr_test.stopped,instr_test_resp.keys,instr_test_resp.rt,instr_test_resp.duration,test_run.started,stimulus_test_run.started,keyResp_test_run.started,test_run.stopped,trials_test.keyResp_test_run.keys,trials_test.keyResp_test_run.corr,trials_test.keyResp_test_run.rt,trials_test.keyResp_test_run.duration,goodbye.started,textGoodbye.started,goodbye.stopped,participant,session,expName,frameRate,Unnamed: 112
,,,,,,,,,,,,,,,,,,,,,,,,,,,,,,,,,,,,,,,,,0.0110507079998569,0.0179990409997117,0.0179990409997117,0.0179990409997117,113.663268583,space,113.6431389999998,,,,,,,,,,,,,,,,,,,,,,,,,,,,,,,,,,,,,,,,,,,,,,,,,,,,,,,,,,sub-085,1,stroop_test,,
,,,,,,,,,,,,,,,,,,,,,,,,,,,,,,,,,,,,,,,,,,,,,,,,,113.66336695799964,113.67479258299954,113.67479258299954,133.7992531659993,space,20.102183750000226,,,,,,,,,,,,,,,,,,,,,,,,,,,,,,,,,,,,,,,,,,,,,,,,,,,sub-085,1,stroop_test,,
test,yellow,g,1.0,0.0,0.0,0.0,g,1.0,13.93357237500004,,,,,,,,,,,,,,,,,,0.0,0.0,0.0,1.0,,,,,,,,,133.8311775409993,,,,,,,,,,,,,,,,,133.81507566599976,134.14927758299928,134.9518946659991,134.93961645799936,134.94579887499913,134.9518946659991,134.9518946659991,148.88908583299963,g,1.0,13.93357237500004,,,,,,,,,,,,,,,,,,,,,,,,,,,,,,,,,,,,,,,sub-085,1,stroop_test,,
test,red,r,1.0,1.0,1.0,0.0,r,1.0,1.5909800839999662,,,,,,,,,,,,,,,,,,0.0,1.0,1.0,0.0,,,,,,,,,148.9014789999992,,,,,,,,,,,,,,,,,148.88946891599971,150.08254579099955,150.88286541599973,150.87557883299996,150.87667266599965,150.88286541599973,150.88286541599973,152.47884987499947,r,1.0,1.5909800839999662,,,,,,,,,,,,,,,,,,,,,,,,,,,,,,,,,,,,,,,sub-085,1,stroop_test,,
test,blue,b,1.0,2.0,2.0,0.0,b,1.0,1.0692468749994075,,,,,,,,,,,,,,,,,,0.0,2.0,2.0,2.0,,,,,,,,,152.48735858299915,,,,,,,,,,,,,,,,,152.47926924999956,152.81734412499918,153.62400145799984,153.61647283299953,153.6174485829997,153.62400145799984,153.62400145799984,154.69511512499955,b,1.0,1.0692468749994075,,,,,,,,,,,,,,,,,,,,,,,,,,,,,,,,,,,,,,,sub-085,1,stroop_test,,
test,yellow,g,1.0,3.0,0.0,1.0,g,1.0,0.531857332999607,,,,,,,,,,,,,,,,,,1.0,0.0,3.0,1.0,,,,,,,,,154.70288670799982,,,,,,,,,,,,,,,,,154.69562170799963,155.04437841599974,155.83776841599956,155.8322349579994,155.83282983299978,155.83776841599956,155.83776841599956,156.38816120799947,g,1.0,0.531857332999607,,,,,,,,,,,,,,,,,,,,,,,,,,,,,,,,,,,,,,,sub-085,1,stroop_test,,
test,red,r,1.0,4.0,1.0,1.0,r,1.0,0.91155395900023,,,,,,,,,,,,,,,,,,1.0,1.0,4.0,0.0,,,,,,,,,156.3969709999992,,,,,,,,,,,,,,,,,156.38866983299977,156.74801354099964,157.537513708,157.53138379099985,157.53194237499974,157.537513708,157.537513708,158.47080212499986,r,1.0,0.91155395900023,,,,,,,,,,,,,,,,,,,,,,,,,,,,,,,,,,,,,,,sub-085,1,stroop_test,,
test,blue,b,1.0,5.0,2.0,1.0,b,1.0,0.7157744579999417,,,,,,,,,,,,,,,,,,1.0,2.0,5.0,2.0,,,,,,,,,158.4793653329998,,,,,,,,,,,,,,,,,158.47136362499987,158.83222683299937,159.63480045799952,159.6282007079999,159.62961149999956,159.63480045799952,159.63480045799952,160.3596253329997,b,1.0,0.7157744579999417,,,,,,,,,,,,,,,,,,,,,,,,,,,,,,,,,,,,,,,sub-085,1,stroop_test,,
test,red,r,1.0,6.0,0.0,2.0,r,1.0,0.7647280000001047,,,,,,,,,,,,,,,,,,2.0,0.0,6.0,0.0,,,,,,,,,160.36587899999995,,,,,,,,,,,,,,,,,160.3600685829997,160.70393174999936,161.49703212499935,161.4906417079992,161.49118237499988,161.49703212499935,161.49703212499935,162.27386537499933,r,1.0,0.7647280000001047,,,,,,,,,,,,,,,,,,,,,,,,,,,,,,,,,,,,,,,sub-085,1,stroop_test,,
test,blue,b,1.0,7.0,1.0,2.0,b,1.0,0.9953136670001186,,,,,,,,,,,,,,,,,,2.0,1.0,7.0,2.0,,,,,,,,,162.28222616599942,,,,,,,,,,,,,,,,,162.27445774999978,163.47460158299964,164.27504899999985,164.26738804099932,164.26877954099928,164.27504899999985,164.27504899999985,165.27280999999948,b,1.0,0.9953136670001186,,,,,,,,,,,,,,,,,,,,,,,,,,,,,,,,,,,,,,,sub-085,1,stroop_test,,
test,yellow,g,1.0,8.0,2.0,2.0,g,1.0,1.2904807080003593,,,,,,,,,,,,,,,,,,2.0,2.0,8.0,1.0,,,,,,,,,165.28057724999962,,,,,,,,,,,,,,,,,165.2732379579993,165.36704370799998,166.16698704099963,166.16051854099987,166.16111495799942,166.16698704099963,166.16698704099963,167.46049104099984,g,1.0,1.2904807080003593,,,,,,,,,,,,,,,,,,,,,,,,,,,,,,,,,,,,,,,sub-085,1,stroop_test,,
test,blue,b,1.0,9.0,0.0,3.0,b,1.0,1.683008291999613,,,,,,,,,,,,,,,,,,3.0,0.0,9.0,2.0,,,,,,,,,167.4691416249998,,,,,,,,,,,,,,,,,167.46102683299978,168.66063041599955,169.45876666599997,169.45204554099928,169.45261729099911,169.45876666599997,169.45876666599997,171.1437463329994,b,1.0,1.683008291999613,,,,,,,,,,,,,,,,,,,,,,,,,,,,,,,,,,,,,,,sub-085,1,stroop_test,,
test,red,r,1.0,10.0,1.0,3.0,r,1.0,0.8356076250001934,,,,,,,,,,,,,,,,,,3.0,1.0,10.0,0.0,,,,,,,,,171.15407487499942,,,,,,,,,,,,,,,,,171.14421137499994,171.25336895799956,172.04591391599934,172.0387808329997,172.03933899999993,172.04591391599934,172.04591391599934,172.88597891599966,r,1.0,0.8356076250001934,,,,,,,,,,,,,,,,,,,,,,,,,,,,,,,,,,,,,,,sub-085,1,stroop_test,,
test,yellow,g,1.0,11.0,2.0,3.0,g,1.0,3.677665958999569,,,,,,,,,,,,,,,,,,3.0,2.0,11.0,1.0,,,,,,,,,172.8940525829994,,,,,,,,,,,,,,,,,172.88634074999936,173.249008625,174.0411941249995,174.03377020799962,174.03448183299952,174.0411941249995,174.0411941249995,177.7324192499991,g,1.0,3.677665958999569,,,,,,,,,,,,,,,,,,,,,,,,,,,,,,,,,,,,,,,sub-085,1,stroop_test,,
,,,,,,,,,,,,,,,,,,,,,,,,,,,,,,,,,,,,,,,,,,,,,,,,,,,,,,,,,,,,,,,,,,,,177.73263187499924,177.74178162499993,177.74178162499993,187.3586700829992,space,9.614437416999865,,,,,,,,,,,,,,,,,,,,,,,,,,,,,,,,sub-085,1,stroop_test,,
,,,,0.0,0.0,0.0,,,,,gelb,red,r,0.0,r,1.0,1.5476927500003512,,,,,,,,,,,,,,0.0,0.0,0.0,8.0,,,,,187.3784107909996,,,,,,,,,,,,,,,,,187.37042437499983,187.45827891599947,188.27615904099912,188.26164316599989,,,,,,,,,,,,,,,,188.2698568329997,188.27615904099912,188.27615904099912,189.8293237909993,r,1.0,1.5476927500003512,,189.8365940829999,189.8463177499998,190.8386506249999,,,,,,,,,,,,,,,,,,,,sub-085,1,stroop_test,,
,,,,1.0,1.0,0.0,,,,,rot,blue,b,0.0,b,1.0,2.7137178749999293,,,,,,,,,,,,,,0.0,1.0,1.0,2.0,,,,,190.8584683329991,,,,,,,,,,,,,,,,,190.8389977499992,192.02403616599983,192.81977899999947,192.8084187909999,,,,,,,,,,,,,,,,192.81334545799928,192.81977899999947,192.81977899999947,195.53676241599987,b,1.0,2.7137178749999293,,195.537518958,195.546386041,196.5366059579992,196.5410051659992,,,,,,,,,,,,,,,,,,,sub-085,1,stroop_test,,
,,,,2.0,2.0,0.0,,,,,rot,yellow,g,0.0,g,1.0,1.653100665999773,,,,,,,,,,,,,,0.0,2.0,2.0,3.0,,,,,196.5410051659992,,,,,,,,,,,,,,,,,196.5370262909992,197.7388209159999,198.5295087079994,198.52393758299968,,,,,,,,,,,,,,,,198.52453049999983,198.5295087079994,198.5295087079994,200.18461558299987,g,1.0,1.653100665999773,,200.18519370799916,200.19284345799952,201.18180412499987,201.18846079099967,,,,,,,,,,,,,,,,,,,sub-085,1,stroop_test,,
,,,,3.0,3.0,0.0,,,,,blau,yellow,g,0.0,g,1.0,1.1129309579991968,,,,,,,,,,,,,,0.0,3.0,3.0,7.0,,,,,201.18846079099967,,,,,,,,,,,,,,,,,201.18220312499943,201.28443516599964,202.0790156659996,202.06772699999965,,,,,,,,,,,,,,,,202.0729656249996,202.0790156659996,202.0790156659996,203.21208699999988,g,1.0,1.1129309579991968,,203.212947,203.2222872079992,204.21439324999935,,,,,,,,,,,,,,,,,,,,sub-085,1,stroop_test,,
,,,,4.0,4.0,0.0,,,,,rot,red,r,1.0,r,1.0,0.5961843329996555,,,,,,,,,,,,,,0.0,4.0,4.0,0.0,,,,,204.22029049999944,,,,,,,,,,,,,,,,,204.21479712499968,205.0082013329993,205.808205458,205.7983889999996,,,,,,,,,,,,,,,,205.8018362079993,205.808205458,205.808205458,206.4088495829992,r,1.0,0.5961843329996555,,206.4095922079996,206.4183075409992,207.40376458299943,207.4162502909994,,,,,,,,,,,,,,,,,,,sub-085,1,stroop_test,,
,,,,5.0,5.0,0.0,,,,,blau,red,r,0.0,r,1.0,0.7927711659995111,,,,,,,,,,,,,,0.0,5.0,5.0,4.0,,,,,207.4162502909994,,,,,,,,,,,,,,,,,207.4041073749995,207.7770139159993,208.5768435829996,208.56543499999952,,,,,,,,,,,,,,,,208.5704932079998,208.5768435829996,208.5768435829996,209.37427124999977,r,1.0,0.7927711659995111,,209.37490158299988,209.38467645799935,210.367477666,210.38967212499935,,,,,,,,,,,,,,,,,,,sub-085,1,stroop_test,,
,,,,6.0,6.0,0.0,,,,,gelb,yellow,g,1.0,g,1.0,0.8328077909991407,,,,,,,,,,,,,,0.0,6.0,6.0,11.0,,,,,210.38967212499935,,,,,,,,,,,,,,,,,210.36787945799915,210.73555233299976,211.53442799999996,211.52610733299932,,,,,,,,,,,,,,,,211.5292766249995,211.53442799999996,211.53442799999996,212.3728200829992,g,1.0,0.8328077909991407,,212.37344016599943,212.382786958,213.3789521249992,,,,,,,,,,,,,,,,,,,,sub-085,1,stroop_test,,
,,,,7.0,7.0,0.0,,,,,blau,blue,b,1.0,b,1.0,0.8080154999997831,,,,,,,,,,,,,,0.0,7.0,7.0,6.0,,,,,213.39996962499936,,,,,,,,,,,,,,,,,213.37928020799973,214.57134058299928,215.36847141599992,215.35929508299975,,,,,,,,,,,,,,,,215.3626622079992,215.36847141599992,215.36847141599992,216.18497124999976,b,1.0,0.8080154999997831,,216.18573870799992,216.1952253749996,217.1810258329997,217.1852746249997,,,,,,,,,,,,,,,,,,,sub-085,1,stroop_test,,
,,,,8.0,8.0,0.0,,,,,gelb,yellow,g,1.0,g,1.0,0.6789090000002034,,,,,,,,,,,,,,0.0,8.0,8.0,10.0,,,,,217.1852746249997,,,,,,,,,,,,,,,,,217.18133758299973,217.28905858299916,218.0951272909997,218.0855397079995,,,,,,,,,,,,,,,,218.089016166,218.0951272909997,218.0951272909997,218.7772108749996,g,1.0,0.6789090000002034,,218.7779054999992,218.7870869999997,219.7727158329999,219.7889973329993,,,,,,,,,,,,,,,,,,,sub-085,1,stroop_test,,
,,,,9.0,9.0,0.0,,,,,gelb,blue,b,0.0,b,1.0,0.83197945899974,,,,,,,,,,,,,,0.0,9.0,9.0,9.0,,,,,219.7889973329993,,,,,,,,,,,,,,,,,219.7731240409994,220.9792283329998,221.77128191599968,221.7646566249996,,,,,,,,,,,,,,,,221.76522779099923,221.77128191599968,221.77128191599968,222.6145548329996,b,1.0,0.83197945899974,,222.61535283299963,222.62497608299964,223.61583433299984,,,,,,,,,,,,,,,,,,,,sub-085,1,stroop_test,,
,,,,10.0,10.0,0.0,,,,,rot,red,r,1.0,r,1.0,0.7934967920000418,,,,,,,,,,,,,,0.0,10.0,10.0,1.0,,,,,223.62016912499985,,,,,,,,,,,,,,,,,223.61626983299996,223.705232583,224.5123590409994,224.5026131249997,,,,,,,,,,,,,,,,224.506036625,224.5123590409994,224.5123590409994,225.32721266599947,r,1.0,0.7934967920000418,,225.32795374999927,225.33677008299944,226.3213456659996,226.3245381249999,,,,,,,,,,,,,,,,,,,sub-085,1,stroop_test,,
,,,,11.0,11.0,0.0,,,,,blau,blue,b,1.0,b,1.0,0.7118452500008061,,,,,,,,,,,,,,0.0,11.0,11.0,5.0,,,,,226.3245381249999,,,,,,,,,,,,,,,,,226.32168645799996,227.51835529099932,228.3156504159997,228.3051095409992,,,,,,,,,,,,,,,,228.30815799999985,228.3156504159997,228.3156504159997,229.0449642909998,b,1.0,0.7118452500008061,,229.04581704099928,229.0555394159992,230.0531285829993,,,,,,,,,,,,,,,,,,,,sub-085,1,stroop_test,,
,,,,12.0,0.0,1.0,,,,,gelb,red,r,0.0,r,1.0,0.8649821250000969,,,,,,,,,,,,,,1.0,0.0,12.0,8.0,,,,,230.0576410829999,,,,,,,,,,,,,,,,,230.053532166,230.4012978329993,231.20043079099923,231.19356445799983,,,,,,,,,,,,,,,,231.19560445799925,231.20043079099923,231.20043079099923,232.08547166599965,r,1.0,0.8649821250000969,,232.0861431659996,232.095387333,233.080319916,233.09226470799968,,,,,,,,,,,,,,,,,,,sub-085,1,stroop_test,,
,,,,13.0,1.0,1.0,,,,,blau,yellow,g,0.0,g,1.0,0.977814916999705,,,,,,,,,,,,,,1.0,1.0,13.0,7.0,,,,,233.09226470799968,,,,,,,,,,,,,,,,,233.0807113749997,233.42535283299912,234.22464054099964,234.2155484999994,,,,,,,,,,,,,,,,234.21897762499972,234.22464054099964,234.22464054099964,235.22073162499964,g,1.0,0.977814916999705,,235.22155224999915,235.2312563329997,236.2178144579993,236.2307517499994,,,,,,,,,,,,,,,,,,,sub-085,1,stroop_test,,
,,,,14.0,2.0,1.0,,,,,gelb,yellow,g,1.0,g,1.0,3.655869041999722,,,,,,,,,,,,,,1.0,2.0,14.0,11.0,,,,,236.2307517499994,,,,,,,,,,,,,,,,,236.2182040409998,236.5821772499994,237.39401737499972,237.3844823749996,,,,,,,,,,,,,,,,237.3879843329996,237.39401737499972,237.39401737499972,241.05173820799973,g,1.0,3.655869041999722,,241.052461708,241.06028429099933,242.0465642909994,242.05666824999932,,,,,,,,,,,,,,,,,,,sub-085,1,stroop_test,,
,,,,15.0,3.0,1.0,,,,,blau,blue,b,1.0,b,1.0,0.9709127920004904,,,,,,,,,,,,,,1.0,3.0,15.0,5.0,,,,,242.05666824999932,,,,,,,,,,,,,,,,,242.0469533329997,242.15068291599985,242.95000945799984,242.94026674999984,,,,,,,,,,,,,,,,242.94376549999924,242.95000945799984,242.95000945799984,243.9237520409997,b,1.0,0.9709127920004904,,243.92448324999987,243.93375862499943,244.9181591659999,244.9241457079997,,,,,,,,,,,,,,,,,,,sub-085,1,stroop_test,,
,,,,16.0,4.0,1.0,,,,,blau,blue,b,1.0,b,1.0,0.7136481659999845,,,,,,,,,,,,,,1.0,4.0,16.0,6.0,,,,,244.9241457079997,,,,,,,,,,,,,,,,,244.91856829099925,246.12011395799985,246.9180965409996,246.90550512499976,,,,,,,,,,,,,,,,246.90605666599916,246.9180965409996,246.9180965409996,247.63488274999963,b,1.0,0.7136481659999845,,247.6355271249995,247.6443252909994,248.63812970799967,,,,,,,,,,,,,,,,,,,,sub-085,1,stroop_test,,
,,,,17.0,5.0,1.0,,,,,gelb,blue,b,0.0,b,1.0,0.9267428749999452,,,,,,,,,,,,,,1.0,5.0,17.0,9.0,,,,,248.6587182909998,,,,,,,,,,,,,,,,,248.63852708299964,249.84935912499984,250.6514613749996,250.6409005829992,,,,,,,,,,,,,,,,250.6452291249998,250.6514613749996,250.6514613749996,251.59635066599915,b,1.0,0.9267428749999452,,251.5973054999995,251.60693258299943,252.5912334579998,252.6047599999993,,,,,,,,,,,,,,,,,,,sub-085,1,stroop_test,,
,,,,18.0,6.0,1.0,,,,,gelb,yellow,g,1.0,g,1.0,1.131525958000566,,,,,,,,,,,,,,1.0,6.0,18.0,10.0,,,,,252.6047599999993,,,,,,,,,,,,,,,,,252.59163295799956,252.9358949159996,253.74528741599988,253.7382217079994,,,,,,,,,,,,,,,,253.7389773749992,253.74528741599988,253.74528741599988,254.87940274999983,g,1.0,1.131525958000566,,254.88019220799924,254.8891838749996,255.8846744579996,,,,,,,,,,,,,,,,,,,,sub-085,1,stroop_test,,
,,,,19.0,7.0,1.0,,,,,rot,yellow,g,0.0,g,1.0,0.8098516660002133,,,,,,,,,,,,,,1.0,7.0,19.0,3.0,,,,,255.90702679099925,,,,,,,,,,,,,,,,,255.88509199999956,257.08690149999984,257.88362099999995,257.8736794159995,,,,,,,,,,,,,,,,257.87697054099954,257.88362099999995,257.88362099999995,258.70073554099963,g,1.0,0.8098516660002133,,258.7012539159996,258.705673083,259.6931043329996,259.715418625,,,,,,,,,,,,,,,,,,,sub-085,1,stroop_test,,
,,,,20.0,8.0,1.0,,,,,rot,blue,b,0.0,b,1.0,0.9522757499998988,,,,,,,,,,,,,,1.0,8.0,20.0,2.0,,,,,259.715418625,,,,,,,,,,,,,,,,,259.6935187909994,260.919172291,261.72143762499945,261.7143935409995,,,,,,,,,,,,,,,,261.7149639999998,261.72143762499945,261.72143762499945,262.67532374999973,b,1.0,0.9522757499998988,,262.67577020799945,262.6845724999994,263.67115966599977,263.6756206249993,,,,,,,,,,,,,,,,,,,sub-085,1,stroop_test,,
,,,,21.0,9.0,1.0,,,,,rot,red,r,1.0,r,1.0,0.6643978330002938,,,,,,,,,,,,,,1.0,9.0,21.0,0.0,,,,,263.6756206249993,,,,,,,,,,,,,,,,,263.6715167499997,263.7833955829992,264.5855308329992,264.5791583329992,,,,,,,,,,,,,,,,264.57974162499977,264.5855308329992,264.5855308329992,265.252377625,r,1.0,0.6643978330002938,,265.2528654159996,265.2620934159995,266.250307583,266.2724994579994,,,,,,,,,,,,,,,,,,,sub-085,1,stroop_test,,
,,,,22.0,10.0,1.0,,,,,blau,red,r,0.0,r,1.0,0.8174248750001425,,,,,,,,,,,,,,1.0,10.0,22.0,4.0,,,,,266.2724994579994,,,,,,,,,,,,,,,,,266.2506949159997,267.06957395799964,267.8645810829994,267.8551030409999,,,,,,,,,,,,,,,,267.85849187499934,267.8645810829994,267.8645810829994,268.694264666,r,1.0,0.8174248750001425,,268.6950757499999,268.7041172909994,269.68810349999967,269.70003316599923,,,,,,,,,,,,,,,,,,,sub-085,1,stroop_test,,
,,,,23.0,11.0,1.0,,,,,rot,red,r,1.0,r,1.0,0.6711238750003758,,,,,,,,,,,,,,1.0,11.0,23.0,1.0,,,,,269.70003316599923,,,,,,,,,,,,,,,,,269.6885054159993,269.79040949999944,270.59234624999954,270.58209349999925,,,,,,,,,,,,,,,,270.58591229099966,270.59234624999954,270.59234624999954,271.2718804999995,r,1.0,0.6711238750003758,,271.2727197079994,271.28228908299934,272.2759942499997,,,,,,,,,,,,,,,,,,,,sub-085,1,stroop_test,,
,,,,,,,,,,,,,,,,,,,,,,,,,,,,,,,,,,,,,,,,,,,,,,,,,,,,,,,,,,,,,,,,,,,,,,,,,,,,,,,,,,,,,,,272.27624841599936,272.28297816599934,272.28297816599934,274.88733016599963,space,2.6001309590001256,,,,,,,,,,,,,sub-085,1,stroop_test,,
,,,,0.0,0.0,0.0,,,,,,,,,,,,,gelb,yellow,g,1.0,g,1.0,0.8242167919997883,,,,,,,,,,0.0,0.0,0.0,10.0,274.9093278749997,,,,,,,,,,,,,,,,,274.9013648329992,274.98840674999974,275.78330149999965,275.77384433299994,,,,,,,,,,,,,,,,,,,,,,,,,,,,,,,,,,,275.77712304099987,275.78330149999965,275.78330149999965,276.6143252079992,g,1.0,0.8242167919997883,,,,,sub-085,1,stroop_test,,
,,,,1.0,1.0,0.0,,,,,,,,,,,,,rot,blue,b,0.0,b,1.0,1.037433874999806,,,,,,,,,,0.0,1.0,1.0,2.0,276.62173954099944,,,,,,,,,,,,,,,,,276.6149143749999,276.7117616249998,277.5097952499991,277.49607583299985,,,,,,,,,,,,,,,,,,,,,,,,,,,,,,,,,,,277.49922445799984,277.5097952499991,277.5097952499991,278.55586570799915,b,1.0,1.037433874999806,,,,,sub-085,1,stroop_test,,
,,,,2.0,2.0,0.0,,,,,,,,,,,,,blau,blue,b,1.0,b,1.0,0.7176925829999163,,,,,,,,,,0.0,2.0,2.0,6.0,278.562992958,,,,,,,,,,,,,,,,,278.55637929099976,279.35259858299924,280.15216820799924,280.13953370799936,,,,,,,,,,,,,,,,,,,,,,,,,,,,,,,,,,,280.14528391599924,280.15216820799924,280.15216820799924,280.87752316599926,b,1.0,0.7176925829999163,,,,,sub-085,1,stroop_test,,
,,,,3.0,3.0,0.0,,,,,,,,,,,,,rot,red,r,1.0,r,1.0,0.6683720829996673,,,,,,,,,,0.0,3.0,3.0,1.0,280.88581299999987,,,,,,,,,,,,,,,,,280.87818058299945,281.6660752079997,282.46332733299914,282.454542083,,,,,,,,,,,,,,,,,,,,,,,,,,,,,,,,,,,282.4577267909999,282.46332733299914,282.46332733299914,283.1343719999996,r,1.0,0.6683720829996673,,,,,sub-085,1,stroop_test,,
,,,,4.0,4.0,0.0,,,,,,,,,,,,,rot,red,r,1.0,r,1.0,0.6263029170004302,,,,,,,,,,0.0,4.0,4.0,0.0,283.14475870799924,,,,,,,,,,,,,,,,,283.13494895799977,283.48676049999995,284.2984857909996,284.2912183749995,,,,,,,,,,,,,,,,,,,,,,,,,,,,,,,,,,,284.2923728329997,284.2984857909996,284.2984857909996,284.92677991599976,r,1.0,0.6263029170004302,,,,,sub-085,1,stroop_test,,
,,,,5.0,5.0,0.0,,,,,,,,,,,,,gelb,yellow,g,1.0,g,1.0,0.7625821669998913,,,,,,,,,,0.0,5.0,5.0,11.0,284.9368829999994,,,,,,,,,,,,,,,,,284.9273589159993,285.2925746659994,286.09410891599964,286.0843773329998,,,,,,,,,,,,,,,,,,,,,,,,,,,,,,,,,,,286.0878603329993,286.09410891599964,286.09410891599964,286.87616083299963,g,1.0,0.7625821669998913,,,,,sub-085,1,stroop_test,,
,,,,6.0,6.0,0.0,,,,,,,,,,,,,gelb,red,r,0.0,r,1.0,1.132002457999988,,,,,,,,,,0.0,6.0,6.0,8.0,286.8851216659996,,,,,,,,,,,,,,,,,286.8769086659995,288.063869916,288.8591365409993,288.852857291,,,,,,,,,,,,,,,,,,,,,,,,,,,,,,,,,,,288.8534221659993,288.8591365409993,288.8591365409993,289.99613487499937,r,1.0,1.132002457999988,,,,,sub-085,1,stroop_test,,
,,,,7.0,7.0,0.0,,,,,,,,,,,,,gelb,blue,b,0.0,b,1.0,0.6684184590003497,,,,,,,,,,0.0,7.0,7.0,9.0,290.0049080409999,,,,,,,,,,,,,,,,,289.9966342079997,290.10379258299963,290.9144221659999,290.9077172499992,,,,,,,,,,,,,,,,,,,,,,,,,,,,,,,,,,,290.9083294999991,290.9144221659999,290.9144221659999,291.6046849579998,b,1.0,0.6684184590003497,,,,,sub-085,1,stroop_test,,
,,,,8.0,8.0,0.0,,,,,,,,,,,,,blau,blue,b,1.0,b,1.0,0.5906357919993752,,,,,,,,,,0.0,8.0,8.0,5.0,291.61346316599975,,,,,,,,,,,,,,,,,291.6053727909993,291.9475089579992,292.75808962499923,292.7468496249994,,,,,,,,,,,,,,,,,,,,,,,,,,,,,,,,,,,292.7517854579992,292.75808962499923,292.75808962499923,293.3611945829998,b,1.0,0.5906357919993752,,,,,sub-085,1,stroop_test,,
,,,,9.0,9.0,0.0,,,,,,,,,,,,,blau,red,r,0.0,r,1.0,0.6038700409999365,,,,,,,,,,0.0,9.0,9.0,4.0,293.36928633299976,,,,,,,,,,,,,,,,,293.3618272499998,294.1724142079993,294.96681887499926,294.95578566599943,,,,,,,,,,,,,,,,,,,,,,,,,,,,,,,,,,,294.9562690829998,294.96681887499926,294.96681887499926,295.5753302079993,r,1.0,0.6038700409999365,,,,,sub-085,1,stroop_test,,
,,,,10.0,10.0,0.0,,,,,,,,,,,,,blau,yellow,g,0.0,g,1.0,0.710871500000394,,,,,,,,,,0.0,10.0,10.0,7.0,295.583481916,,,,,,,,,,,,,,,,,295.575927291,295.9295641659992,296.7250505409993,296.718704125,,,,,,,,,,,,,,,,,,,,,,,,,,,,,,,,,,,296.7192607499992,296.7250505409993,296.7250505409993,297.4397089159993,g,1.0,0.710871500000394,,,,,sub-085,1,stroop_test,,
,,,,11.0,11.0,0.0,,,,,,,,,,,,,rot,yellow,g,0.0,g,1.0,0.6526130000002013,,,,,,,,,,0.0,11.0,11.0,3.0,297.44842004099974,,,,,,,,,,,,,,,,,297.4402961249998,298.2425668749993,299.05114616599985,299.0402955,,,,,,,,,,,,,,,,,,,,,,,,,,,,,,,,,,,299.0448093749992,299.05114616599985,299.05114616599985,299.7059022079993,g,1.0,0.6526130000002013,,,,,sub-085,1,stroop_test,,
,,,,12.0,0.0,1.0,,,,,,,,,,,,,rot,red,r,1.0,r,1.0,0.5755967079994662,,,,,,,,,,1.0,0.0,12.0,1.0,299.7159823329994,,,,,,,,,,,,,,,,,299.7063655829997,300.9049702079992,301.7049333749992,301.69851870799994,,,,,,,,,,,,,,,,,,,,,,,,,,,,,,,,,,,301.69909245799954,301.7049333749992,301.7049333749992,302.2827405829994,r,1.0,0.5755967079994662,,,,,sub-085,1,stroop_test,,
,,,,13.0,1.0,1.0,,,,,,,,,,,,,rot,blue,b,0.0,b,1.0,0.6504203330005112,,,,,,,,,,1.0,1.0,13.0,2.0,302.2907955409992,,,,,,,,,,,,,,,,,302.2833633329992,302.63366516599945,303.43272499999966,303.4245052499992,,,,,,,,,,,,,,,,,,,,,,,,,,,,,,,,,,,303.4258639159998,303.43272499999966,303.43272499999966,304.0902218329993,b,1.0,0.6504203330005112,,,,,sub-085,1,stroop_test,,
,,,,14.0,2.0,1.0,,,,,,,,,,,,,gelb,blue,b,0.0,b,1.0,0.7766835000002175,,,,,,,,,,1.0,2.0,14.0,9.0,304.097688375,,,,,,,,,,,,,,,,,304.090810875,305.29182649999984,306.09185191599954,306.0833097499999,,,,,,,,,,,,,,,,,,,,,,,,,,,,,,,,,,,306.0871572499991,306.09185191599954,306.09185191599954,306.87949774999925,b,1.0,0.7766835000002175,,,,,sub-085,1,stroop_test,,
,,,,15.0,3.0,1.0,,,,,,,,,,,,,blau,red,r,0.0,r,1.0,0.6624938340000881,,,,,,,,,,1.0,3.0,15.0,4.0,306.8881448329994,,,,,,,,,,,,,,,,,306.8801147079994,307.2283882079992,308.03957399999945,308.0302536249992,,,,,,,,,,,,,,,,,,,,,,,,,,,,,,,,,,,308.0337315409997,308.03957399999945,308.03957399999945,308.72068541599947,r,1.0,0.6624938340000881,,,,,sub-085,1,stroop_test,,
,,,,16.0,4.0,1.0,,,,,,,,,,,,,rot,red,r,1.0,r,1.0,0.6331837079997058,,,,,,,,,,1.0,4.0,16.0,0.0,308.7295114159997,,,,,,,,,,,,,,,,,308.7212982499996,309.5122978749996,310.31670341599965,310.3070959159995,,,,,,,,,,,,,,,,,,,,,,,,,,,,,,,,,,,310.31051170799947,310.31670341599965,310.31670341599965,310.9521457909996,r,1.0,0.6331837079997058,,,,,sub-085,1,stroop_test,,
,,,,17.0,5.0,1.0,,,,,,,,,,,,,gelb,yellow,g,1.0,g,1.0,0.7755801250004879,,,,,,,,,,1.0,5.0,17.0,10.0,310.95986195799924,,,,,,,,,,,,,,,,,310.9526981659992,311.3010178749992,312.0933140829993,312.08438012499937,,,,,,,,,,,,,,,,,,,,,,,,,,,,,,,,,,,312.08778154099946,312.0933140829993,312.0933140829993,312.87229345799915,g,1.0,0.7755801250004879,,,,,sub-085,1,stroop_test,,
,,,,18.0,6.0,1.0,,,,,,,,,,,,,gelb,yellow,g,1.0,g,1.0,0.6865971249999347,,,,,,,,,,1.0,6.0,18.0,11.0,312.8803154159996,,,,,,,,,,,,,,,,,312.8728043329993,312.97182458299994,313.7708213749993,313.7584160409997,,,,,,,,,,,,,,,,,,,,,,,,,,,,,,,,,,,313.75900637499944,313.7708213749993,313.7708213749993,314.4604732079997,g,1.0,0.6865971249999347,,,,,sub-085,1,stroop_test,,
,,,,19.0,7.0,1.0,,,,,,,,,,,,,blau,yellow,g,0.0,g,1.0,0.5131766250005967,,,,,,,,,,1.0,7.0,19.0,7.0,314.4680704579996,,,,,,,,,,,,,,,,,314.4610334579993,315.26957745799973,316.06758791599987,316.05715512499955,,,,,,,,,,,,,,,,,,,,,,,,,,,,,,,,,,,316.06057883299945,316.06758791599987,316.06758791599987,316.5976492079999,g,1.0,0.5131766250005967,,,,,sub-085,1,stroop_test,,
,,,,20.0,8.0,1.0,,,,,,,,,,,,,gelb,red,r,0.0,r,1.0,0.9067287920006492,,,,,,,,,,1.0,8.0,20.0,8.0,316.6063527079996,,,,,,,,,,,,,,,,,316.5983208329999,316.70467458299936,317.5031024159998,317.49205370799973,,,,,,,,,,,,,,,,,,,,,,,,,,,,,,,,,,,317.4953444999992,317.5031024159998,317.5031024159998,318.4190348329994,r,1.0,0.9067287920006492,,,,,sub-085,1,stroop_test,,
,,,,21.0,9.0,1.0,,,,,,,,,,,,,rot,yellow,g,0.0,g,1.0,0.7355800839995936,,,,,,,,,,1.0,9.0,21.0,3.0,318.4272387499996,,,,,,,,,,,,,,,,,318.41971724999985,319.6305727079998,320.4286708329992,320.4176391659994,,,,,,,,,,,,,,,,,,,,,,,,,,,,,,,,,,,320.4205804579997,320.4286708329992,320.4286708329992,321.16825983299987,g,1.0,0.7355800839995936,,,,,sub-085,1,stroop_test,,
,,,,22.0,10.0,1.0,,,,,,,,,,,,,blau,blue,b,1.0,b,1.0,0.560091750000538,,,,,,,,,,1.0,10.0,22.0,5.0,321.17890674999944,,,,,,,,,,,,,,,,,321.1688988749993,322.3670539579998,323.1816228329999,323.170125916,,,,,,,,,,,,,,,,,,,,,,,,,,,,,,,,,,,323.17539399999987,323.1816228329999,323.1816228329999,323.7575133329992,b,1.0,0.560091750000538,,,,,sub-085,1,stroop_test,,
,,,,23.0,11.0,1.0,,,,,,,,,,,,,blau,blue,b,1.0,b,1.0,0.5717100419997223,,,,,,,,,,1.0,11.0,23.0,6.0,323.7654740829994,,,,,,,,,,,,,,,,,323.75813262499923,323.85560933299985,324.65179316599915,324.64479370799927,,,,,,,,,,,,,,,,,,,,,,,,,,,,,,,,,,,324.6456618329994,324.65179316599915,324.65179316599915,325.2337142079996,b,1.0,0.5717100419997223,,,,,sub-085,1,stroop_test,,
,,,,24.0,0.0,2.0,,,,,,,,,,,,,gelb,yellow,g,1.0,g,1.0,0.5997022920000745,,,,,,,,,,2.0,0.0,24.0,11.0,325.24172208299933,,,,,,,,,,,,,,,,,325.234094208,325.32283916599954,326.1169922499994,326.108777208,,,,,,,,,,,,,,,,,,,,,,,,,,,,,,,,,,,326.111971458,326.1169922499994,326.1169922499994,326.71886029099915,g,1.0,0.5997022920000745,,,,,sub-085,1,stroop_test,,
,,,,25.0,1.0,2.0,,,,,,,,,,,,,rot,red,r,1.0,r,1.0,0.43520187500053,,,,,,,,,,2.0,1.0,25.0,1.0,326.7273562499995,,,,,,,,,,,,,,,,,326.7194977909994,327.93246270799955,328.72801666599935,328.7182322079998,,,,,,,,,,,,,,,,,,,,,,,,,,,,,,,,,,,328.7215341249994,328.72801666599935,328.72801666599935,329.16798737499994,r,1.0,0.43520187500053,,,,,sub-085,1,stroop_test,,
,,,,26.0,2.0,2.0,,,,,,,,,,,,,rot,yellow,g,0.0,g,1.0,0.6226515420003125,,,,,,,,,,2.0,2.0,26.0,3.0,329.1762579999995,,,,,,,,,,,,,,,,,329.1684545829994,329.5078462499996,330.3000874579993,330.2927008749993,,,,,,,,,,,,,,,,,,,,,,,,,,,,,,,,,,,330.29327816599925,330.3000874579993,330.3000874579993,330.9289059999992,g,1.0,0.6226515420003125,,,,,sub-085,1,stroop_test,,
,,,,27.0,3.0,2.0,,,,,,,,,,,,,rot,red,r,1.0,r,1.0,0.5886885420004546,,,,,,,,,,2.0,3.0,27.0,0.0,330.93783308299953,,,,,,,,,,,,,,,,,330.9295506659992,331.2746586249996,332.0744262079997,332.06835008299913,,,,,,,,,,,,,,,,,,,,,,,,,,,,,,,,,,,332.06890904099964,332.0744262079997,332.0744262079997,332.6713074999998,r,1.0,0.5886885420004546,,,,,sub-085,1,stroop_test,,
,,,,28.0,4.0,2.0,,,,,,,,,,,,,blau,yellow,g,0.0,g,1.0,0.6841333749998739,,,,,,,,,,2.0,4.0,28.0,7.0,332.6797467909992,,,,,,,,,,,,,,,,,332.67203691599934,333.88006770799984,334.6835779999992,334.6729134999996,,,,,,,,,,,,,,,,,,,,,,,,,,,,,,,,,,,334.67753908299983,334.6835779999992,334.6835779999992,335.37472879099914,g,1.0,0.6841333749998739,,,,,sub-085,1,stroop_test,,
,,,,29.0,5.0,2.0,,,,,,,,,,,,,blau,red,r,0.0,r,1.0,0.5712094999998953,,,,,,,,,,2.0,5.0,29.0,4.0,335.3832937499992,,,,,,,,,,,,,,,,,335.3753359579996,336.1837093749991,336.9930718329997,336.9868356249999,,,,,,,,,,,,,,,,,,,,,,,,,,,,,,,,,,,336.98742891599977,336.9930718329997,336.9930718329997,337.5861990829999,r,1.0,0.5712094999998953,,,,,sub-085,1,stroop_test,,
,,,,30.0,6.0,2.0,,,,,,,,,,,,,gelb,blue,b,0.0,b,1.0,0.8108389589997387,,,,,,,,,,2.0,6.0,30.0,9.0,337.5950145829993,,,,,,,,,,,,,,,,,337.58687545799967,337.69258991599963,338.4849289999993,338.4761483329994,,,,,,,,,,,,,,,,,,,,,,,,,,,,,,,,,,,338.479160375,338.4849289999993,338.4849289999993,339.30466649999926,b,1.0,0.8108389589997387,,,,,sub-085,1,stroop_test,,
,,,,31.0,7.0,2.0,,,,,,,,,,,,,gelb,red,r,0.0,r,1.0,1.388986124999974,,,,,,,,,,2.0,7.0,31.0,8.0,339.3132510409996,,,,,,,,,,,,,,,,,339.30528616599986,339.396481541,340.2015652079999,340.19506037499923,,,,,,,,,,,,,,,,,,,,,,,,,,,,,,,,,,,340.19576375,340.2015652079999,340.2015652079999,341.59426329099915,r,1.0,1.388986124999974,,,,,sub-085,1,stroop_test,,
,,,,32.0,8.0,2.0,,,,,,,,,,,,,gelb,yellow,g,1.0,g,1.0,1.010194333999607,,,,,,,,,,2.0,8.0,32.0,10.0,341.60118995799985,,,,,,,,,,,,,,,,,341.59489137499986,342.783716125,343.57622749999973,343.5700381249999,,,,,,,,,,,,,,,,,,,,,,,,,,,,,,,,,,,343.5706037909995,343.57622749999973,343.57622749999973,344.5919807909995,g,1.0,1.010194333999607,,,,,sub-085,1,stroop_test,,
,,,,33.0,9.0,2.0,,,,,,,,,,,,,rot,blue,b,0.0,b,1.0,0.7205916670000079,,,,,,,,,,2.0,9.0,33.0,2.0,344.6002759999992,,,,,,,,,,,,,,,,,344.5925914159998,344.69493845799934,345.4945184999997,345.48251816599986,,,,,,,,,,,,,,,,,,,,,,,,,,,,,,,,,,,345.4880153329996,345.4945184999997,345.4945184999997,346.21819658299955,b,1.0,0.7205916670000079,,,,,sub-085,1,stroop_test,,
,,,,34.0,10.0,2.0,,,,,,,,,,,,,blau,blue,b,1.0,b,1.0,1.4347982919998683,,,,,,,,,,2.0,10.0,34.0,5.0,346.2289650829998,,,,,,,,,,,,,,,,,346.2186027909993,347.0177329999997,347.82877570799974,347.817639375,,,,,,,,,,,,,,,,,,,,,,,,,,,,,,,,,,,347.82241237499966,347.82877570799974,347.82877570799974,349.2706892499991,b,1.0,1.4347982919998683,,,,,sub-085,1,stroop_test,,
,,,,35.0,11.0,2.0,,,,,,,,,,,,,blau,blue,b,1.0,b,1.0,0.623813582999901,,,,,,,,,,2.0,11.0,35.0,6.0,349.27875633299936,,,,,,,,,,,,,,,,,349.2711353749992,350.0697551249996,350.8700904999996,350.8557274999994,,,,,,,,,,,,,,,,,,,,,,,,,,,,,,,,,,,350.8562834579998,350.8700904999996,350.8700904999996,351.4975039159999,b,1.0,0.623813582999901,,,,,sub-085,1,stroop_test,,
,,,,36.0,0.0,3.0,,,,,,,,,,,,,gelb,yellow,g,1.0,g,1.0,0.6405657499999506,,,,,,,,,,3.0,0.0,36.0,10.0,351.5105297909995,,,,,,,,,,,,,,,,,351.4979480409993,351.8568424159994,352.6510569579996,352.6419815,,,,,,,,,,,,,,,,,,,,,,,,,,,,,,,,,,,352.6453894159995,352.6510569579996,352.6510569579996,353.30358049999995,g,1.0,0.6405657499999506,,,,,sub-085,1,stroop_test,,
,,,,37.0,1.0,3.0,,,,,,,,,,,,,blau,blue,b,1.0,b,1.0,0.6301351669999349,,,,,,,,,,3.0,1.0,37.0,6.0,353.3117057499994,,,,,,,,,,,,,,,,,353.3042298329992,354.1021892909994,354.90017025,354.88688883299983,,,,,,,,,,,,,,,,,,,,,,,,,,,,,,,,,,,354.8898929999996,354.90017025,354.90017025,355.54449391599974,b,1.0,0.6301351669999349,,,,,sub-085,1,stroop_test,,
,,,,38.0,2.0,3.0,,,,,,,,,,,,,rot,red,r,1.0,r,1.0,0.6309253339995848,,,,,,,,,,3.0,2.0,38.0,1.0,355.5524559159994,,,,,,,,,,,,,,,,,355.5450703329998,355.89261354099926,356.6850514579992,356.6756249579994,,,,,,,,,,,,,,,,,,,,,,,,,,,,,,,,,,,356.6788194159999,356.6850514579992,356.6850514579992,357.3250802499997,r,1.0,0.6309253339995848,,,,,sub-085,1,stroop_test,,
,,,,39.0,3.0,3.0,,,,,,,,,,,,,gelb,yellow,g,1.0,g,1.0,0.7962065840001742,,,,,,,,,,3.0,3.0,39.0,11.0,357.33355374999974,,,,,,,,,,,,,,,,,357.32587954099927,357.43847045799976,358.2341999579994,358.2262706249994,,,,,,,,,,,,,,,,,,,,,,,,,,,,,,,,,,,358.2291417909992,358.2341999579994,358.2341999579994,359.0337835829996,g,1.0,0.7962065840001742,,,,,sub-085,1,stroop_test,,
,,,,40.0,4.0,3.0,,,,,,,,,,,,,gelb,red,r,0.0,r,1.0,3.146465207999426,,,,,,,,,,3.0,4.0,40.0,8.0,359.0450625409994,,,,,,,,,,,,,,,,,359.0343464579992,359.40110812499915,360.20649508299994,360.20032124999943,,,,,,,,,,,,,,,,,,,,,,,,,,,,,,,,,,,360.2008667079999,360.20649508299994,360.20649508299994,363.3563640409993,r,1.0,3.146465207999426,,,,,sub-085,1,stroop_test,,
,,,,41.0,5.0,3.0,,,,,,,,,,,,,blau,yellow,g,0.0,g,1.0,1.154291125000782,,,,,,,,,,3.0,5.0,41.0,7.0,363.3651775829994,,,,,,,,,,,,,,,,,363.3570357079998,363.70308195799953,364.5035050409997,364.49168462499983,,,,,,,,,,,,,,,,,,,,,,,,,,,,,,,,,,,364.4961414579993,364.5035050409997,364.5035050409997,365.66878079099934,g,1.0,1.154291125000782,,,,,sub-085,1,stroop_test,,
,,,,42.0,6.0,3.0,,,,,,,,,,,,,rot,red,r,1.0,r,1.0,0.6372060420007983,,,,,,,,,,3.0,6.0,42.0,0.0,365.6762010409993,,,,,,,,,,,,,,,,,365.6693466659999,365.7707324159992,366.5669477499996,366.5579122909994,,,,,,,,,,,,,,,,,,,,,,,,,,,,,,,,,,,366.56087779099926,366.5669477499996,366.5669477499996,367.2083667909992,r,1.0,0.6372060420007983,,,,,sub-085,1,stroop_test,,
,,,,43.0,7.0,3.0,,,,,,,,,,,,,blau,red,r,0.0,r,1.0,1.2455794580000656,,,,,,,,,,3.0,7.0,43.0,4.0,367.21628991599937,,,,,,,,,,,,,,,,,367.2088489579992,367.308856916,368.1042397909996,368.0959418749999,,,,,,,,,,,,,,,,,,,,,,,,,,,,,,,,,,,368.099206291,368.1042397909996,368.1042397909996,369.3543493329999,r,1.0,1.2455794580000656,,,,,sub-085,1,stroop_test,,
,,,,44.0,8.0,3.0,,,,,,,,,,,,,blau,blue,b,1.0,b,1.0,1.144231082999795,,,,,,,,,,3.0,8.0,44.0,5.0,369.3628760829997,,,,,,,,,,,,,,,,,369.3550027079991,370.1501678749992,370.95278062499983,370.9463853749994,,,,,,,,,,,,,,,,,,,,,,,,,,,,,,,,,,,370.9469407909992,370.95278062499983,370.95278062499983,372.0996237909994,b,1.0,1.144231082999795,,,,,sub-085,1,stroop_test,,
,,,,45.0,9.0,3.0,,,,,,,,,,,,,rot,yellow,g,0.0,g,1.0,0.6565189590000955,,,,,,,,,,3.0,9.0,45.0,3.0,372.1078063749992,,,,,,,,,,,,,,,,,372.100154625,372.89951395799926,373.6966477909991,373.6837699159996,,,,,,,,,,,,,,,,,,,,,,,,,,,,,,,,,,,373.6870086249992,373.6966477909991,373.6966477909991,374.3713894999992,g,1.0,0.6565189590000955,,,,,sub-085,1,stroop_test,,
,,,,46.0,10.0,3.0,,,,,,,,,,,,,rot,blue,b,0.0,b,1.0,0.7925947909998285,,,,,,,,,,3.0,10.0,46.0,2.0,374.3799778329994,,,,,,,,,,,,,,,,,374.37199320799937,375.17223241599913,375.9713095829993,375.9585930409994,,,,,,,,,,,,,,,,,,,,,,,,,,,,,,,,,,,375.9591440409995,375.9713095829993,375.9713095829993,376.76778962499975,b,1.0,0.7925947909998285,,,,,sub-085,1,stroop_test,,
,,,,47.0,11.0,3.0,,,,,,,,,,,,,gelb,blue,b,0.0,b,1.0,0.9383714579998924,,,,,,,,,,3.0,11.0,47.0,9.0,376.7761639159999,,,,,,,,,,,,,,,,,376.7683664999995,377.5580100829993,378.3516747909998,378.3415231659992,,,,,,,,,,,,,,,,,,,,,,,,,,,,,,,,,,,378.3452142499991,378.3516747909998,378.3516747909998,379.2961206249993,b,1.0,0.9383714579998924,,,,,sub-085,1,stroop_test,,
,,,,48.0,0.0,4.0,,,,,,,,,,,,,gelb,yellow,g,1.0,g,1.0,0.7615302499998506,,,,,,,,,,4.0,0.0,48.0,11.0,379.3047261249994,,,,,,,,,,,,,,,,,379.2967479159997,379.6329708329995,380.435670375,380.4282519579992,,,,,,,,,,,,,,,,,,,,,,,,,,,,,,,,,,,380.42935874999966,380.435670375,380.435670375,381.2063145409993,g,1.0,0.7615302499998506,,,,,sub-085,1,stroop_test,,
,,,,49.0,1.0,4.0,,,,,,,,,,,,,rot,yellow,g,0.0,g,1.0,0.6667324170002757,,,,,,,,,,4.0,1.0,49.0,3.0,381.2134652499999,,,,,,,,,,,,,,,,,381.2068704579997,381.30926166599966,382.1073367079998,382.09735720799927,,,,,,,,,,,,,,,,,,,,,,,,,,,,,,,,,,,382.1008418329993,382.1073367079998,382.1073367079998,382.78540820799935,g,1.0,0.6667324170002757,,,,,sub-085,1,stroop_test,,
,,,,50.0,2.0,4.0,,,,,,,,,,,,,rot,blue,b,0.0,b,1.0,0.7887430419996235,,,,,,,,,,4.0,2.0,50.0,2.0,382.7899300829995,,,,,,,,,,,,,,,,,382.7857973329992,383.9739398749998,384.7708807909994,384.75872524999977,,,,,,,,,,,,,,,,,,,,,,,,,,,,,,,,,,,384.7592715409992,384.7708807909994,384.7708807909994,385.5618369579997,b,1.0,0.7887430419996235,,,,,sub-085,1,stroop_test,,
,,,,51.0,3.0,4.0,,,,,,,,,,,,,rot,red,r,1.0,r,1.0,0.4319927080005072,,,,,,,,,,4.0,3.0,51.0,0.0,385.569357458,,,,,,,,,,,,,,,,,385.56249662499977,385.9226946659992,386.7305897499991,386.7088433749996,,,,,,,,,,,,,,,,,,,,,,,,,,,,,,,,,,,386.70942279099927,386.7305897499991,386.7305897499991,387.1661914999995,r,1.0,0.4319927080005072,,,,,sub-085,1,stroop_test,,
,,,,52.0,4.0,4.0,,,,,,,,,,,,,blau,blue,b,1.0,b,1.0,0.6090408749996641,,,,,,,,,,4.0,4.0,52.0,6.0,387.1748016249994,,,,,,,,,,,,,,,,,387.1667810409999,388.3662310829996,389.1637592499992,389.1508737079994,,,,,,,,,,,,,,,,,,,,,,,,,,,,,,,,,,,389.1547842909995,389.1637592499992,389.1637592499992,389.78334395799993,b,1.0,0.6090408749996641,,,,,sub-085,1,stroop_test,,
,,,,53.0,5.0,4.0,,,,,,,,,,,,,gelb,yellow,g,1.0,g,1.0,0.6789709169997877,,,,,,,,,,4.0,5.0,53.0,10.0,389.78712220799935,,,,,,,,,,,,,,,,,389.78373904099954,390.1331543749993,390.9338463329996,390.9242951659999,,,,,,,,,,,,,,,,,,,,,,,,,,,,,,,,,,,390.92777283299984,390.9338463329996,390.9338463329996,391.6171815409998,g,1.0,0.6789709169997877,,,,,sub-085,1,stroop_test,,
,,,,54.0,6.0,4.0,,,,,,,,,,,,,rot,red,r,1.0,r,1.0,0.6497294169994348,,,,,,,,,,4.0,6.0,54.0,1.0,391.62591424999937,,,,,,,,,,,,,,,,,391.6178168329998,391.7218209999992,392.52115658299954,392.5092596659997,,,,,,,,,,,,,,,,,,,,,,,,,,,,,,,,,,,392.514301833,392.52115658299954,392.52115658299954,393.1736299999993,r,1.0,0.6497294169994348,,,,,sub-085,1,stroop_test,,
,,,,55.0,7.0,4.0,,,,,,,,,,,,,gelb,red,r,0.0,r,1.0,0.6351174159999573,,,,,,,,,,4.0,7.0,55.0,8.0,393.1808952909996,,,,,,,,,,,,,,,,,393.1741640829996,393.9631973329997,394.7616878749996,394.75222791599936,,,,,,,,,,,,,,,,,,,,,,,,,,,,,,,,,,,394.7554674999992,394.7616878749996,394.7616878749996,395.399075583,r,1.0,0.6351174159999573,,,,,sub-085,1,stroop_test,,
,,,,56.0,8.0,4.0,,,,,,,,,,,,,gelb,blue,b,0.0,b,1.0,0.5937812080001095,,,,,,,,,,4.0,8.0,56.0,9.0,395.4086295829993,,,,,,,,,,,,,,,,,395.3995303749998,395.7431596249999,396.5489546249992,396.5409512909992,,,,,,,,,,,,,,,,,,,,,,,,,,,,,,,,,,,396.5424406249995,396.5489546249992,396.5489546249992,397.1530907499992,b,1.0,0.5937812080001095,,,,,sub-085,1,stroop_test,,
,,,,57.0,9.0,4.0,,,,,,,,,,,,,blau,yellow,g,0.0,g,1.0,0.8362033329995029,,,,,,,,,,4.0,9.0,57.0,7.0,397.15757120799935,,,,,,,,,,,,,,,,,397.15350004099946,397.498049541,398.297469958,398.28626654099935,,,,,,,,,,,,,,,,,,,,,,,,,,,,,,,,,,,398.2911484999995,398.297469958,398.297469958,399.1368429999993,g,1.0,0.8362033329995029,,,,,sub-085,1,stroop_test,,
,,,,58.0,10.0,4.0,,,,,,,,,,,,,blau,red,r,0.0,r,1.0,0.7176586250006949,,,,,,,,,,4.0,10.0,58.0,4.0,399.1446068749992,,,,,,,,,,,,,,,,,399.1375067909994,400.3301172909996,401.1421410409994,401.1218036659993,,,,,,,,,,,,,,,,,,,,,,,,,,,,,,,,,,,401.1223927909996,401.1421410409994,401.1421410409994,401.8634548329992,r,1.0,0.7176586250006949,,,,,sub-085,1,stroop_test,,
,,,,59.0,11.0,4.0,,,,,,,,,,,,,blau,blue,b,1.0,b,1.0,0.8021602910002912,,,,,,,,,,4.0,11.0,59.0,5.0,401.8765657909999,,,,,,,,,,,,,,,,,401.8638829579995,403.0549383329999,403.84751516599954,403.8413329159994,,,,,,,,,,,,,,,,,,,,,,,,,,,,,,,,,,,403.84189437499936,403.84751516599954,403.84751516599954,404.6532858749997,b,1.0,0.8021602910002912,,,,,sub-085,1,stroop_test,,
,,,,60.0,0.0,5.0,,,,,,,,,,,,,rot,red,r,1.0,r,1.0,0.7322267919998922,,,,,,,,,,5.0,0.0,60.0,1.0,404.6612654999999,,,,,,,,,,,,,,,,,404.6538639999999,404.7606699579992,405.5660504579992,405.5558356249994,,,,,,,,,,,,,,,,,,,,,,,,,,,,,,,,,,,405.5594951659996,405.5660504579992,405.5660504579992,406.3036711249997,r,1.0,0.7322267919998922,,,,,sub-085,1,stroop_test,,
,,,,61.0,1.0,5.0,,,,,,,,,,,,,gelb,red,r,0.0,r,1.0,0.7026504169998589,,,,,,,,,,5.0,1.0,61.0,8.0,406.3126460829999,,,,,,,,,,,,,,,,,406.304323333,407.5041454159991,408.3003128749997,408.28996324999935,,,,,,,,,,,,,,,,,,,,,,,,,,,,,,,,,,,408.29433599999993,408.3003128749997,408.3003128749997,409.008177875,r,1.0,0.7026504169998589,,,,,sub-085,1,stroop_test,,
,,,,62.0,2.0,5.0,,,,,,,,,,,,,rot,red,r,1.0,r,1.0,0.6252011249998759,,,,,,,,,,5.0,2.0,62.0,0.0,409.016463125,,,,,,,,,,,,,,,,,409.008508291,409.80134174999966,410.5965695409996,410.5863264159998,,,,,,,,,,,,,,,,,,,,,,,,,,,,,,,,,,,410.5901574159998,410.5965695409996,410.5965695409996,411.2270092909994,r,1.0,0.6252011249998759,,,,,sub-085,1,stroop_test,,
,,,,63.0,3.0,5.0,,,,,,,,,,,,,rot,yellow,g,0.0,g,1.0,0.9270196670004224,,,,,,,,,,5.0,3.0,63.0,3.0,411.2342102909997,,,,,,,,,,,,,,,,,411.2275889159992,411.3242658329991,412.1257216249997,412.1184772909992,,,,,,,,,,,,,,,,,,,,,,,,,,,,,,,,,,,412.1190682499992,412.1257216249997,412.1257216249997,413.0594187079996,g,1.0,0.9270196670004224,,,,,sub-085,1,stroop_test,,
,,,,64.0,4.0,5.0,,,,,,,,,,,,,gelb,blue,b,0.0,b,1.0,0.5025106250004683,,,,,,,,,,5.0,4.0,64.0,9.0,413.06990358299936,,,,,,,,,,,,,,,,,413.05997266599934,414.2595304159995,415.055332166,415.0465800409993,,,,,,,,,,,,,,,,,,,,,,,,,,,,,,,,,,,415.0495258749997,415.055332166,415.055332166,415.5711848329993,b,1.0,0.5025106250004683,,,,,sub-085,1,stroop_test,,
,,,,65.0,5.0,5.0,,,,,,,,,,,,,gelb,yellow,g,1.0,g,1.0,0.9569467080000322,,,,,,,,,,5.0,5.0,65.0,10.0,415.5767631249992,,,,,,,,,,,,,,,,,415.5716387499997,416.7732759159999,417.5684295409992,417.56151724999927,,,,,,,,,,,,,,,,,,,,,,,,,,,,,,,,,,,417.5621071659998,417.5684295409992,417.5684295409992,418.5318438329996,g,1.0,0.9569467080000322,,,,,sub-085,1,stroop_test,,
,,,,66.0,6.0,5.0,,,,,,,,,,,,,gelb,yellow,g,1.0,g,1.0,0.5447527500000433,,,,,,,,,,5.0,6.0,66.0,11.0,418.5388194579991,,,,,,,,,,,,,,,,,418.5323169159992,418.6231364579999,419.41536599999927,419.4092439999995,,,,,,,,,,,,,,,,,,,,,,,,,,,,,,,,,,,419.4097227499997,419.41536599999927,419.41536599999927,419.9642476659992,g,1.0,0.5447527500000433,,,,,sub-085,1,stroop_test,,
,,,,67.0,7.0,5.0,,,,,,,,,,,,,blau,red,r,0.0,r,1.0,0.4932116669997413,,,,,,,,,,5.0,7.0,67.0,4.0,419.9752576659994,,,,,,,,,,,,,,,,,419.96464758299953,420.3262212499994,421.1231520829997,421.1179386249996,,,,,,,,,,,,,,,,,,,,,,,,,,,,,,,,,,,421.1194976659999,421.1231520829997,421.1231520829997,421.6178783329997,r,1.0,0.4932116669997413,,,,,sub-085,1,stroop_test,,
,,,,68.0,8.0,5.0,,,,,,,,,,,,,blau,blue,b,1.0,b,1.0,0.5835838749999311,,,,,,,,,,5.0,8.0,68.0,5.0,421.6241334999995,,,,,,,,,,,,,,,,,421.6181803749996,422.4314279159999,423.238453166,423.2319179159995,,,,,,,,,,,,,,,,,,,,,,,,,,,,,,,,,,,423.2324851249996,423.238453166,423.238453166,423.8307746249993,b,1.0,0.5835838749999311,,,,,sub-085,1,stroop_test,,
,,,,69.0,9.0,5.0,,,,,,,,,,,,,blau,blue,b,1.0,b,1.0,0.6815347920000931,,,,,,,,,,5.0,9.0,69.0,6.0,423.8389115829996,,,,,,,,,,,,,,,,,423.83132725,425.04000062499927,425.83857445799913,425.8257572079992,,,,,,,,,,,,,,,,,,,,,,,,,,,,,,,,,,,425.82630345799953,425.83857445799913,425.83857445799913,426.527271125,b,1.0,0.6815347920000931,,,,,sub-085,1,stroop_test,,
,,,,70.0,10.0,5.0,,,,,,,,,,,,,rot,blue,b,0.0,b,1.0,0.6397748330000468,,,,,,,,,,5.0,10.0,70.0,2.0,426.534754458,,,,,,,,,,,,,,,,,426.5278417499994,427.7422322499997,428.5506984579997,428.5409924159994,,,,,,,,,,,,,,,,,,,,,,,,,,,,,,,,,,,428.5443000829992,428.5506984579997,428.5506984579997,429.19315862499934,b,1.0,0.6397748330000468,,,,,sub-085,1,stroop_test,,
,,,,71.0,11.0,5.0,,,,,,,,,,,,,blau,yellow,g,0.0,g,1.0,0.6470846250003888,,,,,,,,,,5.0,11.0,71.0,7.0,429.20385654099937,,,,,,,,,,,,,,,,,429.1937387079997,429.98350674999983,430.78052629099966,430.7696685409992,,,,,,,,,,,,,,,,,,,,,,,,,,,,,,,,,,,430.7743974999994,430.78052629099966,430.78052629099966,431.4408187499994,g,1.0,0.6470846250003888,,,,,sub-085,1,stroop_test,,
,,,,72.0,0.0,6.0,,,,,,,,,,,,,gelb,yellow,g,1.0,g,1.0,0.7514332499995362,,,,,,,,,,6.0,0.0,72.0,10.0,431.4491275829996,,,,,,,,,,,,,,,,,431.4413987499993,431.52801920799993,432.3224391659997,432.31341691599937,,,,,,,,,,,,,,,,,,,,,,,,,,,,,,,,,,,432.316707041,432.3224391659997,432.3224391659997,433.08292795799935,g,1.0,0.7514332499995362,,,,,sub-085,1,stroop_test,,
,,,,73.0,1.0,6.0,,,,,,,,,,,,,rot,red,r,1.0,r,1.0,0.5431874169998991,,,,,,,,,,6.0,1.0,73.0,1.0,433.0919992499994,,,,,,,,,,,,,,,,,433.0835414999992,433.8877117909997,434.6808496249996,434.6710652079992,,,,,,,,,,,,,,,,,,,,,,,,,,,,,,,,,,,434.67446033299984,434.6808496249996,434.6808496249996,435.2449184999996,r,1.0,0.5431874169998991,,,,,sub-085,1,stroop_test,,
,,,,74.0,2.0,6.0,,,,,,,,,,,,,gelb,red,r,0.0,r,1.0,0.4252131250004822,,,,,,,,,,6.0,2.0,74.0,8.0,435.2537795409999,,,,,,,,,,,,,,,,,435.2455457079996,436.0425629579995,436.8508255409997,436.839120916,,,,,,,,,,,,,,,,,,,,,,,,,,,,,,,,,,,436.84464566599945,436.8508255409997,436.8508255409997,437.28804804099946,r,1.0,0.4252131250004822,,,,,sub-085,1,stroop_test,,
,,,,75.0,3.0,6.0,,,,,,,,,,,,,blau,blue,b,1.0,b,1.0,0.7000337919998856,,,,,,,,,,6.0,3.0,75.0,6.0,437.2970162909997,,,,,,,,,,,,,,,,,437.28864133299976,438.0823434159993,438.88176424999983,438.8724630829993,,,,,,,,,,,,,,,,,,,,,,,,,,,,,,,,,,,438.87588587499977,438.88176424999983,438.88176424999983,439.59402883299936,b,1.0,0.7000337919998856,,,,,sub-085,1,stroop_test,,
,,,,76.0,4.0,6.0,,,,,,,,,,,,,blau,red,r,0.0,r,1.0,0.7376547080002638,,,,,,,,,,6.0,4.0,76.0,4.0,439.6023675829993,,,,,,,,,,,,,,,,,439.5946596659997,440.7940878749996,441.5955463749997,441.58864637499937,,,,,,,,,,,,,,,,,,,,,,,,,,,,,,,,,,,441.589227083,441.5955463749997,441.5955463749997,442.33751833299993,r,1.0,0.7376547080002638,,,,,sub-085,1,stroop_test,,
,,,,77.0,5.0,6.0,,,,,,,,,,,,,blau,yellow,g,0.0,g,1.0,0.6086459580001247,,,,,,,,,,6.0,5.0,77.0,7.0,442.3464643329999,,,,,,,,,,,,,,,,,442.3381228749995,443.1338794999992,443.93577195799935,443.9287076249993,,,,,,,,,,,,,,,,,,,,,,,,,,,,,,,,,,,443.9298025829994,443.93577195799935,443.93577195799935,444.5480801659997,g,1.0,0.6086459580001247,,,,,sub-085,1,stroop_test,,
,,,,78.0,6.0,6.0,,,,,,,,,,,,,gelb,yellow,g,1.0,g,1.0,0.6151646670004993,,,,,,,,,,6.0,6.0,78.0,11.0,444.55628229099966,,,,,,,,,,,,,,,,,444.5486087909994,445.7605138749996,446.5662789579992,446.5566676659992,,,,,,,,,,,,,,,,,,,,,,,,,,,,,,,,,,,446.5602227079999,446.5662789579992,446.5662789579992,447.1838325409999,g,1.0,0.6151646670004993,,,,,sub-085,1,stroop_test,,
,,,,79.0,7.0,6.0,,,,,,,,,,,,,rot,blue,b,0.0,b,1.0,0.7430045420005627,,,,,,,,,,6.0,7.0,79.0,2.0,447.1913161249995,,,,,,,,,,,,,,,,,447.1842740409993,447.5350387079998,448.3277968749999,448.3182868329996,,,,,,,,,,,,,,,,,,,,,,,,,,,,,,,,,,,448.3215312499997,448.3277968749999,448.3277968749999,449.0773836659992,b,1.0,0.7430045420005627,,,,,sub-085,1,stroop_test,,
,,,,80.0,8.0,6.0,,,,,,,,,,,,,gelb,blue,b,0.0,b,1.0,0.8850243329998193,,,,,,,,,,6.0,8.0,80.0,9.0,449.0849598749992,,,,,,,,,,,,,,,,,449.07795183299913,450.2683494999992,451.0637083749998,451.0533800409994,,,,,,,,,,,,,,,,,,,,,,,,,,,,,,,,,,,451.0575570409992,451.0637083749998,451.0637083749998,451.9525994159994,b,1.0,0.8850243329998193,,,,,sub-085,1,stroop_test,,
,,,,81.0,9.0,6.0,,,,,,,,,,,,,rot,red,r,1.0,r,1.0,0.7007174170003054,,,,,,,,,,6.0,9.0,81.0,0.0,451.9611488749997,,,,,,,,,,,,,,,,,451.9532037079998,452.3104377499994,453.1030412909995,453.0939019579992,,,,,,,,,,,,,,,,,,,,,,,,,,,,,,,,,,,453.0971317909998,453.1030412909995,453.1030412909995,453.80738183299945,r,1.0,0.7007174170003054,,,,,sub-085,1,stroop_test,,
,,,,82.0,10.0,6.0,,,,,,,,,,,,,rot,yellow,g,0.0,g,1.0,0.6297872499999357,,,,,,,,,,6.0,10.0,82.0,3.0,453.81497062499966,,,,,,,,,,,,,,,,,453.8080209159998,453.9094997079992,454.7123268329997,454.7050236249997,,,,,,,,,,,,,,,,,,,,,,,,,,,,,,,,,,,454.7060775,454.7123268329997,454.7123268329997,455.3488685409993,g,1.0,0.6297872499999357,,,,,sub-085,1,stroop_test,,
,,,,83.0,11.0,6.0,,,,,,,,,,,,,blau,blue,b,1.0,b,1.0,0.6654375839998465,,,,,,,,,,6.0,11.0,83.0,5.0,455.3574369159997,,,,,,,,,,,,,,,,,455.3495151249999,456.15431483299926,456.9556369579996,456.9472177909993,,,,,,,,,,,,,,,,,,,,,,,,,,,,,,,,,,,456.9507031659996,456.9556369579996,456.9556369579996,457.6260900829993,b,1.0,0.6654375839998465,,,,,sub-085,1,stroop_test,,
,,,,84.0,0.0,7.0,,,,,,,,,,,,,gelb,yellow,g,1.0,g,1.0,0.6474523340002634,,,,,,,,,,7.0,0.0,84.0,10.0,457.6339149999994,,,,,,,,,,,,,,,,,457.6267105829993,458.8208316249993,459.6174308329992,459.6053568329999,,,,,,,,,,,,,,,,,,,,,,,,,,,,,,,,,,,459.6090554999992,459.6174308329992,459.6174308329992,460.2747410409993,g,1.0,0.6474523340002634,,,,,sub-085,1,stroop_test,,
,,,,85.0,1.0,7.0,,,,,,,,,,,,,blau,blue,b,1.0,b,1.0,0.774722290999307,,,,,,,,,,7.0,1.0,85.0,5.0,460.2834037909997,,,,,,,,,,,,,,,,,460.2753749579997,460.6206068749998,461.4268130409992,461.41624608299935,,,,,,,,,,,,,,,,,,,,,,,,,,,,,,,,,,,461.4208022499997,461.4268130409992,461.4268130409992,462.2140955409996,b,1.0,0.774722290999307,,,,,sub-085,1,stroop_test,,
,,,,86.0,2.0,7.0,,,,,,,,,,,,,rot,red,r,1.0,r,1.0,0.5112804580003285,,,,,,,,,,7.0,2.0,86.0,1.0,462.2220564999998,,,,,,,,,,,,,,,,,462.2147060829993,463.014260125,463.8086449579996,463.7989003749999,,,,,,,,,,,,,,,,,,,,,,,,,,,,,,,,,,,463.8021627499993,463.8086449579996,463.8086449579996,464.32332675,r,1.0,0.5112804580003285,,,,,sub-085,1,stroop_test,,
,,,,87.0,3.0,7.0,,,,,,,,,,,,,blau,yellow,g,0.0,g,1.0,0.4570009999997637,,,,,,,,,,7.0,3.0,87.0,7.0,464.33326337499966,,,,,,,,,,,,,,,,,464.3239490829992,465.1180752499995,465.91750970799967,465.90930458299954,,,,,,,,,,,,,,,,,,,,,,,,,,,,,,,,,,,465.91222537499925,465.91750970799967,465.91750970799967,466.3771539579993,g,1.0,0.4570009999997637,,,,,sub-085,1,stroop_test,,
,,,,88.0,4.0,7.0,,,,,,,,,,,,,rot,yellow,g,0.0,g,1.0,0.859027542000149,,,,,,,,,,7.0,4.0,88.0,3.0,466.3848438749992,,,,,,,,,,,,,,,,,466.37770079099937,467.5866267499996,468.3859311659999,468.3756961659992,,,,,,,,,,,,,,,,,,,,,,,,,,,,,,,,,,,468.3795398329994,468.3859311659999,468.3859311659999,469.2582016249999,g,1.0,0.859027542000149,,,,,sub-085,1,stroop_test,,
,,,,89.0,5.0,7.0,,,,,,,,,,,,,blau,blue,b,1.0,b,1.0,0.7259741660000145,,,,,,,,,,7.0,5.0,89.0,6.0,469.26674579099927,,,,,,,,,,,,,,,,,469.2588192079993,469.6039747909999,470.4029993749991,470.3891662079996,,,,,,,,,,,,,,,,,,,,,,,,,,,,,,,,,,,470.3923856659994,470.4029993749991,470.4029993749991,471.149943208,b,1.0,0.7259741660000145,,,,,sub-085,1,stroop_test,,
,,,,90.0,6.0,7.0,,,,,,,,,,,,,rot,red,r,1.0,r,1.0,0.6680678339998849,,,,,,,,,,7.0,6.0,90.0,0.0,471.1586910829992,,,,,,,,,,,,,,,,,471.1506165829997,471.49801091599966,472.30147241599934,472.2909700829996,,,,,,,,,,,,,,,,,,,,,,,,,,,,,,,,,,,472.2952460409997,472.30147241599934,472.30147241599934,472.9749727499993,r,1.0,0.6680678339998849,,,,,sub-085,1,stroop_test,,
,,,,91.0,7.0,7.0,,,,,,,,,,,,,rot,blue,b,0.0,b,1.0,0.7767737919994033,,,,,,,,,,7.0,7.0,91.0,2.0,472.9830366659999,,,,,,,,,,,,,,,,,472.9755708749999,473.77519799999936,474.5712534999993,474.5583260829999,,,,,,,,,,,,,,,,,,,,,,,,,,,,,,,,,,,474.558787041,474.5712534999993,474.5712534999993,475.3586898329995,b,1.0,0.7767737919994033,,,,,sub-085,1,stroop_test,,
,,,,92.0,8.0,7.0,,,,,,,,,,,,,gelb,red,r,0.0,r,1.0,0.5702428750000763,,,,,,,,,,7.0,8.0,92.0,8.0,475.3622417499992,,,,,,,,,,,,,,,,,475.3590246249996,476.1703870829997,476.97134862499934,476.96149545799926,,,,,,,,,,,,,,,,,,,,,,,,,,,,,,,,,,,476.9650441249996,476.97134862499934,476.97134862499934,477.5441917079997,r,1.0,0.5702428750000763,,,,,sub-085,1,stroop_test,,
,,,,93.0,9.0,7.0,,,,,,,,,,,,,blau,red,r,0.0,r,1.0,0.9121649589997104,,,,,,,,,,7.0,9.0,93.0,4.0,477.5514075409992,,,,,,,,,,,,,,,,,477.54470354099976,477.8828253749998,478.6805272499996,478.6674917909995,,,,,,,,,,,,,,,,,,,,,,,,,,,,,,,,,,,478.6707744159994,478.6805272499996,478.6805272499996,479.6078378749999,r,1.0,0.9121649589997104,,,,,sub-085,1,stroop_test,,
,,,,94.0,10.0,7.0,,,,,,,,,,,,,gelb,blue,b,0.0,b,1.0,0.7154741670001386,,,,,,,,,,7.0,10.0,94.0,9.0,479.6159735409992,,,,,,,,,,,,,,,,,479.6084824999998,479.72325533299954,480.5189692499998,480.5091847499998,,,,,,,,,,,,,,,,,,,,,,,,,,,,,,,,,,,480.5124690829998,480.5189692499998,480.5189692499998,481.2410959159997,b,1.0,0.7154741670001386,,,,,sub-085,1,stroop_test,,
,,,,95.0,11.0,7.0,,,,,,,,,,,,,gelb,yellow,g,1.0,g,1.0,0.594322583999201,,,,,,,,,,7.0,11.0,95.0,11.0,481.2502715409992,,,,,,,,,,,,,,,,,481.2417475829998,482.0456724579999,482.84196954099934,482.8358050829993,,,,,,,,,,,,,,,,,,,,,,,,,,,,,,,,,,,482.8362714579998,482.84196954099934,482.84196954099934,483.43995,g,1.0,0.594322583999201,,,,,sub-085,1,stroop_test,,
,,,,96.0,0.0,8.0,,,,,,,,,,,,,rot,red,r,1.0,r,1.0,1.0001656670001466,,,,,,,,,,8.0,0.0,96.0,1.0,483.452498916,,,,,,,,,,,,,,,,,483.4405280409992,484.2490281659993,485.04867708299935,485.0382225409994,,,,,,,,,,,,,,,,,,,,,,,,,,,,,,,,,,,485.0424914999994,485.04867708299935,485.04867708299935,486.0567705409994,r,1.0,1.0001656670001466,,,,,sub-085,1,stroop_test,,
,,,,97.0,1.0,8.0,,,,,,,,,,,,,blau,blue,b,1.0,b,1.0,0.5867465840001387,,,,,,,,,,8.0,1.0,97.0,5.0,486.0656011659994,,,,,,,,,,,,,,,,,486.0573823749992,487.2514210829995,488.050765041,488.0369929159997,,,,,,,,,,,,,,,,,,,,,,,,,,,,,,,,,,,488.0396891659993,488.050765041,488.050765041,488.6397559159996,b,1.0,0.5867465840001387,,,,,sub-085,1,stroop_test,,
,,,,98.0,2.0,8.0,,,,,,,,,,,,,gelb,blue,b,0.0,b,1.0,0.79294254099932,,,,,,,,,,8.0,2.0,98.0,9.0,488.6499099579996,,,,,,,,,,,,,,,,,488.6403158329995,488.9887253329998,489.8027601659997,489.79115645799993,,,,,,,,,,,,,,,,,,,,,,,,,,,,,,,,,,,489.7964184579996,489.8027601659997,489.8027601659997,490.60686087499926,b,1.0,0.79294254099932,,,,,sub-085,1,stroop_test,,
,,,,99.0,3.0,8.0,,,,,,,,,,,,,rot,red,r,1.0,r,1.0,0.6252320419998796,,,,,,,,,,8.0,3.0,99.0,0.0,490.6136077499996,,,,,,,,,,,,,,,,,490.607448541,490.950553875,491.7454576659993,491.7337207499995,,,,,,,,,,,,,,,,,,,,,,,,,,,,,,,,,,,491.73707337499945,491.7454576659993,491.7454576659993,492.3741921659994,r,1.0,0.6252320419998796,,,,,sub-085,1,stroop_test,,
,,,,100.0,4.0,8.0,,,,,,,,,,,,,rot,blue,b,0.0,b,1.0,0.8253194999997504,,,,,,,,,,8.0,4.0,100.0,2.0,492.3829944579993,,,,,,,,,,,,,,,,,492.3748235829999,492.4678170829993,493.2779583329993,493.255452333,,,,,,,,,,,,,,,,,,,,,,,,,,,,,,,,,,,493.2559339999998,493.2779583329993,493.2779583329993,494.1061920409993,b,1.0,0.8253194999997504,,,,,sub-085,1,stroop_test,,
,,,,101.0,5.0,8.0,,,,,,,,,,,,,blau,yellow,g,0.0,g,1.0,0.6244188749997193,,,,,,,,,,8.0,5.0,101.0,7.0,494.1137909159997,,,,,,,,,,,,,,,,,494.1064998749998,494.8993067909996,495.6945964159995,495.68556483299926,,,,,,,,,,,,,,,,,,,,,,,,,,,,,,,,,,,495.6886365409992,495.6945964159995,495.6945964159995,496.3238005829999,g,1.0,0.6244188749997193,,,,,sub-085,1,stroop_test,,
,,,,102.0,6.0,8.0,,,,,,,,,,,,,gelb,yellow,g,1.0,g,1.0,0.5814343750007538,,,,,,,,,,8.0,6.0,102.0,11.0,496.3328598749995,,,,,,,,,,,,,,,,,496.3245307909992,496.4374096249994,497.2303535409992,497.220559333,,,,,,,,,,,,,,,,,,,,,,,,,,,,,,,,,,,497.2238923329997,497.2303535409992,497.2303535409992,497.8145151659992,g,1.0,0.5814343750007538,,,,,sub-085,1,stroop_test,,
,,,,103.0,7.0,8.0,,,,,,,,,,,,,blau,red,r,0.0,r,1.0,0.9062350419999348,,,,,,,,,,8.0,7.0,103.0,4.0,497.8233573329999,,,,,,,,,,,,,,,,,497.8151763329997,498.6226339579998,499.4308682499996,499.4065304159994,,,,,,,,,,,,,,,,,,,,,,,,,,,,,,,,,,,499.4096418749996,499.4308682499996,499.4308682499996,500.34019941599945,r,1.0,0.9062350419999348,,,,,sub-085,1,stroop_test,,
,,,,104.0,8.0,8.0,,,,,,,,,,,,,gelb,red,r,0.0,r,1.0,0.6111339579993,,,,,,,,,,8.0,8.0,104.0,8.0,500.3479362909993,,,,,,,,,,,,,,,,,500.340765166,501.13249354099935,501.9273269999994,501.9178024999992,,,,,,,,,,,,,,,,,,,,,,,,,,,,,,,,,,,501.92142133299967,501.9273269999994,501.9273269999994,502.5418600409994,r,1.0,0.6111339579993,,,,,sub-085,1,stroop_test,,
,,,,105.0,9.0,8.0,,,,,,,,,,,,,gelb,yellow,g,1.0,g,1.0,0.675415000000612,,,,,,,,,,8.0,9.0,105.0,10.0,502.54993583299984,,,,,,,,,,,,,,,,,502.5424471659999,502.8997596659992,503.7107395829999,503.70421916599935,,,,,,,,,,,,,,,,,,,,,,,,,,,,,,,,,,,503.7048101659993,503.7107395829999,503.7107395829999,504.3884360409993,g,1.0,0.675415000000612,,,,,sub-085,1,stroop_test,,
,,,,106.0,10.0,8.0,,,,,,,,,,,,,blau,blue,b,1.0,b,1.0,0.7830989580006644,,,,,,,,,,8.0,10.0,106.0,6.0,504.39701104099913,,,,,,,,,,,,,,,,,504.3890548329992,504.4830333329992,505.2790623329993,505.26919483299935,,,,,,,,,,,,,,,,,,,,,,,,,,,,,,,,,,,505.2730038749996,505.2790623329993,505.2790623329993,506.0766433749996,b,1.0,0.7830989580006644,,,,,sub-085,1,stroop_test,,
,,,,107.0,11.0,8.0,,,,,,,,,,,,,rot,yellow,g,0.0,g,1.0,1.1694710000001578,,,,,,,,,,8.0,11.0,107.0,3.0,506.0850521659995,,,,,,,,,,,,,,,,,506.0773575409994,506.88316904099975,507.68089424999926,507.6712551249993,,,,,,,,,,,,,,,,,,,,,,,,,,,,,,,,,,,507.674530583,507.68089424999926,507.68089424999926,508.852450333,g,1.0,1.1694710000001578,,,,,sub-085,1,stroop_test,,
,,,,108.0,0.0,9.0,,,,,,,,,,,,,gelb,yellow,g,1.0,g,1.0,0.4425765840005624,,,,,,,,,,9.0,0.0,108.0,11.0,508.86230395799976,,,,,,,,,,,,,,,,,508.8529972909992,509.64999349999925,510.44317008299913,510.4333961659995,,,,,,,,,,,,,,,,,,,,,,,,,,,,,,,,,,,510.4367365409999,510.44317008299913,510.44317008299913,510.90340758299953,g,1.0,0.4425765840005624,,,,,sub-085,1,stroop_test,,
,,,,109.0,1.0,9.0,,,,,,,,,,,,,blau,red,r,0.0,r,1.0,0.6639440829994783,,,,,,,,,,9.0,1.0,109.0,4.0,510.91215454099984,,,,,,,,,,,,,,,,,510.9040601659999,510.9952504579997,511.8037184999994,511.794138708,,,,,,,,,,,,,,,,,,,,,,,,,,,,,,,,,,,511.797666083,511.8037184999994,511.8037184999994,512.4861752079996,r,1.0,0.6639440829994783,,,,,sub-085,1,stroop_test,,
,,,,110.0,2.0,9.0,,,,,,,,,,,,,blau,yellow,g,0.0,g,1.0,0.5609889590004968,,,,,,,,,,9.0,2.0,110.0,7.0,512.4947969999994,,,,,,,,,,,,,,,,,512.4868244159998,512.8377234159998,513.6483204159995,513.6406478749996,,,,,,,,,,,,,,,,,,,,,,,,,,,,,,,,,,,513.6415152909995,513.6483204159995,513.6483204159995,514.215407875,g,1.0,0.5609889590004968,,,,,sub-085,1,stroop_test,,
,,,,111.0,3.0,9.0,,,,,,,,,,,,,rot,red,r,1.0,r,1.0,0.7629517080004007,,,,,,,,,,9.0,3.0,111.0,1.0,514.2235415409996,,,,,,,,,,,,,,,,,514.2160690409992,514.3338577499999,515.1283198329993,515.1186867079996,,,,,,,,,,,,,,,,,,,,,,,,,,,,,,,,,,,515.1219290409999,515.1283198329993,515.1283198329993,515.89458225,r,1.0,0.7629517080004007,,,,,sub-085,1,stroop_test,,
,,,,112.0,4.0,9.0,,,,,,,,,,,,,gelb,yellow,g,1.0,g,1.0,0.5172590000001946,,,,,,,,,,9.0,4.0,112.0,10.0,515.9024552499995,,,,,,,,,,,,,,,,,515.8951615409997,516.6971923329993,517.4917657079995,517.4806914999999,,,,,,,,,,,,,,,,,,,,,,,,,,,,,,,,,,,517.4856788329998,517.4917657079995,517.4917657079995,518.0131712499997,g,1.0,0.5172590000001946,,,,,sub-085,1,stroop_test,,
,,,,113.0,5.0,9.0,,,,,,,,,,,,,rot,blue,b,0.0,b,1.0,0.617360500000359,,,,,,,,,,9.0,5.0,113.0,2.0,518.021933041,,,,,,,,,,,,,,,,,518.0137692909993,518.3636149579997,519.1602165409995,519.1512420829995,,,,,,,,,,,,,,,,,,,,,,,,,,,,,,,,,,,519.1546450409996,519.1602165409995,519.1602165409995,519.7866101659993,b,1.0,0.617360500000359,,,,,sub-085,1,stroop_test,,
,,,,114.0,6.0,9.0,,,,,,,,,,,,,gelb,blue,b,0.0,g,0.0,0.5524399160003668,,,,,,,,,,9.0,6.0,114.0,9.0,519.7945451249998,,,,,,,,,,,,,,,,,519.787223458,520.986768625,521.7813187499996,521.7716032499993,,,,,,,,,,,,,,,,,,,,,,,,,,,,,,,,,,,521.7748693329995,521.7813187499996,521.7813187499996,522.3365657499999,g,0.0,0.5524399160003668,,,,,sub-085,1,stroop_test,,
,,,,115.0,7.0,9.0,,,,,,,,,,,,,blau,blue,b,1.0,b,1.0,0.6107846670001891,,,,,,,,,,9.0,7.0,115.0,5.0,522.3448286249995,,,,,,,,,,,,,,,,,522.3371905409995,522.4419605829999,523.2418134159998,523.2325764999996,,,,,,,,,,,,,,,,,,,,,,,,,,,,,,,,,,,523.2360208329992,523.2418134159998,523.2418134159998,523.8573373749996,b,1.0,0.6107846670001891,,,,,sub-085,1,stroop_test,,
,,,,116.0,8.0,9.0,,,,,,,,,,,,,rot,yellow,g,0.0,g,1.0,1.1895217499995852,,,,,,,,,,9.0,8.0,116.0,3.0,523.8660018329992,,,,,,,,,,,,,,,,,523.8579844999995,524.2067791659993,525.007850125,524.998076416,,,,,,,,,,,,,,,,,,,,,,,,,,,,,,,,,,,525.0014084159993,525.007850125,525.007850125,526.1994052079999,g,1.0,1.1895217499995852,,,,,sub-085,1,stroop_test,,
,,,,117.0,9.0,9.0,,,,,,,,,,,,,rot,red,r,1.0,r,1.0,0.6388390410002103,,,,,,,,,,9.0,9.0,117.0,0.0,526.2063011249993,,,,,,,,,,,,,,,,,526.1998180409992,526.9932446659996,527.7866846659999,527.7808352909997,,,,,,,,,,,,,,,,,,,,,,,,,,,,,,,,,,,527.7813801659995,527.7866846659999,527.7866846659999,528.4396985829999,r,1.0,0.6388390410002103,,,,,sub-085,1,stroop_test,,
,,,,118.0,10.0,9.0,,,,,,,,,,,,,gelb,red,r,0.0,r,1.0,1.500640750000457,,,,,,,,,,9.0,10.0,118.0,8.0,528.4482986659996,,,,,,,,,,,,,,,,,528.4403364159998,528.7884373749994,529.583052041,529.5733266249999,,,,,,,,,,,,,,,,,,,,,,,,,,,,,,,,,,,529.5766475409991,529.583052041,529.583052041,531.0905482499993,r,1.0,1.500640750000457,,,,,sub-085,1,stroop_test,,
,,,,119.0,11.0,9.0,,,,,,,,,,,,,blau,blue,b,1.0,b,1.0,0.5569760410007802,,,,,,,,,,9.0,11.0,119.0,6.0,531.0988509159997,,,,,,,,,,,,,,,,,531.0909997909994,531.1805971249996,531.979709708,531.9700510409994,,,,,,,,,,,,,,,,,,,,,,,,,,,,,,,,,,,531.9734542499991,531.979709708,531.979709708,532.5394229579997,b,1.0,0.5569760410007802,,,,,sub-085,1,stroop_test,,
,,,,,,,,,,,,,,,,,,,,,,,,,,,,,,,,,,,,,,,,,,,,,,,,,,,,,,,,,,,,,,,,,,,,,,,,,,,,,,,,,,,,,,,,,,,,,,,,,,,,,,532.5396797079993,532.5487005409996,537.5429616659994,sub-085,1,stroop_test,,
