wordCTK,colorCTK,corrAnsCTK,congruentCTK,thisN,thisTrialN,thisRepN,keyResp_CTK.keys,keyResp_CTK.corr,keyResp_CTK.rt,keyResp_CTK.duration,wordPractice,colorPractice,corrAnsPractice,congruentPractice,respPractice.keys,respPractice.corr,respPractice.rt,respPractice.duration,word,color,corrAns,congruent,keyResp_test_run.keys,keyResp_test_run.corr,keyResp_test_run.rt,keyResp_test_run.duration,trials_CTK.thisRepN,trials_CTK.thisTrialN,trials_CTK.thisN,trials_CTK.thisIndex,trials_practice.thisRepN,trials_practice.thisTrialN,trials_practice.thisN,trials_practice.thisIndex,trials_test.thisRepN,trials_test.thisTrialN,trials_test.thisN,trials_test.thisIndex,thisRow.t,notes,instruction.started,instr_text.started,instr_image.started,instr_resp.started,instruction.stopped,instr_resp.keys,instr_resp.rt,instr_resp.duration,instr_color_to_key.started,instr_ctk.started,resp_ctk.started,instr_color_to_key.stopped,resp_ctk.keys,resp_ctk.rt,resp_ctk.duration,ITI.started,fixcross.started,fixcross.stopped,ITI.stopped,color_to_key_run.started,stimulus_CTK.started,keyResp_CTK.started,color_to_key_run.stopped,trials_CTK.keyResp_CTK.keys,trials_CTK.keyResp_CTK.corr,trials_CTK.keyResp_CTK.rt,trials_CTK.keyResp_CTK.duration,instr_practice.started,instr_practice_text.started,instr_practice_resp.started,instr_practice.stopped,instr_practice_resp.keys,instr_practice_resp.rt,instr_practice_resp.duration,practice_run.started,stimulus_practice.started,respPractice.started,practice_run.stopped,trials_practice.respPractice.keys,trials_practice.respPractice.corr,trials_practice.respPractice.rt,trials_practice.respPractice.duration,feedback.started,textFeedback.started,textFeedback.stopped,feedback.stopped,instr_test.started,instr_test_text.started,instr_test_resp.started,instr_test.stopped,instr_test_resp.keys,instr_test_resp.rt,instr_test_resp.duration,test_run.started,stimulus_test_run.started,keyResp_test_run.started,test_run.stopped,trials_test.keyResp_test_run.keys,trials_test.keyResp_test_run.corr,trials_test.keyResp_test_run.rt,trials_test.keyResp_test_run.duration,goodbye.started,textGoodbye.started,goodbye.stopped,participant,session,expName,frameRate,Unnamed: 112
,,,,,,,,,,,,,,,,,,,,,,,,,,,,,,,,,,,,,,,,,0.0014499998651444,0.0396996000781655,0.0396996000781655,0.0396996000781655,87.4145855999086,space,87.36519940011203,,,,,,,,,,,,,,,,,,,,,,,,,,,,,,,,,,,,,,,,,,,,,,,,,,,,,,,,,,sub-038,1,stroop_test,60.08813722330117,
,,,,,,,,,,,,,,,,,,,,,,,,,,,,,,,,,,,,,,,,,,,,,,,,,87.41464219987392,87.42757910001092,87.42757910001092,100.0854807998985,space,12.656165499938652,,,,,,,,,,,,,,,,,,,,,,,,,,,,,,,,,,,,,,,,,,,,,,,,,,,sub-038,1,stroop_test,60.08813722330117,
test,blue,b,1.0,0.0,0.0,0.0,b,1.0,2.166891499888152,,,,,,,,,,,,,,,,,,0.0,0.0,0.0,2.0,,,,,,,,,100.10047159995884,,,,,,,,,,,,,,,,,100.09410570003092,100.90012419992128,101.69948489987291,101.68377349991351,101.69018450006844,101.69948489987291,101.69948489987291,103.88256679987536,b,1.0,2.166891499888152,,,,,,,,,,,,,,,,,,,,,,,,,,,,,,,,,,,,,,,sub-038,1,stroop_test,60.08813722330117,
test,yellow,g,1.0,1.0,1.0,0.0,g,1.0,2.2921017999760807,,,,,,,,,,,,,,,,,,0.0,1.0,1.0,1.0,,,,,,,,,103.89756419998594,,,,,,,,,,,,,,,,,103.88294310006312,104.24718900001608,105.04657229990698,105.03089100006036,105.03154459991492,105.04657229990698,105.04657229990698,107.34542590007186,g,1.0,2.2921017999760807,,,,,,,,,,,,,,,,,,,,,,,,,,,,,,,,,,,,,,,sub-038,1,stroop_test,60.08813722330117,
test,red,r,1.0,2.0,2.0,0.0,r,1.0,1.2431982001289723,,,,,,,,,,,,,,,,,,0.0,2.0,2.0,0.0,,,,,,,,,107.36126590007916,,,,,,,,,,,,,,,,,107.34562180005014,108.56027880008332,109.35963499988428,109.343590100063,109.34418269991876,109.35963499988428,109.35963499988428,110.60962400003336,r,1.0,1.2431982001289723,,,,,,,,,,,,,,,,,,,,,,,,,,,,,,,,,,,,,,,sub-038,1,stroop_test,60.08813722330117,
test,red,r,1.0,3.0,0.0,1.0,r,1.0,0.9010640000924468,,,,,,,,,,,,,,,,,,1.0,0.0,3.0,0.0,,,,,,,,,110.62515960005112,,,,,,,,,,,,,,,,,110.60998669988476,110.72502709995024,111.52452640002592,111.508404500084,111.5087993000634,111.52452640002592,111.52452640002592,112.44137539993972,r,1.0,0.9010640000924468,,,,,,,,,,,,,,,,,,,,,,,,,,,,,,,,,,,,,,,sub-038,1,stroop_test,60.08813722330117,
test,blue,b,1.0,4.0,1.0,1.0,b,1.0,1.2888499998953191,,,,,,,,,,,,,,,,,,1.0,1.0,4.0,2.0,,,,,,,,,112.45693399989976,,,,,,,,,,,,,,,,,112.44169329991564,112.80684500001372,113.60610460001044,113.5900775999762,113.59049069997856,113.60610460001044,113.60610460001044,114.90610729996116,b,1.0,1.2888499998953191,,,,,,,,,,,,,,,,,,,,,,,,,,,,,,,,,,,,,,,sub-038,1,stroop_test,60.08813722330117,
test,yellow,g,1.0,5.0,2.0,1.0,g,1.0,1.706371400039643,,,,,,,,,,,,,,,,,,1.0,2.0,5.0,1.0,,,,,,,,,114.92160789994524,,,,,,,,,,,,,,,,,114.90641420008616,115.27139539993368,116.07082149991766,116.05458509991875,116.05500649986789,116.07082149991766,116.07082149991766,117.78655619989148,g,1.0,1.706371400039643,,,,,,,,,,,,,,,,,,,,,,,,,,,,,,,,,,,,,,,sub-038,1,stroop_test,60.08813722330117,
test,red,r,1.0,6.0,0.0,2.0,r,1.0,0.788941300008446,,,,,,,,,,,,,,,,,,2.0,0.0,6.0,0.0,,,,,,,,,117.80258539994249,,,,,,,,,,,,,,,,,117.78673729998992,118.13578570005484,118.93491699988954,118.91904599987902,118.91947599989362,118.93491699988954,118.93491699988954,119.73488950007597,r,1.0,0.788941300008446,,,,,,,,,,,,,,,,,,,,,,,,,,,,,,,,,,,,,,,sub-038,1,stroop_test,60.08813722330117,
test,yellow,g,1.0,7.0,1.0,2.0,g,1.0,1.32902429997921,,,,,,,,,,,,,,,,,,2.0,1.0,7.0,1.0,,,,,,,,,119.75104660005309,,,,,,,,,,,,,,,,,119.73506770003588,120.95025529991835,121.74951760005206,121.733881900087,121.73431820003316,121.74951760005206,121.74951760005206,123.0830421000719,g,1.0,1.32902429997921,,,,,,,,,,,,,,,,,,,,,,,,,,,,,,,,,,,,,,,sub-038,1,stroop_test,60.08813722330117,
test,blue,b,1.0,8.0,2.0,2.0,b,1.0,1.1455972001422197,,,,,,,,,,,,,,,,,,2.0,2.0,8.0,2.0,,,,,,,,,123.09843989997172,,,,,,,,,,,,,,,,,123.0833535999991,124.29744099988602,125.09676690003836,125.08097449992783,125.08134380006231,125.09676690003836,125.09676690003836,126.24731889995746,b,1.0,1.1455972001422197,,,,,,,,,,,,,,,,,,,,,,,,,,,,,,,,,,,,,,,sub-038,1,stroop_test,60.08813722330117,
test,blue,b,1.0,9.0,0.0,3.0,b,1.0,1.2926018999423832,,,,,,,,,,,,,,,,,,3.0,0.0,9.0,2.0,,,,,,,,,126.26243379991502,,,,,,,,,,,,,,,,,126.24763510003686,127.46158710005692,128.26059699989855,128.24518229998648,128.24583339993842,128.26059699989855,128.26059699989855,129.5607161000371,b,1.0,1.2926018999423832,,,,,,,,,,,,,,,,,,,,,,,,,,,,,,,,,,,,,,,sub-038,1,stroop_test,60.08813722330117,
test,red,r,1.0,10.0,1.0,3.0,r,1.0,0.8886808999814093,,,,,,,,,,,,,,,,,,3.0,1.0,10.0,0.0,,,,,,,,,129.57635540002957,,,,,,,,,,,,,,,,,129.56105119991116,130.37583469995295,131.17498210002668,131.15922109992243,131.1598437000066,131.17498210002668,131.17498210002668,132.07595199998468,r,1.0,0.8886808999814093,,,,,,,,,,,,,,,,,,,,,,,,,,,,,,,,,,,,,,,sub-038,1,stroop_test,60.08813722330117,
test,yellow,g,1.0,11.0,2.0,3.0,g,1.0,0.6616764001082629,,,,,,,,,,,,,,,,,,3.0,2.0,11.0,1.0,,,,,,,,,132.09100380004384,,,,,,,,,,,,,,,,,132.07630830002017,132.19086529989727,132.99008319992572,132.97421619994566,132.97465059999377,132.99008319992572,132.99008319992572,133.6568654999137,g,1.0,0.6616764001082629,,,,,,,,,,,,,,,,,,,,,,,,,,,,,,,,,,,,,,,sub-038,1,stroop_test,60.08813722330117,
,,,,,,,,,,,,,,,,,,,,,,,,,,,,,,,,,,,,,,,,,,,,,,,,,,,,,,,,,,,,,,,,,,,,133.65695860004053,133.67304169991985,133.67304169991985,141.0842061000876,space,7.403807200025767,,,,,,,,,,,,,,,,,,,,,,,,,,,,,,,,sub-038,1,stroop_test,60.08813722330117,
,,,,0.0,0.0,0.0,,,,,rot,red,r,1.0,r,1.0,1.2945926999673247,,,,,,,,,,,,,,0.0,0.0,0.0,1.0,,,,,141.10012289998122,,,,,,,,,,,,,,,,,141.08986139995977,141.44969769986346,142.24916450004093,142.23351250006817,,,,,,,,,,,,,,,,142.23888060008176,142.24916450004093,142.24916450004093,143.548906999873,r,1.0,1.2945926999673247,,143.55401679989882,143.5645292000845,144.5639412999153,144.548090999946,,,,,,,,,,,,,,,,,,,sub-038,1,stroop_test,60.08813722330117,
,,,,1.0,1.0,0.0,,,,,gelb,yellow,g,1.0,g,1.0,1.1505724999587983,,,,,,,,,,,,,,0.0,1.0,1.0,11.0,,,,,144.5639412999153,,,,,,,,,,,,,,,,,144.54846209986135,145.3634748000186,146.16274979989976,146.14719659998082,,,,,,,,,,,,,,,,146.15215929993428,146.16274979989976,146.16274979989976,147.32977270008996,g,1.0,1.1505724999587983,,147.3302730000578,147.34524819999933,,148.34435810009018,,,,,,,,,,,,,,,,,,,sub-038,1,stroop_test,60.08813722330117,
,,,,2.0,2.0,0.0,,,,,blau,yellow,g,0.0,g,1.0,0.906387299997732,,,,,,,,,,,,,,0.0,2.0,2.0,7.0,,,,,148.36084489990026,,,,,,,,,,,,,,,,,148.3447141998913,149.14369659987278,149.94271439989097,149.9269342999905,,,,,,,,,,,,,,,,149.93198130000383,149.94271439989097,149.94271439989097,150.85965320002288,g,1.0,0.906387299997732,,150.85995010007173,150.8752190999221,151.8745520999655,151.8585890000686,,,,,,,,,,,,,,,,,,,sub-038,1,stroop_test,60.08813722330117,
,,,,3.0,3.0,0.0,,,,,gelb,yellow,g,1.0,g,1.0,1.1783185999374837,,,,,,,,,,,,,,0.0,3.0,3.0,10.0,,,,,151.8745520999655,,,,,,,,,,,,,,,,,151.85882139997557,152.2245481000282,153.04011529986747,153.0239784999285,,,,,,,,,,,,,,,,153.02617420000024,153.04011529986747,153.04011529986747,154.22414589999244,g,1.0,1.1783185999374837,,154.22464799997397,154.23933769995347,155.23863040003926,155.22278389986604,,,,,,,,,,,,,,,,,,,sub-038,1,stroop_test,60.08813722330117,
,,,,4.0,4.0,0.0,,,,,gelb,red,r,0.0,r,1.0,0.9915261999703944,,,,,,,,,,,,,,0.0,4.0,4.0,8.0,,,,,155.23863040003926,,,,,,,,,,,,,,,,,155.22310629999265,155.33840220002455,156.13813559990376,156.1217765000183,,,,,,,,,,,,,,,,156.12227279995568,156.13813559990376,156.13813559990376,157.13772720005363,r,1.0,0.9915261999703944,,157.1381234000437,157.1536339998711,158.15282869990915,158.13690260006115,,,,,,,,,,,,,,,,,,,sub-038,1,stroop_test,60.08813722330117,
,,,,5.0,5.0,0.0,,,,,blau,red,r,0.0,r,1.0,0.9040018999949098,,,,,,,,,,,,,,0.0,5.0,5.0,4.0,,,,,158.15282869990915,,,,,,,,,,,,,,,,,158.13720709993504,159.35189089993946,160.1510495999828,160.13548860000446,,,,,,,,,,,,,,,,160.13904000003822,160.1510495999828,160.1510495999828,161.06777149997652,r,1.0,0.9040018999949098,,161.06810749997385,161.08363080001436,162.08285910007544,162.06710590003058,,,,,,,,,,,,,,,,,,,sub-038,1,stroop_test,60.08813722330117,
,,,,6.0,6.0,0.0,,,,,rot,yellow,g,0.0,g,1.0,0.796668800059706,,,,,,,,,,,,,,0.0,6.0,6.0,3.0,,,,,162.08285910007544,,,,,,,,,,,,,,,,,162.06751549988985,162.88207729998976,163.68143719993532,163.66558729996905,,,,,,,,,,,,,,,,163.66841749986634,163.68143719993532,163.68143719993532,164.48209060006775,g,1.0,0.796668800059706,,164.48256579996087,164.4974768999964,165.4966873000376,165.48075699992478,,,,,,,,,,,,,,,,,,,sub-038,1,stroop_test,60.08813722330117,
,,,,7.0,7.0,0.0,,,,,rot,red,r,1.0,r,1.0,0.7496044998988509,,,,,,,,,,,,,,0.0,7.0,7.0,0.0,,,,,165.4966873000376,,,,,,,,,,,,,,,,,165.48105439986102,166.29595199995674,167.09553189994767,167.07960220007226,,,,,,,,,,,,,,,,167.08003870001994,167.09553189994767,167.09553189994767,167.84697569999844,r,1.0,0.7496044998988509,,167.8474669000134,167.8613827000372,168.86058679991402,168.84456579992548,,,,,,,,,,,,,,,,,,,sub-038,1,stroop_test,60.08813722330117,
,,,,8.0,8.0,0.0,,,,,rot,blue,b,0.0,b,1.0,0.5886789001524448,,,,,,,,,,,,,,0.0,8.0,8.0,2.0,,,,,168.86058679991402,,,,,,,,,,,,,,,,,168.8448638999835,170.05952850007452,170.85888929991052,170.84324919991195,,,,,,,,,,,,,,,,170.84390849992633,170.85888929991052,170.85888929991052,171.46048230002634,b,1.0,0.5886789001524448,,171.46111740008928,171.47527100006118,,172.47450440004468,,,,,,,,,,,,,,,,,,,sub-038,1,stroop_test,60.08813722330117,
,,,,9.0,9.0,0.0,,,,,gelb,blue,b,0.0,b,1.0,0.7488465001806617,,,,,,,,,,,,,,0.0,9.0,9.0,9.0,,,,,172.49090570001863,,,,,,,,,,,,,,,,,172.47483219997957,172.82393689989112,173.62353509990498,173.60723229986615,,,,,,,,,,,,,,,,173.61053259996697,173.62353509990498,173.62353509990498,174.37387500004843,b,1.0,0.7488465001806617,,174.37432050006464,174.38942410005257,175.38874550000764,175.3730301000178,,,,,,,,,,,,,,,,,,,sub-038,1,stroop_test,60.08813722330117,
,,,,10.0,10.0,0.0,,,,,blau,blue,b,1.0,b,1.0,0.6838018998969346,,,,,,,,,,,,,,0.0,10.0,10.0,6.0,,,,,175.38874550000764,,,,,,,,,,,,,,,,,175.37343939999118,176.18812930001877,176.9871694999747,176.97133329999633,,,,,,,,,,,,,,,,176.9737354000099,176.9871694999747,176.9871694999747,177.68710760003887,b,1.0,0.6838018998969346,,177.68739319988526,177.70325560006313,178.7023825000506,178.68672690005042,,,,,,,,,,,,,,,,,,,sub-038,1,stroop_test,60.08813722330117,
,,,,11.0,11.0,0.0,,,,,blau,blue,b,1.0,b,1.0,0.650836099870503,,,,,,,,,,,,,,0.0,11.0,11.0,5.0,,,,,178.7023825000506,,,,,,,,,,,,,,,,,178.68705020006746,178.80235449993052,179.6020493998658,179.5857506999746,,,,,,,,,,,,,,,,179.58625499997288,179.6020493998658,179.6020493998658,180.26885819993916,b,1.0,0.650836099870503,,180.26930140005425,180.2846520000603,181.2837831999641,181.2677019999828,,,,,,,,,,,,,,,,,,,sub-038,1,stroop_test,60.08813722330117,
,,,,12.0,0.0,1.0,,,,,gelb,red,r,0.0,r,1.0,0.4576522998977452,,,,,,,,,,,,,,1.0,0.0,12.0,8.0,,,,,181.2837831999641,,,,,,,,,,,,,,,,,181.26802529999983,182.08306209999137,182.8987771999091,182.88298140000552,,,,,,,,,,,,,,,,182.8857863000594,182.8987771999091,182.8987771999091,183.36638689995743,r,1.0,0.4576522998977452,,183.36699440004304,183.38151109986936,184.3809581999667,184.36523659992963,,,,,,,,,,,,,,,,,,,sub-038,1,stroop_test,60.08813722330117,
,,,,13.0,1.0,1.0,,,,,blau,yellow,g,0.0,g,1.0,0.4832258999813348,,,,,,,,,,,,,,1.0,1.0,13.0,7.0,,,,,184.3809581999667,,,,,,,,,,,,,,,,,184.365773800062,185.57999980007295,186.37930579995736,186.36356309987605,,,,,,,,,,,,,,,,186.36713310005143,186.37930579995736,186.37930579995736,186.879133499926,g,1.0,0.4832258999813348,,186.87944659986533,186.89519429998472,187.8945758000482,187.87898769997992,,,,,,,,,,,,,,,,,,,sub-038,1,stroop_test,60.08813722330117,
,,,,14.0,2.0,1.0,,,,,rot,red,r,1.0,r,1.0,0.8446889000479132,,,,,,,,,,,,,,1.0,2.0,14.0,1.0,,,,,187.8945758000482,,,,,,,,,,,,,,,,,187.87944709998555,187.99457659991455,188.7939536999911,188.77814359986223,,,,,,,,,,,,,,,,188.78147859987803,188.7939536999911,188.7939536999911,189.6440491999965,r,1.0,0.8446889000479132,,189.64446399989535,189.65958089986816,190.6589579998981,190.64318910008296,,,,,,,,,,,,,,,,,,,sub-038,1,stroop_test,60.08813722330117,
,,,,15.0,3.0,1.0,,,,,blau,red,r,0.0,r,1.0,1.599067599978298,,,,,,,,,,,,,,1.0,3.0,15.0,4.0,,,,,190.6589579998981,,,,,,,,,,,,,,,,,190.64349259994924,191.00875149993223,191.80814049998295,191.7925418999512,,,,,,,,,,,,,,,,191.7959539000876,191.80814049998295,191.80814049998295,193.40916360006668,r,1.0,1.599067599978298,,193.4097243000288,193.4234994999133,194.4225286000874,194.40700770006515,,,,,,,,,,,,,,,,,,,sub-038,1,stroop_test,60.08813722330117,
,,,,16.0,4.0,1.0,,,,,gelb,blue,b,0.0,b,1.0,0.8387214001268148,,,,,,,,,,,,,,1.0,4.0,16.0,9.0,,,,,194.4225286000874,,,,,,,,,,,,,,,,,194.407499599969,195.22200229996812,196.02136499993503,196.00573839992285,,,,,,,,,,,,,,,,196.00939040002413,196.02136499993503,196.02136499993503,196.8713008998893,b,1.0,0.8387214001268148,,196.87157139997,196.88688190001997,197.88662940007637,197.8710423000157,,,,,,,,,,,,,,,,,,,sub-038,1,stroop_test,60.08813722330117,
,,,,17.0,5.0,1.0,,,,,rot,red,r,1.0,r,1.0,0.9805320000741632,,,,,,,,,,,,,,1.0,5.0,17.0,0.0,,,,,197.88662940007637,,,,,,,,,,,,,,,,,197.8716519998852,197.9861902999692,198.78539599990472,198.7698506000452,,,,,,,,,,,,,,,,198.77323859999888,198.78539599990472,198.78539599990472,199.76981079997492,r,1.0,0.9805320000741632,,199.7703658998944,199.78475750004876,200.7839653000701,200.7685213999357,,,,,,,,,,,,,,,,,,,sub-038,1,stroop_test,60.08813722330117,
,,,,18.0,6.0,1.0,,,,,blau,blue,b,1.0,b,1.0,1.1147741000168023,,,,,,,,,,,,,,1.0,6.0,18.0,6.0,,,,,200.7839653000701,,,,,,,,,,,,,,,,,200.7689114999957,200.88397309998984,201.68337089987472,201.66745990002528,,,,,,,,,,,,,,,,201.6705638000276,201.68337089987472,201.68337089987472,202.80102950008583,b,1.0,1.1147741000168023,,202.80147129995748,202.81549110007472,203.8146416998934,203.7988042999059,,,,,,,,,,,,,,,,,,,sub-038,1,stroop_test,60.08813722330117,
,,,,19.0,7.0,1.0,,,,,rot,blue,b,0.0,b,1.0,1.0620347000658512,,,,,,,,,,,,,,1.0,7.0,19.0,2.0,,,,,203.8146416998934,,,,,,,,,,,,,,,,,203.7991462999489,203.9145506999921,204.71395129989835,204.69779610005207,,,,,,,,,,,,,,,,204.69953970005736,204.71395129989835,204.71395129989835,205.78075210005045,b,1.0,1.0620347000658512,,205.7812063000165,205.7962112999521,206.7956290000584,206.7801643998828,,,,,,,,,,,,,,,,,,,sub-038,1,stroop_test,60.08813722330117,
,,,,20.0,8.0,1.0,,,,,gelb,yellow,g,1.0,g,1.0,1.306242800084874,,,,,,,,,,,,,,1.0,8.0,20.0,10.0,,,,,206.7956290000584,,,,,,,,,,,,,,,,,206.78049749997444,207.99463650002144,208.7938310999889,208.7781795000192,,,,,,,,,,,,,,,,208.78146689990533,208.7938310999889,208.7938310999889,210.1110835999716,g,1.0,1.306242800084874,,210.11160459998064,210.12613089988008,211.12558019999412,211.10977540002204,,,,,,,,,,,,,,,,,,,sub-038,1,stroop_test,60.08813722330117,
,,,,21.0,9.0,1.0,,,,,blau,blue,b,1.0,b,1.0,0.7893568999134004,,,,,,,,,,,,,,1.0,9.0,21.0,5.0,,,,,211.12558019999412,,,,,,,,,,,,,,,,,211.1101812000852,211.4753469999414,212.27475590002723,212.2591150999069,,,,,,,,,,,,,,,,212.2622143998742,212.27475590002723,212.27475590002723,213.0743136999663,b,1.0,0.7893568999134004,,213.0746112999041,213.09026050008836,214.08977629989383,214.07420419994745,,,,,,,,,,,,,,,,,,,sub-038,1,stroop_test,60.08813722330117,
,,,,22.0,10.0,1.0,,,,,gelb,yellow,g,1.0,g,1.0,0.7000543000176549,,,,,,,,,,,,,,1.0,10.0,22.0,11.0,,,,,214.08977629989383,,,,,,,,,,,,,,,,,214.0745918999892,215.28865040000528,216.0879919999279,216.0720665999688,,,,,,,,,,,,,,,,216.0750084999017,216.0879919999279,216.0879919999279,216.7903189000208,g,1.0,0.7000543000176549,,216.7908838998992,216.80414350004867,217.80309719988145,217.7874892000109,,,,,,,,,,,,,,,,,,,sub-038,1,stroop_test,60.08813722330117,
,,,,23.0,11.0,1.0,,,,,rot,yellow,g,0.0,g,1.0,0.8788441000506282,,,,,,,,,,,,,,1.0,11.0,23.0,3.0,,,,,217.80309719988145,,,,,,,,,,,,,,,,,217.78776429989372,219.00246099988,219.8014924000017,219.7855517999269,,,,,,,,,,,,,,,,219.7882987000048,219.8014924000017,219.8014924000017,220.6853567999788,g,1.0,0.8788441000506282,,220.6859432999045,220.7009529999923,221.7002952999901,221.6843705000356,,,,,,,,,,,,,,,,,,,sub-038,1,stroop_test,60.08813722330117,
,,,,,,,,,,,,,,,,,,,,,,,,,,,,,,,,,,,,,,,,,,,,,,,,,,,,,,,,,,,,,,,,,,,,,,,,,,,,,,,,,,,,,,,221.68449790007435,221.7002952999901,221.7002952999901,244.76593609992412,space,23.05881169997156,,,,,,,,,,,,,sub-038,1,stroop_test,60.08813722330117,
,,,,0.0,0.0,0.0,,,,,,,,,,,,,gelb,red,r,0.0,r,1.0,1.4567285000812262,,,,,,,,,,0.0,0.0,0.0,8.0,244.7810831000097,,,,,,,,,,,,,,,,,244.7743523998652,245.58064649999145,246.3963987000752,246.3802062999457,,,,,,,,,,,,,,,,,,,,,,,,,,,,,,,,,,,246.38247790001333,246.3963987000752,246.3963987000752,247.8635018998757,r,1.0,1.4567285000812262,,,,,sub-038,1,stroop_test,60.08813722330117,
,,,,1.0,1.0,0.0,,,,,,,,,,,,,rot,red,r,1.0,r,1.0,0.7161588999442756,,,,,,,,,,0.0,1.0,1.0,1.0,247.87848309986293,,,,,,,,,,,,,,,,,247.86383989988823,248.67803200008348,249.47701300005428,249.46112119988535,,,,,,,,,,,,,,,,,,,,,,,,,,,,,,,,,,,249.46343800006437,249.47701300005428,249.47701300005428,250.19459469988945,r,1.0,0.7161588999442756,,,,,sub-038,1,stroop_test,60.08813722330117,
,,,,2.0,2.0,0.0,,,,,,,,,,,,,blau,yellow,g,0.0,g,1.0,0.7531167000997812,,,,,,,,,,0.0,2.0,2.0,7.0,250.20977339986712,,,,,,,,,,,,,,,,,250.1949442999903,250.3097745999694,251.10920459986664,251.0936358999461,,,,,,,,,,,,,,,,,,,,,,,,,,,,,,,,,,,251.0967208999209,251.10920459986664,251.10920459986664,251.8769694999792,g,1.0,0.7531167000997812,,,,,sub-038,1,stroop_test,60.08813722330117,
,,,,3.0,3.0,0.0,,,,,,,,,,,,,blau,blue,b,1.0,b,1.0,0.5810257999692112,,,,,,,,,,0.0,3.0,3.0,5.0,251.89189259987324,,,,,,,,,,,,,,,,,251.8773461999372,252.2417268999852,253.04110169992785,253.02530510001816,,,,,,,,,,,,,,,,,,,,,,,,,,,,,,,,,,,253.0258901999332,253.04110169992785,253.04110169992785,253.62547229998745,b,1.0,0.5810257999692112,,,,,sub-038,1,stroop_test,60.08813722330117,
,,,,4.0,4.0,0.0,,,,,,,,,,,,,gelb,yellow,g,1.0,g,1.0,0.8307956999633461,,,,,,,,,,0.0,4.0,4.0,11.0,253.6405819999054,,,,,,,,,,,,,,,,,253.6259133000858,254.83939910004847,255.63893190003,255.62309930007905,,,,,,,,,,,,,,,,,,,,,,,,,,,,,,,,,,,255.62676559994,255.63893190003,255.63893190003,256.4723600000143,g,1.0,0.8307956999633461,,,,,sub-038,1,stroop_test,60.08813722330117,
,,,,5.0,5.0,0.0,,,,,,,,,,,,,rot,red,r,1.0,r,1.0,0.4518575000111013,,,,,,,,,,0.0,5.0,5.0,0.0,256.48791090003215,,,,,,,,,,,,,,,,,256.4728220999241,257.28761169989593,258.08686310006306,258.07106860005297,,,,,,,,,,,,,,,,,,,,,,,,,,,,,,,,,,,258.0738876999821,258.08686310006306,258.08686310006306,258.55479989992455,r,1.0,0.4518575000111013,,,,,sub-038,1,stroop_test,60.08813722330117,
,,,,6.0,6.0,0.0,,,,,,,,,,,,,rot,yellow,g,0.0,g,1.0,0.6431763998698443,,,,,,,,,,0.0,6.0,6.0,3.0,258.56962669990025,,,,,,,,,,,,,,,,,258.5551628000103,259.76873870007694,260.5681723000016,260.55255190003663,,,,,,,,,,,,,,,,,,,,,,,,,,,,,,,,,,,260.55319319991395,260.5681723000016,260.5681723000016,261.21900649997406,g,1.0,0.6431763998698443,,,,,sub-038,1,stroop_test,60.08813722330117,
,,,,7.0,7.0,0.0,,,,,,,,,,,,,gelb,blue,b,0.0,b,1.0,0.6929316001478583,,,,,,,,,,0.0,7.0,7.0,9.0,261.2342717999127,,,,,,,,,,,,,,,,,261.2194032999687,262.43333979998715,263.2323244998697,263.2164254998788,,,,,,,,,,,,,,,,,,,,,,,,,,,,,,,,,,,263.2193585000932,263.2323244998697,263.2323244998697,263.9329939999152,b,1.0,0.6929316001478583,,,,,sub-038,1,stroop_test,60.08813722330117,
,,,,8.0,8.0,0.0,,,,,,,,,,,,,blau,blue,b,1.0,b,1.0,0.6019344001542777,,,,,,,,,,0.0,8.0,8.0,6.0,263.948384599993,,,,,,,,,,,,,,,,,263.9333013999276,264.7481507998891,265.547087199986,265.5314162999857,,,,,,,,,,,,,,,,,,,,,,,,,,,,,,,,,,,265.5333372000605,265.547087199986,265.547087199986,266.16448360006325,b,1.0,0.6019344001542777,,,,,sub-038,1,stroop_test,60.08813722330117,
,,,,9.0,9.0,0.0,,,,,,,,,,,,,blau,red,r,0.0,r,1.0,0.6277316000778228,,,,,,,,,,0.0,9.0,9.0,4.0,266.18004829995334,,,,,,,,,,,,,,,,,266.16495970007963,266.27991560008377,267.07962460001,267.06363460002467,,,,,,,,,,,,,,,,,,,,,,,,,,,,,,,,,,,267.06422599987127,267.07962460001,267.07962460001,267.7131483000703,r,1.0,0.6277316000778228,,,,,sub-038,1,stroop_test,60.08813722330117,
,,,,10.0,10.0,0.0,,,,,,,,,,,,,gelb,yellow,g,1.0,g,1.0,0.4397152999881655,,,,,,,,,,0.0,10.0,10.0,10.0,267.7288212000858,,,,,,,,,,,,,,,,,267.7134644999169,268.92818180006,269.727228899952,269.7115861000493,,,,,,,,,,,,,,,,,,,,,,,,,,,,,,,,,,,269.71740709990263,269.727228899952,269.727228899952,270.1788699999452,g,1.0,0.4397152999881655,,,,,sub-038,1,stroop_test,60.08813722330117,
,,,,11.0,11.0,0.0,,,,,,,,,,,,,rot,blue,b,0.0,b,1.0,0.6911420000251383,,,,,,,,,,0.0,11.0,11.0,2.0,270.1933804000728,,,,,,,,,,,,,,,,,270.1793464999646,271.3925177999772,272.19161229999736,272.1757173000369,,,,,,,,,,,,,,,,,,,,,,,,,,,,,,,,,,,272.17805889993906,272.19161229999736,272.19161229999736,272.8922407000791,b,1.0,0.6911420000251383,,,,,sub-038,1,stroop_test,60.08813722330117,
,,,,12.0,0.0,1.0,,,,,,,,,,,,,rot,red,r,1.0,r,1.0,0.6500975999515504,,,,,,,,,,1.0,0.0,12.0,0.0,272.90808239998296,,,,,,,,,,,,,,,,,272.89249880006537,273.7073653000407,274.52301730006,274.50679140002467,,,,,,,,,,,,,,,,,,,,,,,,,,,,,,,,,,,274.50713859987445,274.52301730006,274.52301730006,275.1754747000523,r,1.0,0.6500975999515504,,,,,sub-038,1,stroop_test,60.08813722330117,
,,,,13.0,1.0,1.0,,,,,,,,,,,,,rot,red,r,1.0,r,1.0,0.5640944999177009,,,,,,,,,,1.0,1.0,13.0,1.0,275.1892593000084,,,,,,,,,,,,,,,,,275.17590399994515,275.5390657999087,276.33843349991366,276.3228122999426,,,,,,,,,,,,,,,,,,,,,,,,,,,,,,,,,,,276.3233979998622,276.33843349991366,276.33843349991366,276.9061084999703,r,1.0,0.5640944999177009,,,,,sub-038,1,stroop_test,60.08813722330117,
,,,,14.0,2.0,1.0,,,,,,,,,,,,,blau,yellow,g,0.0,g,1.0,0.6802546000108123,,,,,,,,,,1.0,2.0,14.0,7.0,276.9214260999579,,,,,,,,,,,,,,,,,276.90660350001417,277.2709419000894,278.0701580999885,278.0541449000593,,,,,,,,,,,,,,,,,,,,,,,,,,,,,,,,,,,278.056099700043,278.0701580999885,278.0701580999885,278.75363859999925,g,1.0,0.6802546000108123,,,,,sub-038,1,stroop_test,60.08813722330117,
,,,,15.0,3.0,1.0,,,,,,,,,,,,,rot,yellow,g,0.0,g,1.0,0.7996786998119205,,,,,,,,,,1.0,3.0,15.0,3.0,278.7695480999537,,,,,,,,,,,,,,,,,278.7539108998608,279.56925450009294,280.36850559990853,280.3528273999691,,,,,,,,,,,,,,,,,,,,,,,,,,,,,,,,,,,280.3562030999456,280.36850559990853,280.36850559990853,281.1706548999064,g,1.0,0.7996786998119205,,,,,sub-038,1,stroop_test,60.08813722330117,
,,,,16.0,4.0,1.0,,,,,,,,,,,,,blau,blue,b,1.0,b,1.0,0.633036500075832,,,,,,,,,,1.0,4.0,16.0,5.0,281.1844446999021,,,,,,,,,,,,,,,,,281.1709946000483,281.53426299989223,282.33341319998726,282.3173010998871,,,,,,,,,,,,,,,,,,,,,,,,,,,,,,,,,,,282.31946430006064,282.33341319998726,282.33341319998726,282.96775269997306,b,1.0,0.633036500075832,,,,,sub-038,1,stroop_test,60.08813722330117,
,,,,17.0,5.0,1.0,,,,,,,,,,,,,blau,red,r,0.0,r,1.0,0.9195383999031036,,,,,,,,,,1.0,5.0,17.0,4.0,282.98262299993075,,,,,,,,,,,,,,,,,282.96802849997766,283.08273310004734,283.88227780000307,283.8664889000356,,,,,,,,,,,,,,,,,,,,,,,,,,,,,,,,,,,283.8671558999922,283.88227780000307,283.88227780000307,284.81574429990724,r,1.0,0.9195383999031036,,,,,sub-038,1,stroop_test,60.08813722330117,
,,,,18.0,6.0,1.0,,,,,,,,,,,,,rot,blue,b,0.0,b,1.0,0.595523800002411,,,,,,,,,,1.0,6.0,18.0,2.0,284.8311103999149,,,,,,,,,,,,,,,,,284.8160198999103,285.6307997000404,286.43044749996625,286.414437700063,,,,,,,,,,,,,,,,,,,,,,,,,,,,,,,,,,,286.4178406998981,286.43044749996625,286.43044749996625,287.0304884000216,b,1.0,0.595523800002411,,,,,sub-038,1,stroop_test,60.08813722330117,
,,,,19.0,7.0,1.0,,,,,,,,,,,,,gelb,blue,b,0.0,b,1.0,0.5510372000280768,,,,,,,,,,1.0,7.0,19.0,9.0,287.0460856000427,,,,,,,,,,,,,,,,,287.0307960999198,288.2453039998654,289.0444626999088,289.0287013000343,,,,,,,,,,,,,,,,,,,,,,,,,,,,,,,,,,,289.03133159992285,289.0444626999088,289.0444626999088,289.612258200068,b,1.0,0.5510372000280768,,,,,sub-038,1,stroop_test,60.08813722330117,
,,,,20.0,8.0,1.0,,,,,,,,,,,,,gelb,yellow,g,1.0,g,1.0,0.9715020000003278,,,,,,,,,,1.0,8.0,20.0,10.0,289.6275066998787,,,,,,,,,,,,,,,,,289.61261199996807,289.7276667999104,290.5268548000604,290.5112727999221,,,,,,,,,,,,,,,,,,,,,,,,,,,,,,,,,,,290.51198449986987,290.5268548000604,290.5268548000604,291.5108344999608,g,1.0,0.9715020000003278,,,,,sub-038,1,stroop_test,60.08813722330117,
,,,,21.0,9.0,1.0,,,,,,,,,,,,,blau,blue,b,1.0,b,1.0,0.5762288998812437,,,,,,,,,,1.0,9.0,21.0,6.0,291.52574940002523,,,,,,,,,,,,,,,,,291.51119700004347,292.72511140001006,293.5244368999265,293.5088319000788,,,,,,,,,,,,,,,,,,,,,,,,,,,,,,,,,,,293.512263600016,293.5244368999265,293.5244368999265,294.1089415999595,b,1.0,0.5762288998812437,,,,,sub-038,1,stroop_test,60.08813722330117,
,,,,22.0,10.0,1.0,,,,,,,,,,,,,gelb,red,r,0.0,r,1.0,0.5255886998493224,,,,,,,,,,1.0,10.0,22.0,8.0,294.1237538999412,,,,,,,,,,,,,,,,,294.1093888999894,294.4732456000056,295.2729742000811,295.25724840001203,,,,,,,,,,,,,,,,,,,,,,,,,,,,,,,,,,,295.2614480999764,295.2729742000811,295.2729742000811,295.8062036000192,r,1.0,0.5255886998493224,,,,,sub-038,1,stroop_test,60.08813722330117,
,,,,23.0,11.0,1.0,,,,,,,,,,,,,gelb,yellow,g,1.0,g,1.0,0.5205886999610811,,,,,,,,,,1.0,11.0,23.0,11.0,295.8221982000396,,,,,,,,,,,,,,,,,295.8064083000645,296.15556339989416,296.9549288998824,296.9391050999984,,,,,,,,,,,,,,,,,,,,,,,,,,,,,,,,,,,296.9396357999649,296.9549288998824,296.9549288998824,297.48888879991136,g,1.0,0.5205886999610811,,,,,sub-038,1,stroop_test,60.08813722330117,
,,,,24.0,0.0,2.0,,,,,,,,,,,,,blau,yellow,g,0.0,g,1.0,0.693213100079447,,,,,,,,,,2.0,0.0,24.0,7.0,297.50433459994383,,,,,,,,,,,,,,,,,297.4892206999939,297.8540509000886,298.6534994998947,298.6378283000085,,,,,,,,,,,,,,,,,,,,,,,,,,,,,,,,,,,298.6406034000684,298.6534994998947,298.6534994998947,299.35429399996065,g,1.0,0.693213100079447,,,,,sub-038,1,stroop_test,60.08813722330117,
,,,,25.0,1.0,2.0,,,,,,,,,,,,,rot,red,r,1.0,r,1.0,0.7970505999401212,,,,,,,,,,2.0,1.0,25.0,1.0,299.36922620004043,,,,,,,,,,,,,,,,,299.3548290000763,300.5684839999303,301.3675667999778,301.3518105000257,,,,,,,,,,,,,,,,,,,,,,,,,,,,,,,,,,,301.3545890999958,301.3675667999778,301.3675667999778,302.16839600005187,r,1.0,0.7970505999401212,,,,,sub-038,1,stroop_test,60.08813722330117,
,,,,26.0,2.0,2.0,,,,,,,,,,,,,gelb,blue,b,0.0,b,1.0,0.7932114000432193,,,,,,,,,,2.0,2.0,26.0,9.0,302.18377209990285,,,,,,,,,,,,,,,,,302.1687336000614,302.53347459994256,303.3329185999464,303.31733149988577,,,,,,,,,,,,,,,,,,,,,,,,,,,,,,,,,,,303.3206346000079,303.3329185999464,303.3329185999464,304.13408449990675,b,1.0,0.7932114000432193,,,,,sub-038,1,stroop_test,60.08813722330117,
,,,,27.0,3.0,2.0,,,,,,,,,,,,,blau,blue,b,1.0,b,1.0,0.5222692000679672,,,,,,,,,,2.0,3.0,27.0,6.0,304.1487131000031,,,,,,,,,,,,,,,,,304.1344955000095,304.9483026000671,305.7476413999684,305.73178820009343,,,,,,,,,,,,,,,,,,,,,,,,,,,,,,,,,,,305.73488510004245,305.7476413999684,305.7476413999684,306.28219729987904,b,1.0,0.5222692000679672,,,,,sub-038,1,stroop_test,60.08813722330117,
,,,,28.0,4.0,2.0,,,,,,,,,,,,,blau,red,r,0.0,r,1.0,0.8197592999786139,,,,,,,,,,2.0,4.0,28.0,4.0,306.29715740005486,,,,,,,,,,,,,,,,,306.28261459991336,306.6468509999104,307.4461159000639,307.4301473000087,,,,,,,,,,,,,,,,,,,,,,,,,,,,,,,,,,,307.4306103999261,307.4461159000639,307.4461159000639,308.2802752999123,r,1.0,0.8197592999786139,,,,,sub-038,1,stroop_test,60.08813722330117,
,,,,29.0,5.0,2.0,,,,,,,,,,,,,rot,red,r,1.0,r,1.0,0.7046099998988211,,,,,,,,,,2.0,5.0,29.0,0.0,308.295579199912,,,,,,,,,,,,,,,,,308.2806502999738,308.39539159997366,309.194829300046,309.17913990002126,,,,,,,,,,,,,,,,,,,,,,,,,,,,,,,,,,,309.1831559999846,309.194829300046,309.194829300046,309.9115178000648,r,1.0,0.7046099998988211,,,,,sub-038,1,stroop_test,60.08813722330117,
,,,,30.0,6.0,2.0,,,,,,,,,,,,,blau,blue,b,1.0,b,1.0,0.6201914001721889,,,,,,,,,,2.0,6.0,30.0,5.0,309.9275678000413,,,,,,,,,,,,,,,,,309.91180290002376,310.2606041999534,311.0596356999595,311.04418460000306,,,,,,,,,,,,,,,,,,,,,,,,,,,,,,,,,,,311.046963899862,311.0596356999595,311.0596356999595,311.6942195999436,b,1.0,0.6201914001721889,,,,,sub-038,1,stroop_test,60.08813722330117,
,,,,31.0,7.0,2.0,,,,,,,,,,,,,gelb,red,r,0.0,r,1.0,0.7641555999871343,,,,,,,,,,2.0,7.0,31.0,8.0,311.7093364999164,,,,,,,,,,,,,,,,,311.6945116000716,312.0588813999202,312.85852129990235,312.8427633000538,,,,,,,,,,,,,,,,,,,,,,,,,,,,,,,,,,,312.845914500067,312.85852129990235,312.85852129990235,313.6252573998645,r,1.0,0.7641555999871343,,,,,sub-038,1,stroop_test,60.08813722330117,
,,,,32.0,8.0,2.0,,,,,,,,,,,,,gelb,yellow,g,1.0,g,1.0,0.740451900055632,,,,,,,,,,2.0,8.0,32.0,11.0,313.6408603999298,,,,,,,,,,,,,,,,,313.62557319994085,314.8402551999316,315.65586899989285,315.6399409000296,,,,,,,,,,,,,,,,,,,,,,,,,,,,,,,,,,,315.6403623998631,315.65586899989285,315.65586899989285,316.4069207999855,g,1.0,0.740451900055632,,,,,sub-038,1,stroop_test,60.08813722330117,
,,,,33.0,9.0,2.0,,,,,,,,,,,,,rot,blue,b,0.0,b,1.0,0.6767969999928027,,,,,,,,,,2.0,9.0,33.0,2.0,316.42200529994443,,,,,,,,,,,,,,,,,316.40731889987364,316.7716347000096,317.57118900003843,317.55557349999435,,,,,,,,,,,,,,,,,,,,,,,,,,,,,,,,,,,317.55867150006816,317.57118900003843,317.57118900003843,318.255455999868,b,1.0,0.6767969999928027,,,,,sub-038,1,stroop_test,60.08813722330117,
,,,,34.0,10.0,2.0,,,,,,,,,,,,,gelb,yellow,g,1.0,g,1.0,0.7429088999051601,,,,,,,,,,2.0,10.0,34.0,10.0,318.2706055999733,,,,,,,,,,,,,,,,,318.25580110005103,318.620351199992,319.4196973000653,319.40392290009186,,,,,,,,,,,,,,,,,,,,,,,,,,,,,,,,,,,319.4068924000021,319.4196973000653,319.4196973000653,320.16991679999046,g,1.0,0.7429088999051601,,,,,sub-038,1,stroop_test,60.08813722330117,
,,,,35.0,11.0,2.0,,,,,,,,,,,,,rot,yellow,g,0.0,g,1.0,0.7597656000871211,,,,,,,,,,2.0,11.0,35.0,3.0,320.1853731998708,,,,,,,,,,,,,,,,,320.1702203999739,320.98511200002395,321.78409169986844,321.7681404000614,,,,,,,,,,,,,,,,,,,,,,,,,,,,,,,,,,,321.77052460005507,321.78409169986844,321.78409169986844,322.55208460008726,g,1.0,0.7597656000871211,,,,,sub-038,1,stroop_test,60.08813722330117,
,,,,36.0,0.0,3.0,,,,,,,,,,,,,gelb,yellow,g,1.0,g,1.0,0.6539455000311136,,,,,,,,,,3.0,0.0,36.0,11.0,322.56718440004624,,,,,,,,,,,,,,,,,322.5524665999692,322.9165966999717,323.7158120998647,323.7000923000742,,,,,,,,,,,,,,,,,,,,,,,,,,,,,,,,,,,323.7030944998842,323.7158120998647,323.7158120998647,324.38290179986507,g,1.0,0.6539455000311136,,,,,sub-038,1,stroop_test,60.08813722330117,
,,,,37.0,1.0,3.0,,,,,,,,,,,,,blau,red,r,0.0,r,1.0,0.7221341000404209,,,,,,,,,,3.0,1.0,37.0,4.0,324.3984773000702,,,,,,,,,,,,,,,,,324.3831756999716,324.7482680999674,325.54810329992324,325.53230910003185,,,,,,,,,,,,,,,,,,,,,,,,,,,,,,,,,,,325.53558819997124,325.54810329992324,325.54810329992324,326.2824329000432,r,1.0,0.7221341000404209,,,,,sub-038,1,stroop_test,60.08813722330117,
,,,,38.0,2.0,3.0,,,,,,,,,,,,,gelb,red,r,0.0,r,1.0,0.6350577999837697,,,,,,,,,,3.0,2.0,38.0,8.0,326.2973909000866,,,,,,,,,,,,,,,,,326.2827860999387,326.39722339995205,327.19658009987324,327.1810381000396,,,,,,,,,,,,,,,,,,,,,,,,,,,,,,,,,,,327.1849682999309,327.19658009987324,327.19658009987324,327.8478973999154,r,1.0,0.6350577999837697,,,,,sub-038,1,stroop_test,60.08813722330117,
,,,,39.0,3.0,3.0,,,,,,,,,,,,,rot,blue,b,0.0,b,1.0,0.4811598001979291,,,,,,,,,,3.0,3.0,39.0,2.0,327.8625332999509,,,,,,,,,,,,,,,,,327.8483497998677,329.06195920007303,329.86131690000184,329.8455053998623,,,,,,,,,,,,,,,,,,,,,,,,,,,,,,,,,,,329.8488449999131,329.86131690000184,329.86131690000184,330.345598399872,b,1.0,0.4811598001979291,,,,,sub-038,1,stroop_test,60.08813722330117,
,,,,40.0,4.0,3.0,,,,,,,,,,,,,blau,yellow,g,0.0,g,1.0,0.7556713002268225,,,,,,,,,,3.0,4.0,40.0,7.0,330.36053920001723,,,,,,,,,,,,,,,,,330.3459926000796,330.46077049989253,331.2599525998812,331.24410369992256,,,,,,,,,,,,,,,,,,,,,,,,,,,,,,,,,,,331.24734980007634,331.2599525998812,331.2599525998812,332.0275536000263,g,1.0,0.7556713002268225,,,,,sub-038,1,stroop_test,60.08813722330117,
,,,,41.0,5.0,3.0,,,,,,,,,,,,,gelb,blue,b,0.0,b,1.0,1.000351200113073,,,,,,,,,,3.0,5.0,41.0,9.0,332.04243019991554,,,,,,,,,,,,,,,,,332.0281662000343,333.2420677000191,334.04101729998365,334.0252918000333,,,,,,,,,,,,,,,,,,,,,,,,,,,,,,,,,,,334.02902329992503,334.04101729998365,334.04101729998365,335.0575957999099,b,1.0,1.000351200113073,,,,,sub-038,1,stroop_test,60.08813722330117,
,,,,42.0,6.0,3.0,,,,,,,,,,,,,rot,red,r,1.0,r,1.0,0.7287203001324087,,,,,,,,,,3.0,6.0,42.0,0.0,335.0735142000485,,,,,,,,,,,,,,,,,335.057790099876,335.42299150000326,336.22258189995773,336.20684379991144,,,,,,,,,,,,,,,,,,,,,,,,,,,,,,,,,,,336.2106463999953,336.22258189995773,336.22258189995773,336.956655099988,r,1.0,0.7287203001324087,,,,,sub-038,1,stroop_test,60.08813722330117,
,,,,43.0,7.0,3.0,,,,,,,,,,,,,gelb,yellow,g,1.0,g,1.0,0.6873792000114918,,,,,,,,,,3.0,7.0,43.0,10.0,336.971753400052,,,,,,,,,,,,,,,,,336.9570281000342,338.1708529999014,338.9702890000772,338.9544015999418,,,,,,,,,,,,,,,,,,,,,,,,,,,,,,,,,,,338.958169599995,338.9702890000772,338.9702890000772,339.6712805998977,g,1.0,0.6873792000114918,,,,,sub-038,1,stroop_test,60.08813722330117,
,,,,44.0,8.0,3.0,,,,,,,,,,,,,blau,blue,b,1.0,b,1.0,0.5883649999741465,,,,,,,,,,3.0,8.0,44.0,5.0,339.6862001998816,,,,,,,,,,,,,,,,,339.6716909999959,340.88546740007587,341.6844430998899,341.66900120000355,,,,,,,,,,,,,,,,,,,,,,,,,,,,,,,,,,,341.6721421999391,341.6844430998899,341.6844430998899,342.2849270000588,b,1.0,0.5883649999741465,,,,,sub-038,1,stroop_test,60.08813722330117,
,,,,45.0,9.0,3.0,,,,,,,,,,,,,blau,blue,b,1.0,b,1.0,0.578585600014776,,,,,,,,,,3.0,9.0,45.0,6.0,342.3006605000701,,,,,,,,,,,,,,,,,342.2852276000194,343.49965190002695,344.29933739989065,344.2833994999528,,,,,,,,,,,,,,,,,,,,,,,,,,,,,,,,,,,344.28397220000625,344.29933739989065,344.29933739989065,344.88389529986307,b,1.0,0.578585600014776,,,,,sub-038,1,stroop_test,60.08813722330117,
,,,,46.0,10.0,3.0,,,,,,,,,,,,,rot,yellow,g,0.0,g,1.0,0.7756111999042332,,,,,,,,,,3.0,10.0,46.0,3.0,344.898766099941,,,,,,,,,,,,,,,,,344.8843501000665,346.0978655999061,346.89701489987783,346.8813038999215,,,,,,,,,,,,,,,,,,,,,,,,,,,,,,,,,,,346.8843131000176,346.89701489987783,346.89701489987783,347.6813213999849,g,1.0,0.7756111999042332,,,,,sub-038,1,stroop_test,60.08813722330117,
,,,,47.0,11.0,3.0,,,,,,,,,,,,,rot,red,r,1.0,r,1.0,0.6494894998613745,,,,,,,,,,3.0,11.0,47.0,1.0,347.6963180999737,,,,,,,,,,,,,,,,,347.6817065998912,348.89554479997605,349.6947752998676,349.6792395999655,,,,,,,,,,,,,,,,,,,,,,,,,,,,,,,,,,,349.67992700007744,349.6947752998676,349.6947752998676,350.34635680005886,r,1.0,0.6494894998613745,,,,,sub-038,1,stroop_test,60.08813722330117,
,,,,48.0,0.0,4.0,,,,,,,,,,,,,gelb,yellow,g,1.0,g,1.0,0.6902874999213964,,,,,,,,,,4.0,0.0,48.0,11.0,350.3607616999652,,,,,,,,,,,,,,,,,350.346739300061,351.16017560008913,351.95945509988815,351.94400370004587,,,,,,,,,,,,,,,,,,,,,,,,,,,,,,,,,,,351.94756089989096,351.95945509988815,351.95945509988815,352.66040250007063,g,1.0,0.6902874999213964,,,,,sub-038,1,stroop_test,60.08813722330117,
,,,,49.0,1.0,4.0,,,,,,,,,,,,,blau,red,r,0.0,r,1.0,0.6709106001071632,,,,,,,,,,4.0,1.0,49.0,4.0,352.67553499992937,,,,,,,,,,,,,,,,,352.66081269993447,353.0254798999522,353.82451359997503,353.8087140999269,,,,,,,,,,,,,,,,,,,,,,,,,,,,,,,,,,,353.8111387998797,353.82451359997503,353.82451359997503,354.50794719997793,r,1.0,0.6709106001071632,,,,,sub-038,1,stroop_test,60.08813722330117,
,,,,50.0,2.0,4.0,,,,,,,,,,,,,blau,yellow,g,0.0,g,1.0,0.8145740998443216,,,,,,,,,,4.0,2.0,50.0,7.0,354.523973000003,,,,,,,,,,,,,,,,,354.5082606999204,354.607252900023,355.4063333000522,355.39128619991243,,,,,,,,,,,,,,,,,,,,,,,,,,,,,,,,,,,355.3922740998678,355.4063333000522,355.4063333000522,356.2238703998737,g,1.0,0.8145740998443216,,,,,sub-038,1,stroop_test,60.08813722330117,
,,,,51.0,3.0,4.0,,,,,,,,,,,,,gelb,yellow,g,1.0,g,1.0,0.537759100086987,,,,,,,,,,4.0,3.0,51.0,10.0,356.23923449986614,,,,,,,,,,,,,,,,,356.2241968999151,357.03880620002747,357.8380529000424,357.8224508999847,,,,,,,,,,,,,,,,,,,,,,,,,,,,,,,,,,,357.82580900006,357.8380529000424,357.8380529000424,358.38833509990945,g,1.0,0.537759100086987,,,,,sub-038,1,stroop_test,60.08813722330117,
,,,,52.0,4.0,4.0,,,,,,,,,,,,,rot,yellow,g,0.0,g,1.0,0.6469393998850137,,,,,,,,,,4.0,4.0,52.0,3.0,358.4042414999567,,,,,,,,,,,,,,,,,358.38858689996414,358.4874136000872,359.2864192998968,359.270717700012,,,,,,,,,,,,,,,,,,,,,,,,,,,,,,,,,,,359.273954999866,359.2864192998968,359.2864192998968,359.9377407000866,g,1.0,0.6469393998850137,,,,,sub-038,1,stroop_test,60.08813722330117,
,,,,53.0,5.0,4.0,,,,,,,,,,,,,blau,blue,b,1.0,b,1.0,0.589963500155136,,,,,,,,,,4.0,5.0,53.0,5.0,359.95274069998413,,,,,,,,,,,,,,,,,359.93810909986496,360.0527482999023,360.8518515999895,360.8362407998648,,,,,,,,,,,,,,,,,,,,,,,,,,,,,,,,,,,360.8393482998945,360.8518515999895,360.8518515999895,361.45334709994495,b,1.0,0.589963500155136,,,,,sub-038,1,stroop_test,60.08813722330117,
,,,,54.0,6.0,4.0,,,,,,,,,,,,,rot,blue,b,0.0,b,1.0,0.653266099980101,,,,,,,,,,4.0,6.0,54.0,2.0,361.46846170001663,,,,,,,,,,,,,,,,,361.45375570002943,362.6671847999096,363.46660419995897,363.4510321000125,,,,,,,,,,,,,,,,,,,,,,,,,,,,,,,,,,,363.45387990004383,363.46660419995897,363.46660419995897,364.1343000000343,b,1.0,0.653266099980101,,,,,sub-038,1,stroop_test,60.08813722330117,
,,,,55.0,7.0,4.0,,,,,,,,,,,,,gelb,red,r,0.0,r,1.0,0.6775191000197083,,,,,,,,,,4.0,7.0,55.0,8.0,364.1493724000175,,,,,,,,,,,,,,,,,364.134641499957,364.2494936999865,365.0489055998624,365.03310539992526,,,,,,,,,,,,,,,,,,,,,,,,,,,,,,,,,,,365.036158700008,365.0489055998624,365.0489055998624,365.73217079998,r,1.0,0.6775191000197083,,,,,sub-038,1,stroop_test,60.08813722330117,
,,,,56.0,8.0,4.0,,,,,,,,,,,,,blau,blue,b,1.0,b,1.0,0.6781063000671566,,,,,,,,,,4.0,8.0,56.0,6.0,365.747820599936,,,,,,,,,,,,,,,,,365.7324951000046,365.83118689991534,366.6306095998734,366.6146750999615,,,,,,,,,,,,,,,,,,,,,,,,,,,,,,,,,,,366.6170655998867,366.6306095998734,366.6306095998734,367.3152211999986,b,1.0,0.6781063000671566,,,,,sub-038,1,stroop_test,60.08813722330117,
,,,,57.0,9.0,4.0,,,,,,,,,,,,,gelb,blue,b,0.0,b,1.0,0.7068016999401152,,,,,,,,,,4.0,9.0,57.0,9.0,367.3302477998659,,,,,,,,,,,,,,,,,367.3155320000369,367.6799671000336,368.4789783998858,368.4632256999612,,,,,,,,,,,,,,,,,,,,,,,,,,,,,,,,,,,368.4666347999592,368.4789783998858,368.4789783998858,369.1968384999782,b,1.0,0.7068016999401152,,,,,sub-038,1,stroop_test,60.08813722330117,
,,,,58.0,10.0,4.0,,,,,,,,,,,,,rot,red,r,1.0,r,1.0,0.5671037998981774,,,,,,,,,,4.0,10.0,58.0,0.0,369.21201110002585,,,,,,,,,,,,,,,,,369.19721479993314,370.4113374999724,371.2269854999613,371.2113512998913,,,,,,,,,,,,,,,,,,,,,,,,,,,,,,,,,,,371.21437820000574,371.2269854999613,371.2269854999613,371.8113156999461,r,1.0,0.5671037998981774,,,,,sub-038,1,stroop_test,60.08813722330117,
,,,,59.0,11.0,4.0,,,,,,,,,,,,,rot,red,r,1.0,r,1.0,0.637733899988234,,,,,,,,,,4.0,11.0,59.0,1.0,371.82655899995007,,,,,,,,,,,,,,,,,371.8117062998936,373.0256105000153,373.8250205998775,373.8090780999046,,,,,,,,,,,,,,,,,,,,,,,,,,,,,,,,,,,373.8095166999847,373.8250205998775,373.8250205998775,374.4750506000128,r,1.0,0.637733899988234,,,,,sub-038,1,stroop_test,60.08813722330117,
,,,,60.0,0.0,5.0,,,,,,,,,,,,,rot,yellow,g,0.0,g,1.0,0.6228785999119282,,,,,,,,,,5.0,0.0,60.0,3.0,374.4909123000689,,,,,,,,,,,,,,,,,374.47538130008616,375.2903903999832,376.0897200000472,376.0740978999529,,,,,,,,,,,,,,,,,,,,,,,,,,,,,,,,,,,376.07466929988,376.0897200000472,376.0897200000472,376.7240947000682,g,1.0,0.6228785999119282,,,,,sub-038,1,stroop_test,60.08813722330117,
,,,,61.0,1.0,5.0,,,,,,,,,,,,,gelb,yellow,g,1.0,g,1.0,0.7206109999679029,,,,,,,,,,5.0,1.0,61.0,11.0,376.7391454998869,,,,,,,,,,,,,,,,,376.724441499915,377.0886735999957,377.88808699999936,377.8721431000158,,,,,,,,,,,,,,,,,,,,,,,,,,,,,,,,,,,377.87524609989487,377.88808699999936,377.88808699999936,378.6229296000674,g,1.0,0.7206109999679029,,,,,sub-038,1,stroop_test,60.08813722330117,
,,,,62.0,2.0,5.0,,,,,,,,,,,,,gelb,red,r,0.0,r,1.0,0.9622845998965204,,,,,,,,,,5.0,2.0,62.0,8.0,378.6375952998642,,,,,,,,,,,,,,,,,378.6233546999283,378.9871266998816,379.7863908999134,379.7705188998953,,,,,,,,,,,,,,,,,,,,,,,,,,,,,,,,,,,379.77092849998735,379.7863908999134,379.7863908999134,380.7541420999914,r,1.0,0.9622845998965204,,,,,sub-038,1,stroop_test,60.08813722330117,
,,,,63.0,3.0,5.0,,,,,,,,,,,,,gelb,yellow,g,1.0,g,1.0,0.6477944001089782,,,,,,,,,,5.0,3.0,63.0,10.0,380.769203600008,,,,,,,,,,,,,,,,,380.75450449995697,381.5683438000269,382.3675438000355,382.3518934000749,,,,,,,,,,,,,,,,,,,,,,,,,,,,,,,,,,,382.3522989000194,382.3675438000355,382.3675438000355,383.0182719998993,g,1.0,0.6477944001089782,,,,,sub-038,1,stroop_test,60.08813722330117,
,,,,64.0,4.0,5.0,,,,,,,,,,,,,rot,red,r,1.0,r,1.0,0.6330754000227898,,,,,,,,,,5.0,4.0,64.0,1.0,383.0336978998967,,,,,,,,,,,,,,,,,383.0185843000654,384.2329730000347,385.03242959990166,385.01665659993887,,,,,,,,,,,,,,,,,,,,,,,,,,,,,,,,,,,385.0195325999521,385.03242959990166,385.03242959990166,385.6672469999176,r,1.0,0.6330754000227898,,,,,sub-038,1,stroop_test,60.08813722330117,
,,,,65.0,5.0,5.0,,,,,,,,,,,,,gelb,blue,b,0.0,b,1.0,0.4841889999806881,,,,,,,,,,5.0,5.0,65.0,9.0,385.6817914999556,,,,,,,,,,,,,,,,,385.66757380007766,385.78192460001446,386.5812601998914,386.5655501000583,,,,,,,,,,,,,,,,,,,,,,,,,,,,,,,,,,,386.56943270005286,386.5812601998914,386.5812601998914,387.0822938999627,b,1.0,0.4841889999806881,,,,,sub-038,1,stroop_test,60.08813722330117,
,,,,66.0,6.0,5.0,,,,,,,,,,,,,blau,red,r,0.0,r,1.0,0.6160183001775295,,,,,,,,,,5.0,6.0,66.0,4.0,387.0972957999911,,,,,,,,,,,,,,,,,387.08267050003633,387.1978728999384,388.0130083998665,387.9976288999897,,,,,,,,,,,,,,,,,,,,,,,,,,,,,,,,,,,388.0007144000847,388.0130083998665,388.0130083998665,388.63163980003446,r,1.0,0.6160183001775295,,,,,sub-038,1,stroop_test,60.08813722330117,
,,,,67.0,7.0,5.0,,,,,,,,,,,,,rot,red,r,1.0,r,1.0,0.605943099828437,,,,,,,,,,5.0,7.0,67.0,0.0,388.6460051999893,,,,,,,,,,,,,,,,,388.63224139995873,388.7458397999872,389.5450667000841,389.5291979999747,,,,,,,,,,,,,,,,,,,,,,,,,,,,,,,,,,,389.531625200063,389.5450667000841,389.5450667000841,390.1627533999272,r,1.0,0.605943099828437,,,,,sub-038,1,stroop_test,60.08813722330117,
,,,,68.0,8.0,5.0,,,,,,,,,,,,,rot,blue,b,0.0,b,1.0,0.5799974000547081,,,,,,,,,,5.0,8.0,68.0,2.0,390.1784000000917,,,,,,,,,,,,,,,,,390.16310789994895,390.27807029988617,391.0769300998654,391.0616416998673,,,,,,,,,,,,,,,,,,,,,,,,,,,,,,,,,,,391.0622515999712,391.0769300998654,391.0769300998654,391.6618335999083,b,1.0,0.5799974000547081,,,,,sub-038,1,stroop_test,60.08813722330117,
,,,,69.0,9.0,5.0,,,,,,,,,,,,,blau,blue,b,1.0,b,1.0,0.5331120998598635,,,,,,,,,,5.0,9.0,69.0,5.0,391.6767529998906,,,,,,,,,,,,,,,,,391.66222799988464,391.7766529999208,392.5761066998821,392.56044399994425,,,,,,,,,,,,,,,,,,,,,,,,,,,,,,,,,,,392.563083200017,392.5761066998821,392.5761066998821,393.1108864999842,b,1.0,0.5331120998598635,,,,,sub-038,1,stroop_test,60.08813722330117,
,,,,70.0,10.0,5.0,,,,,,,,,,,,,blau,yellow,g,0.0,g,1.0,0.6406904000323266,,,,,,,,,,5.0,10.0,70.0,7.0,393.1256552999839,,,,,,,,,,,,,,,,,393.11126099992543,393.2256674999371,394.0246550000738,394.008682299871,,,,,,,,,,,,,,,,,,,,,,,,,,,,,,,,,,,394.009009399917,394.0246550000738,394.0246550000738,394.6752186999656,g,1.0,0.6406904000323266,,,,,sub-038,1,stroop_test,60.08813722330117,
,,,,71.0,11.0,5.0,,,,,,,,,,,,,blau,blue,b,1.0,b,1.0,0.5896347998641431,,,,,,,,,,5.0,11.0,71.0,6.0,394.69087699986994,,,,,,,,,,,,,,,,,394.67562379990704,395.0406511998736,395.8399352999404,395.8240642999299,,,,,,,,,,,,,,,,,,,,,,,,,,,,,,,,,,,395.8246021999512,395.8399352999404,395.8399352999404,396.4400569999125,b,1.0,0.5896347998641431,,,,,sub-038,1,stroop_test,60.08813722330117,
,,,,72.0,0.0,6.0,,,,,,,,,,,,,blau,blue,b,1.0,b,1.0,0.6003467999398708,,,,,,,,,,6.0,0.0,72.0,6.0,396.4560346000362,,,,,,,,,,,,,,,,,396.44031560001895,397.655147299869,398.4546803999692,398.4390330000315,,,,,,,,,,,,,,,,,,,,,,,,,,,,,,,,,,,398.43958009989,398.4546803999692,398.4546803999692,399.0721803000197,b,1.0,0.6003467999398708,,,,,sub-038,1,stroop_test,60.08813722330117,
,,,,73.0,1.0,6.0,,,,,,,,,,,,,rot,blue,b,0.0,b,1.0,0.5733538998756558,,,,,,,,,,6.0,1.0,73.0,2.0,399.0874568000436,,,,,,,,,,,,,,,,,399.0724941999652,399.1874492000789,399.9865049000364,399.9709576999303,,,,,,,,,,,,,,,,,,,,,,,,,,,,,,,,,,,399.9743749999907,399.9865049000364,399.9865049000364,400.5702710000333,b,1.0,0.5733538998756558,,,,,sub-038,1,stroop_test,60.08813722330117,
,,,,74.0,2.0,6.0,,,,,,,,,,,,,gelb,yellow,g,1.0,g,1.0,0.6435045001562685,,,,,,,,,,6.0,2.0,74.0,10.0,400.5860232000705,,,,,,,,,,,,,,,,,400.5706360999029,401.3854539000895,402.18507459992543,402.1690906998701,,,,,,,,,,,,,,,,,,,,,,,,,,,,,,,,,,,402.1725407000631,402.18507459992543,402.18507459992543,402.8356880999636,g,1.0,0.6435045001562685,,,,,sub-038,1,stroop_test,60.08813722330117,
,,,,75.0,3.0,6.0,,,,,,,,,,,,,rot,red,r,1.0,r,1.0,0.5946706000249833,,,,,,,,,,6.0,3.0,75.0,1.0,402.85109020001255,,,,,,,,,,,,,,,,,402.8360840000678,403.2007798000705,404.0001473999582,403.9843003000133,,,,,,,,,,,,,,,,,,,,,,,,,,,,,,,,,,,403.9871515999548,404.0001473999582,404.0001473999582,404.600783099886,r,1.0,0.5946706000249833,,,,,sub-038,1,stroop_test,60.08813722330117,
,,,,76.0,4.0,6.0,,,,,,,,,,,,,blau,red,r,0.0,r,1.0,0.7975937000010163,,,,,,,,,,6.0,4.0,76.0,4.0,404.6159282000736,,,,,,,,,,,,,,,,,404.601226599887,405.8150649999734,406.6146541000344,406.5989264000673,,,,,,,,,,,,,,,,,,,,,,,,,,,,,,,,,,,406.60230810008943,406.6146541000344,406.6146541000344,407.4149400000461,r,1.0,0.7975937000010163,,,,,sub-038,1,stroop_test,60.08813722330117,
,,,,77.0,5.0,6.0,,,,,,,,,,,,,gelb,yellow,g,1.0,g,1.0,0.5361119001172483,,,,,,,,,,6.0,5.0,77.0,11.0,407.43029149994254,,,,,,,,,,,,,,,,,407.4152383999899,407.780290100025,408.579563499894,408.5637242998928,,,,,,,,,,,,,,,,,,,,,,,,,,,,,,,,,,,408.5668953000568,408.579563499894,408.579563499894,409.1306557999924,g,1.0,0.5361119001172483,,,,,sub-038,1,stroop_test,60.08813722330117,
,,,,78.0,6.0,6.0,,,,,,,,,,,,,gelb,red,r,0.0,r,1.0,0.6195407998748124,,,,,,,,,,6.0,6.0,78.0,8.0,409.1457634000108,,,,,,,,,,,,,,,,,409.131027800031,410.3448099999223,411.14394770003855,411.1284050999675,,,,,,,,,,,,,,,,,,,,,,,,,,,,,,,,,,,411.1289576999843,411.14394770003855,411.14394770003855,411.77843050006777,r,1.0,0.6195407998748124,,,,,sub-038,1,stroop_test,60.08813722330117,
,,,,79.0,7.0,6.0,,,,,,,,,,,,,rot,red,r,1.0,r,1.0,0.7004446000792086,,,,,,,,,,6.0,7.0,79.0,0.0,411.7934832999017,,,,,,,,,,,,,,,,,411.7788174999878,411.8934520999901,412.6925717999693,412.6765101999045,,,,,,,,,,,,,,,,,,,,,,,,,,,,,,,,,,,412.67882809997536,412.6925717999693,412.6925717999693,413.4097642998677,r,1.0,0.7004446000792086,,,,,sub-038,1,stroop_test,60.08813722330117,
,,,,80.0,8.0,6.0,,,,,,,,,,,,,gelb,blue,b,0.0,b,1.0,0.6273246000055224,,,,,,,,,,6.0,8.0,80.0,9.0,413.4253330999054,,,,,,,,,,,,,,,,,413.4100673000794,413.50861650006846,414.3082679999061,414.292733399896,,,,,,,,,,,,,,,,,,,,,,,,,,,,,,,,,,,414.2966428999789,414.3082679999061,414.3082679999061,414.94180989987217,b,1.0,0.6273246000055224,,,,,sub-038,1,stroop_test,60.08813722330117,
,,,,81.0,9.0,6.0,,,,,,,,,,,,,rot,yellow,g,0.0,g,1.0,0.7141862998250872,,,,,,,,,,6.0,9.0,81.0,3.0,414.9573665999342,,,,,,,,,,,,,,,,,414.9421156998724,415.3071554999333,416.1067293998785,416.0906511999201,,,,,,,,,,,,,,,,,,,,,,,,,,,,,,,,,,,416.0929473999422,416.1067293998785,416.1067293998785,416.8245379000437,g,1.0,0.7141862998250872,,,,,sub-038,1,stroop_test,60.08813722330117,
,,,,82.0,10.0,6.0,,,,,,,,,,,,,blau,yellow,g,0.0,g,1.0,0.6312426999211311,,,,,,,,,,6.0,10.0,82.0,7.0,416.8394323999528,,,,,,,,,,,,,,,,,416.8251316000242,418.038205599878,418.8376636998728,418.82221610005945,,,,,,,,,,,,,,,,,,,,,,,,,,,,,,,,,,,418.82572379987687,418.8376636998728,418.8376636998728,419.4719628000166,g,1.0,0.6312426999211311,,,,,sub-038,1,stroop_test,60.08813722330117,
,,,,83.0,11.0,6.0,,,,,,,,,,,,,blau,blue,b,1.0,b,1.0,0.6664841999299824,,,,,,,,,,6.0,11.0,83.0,5.0,419.4871064999607,,,,,,,,,,,,,,,,,419.47228119988,419.58730420004576,420.3866047000047,420.3708858999889,,,,,,,,,,,,,,,,,,,,,,,,,,,,,,,,,,,420.37150679994375,420.3866047000047,420.3866047000047,421.06971519999206,b,1.0,0.6664841999299824,,,,,sub-038,1,stroop_test,60.08813722330117,
,,,,84.0,0.0,7.0,,,,,,,,,,,,,blau,red,r,0.0,r,1.0,0.6625860999338329,,,,,,,,,,7.0,0.0,84.0,4.0,421.08562740008347,,,,,,,,,,,,,,,,,421.0699620000087,422.2848726999946,423.08393449988216,423.0682925998699,,,,,,,,,,,,,,,,,,,,,,,,,,,,,,,,,,,423.06882879999466,423.08393449988216,423.08393449988216,423.7512892000377,r,1.0,0.6625860999338329,,,,,sub-038,1,stroop_test,60.08813722330117,
,,,,85.0,1.0,7.0,,,,,,,,,,,,,gelb,red,r,0.0,r,1.0,0.5971673000603914,,,,,,,,,,7.0,1.0,85.0,8.0,423.7669985999819,,,,,,,,,,,,,,,,,423.7516570999287,424.56649039988406,425.3657744999509,425.3499326999299,,,,,,,,,,,,,,,,,,,,,,,,,,,,,,,,,,,425.3541665999219,425.3657744999509,425.3657744999509,425.9669192999136,r,1.0,0.5971673000603914,,,,,sub-038,1,stroop_test,60.08813722330117,
,,,,86.0,2.0,7.0,,,,,,,,,,,,,rot,red,r,1.0,r,1.0,0.6745188999921083,,,,,,,,,,7.0,2.0,86.0,1.0,425.9819803999271,,,,,,,,,,,,,,,,,425.9673089000862,427.180932499934,427.98034760006703,427.96446739998646,,,,,,,,,,,,,,,,,,,,,,,,,,,,,,,,,,,427.9673285000026,427.98034760006703,427.98034760006703,428.6644093999639,r,1.0,0.6745188999921083,,,,,sub-038,1,stroop_test,60.08813722330117,
,,,,87.0,3.0,7.0,,,,,,,,,,,,,blau,blue,b,1.0,b,1.0,0.5879626001697034,,,,,,,,,,7.0,3.0,87.0,5.0,428.6796432998962,,,,,,,,,,,,,,,,,428.66476679989137,429.0294931998942,429.8288837999571,429.8131170999259,,,,,,,,,,,,,,,,,,,,,,,,,,,,,,,,,,,429.8159463000484,429.8288837999571,429.8288837999571,430.4295461999718,b,1.0,0.5879626001697034,,,,,sub-038,1,stroop_test,60.08813722330117,
,,,,88.0,4.0,7.0,,,,,,,,,,,,,gelb,blue,b,0.0,b,1.0,0.507588200038299,,,,,,,,,,7.0,4.0,88.0,9.0,430.44495559996,,,,,,,,,,,,,,,,,430.4299180000089,430.54493990004994,431.3441292000935,431.3285882000346,,,,,,,,,,,,,,,,,,,,,,,,,,,,,,,,,,,431.3325996999629,431.3441292000935,431.3441292000935,431.8611343998928,b,1.0,0.507588200038299,,,,,sub-038,1,stroop_test,60.08813722330117,
,,,,89.0,5.0,7.0,,,,,,,,,,,,,gelb,yellow,g,1.0,g,1.0,1.090665299911052,,,,,,,,,,7.0,5.0,89.0,10.0,431.8768215000164,,,,,,,,,,,,,,,,,431.8614348000847,431.97661180002615,432.77640910004266,432.76060379995033,,,,,,,,,,,,,,,,,,,,,,,,,,,,,,,,,,,432.7611988000572,432.77640910004266,432.77640910004266,433.8759794000071,g,1.0,1.090665299911052,,,,,sub-038,1,stroop_test,60.08813722330117,
,,,,90.0,6.0,7.0,,,,,,,,,,,,,blau,blue,b,1.0,b,1.0,0.6117192001547664,,,,,,,,,,7.0,6.0,90.0,6.0,433.8918131999672,,,,,,,,,,,,,,,,,433.8762020000722,434.69149510003626,435.4904789000284,435.4748638998717,,,,,,,,,,,,,,,,,,,,,,,,,,,,,,,,,,,435.47788179991767,435.4904789000284,435.4904789000284,436.10750989988446,b,1.0,0.6117192001547664,,,,,sub-038,1,stroop_test,60.08813722330117,
,,,,91.0,7.0,7.0,,,,,,,,,,,,,rot,blue,b,0.0,b,1.0,1.0612145001068711,,,,,,,,,,7.0,7.0,91.0,2.0,436.1232358000707,,,,,,,,,,,,,,,,,436.1077117999084,436.4731294000521,437.27248400007375,437.2564043998718,,,,,,,,,,,,,,,,,,,,,,,,,,,,,,,,,,,437.2583027998917,437.27248400007375,437.27248400007375,438.339729399886,b,1.0,1.0612145001068711,,,,,sub-038,1,stroop_test,60.08813722330117,
,,,,92.0,8.0,7.0,,,,,,,,,,,,,rot,yellow,g,0.0,g,1.0,0.8368454000446945,,,,,,,,,,7.0,8.0,92.0,3.0,438.3551757000386,,,,,,,,,,,,,,,,,438.3401385000907,438.7048967999872,439.5039438998792,439.4878904998768,,,,,,,,,,,,,,,,,,,,,,,,,,,,,,,,,,,439.4883109999355,439.5039438998792,439.5039438998792,440.3539473998826,g,1.0,0.8368454000446945,,,,,sub-038,1,stroop_test,60.08813722330117,
,,,,93.0,9.0,7.0,,,,,,,,,,,,,rot,red,r,1.0,r,1.0,0.4743097000755369,,,,,,,,,,7.0,9.0,93.0,0.0,440.3696544000413,,,,,,,,,,,,,,,,,440.354224300012,440.4531211000867,441.2528027999215,441.2370323999785,,,,,,,,,,,,,,,,,,,,,,,,,,,,,,,,,,,441.2375683998689,441.2528027999215,441.2528027999215,441.73708499991335,r,1.0,0.4743097000755369,,,,,sub-038,1,stroop_test,60.08813722330117,
,,,,94.0,10.0,7.0,,,,,,,,,,,,,gelb,yellow,g,1.0,g,1.0,0.6740486000198871,,,,,,,,,,7.0,10.0,94.0,11.0,441.7523485000711,,,,,,,,,,,,,,,,,441.7374736000784,442.9511371999979,443.7503468000796,443.73459089989774,,,,,,,,,,,,,,,,,,,,,,,,,,,,,,,,,,,443.7370140000712,443.7503468000796,443.7503468000796,444.43419639999047,g,1.0,0.6740486000198871,,,,,sub-038,1,stroop_test,60.08813722330117,
,,,,95.0,11.0,7.0,,,,,,,,,,,,,blau,yellow,g,0.0,g,1.0,0.6187485000118613,,,,,,,,,,7.0,11.0,95.0,7.0,444.4499031000305,,,,,,,,,,,,,,,,,444.4345370000228,444.7996114999987,445.5990788000636,445.5834401000757,,,,,,,,,,,,,,,,,,,,,,,,,,,,,,,,,,,445.5863947998732,445.5990788000636,445.5990788000636,446.23339720000513,g,1.0,0.6187485000118613,,,,,sub-038,1,stroop_test,60.08813722330117,
,,,,96.0,0.0,8.0,,,,,,,,,,,,,rot,blue,b,0.0,b,1.0,0.7215181000065058,,,,,,,,,,8.0,0.0,96.0,2.0,446.2485319999978,,,,,,,,,,,,,,,,,446.23376889992505,447.4475791000296,448.246763400035,448.23065000004135,,,,,,,,,,,,,,,,,,,,,,,,,,,,,,,,,,,448.2331385000143,448.246763400035,448.246763400035,448.9804732000921,b,1.0,0.7215181000065058,,,,,sub-038,1,stroop_test,60.08813722330117,
,,,,97.0,1.0,8.0,,,,,,,,,,,,,blau,yellow,g,0.0,g,1.0,0.9645546998362988,,,,,,,,,,8.0,1.0,97.0,7.0,448.9959271000698,,,,,,,,,,,,,,,,,448.98082130006514,449.3459745000582,450.14528789999895,450.1297023999505,,,,,,,,,,,,,,,,,,,,,,,,,,,,,,,,,,,450.1333327998873,450.14528789999895,450.14528789999895,451.1128636999056,g,1.0,0.9645546998362988,,,,,sub-038,1,stroop_test,60.08813722330117,
,,,,98.0,2.0,8.0,,,,,,,,,,,,,gelb,yellow,g,1.0,g,1.0,0.6176032000221312,,,,,,,,,,8.0,2.0,98.0,10.0,451.1279746000655,,,,,,,,,,,,,,,,,451.1132559999824,451.4776371000335,452.2769414000213,452.2612844000105,,,,,,,,,,,,,,,,,,,,,,,,,,,,,,,,,,,452.2649210998789,452.2769414000213,452.2769414000213,452.9109737998806,g,1.0,0.6176032000221312,,,,,sub-038,1,stroop_test,60.08813722330117,
,,,,99.0,3.0,8.0,,,,,,,,,,,,,rot,yellow,g,0.0,g,1.0,0.6563862001057714,,,,,,,,,,8.0,3.0,99.0,3.0,452.92622540006414,,,,,,,,,,,,,,,,,452.9113145000301,453.0263207999524,453.8255737000145,453.8100380999968,,,,,,,,,,,,,,,,,,,,,,,,,,,,,,,,,,,453.8130880999379,453.8255737000145,453.8255737000145,454.4934719000012,g,1.0,0.6563862001057714,,,,,sub-038,1,stroop_test,60.08813722330117,
,,,,100.0,4.0,8.0,,,,,,,,,,,,,gelb,red,r,0.0,r,1.0,0.4923195999581367,,,,,,,,,,8.0,4.0,100.0,8.0,454.50849719997495,,,,,,,,,,,,,,,,,454.4938212998677,455.307809199905,456.10701059992425,456.0912411999889,,,,,,,,,,,,,,,,,,,,,,,,,,,,,,,,,,,456.09428229997866,456.10701059992425,456.10701059992425,456.6083897999488,r,1.0,0.4923195999581367,,,,,sub-038,1,stroop_test,60.08813722330117,
,,,,101.0,5.0,8.0,,,,,,,,,,,,,gelb,yellow,g,1.0,g,1.0,0.8137788998428732,,,,,,,,,,8.0,5.0,101.0,11.0,456.6232749000192,,,,,,,,,,,,,,,,,456.60881959996186,456.7232383000664,457.52273619989865,457.5062965999823,,,,,,,,,,,,,,,,,,,,,,,,,,,,,,,,,,,457.5065832999535,457.52273619989865,457.52273619989865,458.3399499000516,g,1.0,0.8137788998428732,,,,,sub-038,1,stroop_test,60.08813722330117,
,,,,102.0,6.0,8.0,,,,,,,,,,,,,blau,blue,b,1.0,b,1.0,0.6565242998767644,,,,,,,,,,8.0,6.0,102.0,6.0,458.354986499995,,,,,,,,,,,,,,,,,458.3402340998873,458.70469709998,459.50397769990377,459.48786969995126,,,,,,,,,,,,,,,,,,,,,,,,,,,,,,,,,,,459.4895164000336,459.50397769990377,459.50397769990377,460.17067719995975,b,1.0,0.6565242998767644,,,,,sub-038,1,stroop_test,60.08813722330117,
,,,,103.0,7.0,8.0,,,,,,,,,,,,,rot,red,r,1.0,r,1.0,0.6344104001764208,,,,,,,,,,8.0,7.0,103.0,1.0,460.18684630002826,,,,,,,,,,,,,,,,,460.1708720000461,461.3859117999673,462.1852821998764,462.1691811999772,,,,,,,,,,,,,,,,,,,,,,,,,,,,,,,,,,,462.1715968998615,462.1852821998764,462.1852821998764,462.8364796000533,r,1.0,0.6344104001764208,,,,,sub-038,1,stroop_test,60.08813722330117,
,,,,104.0,8.0,8.0,,,,,,,,,,,,,blau,blue,b,1.0,b,1.0,0.57719979993999,,,,,,,,,,8.0,8.0,104.0,5.0,462.8512430000119,,,,,,,,,,,,,,,,,462.83677819999866,464.0502156000584,464.8496451999527,464.8336439998821,,,,,,,,,,,,,,,,,,,,,,,,,,,,,,,,,,,464.8350883999374,464.8496451999527,464.8496451999527,465.4338881000877,b,1.0,0.57719979993999,,,,,sub-038,1,stroop_test,60.08813722330117,
,,,,105.0,9.0,8.0,,,,,,,,,,,,,rot,red,r,1.0,r,1.0,0.8142880999948829,,,,,,,,,,8.0,9.0,105.0,0.0,465.4496315000579,,,,,,,,,,,,,,,,,465.4341271999292,465.7990331999026,466.5984646999277,466.58307719998993,,,,,,,,,,,,,,,,,,,,,,,,,,,,,,,,,,,466.5855433999095,466.5984646999277,466.5984646999277,467.4160241000354,r,1.0,0.8142880999948829,,,,,sub-038,1,stroop_test,60.08813722330117,
,,,,106.0,10.0,8.0,,,,,,,,,,,,,blau,red,r,0.0,r,1.0,0.6755067000631243,,,,,,,,,,8.0,10.0,106.0,4.0,467.43097330001183,,,,,,,,,,,,,,,,,467.4162234000396,468.6299397998955,469.4291864000261,469.4128711998928,,,,,,,,,,,,,,,,,,,,,,,,,,,,,,,,,,,469.4146465000231,469.4291864000261,469.4291864000261,470.1134840000887,r,1.0,0.6755067000631243,,,,,sub-038,1,stroop_test,60.08813722330117,
,,,,107.0,11.0,8.0,,,,,,,,,,,,,gelb,blue,b,0.0,b,1.0,1.1565358999650923,,,,,,,,,,8.0,11.0,107.0,9.0,470.1289784000255,,,,,,,,,,,,,,,,,470.1137844000477,470.4784063999541,471.2777702000458,471.2616733000614,,,,,,,,,,,,,,,,,,,,,,,,,,,,,,,,,,,471.2640126000624,471.2777702000458,471.2777702000458,472.4450397999026,b,1.0,1.1565358999650923,,,,,sub-038,1,stroop_test,60.08813722330117,
,,,,108.0,0.0,9.0,,,,,,,,,,,,,gelb,blue,b,0.0,b,1.0,0.8736724001355469,,,,,,,,,,9.0,0.0,108.0,9.0,472.4602729000617,,,,,,,,,,,,,,,,,472.4453777000308,473.25964000006206,474.05903779994696,474.0433515999466,,,,,,,,,,,,,,,,,,,,,,,,,,,,,,,,,,,474.0439269999042,474.05903779994696,474.05903779994696,474.9425435999874,b,1.0,0.8736724001355469,,,,,sub-038,1,stroop_test,60.08813722330117,
,,,,109.0,1.0,9.0,,,,,,,,,,,,,rot,red,r,1.0,r,1.0,0.8116291998885572,,,,,,,,,,9.0,1.0,109.0,1.0,474.9581307999324,,,,,,,,,,,,,,,,,474.9428872000426,475.7572635998949,476.5569474999793,476.5411203999538,,,,,,,,,,,,,,,,,,,,,,,,,,,,,,,,,,,476.5446339000482,476.5569474999793,476.5569474999793,477.37422439991497,r,1.0,0.8116291998885572,,,,,sub-038,1,stroop_test,60.08813722330117,
,,,,110.0,2.0,9.0,,,,,,,,,,,,,gelb,yellow,g,1.0,g,1.0,0.4941821000538766,,,,,,,,,,9.0,2.0,110.0,11.0,477.3896369000431,,,,,,,,,,,,,,,,,477.37441879999824,477.48951289989054,478.2889141999185,478.2730521000922,,,,,,,,,,,,,,,,,,,,,,,,,,,,,,,,,,,478.2764405000489,478.2889141999185,478.2889141999185,478.7900127000176,g,1.0,0.4941821000538766,,,,,sub-038,1,stroop_test,60.08813722330117,
,,,,111.0,3.0,9.0,,,,,,,,,,,,,blau,yellow,g,0.0,g,1.0,0.6594326000194997,,,,,,,,,,9.0,3.0,111.0,7.0,478.80510929995216,,,,,,,,,,,,,,,,,478.7904002999421,479.60447799996473,480.4040007998701,480.38829530007206,,,,,,,,,,,,,,,,,,,,,,,,,,,,,,,,,,,480.3917866998818,480.4040007998701,480.4040007998701,481.0705921999179,g,1.0,0.6594326000194997,,,,,sub-038,1,stroop_test,60.08813722330117,
,,,,112.0,4.0,9.0,,,,,,,,,,,,,gelb,red,r,0.0,r,1.0,0.8852293000090867,,,,,,,,,,9.0,4.0,112.0,8.0,481.086195099866,,,,,,,,,,,,,,,,,481.0708333000075,482.28540450008586,483.0851036999375,483.0693298999686,,,,,,,,,,,,,,,,,,,,,,,,,,,,,,,,,,,483.0728412999306,483.0851036999375,483.0851036999375,483.9859404999297,r,1.0,0.8852293000090867,,,,,sub-038,1,stroop_test,60.08813722330117,
,,,,113.0,5.0,9.0,,,,,,,,,,,,,gelb,yellow,g,1.0,g,1.0,0.6283833999186754,,,,,,,,,,9.0,5.0,113.0,10.0,484.00079389987513,,,,,,,,,,,,,,,,,483.98636680003256,485.199865499977,485.9990991000086,485.98318749992177,,,,,,,,,,,,,,,,,,,,,,,,,,,,,,,,,,,485.9836295999121,485.9990991000086,485.9990991000086,486.63376079988666,g,1.0,0.6283833999186754,,,,,sub-038,1,stroop_test,60.08813722330117,
,,,,114.0,6.0,9.0,,,,,,,,,,,,,rot,yellow,g,0.0,g,1.0,0.8307850998826325,,,,,,,,,,9.0,6.0,114.0,3.0,486.6489494999405,,,,,,,,,,,,,,,,,486.6342579999473,487.4480488998816,488.24727259995416,488.2318303999491,,,,,,,,,,,,,,,,,,,,,,,,,,,,,,,,,,,488.23545009992085,488.24727259995416,488.24727259995416,489.080960100051,g,1.0,0.8307850998826325,,,,,sub-038,1,stroop_test,60.08813722330117,
,,,,115.0,7.0,9.0,,,,,,,,,,,,,blau,blue,b,1.0,b,1.0,0.6073574998881668,,,,,,,,,,9.0,7.0,115.0,5.0,489.096382800024,,,,,,,,,,,,,,,,,489.0813408999238,489.8960249999072,490.6952299999539,490.67968890001066,,,,,,,,,,,,,,,,,,,,,,,,,,,,,,,,,,,490.68217010004446,490.6952299999539,490.6952299999539,491.3121287000831,b,1.0,0.6073574998881668,,,,,sub-038,1,stroop_test,60.08813722330117,
,,,,116.0,8.0,9.0,,,,,,,,,,,,,blau,blue,b,1.0,b,1.0,0.5522676000837237,,,,,,,,,,9.0,8.0,116.0,6.0,491.3277709998656,,,,,,,,,,,,,,,,,491.31238909997046,491.6777578999754,492.4770869000349,492.4612430999987,,,,,,,,,,,,,,,,,,,,,,,,,,,,,,,,,,,492.46175780007616,492.4770869000349,492.4770869000349,493.0446911000181,b,1.0,0.5522676000837237,,,,,sub-038,1,stroop_test,60.08813722330117,
,,,,117.0,9.0,9.0,,,,,,,,,,,,,rot,red,r,1.0,r,1.0,0.8594569999258965,,,,,,,,,,9.0,9.0,117.0,0.0,493.0599702000618,,,,,,,,,,,,,,,,,493.04506739997305,494.2590143999551,495.058419900015,495.0427647999022,,,,,,,,,,,,,,,,,,,,,,,,,,,,,,,,,,,495.045750600053,495.058419900015,495.058419900015,495.9257841000799,r,1.0,0.8594569999258965,,,,,sub-038,1,stroop_test,60.08813722330117,
,,,,118.0,10.0,9.0,,,,,,,,,,,,,blau,red,r,0.0,r,1.0,0.6676455000415444,,,,,,,,,,9.0,10.0,118.0,4.0,495.9408841999248,,,,,,,,,,,,,,,,,495.926090599969,496.0408804998733,496.8402805000078,496.82446909998544,,,,,,,,,,,,,,,,,,,,,,,,,,,,,,,,,,,496.8280243000481,496.8402805000078,496.8402805000078,497.5245405000169,r,1.0,0.6676455000415444,,,,,sub-038,1,stroop_test,60.08813722330117,
,,,,119.0,11.0,9.0,,,,,,,,,,,,,rot,blue,b,0.0,b,1.0,0.7881354000419378,,,,,,,,,,9.0,11.0,119.0,2.0,497.5396823000629,,,,,,,,,,,,,,,,,497.52491179993376,498.3388592998963,499.13848620001227,499.1225252998993,,,,,,,,,,,,,,,,,,,,,,,,,,,,,,,,,,,499.1253950998653,499.13848620001227,499.13848620001227,499.9393496999983,b,1.0,0.7881354000419378,,,,,sub-038,1,stroop_test,60.08813722330117,
,,,,,,,,,,,,,,,,,,,,,,,,,,,,,,,,,,,,,,,,,,,,,,,,,,,,,,,,,,,,,,,,,,,,,,,,,,,,,,,,,,,,,,,,,,,,,,,,,,,,,,499.93953109998256,499.95432540006,504.95044809998944,sub-038,1,stroop_test,60.08813722330117,
