wordCTK,colorCTK,corrAnsCTK,congruentCTK,thisN,thisTrialN,thisRepN,keyResp_CTK.keys,keyResp_CTK.corr,keyResp_CTK.rt,keyResp_CTK.duration,wordPractice,colorPractice,corrAnsPractice,congruentPractice,respPractice.keys,respPractice.corr,respPractice.rt,respPractice.duration,word,color,corrAns,congruent,keyResp_test_run.keys,keyResp_test_run.corr,keyResp_test_run.rt,keyResp_test_run.duration,trials_CTK.thisRepN,trials_CTK.thisTrialN,trials_CTK.thisN,trials_CTK.thisIndex,trials_practice.thisRepN,trials_practice.thisTrialN,trials_practice.thisN,trials_practice.thisIndex,trials_test.thisRepN,trials_test.thisTrialN,trials_test.thisN,trials_test.thisIndex,thisRow.t,notes,instruction.started,instr_text.started,instr_image.started,instr_resp.started,instruction.stopped,instr_resp.keys,instr_resp.rt,instr_resp.duration,instr_color_to_key.started,instr_ctk.started,resp_ctk.started,instr_color_to_key.stopped,resp_ctk.keys,resp_ctk.rt,resp_ctk.duration,ITI.started,fixcross.started,fixcross.stopped,ITI.stopped,color_to_key_run.started,stimulus_CTK.started,keyResp_CTK.started,color_to_key_run.stopped,trials_CTK.keyResp_CTK.keys,trials_CTK.keyResp_CTK.corr,trials_CTK.keyResp_CTK.rt,trials_CTK.keyResp_CTK.duration,instr_practice.started,instr_practice_text.started,instr_practice_resp.started,instr_practice.stopped,instr_practice_resp.keys,instr_practice_resp.rt,instr_practice_resp.duration,practice_run.started,stimulus_practice.started,respPractice.started,practice_run.stopped,trials_practice.respPractice.keys,trials_practice.respPractice.corr,trials_practice.respPractice.rt,trials_practice.respPractice.duration,feedback.started,textFeedback.started,feedback.stopped,textFeedback.stopped,instr_test.started,instr_test_text.started,instr_test_resp.started,instr_test.stopped,instr_test_resp.keys,instr_test_resp.rt,instr_test_resp.duration,test_run.started,stimulus_test_run.started,keyResp_test_run.started,test_run.stopped,trials_test.keyResp_test_run.keys,trials_test.keyResp_test_run.corr,trials_test.keyResp_test_run.rt,trials_test.keyResp_test_run.duration,goodbye.started,textGoodbye.started,textGoodbye.stopped,goodbye.stopped,participant,session,expName,frameRate,Unnamed: 113
,,,,,,,,,,,,,,,,,,,,,,,,,,,,,,,,,,,,,,,,,0.0033776000000216,0.10550000000012,0.10550000000012,0.10550000000012,59.57331980000026,space,59.45108200000004,,,,,,,,,,,,,,,,,,,,,,,,,,,,,,,,,,,,,,,,,,,,,,,,,,,,,,,,,,,sub-089,1,stroop_test,59.99635222178321,
,,,,,,,,,,,,,,,,,,,,,,,,,,,,,,,,,,,,,,,,,,,,,,,,,59.57353340000054,59.58708720000004,59.58708720000004,67.49348320000036,space,7.893427500000143,,,,,,,,,,,,,,,,,,,,,,,,,,,,,,,,,,,,,,,,,,,,,,,,,,,,sub-089,1,stroop_test,59.99635222178321,
test,red,r,1.0,0.0,0.0,0.0,r,1.0,0.924909200000002,,,,,,,,,,,,,,,,,,0.0,0.0,0.0,0.0,,,,,,,,,67.52721340000016,,,,,,,,,,,,,,,,,67.52116620000061,68.70884239999987,69.51936380000052,69.49313949999987,69.51083489999974,69.51936380000052,69.51936380000052,70.46029670000053,r,1.0,0.924909200000002,,,,,,,,,,,,,,,,,,,,,,,,,,,,,,,,,,,,,,,,sub-089,1,stroop_test,59.99635222178321,
test,yellow,g,1.0,1.0,1.0,0.0,g,1.0,0.6576303000001644,,,,,,,,,,,,,,,,,,0.0,1.0,1.0,1.0,,,,,,,,,70.47592940000004,,,,,,,,,,,,,,,,,70.46121439999979,70.82592849999992,71.64036820000047,71.62454649999972,71.62518399999999,71.64036820000047,71.64036820000047,72.30716400000028,g,1.0,0.6576303000001644,,,,,,,,,,,,,,,,,,,,,,,,,,,,,,,,,,,,,,,,sub-089,1,stroop_test,59.99635222178321,
test,blue,b,1.0,2.0,2.0,0.0,b,1.0,0.4710980999998355,,,,,,,,,,,,,,,,,,0.0,2.0,2.0,2.0,,,,,,,,,72.32343890000038,,,,,,,,,,,,,,,,,72.30756070000052,73.1075237,73.90650320000032,73.89106670000047,73.8916675000005,73.90650320000032,73.90650320000032,74.39021420000017,b,1.0,0.4710980999998355,,,,,,,,,,,,,,,,,,,,,,,,,,,,,,,,,,,,,,,,sub-089,1,stroop_test,59.99635222178321,
test,blue,b,1.0,3.0,0.0,1.0,b,1.0,0.6074089000003369,,,,,,,,,,,,,,,,,,1.0,0.0,3.0,2.0,,,,,,,,,74.40678119999984,,,,,,,,,,,,,,,,,74.39061150000043,75.59060890000046,76.39122050000014,76.37495739999986,76.37596489999987,76.39122050000014,76.39122050000014,77.00707610000018,b,1.0,0.6074089000003369,,,,,,,,,,,,,,,,,,,,,,,,,,,,,,,,,,,,,,,,sub-089,1,stroop_test,59.99635222178321,
test,yellow,g,1.0,4.0,1.0,1.0,g,1.0,0.5044708000004903,,,,,,,,,,,,,,,,,,1.0,1.0,4.0,1.0,,,,,,,,,77.0235262000001,,,,,,,,,,,,,,,,,77.00749500000029,77.80777669999998,78.60711120000042,78.59154799999988,78.59256550000055,78.60711120000042,78.60711120000042,79.12527920000002,g,1.0,0.5044708000004903,,,,,,,,,,,,,,,,,,,,,,,,,,,,,,,,,,,,,,,,sub-089,1,stroop_test,59.99635222178321,
test,red,r,1.0,5.0,2.0,1.0,r,1.0,0.4601915999992343,,,,,,,,,,,,,,,,,,1.0,2.0,5.0,0.0,,,,,,,,,79.14087410000002,,,,,,,,,,,,,,,,,79.12600710000015,79.47437519999994,80.27435900000046,80.25816260000056,80.25938850000011,80.27435900000046,80.27435900000046,80.74157890000015,r,1.0,0.4601915999992343,,,,,,,,,,,,,,,,,,,,,,,,,,,,,,,,,,,,,,,,sub-089,1,stroop_test,59.99635222178321,
test,blue,b,1.0,6.0,0.0,2.0,b,1.0,0.8230021999997916,,,,,,,,,,,,,,,,,,2.0,0.0,6.0,2.0,,,,,,,,,80.75773900000013,,,,,,,,,,,,,,,,,80.74247179999975,80.84082840000019,81.64084039999989,81.62489730000061,81.62629450000031,81.64084039999989,81.64084039999989,82.47529299999997,b,1.0,0.8230021999997916,,,,,,,,,,,,,,,,,,,,,,,,,,,,,,,,,,,,,,,,sub-089,1,stroop_test,59.99635222178321,
test,red,r,1.0,7.0,1.0,2.0,r,1.0,0.7804869999999937,,,,,,,,,,,,,,,,,,2.0,1.0,7.0,0.0,,,,,,,,,82.4911975,,,,,,,,,,,,,,,,,82.47615040000028,82.59095019999995,83.39098570000033,83.37505689999989,83.37660559999995,83.39098570000033,83.39098570000033,84.17513830000053,r,1.0,0.7804869999999937,,,,,,,,,,,,,,,,,,,,,,,,,,,,,,,,,,,,,,,,sub-089,1,stroop_test,59.99635222178321,
test,yellow,g,1.0,8.0,2.0,2.0,g,1.0,0.5791628000006313,,,,,,,,,,,,,,,,,,2.0,2.0,8.0,1.0,,,,,,,,,84.19110460000002,,,,,,,,,,,,,,,,,84.17600319999974,85.39094440000054,86.1905456999998,86.17466509999986,86.17606110000042,86.1905456999998,86.1905456999998,86.77477229999977,g,1.0,0.5791628000006313,,,,,,,,,,,,,,,,,,,,,,,,,,,,,,,,,,,,,,,,sub-089,1,stroop_test,59.99635222178321,
test,red,r,1.0,9.0,0.0,3.0,r,1.0,0.4255525999997189,,,,,,,,,,,,,,,,,,3.0,0.0,9.0,0.0,,,,,,,,,86.79055029999972,,,,,,,,,,,,,,,,,86.77564819999998,87.59043780000002,88.39030260000027,88.37409460000026,88.37572339999997,88.39030260000027,88.39030260000027,88.82428200000004,r,1.0,0.4255525999997189,,,,,,,,,,,,,,,,,,,,,,,,,,,,,,,,,,,,,,,,sub-089,1,stroop_test,59.99635222178321,
test,blue,b,1.0,10.0,1.0,3.0,b,1.0,0.5516894000002139,,,,,,,,,,,,,,,,,,3.0,1.0,10.0,2.0,,,,,,,,,88.8401972000006,,,,,,,,,,,,,,,,,88.82513840000001,90.04014430000052,90.83999640000047,90.82404470000029,90.82546180000054,90.83999640000047,90.83999640000047,91.40730759999995,b,1.0,0.5516894000002139,,,,,,,,,,,,,,,,,,,,,,,,,,,,,,,,,,,,,,,,sub-089,1,stroop_test,59.99635222178321,
test,yellow,g,1.0,11.0,2.0,3.0,g,1.0,0.6246264000001247,,,,,,,,,,,,,,,,,,3.0,2.0,11.0,1.0,,,,,,,,,91.4234019999999,,,,,,,,,,,,,,,,,91.40818850000004,92.60646580000002,93.40631429999983,93.39049040000054,93.39192219999995,93.40631429999983,93.40631429999983,94.04046719999997,g,1.0,0.6246264000001247,,,,,,,,,,,,,,,,,,,,,,,,,,,,,,,,,,,,,,,,sub-089,1,stroop_test,59.99635222178321,
,,,,,,,,,,,,,,,,,,,,,,,,,,,,,,,,,,,,,,,,,,,,,,,,,,,,,,,,,,,,,,,,,,,,94.04086909999978,94.05643670000018,94.05643670000018,103.63880400000062,space,9.57389289999992,,,,,,,,,,,,,,,,,,,,,,,,,,,,,,,,,sub-089,1,stroop_test,59.99635222178321,
,,,,0.0,0.0,0.0,,,,,rot,yellow,g,0.0,g,1.0,3.304856900000232,,,,,,,,,,,,,,0.0,0.0,0.0,3.0,,,,,103.68039210000052,,,,,,,,,,,,,,,,,103.67427090000048,103.7378279999998,104.54394960000036,104.52171529999988,,,,,,,,,,,,,,,,104.53478219999988,104.54394960000036,104.54394960000036,107.85454230000003,g,1.0,3.304856900000232,,107.8766509000002,107.88716859999975,108.87071570000036,,,,,,,,,,,,,,,,,,,,,sub-089,1,stroop_test,59.99635222178321,
,,,,1.0,1.0,0.0,,,,,gelb,yellow,g,1.0,g,1.0,1.4063089000001128,,,,,,,,,,,,,,0.0,1.0,1.0,11.0,,,,,108.88716500000056,,,,,,,,,,,,,,,,,108.87152040000046,109.21858759999986,110.02671830000008,110.00416749999977,,,,,,,,,,,,,,,,110.0168806000006,110.02671830000008,110.02671830000008,111.4376318999998,g,1.0,1.4063089000001128,,111.43889590000026,111.45265010000048,112.43641620000062,112.45283820000031,,,,,,,,,,,,,,,,,,,,sub-089,1,stroop_test,59.99635222178321,
,,,,2.0,2.0,0.0,,,,,gelb,red,r,0.0,r,1.0,0.9835102000006372,,,,,,,,,,,,,,0.0,2.0,2.0,8.0,,,,,112.45283820000031,,,,,,,,,,,,,,,,,112.43720220000024,113.25334130000056,114.0531676000005,114.03728050000018,,,,,,,,,,,,,,,,114.0386623999998,114.0531676000005,114.0531676000005,115.0376282000002,r,1.0,0.9835102000006372,,115.03910810000023,115.05268019999994,116.03737730000056,116.05269720000024,,,,,,,,,,,,,,,,,,,,sub-089,1,stroop_test,59.99635222178321,
,,,,3.0,3.0,0.0,,,,,rot,red,r,1.0,r,1.0,0.5398083000000042,,,,,,,,,,,,,,0.0,3.0,3.0,0.0,,,,,116.05269720000024,,,,,,,,,,,,,,,,,116.03821850000033,116.85347339999998,117.6676478000004,117.65196950000018,,,,,,,,,,,,,,,,117.6566953000006,117.6676478000004,117.6676478000004,118.21767090000004,r,1.0,0.5398083000000042,,118.21833930000004,118.23374230000036,119.2183342000003,,,,,,,,,,,,,,,,,,,,,sub-089,1,stroop_test,59.99635222178321,
,,,,4.0,4.0,0.0,,,,,gelb,blue,b,0.0,b,1.0,0.5588933999997607,,,,,,,,,,,,,,0.0,4.0,4.0,9.0,,,,,119.23434240000051,,,,,,,,,,,,,,,,,119.21900250000044,120.01836279999998,120.81712470000048,120.80137669999976,,,,,,,,,,,,,,,,120.80581219999976,120.81712470000048,120.81712470000048,121.38481629999978,b,1.0,0.5588933999997607,,121.38549770000054,121.4001905,122.3854765000001,,,,,,,,,,,,,,,,,,,,,sub-089,1,stroop_test,59.99635222178321,
,,,,5.0,5.0,0.0,,,,,blau,yellow,g,0.0,g,1.0,0.579828500000076,,,,,,,,,,,,,,0.0,5.0,5.0,7.0,,,,,122.40172360000042,,,,,,,,,,,,,,,,,122.38614400000051,123.6006766000005,124.40455210000027,124.38523329999998,,,,,,,,,,,,,,,,124.39634630000046,124.40455210000027,124.40455210000027,124.98577410000009,g,1.0,0.579828500000076,,124.98709160000044,125.00203850000024,125.9856874000002,126.00174800000012,,,,,,,,,,,,,,,,,,,,sub-089,1,stroop_test,59.99635222178321,
,,,,6.0,6.0,0.0,,,,,blau,blue,b,1.0,b,1.0,0.8391717999993489,,,,,,,,,,,,,,0.0,6.0,6.0,6.0,,,,,126.00174800000012,,,,,,,,,,,,,,,,,125.98639469999988,126.8014435,127.60152860000062,127.58551490000036,,,,,,,,,,,,,,,,127.58667360000028,127.60152860000062,127.60152860000062,128.45269550000057,b,1.0,0.8391717999993489,,128.4541204000002,128.46809840000014,129.45245790000035,129.46849599999996,,,,,,,,,,,,,,,,,,,,sub-089,1,stroop_test,59.99635222178321,
,,,,7.0,7.0,0.0,,,,,blau,red,r,0.0,r,1.0,0.9828966999994008,,,,,,,,,,,,,,0.0,7.0,7.0,4.0,,,,,129.46849599999996,,,,,,,,,,,,,,,,,129.4532731000004,129.56838819999984,130.36827110000058,130.35225430000037,,,,,,,,,,,,,,,,130.35456230000045,130.36827110000058,130.36827110000058,131.35226100000045,r,1.0,0.9828966999994008,,131.35372020000025,131.36854340000036,132.35201389999975,132.36799759999985,,,,,,,,,,,,,,,,,,,,sub-089,1,stroop_test,59.99635222178321,
,,,,8.0,8.0,0.0,,,,,blau,blue,b,1.0,b,1.0,1.732342699999208,,,,,,,,,,,,,,0.0,8.0,8.0,5.0,,,,,132.36799759999985,,,,,,,,,,,,,,,,,132.35282640000014,132.46807409999974,133.26784420000013,133.25215450000042,,,,,,,,,,,,,,,,133.25364600000057,133.26784420000013,133.26784420000013,135.00268710000046,b,1.0,1.732342699999208,,135.0041468000004,135.0176664000005,136.00157160000026,136.0172563000001,,,,,,,,,,,,,,,,,,,,sub-089,1,stroop_test,59.99635222178321,
,,,,9.0,9.0,0.0,,,,,gelb,yellow,g,1.0,g,1.0,0.7643450000005032,,,,,,,,,,,,,,0.0,9.0,9.0,10.0,,,,,136.0172563000001,,,,,,,,,,,,,,,,,136.00246900000047,136.11753480000016,136.92197549999992,136.9013875000005,,,,,,,,,,,,,,,,136.91165240000055,136.92197549999992,136.92197549999992,137.7014033999999,g,1.0,0.7643450000005032,,137.70286119999992,137.71754650000048,138.7012174000006,138.71728850000045,,,,,,,,,,,,,,,,,,,,sub-089,1,stroop_test,59.99635222178321,
,,,,10.0,10.0,0.0,,,,,rot,blue,b,0.0,b,1.0,1.2163158000003025,,,,,,,,,,,,,,0.0,10.0,10.0,2.0,,,,,138.71728850000045,,,,,,,,,,,,,,,,,138.7021305000003,138.81719380000004,139.62051850000034,139.60107600000038,,,,,,,,,,,,,,,,139.6098166000006,139.62051850000034,139.62051850000034,140.85117190000028,b,1.0,1.2163158000003025,,140.8526493000004,140.8671003000004,141.85113150000006,141.86698540000043,,,,,,,,,,,,,,,,,,,,sub-089,1,stroop_test,59.99635222178321,
,,,,11.0,11.0,0.0,,,,,rot,red,r,1.0,r,1.0,0.5747931999994762,,,,,,,,,,,,,,0.0,11.0,11.0,1.0,,,,,141.86698540000043,,,,,,,,,,,,,,,,,141.85208850000026,143.06666460000042,143.8664463,143.85059469999987,,,,,,,,,,,,,,,,143.8519750999999,143.8664463,143.8664463,144.45068760000004,r,1.0,0.5747931999994762,,144.4521482000005,144.46683690000054,145.45049140000037,145.46636439999975,,,,,,,,,,,,,,,,,,,,sub-089,1,stroop_test,59.99635222178321,
,,,,12.0,0.0,1.0,,,,,rot,blue,b,0.0,b,1.0,1.8125469000005976,,,,,,,,,,,,,,1.0,0.0,12.0,2.0,,,,,145.46636439999975,,,,,,,,,,,,,,,,,145.4514307000004,146.66477069999974,147.4658198000002,147.45027280000022,,,,,,,,,,,,,,,,147.4516832000004,147.4658198000002,147.4658198000002,149.2833845,b,1.0,1.8125469000005976,,149.2848551000002,149.2989908000004,150.28315760000032,150.29922300000044,,,,,,,,,,,,,,,,,,,,sub-089,1,stroop_test,59.99635222178321,
,,,,13.0,1.0,1.0,,,,,blau,blue,b,1.0,b,1.0,0.7117385000001377,,,,,,,,,,,,,,1.0,1.0,13.0,6.0,,,,,150.29922300000044,,,,,,,,,,,,,,,,,150.2840252000001,151.49890860000005,152.31367120000004,152.29734870000038,,,,,,,,,,,,,,,,152.30225290000044,152.31367120000004,152.31367120000004,153.03186770000002,b,1.0,0.7117385000001377,,153.03318979999997,153.04849400000012,154.04653580000058,,,,,,,,,,,,,,,,,,,,,sub-089,1,stroop_test,59.99635222178321,
,,,,14.0,2.0,1.0,,,,,gelb,yellow,g,1.0,g,1.0,0.596317700000327,,,,,,,,,,,,,,1.0,2.0,14.0,11.0,,,,,154.0635081000005,,,,,,,,,,,,,,,,,154.04698940000026,155.24674520000053,156.04609389999996,156.03036389999988,,,,,,,,,,,,,,,,156.0364943999998,156.04609389999996,156.04609389999996,156.64624990000038,g,1.0,0.596317700000327,,156.64694379999992,156.6626922999999,157.64757550000058,,,,,,,,,,,,,,,,,,,,,sub-089,1,stroop_test,59.99635222178321,
,,,,15.0,3.0,1.0,,,,,blau,red,r,0.0,r,1.0,0.4879098999999769,,,,,,,,,,,,,,1.0,3.0,15.0,4.0,,,,,157.66421610000043,,,,,,,,,,,,,,,,,157.64826649999986,158.8456510000001,159.6476834,159.63140280000016,,,,,,,,,,,,,,,,159.63810969999986,159.6476834,159.6476834,160.1472533000001,r,1.0,0.4879098999999769,,160.14877079999997,160.1631379000005,161.1474321999999,161.16338190000033,,,,,,,,,,,,,,,,,,,,sub-089,1,stroop_test,59.99635222178321,
,,,,16.0,4.0,1.0,,,,,blau,yellow,g,0.0,g,1.0,0.8640484999996261,,,,,,,,,,,,,,1.0,4.0,16.0,7.0,,,,,161.16338190000033,,,,,,,,,,,,,,,,,161.1480643,161.9466078999999,162.7470511000006,162.73089740000023,,,,,,,,,,,,,,,,162.73213729999998,162.7470511000006,162.7470511000006,163.6142104000005,g,1.0,0.8640484999996261,,163.6154605000006,163.62939060000053,164.61327380000012,164.62921700000015,,,,,,,,,,,,,,,,,,,,sub-089,1,stroop_test,59.99635222178321,
,,,,17.0,5.0,1.0,,,,,rot,red,r,1.0,r,1.0,1.5134241000005204,,,,,,,,,,,,,,1.0,5.0,17.0,1.0,,,,,164.62921700000015,,,,,,,,,,,,,,,,,164.61399230000052,165.41298959999995,166.2147802000004,166.19743320000043,,,,,,,,,,,,,,,,166.20605790000036,166.2147802000004,166.2147802000004,167.73198580000053,r,1.0,1.5134241000005204,,167.73348060000035,167.7464058999999,168.73032120000016,168.74631550000004,,,,,,,,,,,,,,,,,,,,sub-089,1,stroop_test,59.99635222178321,
,,,,18.0,6.0,1.0,,,,,rot,yellow,g,0.0,g,1.0,0.776321199999984,,,,,,,,,,,,,,1.0,6.0,18.0,3.0,,,,,168.74631550000004,,,,,,,,,,,,,,,,,168.7312848000006,168.8463243000001,169.64621060000036,169.6300193000002,,,,,,,,,,,,,,,,169.63150180000002,169.64621060000036,169.64621060000036,170.43035929999996,g,1.0,0.776321199999984,,170.43188200000031,170.44661959999985,171.43053220000047,171.4461907,,,,,,,,,,,,,,,,,,,,sub-089,1,stroop_test,59.99635222178321,
,,,,19.0,7.0,1.0,,,,,gelb,yellow,g,1.0,g,1.0,2.0609732000002623,,,,,,,,,,,,,,1.0,7.0,19.0,10.0,,,,,171.4461907,,,,,,,,,,,,,,,,,171.43149250000033,172.64592680000032,173.45135040000014,173.43007869999974,,,,,,,,,,,,,,,,173.44068770000058,173.45135040000014,173.45135040000014,175.51392590000023,g,1.0,2.0609732000002623,,175.51551719999998,175.5289482000003,176.51334650000035,176.52900509999972,,,,,,,,,,,,,,,,,,,,sub-089,1,stroop_test,59.99635222178321,
,,,,20.0,8.0,1.0,,,,,rot,red,r,1.0,r,1.0,0.6104390999998941,,,,,,,,,,,,,,1.0,8.0,20.0,0.0,,,,,176.52900509999972,,,,,,,,,,,,,,,,,176.5141804,177.32868740000004,178.13205150000022,178.11275070000056,,,,,,,,,,,,,,,,178.12156350000032,178.13205150000022,178.13205150000022,178.74638879999975,r,1.0,0.6104390999998941,,178.7478995000006,178.76182780000045,179.74545210000042,179.76118259999976,,,,,,,,,,,,,,,,,,,,sub-089,1,stroop_test,59.99635222178321,
,,,,21.0,9.0,1.0,,,,,gelb,red,r,0.0,r,1.0,0.5527782999997726,,,,,,,,,,,,,,1.0,9.0,21.0,8.0,,,,,179.76118259999976,,,,,,,,,,,,,,,,,179.74636640000017,180.5611733000001,181.36478709999983,181.3450972000005,,,,,,,,,,,,,,,,181.35535600000048,181.36478709999983,181.36478709999983,181.92879980000043,r,1.0,0.5527782999997726,,181.93039610000005,181.94452210000009,182.92878340000016,182.94438600000055,,,,,,,,,,,,,,,,,,,,sub-089,1,stroop_test,59.99635222178321,
,,,,22.0,10.0,1.0,,,,,blau,blue,b,1.0,b,1.0,0.6474079999998139,,,,,,,,,,,,,,1.0,10.0,22.0,5.0,,,,,182.94438600000055,,,,,,,,,,,,,,,,,182.9296165000001,184.14412700000003,184.9453626999998,184.92800430000037,,,,,,,,,,,,,,,,184.9370100000001,184.9453626999998,184.9453626999998,185.59650770000053,b,1.0,0.6474079999998139,,185.59800910000055,185.61097629999995,186.5945787000005,186.61089070000023,,,,,,,,,,,,,,,,,,,,sub-089,1,stroop_test,59.99635222178321,
,,,,23.0,11.0,1.0,,,,,gelb,blue,b,0.0,b,1.0,0.5935335999993185,,,,,,,,,,,,,,1.0,11.0,23.0,9.0,,,,,186.61089070000023,,,,,,,,,,,,,,,,,186.59543239999996,186.7110192000005,187.5249079,187.50912430000017,,,,,,,,,,,,,,,,187.51557280000043,187.5249079,187.5249079,188.12662520000003,b,1.0,0.5935335999993185,,188.12749089999988,188.1418077000003,189.1254315000001,189.1413220999998,,,,,,,,,,,,,,,,,,,,sub-089,1,stroop_test,59.99635222178321,
,,,,,,,,,,,,,,,,,,,,,,,,,,,,,,,,,,,,,,,,,,,,,,,,,,,,,,,,,,,,,,,,,,,,,,,,,,,,,,,,,,,,,,,189.12558529999976,189.1413220999998,189.1413220999998,192.49274980000015,space,3.3453319000000192,,,,,,,,,,,,,,sub-089,1,stroop_test,59.99635222178321,
,,,,0.0,0.0,0.0,,,,,,,,,,,,,blau,yellow,g,0.0,g,1.0,0.5797161000000415,,,,,,,,,,0.0,0.0,0.0,7.0,192.52251620000013,,,,,,,,,,,,,,,,,192.51774990000055,193.70808650000023,194.50926800000025,194.4934155000005,,,,,,,,,,,,,,,,,,,,,,,,,,,,,,,,,,,194.50027460000047,194.50926800000025,194.50926800000025,195.0931217000002,g,1.0,0.5797161000000415,,,,,,sub-089,1,stroop_test,59.99635222178321,
,,,,1.0,1.0,0.0,,,,,,,,,,,,,blau,blue,b,1.0,b,1.0,0.507564800000182,,,,,,,,,,0.0,1.0,1.0,5.0,195.1092596000003,,,,,,,,,,,,,,,,,195.09389950000013,195.89276149999975,196.6927943000005,196.67660860000024,,,,,,,,,,,,,,,,,,,,,,,,,,,,,,,,,,,196.6778036999999,196.6927943000005,196.6927943000005,197.21015560000023,b,1.0,0.507564800000182,,,,,,sub-089,1,stroop_test,59.99635222178321,
,,,,2.0,2.0,0.0,,,,,,,,,,,,,gelb,yellow,g,1.0,b,0.0,0.4974118000000089,,,,,,,,,,0.0,2.0,2.0,10.0,197.22602680000043,,,,,,,,,,,,,,,,,197.21100609999985,197.55926950000003,198.36122019999996,198.34299650000003,,,,,,,,,,,,,,,,,,,,,,,,,,,,,,,,,,,198.35169170000017,198.36122019999996,198.36122019999996,198.8609603,b,0.0,0.4974118000000089,,,,,,sub-089,1,stroop_test,59.99635222178321,
,,,,3.0,3.0,0.0,,,,,,,,,,,,,blau,blue,b,1.0,b,1.0,0.7249657000002117,,,,,,,,,,0.0,3.0,3.0,6.0,198.8762212000006,,,,,,,,,,,,,,,,,198.8619590000003,199.67559970000048,200.4902981,200.45918949999987,,,,,,,,,,,,,,,,,,,,,,,,,,,,,,,,,,,200.4678883000001,200.4902981,200.4902981,201.2264012999999,b,1.0,0.7249657000002117,,,,,,sub-089,1,stroop_test,59.99635222178321,
,,,,4.0,4.0,0.0,,,,,,,,,,,,,gelb,red,r,0.0,r,1.0,0.4466992000006939,,,,,,,,,,0.0,4.0,4.0,8.0,201.2420336999999,,,,,,,,,,,,,,,,,201.2274352999998,202.02530140000044,202.8295469,202.80913590000048,,,,,,,,,,,,,,,,,,,,,,,,,,,,,,,,,,,202.81976799999984,202.8295469,202.8295469,203.29250060000004,r,1.0,0.4466992000006939,,,,,,sub-089,1,stroop_test,59.99635222178321,
,,,,5.0,5.0,0.0,,,,,,,,,,,,,rot,yellow,g,0.0,g,1.0,0.7497703999997611,,,,,,,,,,0.0,5.0,5.0,3.0,203.30861810000036,,,,,,,,,,,,,,,,,203.2935405000003,203.6414748000002,204.44383870000047,204.4251917000006,,,,,,,,,,,,,,,,,,,,,,,,,,,,,,,,,,,204.43518129999984,204.44383870000047,204.44383870000047,205.20884070000056,g,1.0,0.7497703999997611,,,,,,sub-089,1,stroop_test,59.99635222178321,
,,,,6.0,6.0,0.0,,,,,,,,,,,,,rot,red,r,1.0,r,1.0,0.6153943999997864,,,,,,,,,,0.0,6.0,6.0,0.0,205.2246074,,,,,,,,,,,,,,,,,205.20985359999983,205.5581487000004,206.3577664999998,206.34217899999976,,,,,,,,,,,,,,,,,,,,,,,,,,,,,,,,,,,206.3436059999999,206.3577664999998,206.3577664999998,206.97655170000007,r,1.0,0.6153943999997864,,,,,,sub-089,1,stroop_test,59.99635222178321,
,,,,7.0,7.0,0.0,,,,,,,,,,,,,blau,red,r,0.0,r,1.0,1.0492926999995689,,,,,,,,,,0.0,7.0,7.0,4.0,206.99129990000029,,,,,,,,,,,,,,,,,206.9775542000002,208.19072000000008,208.9933715000002,208.9752695000002,,,,,,,,,,,,,,,,,,,,,,,,,,,,,,,,,,,208.98411559999977,208.9933715000002,208.9933715000002,210.05857650000007,r,1.0,1.0492926999995689,,,,,,sub-089,1,stroop_test,59.99635222178321,
,,,,8.0,8.0,0.0,,,,,,,,,,,,,rot,blue,b,0.0,b,1.0,0.6099282999994102,,,,,,,,,,0.0,8.0,8.0,2.0,210.07451850000007,,,,,,,,,,,,,,,,,210.0596414000006,210.42395559999977,211.2257900999998,211.2083561000004,,,,,,,,,,,,,,,,,,,,,,,,,,,,,,,,,,,211.21709490000055,211.2257900999998,211.2257900999998,211.84114780000027,b,1.0,0.6099282999994102,,,,,,sub-089,1,stroop_test,59.99635222178321,
,,,,9.0,9.0,0.0,,,,,,,,,,,,,gelb,yellow,g,1.0,g,1.0,0.4865170999992187,,,,,,,,,,0.0,9.0,9.0,11.0,211.8572040000004,,,,,,,,,,,,,,,,,211.84213800000043,212.19051499999975,212.99377740000045,212.9742822000003,,,,,,,,,,,,,,,,,,,,,,,,,,,,,,,,,,,212.9846708,212.99377740000045,212.99377740000045,213.49119120000023,g,1.0,0.4865170999992187,,,,,,sub-089,1,stroop_test,59.99635222178321,
,,,,10.0,10.0,0.0,,,,,,,,,,,,,rot,red,r,1.0,r,1.0,0.5601861999994071,,,,,,,,,,0.0,10.0,10.0,1.0,213.5070053000004,,,,,,,,,,,,,,,,,213.49224999999976,214.2903497000002,215.09138649999977,215.07397679999983,,,,,,,,,,,,,,,,,,,,,,,,,,,,,,,,,,,215.08272690000055,215.09138649999977,215.09138649999977,215.65722270000012,r,1.0,0.5601861999994071,,,,,,sub-089,1,stroop_test,59.99635222178321,
,,,,11.0,11.0,0.0,,,,,,,,,,,,,gelb,blue,b,0.0,b,1.0,1.326446300000498,,,,,,,,,,0.0,11.0,11.0,9.0,215.67342710000003,,,,,,,,,,,,,,,,,215.6582506,216.00657760000055,216.8098934000004,216.79025090000005,,,,,,,,,,,,,,,,,,,,,,,,,,,,,,,,,,,216.8005833000002,216.8098934000004,216.8098934000004,218.1408655,b,1.0,1.326446300000498,,,,,,sub-089,1,stroop_test,59.99635222178321,
,,,,12.0,0.0,1.0,,,,,,,,,,,,,blau,blue,b,1.0,b,1.0,0.856144299999869,,,,,,,,,,1.0,0.0,12.0,5.0,218.15651930000013,,,,,,,,,,,,,,,,,218.1420459000005,219.35617030000003,220.15806810000004,220.1406938000005,,,,,,,,,,,,,,,,,,,,,,,,,,,,,,,,,,,220.1495854,220.15806810000004,220.15806810000004,221.0234824000004,b,1.0,0.856144299999869,,,,,,sub-089,1,stroop_test,59.99635222178321,
,,,,13.0,1.0,1.0,,,,,,,,,,,,,gelb,red,r,0.0,r,1.0,0.7170927999995911,,,,,,,,,,1.0,1.0,13.0,8.0,221.0394200000005,,,,,,,,,,,,,,,,,221.02450910000016,222.23796679999987,223.04440750000003,223.02275390000025,,,,,,,,,,,,,,,,,,,,,,,,,,,,,,,,,,,223.03604550000043,223.04440750000003,223.04440750000003,223.77113770000005,r,1.0,0.7170927999995911,,,,,,sub-089,1,stroop_test,59.99635222178321,
,,,,14.0,2.0,1.0,,,,,,,,,,,,,gelb,blue,b,0.0,b,1.0,0.6151817999998457,,,,,,,,,,1.0,2.0,14.0,9.0,223.78774290000047,,,,,,,,,,,,,,,,,223.77170810000047,224.12090020000005,224.92013410000027,224.9046471000006,,,,,,,,,,,,,,,,,,,,,,,,,,,,,,,,,,,224.9053654000004,224.92013410000027,224.92013410000027,225.53778139999983,b,1.0,0.6151817999998457,,,,,,sub-089,1,stroop_test,59.99635222178321,
,,,,15.0,3.0,1.0,,,,,,,,,,,,,blau,yellow,g,0.0,g,1.0,0.6993426000008185,,,,,,,,,,1.0,3.0,15.0,7.0,225.5542615999998,,,,,,,,,,,,,,,,,225.5385522000001,225.6542503000005,226.4546175999999,226.4385186000004,,,,,,,,,,,,,,,,,,,,,,,,,,,,,,,,,,,226.4444720000006,226.4546175999999,226.4546175999999,227.1571902000001,g,1.0,0.6993426000008185,,,,,,sub-089,1,stroop_test,59.99635222178321,
,,,,16.0,4.0,1.0,,,,,,,,,,,,,rot,blue,b,0.0,b,1.0,1.2671614000000773,,,,,,,,,,1.0,4.0,16.0,2.0,227.17168619999984,,,,,,,,,,,,,,,,,227.15796330000055,228.37080449999985,229.17059569999992,229.15405669999973,,,,,,,,,,,,,,,,,,,,,,,,,,,,,,,,,,,229.15808830000012,229.17059569999992,229.17059569999992,230.43926210000015,b,1.0,1.2671614000000773,,,,,,sub-089,1,stroop_test,59.99635222178321,
,,,,17.0,5.0,1.0,,,,,,,,,,,,,rot,red,r,1.0,r,1.0,0.5152457000003778,,,,,,,,,,1.0,5.0,17.0,0.0,230.45513720000008,,,,,,,,,,,,,,,,,230.4402139999997,231.25505879999992,232.0540335999999,232.03892829999995,,,,,,,,,,,,,,,,,,,,,,,,,,,,,,,,,,,232.0401456000004,232.0540335999999,232.0540335999999,232.5725662,r,1.0,0.5152457000003778,,,,,,sub-089,1,stroop_test,59.99635222178321,
,,,,18.0,6.0,1.0,,,,,,,,,,,,,rot,yellow,g,0.0,g,1.0,0.8735546999996586,,,,,,,,,,1.0,6.0,18.0,3.0,232.5871616999998,,,,,,,,,,,,,,,,,232.57340760000037,232.6875348999997,233.4873923,233.4716433999997,,,,,,,,,,,,,,,,,,,,,,,,,,,,,,,,,,,233.4730327000002,233.4873923,233.4873923,234.37282340000047,g,1.0,0.8735546999996586,,,,,,sub-089,1,stroop_test,59.99635222178321,
,,,,19.0,7.0,1.0,,,,,,,,,,,,,blau,red,r,0.0,r,1.0,0.7211388999994597,,,,,,,,,,1.0,7.0,19.0,4.0,234.3875540000004,,,,,,,,,,,,,,,,,234.3738440000002,234.48791140000003,235.28984940000052,235.27196969999977,,,,,,,,,,,,,,,,,,,,,,,,,,,,,,,,,,,235.28086620000025,235.28984940000052,235.28984940000052,236.02171700000008,r,1.0,0.7211388999994597,,,,,,sub-089,1,stroop_test,59.99635222178321,
,,,,20.0,8.0,1.0,,,,,,,,,,,,,blau,blue,b,1.0,b,1.0,0.6080286000005799,,,,,,,,,,1.0,8.0,20.0,6.0,236.0373136000003,,,,,,,,,,,,,,,,,236.02270660000025,236.1205104000005,236.92042919999997,236.90453769999976,,,,,,,,,,,,,,,,,,,,,,,,,,,,,,,,,,,236.90591189999984,236.92042919999997,236.92042919999997,237.53832180000015,b,1.0,0.6080286000005799,,,,,,sub-089,1,stroop_test,59.99635222178321,
,,,,21.0,9.0,1.0,,,,,,,,,,,,,gelb,yellow,g,1.0,g,1.0,0.9167118000004848,,,,,,,,,,1.0,9.0,21.0,10.0,237.55395120000003,,,,,,,,,,,,,,,,,237.53935730000055,237.90409690000024,238.707191,238.6876109,,,,,,,,,,,,,,,,,,,,,,,,,,,,,,,,,,,238.69808990000047,238.707191,238.707191,239.63811290000055,g,1.0,0.9167118000004848,,,,,,sub-089,1,stroop_test,59.99635222178321,
,,,,22.0,10.0,1.0,,,,,,,,,,,,,gelb,yellow,g,1.0,g,1.0,0.4374590999996144,,,,,,,,,,1.0,10.0,22.0,11.0,239.65384630000017,,,,,,,,,,,,,,,,,239.6391884,240.0043283,240.8032801000004,240.78764170000025,,,,,,,,,,,,,,,,,,,,,,,,,,,,,,,,,,,240.78901410000023,240.8032801000004,240.8032801000004,241.25361120000025,g,1.0,0.4374590999996144,,,,,,sub-089,1,stroop_test,59.99635222178321,
,,,,23.0,11.0,1.0,,,,,,,,,,,,,rot,red,r,1.0,r,1.0,0.4724612999998498,,,,,,,,,,1.0,11.0,23.0,1.0,241.2697788999999,,,,,,,,,,,,,,,,,241.2546281,242.4532863999998,243.2547494000005,243.23716699999977,,,,,,,,,,,,,,,,,,,,,,,,,,,,,,,,,,,243.24587999999997,243.2547494000005,243.2547494000005,243.7379829000006,r,1.0,0.4724612999998498,,,,,,sub-089,1,stroop_test,59.99635222178321,
,,,,24.0,0.0,2.0,,,,,,,,,,,,,gelb,blue,b,0.0,b,1.0,0.8188574000005246,,,,,,,,,,2.0,0.0,24.0,9.0,243.7530816000003,,,,,,,,,,,,,,,,,243.73896939999983,244.10311850000065,244.90786010000056,244.8869875000005,,,,,,,,,,,,,,,,,,,,,,,,,,,,,,,,,,,244.89868070000057,244.90786010000056,244.90786010000056,245.73703239999983,b,1.0,0.8188574000005246,,,,,,sub-089,1,stroop_test,59.99635222178321,
,,,,25.0,1.0,2.0,,,,,,,,,,,,,blau,yellow,g,0.0,g,1.0,0.5738914000003206,,,,,,,,,,2.0,1.0,25.0,7.0,245.7529767000001,,,,,,,,,,,,,,,,,245.73806990000003,246.5529276000002,247.35523090000012,247.33776929999976,,,,,,,,,,,,,,,,,,,,,,,,,,,,,,,,,,,247.3467243,247.35523090000012,247.35523090000012,247.93655850000005,g,1.0,0.5738914000003206,,,,,,sub-089,1,stroop_test,59.99635222178321,
,,,,26.0,2.0,2.0,,,,,,,,,,,,,blau,red,r,0.0,r,1.0,0.4902348000005077,,,,,,,,,,2.0,2.0,26.0,4.0,247.95226599999975,,,,,,,,,,,,,,,,,247.9375762000004,248.2857423999999,249.08547599999972,249.0696259000001,,,,,,,,,,,,,,,,,,,,,,,,,,,,,,,,,,,249.07112520000052,249.08547599999972,249.08547599999972,249.5868557999997,r,1.0,0.4902348000005077,,,,,,sub-089,1,stroop_test,59.99635222178321,
,,,,27.0,3.0,2.0,,,,,,,,,,,,,rot,red,r,1.0,r,1.0,0.6807029999999941,,,,,,,,,,2.0,3.0,27.0,0.0,249.60249299999987,,,,,,,,,,,,,,,,,249.58788080000025,250.8021745000001,251.6027083000004,251.58592890000045,,,,,,,,,,,,,,,,,,,,,,,,,,,,,,,,,,,251.5946961000004,251.6027083000004,251.6027083000004,252.2861893000004,r,1.0,0.6807029999999941,,,,,,sub-089,1,stroop_test,59.99635222178321,
,,,,28.0,4.0,2.0,,,,,,,,,,,,,gelb,red,r,0.0,r,1.0,0.5201863000002049,,,,,,,,,,2.0,4.0,28.0,8.0,252.30193999999983,,,,,,,,,,,,,,,,,252.28718040000007,253.4851321000001,254.28668100000004,254.2687900000005,,,,,,,,,,,,,,,,,,,,,,,,,,,,,,,,,,,254.2773557000005,254.28668100000004,254.28668100000004,254.8180108000001,r,1.0,0.5201863000002049,,,,,,sub-089,1,stroop_test,59.99635222178321,
,,,,29.0,5.0,2.0,,,,,,,,,,,,,rot,blue,b,0.0,b,1.0,0.451788000000306,,,,,,,,,,2.0,5.0,29.0,2.0,254.83315420000008,,,,,,,,,,,,,,,,,254.8186071000005,255.6175865,256.4176288000004,256.4013077000004,,,,,,,,,,,,,,,,,,,,,,,,,,,,,,,,,,,256.4088338000006,256.4176288000004,256.4176288000004,256.8844887,b,1.0,0.451788000000306,,,,,,sub-089,1,stroop_test,59.99635222178321,
,,,,30.0,6.0,2.0,,,,,,,,,,,,,blau,blue,b,1.0,b,1.0,0.4576993999999104,,,,,,,,,,2.0,6.0,30.0,5.0,256.90116140000055,,,,,,,,,,,,,,,,,256.88534089999985,257.6992258000005,258.4990833000006,258.4833285,,,,,,,,,,,,,,,,,,,,,,,,,,,,,,,,,,,258.4875163000001,258.4990833000006,258.4990833000006,258.96653990000004,b,1.0,0.4576993999999104,,,,,,sub-089,1,stroop_test,59.99635222178321,
,,,,31.0,7.0,2.0,,,,,,,,,,,,,gelb,yellow,g,1.0,g,1.0,0.5894523999995727,,,,,,,,,,2.0,7.0,31.0,10.0,258.98259759999974,,,,,,,,,,,,,,,,,258.9670197999999,259.0657320000005,259.8654956000005,259.8495990000006,,,,,,,,,,,,,,,,,,,,,,,,,,,,,,,,,,,259.8538439999997,259.8654956000005,259.8654956000005,260.46645339999986,g,1.0,0.5894523999995727,,,,,,sub-089,1,stroop_test,59.99635222178321,
,,,,32.0,8.0,2.0,,,,,,,,,,,,,gelb,yellow,g,1.0,g,1.0,0.5548421000003145,,,,,,,,,,2.0,8.0,32.0,11.0,260.4826962000002,,,,,,,,,,,,,,,,,260.4669034000003,261.6671074000001,262.4820542000002,262.4662520000006,,,,,,,,,,,,,,,,,,,,,,,,,,,,,,,,,,,262.4668582999998,262.4820542000002,262.4820542000002,263.0490300000006,g,1.0,0.5548421000003145,,,,,,sub-089,1,stroop_test,59.99635222178321,
,,,,33.0,9.0,2.0,,,,,,,,,,,,,rot,yellow,g,0.0,g,1.0,0.4755630999998175,,,,,,,,,,2.0,9.0,33.0,3.0,263.0658477000002,,,,,,,,,,,,,,,,,263.04940940000006,263.8494536000003,264.6499395000005,264.6344193,,,,,,,,,,,,,,,,,,,,,,,,,,,,,,,,,,,264.64115530000026,264.6499395000005,264.6499395000005,265.13497529999995,g,1.0,0.4755630999998175,,,,,,sub-089,1,stroop_test,59.99635222178321,
,,,,34.0,10.0,2.0,,,,,,,,,,,,,blau,blue,b,1.0,b,1.0,0.3818503000002238,,,,,,,,,,2.0,10.0,34.0,6.0,265.15019230000007,,,,,,,,,,,,,,,,,265.1358347999999,265.9497602000006,266.7510586000003,266.73387090000006,,,,,,,,,,,,,,,,,,,,,,,,,,,,,,,,,,,266.7416115000001,266.7510586000003,266.7510586000003,267.13415600000053,b,1.0,0.3818503000002238,,,,,,sub-089,1,stroop_test,59.99635222178321,
,,,,35.0,11.0,2.0,,,,,,,,,,,,,rot,red,r,1.0,r,1.0,0.3659591000005093,,,,,,,,,,2.0,11.0,35.0,1.0,267.1500609,,,,,,,,,,,,,,,,,267.13501659999974,267.93255610000006,268.7350362000002,268.7172402000001,,,,,,,,,,,,,,,,,,,,,,,,,,,,,,,,,,,268.72617690000016,268.7350362000002,268.7350362000002,269.1167890000001,r,1.0,0.3659591000005093,,,,,,sub-089,1,stroop_test,59.99635222178321,
,,,,36.0,0.0,3.0,,,,,,,,,,,,,rot,yellow,g,0.0,g,1.0,0.6091182999998637,,,,,,,,,,3.0,0.0,36.0,3.0,269.1331449000004,,,,,,,,,,,,,,,,,269.1178664000004,269.21653639999977,270.0165122000003,270.0004531,,,,,,,,,,,,,,,,,,,,,,,,,,,,,,,,,,,270.0018649999997,270.0165122000003,270.0165122000003,270.6338707,g,1.0,0.6091182999998637,,,,,,sub-089,1,stroop_test,59.99635222178321,
,,,,37.0,1.0,3.0,,,,,,,,,,,,,rot,blue,b,0.0,b,1.0,0.5950152000004891,,,,,,,,,,3.0,1.0,37.0,2.0,270.6497605999998,,,,,,,,,,,,,,,,,270.6348487,270.98332750000054,271.7827884000003,271.76760669999976,,,,,,,,,,,,,,,,,,,,,,,,,,,,,,,,,,,271.76897510000026,271.7827884000003,271.7827884000003,272.3835281000006,b,1.0,0.5950152000004891,,,,,,sub-089,1,stroop_test,59.99635222178321,
,,,,38.0,2.0,3.0,,,,,,,,,,,,,blau,red,r,0.0,b,0.0,0.8222634000003382,,,,,,,,,,3.0,2.0,38.0,4.0,272.3990055999998,,,,,,,,,,,,,,,,,272.3845111000005,273.5991630000003,274.4014103000004,274.3828318999999,,,,,,,,,,,,,,,,,,,,,,,,,,,,,,,,,,,274.39177210000025,274.4014103000004,274.4014103000004,275.23407110000016,b,0.0,0.8222634000003382,,,,,,sub-089,1,stroop_test,59.99635222178321,
,,,,39.0,3.0,3.0,,,,,,,,,,,,,gelb,blue,b,0.0,b,1.0,0.963124500000049,,,,,,,,,,3.0,3.0,39.0,9.0,275.2495479000004,,,,,,,,,,,,,,,,,275.23520680000047,276.04898860000003,276.8526173000005,276.83325449999984,,,,,,,,,,,,,,,,,,,,,,,,,,,,,,,,,,,276.84376290000046,276.8526173000005,276.8526173000005,277.8329217000005,b,1.0,0.963124500000049,,,,,,sub-089,1,stroop_test,59.99635222178321,
,,,,40.0,4.0,3.0,,,,,,,,,,,,,gelb,red,r,0.0,b,0.0,1.0568366999996217,,,,,,,,,,3.0,4.0,40.0,8.0,277.8489347,,,,,,,,,,,,,,,,,277.83391080000047,277.93253909999976,278.73212319999993,278.7163035999997,,,,,,,,,,,,,,,,,,,,,,,,,,,,,,,,,,,278.7177530000004,278.73212319999993,278.73212319999993,279.79988189999995,b,0.0,1.0568366999996217,,,,,,sub-089,1,stroop_test,59.99635222178321,
,,,,41.0,5.0,3.0,,,,,,,,,,,,,gelb,yellow,g,1.0,g,1.0,0.687790899999527,,,,,,,,,,3.0,5.0,41.0,10.0,279.8154098,,,,,,,,,,,,,,,,,279.8009858999999,279.9157893000006,280.71491430000015,280.6991112999999,,,,,,,,,,,,,,,,,,,,,,,,,,,,,,,,,,,280.7005955,280.71491430000015,280.71491430000015,281.4155949000001,g,1.0,0.687790899999527,,,,,,sub-089,1,stroop_test,59.99635222178321,
,,,,42.0,6.0,3.0,,,,,,,,,,,,,rot,red,r,1.0,r,1.0,0.3998209999999744,,,,,,,,,,3.0,6.0,42.0,1.0,281.43155119999983,,,,,,,,,,,,,,,,,281.4166289,282.2149309000001,283.01739599999974,282.9996348999998,,,,,,,,,,,,,,,,,,,,,,,,,,,,,,,,,,,283.0088700000001,283.01739599999974,283.01739599999974,283.4323672000005,r,1.0,0.3998209999999744,,,,,,sub-089,1,stroop_test,59.99635222178321,
,,,,43.0,7.0,3.0,,,,,,,,,,,,,blau,blue,b,1.0,b,1.0,0.7328152000000046,,,,,,,,,,3.0,7.0,43.0,5.0,283.44824840000047,,,,,,,,,,,,,,,,,283.4333999000005,284.2310333999999,285.0339336000002,285.0151633999999,,,,,,,,,,,,,,,,,,,,,,,,,,,,,,,,,,,285.0254151000004,285.0339336000002,285.0339336000002,285.7823635999998,b,1.0,0.7328152000000046,,,,,,sub-089,1,stroop_test,59.99635222178321,
,,,,44.0,8.0,3.0,,,,,,,,,,,,,blau,blue,b,1.0,b,1.0,0.4858505000001969,,,,,,,,,,3.0,8.0,44.0,6.0,285.79798320000054,,,,,,,,,,,,,,,,,285.7833506000002,286.5810041,287.3809655,287.36497400000053,,,,,,,,,,,,,,,,,,,,,,,,,,,,,,,,,,,287.3663811000001,287.3809655,287.3809655,287.879383,b,1.0,0.4858505000001969,,,,,,sub-089,1,stroop_test,59.99635222178321,
,,,,45.0,9.0,3.0,,,,,,,,,,,,,rot,red,r,1.0,r,1.0,1.4240581000003658,,,,,,,,,,3.0,9.0,45.0,0.0,287.8959194000004,,,,,,,,,,,,,,,,,287.8799629,288.2308589999998,289.0310456000002,289.01446390000046,,,,,,,,,,,,,,,,,,,,,,,,,,,,,,,,,,,289.023017,289.0310456000002,289.0310456000002,290.4653101999997,r,1.0,1.4240581000003658,,,,,,sub-089,1,stroop_test,59.99635222178321,
,,,,46.0,10.0,3.0,,,,,,,,,,,,,blau,yellow,g,0.0,g,1.0,0.7008905999991839,,,,,,,,,,3.0,10.0,46.0,7.0,290.48111149999977,,,,,,,,,,,,,,,,,290.4665041000003,291.67981699999973,292.4780024000006,292.4627151,,,,,,,,,,,,,,,,,,,,,,,,,,,,,,,,,,,292.4667519,292.4780024000006,292.4780024000006,293.19603289999986,g,1.0,0.7008905999991839,,,,,,sub-089,1,stroop_test,59.99635222178321,
,,,,47.0,11.0,3.0,,,,,,,,,,,,,gelb,yellow,g,1.0,g,1.0,0.600003800000195,,,,,,,,,,3.0,11.0,47.0,11.0,293.21261430000004,,,,,,,,,,,,,,,,,293.1966090000001,294.411713,295.2112808000006,295.1952882999999,,,,,,,,,,,,,,,,,,,,,,,,,,,,,,,,,,,295.1999199000006,295.2112808000006,295.2112808000006,295.8127727000005,g,1.0,0.600003800000195,,,,,,sub-089,1,stroop_test,59.99635222178321,
,,,,48.0,0.0,4.0,,,,,,,,,,,,,rot,blue,b,0.0,b,1.0,1.4048803000005137,,,,,,,,,,4.0,0.0,48.0,2.0,295.82810440000003,,,,,,,,,,,,,,,,,295.8132387999999,295.9276464,296.7289964000006,296.7136051000002,,,,,,,,,,,,,,,,,,,,,,,,,,,,,,,,,,,296.7202265000001,296.7289964000006,296.7289964000006,298.14504910000005,b,1.0,1.4048803000005137,,,,,,sub-089,1,stroop_test,59.99635222178321,
,,,,49.0,1.0,4.0,,,,,,,,,,,,,gelb,yellow,g,1.0,g,1.0,0.836229600000479,,,,,,,,,,4.0,1.0,49.0,10.0,298.16144810000014,,,,,,,,,,,,,,,,,298.14560570000003,298.2448067999999,299.04618619999974,299.0292513999998,,,,,,,,,,,,,,,,,,,,,,,,,,,,,,,,,,,299.0368573999999,299.04618619999974,299.04618619999974,299.8965199999998,g,1.0,0.836229600000479,,,,,,sub-089,1,stroop_test,59.99635222178321,
,,,,50.0,2.0,4.0,,,,,,,,,,,,,blau,blue,b,1.0,b,1.0,0.7391569000001255,,,,,,,,,,4.0,2.0,50.0,5.0,299.9117277999999,,,,,,,,,,,,,,,,,299.89742570000044,300.0126537000001,300.8122546999998,300.7962768000002,,,,,,,,,,,,,,,,,,,,,,,,,,,,,,,,,,,300.8038499999998,300.8122546999998,300.8122546999998,301.56270559999984,b,1.0,0.7391569000001255,,,,,,sub-089,1,stroop_test,59.99635222178321,
,,,,51.0,3.0,4.0,,,,,,,,,,,,,gelb,red,r,0.0,r,1.0,0.4019534000008207,,,,,,,,,,4.0,3.0,51.0,8.0,301.5788458000002,,,,,,,,,,,,,,,,,301.5635604000004,301.6626670999999,302.46600249999983,302.44681140000057,,,,,,,,,,,,,,,,,,,,,,,,,,,,,,,,,,,302.4574002000004,302.46600249999983,302.46600249999983,302.87984730000016,r,1.0,0.4019534000008207,,,,,,sub-089,1,stroop_test,59.99635222178321,
,,,,52.0,4.0,4.0,,,,,,,,,,,,,blau,red,r,0.0,r,1.0,1.294306200000392,,,,,,,,,,4.0,4.0,52.0,4.0,302.8957157,,,,,,,,,,,,,,,,,302.8808288000005,302.97844010000017,303.77830440000025,303.76195770000004,,,,,,,,,,,,,,,,,,,,,,,,,,,,,,,,,,,303.76978180000015,303.77830440000025,303.77830440000025,305.07926050000015,r,1.0,1.294306200000392,,,,,,sub-089,1,stroop_test,59.99635222178321,
,,,,53.0,5.0,4.0,,,,,,,,,,,,,rot,red,r,1.0,r,1.0,0.6608765000000858,,,,,,,,,,4.0,5.0,53.0,0.0,305.0952802000006,,,,,,,,,,,,,,,,,305.08027150000044,305.8784397000004,306.6805310000004,306.6629052000003,,,,,,,,,,,,,,,,,,,,,,,,,,,,,,,,,,,306.67169049999984,306.6805310000004,306.6805310000004,307.34594890000017,r,1.0,0.6608765000000858,,,,,,sub-089,1,stroop_test,59.99635222178321,
,,,,54.0,6.0,4.0,,,,,,,,,,,,,gelb,blue,b,0.0,b,1.0,0.6736719000000448,,,,,,,,,,4.0,6.0,54.0,9.0,307.36184060000005,,,,,,,,,,,,,,,,,307.34697280000046,308.1618625000005,308.9645163,308.9453101000004,,,,,,,,,,,,,,,,,,,,,,,,,,,,,,,,,,,308.9557288000001,308.9645163,308.9645163,309.6455550000005,b,1.0,0.6736719000000448,,,,,,sub-089,1,stroop_test,59.99635222178321,
,,,,55.0,7.0,4.0,,,,,,,,,,,,,blau,blue,b,1.0,b,1.0,0.4531510999995589,,,,,,,,,,4.0,7.0,55.0,6.0,309.66144740000027,,,,,,,,,,,,,,,,,309.6465835000004,309.9947569000001,310.7963297000001,310.77860550000014,,,,,,,,,,,,,,,,,,,,,,,,,,,,,,,,,,,310.7876224000006,310.7963297000001,310.7963297000001,311.2630503000005,b,1.0,0.4531510999995589,,,,,,sub-089,1,stroop_test,59.99635222178321,
,,,,56.0,8.0,4.0,,,,,,,,,,,,,rot,red,r,1.0,g,0.0,0.3903669999999692,,,,,,,,,,4.0,8.0,56.0,1.0,311.27826760000016,,,,,,,,,,,,,,,,,311.2640412000005,312.07776010000043,312.8782987,312.86145220000026,,,,,,,,,,,,,,,,,,,,,,,,,,,,,,,,,,,312.8701999,312.8782987,312.8782987,313.2773407999998,g,0.0,0.3903669999999692,,,,,,sub-089,1,stroop_test,59.99635222178321,
,,,,57.0,9.0,4.0,,,,,,,,,,,,,blau,yellow,g,0.0,g,1.0,0.5856878000004144,,,,,,,,,,4.0,9.0,57.0,7.0,313.2931696999999,,,,,,,,,,,,,,,,,313.27820810000003,314.4770788000001,315.2780551000001,315.26162239999985,,,,,,,,,,,,,,,,,,,,,,,,,,,,,,,,,,,315.2692464000006,315.2780551000001,315.2780551000001,315.8776327999999,g,1.0,0.5856878000004144,,,,,,sub-089,1,stroop_test,59.99635222178321,
,,,,58.0,10.0,4.0,,,,,,,,,,,,,gelb,yellow,g,1.0,g,1.0,0.6200631000001522,,,,,,,,,,4.0,10.0,58.0,11.0,315.8938834000005,,,,,,,,,,,,,,,,,315.8784773000002,317.0771139000003,317.8829646999998,317.8611297000002,,,,,,,,,,,,,,,,,,,,,,,,,,,,,,,,,,,317.8730916999998,317.8829646999998,317.8829646999998,318.5114311000002,g,1.0,0.6200631000001522,,,,,,sub-089,1,stroop_test,59.99635222178321,
,,,,59.0,11.0,4.0,,,,,,,,,,,,,rot,yellow,g,0.0,g,1.0,0.5498515999997835,,,,,,,,,,4.0,11.0,59.0,3.0,318.52727920000007,,,,,,,,,,,,,,,,,318.51248129999976,318.86096190000035,319.6638813000004,319.64467280000054,,,,,,,,,,,,,,,,,,,,,,,,,,,,,,,,,,,319.65389540000024,319.6638813000004,319.6638813000004,320.22824040000023,g,1.0,0.5498515999997835,,,,,,sub-089,1,stroop_test,59.99635222178321,
,,,,60.0,0.0,5.0,,,,,,,,,,,,,gelb,blue,b,0.0,b,1.0,0.6099667999997109,,,,,,,,,,5.0,0.0,60.0,9.0,320.24386150000055,,,,,,,,,,,,,,,,,320.2292158000005,321.42707139999993,322.23193279999987,322.21082849999993,,,,,,,,,,,,,,,,,,,,,,,,,,,,,,,,,,,322.22137260000045,322.23193279999987,322.23193279999987,322.8586928999998,b,1.0,0.6099667999997109,,,,,,sub-089,1,stroop_test,59.99635222178321,
,,,,61.0,1.0,5.0,,,,,,,,,,,,,gelb,yellow,g,1.0,g,1.0,0.7172861999997622,,,,,,,,,,5.0,1.0,61.0,11.0,322.8750550999998,,,,,,,,,,,,,,,,,322.8591407999997,324.0597567,324.8591664999999,324.84344379999993,,,,,,,,,,,,,,,,,,,,,,,,,,,,,,,,,,,324.84488530000044,324.8591664999999,324.8591664999999,325.58015860000023,g,1.0,0.7172861999997622,,,,,,sub-089,1,stroop_test,59.99635222178321,
,,,,62.0,2.0,5.0,,,,,,,,,,,,,rot,blue,b,0.0,b,1.0,0.9017068000002836,,,,,,,,,,5.0,2.0,62.0,2.0,325.5924637000003,,,,,,,,,,,,,,,,,325.5811556000004,325.69288689999985,326.49408859999994,326.47672809999995,,,,,,,,,,,,,,,,,,,,,,,,,,,,,,,,,,,326.4854003000005,326.49408859999994,326.49408859999994,327.4101972000003,b,1.0,0.9017068000002836,,,,,,sub-089,1,stroop_test,59.99635222178321,
,,,,63.0,3.0,5.0,,,,,,,,,,,,,gelb,yellow,g,1.0,g,1.0,0.816485699999248,,,,,,,,,,5.0,3.0,63.0,10.0,327.42572750000045,,,,,,,,,,,,,,,,,327.41118570000026,327.5099528000005,328.3287492000004,328.3094640000004,,,,,,,,,,,,,,,,,,,,,,,,,,,,,,,,,,,328.31984760000023,328.3287492000004,328.3287492000004,329.15965840000035,g,1.0,0.816485699999248,,,,,,sub-089,1,stroop_test,59.99635222178321,
,,,,64.0,4.0,5.0,,,,,,,,,,,,,rot,red,r,1.0,r,1.0,0.7002965000001495,,,,,,,,,,5.0,4.0,64.0,1.0,329.1755152999999,,,,,,,,,,,,,,,,,329.1606602000006,329.27538120000054,330.0785999000004,330.0598786000005,,,,,,,,,,,,,,,,,,,,,,,,,,,,,,,,,,,330.06941510000024,330.0785999000004,330.0785999000004,330.7932399000006,r,1.0,0.7002965000001495,,,,,,sub-089,1,stroop_test,59.99635222178321,
,,,,65.0,5.0,5.0,,,,,,,,,,,,,blau,red,r,0.0,r,1.0,1.1015615999995134,,,,,,,,,,5.0,5.0,65.0,4.0,330.80880750000006,,,,,,,,,,,,,,,,,330.79425970000057,331.15879689999974,331.95939640000006,331.9423632000003,,,,,,,,,,,,,,,,,,,,,,,,,,,,,,,,,,,331.9513099999999,331.95939640000006,331.95939640000006,333.0759207000005,r,1.0,1.1015615999995134,,,,,,sub-089,1,stroop_test,59.99635222178321,
,,,,66.0,6.0,5.0,,,,,,,,,,,,,blau,blue,b,1.0,b,1.0,0.5883391999996093,,,,,,,,,,5.0,6.0,66.0,5.0,333.0915914000002,,,,,,,,,,,,,,,,,333.0769172000005,334.2753595999998,335.07485959999985,335.0597385000005,,,,,,,,,,,,,,,,,,,,,,,,,,,,,,,,,,,335.06115550000004,335.07485959999985,335.07485959999985,335.6754070000002,b,1.0,0.5883391999996093,,,,,,sub-089,1,stroop_test,59.99635222178321,
,,,,67.0,7.0,5.0,,,,,,,,,,,,,gelb,red,r,0.0,r,1.0,2.3411544000000504,,,,,,,,,,5.0,7.0,67.0,8.0,335.6910541000002,,,,,,,,,,,,,,,,,335.6764788000005,336.4912506000005,337.2963101,337.2752212999999,,,,,,,,,,,,,,,,,,,,,,,,,,,,,,,,,,,337.28713070000003,337.2963101,337.2963101,339.6426043000006,r,1.0,2.3411544000000504,,,,,,sub-089,1,stroop_test,59.99635222178321,
,,,,68.0,8.0,5.0,,,,,,,,,,,,,rot,red,r,1.0,r,1.0,0.6418658000002324,,,,,,,,,,5.0,8.0,68.0,0.0,339.65837539999984,,,,,,,,,,,,,,,,,339.64364200000045,340.8574008999999,341.65837020000026,341.64114759999984,,,,,,,,,,,,,,,,,,,,,,,,,,,,,,,,,,,341.6499697000004,341.65837020000026,341.65837020000026,342.3078924000006,r,1.0,0.6418658000002324,,,,,,sub-089,1,stroop_test,59.99635222178321,
,,,,69.0,9.0,5.0,,,,,,,,,,,,,blau,yellow,g,0.0,g,1.0,1.090505000000121,,,,,,,,,,5.0,9.0,69.0,7.0,342.3240535,,,,,,,,,,,,,,,,,342.3089134000006,342.4079416,343.2091417000006,343.1914232000004,,,,,,,,,,,,,,,,,,,,,,,,,,,,,,,,,,,343.20036500000015,343.2091417000006,343.2091417000006,344.30761980000034,g,1.0,1.090505000000121,,,,,,sub-089,1,stroop_test,59.99635222178321,
,,,,70.0,10.0,5.0,,,,,,,,,,,,,blau,blue,b,1.0,b,1.0,0.7529070999999021,,,,,,,,,,5.0,10.0,70.0,6.0,344.3234722000002,,,,,,,,,,,,,,,,,344.30860059999986,345.5066588000004,346.30655570000044,346.2915084000001,,,,,,,,,,,,,,,,,,,,,,,,,,,,,,,,,,,346.2928684000003,346.30655570000044,346.30655570000044,347.0741073000004,b,1.0,0.7529070999999021,,,,,,sub-089,1,stroop_test,59.99635222178321,
,,,,71.0,11.0,5.0,,,,,,,,,,,,,rot,yellow,g,0.0,g,1.0,1.2335045999998329,,,,,,,,,,5.0,11.0,71.0,3.0,347.09009920000017,,,,,,,,,,,,,,,,,347.0751206,348.2734038000003,349.0734206000002,349.0570395,,,,,,,,,,,,,,,,,,,,,,,,,,,,,,,,,,,349.06519030000027,349.0734206000002,349.0734206000002,350.32272239999975,g,1.0,1.2335045999998329,,,,,,sub-089,1,stroop_test,59.99635222178321,
,,,,72.0,0.0,6.0,,,,,,,,,,,,,blau,red,r,0.0,r,1.0,1.3797144999998636,,,,,,,,,,6.0,0.0,72.0,4.0,350.3395277000004,,,,,,,,,,,,,,,,,350.3235268000003,350.4221352999998,351.2222241000004,351.20593039999994,,,,,,,,,,,,,,,,,,,,,,,,,,,,,,,,,,,351.2123880000004,351.2222241000004,351.2222241000004,352.6057695000004,r,1.0,1.3797144999998636,,,,,,sub-089,1,stroop_test,59.99635222178321,
,,,,73.0,1.0,6.0,,,,,,,,,,,,,rot,blue,b,0.0,b,1.0,1.3979786999998396,,,,,,,,,,6.0,1.0,73.0,2.0,352.6216642000004,,,,,,,,,,,,,,,,,352.60660039999993,353.8053710999998,354.6074979,354.5907037000002,,,,,,,,,,,,,,,,,,,,,,,,,,,,,,,,,,,354.5992630000005,354.6074979,354.6074979,356.00676859999976,b,1.0,1.3979786999998396,,,,,,sub-089,1,stroop_test,59.99635222178321,
,,,,74.0,2.0,6.0,,,,,,,,,,,,,blau,yellow,g,0.0,g,1.0,1.7571616999994149,,,,,,,,,,6.0,2.0,74.0,7.0,356.0218397000003,,,,,,,,,,,,,,,,,356.00776069999984,356.10524620000024,356.9070163000001,356.8892264000001,,,,,,,,,,,,,,,,,,,,,,,,,,,,,,,,,,,356.8980273000002,356.9070163000001,356.9070163000001,358.6728238999999,g,1.0,1.7571616999994149,,,,,,sub-089,1,stroop_test,59.99635222178321,
,,,,75.0,3.0,6.0,,,,,,,,,,,,,blau,blue,b,1.0,b,1.0,1.020226399999956,,,,,,,,,,6.0,3.0,75.0,6.0,358.68849530000034,,,,,,,,,,,,,,,,,358.67387110000027,358.7718355000002,359.5725072,359.55579309999985,,,,,,,,,,,,,,,,,,,,,,,,,,,,,,,,,,,359.5572137000004,359.5725072,359.5725072,360.6055118999998,b,1.0,1.020226399999956,,,,,,sub-089,1,stroop_test,59.99635222178321,
,,,,76.0,4.0,6.0,,,,,,,,,,,,,gelb,yellow,g,1.0,g,1.0,0.8275425000001633,,,,,,,,,,6.0,4.0,76.0,10.0,360.6215437000005,,,,,,,,,,,,,,,,,360.6065279,361.4047510000005,362.2104282000005,362.1887536999998,,,,,,,,,,,,,,,,,,,,,,,,,,,,,,,,,,,362.2006041999998,362.2104282000005,362.2104282000005,363.0393980000004,g,1.0,0.8275425000001633,,,,,,sub-089,1,stroop_test,59.99635222178321,
,,,,77.0,5.0,6.0,,,,,,,,,,,,,gelb,blue,b,0.0,g,0.0,0.9474867999997514,,,,,,,,,,6.0,5.0,77.0,9.0,363.0546043999998,,,,,,,,,,,,,,,,,363.0403914000003,364.254195,365.0538018000002,365.0382089,,,,,,,,,,,,,,,,,,,,,,,,,,,,,,,,,,,365.0395749000004,365.0538018000002,365.0538018000002,366.0058401000001,g,0.0,0.9474867999997514,,,,,,sub-089,1,stroop_test,59.99635222178321,
,,,,78.0,6.0,6.0,,,,,,,,,,,,,rot,red,r,1.0,r,1.0,0.7525539000007484,,,,,,,,,,6.0,6.0,78.0,1.0,366.0209242000005,,,,,,,,,,,,,,,,,366.0068501999999,366.1043609000003,366.9055762000002,366.8878729000003,,,,,,,,,,,,,,,,,,,,,,,,,,,,,,,,,,,366.8964662000003,366.9055762000002,366.9055762000002,367.6722931999998,r,1.0,0.7525539000007484,,,,,,sub-089,1,stroop_test,59.99635222178321,
,,,,79.0,7.0,6.0,,,,,,,,,,,,,blau,blue,b,1.0,b,1.0,0.5630012999999963,,,,,,,,,,6.0,7.0,79.0,5.0,367.6871399000006,,,,,,,,,,,,,,,,,367.6732818000005,368.4868258000001,369.2884162000005,369.2711581999997,,,,,,,,,,,,,,,,,,,,,,,,,,,,,,,,,,,369.2799647000006,369.2884162000005,369.2884162000005,369.8552494000001,b,1.0,0.5630012999999963,,,,,,sub-089,1,stroop_test,59.99635222178321,
,,,,80.0,8.0,6.0,,,,,,,,,,,,,gelb,yellow,g,1.0,g,1.0,0.679023299999244,,,,,,,,,,6.0,8.0,80.0,11.0,369.8704259000001,,,,,,,,,,,,,,,,,369.8564449999999,370.67078940000056,371.4846454000003,371.4689576000005,,,,,,,,,,,,,,,,,,,,,,,,,,,,,,,,,,,371.47356160000027,371.4846454000003,371.4846454000003,372.16858830000047,g,1.0,0.679023299999244,,,,,,sub-089,1,stroop_test,59.99635222178321,
,,,,81.0,9.0,6.0,,,,,,,,,,,,,gelb,red,r,0.0,r,1.0,0.8731378000002223,,,,,,,,,,6.0,9.0,81.0,8.0,372.1853528000006,,,,,,,,,,,,,,,,,372.1690534000004,372.9678196,373.7675719000004,373.7518750000004,,,,,,,,,,,,,,,,,,,,,,,,,,,,,,,,,,,373.7524777000003,373.7675719000004,373.7675719000004,374.6520295000005,r,1.0,0.8731378000002223,,,,,,sub-089,1,stroop_test,59.99635222178321,
,,,,82.0,10.0,6.0,,,,,,,,,,,,,rot,yellow,g,0.0,g,1.0,1.1328960000000734,,,,,,,,,,6.0,10.0,82.0,3.0,374.6683634000005,,,,,,,,,,,,,,,,,374.6524093000003,375.0008231000006,375.8019868000006,375.7863830000001,,,,,,,,,,,,,,,,,,,,,,,,,,,,,,,,,,,375.7930783000006,375.8019868000006,375.8019868000006,376.95164410000007,g,1.0,1.1328960000000734,,,,,,sub-089,1,stroop_test,59.99635222178321,
,,,,83.0,11.0,6.0,,,,,,,,,,,,,rot,red,r,1.0,r,1.0,0.6681509999998525,,,,,,,,,,6.0,11.0,83.0,0.0,376.9683084000003,,,,,,,,,,,,,,,,,376.9521033000005,377.31724410000015,378.1187842000004,378.10321690000046,,,,,,,,,,,,,,,,,,,,,,,,,,,,,,,,,,,378.1042748000005,378.1187842000004,378.1187842000004,378.8030324000006,r,1.0,0.6681509999998525,,,,,,sub-089,1,stroop_test,59.99635222178321,
,,,,84.0,0.0,7.0,,,,,,,,,,,,,gelb,yellow,g,1.0,g,1.0,0.5975783000003503,,,,,,,,,,7.0,0.0,84.0,10.0,378.81901270000026,,,,,,,,,,,,,,,,,378.80390380000017,378.9025837000004,379.7048428000003,379.6862584000005,,,,,,,,,,,,,,,,,,,,,,,,,,,,,,,,,,,379.6950326000001,379.7048428000003,379.7048428000003,380.3049711999997,g,1.0,0.5975783000003503,,,,,,sub-089,1,stroop_test,59.99635222178321,
,,,,85.0,1.0,7.0,,,,,,,,,,,,,gelb,blue,b,0.0,b,1.0,0.5080860000007306,,,,,,,,,,7.0,1.0,85.0,9.0,380.3191728000006,,,,,,,,,,,,,,,,,380.30586170000015,380.6692475000005,381.4691550000002,381.4525993000002,,,,,,,,,,,,,,,,,,,,,,,,,,,,,,,,,,,381.4537762000005,381.4691550000002,381.4691550000002,381.9867319999999,b,1.0,0.5080860000007306,,,,,,sub-089,1,stroop_test,59.99635222178321,
,,,,86.0,2.0,7.0,,,,,,,,,,,,,rot,red,r,1.0,r,1.0,0.6239347000000635,,,,,,,,,,7.0,2.0,86.0,1.0,382.0026791000005,,,,,,,,,,,,,,,,,381.9877190000002,383.2026185,384.0049296000002,383.9864188000006,,,,,,,,,,,,,,,,,,,,,,,,,,,,,,,,,,,383.9966672000005,384.0049296000002,384.0049296000002,384.6356490000003,r,1.0,0.6239347000000635,,,,,,sub-089,1,stroop_test,59.99635222178321,
,,,,87.0,3.0,7.0,,,,,,,,,,,,,blau,yellow,g,0.0,g,1.0,1.1585685999998532,,,,,,,,,,7.0,3.0,87.0,7.0,384.6516137000003,,,,,,,,,,,,,,,,,384.6366659,385.83504159999984,386.6361890000003,386.61887799999977,,,,,,,,,,,,,,,,,,,,,,,,,,,,,,,,,,,386.6278201,386.6361890000003,386.6361890000003,387.8019092,g,1.0,1.1585685999998532,,,,,,sub-089,1,stroop_test,59.99635222178321,
,,,,88.0,4.0,7.0,,,,,,,,,,,,,gelb,yellow,g,1.0,g,1.0,0.7057342999996763,,,,,,,,,,7.0,4.0,88.0,11.0,387.8180305000001,,,,,,,,,,,,,,,,,387.80289779999976,389.00106000000005,389.80550020000055,389.78543320000017,,,,,,,,,,,,,,,,,,,,,,,,,,,,,,,,,,,389.79586960000006,389.80550020000055,389.80550020000055,390.5162347,g,1.0,0.7057342999996763,,,,,,sub-089,1,stroop_test,59.99635222178321,
,,,,89.0,5.0,7.0,,,,,,,,,,,,,rot,yellow,g,0.0,g,1.0,0.8958953000001202,,,,,,,,,,7.0,5.0,89.0,3.0,390.5327779000004,,,,,,,,,,,,,,,,,390.5166267,390.6157200000002,391.4200516000005,391.40213319999975,,,,,,,,,,,,,,,,,,,,,,,,,,,,,,,,,,,391.41096789999983,391.4200516000005,391.4200516000005,392.3194693,g,1.0,0.8958953000001202,,,,,,sub-089,1,stroop_test,59.99635222178321,
,,,,90.0,6.0,7.0,,,,,,,,,,,,,blau,red,r,0.0,r,1.0,0.7652598000004218,,,,,,,,,,7.0,6.0,90.0,4.0,392.3337661999999,,,,,,,,,,,,,,,,,392.3203927,392.4338623999997,393.2364652000001,393.2183713999998,,,,,,,,,,,,,,,,,,,,,,,,,,,,,,,,,,,393.22748420000016,393.2364652000001,393.2364652000001,394.0180857999999,r,1.0,0.7652598000004218,,,,,,sub-089,1,stroop_test,59.99635222178321,
,,,,91.0,7.0,7.0,,,,,,,,,,,,,rot,blue,b,0.0,b,1.0,0.5992496999997456,,,,,,,,,,7.0,7.0,91.0,2.0,394.0344219000003,,,,,,,,,,,,,,,,,394.0191071000004,394.11724640000057,394.9206594000002,394.90200289999984,,,,,,,,,,,,,,,,,,,,,,,,,,,,,,,,,,,394.9108142999999,394.9206594000002,394.9206594000002,395.5344895000003,b,1.0,0.5992496999997456,,,,,,sub-089,1,stroop_test,59.99635222178321,
,,,,92.0,8.0,7.0,,,,,,,,,,,,,blau,blue,b,1.0,b,1.0,0.569350900000245,,,,,,,,,,7.0,8.0,92.0,6.0,395.5503110000004,,,,,,,,,,,,,,,,,395.5354677999999,396.3336406000003,397.1352204,397.1174694000006,,,,,,,,,,,,,,,,,,,,,,,,,,,,,,,,,,,397.1269775000005,397.1352204,397.1352204,397.7174581000004,b,1.0,0.569350900000245,,,,,,sub-089,1,stroop_test,59.99635222178321,
,,,,93.0,9.0,7.0,,,,,,,,,,,,,gelb,red,r,0.0,r,1.0,0.9921605999998064,,,,,,,,,,7.0,9.0,93.0,8.0,397.7333598,,,,,,,,,,,,,,,,,397.7184671,398.5167544000001,399.3241004000006,399.3006225000004,,,,,,,,,,,,,,,,,,,,,,,,,,,,,,,,,,,399.31489759999977,399.3241004000006,399.3241004000006,400.3172126000004,r,1.0,0.9921605999998064,,,,,,sub-089,1,stroop_test,59.99635222178321,
,,,,94.0,10.0,7.0,,,,,,,,,,,,,blau,blue,b,1.0,b,1.0,1.4559454000000187,,,,,,,,,,7.0,10.0,94.0,5.0,400.3330689999998,,,,,,,,,,,,,,,,,400.3182952000002,400.4163514000006,401.21717370000033,401.2003685000004,,,,,,,,,,,,,,,,,,,,,,,,,,,,,,,,,,,401.2090936,401.21717370000033,401.21717370000033,402.6819744999998,b,1.0,1.4559454000000187,,,,,,sub-089,1,stroop_test,59.99635222178321,
,,,,95.0,11.0,7.0,,,,,,,,,,,,,rot,red,r,1.0,r,1.0,0.6643034999997326,,,,,,,,,,7.0,11.0,95.0,0.0,402.6989741000002,,,,,,,,,,,,,,,,,402.6824304000006,403.88252349999993,404.6842459000004,404.6663586999998,,,,,,,,,,,,,,,,,,,,,,,,,,,,,,,,,,,404.6750267000002,404.6842459000004,404.6842459000004,405.3524957000004,r,1.0,0.6643034999997326,,,,,,sub-089,1,stroop_test,59.99635222178321,
,,,,96.0,0.0,8.0,,,,,,,,,,,,,rot,blue,b,0.0,b,1.0,0.7745250999996642,,,,,,,,,,8.0,0.0,96.0,2.0,405.3656120999999,,,,,,,,,,,,,,,,,405.3535463000003,405.46559430000025,406.2640075000004,406.24885200000017,,,,,,,,,,,,,,,,,,,,,,,,,,,,,,,,,,,406.2499960999999,406.2640075000004,406.2640075000004,407.0484214000003,b,1.0,0.7745250999996642,,,,,,sub-089,1,stroop_test,59.99635222178321,
,,,,97.0,1.0,8.0,,,,,,,,,,,,,gelb,red,r,0.0,r,1.0,1.1137416999999914,,,,,,,,,,8.0,1.0,97.0,8.0,407.0644138000002,,,,,,,,,,,,,,,,,407.0491777000002,408.2472633000002,409.04641390000006,409.0305424000003,,,,,,,,,,,,,,,,,,,,,,,,,,,,,,,,,,,409.0350848000003,409.04641390000006,409.04641390000006,410.1640505999999,r,1.0,1.1137416999999914,,,,,,sub-089,1,stroop_test,59.99635222178321,
,,,,98.0,2.0,8.0,,,,,,,,,,,,,blau,yellow,g,0.0,g,1.0,1.0245255999998335,,,,,,,,,,8.0,2.0,98.0,7.0,410.1795809999999,,,,,,,,,,,,,,,,,410.1645199999998,410.2635260000002,411.0643724000006,411.0477946000005,,,,,,,,,,,,,,,,,,,,,,,,,,,,,,,,,,,411.0537261000004,411.0643724000006,411.0643724000006,412.0978312000002,g,1.0,1.0245255999998335,,,,,,sub-089,1,stroop_test,59.99635222178321,
,,,,99.0,3.0,8.0,,,,,,,,,,,,,rot,red,r,1.0,r,1.0,0.827324600000793,,,,,,,,,,8.0,3.0,99.0,0.0,412.1138686999998,,,,,,,,,,,,,,,,,412.0985658000004,412.8970648999998,413.6975379999999,413.68118060000006,,,,,,,,,,,,,,,,,,,,,,,,,,,,,,,,,,,413.6877448999999,413.6975379999999,413.6975379999999,414.5313545000004,r,1.0,0.827324600000793,,,,,,sub-089,1,stroop_test,59.99635222178321,
,,,,100.0,4.0,8.0,,,,,,,,,,,,,gelb,blue,b,0.0,b,1.0,0.5672565000004397,,,,,,,,,,8.0,4.0,100.0,9.0,414.5473413000004,,,,,,,,,,,,,,,,,414.5322830999999,415.7306801999998,416.5328470999998,416.5147991999997,,,,,,,,,,,,,,,,,,,,,,,,,,,,,,,,,,,416.5225136000004,416.5328470999998,416.5328470999998,417.11540860000014,b,1.0,0.5672565000004397,,,,,,sub-089,1,stroop_test,59.99635222178321,
,,,,101.0,5.0,8.0,,,,,,,,,,,,,blau,blue,b,1.0,b,1.0,0.7812260000000606,,,,,,,,,,8.0,5.0,101.0,5.0,417.1311634999997,,,,,,,,,,,,,,,,,417.11628620000056,417.9143803000002,418.7161785000003,418.69820759999993,,,,,,,,,,,,,,,,,,,,,,,,,,,,,,,,,,,418.7070892000006,418.7161785000003,418.7161785000003,419.51493960000016,b,1.0,0.7812260000000606,,,,,,sub-089,1,stroop_test,59.99635222178321,
,,,,102.0,6.0,8.0,,,,,,,,,,,,,gelb,yellow,g,1.0,g,1.0,0.7151966000001266,,,,,,,,,,8.0,6.0,102.0,11.0,419.5308455,,,,,,,,,,,,,,,,,419.5157906,420.7298311999998,421.5305149999999,421.5135071,,,,,,,,,,,,,,,,,,,,,,,,,,,,,,,,,,,421.5225409,421.5305149999999,421.5305149999999,422.2491794000002,g,1.0,0.7151966000001266,,,,,,sub-089,1,stroop_test,59.99635222178321,
,,,,103.0,7.0,8.0,,,,,,,,,,,,,rot,red,r,1.0,r,1.0,0.572245300000759,,,,,,,,,,8.0,7.0,103.0,1.0,422.2645156000003,,,,,,,,,,,,,,,,,422.25023610000017,422.61369930000046,423.414558,423.3971993999999,,,,,,,,,,,,,,,,,,,,,,,,,,,,,,,,,,,423.4057869000003,423.414558,423.414558,423.9974323000001,r,1.0,0.572245300000759,,,,,,sub-089,1,stroop_test,59.99635222178321,
,,,,104.0,8.0,8.0,,,,,,,,,,,,,gelb,yellow,g,1.0,g,1.0,0.583513600000515,,,,,,,,,,8.0,8.0,104.0,10.0,424.0132660000004,,,,,,,,,,,,,,,,,423.9984786999999,425.21316119999983,426.0170110000004,425.9972315999999,,,,,,,,,,,,,,,,,,,,,,,,,,,,,,,,,,,426.0076166000004,426.0170110000004,426.0170110000004,426.6141318000005,g,1.0,0.583513600000515,,,,,,sub-089,1,stroop_test,59.99635222178321,
,,,,105.0,9.0,8.0,,,,,,,,,,,,,rot,yellow,g,0.0,g,1.0,1.118395500000588,,,,,,,,,,8.0,9.0,105.0,3.0,426.6298857000006,,,,,,,,,,,,,,,,,426.6152158,427.8130538,428.6151252000004,428.5974901000004,,,,,,,,,,,,,,,,,,,,,,,,,,,,,,,,,,,428.60643540000046,428.6151252000004,428.6151252000004,429.7475043,g,1.0,1.118395500000588,,,,,,sub-089,1,stroop_test,59.99635222178321,
,,,,106.0,10.0,8.0,,,,,,,,,,,,,blau,blue,b,1.0,b,1.0,0.6099627000003238,,,,,,,,,,8.0,10.0,106.0,6.0,429.76238800000056,,,,,,,,,,,,,,,,,429.74853440000015,429.8624544999998,430.6638453999999,430.6465831,,,,,,,,,,,,,,,,,,,,,,,,,,,,,,,,,,,430.6552660000002,430.6638453999999,430.6638453999999,431.2798629000004,b,1.0,0.6099627000003238,,,,,,sub-089,1,stroop_test,59.99635222178321,
,,,,107.0,11.0,8.0,,,,,,,,,,,,,blau,red,r,0.0,r,1.0,0.9014462999994066,,,,,,,,,,8.0,11.0,107.0,4.0,431.2956742000001,,,,,,,,,,,,,,,,,431.2809194000006,432.4788346999999,433.2787234000002,433.2627686000001,,,,,,,,,,,,,,,,,,,,,,,,,,,,,,,,,,,433.26415810000026,433.2787234000002,433.2787234000002,434.1963505999997,r,1.0,0.9014462999994066,,,,,,sub-089,1,stroop_test,59.99635222178321,
,,,,108.0,0.0,9.0,,,,,,,,,,,,,gelb,yellow,g,1.0,g,1.0,0.6948582000004535,,,,,,,,,,9.0,0.0,108.0,10.0,434.21225580000055,,,,,,,,,,,,,,,,,434.1973531999997,434.3121406000005,435.11708279999993,435.0960331000001,,,,,,,,,,,,,,,,,,,,,,,,,,,,,,,,,,,435.1079255999998,435.11708279999993,435.11708279999993,435.8133714999999,g,1.0,0.6948582000004535,,,,,,sub-089,1,stroop_test,59.99635222178321,
,,,,109.0,1.0,9.0,,,,,,,,,,,,,gelb,red,r,0.0,r,1.0,0.6075041999993118,,,,,,,,,,9.0,1.0,109.0,8.0,435.8296219999997,,,,,,,,,,,,,,,,,435.8143617999999,435.92849440000055,436.74277310000025,436.72720919999983,,,,,,,,,,,,,,,,,,,,,,,,,,,,,,,,,,,436.72780400000056,436.74277310000025,436.74277310000025,437.3625803,r,1.0,0.6075041999993118,,,,,,sub-089,1,stroop_test,59.99635222178321,
,,,,110.0,2.0,9.0,,,,,,,,,,,,,blau,yellow,g,0.0,g,1.0,0.7210318000006737,,,,,,,,,,9.0,2.0,110.0,7.0,437.37832560000015,,,,,,,,,,,,,,,,,437.3636247,438.1617250000004,438.9637791999999,438.9457642000002,,,,,,,,,,,,,,,,,,,,,,,,,,,,,,,,,,,438.9547544000002,438.9637791999999,438.9637791999999,439.69590480000033,g,1.0,0.7210318000006737,,,,,,sub-089,1,stroop_test,59.99635222178321,
,,,,111.0,3.0,9.0,,,,,,,,,,,,,rot,yellow,g,0.0,g,1.0,0.6625311999996484,,,,,,,,,,9.0,3.0,111.0,3.0,439.7120857000005,,,,,,,,,,,,,,,,,439.6969505000002,440.9109404000005,441.7259532000003,441.7095439,,,,,,,,,,,,,,,,,,,,,,,,,,,,,,,,,,,441.71431950000033,441.7259532000003,441.7259532000003,442.3938720000001,g,1.0,0.6625311999996484,,,,,,sub-089,1,stroop_test,59.99635222178321,
,,,,112.0,4.0,9.0,,,,,,,,,,,,,blau,blue,b,1.0,b,1.0,0.6482949999999619,,,,,,,,,,9.0,4.0,112.0,5.0,442.4112402000005,,,,,,,,,,,,,,,,,442.3946805000001,442.4942666000002,443.2934028000004,443.2776122999999,,,,,,,,,,,,,,,,,,,,,,,,,,,,,,,,,,,443.2842489,443.2934028000004,443.2934028000004,443.94394280000006,b,1.0,0.6482949999999619,,,,,,sub-089,1,stroop_test,59.99635222178321,
,,,,113.0,5.0,9.0,,,,,,,,,,,,,rot,red,r,1.0,r,1.0,0.6120994000002611,,,,,,,,,,9.0,5.0,113.0,1.0,443.9585492000001,,,,,,,,,,,,,,,,,443.94440690000056,444.3090016000001,445.1095273000005,445.09412889999976,,,,,,,,,,,,,,,,,,,,,,,,,,,,,,,,,,,445.1009934999997,445.1095273000005,445.1095273000005,445.72716869999977,r,1.0,0.6120994000002611,,,,,,sub-089,1,stroop_test,59.99635222178321,
,,,,114.0,6.0,9.0,,,,,,,,,,,,,rot,red,r,1.0,r,1.0,0.5521325999998226,,,,,,,,,,9.0,6.0,114.0,0.0,445.74236710000014,,,,,,,,,,,,,,,,,445.7279338000003,445.8250727999998,446.6250036000006,446.6095688,,,,,,,,,,,,,,,,,,,,,,,,,,,,,,,,,,,446.6102233000006,446.6250036000006,446.6250036000006,447.1779498000001,r,1.0,0.5521325999998226,,,,,,sub-089,1,stroop_test,59.99635222178321,
,,,,115.0,7.0,9.0,,,,,,,,,,,,,blau,blue,b,1.0,b,1.0,0.5480990000005477,,,,,,,,,,9.0,7.0,115.0,6.0,447.1930279000003,,,,,,,,,,,,,,,,,447.1786991000004,447.99207160000014,448.7915614999997,448.7748974000001,,,,,,,,,,,,,,,,,,,,,,,,,,,,,,,,,,,448.77883770000017,448.7915614999997,448.7915614999997,449.34299150000015,b,1.0,0.5480990000005477,,,,,,sub-089,1,stroop_test,59.99635222178321,
,,,,116.0,8.0,9.0,,,,,,,,,,,,,gelb,blue,b,0.0,b,1.0,0.8201051999994888,,,,,,,,,,9.0,8.0,116.0,9.0,449.35869240000056,,,,,,,,,,,,,,,,,449.34381880000046,449.4421388000005,450.2447296000005,450.2277562000004,,,,,,,,,,,,,,,,,,,,,,,,,,,,,,,,,,,450.23652230000016,450.2447296000005,450.2447296000005,451.0774527999997,b,1.0,0.8201051999994888,,,,,,sub-089,1,stroop_test,59.99635222178321,
,,,,117.0,9.0,9.0,,,,,,,,,,,,,blau,red,r,0.0,r,1.0,1.2171280999991725,,,,,,,,,,9.0,9.0,117.0,4.0,451.0931777999999,,,,,,,,,,,,,,,,,451.07838930000025,451.1928143,451.9935377000006,451.9770555999999,,,,,,,,,,,,,,,,,,,,,,,,,,,,,,,,,,,451.9859716000005,451.9935377000006,451.9935377000006,453.2262566000004,r,1.0,1.2171280999991725,,,,,,sub-089,1,stroop_test,59.99635222178321,
,,,,118.0,10.0,9.0,,,,,,,,,,,,,gelb,yellow,g,1.0,g,1.0,0.5796109000002616,,,,,,,,,,9.0,10.0,118.0,11.0,453.2419450000002,,,,,,,,,,,,,,,,,453.2271329999999,453.5756961000002,454.3804525000001,454.3607358000004,,,,,,,,,,,,,,,,,,,,,,,,,,,,,,,,,,,454.3711382000006,454.3804525000001,454.3804525000001,454.9775800000002,g,1.0,0.5796109000002616,,,,,,sub-089,1,stroop_test,59.99635222178321,
,,,,119.0,11.0,9.0,,,,,,,,,,,,,rot,blue,b,0.0,r,0.0,0.6851671999993414,,,,,,,,,,9.0,11.0,119.0,2.0,454.9938726000005,,,,,,,,,,,,,,,,,454.9786125000005,455.792301,456.5940155000003,456.57698180000034,,,,,,,,,,,,,,,,,,,,,,,,,,,,,,,,,,,456.5861037999998,456.5940155000003,456.5940155000003,457.2932433000001,r,0.0,0.6851671999993414,,,,,,sub-089,1,stroop_test,59.99635222178321,
,,,,,,,,,,,,,,,,,,,,,,,,,,,,,,,,,,,,,,,,,,,,,,,,,,,,,,,,,,,,,,,,,,,,,,,,,,,,,,,,,,,,,,,,,,,,,,,,,,,,,,457.2937084999999,457.3090122999997,462.3094213999998,462.29302940000025,sub-089,1,stroop_test,59.99635222178321,
