wordCTK,colorCTK,corrAnsCTK,congruentCTK,wordPractice,colorPractice,corrAnsPractice,congruentPractice,word,color,corrAns,congruent,trials_CTK.thisRepN,trials_CTK.thisTrialN,trials_CTK.thisN,trials_CTK.thisIndex,trials_practice.thisRepN,trials_practice.thisTrialN,trials_practice.thisN,trials_practice.thisIndex,trials_test.thisRepN,trials_test.thisTrialN,trials_test.thisN,trials_test.thisIndex,thisRow.t,notes,instruction.started,instr_text.started,instr_image.started,instr_resp.started,instruction.stopped,instr_resp.keys,instr_resp.rt,instr_resp.duration,instr_color_to_key.started,instr_ctk.started,resp_ctk.started,instr_color_to_key.stopped,resp_ctk.keys,resp_ctk.rt,resp_ctk.duration,ITI.started,fixcross.started,fixcross.stopped,ITI.stopped,color_to_key_run.started,stimulus_CTK.started,keyResp_CTK.started,color_to_key_run.stopped,keyResp_CTK.keys,keyResp_CTK.corr,keyResp_CTK.rt,keyResp_CTK.duration,instr_practice.started,instr_practice_text.started,instr_practice_resp.started,instr_practice.stopped,instr_practice_resp.keys,instr_practice_resp.rt,instr_practice_resp.duration,practice_run.started,stimulus_practice.started,respPractice.started,practice_run.stopped,respPractice.keys,respPractice.corr,respPractice.rt,respPractice.duration,feedback.started,textFeedback.started,feedback.stopped,textFeedback.stopped,instr_test.started,instr_test_text.started,instr_test_resp.started,instr_test.stopped,instr_test_resp.keys,instr_test_resp.rt,instr_test_resp.duration,test_run.started,stimulus_test_run.started,keyResp_test_run.started,test_run.stopped,keyResp_test_run.keys,keyResp_test_run.corr,keyResp_test_run.rt,keyResp_test_run.duration,goodbye.started,textGoodbye.started,goodbye.stopped,participant,session,expName,frameRate,Unnamed: 97
,,,,,,,,,,,,,,,,,,,,,,,,,,0.0077401999151334,0.0672552000032737,0.0672552000032737,0.0672552000032737,100.29048139997758,space,100.21463960001712,,,,,,,,,,,,,,,,,,,,,,,,,,,,,,,,,,,,,,,,,,,,,,,,,,,,,,,,,,sub-154,2.0,stroop_test,59.357537782048034,
,,,,,,,,,,,,,,,,,,,,,,,,,,,,,,,,,,100.29058869997972,100.30763919989111,100.30763919989111,109.5488006999949,space,9.236180300009435,,,,,,,,,,,,,,,,,,,,,,,,,,,,,,,,,,,,,,,,,,,,,,,,,,,sub-154,2.0,stroop_test,59.357537782048034,
test,red,r,1.0,,,,,,,,,0.0,0.0,0.0,0.0,,,,,,,,,109.59961509995628,,,,,,,,,,,,,,,,,109.59229519998188,110.76165000000036,111.58159919991158,111.54733380000108,111.54739479999988,111.58159919991158,111.58159919991158,183.95076679997143,b,0.0,72.35563609993551,,,,,,,,,,,,,,,,,,,,,,,,,,,,,,,,,,,,,,,sub-154,2.0,stroop_test,59.357537782048034,
test,yellow,g,1.0,,,,,,,,,0.0,1.0,1.0,1.0,,,,,,,,,183.96395669993944,,,,,,,,,,,,,,,,,183.95540549990253,184.06332519999705,184.86241879989396,184.84773289994337,184.84778829989955,184.86241879989396,184.86241879989396,189.44337839994117,b,0.0,4.571651299949735,,,,,,,,,,,,,,,,,,,,,,,,,,,,,,,,,,,,,,,sub-154,2.0,stroop_test,59.357537782048034,
test,blue,b,1.0,,,,,,,,,0.0,2.0,2.0,2.0,,,,,,,,,189.4583338999655,,,,,,,,,,,,,,,,,189.44497429998592,190.25902779994067,191.0587387999985,191.04367419995836,191.04373009991832,191.0587387999985,191.0587387999985,193.02625259989875,b,1.0,1.952554899966344,,,,,,,,,,,,,,,,,,,,,,,,,,,,,,,,,,,,,,,sub-154,2.0,stroop_test,59.357537782048034,
test,red,r,1.0,,,,,,,,,1.0,0.0,3.0,0.0,,,,,,,,,193.04012159991544,,,,,,,,,,,,,,,,,193.0282225999981,193.14027429989076,193.9394949999405,193.9244280999992,193.92447659990285,193.9394949999405,193.9394949999405,194.95537619991228,b,0.0,1.0140856000361964,,,,,,,,,,,,,,,,,,,,,,,,,,,,,,,,,,,,,,,sub-154,2.0,stroop_test,59.357537782048034,
test,yellow,g,1.0,,,,,,,,,1.0,1.0,4.0,1.0,,,,,,,,,194.97001809999347,,,,,,,,,,,,,,,,,194.95653579989448,196.1558150999481,196.9714541999856,196.9567771999864,196.95686259993815,196.9714541999856,196.9714541999856,199.73873149999417,b,0.0,2.756800099974498,,,,,,,,,,,,,,,,,,,,,,,,,,,,,,,,,,,,,,,sub-154,2.0,stroop_test,59.357537782048034,
test,blue,b,1.0,,,,,,,,,1.0,2.0,5.0,2.0,,,,,,,,,199.7526591999922,,,,,,,,,,,,,,,,,199.74151929991783,200.1021784999175,200.9169909999473,200.90146219998127,200.9014997999184,200.9169909999473,200.9169909999473,202.97107659990436,b,1.0,2.048601300106384,,,,,,,,,,,,,,,,,,,,,,,,,,,,,,,,,,,,,,,sub-154,2.0,stroop_test,59.357537782048034,
test,yellow,g,1.0,,,,,,,,,2.0,0.0,6.0,1.0,,,,,,,,,202.98381809995044,,,,,,,,,,,,,,,,,202.97332739993,203.33383469993717,204.13288449996617,204.1183700999245,204.1184877998894,204.13288449996617,204.13288449996617,208.94894149992612,b,0.0,4.800833299988881,,,,,,,,,,,,,,,,,,,,,,,,,,,,,,,,,,,,,,,sub-154,2.0,stroop_test,59.357537782048034,
test,red,r,1.0,,,,,,,,,2.0,1.0,7.0,0.0,,,,,,,,,208.9629793999484,,,,,,,,,,,,,,,,,208.95128299994397,210.16290319990367,210.9616450999165,210.94729399995413,210.94736819993705,210.9616450999165,210.9616450999165,212.58225749991837,b,0.0,1.6125490999547765,,,,,,,,,,,,,,,,,,,,,,,,,,,,,,,,,,,,,,,sub-154,2.0,stroop_test,59.357537782048034,
test,blue,b,1.0,,,,,,,,,2.0,2.0,8.0,2.0,,,,,,,,,212.59365389996677,,,,,,,,,,,,,,,,,212.58516649995,212.6938704999629,213.49316069995984,213.4780871999683,213.47813639999367,213.49316069995984,213.49316069995984,215.09501950000413,b,1.0,1.587369800079614,,,,,,,,,,,,,,,,,,,,,,,,,,,,,,,,,,,,,,,sub-154,2.0,stroop_test,59.357537782048034,
test,blue,b,1.0,,,,,,,,,3.0,0.0,9.0,2.0,,,,,,,,,215.10963119997177,,,,,,,,,,,,,,,,,215.09779839997643,215.45853499998336,216.25795769994147,216.24314109992704,216.24318859993943,216.25795769994147,216.25795769994147,228.2543835999677,b,1.0,11.992080299998634,,,,,,,,,,,,,,,,,,,,,,,,,,,,,,,,,,,,,,,sub-154,2.0,stroop_test,59.357537782048034,
test,yellow,g,1.0,,,,,,,,,3.0,1.0,10.0,1.0,,,,,,,,,228.26678089995403,,,,,,,,,,,,,,,,,228.2574800999137,228.61760859994683,229.4328731999267,229.417398499907,229.41746459994465,229.4328731999267,229.4328731999267,231.20054849993903,b,0.0,1.7502874999772755,,,,,,,,,,,,,,,,,,,,,,,,,,,,,,,,,,,,,,,sub-154,2.0,stroop_test,59.357537782048034,
test,red,r,1.0,,,,,,,,,3.0,2.0,11.0,0.0,,,,,,,,,231.2149722999893,,,,,,,,,,,,,,,,,231.20335409999825,232.01446929993108,232.81368269992527,232.80029970000032,232.80035089992447,232.81368269992527,232.81368269992527,242.07825449993837,b,0.0,9.249031099956484,,,,,,,,,,,,,,,,,,,,,,,,,,,,,,,,,,,,,,,sub-154,2.0,stroop_test,59.357537782048034,
,,,,,,,,,,,,,,,,,,,,,,,,,,,,,,,,,,,,,,,,,,,,,,,,,,,,,242.0809191999724,242.094326499966,242.094326499966,247.15807199990377,space,5.0587503999704495,,,,,,,,,,,,,,,,,,,,,,,,,,,,,,,,sub-154,2.0,stroop_test,59.357537782048034,
,,,,gelb,blue,b,0.0,,,,,,,,,0.0,0.0,0.0,9.0,,,,,247.1965191999916,,,,,,,,,,,,,,,,,247.1899689999409,247.97040569991805,248.7873781999806,248.75496359996032,,,,,,,,,,,,,,,,248.75503959995692,248.7873781999806,248.7873781999806,250.4199174999958,b,1.0,1.616760900011286,,250.4215592999244,250.44864580000285,251.43538809998427,,,,,,,,,,,,,,,,,,,,sub-154,2.0,stroop_test,59.357537782048034,
,,,,blau,blue,b,1.0,,,,,,,,,0.0,1.0,1.0,6.0,,,,,251.4518373999745,,,,,,,,,,,,,,,,,251.4367987998994,252.2335194000043,253.04988029995,253.0198347999249,,,,,,,,,,,,,,,,253.01990059996024,253.04988029995,253.04988029995,261.51467329997104,b,1.0,8.450407800031826,,261.51629239995964,261.52876249991823,262.5138041999889,262.5280782999471,,,,,,,,,,,,,,,,,,,sub-154,2.0,stroop_test,59.357537782048034,
,,,,gelb,red,r,0.0,,,,,,,,,0.0,2.0,2.0,8.0,,,,,262.5280782999471,,,,,,,,,,,,,,,,,262.5150091999676,263.32902939990163,264.14953199995216,264.12868749990594,,,,,,,,,,,,,,,,264.1287414999679,264.14953199995216,264.14953199995216,265.2626700999681,g,0.0,1.101311499951407,,265.2642961998936,265.292583399918,266.27550279989373,,,,,,,,,,,,,,,,,,,,sub-154,2.0,stroop_test,59.357537782048034,
,,,,rot,red,r,1.0,,,,,,,,,0.0,3.0,3.0,1.0,,,,,266.29221159999724,,,,,,,,,,,,,,,,,266.27651899994817,267.4752695999341,268.2912323999917,268.2598752999911,,,,,,,,,,,,,,,,268.2599379000021,268.2912323999917,268.2912323999917,270.1075842999853,r,1.0,1.8072592000244183,,270.10877639998216,270.1285704999464,271.1220634999918,,,,,,,,,,,,,,,,,,,,sub-154,2.0,stroop_test,59.357537782048034,
,,,,blau,red,r,0.0,,,,,,,,,0.0,4.0,4.0,4.0,,,,,271.1386244999012,,,,,,,,,,,,,,,,,271.1234799999511,271.4723314999137,272.2770810999209,272.25719969999045,,,,,,,,,,,,,,,,272.25729489990044,272.2770810999209,272.2770810999209,273.7878508999711,r,1.0,1.4982063999632371,,273.7890763999894,273.8024878998985,274.7878917999333,274.80279399990104,,,,,,,,,,,,,,,,,,,sub-154,2.0,stroop_test,59.357537782048034,
,,,,rot,blue,b,0.0,,,,,,,,,0.0,5.0,5.0,2.0,,,,,274.80279399990104,,,,,,,,,,,,,,,,,274.7890546999406,274.90261759993155,275.70622279995587,275.686616199906,,,,,,,,,,,,,,,,275.68666679994203,275.70622279995587,275.70622279995587,277.1366356998915,b,1.0,1.4187503999564797,,277.1384216999868,277.1509792999132,278.13524179998785,278.1503308999818,,,,,,,,,,,,,,,,,,,sub-154,2.0,stroop_test,59.357537782048034,
,,,,rot,red,r,1.0,,,,,,,,,0.0,6.0,6.0,0.0,,,,,278.1503308999818,,,,,,,,,,,,,,,,,278.13607879995834,278.9507019999437,279.7502019999083,279.73511659994256,,,,,,,,,,,,,,,,279.7351791999536,279.7502019999083,279.7502019999083,281.4007667999249,r,1.0,1.6467293000314385,,281.4019539000001,281.4147270999383,282.3986809999915,282.4138570999494,,,,,,,,,,,,,,,,,,,sub-154,2.0,stroop_test,59.357537782048034,
,,,,gelb,yellow,g,1.0,,,,,,,,,0.0,7.0,7.0,10.0,,,,,282.4138570999494,,,,,,,,,,,,,,,,,282.39970949990675,282.51441919989884,283.32933879992925,283.3143437999533,,,,,,,,,,,,,,,,283.314382399898,283.32933879992925,283.32933879992925,285.21451809990685,g,1.0,1.8819845999823883,,285.215433599893,285.2291046999162,286.2136499999324,286.22835969994776,,,,,,,,,,,,,,,,,,,sub-154,2.0,stroop_test,59.357537782048034,
,,,,blau,blue,b,1.0,,,,,,,,,0.0,8.0,8.0,5.0,,,,,286.22835969994776,,,,,,,,,,,,,,,,,286.21452509996016,287.0274665999459,287.83716090000235,287.8129829999525,,,,,,,,,,,,,,,,287.81306149996817,287.83716090000235,287.83716090000235,289.2966503999196,b,1.0,1.4559812999796122,,289.2982213998912,289.3107578000054,290.3095543999225,,,,,,,,,,,,,,,,,,,,sub-154,2.0,stroop_test,59.357537782048034,
,,,,blau,yellow,g,0.0,,,,,,,,,0.0,9.0,9.0,7.0,,,,,290.3259397998918,,,,,,,,,,,,,,,,,290.3111736999126,290.65923170000315,291.4589982999023,291.4439469999634,,,,,,,,,,,,,,,,291.444008499966,291.4589982999023,291.4589982999023,314.4289616999449,g,1.0,22.959218599949963,,314.4304498999845,314.4432653998956,315.4275293999817,315.4423665999202,,,,,,,,,,,,,,,,,,,sub-154,2.0,stroop_test,59.357537782048034,
,,,,gelb,yellow,g,1.0,,,,,,,,,0.0,10.0,10.0,11.0,,,,,315.4423665999202,,,,,,,,,,,,,,,,,315.4287440999178,316.24264139996376,317.0501002999954,317.027436299948,,,,,,,,,,,,,,,,317.02752109989524,317.0501002999954,317.0501002999954,319.09307719999924,g,1.0,2.027051700046286,,319.0942906999262,319.107483199914,320.1062159999274,,,,,,,,,,,,,,,,,,,,sub-154,2.0,stroop_test,59.357537782048034,
,,,,rot,yellow,g,0.0,,,,,,,,,0.0,11.0,11.0,3.0,,,,,320.1230426999973,,,,,,,,,,,,,,,,,320.10781479999423,321.3050866998965,322.11902819992974,322.09137989999726,,,,,,,,,,,,,,,,322.0914344999473,322.11902819992974,322.11902819992974,323.5551608999958,g,1.0,1.4272367999656126,,323.55660739995074,323.57048749993555,324.554839599994,324.56988259998616,,,,,,,,,,,,,,,,,,,sub-154,2.0,stroop_test,59.357537782048034,
,,,,gelb,yellow,g,1.0,,,,,,,,,1.0,0.0,12.0,11.0,,,,,324.56988259998616,,,,,,,,,,,,,,,,,324.5559437999036,324.9196299999021,325.7246693999041,325.7038742000004,,,,,,,,,,,,,,,,325.70392169989645,325.7246693999041,325.7246693999041,326.55478439992294,g,1.0,0.8251733999932185,,326.5562623000005,326.5685207999777,327.55281369993463,327.56778489996213,,,,,,,,,,,,,,,,,,,sub-154,2.0,stroop_test,59.357537782048034,
,,,,blau,blue,b,1.0,,,,,,,,,1.0,1.0,13.0,6.0,,,,,327.56778489996213,,,,,,,,,,,,,,,,,327.5536838999251,327.6676840999862,328.47437089995947,328.4523221999407,,,,,,,,,,,,,,,,328.4523800999159,328.47437089995947,328.47437089995947,329.7185737999389,b,1.0,1.2264333000639454,,329.72029489988927,329.7332021999173,330.71778199996334,330.7323776999256,,,,,,,,,,,,,,,,,,,sub-154,2.0,stroop_test,59.357537782048034,
,,,,gelb,red,r,0.0,,,,,,,,,1.0,2.0,14.0,8.0,,,,,330.7323776999256,,,,,,,,,,,,,,,,,330.7188029999379,330.8333493999671,331.6543369999854,331.63470309996046,,,,,,,,,,,,,,,,331.6347670999821,331.6543369999854,331.6543369999854,332.8820504999021,r,1.0,1.2140599000267684,,332.88326489995234,332.8966052999021,333.88198439998087,333.8967826999724,,,,,,,,,,,,,,,,,,,sub-154,2.0,stroop_test,59.357537782048034,
,,,,blau,blue,b,1.0,,,,,,,,,1.0,3.0,15.0,5.0,,,,,333.8967826999724,,,,,,,,,,,,,,,,,333.88308709999546,333.996909199981,334.80339009989984,334.781310099992,,,,,,,,,,,,,,,,334.78136139991693,334.80339009989984,334.80339009989984,335.7324304999784,b,1.0,0.9238076000474392,,335.73426129994914,335.74616499990225,336.74528689996805,,,,,,,,,,,,,,,,,,,,sub-154,2.0,stroop_test,59.357537782048034,
,,,,rot,red,r,1.0,,,,,,,,,1.0,4.0,16.0,1.0,,,,,336.76153849996626,,,,,,,,,,,,,,,,,336.7462328999536,336.8450560999336,337.652918699896,337.6297843999928,,,,,,,,,,,,,,,,337.6298365999246,337.652918699896,337.652918699896,338.9296716999961,r,1.0,1.2629958000034094,,338.9316591999959,338.9438526999438,339.9279294000007,339.9429957999382,,,,,,,,,,,,,,,,,,,sub-154,2.0,stroop_test,59.357537782048034,
,,,,rot,yellow,g,0.0,,,,,,,,,1.0,5.0,17.0,3.0,,,,,339.9429957999382,,,,,,,,,,,,,,,,,339.92902599996887,340.74231589993,341.5419788999716,341.52773119998164,,,,,,,,,,,,,,,,341.5277869999409,341.5419788999716,341.5419788999716,358.2520947000012,g,1.0,16.697586800088175,,358.25400699989405,358.2665858999826,359.2643720000051,,,,,,,,,,,,,,,,,,,,sub-154,2.0,stroop_test,59.357537782048034,
,,,,blau,red,r,0.0,,,,,,,,,1.0,6.0,18.0,4.0,,,,,359.28065839991905,,,,,,,,,,,,,,,,,359.26548699999694,359.6133438999532,360.42438859993126,360.398993199924,,,,,,,,,,,,,,,,360.3990956998896,360.42438859993126,360.42438859993126,365.5441168999532,r,1.0,5.115124000003561,,365.54527899995446,365.55833329993766,366.5437560999999,366.5585740999086,,,,,,,,,,,,,,,,,,,sub-154,2.0,stroop_test,59.357537782048034,
,,,,gelb,yellow,g,1.0,,,,,,,,,1.0,7.0,19.0,10.0,,,,,366.5585740999086,,,,,,,,,,,,,,,,,366.5448561999947,367.3589981999248,368.1672935999232,368.1435774998972,,,,,,,,,,,,,,,,368.1436359999934,368.1672935999232,368.1672935999232,370.1767392999027,g,1.0,2.006127699976787,,370.1783708999865,370.1905939999269,371.1893777999794,,,,,,,,,,,,,,,,,,,,sub-154,2.0,stroop_test,59.357537782048034,
,,,,rot,blue,b,0.0,,,,,,,,,1.0,8.0,20.0,2.0,,,,,371.2057536999928,,,,,,,,,,,,,,,,,371.1907724000048,372.3885510999244,373.195710400003,373.1732317999704,,,,,,,,,,,,,,,,373.1732938999776,373.195710400003,373.195710400003,374.1573900999501,b,1.0,0.9435537001118064,,374.1588465999812,374.1705685999477,375.1551236999221,375.1701800998999,,,,,,,,,,,,,,,,,,,sub-154,2.0,stroop_test,59.357537782048034,
,,,,blau,yellow,g,0.0,,,,,,,,,1.0,9.0,21.0,7.0,,,,,375.1701800998999,,,,,,,,,,,,,,,,,375.156356099993,375.2700183999259,376.07985829992685,376.0546933999285,,,,,,,,,,,,,,,,376.0547543999273,376.07985829992685,376.07985829992685,376.8560650999425,g,1.0,0.7658903000410646,,376.8581846999005,376.8702443999937,377.8690352999838,,,,,,,,,,,,,,,,,,,,sub-154,2.0,stroop_test,59.357537782048034,
,,,,rot,red,r,1.0,,,,,,,,,1.0,10.0,22.0,0.0,,,,,377.8848626998952,,,,,,,,,,,,,,,,,377.8706123000011,378.2180655999109,379.0283159998944,379.0028751998907,,,,,,,,,,,,,,,,379.0029288999504,379.0283159998944,379.0283159998944,379.6200118999696,r,1.0,0.586117000086233,,379.6212286999216,379.6324313998921,380.6183603999671,380.63267550000455,,,,,,,,,,,,,,,,,,,sub-154,2.0,stroop_test,59.357537782048034,
,,,,gelb,blue,b,0.0,,,,,,,,,1.0,11.0,23.0,9.0,,,,,380.63267550000455,,,,,,,,,,,,,,,,,380.61944419995416,381.4321170999901,382.24208769993857,382.2170641999692,,,,,,,,,,,,,,,,382.2171199999284,382.24208769993857,382.24208769993857,383.2679291999666,b,1.0,1.0129781999858096,,383.270310999942,383.2827030000044,384.28139469993766,,,,,,,,,,,,,,,,,,,,sub-154,2.0,stroop_test,59.357537782048034,
,,,,,,,,,,,,,,,,,,,,,,,,,,,,,,,,,,,,,,,,,,,,,,,,,,,,,,,,,,,,,,,,,,,,,,,,384.2816517999163,384.2972337999381,384.2972337999381,388.91413199994713,space,4.60653819993604,,,,,,,,,,,,,sub-154,2.0,stroop_test,59.357537782048034,
,,,,,,,,rot,yellow,g,0.0,,,,,,,,,0.0,0.0,0.0,3.0,388.9695294999983,,,,,,,,,,,,,,,,,388.9638450999046,390.1267937999218,390.9473563999636,390.9135737000033,,,,,,,,,,,,,,,,,,,,,,,,,,,,,,,,,,,390.9136593999574,390.9473563999636,390.9473563999636,392.30947819992434,g,1.0,1.3497161000268534,,,,,sub-154,2.0,stroop_test,59.357537782048034,
,,,,,,,,blau,blue,b,1.0,,,,,,,,,0.0,1.0,1.0,6.0,392.3240422999952,,,,,,,,,,,,,,,,,392.3119426999474,392.6752658999758,393.4887017000001,393.460308299982,,,,,,,,,,,,,,,,,,,,,,,,,,,,,,,,,,,393.46036709996406,393.4887017000001,393.4887017000001,394.3952933999244,b,1.0,0.8967425000155345,,,,,sub-154,2.0,stroop_test,59.357537782048034,
,,,,,,,,blau,blue,b,1.0,,,,,,,,,0.0,2.0,2.0,5.0,394.4071031999774,,,,,,,,,,,,,,,,,394.397995499894,394.75707959989086,395.5563039999688,395.54180929996073,,,,,,,,,,,,,,,,,,,,,,,,,,,,,,,,,,,395.5418909,395.5563039999688,395.5563039999688,396.55793379992247,b,1.0,0.98973799997475,,,,,sub-154,2.0,stroop_test,59.357537782048034,
,,,,,,,,rot,red,r,1.0,,,,,,,,,0.0,3.0,3.0,0.0,396.5719938999973,,,,,,,,,,,,,,,,,396.561739299912,396.671851299936,397.47694339999,397.4563387999078,,,,,,,,,,,,,,,,,,,,,,,,,,,,,,,,,,,397.4563895999454,397.47694339999,397.47694339999,398.19139269995503,r,1.0,0.7090345999458805,,,,,sub-154,2.0,stroop_test,59.357537782048034,
,,,,,,,,gelb,yellow,g,1.0,,,,,,,,,0.0,4.0,4.0,10.0,398.2042073999765,,,,,,,,,,,,,,,,,398.19435579993296,398.55310469993856,399.3527082999936,399.3373206999386,,,,,,,,,,,,,,,,,,,,,,,,,,,,,,,,,,,399.3373793999199,399.3527082999936,399.3527082999936,400.2871407999192,g,1.0,0.9318790000397712,,,,,sub-154,2.0,stroop_test,59.357537782048034,
,,,,,,,,blau,yellow,g,0.0,,,,,,,,,0.0,5.0,5.0,7.0,400.3011553999968,,,,,,,,,,,,,,,,,400.28842169989366,400.4012013999745,401.2086264999816,401.1871481999988,,,,,,,,,,,,,,,,,,,,,,,,,,,,,,,,,,,401.18719609989785,401.2086264999816,401.2086264999816,401.93864959990606,g,1.0,0.7210395000874996,,,,,sub-154,2.0,stroop_test,59.357537782048034,
,,,,,,,,gelb,blue,b,0.0,,,,,,,,,0.0,6.0,6.0,9.0,401.9515904999571,,,,,,,,,,,,,,,,,401.94258409994654,402.30195489991456,403.1133496999973,403.0869609999936,,,,,,,,,,,,,,,,,,,,,,,,,,,,,,,,,,,403.0870423999149,403.1133496999973,403.1133496999973,403.854578099912,b,1.0,0.7364435000345111,,,,,sub-154,2.0,stroop_test,59.357537782048034,
,,,,,,,,gelb,red,r,0.0,,,,,,,,,0.0,7.0,7.0,8.0,403.867114399909,,,,,,,,,,,,,,,,,403.8580356999301,404.667244299897,405.4663722999394,405.4517244999297,,,,,,,,,,,,,,,,,,,,,,,,,,,,,,,,,,,405.451777099981,405.4663722999394,405.4663722999394,406.23247839999385,r,1.0,0.7557125999592245,,,,,sub-154,2.0,stroop_test,59.357537782048034,
,,,,,,,,rot,red,r,1.0,,,,,,,,,0.0,8.0,8.0,1.0,406.2472708999412,,,,,,,,,,,,,,,,,406.2338227999862,406.3328997999197,407.14252279989887,407.11739739996847,,,,,,,,,,,,,,,,,,,,,,,,,,,,,,,,,,,407.1174919999903,407.14252279989887,407.14252279989887,408.4023752999492,r,1.0,1.2490241000195963,,,,,sub-154,2.0,stroop_test,59.357537782048034,
,,,,,,,,blau,red,r,0.0,,,,,,,,,0.0,9.0,9.0,4.0,408.41439900000114,,,,,,,,,,,,,,,,,408.4052761999192,409.6138201999711,410.4253027999075,410.398484599893,,,,,,,,,,,,,,,,,,,,,,,,,,,,,,,,,,,410.3985419999808,410.4253027999075,410.4253027999075,411.46692399994936,r,1.0,1.0345499999821186,,,,,sub-154,2.0,stroop_test,59.357537782048034,
,,,,,,,,gelb,yellow,g,1.0,,,,,,,,,0.0,10.0,10.0,11.0,411.47859259997495,,,,,,,,,,,,,,,,,411.4693674999289,412.6785572998924,413.4894552999176,413.4635870999191,,,,,,,,,,,,,,,,,,,,,,,,,,,,,,,,,,,413.4637261999305,413.4894552999176,413.4894552999176,414.44940779998433,g,1.0,0.951644300017506,,,,,sub-154,2.0,stroop_test,59.357537782048034,
,,,,,,,,rot,blue,b,0.0,,,,,,,,,0.0,11.0,11.0,2.0,414.46080669993535,,,,,,,,,,,,,,,,,414.4518378999783,414.5602406999096,415.3701502999757,415.3451852999861,,,,,,,,,,,,,,,,,,,,,,,,,,,,,,,,,,,415.345238299924,415.3701502999757,415.3701502999757,416.5459988999646,b,1.0,1.1663896000245586,,,,,sub-154,2.0,stroop_test,59.357537782048034,
,,,,,,,,gelb,blue,b,0.0,,,,,,,,,1.0,0.0,12.0,9.0,416.558879399905,,,,,,,,,,,,,,,,,416.5498544999864,417.3589070999296,418.1695893999422,418.1439063999569,,,,,,,,,,,,,,,,,,,,,,,,,,,,,,,,,,,418.1439873999916,418.1695893999422,418.1695893999422,419.2932473999681,b,1.0,1.108565200003795,,,,,sub-154,2.0,stroop_test,59.357537782048034,
,,,,,,,,rot,red,r,1.0,,,,,,,,,1.0,1.0,13.0,0.0,419.3073610999854,,,,,,,,,,,,,,,,,419.295855699922,420.5067558999872,421.3168921999168,421.29125839995686,,,,,,,,,,,,,,,,,,,,,,,,,,,,,,,,,,,421.2913550999947,421.3168921999168,421.3168921999168,421.96025899995584,r,1.0,0.6351564000360668,,,,,sub-154,2.0,stroop_test,59.357537782048034,
,,,,,,,,blau,red,r,0.0,,,,,,,,,1.0,2.0,14.0,4.0,421.9720514999936,,,,,,,,,,,,,,,,,421.9631874999032,422.0721371999243,422.87916149990633,422.8562161999289,,,,,,,,,,,,,,,,,,,,,,,,,,,,,,,,,,,422.85626419994514,422.87916149990633,422.87916149990633,423.6077473999467,r,1.0,0.7250435999594629,,,,,sub-154,2.0,stroop_test,59.357537782048034,
,,,,,,,,blau,blue,b,1.0,,,,,,,,,1.0,3.0,15.0,6.0,423.620749099995,,,,,,,,,,,,,,,,,423.6100567999529,423.9705651999684,424.7698118999833,424.7547572999029,,,,,,,,,,,,,,,,,,,,,,,,,,,,,,,,,,,424.7548053999199,424.7698118999833,424.7698118999833,425.6222951998934,b,1.0,0.840307499980554,,,,,sub-154,2.0,stroop_test,59.357537782048034,
,,,,,,,,gelb,yellow,g,1.0,,,,,,,,,1.0,4.0,16.0,11.0,425.63602789992,,,,,,,,,,,,,,,,,425.6260600999231,425.73759829998016,426.5608283999609,426.5378021999495,,,,,,,,,,,,,,,,,,,,,,,,,,,,,,,,,,,426.5378883999074,426.5608283999609,426.5608283999609,427.1885946999537,g,1.0,0.6093708999687806,,,,,sub-154,2.0,stroop_test,59.357537782048034,
,,,,,,,,gelb,yellow,g,1.0,,,,,,,,,1.0,5.0,17.0,10.0,427.2021737999749,,,,,,,,,,,,,,,,,427.1909983999794,427.3024933999404,428.1177446999354,428.102959599928,,,,,,,,,,,,,,,,,,,,,,,,,,,,,,,,,,,428.103011499974,428.1177446999354,428.1177446999354,429.15459189994726,g,1.0,1.027696100063622,,,,,sub-154,2.0,stroop_test,59.357537782048034,
,,,,,,,,rot,blue,b,0.0,,,,,,,,,1.0,6.0,18.0,2.0,429.1678458999377,,,,,,,,,,,,,,,,,429.15852119994815,429.9671109999763,430.7763464999152,430.751801699982,,,,,,,,,,,,,,,,,,,,,,,,,,,,,,,,,,,430.75189919990953,430.7763464999152,430.7763464999152,432.0345295999432,b,1.0,1.2468478999799115,,,,,sub-154,2.0,stroop_test,59.357537782048034,
,,,,,,,,gelb,red,r,0.0,,,,,,,,,1.0,7.0,19.0,8.0,432.0485883998917,,,,,,,,,,,,,,,,,432.0369331999682,433.2485709999455,434.05496259999927,434.0328983999789,,,,,,,,,,,,,,,,,,,,,,,,,,,,,,,,,,,434.0329740999732,434.05496259999927,434.05496259999927,435.0171584999189,r,1.0,0.943540700012818,,,,,sub-154,2.0,stroop_test,59.357537782048034,
,,,,,,,,blau,blue,b,1.0,,,,,,,,,1.0,8.0,20.0,5.0,435.0303439999698,,,,,,,,,,,,,,,,,435.0200100999791,435.3803612999618,436.1890088999644,436.16467659990303,,,,,,,,,,,,,,,,,,,,,,,,,,,,,,,,,,,436.16473889991175,436.1890088999644,436.1890088999644,436.9493803998921,b,1.0,0.7455664000008255,,,,,sub-154,2.0,stroop_test,59.357537782048034,
,,,,,,,,rot,red,r,1.0,,,,,,,,,1.0,9.0,21.0,1.0,436.9620409999043,,,,,,,,,,,,,,,,,436.9526515000034,438.1616934998892,438.9708682999481,438.94678239990026,,,,,,,,,,,,,,,,,,,,,,,,,,,,,,,,,,,438.9468439999037,438.9708682999481,438.9708682999481,439.7610648999689,r,1.0,0.7822356999386102,,,,,sub-154,2.0,stroop_test,59.357537782048034,
,,,,,,,,blau,yellow,g,0.0,,,,,,,,,1.0,10.0,22.0,7.0,439.77589809999336,,,,,,,,,,,,,,,,,439.7631015999941,440.12713439995423,440.9499795999145,440.9275754999835,,,,,,,,,,,,,,,,,,,,,,,,,,,,,,,,,,,440.9276245998917,440.9499795999145,440.9499795999145,442.1094242999097,g,1.0,1.1568715000757948,,,,,sub-154,2.0,stroop_test,59.357537782048034,
,,,,,,,,rot,yellow,g,0.0,,,,,,,,,1.0,11.0,23.0,3.0,442.1237406999571,,,,,,,,,,,,,,,,,442.11142189998645,442.2243853999535,443.033994999947,443.00964339997154,,,,,,,,,,,,,,,,,,,,,,,,,,,,,,,,,,,443.0096923999954,443.033994999947,443.033994999947,444.01029299991205,g,1.0,0.9657497999724,,,,,sub-154,2.0,stroop_test,59.357537782048034,
,,,,,,,,gelb,red,r,0.0,,,,,,,,,2.0,0.0,24.0,8.0,444.0251213999,,,,,,,,,,,,,,,,,444.0128993999679,444.3738899999298,445.18945299996994,445.17358509998303,,,,,,,,,,,,,,,,,,,,,,,,,,,,,,,,,,,445.1736252999399,445.18945299996994,445.18945299996994,446.3090613998938,r,1.0,1.1053459000540895,,,,,sub-154,2.0,stroop_test,59.357537782048034,
,,,,,,,,rot,blue,b,0.0,,,,,,,,,2.0,1.0,25.0,2.0,446.3228511998896,,,,,,,,,,,,,,,,,446.3128018999705,446.6724579998991,447.4814834999852,447.45667739992496,,,,,,,,,,,,,,,,,,,,,,,,,,,,,,,,,,,447.456725899945,447.4814834999852,447.4814834999852,448.2080531999236,b,1.0,0.715195499942638,,,,,sub-154,2.0,stroop_test,59.357537782048034,
,,,,,,,,blau,red,r,0.0,,,,,,,,,2.0,2.0,26.0,4.0,448.22098289988935,,,,,,,,,,,,,,,,,448.2117750999751,449.4213705000002,450.2490833000047,450.2222385999048,,,,,,,,,,,,,,,,,,,,,,,,,,,,,,,,,,,450.2223140998976,450.2490833000047,450.2490833000047,451.15531459997874,r,1.0,0.8950501999352127,,,,,sub-154,2.0,stroop_test,59.357537782048034,
,,,,,,,,blau,yellow,g,0.0,,,,,,,,,2.0,3.0,27.0,7.0,451.170298299985,,,,,,,,,,,,,,,,,451.1582893999293,451.9693983999314,452.7840007999912,452.7674761998933,,,,,,,,,,,,,,,,,,,,,,,,,,,,,,,,,,,452.7675092999125,452.7840007999912,452.7840007999912,453.4039993999759,g,1.0,0.6112880000146106,,,,,sub-154,2.0,stroop_test,59.357537782048034,
,,,,,,,,gelb,blue,b,0.0,,,,,,,,,2.0,4.0,28.0,9.0,453.41751119995024,,,,,,,,,,,,,,,,,453.4071255999152,453.5177193999989,454.3237979999976,454.3026038999669,,,,,,,,,,,,,,,,,,,,,,,,,,,,,,,,,,,454.3026768999407,454.3237979999976,454.3237979999976,455.9691475,b,1.0,1.632838600082323,,,,,sub-154,2.0,stroop_test,59.357537782048034,
,,,,,,,,gelb,yellow,g,1.0,,,,,,,,,2.0,5.0,29.0,10.0,455.9829137999332,,,,,,,,,,,,,,,,,455.9719870999688,456.7827156999847,457.5819036999019,457.5671552999411,,,,,,,,,,,,,,,,,,,,,,,,,,,,,,,,,,,457.567210799898,457.5819036999019,457.5819036999019,458.5665420999285,g,1.0,0.981711900094524,,,,,sub-154,2.0,stroop_test,59.357537782048034,
,,,,,,,,blau,blue,b,1.0,,,,,,,,,2.0,6.0,30.0,6.0,458.5799801999237,,,,,,,,,,,,,,,,,458.56837779993657,459.78085759992246,460.6002013999969,460.56762259989046,,,,,,,,,,,,,,,,,,,,,,,,,,,,,,,,,,,460.56770409992896,460.6002013999969,460.6002013999969,461.7625258999178,b,1.0,1.1538486999925226,,,,,sub-154,2.0,stroop_test,59.357537782048034,
,,,,,,,,rot,red,r,1.0,,,,,,,,,2.0,7.0,31.0,0.0,461.777510899934,,,,,,,,,,,,,,,,,461.7645297999261,462.9785062998999,463.7918271999806,463.7632286999142,,,,,,,,,,,,,,,,,,,,,,,,,,,,,,,,,,,463.7633297999855,463.7918271999806,463.7918271999806,464.54798319994006,r,1.0,0.741377400001511,,,,,sub-154,2.0,stroop_test,59.357537782048034,
,,,,,,,,gelb,yellow,g,1.0,,,,,,,,,2.0,8.0,32.0,11.0,464.5613615999464,,,,,,,,,,,,,,,,,464.5504557999084,464.91096249991097,465.7339570999611,465.7115696999245,,,,,,,,,,,,,,,,,,,,,,,,,,,,,,,,,,,465.7116207999643,465.7339570999611,465.7339570999611,467.1451495999936,g,1.0,1.3952053999528289,,,,,sub-154,2.0,stroop_test,59.357537782048034,
,,,,,,,,blau,blue,b,1.0,,,,,,,,,2.0,9.0,33.0,5.0,467.15967609989457,,,,,,,,,,,,,,,,,467.148160599987,468.3582844999619,469.1629860999528,469.1428649999434,,,,,,,,,,,,,,,,,,,,,,,,,,,,,,,,,,,469.1429320999887,469.1629860999528,469.1629860999528,470.0285635999171,b,1.0,0.8561468999832869,,,,,sub-154,2.0,stroop_test,59.357537782048034,
,,,,,,,,rot,yellow,g,0.0,,,,,,,,,2.0,10.0,34.0,3.0,470.0413938999409,,,,,,,,,,,,,,,,,470.03312509995885,470.1409834999358,470.9705557998968,470.9417839999078,,,,,,,,,,,,,,,,,,,,,,,,,,,,,,,,,,,470.9418478999287,470.9705557998968,470.9705557998968,472.0755485999398,g,1.0,1.0903260000050068,,,,,sub-154,2.0,stroop_test,59.357537782048034,
,,,,,,,,rot,red,r,1.0,,,,,,,,,2.0,11.0,35.0,1.0,472.0896821999922,,,,,,,,,,,,,,,,,472.0795143999858,472.88753309997264,473.6886959999101,473.67332939989865,,,,,,,,,,,,,,,,,,,,,,,,,,,,,,,,,,,473.6734058998991,473.6886959999101,473.6886959999101,474.307463599951,r,1.0,0.6069735999917611,,,,,sub-154,2.0,stroop_test,59.357537782048034,
,,,,,,,,rot,red,r,1.0,,,,,,,,,3.0,0.0,36.0,1.0,474.3212120999815,,,,,,,,,,,,,,,,,474.310379399918,475.521414799965,476.3364423000021,476.322355399956,,,,,,,,,,,,,,,,,,,,,,,,,,,,,,,,,,,476.3224171999609,476.3364423000021,476.3364423000021,477.2583608999848,r,1.0,0.9129529000492766,,,,,sub-154,2.0,stroop_test,59.357537782048034,
,,,,,,,,blau,red,r,0.0,,,,,,,,,3.0,1.0,37.0,4.0,477.2718506999081,,,,,,,,,,,,,,,,,477.2627468999708,478.06896439997945,478.8817429000046,478.8554527999368,,,,,,,,,,,,,,,,,,,,,,,,,,,,,,,,,,,478.8555214999942,478.8817429000046,478.8817429000046,479.5921967999311,r,1.0,0.6982016999972984,,,,,sub-154,2.0,stroop_test,59.357537782048034,
,,,,,,,,rot,red,r,1.0,,,,,,,,,3.0,2.0,38.0,0.0,479.6060148999095,,,,,,,,,,,,,,,,,479.5977299999213,480.4016728999559,481.2088318999158,481.1868657999439,,,,,,,,,,,,,,,,,,,,,,,,,,,,,,,,,,,481.18695389991626,481.2088318999158,481.2088318999158,481.8727697998984,r,1.0,0.6518221000442281,,,,,sub-154,2.0,stroop_test,59.357537782048034,
,,,,,,,,gelb,blue,b,0.0,,,,,,,,,3.0,3.0,39.0,9.0,481.88573879993055,,,,,,,,,,,,,,,,,481.87714699993376,483.0831234999932,483.8911641999148,483.867647399893,,,,,,,,,,,,,,,,,,,,,,,,,,,,,,,,,,,483.8677113999147,483.8911641999148,483.8911641999148,484.65322149998974,b,1.0,0.7581589999608696,,,,,sub-154,2.0,stroop_test,59.357537782048034,
,,,,,,,,blau,blue,b,1.0,,,,,,,,,3.0,4.0,40.0,6.0,484.6668822999345,,,,,,,,,,,,,,,,,484.65749559993856,485.4648097999161,486.2822907998925,486.2502004998969,,,,,,,,,,,,,,,,,,,,,,,,,,,,,,,,,,,486.2502608998912,486.2822907998925,486.2822907998925,486.8000626999419,b,1.0,0.5119631999405101,,,,,sub-154,2.0,stroop_test,59.357537782048034,
,,,,,,,,gelb,red,r,0.0,,,,,,,,,3.0,5.0,41.0,8.0,486.8126901999349,,,,,,,,,,,,,,,,,486.8040000000037,488.01253389997873,488.83672489994206,488.81327139993664,,,,,,,,,,,,,,,,,,,,,,,,,,,,,,,,,,,488.8133716000011,488.83672489994206,488.83672489994206,489.66012839996256,r,1.0,0.8152861999114975,,,,,sub-154,2.0,stroop_test,59.357537782048034,
,,,,,,,,blau,yellow,g,0.0,,,,,,,,,3.0,6.0,42.0,7.0,489.67530449992046,,,,,,,,,,,,,,,,,489.66183679993264,490.4605446999194,491.2691122998949,491.2447391999885,,,,,,,,,,,,,,,,,,,,,,,,,,,,,,,,,,,491.2448361999122,491.2691122998949,491.2691122998949,492.3605409999145,g,1.0,1.0883050999836996,,,,,sub-154,2.0,stroop_test,59.357537782048034,
,,,,,,,,blau,blue,b,1.0,,,,,,,,,3.0,7.0,43.0,5.0,492.37432149995584,,,,,,,,,,,,,,,,,492.3626215999248,493.5755782999331,494.39193889999297,494.3766659999965,,,,,,,,,,,,,,,,,,,,,,,,,,,,,,,,,,,494.3767477999209,494.39193889999297,494.39193889999297,495.7577300999546,b,1.0,1.355214299983345,,,,,sub-154,2.0,stroop_test,59.357537782048034,
,,,,,,,,gelb,yellow,g,1.0,,,,,,,,,3.0,8.0,44.0,11.0,495.7724473999114,,,,,,,,,,,,,,,,,495.7599687000038,495.8711888999678,496.6801984999329,496.6586310999701,,,,,,,,,,,,,,,,,,,,,,,,,,,,,,,,,,,496.6586933999788,496.6801984999329,496.6801984999329,497.4256391999079,g,1.0,0.732627599965781,,,,,sub-154,2.0,stroop_test,59.357537782048034,
,,,,,,,,rot,blue,b,0.0,,,,,,,,,3.0,9.0,45.0,2.0,497.4384203999071,,,,,,,,,,,,,,,,,497.4291005999549,497.7893718999112,498.61161779996473,498.5893580999691,,,,,,,,,,,,,,,,,,,,,,,,,,,,,,,,,,,498.5894040999701,498.61161779996473,498.61161779996473,499.20873889990617,b,1.0,0.5851747000124305,,,,,sub-154,2.0,stroop_test,59.357537782048034,
,,,,,,,,gelb,yellow,g,1.0,,,,,,,,,3.0,10.0,46.0,10.0,499.2208238999592,,,,,,,,,,,,,,,,,499.2125239999732,499.3215639999835,500.1312773999525,500.10605359997135,,,,,,,,,,,,,,,,,,,,,,,,,,,,,,,,,,,500.1061125999549,500.1312773999525,500.1312773999525,500.7085921999533,g,1.0,0.5683472000528127,,,,,sub-154,2.0,stroop_test,59.357537782048034,
,,,,,,,,rot,yellow,g,0.0,,,,,,,,,3.0,11.0,47.0,3.0,500.719953599968,,,,,,,,,,,,,,,,,500.711603499949,501.5198853999609,502.3369523999281,502.3190713999793,,,,,,,,,,,,,,,,,,,,,,,,,,,,,,,,,,,502.3191242999165,502.3369523999281,502.3369523999281,503.2855686999392,g,1.0,0.9317046999931335,,,,,sub-154,2.0,stroop_test,59.357537782048034,
,,,,,,,,gelb,yellow,g,1.0,,,,,,,,,4.0,0.0,48.0,11.0,503.3008520998992,,,,,,,,,,,,,,,,,503.2875512999017,504.1012027999386,504.9073340999894,504.88554169994313,,,,,,,,,,,,,,,,,,,,,,,,,,,,,,,,,,,504.8855951000005,504.9073340999894,504.9073340999894,505.8698365999153,g,1.0,0.9468174999346956,,,,,sub-154,2.0,stroop_test,59.357537782048034,
,,,,,,,,gelb,yellow,g,1.0,,,,,,,,,4.0,1.0,49.0,10.0,505.8830592999002,,,,,,,,,,,,,,,,,505.8741884999909,507.0828578999499,507.88238049997017,507.8674117999617,,,,,,,,,,,,,,,,,,,,,,,,,,,,,,,,,,,507.8674743999727,507.88238049997017,507.88238049997017,508.43217159993947,g,1.0,0.540743299992755,,,,,sub-154,2.0,stroop_test,59.357537782048034,
,,,,,,,,blau,blue,b,1.0,,,,,,,,,4.0,2.0,50.0,5.0,508.4469353999011,,,,,,,,,,,,,,,,,508.4340848999564,508.797578800004,509.6048361998983,509.5823511999333,,,,,,,,,,,,,,,,,,,,,,,,,,,,,,,,,,,509.5824227998965,509.6048361998983,509.6048361998983,510.4160276999464,b,1.0,0.7951844999333844,,,,,sub-154,2.0,stroop_test,59.357537782048034,
,,,,,,,,blau,blue,b,1.0,,,,,,,,,4.0,3.0,51.0,6.0,510.4302175999619,,,,,,,,,,,,,,,,,510.41991679999046,510.7801766999765,511.57956619991455,511.5646810999606,,,,,,,,,,,,,,,,,,,,,,,,,,,,,,,,,,,511.5647671999177,511.57956619991455,511.57956619991455,512.0839889999479,b,1.0,0.4965700999600813,,,,,sub-154,2.0,stroop_test,59.357537782048034,
,,,,,,,,rot,red,r,1.0,,,,,,,,,4.0,4.0,52.0,0.0,512.0959488999797,,,,,,,,,,,,,,,,,512.0865787999937,512.4462834999431,513.2692978999112,513.2466452999506,,,,,,,,,,,,,,,,,,,,,,,,,,,,,,,,,,,513.2467292998917,513.2692978999112,513.2692978999112,513.8637591999723,r,1.0,0.5797365000471473,,,,,sub-154,2.0,stroop_test,59.357537782048034,
,,,,,,,,rot,red,r,1.0,,,,,,,,,4.0,5.0,53.0,1.0,513.8776692999527,,,,,,,,,,,,,,,,,513.8667012999067,513.9774846999208,514.7760829000035,514.7610962999752,,,,,,,,,,,,,,,,,,,,,,,,,,,,,,,,,,,514.7611292999936,514.7760829000035,514.7760829000035,515.4117630999535,r,1.0,0.6297118000220507,,,,,sub-154,2.0,stroop_test,59.357537782048034,
,,,,,,,,blau,red,r,0.0,,,,,,,,,4.0,6.0,54.0,4.0,515.4259568999987,,,,,,,,,,,,,,,,,515.4135677999584,516.226076599909,517.0312128999503,517.0118732999545,,,,,,,,,,,,,,,,,,,,,,,,,,,,,,,,,,,517.0119490999496,517.0312128999503,517.0312128999503,517.7590184999863,r,1.0,0.7126530000241473,,,,,sub-154,2.0,stroop_test,59.357537782048034,
,,,,,,,,gelb,blue,b,0.0,,,,,,,,,4.0,7.0,55.0,9.0,517.7737846999662,,,,,,,,,,,,,,,,,517.7603582999436,518.1233076999197,518.9241900999332,518.9072874999838,,,,,,,,,,,,,,,,,,,,,,,,,,,,,,,,,,,518.9073433999438,518.9241900999332,518.9241900999332,519.6774414998945,b,1.0,0.7374521000310779,,,,,sub-154,2.0,stroop_test,59.357537782048034,
,,,,,,,,rot,yellow,g,0.0,,,,,,,,,4.0,8.0,56.0,3.0,519.6905478999251,,,,,,,,,,,,,,,,,519.6807262999937,520.8898519999348,521.7041509998962,521.6884377999231,,,,,,,,,,,,,,,,,,,,,,,,,,,,,,,,,,,521.688469799934,521.7041509998962,521.7041509998962,522.1439013999188,g,1.0,0.4337188000790775,,,,,sub-154,2.0,stroop_test,59.357537782048034,
,,,,,,,,blau,yellow,g,0.0,,,,,,,,,4.0,9.0,57.0,7.0,522.1557712999638,,,,,,,,,,,,,,,,,522.1474800999276,522.9553756999085,523.7714486999903,523.7399643999524,,,,,,,,,,,,,,,,,,,,,,,,,,,,,,,,,,,523.7400497999042,523.7714486999903,523.7714486999903,524.2545540999854,g,1.0,0.4771233999636024,,,,,sub-154,2.0,stroop_test,59.357537782048034,
,,,,,,,,rot,blue,b,0.0,,,,,,,,,4.0,10.0,58.0,2.0,524.2692656998988,,,,,,,,,,,,,,,,,524.2568257999374,525.0712661999278,525.881308299955,525.8559083999135,,,,,,,,,,,,,,,,,,,,,,,,,,,,,,,,,,,525.8559910999611,525.881308299955,525.881308299955,526.8561769999797,b,1.0,0.9565477999858558,,,,,sub-154,2.0,stroop_test,59.357537782048034,
,,,,,,,,gelb,red,r,0.0,,,,,,,,,4.0,11.0,59.0,8.0,526.8701751999324,,,,,,,,,,,,,,,,,526.8607467999682,528.0691508000018,528.8841019999236,528.8678166999016,,,,,,,,,,,,,,,,,,,,,,,,,,,,,,,,,,,528.8678567999741,528.8841019999236,528.8841019999236,529.7847025999799,r,1.0,0.8857291000895202,,,,,sub-154,2.0,stroop_test,59.357537782048034,
,,,,,,,,blau,red,r,0.0,,,,,,,,,5.0,0.0,60.0,4.0,529.7996007999172,,,,,,,,,,,,,,,,,529.7868815999245,529.8998667999404,530.7112380999606,530.6859136999119,,,,,,,,,,,,,,,,,,,,,,,,,,,,,,,,,,,530.6859710999997,530.7112380999606,530.7112380999606,531.6370182998944,r,1.0,0.908875299966894,,,,,sub-154,2.0,stroop_test,59.357537782048034,
,,,,,,,,rot,red,r,1.0,,,,,,,,,5.0,1.0,61.0,0.0,531.6498057999415,,,,,,,,,,,,,,,,,531.6413982999511,532.848799899919,533.6606184999691,533.6337802999187,,,,,,,,,,,,,,,,,,,,,,,,,,,,,,,,,,,533.6338681998895,533.6606184999691,533.6606184999691,534.1685240999795,r,1.0,0.5001531000016257,,,,,sub-154,2.0,stroop_test,59.357537782048034,
,,,,,,,,blau,yellow,g,0.0,,,,,,,,,5.0,2.0,62.0,7.0,534.1806445999537,,,,,,,,,,,,,,,,,534.1716576999752,534.5305721999612,535.3391457999824,535.3151357999304,,,,,,,,,,,,,,,,,,,,,,,,,,,,,,,,,,,535.3152369000018,535.3391457999824,535.3391457999824,536.1820569999982,g,1.0,0.8295483000110835,,,,,sub-154,2.0,stroop_test,59.357537782048034,
,,,,,,,,blau,blue,b,1.0,,,,,,,,,5.0,3.0,63.0,5.0,536.1963263999205,,,,,,,,,,,,,,,,,536.1850597999291,536.9961408999516,537.7950753999176,537.7809528999496,,,,,,,,,,,,,,,,,,,,,,,,,,,,,,,,,,,537.7810279999394,537.7950753999176,537.7950753999176,538.4154214999871,b,1.0,0.6167780000250787,,,,,sub-154,2.0,stroop_test,59.357537782048034,
,,,,,,,,gelb,blue,b,0.0,,,,,,,,,5.0,4.0,64.0,9.0,538.4280718999216,,,,,,,,,,,,,,,,,538.417730599991,539.2279799999669,540.0356782999588,540.0127022999804,,,,,,,,,,,,,,,,,,,,,,,,,,,,,,,,,,,540.0127648999915,540.0356782999588,540.0356782999588,540.7155439999187,b,1.0,0.6713771999347955,,,,,sub-154,2.0,stroop_test,59.357537782048034,
,,,,,,,,gelb,yellow,g,1.0,,,,,,,,,5.0,5.0,65.0,10.0,540.7269523999421,,,,,,,,,,,,,,,,,540.7182811999228,541.0776305999607,541.875893499935,541.8620833999012,,,,,,,,,,,,,,,,,,,,,,,,,,,,,,,,,,,541.8621418999974,541.875893499935,541.875893499935,542.9965974999359,g,1.0,1.1118545999052003,,,,,sub-154,2.0,stroop_test,59.357537782048034,
,,,,,,,,gelb,red,r,0.0,,,,,,,,,5.0,6.0,66.0,8.0,543.0104995999718,,,,,,,,,,,,,,,,,543.0011938998941,543.1095582999988,543.9253846999491,543.9101175999967,,,,,,,,,,,,,,,,,,,,,,,,,,,,,,,,,,,543.9101786999963,543.9253846999491,543.9253846999491,544.5786115999799,r,1.0,0.6450957999331877,,,,,sub-154,2.0,stroop_test,59.357537782048034,
,,,,,,,,rot,yellow,g,0.0,,,,,,,,,5.0,7.0,67.0,3.0,544.5912888000021,,,,,,,,,,,,,,,,,544.5830786000006,545.7903757999884,546.5996305999579,546.5755353999557,,,,,,,,,,,,,,,,,,,,,,,,,,,,,,,,,,,546.5756195998983,546.5996305999579,546.5996305999579,547.2428817999316,g,1.0,0.6314658001065254,,,,,sub-154,2.0,stroop_test,59.357537782048034,
,,,,,,,,rot,blue,b,0.0,,,,,,,,,5.0,8.0,68.0,2.0,547.2548491999041,,,,,,,,,,,,,,,,,547.2465771998977,547.3546641999856,548.1549369998975,548.1401402999181,,,,,,,,,,,,,,,,,,,,,,,,,,,,,,,,,,,548.1402295998996,548.1549369998975,548.1549369998975,549.107777499943,b,1.0,0.9431240000994876,,,,,sub-154,2.0,stroop_test,59.357537782048034,
,,,,,,,,gelb,yellow,g,1.0,,,,,,,,,5.0,9.0,69.0,11.0,549.1208098999923,,,,,,,,,,,,,,,,,549.1107484999811,549.4711899999529,550.2840538999299,550.2562674999936,,,,,,,,,,,,,,,,,,,,,,,,,,,,,,,,,,,550.2563487999141,550.2840538999299,550.2840538999299,551.1069859999698,g,1.0,0.8116225999547169,,,,,sub-154,2.0,stroop_test,59.357537782048034,
,,,,,,,,rot,red,r,1.0,,,,,,,,,5.0,10.0,70.0,1.0,551.1195867999922,,,,,,,,,,,,,,,,,551.1097963999491,552.3197043999098,553.1351001999574,553.1188160999445,,,,,,,,,,,,,,,,,,,,,,,,,,,,,,,,,,,553.1188662999775,553.1351001999574,553.1351001999574,553.5382594999392,r,1.0,0.3986548000248149,,,,,sub-154,2.0,stroop_test,59.357537782048034,
,,,,,,,,blau,blue,b,1.0,,,,,,,,,5.0,11.0,71.0,6.0,553.55122569995,,,,,,,,,,,,,,,,,553.5410807000007,553.9013975999551,554.7080671999138,554.6857044999488,,,,,,,,,,,,,,,,,,,,,,,,,,,,,,,,,,,554.685756699997,554.7080671999138,554.7080671999138,555.3361942999763,b,1.0,0.6137384000467137,,,,,sub-154,2.0,stroop_test,59.357537782048034,
,,,,,,,,rot,blue,b,0.0,,,,,,,,,6.0,0.0,72.0,2.0,555.3502586999675,,,,,,,,,,,,,,,,,555.3391424999572,556.5501424999675,557.3601649999619,557.3345365999267,,,,,,,,,,,,,,,,,,,,,,,,,,,,,,,,,,,557.3345968999201,557.3601649999619,557.3601649999619,558.1525836999062,b,1.0,0.777344899950549,,,,,sub-154,2.0,stroop_test,59.357537782048034,
,,,,,,,,rot,red,r,1.0,,,,,,,,,6.0,1.0,73.0,1.0,558.1652845999924,,,,,,,,,,,,,,,,,558.1562801999971,558.964911499992,559.7642879999476,559.7496723999502,,,,,,,,,,,,,,,,,,,,,,,,,,,,,,,,,,,559.7497617999325,559.7642879999476,559.7642879999476,560.8683032999979,r,1.0,1.089363900013268,,,,,sub-154,2.0,stroop_test,59.357537782048034,
,,,,,,,,blau,blue,b,1.0,,,,,,,,,6.0,2.0,74.0,5.0,560.8790596999461,,,,,,,,,,,,,,,,,560.8716224998934,561.2296258999268,562.0372959999368,562.0143882998964,,,,,,,,,,,,,,,,,,,,,,,,,,,,,,,,,,,562.0144434999675,562.0372959999368,562.0372959999368,562.8122546999948,b,1.0,0.7613863999722525,,,,,sub-154,2.0,stroop_test,59.357537782048034,
,,,,,,,,gelb,red,r,0.0,,,,,,,,,6.0,3.0,75.0,8.0,562.827643699944,,,,,,,,,,,,,,,,,562.8135536999907,562.9268120999914,563.7350192999002,563.7129224999808,,,,,,,,,,,,,,,,,,,,,,,,,,,,,,,,,,,563.7129830999766,563.7350192999002,563.7350192999002,564.3281028999481,r,1.0,0.5794499000767246,,,,,sub-154,2.0,stroop_test,59.357537782048034,
,,,,,,,,blau,blue,b,1.0,,,,,,,,,6.0,4.0,76.0,6.0,564.3436793999281,,,,,,,,,,,,,,,,,564.3294673999771,564.4424556999002,565.2442583999364,565.2263268999523,,,,,,,,,,,,,,,,,,,,,,,,,,,,,,,,,,,565.2263744999655,565.2442583999364,565.2442583999364,565.8485140999546,b,1.0,0.5946578000439331,,,,,sub-154,2.0,stroop_test,59.357537782048034,
,,,,,,,,rot,yellow,g,0.0,,,,,,,,,6.0,5.0,77.0,3.0,565.8607984998962,,,,,,,,,,,,,,,,,565.8515197999077,566.6604383999947,567.4689284999622,567.44459129998,,,,,,,,,,,,,,,,,,,,,,,,,,,,,,,,,,,567.4446649999591,567.4689284999622,567.4689284999622,568.045060299919,g,1.0,0.5632057000184432,,,,,sub-154,2.0,stroop_test,59.357537782048034,
,,,,,,,,gelb,yellow,g,1.0,,,,,,,,,6.0,6.0,78.0,11.0,568.0585929999361,,,,,,,,,,,,,,,,,568.0481389999622,568.4087307999143,569.2107345999684,569.1928444999503,,,,,,,,,,,,,,,,,,,,,,,,,,,,,,,,,,,569.1929415999912,569.2107345999684,569.2107345999684,569.8768437999533,g,1.0,0.6493766999337822,,,,,sub-154,2.0,stroop_test,59.357537782048034,
,,,,,,,,gelb,yellow,g,1.0,,,,,,,,,6.0,7.0,79.0,10.0,569.8911005998962,,,,,,,,,,,,,,,,,569.8795878998935,570.2409489999991,571.0558460999746,571.0402296999237,,,,,,,,,,,,,,,,,,,,,,,,,,,,,,,,,,,571.0402679999825,571.0558460999746,571.0558460999746,571.6248449999839,g,1.0,0.5627938999095932,,,,,sub-154,2.0,stroop_test,59.357537782048034,
,,,,,,,,blau,yellow,g,0.0,,,,,,,,,6.0,8.0,80.0,7.0,571.6385016998975,,,,,,,,,,,,,,,,,571.627174199908,571.7381410999224,572.5448411999969,572.5236923999619,,,,,,,,,,,,,,,,,,,,,,,,,,,,,,,,,,,572.5237399999751,572.5448411999969,572.5448411999969,572.957919199951,g,1.0,0.4006160999415442,,,,,sub-154,2.0,stroop_test,59.357537782048034,
,,,,,,,,gelb,blue,b,0.0,,,,,,,,,6.0,9.0,81.0,9.0,572.971913299989,,,,,,,,,,,,,,,,,572.9604357999051,573.7712200999958,574.5786683999468,574.5559339999454,,,,,,,,,,,,,,,,,,,,,,,,,,,,,,,,,,,574.5559823999647,574.5786683999468,574.5786683999468,575.1899095999543,b,1.0,0.5975137000204995,,,,,sub-154,2.0,stroop_test,59.357537782048034,
,,,,,,,,rot,red,r,1.0,,,,,,,,,6.0,10.0,82.0,0.0,575.2041153999744,,,,,,,,,,,,,,,,,575.1926784999669,575.553334999946,576.3605931999628,576.3377710999921,,,,,,,,,,,,,,,,,,,,,,,,,,,,,,,,,,,576.3378187000053,576.3605931999628,576.3605931999628,576.9228460999439,r,1.0,0.5544593000086024,,,,,sub-154,2.0,stroop_test,59.357537782048034,
,,,,,,,,blau,red,r,0.0,,,,,,,,,6.0,11.0,83.0,4.0,576.9359149999218,,,,,,,,,,,,,,,,,576.9253646999132,577.7356509999372,578.5509719999973,578.5212546999101,,,,,,,,,,,,,,,,,,,,,,,,,,,,,,,,,,,578.5213694999693,578.5509719999973,578.5509719999973,580.6368856999325,r,1.0,2.070329700014554,,,,,sub-154,2.0,stroop_test,59.357537782048034,
,,,,,,,,blau,yellow,g,0.0,,,,,,,,,7.0,0.0,84.0,7.0,580.6514084999217,,,,,,,,,,,,,,,,,580.640258600004,581.000451299944,581.8002861998975,581.7849684999092,,,,,,,,,,,,,,,,,,,,,,,,,,,,,,,,,,,581.7850547999842,581.8002861998975,581.8002861998975,582.9664529999718,g,1.0,1.155144500080496,,,,,sub-154,2.0,stroop_test,59.357537782048034,
,,,,,,,,gelb,yellow,g,1.0,,,,,,,,,7.0,1.0,85.0,11.0,582.9810714999912,,,,,,,,,,,,,,,,,582.9683660999872,584.1813430999173,584.9891989999451,584.9663000999717,,,,,,,,,,,,,,,,,,,,,,,,,,,,,,,,,,,584.9664179999381,584.9891989999451,584.9891989999451,585.7488290999318,g,1.0,0.7572960000252351,,,,,sub-154,2.0,stroop_test,59.357537782048034,
,,,,,,,,rot,blue,b,0.0,,,,,,,,,7.0,2.0,86.0,2.0,585.7624476999044,,,,,,,,,,,,,,,,,585.7505740999477,586.9630148999859,587.7729663999053,587.7476658999221,,,,,,,,,,,,,,,,,,,,,,,,,,,,,,,,,,,587.7477226000046,587.7729663999053,587.7729663999053,588.6493059999775,b,1.0,0.8731060000136495,,,,,sub-154,2.0,stroop_test,59.357537782048034,
,,,,,,,,blau,red,r,0.0,,,,,,,,,7.0,3.0,87.0,4.0,588.6624464999186,,,,,,,,,,,,,,,,,588.6517761999276,589.4613055998925,590.2745030999649,590.2462223999901,,,,,,,,,,,,,,,,,,,,,,,,,,,,,,,,,,,590.2462772999424,590.2745030999649,590.2745030999649,591.0464775,r,1.0,0.7574908999959007,,,,,sub-154,2.0,stroop_test,59.357537782048034,
,,,,,,,,rot,red,r,1.0,,,,,,,,,7.0,4.0,88.0,0.0,591.0602002999512,,,,,,,,,,,,,,,,,591.0497293999651,591.8599532999797,592.6662928999867,592.6439856999787,,,,,,,,,,,,,,,,,,,,,,,,,,,,,,,,,,,592.6440544999205,592.6662928999867,592.6662928999867,593.2443325999193,r,1.0,0.5651903999969363,,,,,sub-154,2.0,stroop_test,59.357537782048034,
,,,,,,,,blau,blue,b,1.0,,,,,,,,,7.0,5.0,89.0,5.0,593.2584750999231,,,,,,,,,,,,,,,,,593.2465058999369,593.3584163999185,594.1648505999474,594.1429524999112,,,,,,,,,,,,,,,,,,,,,,,,,,,,,,,,,,,594.143032599939,594.1648505999474,594.1648505999474,594.7610718999058,b,1.0,0.585843599983491,,,,,sub-154,2.0,stroop_test,59.357537782048034,
,,,,,,,,gelb,yellow,g,1.0,,,,,,,,,7.0,6.0,90.0,10.0,594.7743401000043,,,,,,,,,,,,,,,,,594.7649344999809,594.8740800999803,595.6772827999666,595.658347099903,,,,,,,,,,,,,,,,,,,,,,,,,,,,,,,,,,,595.6584146999521,595.6772827999666,595.6772827999666,596.3425258999923,g,1.0,0.6552398999920115,,,,,sub-154,2.0,stroop_test,59.357537782048034,
,,,,,,,,rot,red,r,1.0,,,,,,,,,7.0,7.0,91.0,1.0,596.3566556998994,,,,,,,,,,,,,,,,,596.3452907999745,597.156835099915,597.9816529999953,597.9568809999619,,,,,,,,,,,,,,,,,,,,,,,,,,,,,,,,,,,597.9569294999819,597.9816529999953,597.9816529999953,598.4415016999701,r,1.0,0.4466838999651372,,,,,sub-154,2.0,stroop_test,59.357537782048034,
,,,,,,,,gelb,blue,b,0.0,,,,,,,,,7.0,8.0,92.0,9.0,598.4550042999908,,,,,,,,,,,,,,,,,598.4446527999826,598.5548789999448,599.3643553999718,599.3409146999475,,,,,,,,,,,,,,,,,,,,,,,,,,,,,,,,,,,599.3409959999844,599.3643553999718,599.3643553999718,600.9906693999656,b,1.0,1.6120181999867782,,,,,sub-154,2.0,stroop_test,59.357537782048034,
,,,,,,,,rot,yellow,g,0.0,,,,,,,,,7.0,9.0,93.0,3.0,601.0037458000006,,,,,,,,,,,,,,,,,600.9930755998939,601.103268399951,601.9201819999143,601.9026408999925,,,,,,,,,,,,,,,,,,,,,,,,,,,,,,,,,,,601.902688000002,601.9201819999143,601.9201819999143,602.9399838999379,g,1.0,1.0077806999906898,,,,,sub-154,2.0,stroop_test,59.357537782048034,
,,,,,,,,blau,blue,b,1.0,,,,,,,,,7.0,10.0,94.0,6.0,602.9529447999084,,,,,,,,,,,,,,,,,602.9432892999612,603.7519190999446,604.5628966999939,604.5365146999247,,,,,,,,,,,,,,,,,,,,,,,,,,,,,,,,,,,604.5365718998946,604.5628966999939,604.5628966999939,605.4862992999842,b,1.0,0.909520799992606,,,,,sub-154,2.0,stroop_test,59.357537782048034,
,,,,,,,,gelb,red,r,0.0,,,,,,,,,7.0,11.0,95.0,8.0,605.5004469999112,,,,,,,,,,,,,,,,,605.4892251999117,606.3001589999767,607.111620599986,607.0853895999026,,,,,,,,,,,,,,,,,,,,,,,,,,,,,,,,,,,607.085470299935,607.111620599986,607.111620599986,607.9032617999474,r,1.0,0.7797119000460953,,,,,sub-154,2.0,stroop_test,59.357537782048034,
,,,,,,,,rot,blue,b,0.0,,,,,,,,,8.0,0.0,96.0,2.0,607.9164736999664,,,,,,,,,,,,,,,,,607.9064489000011,608.0165420999983,608.8434077999555,608.817537899944,,,,,,,,,,,,,,,,,,,,,,,,,,,,,,,,,,,608.8176023999695,608.8434077999555,608.8434077999555,609.9343936999794,b,1.0,1.0797280999831855,,,,,sub-154,2.0,stroop_test,59.357537782048034,
,,,,,,,,gelb,yellow,g,1.0,,,,,,,,,8.0,1.0,97.0,11.0,609.9475068999454,,,,,,,,,,,,,,,,,609.9379182999255,610.2975610999856,611.1063837999245,611.0823272999842,,,,,,,,,,,,,,,,,,,,,,,,,,,,,,,,,,,611.082386199967,611.1063837999245,611.1063837999245,611.7322460999712,g,1.0,0.6083330000983551,,,,,sub-154,2.0,stroop_test,59.357537782048034,
,,,,,,,,rot,yellow,g,0.0,,,,,,,,,8.0,2.0,98.0,3.0,611.7461797998985,,,,,,,,,,,,,,,,,611.7343839999521,612.0969879999757,612.9178675999865,612.897208099952,,,,,,,,,,,,,,,,,,,,,,,,,,,,,,,,,,,612.8972597999964,612.9178675999865,612.9178675999865,613.9981577999424,g,1.0,1.077235999982804,,,,,sub-154,2.0,stroop_test,59.357537782048034,
,,,,,,,,blau,blue,b,1.0,,,,,,,,,8.0,3.0,99.0,5.0,614.011273299926,,,,,,,,,,,,,,,,,614.0007583999541,614.1113072999287,614.9198002999183,614.8958662999794,,,,,,,,,,,,,,,,,,,,,,,,,,,,,,,,,,,614.8959352999227,614.9198002999183,614.9198002999183,617.064525899943,b,1.0,2.135112699936144,,,,,sub-154,2.0,stroop_test,59.357537782048034,
,,,,,,,,blau,blue,b,1.0,,,,,,,,,8.0,4.0,100.0,6.0,617.0760883999756,,,,,,,,,,,,,,,,,617.0673859999515,617.8766696999082,618.6750250000041,618.6611111999955,,,,,,,,,,,,,,,,,,,,,,,,,,,,,,,,,,,618.6611970999511,618.6750250000041,618.6750250000041,619.5957565999124,b,1.0,0.9173316999804229,,,,,sub-154,2.0,stroop_test,59.357537782048034,
,,,,,,,,gelb,red,r,0.0,,,,,,,,,8.0,5.0,101.0,8.0,619.6073589998996,,,,,,,,,,,,,,,,,619.5983876999235,620.8073345999001,621.6103145999368,621.5914138999069,,,,,,,,,,,,,,,,,,,,,,,,,,,,,,,,,,,621.5914620999247,621.6103145999368,621.6103145999368,622.4258720999351,r,1.0,0.8105221000732854,,,,,sub-154,2.0,stroop_test,59.357537782048034,
,,,,,,,,blau,yellow,g,0.0,,,,,,,,,8.0,6.0,102.0,7.0,622.438976299949,,,,,,,,,,,,,,,,,622.4295917999698,623.6393405999988,624.4699724999955,624.4402537998976,,,,,,,,,,,,,,,,,,,,,,,,,,,,,,,,,,,624.4403129999992,624.4699724999955,624.4699724999955,625.4262638998916,g,1.0,0.9470821000868456,,,,,sub-154,2.0,stroop_test,59.357537782048034,
,,,,,,,,blau,red,r,0.0,,,,,,,,,8.0,7.0,103.0,4.0,625.4374788999557,,,,,,,,,,,,,,,,,625.4288824999239,626.2371466999175,627.0367486999603,627.0218985999236,,,,,,,,,,,,,,,,,,,,,,,,,,,,,,,,,,,627.0219897999195,627.0367486999603,627.0367486999603,628.1366388999159,r,1.0,1.082654400030151,,,,,sub-154,2.0,stroop_test,59.357537782048034,
,,,,,,,,gelb,yellow,g,1.0,,,,,,,,,8.0,8.0,104.0,10.0,628.1511005999055,,,,,,,,,,,,,,,,,628.1393967999611,628.2510909999255,629.06298529997,629.0371154999593,,,,,,,,,,,,,,,,,,,,,,,,,,,,,,,,,,,629.0371728999307,629.06298529997,629.06298529997,630.1389275999973,g,1.0,1.064340700046159,,,,,sub-154,2.0,stroop_test,59.357537782048034,
,,,,,,,,rot,red,r,1.0,,,,,,,,,8.0,9.0,105.0,0.0,630.1510700999061,,,,,,,,,,,,,,,,,630.1425656999927,630.2509122999618,631.0724285999313,631.0379951999057,,,,,,,,,,,,,,,,,,,,,,,,,,,,,,,,,,,631.0380488999654,631.0724285999313,631.0724285999313,632.1047452999046,r,1.0,1.0270605999976397,,,,,sub-154,2.0,stroop_test,59.357537782048034,
,,,,,,,,gelb,blue,b,0.0,,,,,,,,,8.0,10.0,106.0,9.0,632.1175819999771,,,,,,,,,,,,,,,,,632.1089851999423,633.3156840999145,634.126271899906,634.1006567999721,,,,,,,,,,,,,,,,,,,,,,,,,,,,,,,,,,,634.10074169992,634.126271899906,634.126271899906,634.8313871999271,b,1.0,0.699847900075838,,,,,sub-154,2.0,stroop_test,59.357537782048034,
,,,,,,,,rot,red,r,1.0,,,,,,,,,8.0,11.0,107.0,1.0,634.8457216999959,,,,,,,,,,,,,,,,,634.8328771999804,635.6474281999981,636.455222099903,636.4322424998973,,,,,,,,,,,,,,,,,,,,,,,,,,,,,,,,,,,636.4323046999052,636.455222099903,636.455222099903,637.3818810998928,r,1.0,0.9129006000002846,,,,,sub-154,2.0,stroop_test,59.357537782048034,
,,,,,,,,rot,red,r,1.0,,,,,,,,,9.0,0.0,108.0,0.0,637.3950409999816,,,,,,,,,,,,,,,,,637.3835150999948,637.7460573998978,638.5454456999432,638.5307003000053,,,,,,,,,,,,,,,,,,,,,,,,,,,,,,,,,,,638.5307628998999,638.5454456999432,638.5454456999432,639.2473966999678,r,1.0,0.6909343000734225,,,,,sub-154,2.0,stroop_test,59.357537782048034,
,,,,,,,,gelb,yellow,g,1.0,,,,,,,,,9.0,1.0,109.0,11.0,639.2613007999025,,,,,,,,,,,,,,,,,639.2503490999807,639.6116125999251,640.4269040999934,640.4109996999614,,,,,,,,,,,,,,,,,,,,,,,,,,,,,,,,,,,640.4110442999518,640.4269040999934,640.4269040999934,641.2445605999092,g,1.0,0.8044679999584332,,,,,sub-154,2.0,stroop_test,59.357537782048034,
,,,,,,,,gelb,blue,b,0.0,,,,,,,,,9.0,2.0,110.0,9.0,641.2590821998892,,,,,,,,,,,,,,,,,641.2466651999857,641.3605242999038,642.1599746999564,642.1459574999753,,,,,,,,,,,,,,,,,,,,,,,,,,,,,,,,,,,642.1460390998982,642.1599746999564,642.1599746999564,643.0461958999513,b,1.0,0.8692262000404298,,,,,sub-154,2.0,stroop_test,59.357537782048034,
,,,,,,,,rot,yellow,g,0.0,,,,,,,,,9.0,3.0,111.0,3.0,643.0592639999231,,,,,,,,,,,,,,,,,643.0488616999937,643.8587257999461,644.6709634999279,644.6435392999556,,,,,,,,,,,,,,,,,,,,,,,,,,,,,,,,,,,644.643636599998,644.6709634999279,644.6709634999279,646.0576504999772,g,1.0,1.3739413000876084,,,,,sub-154,2.0,stroop_test,59.357537782048034,
,,,,,,,,blau,red,r,0.0,,,,,,,,,9.0,4.0,112.0,4.0,646.0724850998959,,,,,,,,,,,,,,,,,646.0595165999839,646.4240217999322,647.2375906999223,647.2087907999521,,,,,,,,,,,,,,,,,,,,,,,,,,,,,,,,,,,647.2088456999045,647.2375906999223,647.2375906999223,648.1577465999871,r,1.0,0.9131949000293388,,,,,sub-154,2.0,stroop_test,59.357537782048034,
,,,,,,,,blau,blue,b,1.0,,,,,,,,,9.0,5.0,113.0,6.0,648.1712803998962,,,,,,,,,,,,,,,,,648.1601139999693,648.2719945999561,649.0720330999466,649.0563691999996,,,,,,,,,,,,,,,,,,,,,,,,,,,,,,,,,,,649.0564377999399,649.0720330999466,649.0720330999466,649.8414961999515,b,1.0,0.7609568000771105,,,,,sub-154,2.0,stroop_test,59.357537782048034,
,,,,,,,,blau,yellow,g,0.0,,,,,,,,,9.0,6.0,114.0,7.0,649.8541936998954,,,,,,,,,,,,,,,,,649.8441971999127,650.6541826999746,651.4531168999383,651.4383863999974,,,,,,,,,,,,,,,,,,,,,,,,,,,,,,,,,,,651.4384393999353,651.4531168999383,651.4531168999383,652.1566784000024,g,1.0,0.7004185999976471,,,,,sub-154,2.0,stroop_test,59.357537782048034,
,,,,,,,,gelb,yellow,g,1.0,,,,,,,,,9.0,7.0,115.0,10.0,652.1695523998933,,,,,,,,,,,,,,,,,652.1592448999872,652.2694786998909,653.0746000999352,653.0538661999162,,,,,,,,,,,,,,,,,,,,,,,,,,,,,,,,,,,653.0539214999881,653.0746000999352,653.0746000999352,653.9383004999254,g,1.0,0.8459182999795303,,,,,sub-154,2.0,stroop_test,59.357537782048034,
,,,,,,,,rot,red,r,1.0,,,,,,,,,9.0,8.0,116.0,1.0,653.9520259998972,,,,,,,,,,,,,,,,,653.9408396999352,654.751661599963,655.5616148998961,655.5362773999805,,,,,,,,,,,,,,,,,,,,,,,,,,,,,,,,,,,655.5363403999945,655.5616148998961,655.5616148998961,656.5534651000053,r,1.0,0.9833129000617192,,,,,sub-154,2.0,stroop_test,59.357537782048034,
,,,,,,,,blau,blue,b,1.0,,,,,,,,,9.0,9.0,117.0,5.0,656.5664377999492,,,,,,,,,,,,,,,,,656.5561085999943,657.3663257999578,658.1797741999617,658.151333799935,,,,,,,,,,,,,,,,,,,,,,,,,,,,,,,,,,,658.1513973999536,658.1797741999617,658.1797741999617,658.9515190999955,b,1.0,0.7546371999196708,,,,,sub-154,2.0,stroop_test,59.357537782048034,
,,,,,,,,gelb,red,r,0.0,,,,,,,,,9.0,10.0,118.0,8.0,658.9647931999061,,,,,,,,,,,,,,,,,658.9553801999427,659.3151436999906,660.1204932999099,660.1003336999565,,,,,,,,,,,,,,,,,,,,,,,,,,,,,,,,,,,660.1004112999653,660.1204932999099,660.1204932999099,661.1512137999525,r,1.0,1.0119263000087813,,,,,sub-154,2.0,stroop_test,59.357537782048034,
,,,,,,,,rot,blue,b,0.0,,,,,,,,,9.0,11.0,119.0,2.0,661.1635006999131,,,,,,,,,,,,,,,,,661.1548484999221,661.5136971999891,662.3214381999569,662.2977947999025,,,,,,,,,,,,,,,,,,,,,,,,,,,,,,,,,,,662.2978496999713,662.3214381999569,662.3214381999569,663.2647513999837,b,1.0,0.9252938999561592,,,,,sub-154,2.0,stroop_test,59.357537782048034,
,,,,,,,,,,,,,,,,,,,,,,,,,,,,,,,,,,,,,,,,,,,,,,,,,,,,,,,,,,,,,,,,,,,,,,,,,,,,,,,,,,,,,,,663.2663750998909,663.279069299926,668.2749800999882,sub-154,,,,
