wordCTK,colorCTK,corrAnsCTK,congruentCTK,thisN,thisTrialN,thisRepN,keyResp_CTK.keys,keyResp_CTK.corr,keyResp_CTK.rt,keyResp_CTK.duration,wordPractice,colorPractice,corrAnsPractice,congruentPractice,respPractice.keys,respPractice.corr,respPractice.rt,respPractice.duration,word,color,corrAns,congruent,keyResp_test_run.keys,keyResp_test_run.corr,keyResp_test_run.rt,keyResp_test_run.duration,trials_CTK.thisRepN,trials_CTK.thisTrialN,trials_CTK.thisN,trials_CTK.thisIndex,trials_practice.thisRepN,trials_practice.thisTrialN,trials_practice.thisN,trials_practice.thisIndex,trials_test.thisRepN,trials_test.thisTrialN,trials_test.thisN,trials_test.thisIndex,thisRow.t,notes,instruction.started,instr_text.started,instr_image.started,instr_resp.started,instruction.stopped,instr_resp.keys,instr_resp.rt,instr_resp.duration,instr_color_to_key.started,instr_ctk.started,resp_ctk.started,instr_color_to_key.stopped,resp_ctk.keys,resp_ctk.rt,resp_ctk.duration,ITI.started,fixcross.started,fixcross.stopped,ITI.stopped,color_to_key_run.started,stimulus_CTK.started,keyResp_CTK.started,color_to_key_run.stopped,trials_CTK.keyResp_CTK.keys,trials_CTK.keyResp_CTK.corr,trials_CTK.keyResp_CTK.rt,trials_CTK.keyResp_CTK.duration,instr_practice.started,instr_practice_text.started,instr_practice_resp.started,instr_practice.stopped,instr_practice_resp.keys,instr_practice_resp.rt,instr_practice_resp.duration,practice_run.started,stimulus_practice.started,respPractice.started,practice_run.stopped,trials_practice.respPractice.keys,trials_practice.respPractice.corr,trials_practice.respPractice.rt,trials_practice.respPractice.duration,feedback.started,textFeedback.started,feedback.stopped,textFeedback.stopped,instr_test.started,instr_test_text.started,instr_test_resp.started,instr_test.stopped,instr_test_resp.keys,instr_test_resp.rt,instr_test_resp.duration,test_run.started,stimulus_test_run.started,keyResp_test_run.started,test_run.stopped,trials_test.keyResp_test_run.keys,trials_test.keyResp_test_run.corr,trials_test.keyResp_test_run.rt,trials_test.keyResp_test_run.duration,goodbye.started,textGoodbye.started,textGoodbye.stopped,goodbye.stopped,participant,session,expName,frameRate,Unnamed: 113
,,,,,,,,,,,,,,,,,,,,,,,,,,,,,,,,,,,,,,,,,0.0126584359968546,0.0467939109948929,0.0467939109948929,0.0467939109948929,8.941357716998027,space,8.753811451999354,,,,,,,,,,,,,,,,,,,,,,,,,,,,,,,,,,,,,,,,,,,,,,,,,,,,,,,,,,,sub-185,1,stroop_test,67.1994155701339,
,,,,,,,,,,,,,,,,,,,,,,,,,,,,,,,,,,,,,,,,,,,,,,,,,8.941405043995474,8.955163034996076,8.955163034996076,11.24153391800064,space,2.2791150119956,,,,,,,,,,,,,,,,,,,,,,,,,,,,,,,,,,,,,,,,,,,,,,,,,,,,sub-185,1,stroop_test,67.1994155701339,
test,blue,b,1.0,0.0,0.0,0.0,b,1.0,0.9774960110007668,,,,,,,,,,,,,,,,,,0.0,0.0,0.0,2.0,,,,,,,,,11.26366945299378,,,,,,,,,,,,,,,,,11.25462823199632,12.443159691996698,13.248640399993748,13.232540205994155,13.239376732999515,13.248640399993748,13.248640399993748,14.233194493994231,b,1.0,0.9774960110007668,,,,,,,,,,,,,,,,,,,,,,,,,,,,,,,,,,,,,,,,sub-185,1,stroop_test,67.1994155701339,
test,yellow,g,1.0,1.0,1.0,0.0,g,1.0,0.8868802389988559,,,,,,,,,,,,,,,,,,0.0,1.0,1.0,1.0,,,,,,,,,14.244682347998603,,,,,,,,,,,,,,,,,14.233677696996892,15.429525306994035,16.228449090995127,16.215556859999197,16.21625363199564,16.228449090995127,16.228449090995127,17.120186256994202,g,1.0,0.8868802389988559,,,,,,,,,,,,,,,,,,,,,,,,,,,,,,,,,,,,,,,,sub-185,1,stroop_test,67.1994155701339,
test,red,r,1.0,2.0,2.0,0.0,r,1.0,0.5387740759979351,,,,,,,,,,,,,,,,,,0.0,2.0,2.0,0.0,,,,,,,,,17.132544754000264,,,,,,,,,,,,,,,,,17.12090408599761,17.213664577997406,18.022327186998155,18.007192311997642,18.007881148994784,18.022327186998155,18.022327186998155,18.57289738599502,r,1.0,0.5387740759979351,,,,,,,,,,,,,,,,,,,,,,,,,,,,,,,,,,,,,,,,sub-185,1,stroop_test,67.1994155701339,
test,blue,b,1.0,3.0,0.0,1.0,b,1.0,0.5532060100013041,,,,,,,,,,,,,,,,,,1.0,0.0,3.0,2.0,,,,,,,,,18.58378833199822,,,,,,,,,,,,,,,,,18.57312845999695,18.924477060994832,19.72393460299645,19.71121519099688,19.71170098599396,19.72393460299645,19.72393460299645,20.28246028599824,b,1.0,0.5532060100013041,,,,,,,,,,,,,,,,,,,,,,,,,,,,,,,,,,,,,,,,sub-185,1,stroop_test,67.1994155701339,
test,red,r,1.0,4.0,1.0,1.0,r,1.0,1.3430110839981353,,,,,,,,,,,,,,,,,,1.0,1.0,4.0,0.0,,,,,,,,,20.29407364999497,,,,,,,,,,,,,,,,,20.28279879399633,21.480958480999107,22.275748707994357,22.264662866000435,22.265168961996096,22.275748707994357,22.275748707994357,23.62328911999793,r,1.0,1.3430110839981353,,,,,,,,,,,,,,,,,,,,,,,,,,,,,,,,,,,,,,,,sub-185,1,stroop_test,67.1994155701339,
test,yellow,g,1.0,5.0,2.0,1.0,g,1.0,0.5899871419969713,,,,,,,,,,,,,,,,,,1.0,2.0,5.0,1.0,,,,,,,,,23.631223029995454,,,,,,,,,,,,,,,,,23.623575491998054,24.41452408400073,25.2108086119988,25.19819121999899,25.19946297899878,25.2108086119988,25.2108086119988,25.81277944099565,g,1.0,0.5899871419969713,,,,,,,,,,,,,,,,,,,,,,,,,,,,,,,,,,,,,,,,sub-185,1,stroop_test,67.1994155701339,
test,yellow,g,1.0,6.0,0.0,2.0,g,1.0,0.7449368790039443,,,,,,,,,,,,,,,,,,2.0,0.0,6.0,1.0,,,,,,,,,25.82309341999644,,,,,,,,,,,,,,,,,25.813128185000096,25.914445368995075,26.71078443699662,26.698609492996184,26.699670568996225,26.71078443699662,26.71078443699662,27.4639303629956,g,1.0,0.7449368790039443,,,,,,,,,,,,,,,,,,,,,,,,,,,,,,,,,,,,,,,,sub-185,1,stroop_test,67.1994155701339,
test,blue,b,1.0,7.0,1.0,2.0,b,1.0,0.6915914399942267,,,,,,,,,,,,,,,,,,2.0,1.0,7.0,2.0,,,,,,,,,27.47408928499499,,,,,,,,,,,,,,,,,27.464178239999452,27.563683884000056,28.36617315199692,28.355881760995544,28.35651348799729,28.36617315199692,28.36617315199692,29.066961779994017,b,1.0,0.6915914399942267,,,,,,,,,,,,,,,,,,,,,,,,,,,,,,,,,,,,,,,,sub-185,1,stroop_test,67.1994155701339,
test,red,r,1.0,8.0,2.0,2.0,r,1.0,0.4815013050028938,,,,,,,,,,,,,,,,,,2.0,2.0,8.0,0.0,,,,,,,,,29.079619545998867,,,,,,,,,,,,,,,,,29.067542009994213,29.41317104199697,30.210516210994683,30.19818886899884,30.199377271994308,30.210516210994683,30.210516210994683,30.69870356899628,r,1.0,0.4815013050028938,,,,,,,,,,,,,,,,,,,,,,,,,,,,,,,,,,,,,,,,sub-185,1,stroop_test,67.1994155701339,
test,blue,b,1.0,9.0,0.0,3.0,b,1.0,2.055746245998307,,,,,,,,,,,,,,,,,,3.0,0.0,9.0,2.0,,,,,,,,,30.709995493998576,,,,,,,,,,,,,,,,,30.69898525499593,31.05538458199589,31.84950308399857,31.839102181998896,31.83973218199389,31.84950308399857,31.84950308399857,33.916041885000595,b,1.0,2.055746245998307,,,,,,,,,,,,,,,,,,,,,,,,,,,,,,,,,,,,,,,,sub-185,1,stroop_test,67.1994155701339,
test,red,r,1.0,10.0,1.0,3.0,r,1.0,0.6366982179970364,,,,,,,,,,,,,,,,,,3.0,1.0,10.0,0.0,,,,,,,,,33.92753126099706,,,,,,,,,,,,,,,,,33.91636606599786,34.01385202099482,34.81085505299416,34.79851163699641,34.799975232999714,34.81085505299416,34.81085505299416,35.456489003998286,r,1.0,0.6366982179970364,,,,,,,,,,,,,,,,,,,,,,,,,,,,,,,,,,,,,,,,sub-185,1,stroop_test,67.1994155701339,
test,yellow,g,1.0,11.0,2.0,3.0,g,1.0,0.4183519850048469,,,,,,,,,,,,,,,,,,3.0,2.0,11.0,1.0,,,,,,,,,35.46767571300006,,,,,,,,,,,,,,,,,35.45677916199929,35.54818447699654,36.34397057000024,36.33199798299757,36.332696648998535,36.34397057000024,36.34397057000024,36.76595896999788,g,1.0,0.4183519850048469,,,,,,,,,,,,,,,,,,,,,,,,,,,,,,,,,,,,,,,,sub-185,1,stroop_test,67.1994155701339,
,,,,,,,,,,,,,,,,,,,,,,,,,,,,,,,,,,,,,,,,,,,,,,,,,,,,,,,,,,,,,,,,,,,,36.76608357799705,36.77867155099375,36.77867155099375,43.03987664699525,space,6.25572237400047,,,,,,,,,,,,,,,,,,,,,,,,,,,,,,,,,sub-185,1,stroop_test,67.1994155701339,
,,,,0.0,0.0,0.0,,,,,rot,red,r,1.0,r,1.0,0.9866041700006464,,,,,,,,,,,,,,0.0,0.0,0.0,0.0,,,,,43.05861985500087,,,,,,,,,,,,,,,,,43.04812581899751,44.253571841996745,45.07183069399616,45.05394878399966,,,,,,,,,,,,,,,,45.05961555899557,45.07183069399616,45.07183069399616,46.0656232859983,r,1.0,0.9866041700006464,,46.07083165399672,46.08206748899829,47.08734669399564,,,,,,,,,,,,,,,,,,,,,sub-185,1,stroop_test,67.1994155701339,
,,,,1.0,1.0,0.0,,,,,gelb,blue,b,0.0,b,1.0,3.119639485004882,,,,,,,,,,,,,,0.0,1.0,1.0,9.0,,,,,47.10506910199911,,,,,,,,,,,,,,,,,47.088072668993846,47.16808193399629,47.97153358200012,47.95803103000071,,,,,,,,,,,,,,,,47.96252716500021,47.97153358200012,47.97153358200012,51.09478421299718,b,1.0,3.119639485004882,,51.09534273600002,51.10591257799388,52.09055224999611,52.105174332995375,,,,,,,,,,,,,,,,,,,,sub-185,1,stroop_test,67.1994155701339,
,,,,2.0,2.0,0.0,,,,,blau,blue,b,1.0,b,1.0,1.7459844660043018,,,,,,,,,,,,,,0.0,2.0,2.0,5.0,,,,,52.105174332995375,,,,,,,,,,,,,,,,,52.09099469799549,52.44529588599835,53.24815395900077,53.23553503400035,,,,,,,,,,,,,,,,53.23975075999624,53.24815395900077,53.24815395900077,55.00563875700027,b,1.0,1.7459844660043018,,55.00618131199735,55.0180993049944,56.01014464299806,,,,,,,,,,,,,,,,,,,,,sub-185,1,stroop_test,67.1994155701339,
,,,,3.0,3.0,0.0,,,,,gelb,red,r,0.0,r,1.0,0.9013077630006592,,,,,,,,,,,,,,0.0,3.0,3.0,8.0,,,,,56.02141031099745,,,,,,,,,,,,,,,,,56.010514400994,56.10752428999695,56.92167342999892,56.90389012899686,,,,,,,,,,,,,,,,56.90768019999814,56.92167342999892,56.92167342999892,57.83776887499698,r,1.0,0.9013077630006592,,57.8381358129991,57.85492478599917,58.838676157996815,,,,,,,,,,,,,,,,,,,,,sub-185,1,stroop_test,67.1994155701339,
,,,,4.0,4.0,0.0,,,,,rot,blue,b,0.0,b,1.0,0.6647069620012189,,,,,,,,,,,,,,0.0,4.0,4.0,2.0,,,,,58.84683066800062,,,,,,,,,,,,,,,,,58.83901856000011,58.93412399199588,59.73206483899412,59.71768811199581,,,,,,,,,,,,,,,,59.72275920899847,59.73206483899412,59.73206483899412,60.40549367299536,b,1.0,0.6647069620012189,,60.405909304994566,60.41623831999459,61.400626861999626,61.41066682100063,,,,,,,,,,,,,,,,,,,,sub-185,1,stroop_test,67.1994155701339,
,,,,5.0,5.0,0.0,,,,,gelb,yellow,g,1.0,g,1.0,0.9963387140014676,,,,,,,,,,,,,,0.0,5.0,5.0,10.0,,,,,61.41066682100063,,,,,,,,,,,,,,,,,61.40096612100024,62.59685792899836,63.396601995998935,63.38128689699806,,,,,,,,,,,,,,,,63.38782445799734,63.396601995998935,63.396601995998935,64.39636859899474,g,1.0,0.9963387140014676,,64.3969725049974,64.41073065299861,65.39408324100077,65.40486696599692,,,,,,,,,,,,,,,,,,,,sub-185,1,stroop_test,67.1994155701339,
,,,,6.0,6.0,0.0,,,,,gelb,yellow,g,1.0,g,1.0,0.8094853439979488,,,,,,,,,,,,,,0.0,6.0,6.0,11.0,,,,,65.40486696599692,,,,,,,,,,,,,,,,,65.39440205099527,65.49683911800093,66.29888923199906,66.28865736299485,,,,,,,,,,,,,,,,66.28933521900035,66.29888923199906,66.29888923199906,67.11645251899608,g,1.0,0.8094853439979488,,67.11686072299926,67.12793743599468,68.11463918399386,68.13645221099432,,,,,,,,,,,,,,,,,,,,sub-185,1,stroop_test,67.1994155701339,
,,,,7.0,7.0,0.0,,,,,blau,yellow,g,0.0,g,1.0,0.6318354489994817,,,,,,,,,,,,,,0.0,7.0,7.0,7.0,,,,,68.13645221099432,,,,,,,,,,,,,,,,,68.11506462199759,68.91715334399487,69.7185568299974,69.70528321699385,,,,,,,,,,,,,,,,69.70921510299377,69.7185568299974,69.7185568299974,70.35940855700028,g,1.0,0.6318354489994817,,70.35977028199704,70.37258897999709,71.3716673569943,,,,,,,,,,,,,,,,,,,,,sub-185,1,stroop_test,67.1994155701339,
,,,,8.0,8.0,0.0,,,,,rot,yellow,g,0.0,g,1.0,1.1081030639979872,,,,,,,,,,,,,,0.0,8.0,8.0,3.0,,,,,71.38014371600002,,,,,,,,,,,,,,,,,71.37215042399475,72.55683495599806,73.3621313889962,73.3479887680005,,,,,,,,,,,,,,,,73.35313712900097,73.3621313889962,73.3621313889962,74.47618956399674,g,1.0,1.1081030639979872,,74.47656033699604,74.48981239099521,75.47298641700036,75.48805234299653,,,,,,,,,,,,,,,,,,,,sub-185,1,stroop_test,67.1994155701339,
,,,,9.0,9.0,0.0,,,,,blau,red,r,0.0,r,1.0,1.1010818430004292,,,,,,,,,,,,,,0.0,9.0,9.0,4.0,,,,,75.48805234299653,,,,,,,,,,,,,,,,,75.47325337399525,75.82363100299699,76.6289636329966,76.61427338199428,,,,,,,,,,,,,,,,76.61981301299966,76.6289636329966,76.6289636329966,77.7389202849954,r,1.0,1.1010818430004292,,77.73929444099485,77.75053870899865,78.7533822109981,,,,,,,,,,,,,,,,,,,,,sub-185,1,stroop_test,67.1994155701339,
,,,,10.0,10.0,0.0,,,,,rot,red,r,1.0,r,1.0,0.69134983800177,,,,,,,,,,,,,,0.0,10.0,10.0,1.0,,,,,78.771307969997,,,,,,,,,,,,,,,,,78.75383936499566,78.83049827200011,79.63767384299717,79.62494627699925,,,,,,,,,,,,,,,,79.62673804799851,79.63767384299717,79.63767384299717,80.33727671499946,r,1.0,0.69134983800177,,80.33778435899876,80.35440269600076,81.34034379099467,,,,,,,,,,,,,,,,,,,,,sub-185,1,stroop_test,67.1994155701339,
,,,,11.0,11.0,0.0,,,,,blau,blue,b,1.0,b,1.0,0.8355959909968078,,,,,,,,,,,,,,0.0,11.0,11.0,6.0,,,,,81.35495499499666,,,,,,,,,,,,,,,,,81.34077770399745,81.43037457799801,82.2376876979979,82.22462429399457,,,,,,,,,,,,,,,,82.22653585899388,82.2376876979979,82.2376876979979,83.08194808400003,b,1.0,0.8355959909968078,,83.0823145569957,83.09467213799508,84.08850749299745,,,,,,,,,,,,,,,,,,,,,sub-185,1,stroop_test,67.1994155701339,
,,,,12.0,0.0,1.0,,,,,blau,blue,b,1.0,b,1.0,0.7745209269996849,,,,,,,,,,,,,,1.0,0.0,12.0,5.0,,,,,84.09822738499497,,,,,,,,,,,,,,,,,84.08898602100089,84.88432571599697,85.68253359699884,85.67157236899948,,,,,,,,,,,,,,,,85.67213822399935,85.68253359699884,85.68253359699884,86.46290161799698,b,1.0,0.7745209269996849,,86.46333294500073,86.47523381999781,87.47134243099572,,,,,,,,,,,,,,,,,,,,,sub-185,1,stroop_test,67.1994155701339,
,,,,13.0,1.0,1.0,,,,,gelb,yellow,g,1.0,g,1.0,1.0036928030021954,,,,,,,,,,,,,,1.0,1.0,13.0,10.0,,,,,87.47937908399763,,,,,,,,,,,,,,,,,87.47161323199543,87.81082711699855,88.61022638199938,88.59399000999838,,,,,,,,,,,,,,,,88.59854634200019,88.61022638199938,88.61022638199938,89.62397333300032,g,1.0,1.0036928030021954,,89.62433460199827,89.63463415599836,90.62160534799476,90.63123337999424,,,,,,,,,,,,,,,,,,,,sub-185,1,stroop_test,67.1994155701339,
,,,,14.0,2.0,1.0,,,,,rot,yellow,g,0.0,g,1.0,0.8062534780037822,,,,,,,,,,,,,,1.0,2.0,14.0,3.0,,,,,90.63123337999424,,,,,,,,,,,,,,,,,90.62202993100072,90.97129086199855,91.787491062998,91.7696379400004,,,,,,,,,,,,,,,,91.77199976999692,91.787491062998,91.787491062998,92.60376697599712,g,1.0,0.8062534780037822,,92.6042819899958,92.62099205999402,93.60675744699984,,,,,,,,,,,,,,,,,,,,,sub-185,1,stroop_test,67.1994155701339,
,,,,15.0,3.0,1.0,,,,,blau,blue,b,1.0,b,1.0,0.5800313840009039,,,,,,,,,,,,,,1.0,3.0,15.0,6.0,,,,,93.621197638,,,,,,,,,,,,,,,,,93.6072132919944,94.82116196099378,95.63756255000044,95.619749518999,,,,,,,,,,,,,,,,95.62156897100068,95.63756255000044,95.63756255000044,96.22238004099928,b,1.0,0.5800313840009039,,96.22282899599668,96.23417278299894,97.22334738099744,,,,,,,,,,,,,,,,,,,,,sub-185,1,stroop_test,67.1994155701339,
,,,,16.0,4.0,1.0,,,,,gelb,blue,b,0.0,b,1.0,0.7246105239973986,,,,,,,,,,,,,,1.0,4.0,16.0,9.0,,,,,97.23750751099578,,,,,,,,,,,,,,,,,97.22360148900044,97.57122390899896,98.3657577979975,98.35492470699684,,,,,,,,,,,,,,,,98.35717511199618,98.3657577979975,98.3657577979975,99.09874348699668,b,1.0,0.7246105239973986,,99.09942483699706,99.11160544299491,100.09761711299508,100.11970660199586,,,,,,,,,,,,,,,,,,,,sub-185,1,stroop_test,67.1994155701339,
,,,,17.0,5.0,1.0,,,,,rot,red,r,1.0,r,1.0,0.4621455230007996,,,,,,,,,,,,,,1.0,5.0,17.0,1.0,,,,,100.11970660199586,,,,,,,,,,,,,,,,,100.09805046700058,100.90444879300048,101.70210247099747,101.6884407089965,,,,,,,,,,,,,,,,101.69238146899444,101.70210247099747,101.70210247099747,102.17551487199673,r,1.0,0.4621455230007996,,102.17622925499744,102.18725814799836,103.17096238699742,103.17908962399817,,,,,,,,,,,,,,,,,,,,sub-185,1,stroop_test,67.1994155701339,
,,,,18.0,6.0,1.0,,,,,blau,red,r,0.0,r,1.0,0.6891557869967073,,,,,,,,,,,,,,1.0,6.0,18.0,4.0,,,,,103.17908962399817,,,,,,,,,,,,,,,,,103.17119007399742,103.52363834299469,104.32504238399996,104.31165120999503,,,,,,,,,,,,,,,,104.31428572299774,104.32504238399996,104.32504238399996,105.02483296900029,r,1.0,0.6891557869967073,,105.025345353999,105.03623400099605,106.0264293989967,,,,,,,,,,,,,,,,,,,,,sub-185,1,stroop_test,67.1994155701339,
,,,,19.0,7.0,1.0,,,,,gelb,yellow,g,1.0,g,1.0,0.9805196719971718,,,,,,,,,,,,,,1.0,7.0,19.0,11.0,,,,,106.04025187099614,,,,,,,,,,,,,,,,,106.02703505499812,106.38606798899856,107.19067001299844,107.17399245699926,,,,,,,,,,,,,,,,107.17865004999476,107.19067001299844,107.19067001299844,108.1773636049984,g,1.0,0.9805196719971718,,108.1777291019971,108.18805574299768,109.17101060999994,109.17874609199498,,,,,,,,,,,,,,,,,,,,sub-185,1,stroop_test,67.1994155701339,
,,,,20.0,8.0,1.0,,,,,rot,red,r,1.0,r,1.0,0.7791681529997732,,,,,,,,,,,,,,1.0,8.0,20.0,0.0,,,,,109.17874609199498,,,,,,,,,,,,,,,,,109.17123176499445,110.38629319599568,111.18278005899629,111.1713323149961,,,,,,,,,,,,,,,,111.173752126997,111.18278005899629,111.18278005899629,111.96595629799413,r,1.0,0.7791681529997732,,111.96668694799882,111.9788521169976,112.96427781399689,112.98605457699888,,,,,,,,,,,,,,,,,,,,sub-185,1,stroop_test,67.1994155701339,
,,,,21.0,9.0,1.0,,,,,rot,blue,b,0.0,b,1.0,0.6075753510012873,,,,,,,,,,,,,,1.0,9.0,21.0,2.0,,,,,112.98605457699888,,,,,,,,,,,,,,,,,112.96471073099384,114.16005372599466,114.9659848989977,114.95460341599392,,,,,,,,,,,,,,,,114.95530978500028,114.9659848989977,114.9659848989977,115.58672003799438,b,1.0,0.6075753510012873,,115.58708414699504,115.6038727119958,116.59453547899466,,,,,,,,,,,,,,,,,,,,,sub-185,1,stroop_test,67.1994155701339,
,,,,22.0,10.0,1.0,,,,,gelb,red,r,0.0,r,1.0,0.9924932949943468,,,,,,,,,,,,,,1.0,10.0,22.0,8.0,,,,,116.60645176099932,,,,,,,,,,,,,,,,,116.59499277699796,116.68758442899708,117.48541926100006,117.4714418279982,,,,,,,,,,,,,,,,117.47558179499902,117.48541926100006,117.48541926100006,118.48657113099762,r,1.0,0.9924932949943468,,118.48708700099814,118.5014098249958,119.48530171099992,119.49612195699592,,,,,,,,,,,,,,,,,,,,sub-185,1,stroop_test,67.1994155701339,
,,,,23.0,11.0,1.0,,,,,blau,yellow,g,0.0,g,1.0,0.3660993049998069,,,,,,,,,,,,,,1.0,11.0,23.0,7.0,,,,,119.49612195699592,,,,,,,,,,,,,,,,,119.48626321899792,119.82932534699648,120.63456377299735,120.62126875700052,,,,,,,,,,,,,,,,120.62504441000056,120.63456377299735,120.63456377299735,121.00368222799445,g,1.0,0.3660993049998069,,121.00410969699442,121.02058644899807,122.00535900899558,,,,,,,,,,,,,,,,,,,,,sub-185,1,stroop_test,67.1994155701339,
,,,,,,,,,,,,,,,,,,,,,,,,,,,,,,,,,,,,,,,,,,,,,,,,,,,,,,,,,,,,,,,,,,,,,,,,,,,,,,,,,,,,,,,122.00579893199756,122.01788585699978,122.01788585699978,126.31465201600076,space,4.284941514997627,,,,,,,,,,,,,,sub-185,1,stroop_test,67.1994155701339,
,,,,0.0,0.0,0.0,,,,,,,,,,,,,blau,yellow,g,0.0,g,1.0,1.1418149169985554,,,,,,,,,,0.0,0.0,0.0,7.0,126.33541019399854,,,,,,,,,,,,,,,,,126.32545850699536,127.51358465099474,128.3217053049957,128.30724176399963,,,,,,,,,,,,,,,,,,,,,,,,,,,,,,,,,,,128.3097369620009,128.3217053049957,128.3217053049957,129.46988296799827,g,1.0,1.1418149169985554,,,,,,sub-185,1,stroop_test,67.1994155701339,
,,,,1.0,1.0,0.0,,,,,,,,,,,,,gelb,yellow,g,1.0,g,1.0,0.5707875939988298,,,,,,,,,,0.0,1.0,1.0,10.0,129.4871768239973,,,,,,,,,,,,,,,,,129.47025944000052,130.26240354000038,131.0707846879959,131.0528561539977,,,,,,,,,,,,,,,,,,,,,,,,,,,,,,,,,,,131.05723798299732,131.0707846879959,131.0707846879959,131.6461874489978,g,1.0,0.5707875939988298,,,,,,sub-185,1,stroop_test,67.1994155701339,
,,,,2.0,2.0,0.0,,,,,,,,,,,,,blau,blue,b,1.0,b,1.0,0.4751660149995587,,,,,,,,,,0.0,2.0,2.0,6.0,131.65931041300064,,,,,,,,,,,,,,,,,131.6465928760008,132.846138598994,133.6442522389989,133.62996741299867,,,,,,,,,,,,,,,,,,,,,,,,,,,,,,,,,,,133.63405823899666,133.6442522389989,133.6442522389989,134.13650559699454,b,1.0,0.4751660149995587,,,,,,sub-185,1,stroop_test,67.1994155701339,
,,,,3.0,3.0,0.0,,,,,,,,,,,,,rot,red,r,1.0,r,1.0,0.462783949005825,,,,,,,,,,0.0,3.0,3.0,0.0,134.1541170049968,,,,,,,,,,,,,,,,,134.13677046499652,135.32902195999486,136.1283953059974,136.1143022219985,,,,,,,,,,,,,,,,,,,,,,,,,,,,,,,,,,,136.1194601229945,136.1283953059974,136.1283953059974,136.60355152600096,r,1.0,0.462783949005825,,,,,,sub-185,1,stroop_test,67.1994155701339,
,,,,4.0,4.0,0.0,,,,,,,,,,,,,gelb,blue,b,0.0,b,1.0,0.7214560889988206,,,,,,,,,,0.0,4.0,4.0,9.0,136.62060669199855,,,,,,,,,,,,,,,,,136.60406259499723,137.40411073799623,138.22088982499554,138.20267634099582,,,,,,,,,,,,,,,,,,,,,,,,,,,,,,,,,,,138.2064990469953,138.22088982499554,138.22088982499554,138.94357310899795,b,1.0,0.7214560889988206,,,,,,sub-185,1,stroop_test,67.1994155701339,
,,,,5.0,5.0,0.0,,,,,,,,,,,,,blau,red,r,0.0,r,1.0,0.7367288360037492,,,,,,,,,,0.0,5.0,5.0,4.0,138.9539005849947,,,,,,,,,,,,,,,,,138.943920316,140.1406911390004,140.9420555109973,140.9288465110003,,,,,,,,,,,,,,,,,,,,,,,,,,,,,,,,,,,140.93157813599828,140.9420555109973,140.9420555109973,141.6876484999957,r,1.0,0.7367288360037492,,,,,,sub-185,1,stroop_test,67.1994155701339,
,,,,6.0,6.0,0.0,,,,,,,,,,,,,gelb,yellow,g,1.0,g,1.0,0.8597284029965522,,,,,,,,,,0.0,6.0,6.0,11.0,141.69755504799832,,,,,,,,,,,,,,,,,141.68791275399417,142.03741991800052,142.84252580400062,142.82720540699663,,,,,,,,,,,,,,,,,,,,,,,,,,,,,,,,,,,142.8304595419977,142.84252580400062,142.84252580400062,143.71040952600015,g,1.0,0.8597284029965522,,,,,,sub-185,1,stroop_test,67.1994155701339,
,,,,7.0,7.0,0.0,,,,,,,,,,,,,blau,blue,b,1.0,b,1.0,0.5068646520012408,,,,,,,,,,0.0,7.0,7.0,5.0,143.7200162320005,,,,,,,,,,,,,,,,,143.71067510799912,144.5095951389958,145.31110229399928,145.2963917409943,,,,,,,,,,,,,,,,,,,,,,,,,,,,,,,,,,,145.30208655199385,145.31110229399928,145.31110229399928,145.8215155259968,b,1.0,0.5068646520012408,,,,,,sub-185,1,stroop_test,67.1994155701339,
,,,,8.0,8.0,0.0,,,,,,,,,,,,,gelb,red,r,0.0,r,1.0,0.4634521379994112,,,,,,,,,,0.0,8.0,8.0,8.0,145.8316538029976,,,,,,,,,,,,,,,,,145.82184906499606,147.01254975199845,147.8155554449986,147.801054396994,,,,,,,,,,,,,,,,,,,,,,,,,,,,,,,,,,,147.8062999649992,147.8155554449986,147.8155554449986,148.28804947699973,r,1.0,0.4634521379994112,,,,,,sub-185,1,stroop_test,67.1994155701339,
,,,,9.0,9.0,0.0,,,,,,,,,,,,,rot,blue,b,0.0,b,1.0,0.947707626997726,,,,,,,,,,0.0,9.0,9.0,2.0,148.2978145849993,,,,,,,,,,,,,,,,,148.28830309899786,149.08894729799795,149.8991159569996,149.88729672299814,,,,,,,,,,,,,,,,,,,,,,,,,,,,,,,,,,,149.890252211997,149.8991159569996,149.8991159569996,150.85440644799382,b,1.0,0.947707626997726,,,,,,sub-185,1,stroop_test,67.1994155701339,
,,,,10.0,10.0,0.0,,,,,,,,,,,,,rot,red,r,1.0,r,1.0,0.5279640219960129,,,,,,,,,,0.0,10.0,10.0,1.0,150.86510404799628,,,,,,,,,,,,,,,,,150.85466899499443,152.0542076069978,152.85482427799434,152.84425923499657,,,,,,,,,,,,,,,,,,,,,,,,,,,,,,,,,,,152.84491262299707,152.85482427799434,152.85482427799434,153.38586864499666,r,1.0,0.5279640219960129,,,,,,sub-185,1,stroop_test,67.1994155701339,
,,,,11.0,11.0,0.0,,,,,,,,,,,,,rot,yellow,g,0.0,g,1.0,0.7763595229989733,,,,,,,,,,0.0,11.0,11.0,3.0,153.3949097999939,,,,,,,,,,,,,,,,,153.38669762599602,153.4793214159945,154.28325058599876,154.2721862529943,,,,,,,,,,,,,,,,,,,,,,,,,,,,,,,,,,,154.2739670439987,154.28325058599876,154.28325058599876,155.07138080299774,g,1.0,0.7763595229989733,,,,,,sub-185,1,stroop_test,67.1994155701339,
,,,,12.0,0.0,1.0,,,,,,,,,,,,,gelb,red,r,0.0,r,1.0,0.6314180070039583,,,,,,,,,,1.0,0.0,12.0,8.0,155.0815459669975,,,,,,,,,,,,,,,,,155.07175776000076,155.171981391999,155.97044722099963,155.9548086319992,,,,,,,,,,,,,,,,,,,,,,,,,,,,,,,,,,,155.95734924399585,155.97044722099963,155.97044722099963,156.6107691099969,r,1.0,0.6314180070039583,,,,,,sub-185,1,stroop_test,67.1994155701339,
,,,,13.0,1.0,1.0,,,,,,,,,,,,,rot,blue,b,0.0,b,1.0,1.0378161759945217,,,,,,,,,,1.0,1.0,13.0,2.0,156.6231577399958,,,,,,,,,,,,,,,,,156.61101804799546,156.70629709900095,157.51776580899605,157.50424967599974,,,,,,,,,,,,,,,,,,,,,,,,,,,,,,,,,,,157.50826060299732,157.51776580899605,157.51776580899605,158.56014951499674,b,1.0,1.0378161759945217,,,,,,sub-185,1,stroop_test,67.1994155701339,
,,,,14.0,2.0,1.0,,,,,,,,,,,,,blau,blue,b,1.0,b,1.0,0.6762131130017224,,,,,,,,,,1.0,2.0,14.0,5.0,158.5708915599971,,,,,,,,,,,,,,,,,158.56054575699818,159.7592910559979,160.56821113899787,160.55391904899443,,,,,,,,,,,,,,,,,,,,,,,,,,,,,,,,,,,160.5579322439953,160.56821113899787,160.56821113899787,161.24778634299582,b,1.0,0.6762131130017224,,,,,,sub-185,1,stroop_test,67.1994155701339,
,,,,15.0,3.0,1.0,,,,,,,,,,,,,rot,red,r,1.0,r,1.0,0.5416139950029901,,,,,,,,,,1.0,3.0,15.0,1.0,161.25777934499638,,,,,,,,,,,,,,,,,161.2484341229938,162.04876862399396,162.85065894799482,162.83727525200084,,,,,,,,,,,,,,,,,,,,,,,,,,,,,,,,,,,162.84122887400008,162.85065894799482,162.85065894799482,163.39600465499825,r,1.0,0.5416139950029901,,,,,,sub-185,1,stroop_test,67.1994155701339,
,,,,16.0,4.0,1.0,,,,,,,,,,,,,rot,red,r,1.0,r,1.0,0.6024315739996382,,,,,,,,,,1.0,4.0,16.0,0.0,163.4047395689995,,,,,,,,,,,,,,,,,163.39630178299558,163.73685263799416,164.53104991500004,164.5206602929975,,,,,,,,,,,,,,,,,,,,,,,,,,,,,,,,,,,164.5213482399995,164.53104991500004,164.53104991500004,165.14335852999648,r,1.0,0.6024315739996382,,,,,,sub-185,1,stroop_test,67.1994155701339,
,,,,17.0,5.0,1.0,,,,,,,,,,,,,blau,yellow,g,0.0,g,1.0,0.6591670080015319,,,,,,,,,,1.0,5.0,17.0,7.0,165.15331558599428,,,,,,,,,,,,,,,,,165.14362530099606,165.24277597799664,166.05335171899787,166.03570998599753,,,,,,,,,,,,,,,,,,,,,,,,,,,,,,,,,,,166.0391861409953,166.05335171899787,166.05335171899787,166.7256113889962,g,1.0,0.6591670080015319,,,,,,sub-185,1,stroop_test,67.1994155701339,
,,,,18.0,6.0,1.0,,,,,,,,,,,,,gelb,yellow,g,1.0,g,1.0,0.6157298940015608,,,,,,,,,,1.0,6.0,18.0,11.0,166.73901134499465,,,,,,,,,,,,,,,,,166.7259993359985,167.5288869099968,168.33842643899698,168.32193784399715,,,,,,,,,,,,,,,,,,,,,,,,,,,,,,,,,,,168.32596465000097,168.33842643899698,168.33842643899698,168.9709465489941,g,1.0,0.6157298940015608,,,,,,sub-185,1,stroop_test,67.1994155701339,
,,,,19.0,7.0,1.0,,,,,,,,,,,,,blau,blue,b,1.0,b,1.0,0.5249889490005444,,,,,,,,,,1.0,7.0,19.0,6.0,168.9810110239996,,,,,,,,,,,,,,,,,168.97132709699508,169.32247882999943,170.1280035210002,170.11642924699845,,,,,,,,,,,,,,,,,,,,,,,,,,,,,,,,,,,170.11962280199805,170.1280035210002,170.1280035210002,170.67128263499762,b,1.0,0.5249889490005444,,,,,,sub-185,1,stroop_test,67.1994155701339,
,,,,20.0,8.0,1.0,,,,,,,,,,,,,gelb,blue,b,0.0,b,1.0,0.5860537909975392,,,,,,,,,,1.0,8.0,20.0,9.0,170.68595320899476,,,,,,,,,,,,,,,,,170.67179432899866,170.7697581579996,171.5711156749967,171.559584128001,,,,,,,,,,,,,,,,,,,,,,,,,,,,,,,,,,,171.5620593249987,171.5711156749967,171.5711156749967,172.1698734879974,b,1.0,0.5860537909975392,,,,,,sub-185,1,stroop_test,67.1994155701339,
,,,,21.0,9.0,1.0,,,,,,,,,,,,,rot,yellow,g,0.0,g,1.0,0.7953596009974717,,,,,,,,,,1.0,9.0,21.0,3.0,172.1864886609983,,,,,,,,,,,,,,,,,172.17050456899597,172.51626206500077,173.33672441700037,173.31862461799756,,,,,,,,,,,,,,,,,,,,,,,,,,,,,,,,,,,173.3204740009969,173.33672441700037,173.33672441700037,174.13962882999476,g,1.0,0.7953596009974717,,,,,,sub-185,1,stroop_test,67.1994155701339,
,,,,22.0,10.0,1.0,,,,,,,,,,,,,blau,red,r,0.0,r,1.0,0.4282451250037411,,,,,,,,,,1.0,10.0,22.0,4.0,174.1532590439965,,,,,,,,,,,,,,,,,174.14003911899636,175.34455308500037,176.15078225999605,176.13778544899833,,,,,,,,,,,,,,,,,,,,,,,,,,,,,,,,,,,176.14147624500038,176.15078225999605,176.15078225999605,176.58837950499583,r,1.0,0.4282451250037411,,,,,,sub-185,1,stroop_test,67.1994155701339,
,,,,23.0,11.0,1.0,,,,,,,,,,,,,gelb,yellow,g,1.0,g,1.0,0.641005541998311,,,,,,,,,,1.0,11.0,23.0,10.0,176.59945244499977,,,,,,,,,,,,,,,,,176.58877705799387,177.79106334199605,178.59310795999772,178.57882845099812,,,,,,,,,,,,,,,,,,,,,,,,,,,,,,,,,,,178.5835862899985,178.59310795999772,178.59310795999772,179.23632942699624,g,1.0,0.641005541998311,,,,,,sub-185,1,stroop_test,67.1994155701339,
,,,,24.0,0.0,2.0,,,,,,,,,,,,,gelb,red,r,0.0,r,1.0,0.8205942389977281,,,,,,,,,,2.0,0.0,24.0,8.0,179.25309318899963,,,,,,,,,,,,,,,,,179.23666285899526,179.32855265899707,180.12530433099892,180.1128136429979,,,,,,,,,,,,,,,,,,,,,,,,,,,,,,,,,,,180.11399022199475,180.12530433099892,180.12530433099892,180.959664490998,r,1.0,0.8205942389977281,,,,,,sub-185,1,stroop_test,67.1994155701339,
,,,,25.0,1.0,2.0,,,,,,,,,,,,,gelb,yellow,g,1.0,g,1.0,0.7454080440002144,,,,,,,,,,2.0,1.0,25.0,10.0,180.96952101499485,,,,,,,,,,,,,,,,,180.9599709549948,181.318336534001,182.136667105995,182.11871252499984,,,,,,,,,,,,,,,,,,,,,,,,,,,,,,,,,,,182.11940348599452,182.136667105995,182.136667105995,182.88597390799987,g,1.0,0.7454080440002144,,,,,,sub-185,1,stroop_test,67.1994155701339,
,,,,26.0,2.0,2.0,,,,,,,,,,,,,gelb,yellow,g,1.0,g,1.0,0.5910645250041853,,,,,,,,,,2.0,2.0,26.0,11.0,182.90285841500008,,,,,,,,,,,,,,,,,182.8864110059949,183.68950967399724,184.49558660199543,184.4843074140008,,,,,,,,,,,,,,,,,,,,,,,,,,,,,,,,,,,184.485992488997,184.49558660199543,184.49558660199543,185.1047959399948,g,1.0,0.5910645250041853,,,,,,sub-185,1,stroop_test,67.1994155701339,
,,,,27.0,3.0,2.0,,,,,,,,,,,,,rot,yellow,g,0.0,g,1.0,0.9766109120027976,,,,,,,,,,2.0,3.0,27.0,3.0,185.1198119069959,,,,,,,,,,,,,,,,,185.1053390439993,185.90505323300025,186.7050420759988,186.68895517799683,,,,,,,,,,,,,,,,,,,,,,,,,,,,,,,,,,,186.69250470699623,186.7050420759988,186.7050420759988,187.6878613059962,g,1.0,0.9766109120027976,,,,,,sub-185,1,stroop_test,67.1994155701339,
,,,,28.0,4.0,2.0,,,,,,,,,,,,,blau,red,r,0.0,r,1.0,0.7159958330012159,,,,,,,,,,2.0,4.0,28.0,4.0,187.69910762200016,,,,,,,,,,,,,,,,,187.6881474729962,188.50172012499388,189.2950902809971,189.28507714699663,,,,,,,,,,,,,,,,,,,,,,,,,,,,,,,,,,,189.28683034899584,189.2950902809971,189.2950902809971,190.02072125999985,r,1.0,0.7159958330012159,,,,,,sub-185,1,stroop_test,67.1994155701339,
,,,,29.0,5.0,2.0,,,,,,,,,,,,,rot,blue,b,0.0,b,1.0,0.4642100639975979,,,,,,,,,,2.0,5.0,29.0,2.0,190.0315147289948,,,,,,,,,,,,,,,,,190.02097849099664,191.2198463599998,192.0212616369972,192.004608837,,,,,,,,,,,,,,,,,,,,,,,,,,,,,,,,,,,192.00831969399587,192.0212616369972,192.0212616369972,192.487561584996,b,1.0,0.4642100639975979,,,,,,sub-185,1,stroop_test,67.1994155701339,
,,,,30.0,6.0,2.0,,,,,,,,,,,,,blau,yellow,g,0.0,g,1.0,0.5270955249943654,,,,,,,,,,2.0,6.0,30.0,7.0,192.49562411700023,,,,,,,,,,,,,,,,,192.48786729999847,193.68774082699383,194.4886760849986,194.4728281439966,,,,,,,,,,,,,,,,,,,,,,,,,,,,,,,,,,,194.4765305539986,194.4886760849986,194.4886760849986,195.02626338399568,g,1.0,0.5270955249943654,,,,,,sub-185,1,stroop_test,67.1994155701339,
,,,,31.0,7.0,2.0,,,,,,,,,,,,,gelb,blue,b,0.0,b,1.0,0.7530680920026498,,,,,,,,,,2.0,7.0,31.0,9.0,195.0361675899985,,,,,,,,,,,,,,,,,195.02652070399927,195.3844983589952,196.18917359699844,196.17512792499477,,,,,,,,,,,,,,,,,,,,,,,,,,,,,,,,,,,196.1777597339969,196.18917359699844,196.18917359699844,196.9540219039991,b,1.0,0.7530680920026498,,,,,,sub-185,1,stroop_test,67.1994155701339,
,,,,32.0,8.0,2.0,,,,,,,,,,,,,blau,blue,b,1.0,b,1.0,0.7786543680049363,,,,,,,,,,2.0,8.0,32.0,5.0,196.96551491699935,,,,,,,,,,,,,,,,,196.95441630699497,197.05353723200096,197.85046290299945,197.83690695899716,,,,,,,,,,,,,,,,,,,,,,,,,,,,,,,,,,,197.8409530639983,197.85046290299945,197.85046290299945,198.6372865979938,b,1.0,0.7786543680049363,,,,,,sub-185,1,stroop_test,67.1994155701339,
,,,,33.0,9.0,2.0,,,,,,,,,,,,,blau,blue,b,1.0,b,1.0,0.6149880049997591,,,,,,,,,,2.0,9.0,33.0,6.0,198.64881428799708,,,,,,,,,,,,,,,,,198.63756721199752,198.97845146199688,199.78633600199828,199.7685547269939,,,,,,,,,,,,,,,,,,,,,,,,,,,,,,,,,,,199.76924459699512,199.78633600199828,199.78633600199828,200.4196189049981,b,1.0,0.6149880049997591,,,,,,sub-185,1,stroop_test,67.1994155701339,
,,,,34.0,10.0,2.0,,,,,,,,,,,,,rot,red,r,1.0,r,1.0,0.6696643770046649,,,,,,,,,,2.0,10.0,34.0,1.0,200.43611321699427,,,,,,,,,,,,,,,,,200.42015650999383,200.7655152879961,201.56467193799472,201.5530031379967,,,,,,,,,,,,,,,,,,,,,,,,,,,,,,,,,,,201.55516192699724,201.56467193799472,201.56467193799472,202.23966244599436,r,1.0,0.6696643770046649,,,,,,sub-185,1,stroop_test,67.1994155701339,
,,,,35.0,11.0,2.0,,,,,,,,,,,,,rot,red,r,1.0,r,1.0,0.4664441369968699,,,,,,,,,,2.0,11.0,35.0,0.0,202.2528328499975,,,,,,,,,,,,,,,,,202.23992601400096,202.33968402699972,203.13774189199464,203.1258005089985,,,,,,,,,,,,,,,,,,,,,,,,,,,,,,,,,,,203.1270001859957,203.13774189199464,203.13774189199464,203.60956784799785,r,1.0,0.4664441369968699,,,,,,sub-185,1,stroop_test,67.1994155701339,
,,,,36.0,0.0,3.0,,,,,,,,,,,,,rot,yellow,g,0.0,g,1.0,0.5467317499933415,,,,,,,,,,3.0,0.0,36.0,3.0,203.61937871400005,,,,,,,,,,,,,,,,,203.60988906299465,203.7109128699958,204.50826233399857,204.4957290509992,,,,,,,,,,,,,,,,,,,,,,,,,,,,,,,,,,,204.49696382799448,204.50826233399857,204.50826233399857,205.06438840999908,g,1.0,0.5467317499933415,,,,,,sub-185,1,stroop_test,67.1994155701339,
,,,,37.0,1.0,3.0,,,,,,,,,,,,,rot,red,r,1.0,r,1.0,0.6070463720025145,,,,,,,,,,3.0,1.0,37.0,0.0,205.0769202609954,,,,,,,,,,,,,,,,,205.06470862899727,206.26943656699584,207.0638828909941,207.0534846879964,,,,,,,,,,,,,,,,,,,,,,,,,,,,,,,,,,,207.0541632569948,207.0638828909941,207.0638828909941,207.6761563909968,r,1.0,0.6070463720025145,,,,,,sub-185,1,stroop_test,67.1994155701339,
,,,,38.0,2.0,3.0,,,,,,,,,,,,,gelb,red,r,0.0,r,1.0,0.8312012989990762,,,,,,,,,,3.0,2.0,38.0,8.0,207.68591357999685,,,,,,,,,,,,,,,,,207.67642302999596,208.0350893930008,208.85261229099703,208.8349346469986,,,,,,,,,,,,,,,,,,,,,,,,,,,,,,,,,,,208.83776642699377,208.85261229099703,208.85261229099703,209.695325435001,r,1.0,0.8312012989990762,,,,,,sub-185,1,stroop_test,67.1994155701339,
,,,,39.0,3.0,3.0,,,,,,,,,,,,,blau,yellow,g,0.0,g,1.0,0.5040415719995508,,,,,,,,,,3.0,3.0,39.0,7.0,209.7065724509957,,,,,,,,,,,,,,,,,209.69558500999847,210.05322077099845,210.8500012910008,210.83665667299647,,,,,,,,,,,,,,,,,,,,,,,,,,,,,,,,,,,210.84069834799448,210.8500012910008,210.8500012910008,211.37026215799412,g,1.0,0.5040415719995508,,,,,,sub-185,1,stroop_test,67.1994155701339,
,,,,40.0,4.0,3.0,,,,,,,,,,,,,gelb,yellow,g,1.0,g,1.0,0.5908226750034373,,,,,,,,,,3.0,4.0,40.0,10.0,211.38010387999384,,,,,,,,,,,,,,,,,211.37051835699825,212.56965316099377,213.3864088229966,213.3683769499985,,,,,,,,,,,,,,,,,,,,,,,,,,,,,,,,,,,213.3724222489982,213.3864088229966,213.3864088229966,213.9796283129981,g,1.0,0.5908226750034373,,,,,,sub-185,1,stroop_test,67.1994155701339,
,,,,41.0,5.0,3.0,,,,,,,,,,,,,blau,blue,b,1.0,b,1.0,0.4798888320001424,,,,,,,,,,3.0,5.0,41.0,5.0,214.00104128800007,,,,,,,,,,,,,,,,,213.9799832879944,214.78635453599415,215.58194762299536,215.57010002799507,,,,,,,,,,,,,,,,,,,,,,,,,,,,,,,,,,,215.57281930399768,215.58194762299536,215.58194762299536,216.06417018199863,b,1.0,0.4798888320001424,,,,,,sub-185,1,stroop_test,67.1994155701339,
,,,,42.0,6.0,3.0,,,,,,,,,,,,,gelb,yellow,g,1.0,g,1.0,0.5602522789995419,,,,,,,,,,3.0,6.0,42.0,11.0,216.07476445700013,,,,,,,,,,,,,,,,,216.06449749400053,216.16837210499943,216.96933012199588,216.9515486809978,,,,,,,,,,,,,,,,,,,,,,,,,,,,,,,,,,,216.95574861899516,216.96933012199588,216.96933012199588,217.5353714929952,g,1.0,0.5602522789995419,,,,,,sub-185,1,stroop_test,67.1994155701339,
,,,,43.0,7.0,3.0,,,,,,,,,,,,,blau,red,r,0.0,r,1.0,0.5745461540063843,,,,,,,,,,3.0,7.0,43.0,4.0,217.5525989769958,,,,,,,,,,,,,,,,,217.5356464889992,218.33579764299796,219.1330371559961,219.11980160099483,,,,,,,,,,,,,,,,,,,,,,,,,,,,,,,,,,,219.12407345199608,219.1330371559961,219.1330371559961,219.7202184159978,r,1.0,0.5745461540063843,,,,,,sub-185,1,stroop_test,67.1994155701339,
,,,,44.0,8.0,3.0,,,,,,,,,,,,,blau,blue,b,1.0,b,1.0,0.4054853640045621,,,,,,,,,,3.0,8.0,44.0,6.0,219.73023599099545,,,,,,,,,,,,,,,,,219.7206042839971,220.0731902999978,220.88628930100091,220.8682049989948,,,,,,,,,,,,,,,,,,,,,,,,,,,,,,,,,,,220.8688871609993,220.88628930100091,220.88628930100091,221.2974634469938,b,1.0,0.4054853640045621,,,,,,sub-185,1,stroop_test,67.1994155701339,
,,,,45.0,9.0,3.0,,,,,,,,,,,,,rot,blue,b,0.0,b,1.0,0.7063697339981445,,,,,,,,,,3.0,9.0,45.0,2.0,221.3078317039981,,,,,,,,,,,,,,,,,221.29782483899908,222.49397947599937,223.29105886599427,223.27770925699588,,,,,,,,,,,,,,,,,,,,,,,,,,,,,,,,,,,223.28057320699736,223.29105886599427,223.29105886599427,224.0095242699972,b,1.0,0.7063697339981445,,,,,,sub-185,1,stroop_test,67.1994155701339,
,,,,46.0,10.0,3.0,,,,,,,,,,,,,gelb,blue,b,0.0,b,1.0,0.505468732000736,,,,,,,,,,3.0,10.0,46.0,9.0,224.01985800200052,,,,,,,,,,,,,,,,,224.00980052999512,225.20938123499943,226.01686514500037,226.00319459199815,,,,,,,,,,,,,,,,,,,,,,,,,,,,,,,,,,,226.00751938199392,226.01686514500037,226.01686514500037,226.52573951199884,b,1.0,0.505468732000736,,,,,,sub-185,1,stroop_test,67.1994155701339,
,,,,47.0,11.0,3.0,,,,,,,,,,,,,rot,red,r,1.0,r,1.0,0.5912497649987927,,,,,,,,,,3.0,11.0,47.0,1.0,226.53572908699425,,,,,,,,,,,,,,,,,226.52612924899583,226.8711721369982,227.6853633919964,227.669670299998,,,,,,,,,,,,,,,,,,,,,,,,,,,,,,,,,,,227.67364492499476,227.6853633919964,227.6853633919964,228.2843516149951,r,1.0,0.5912497649987927,,,,,,sub-185,1,stroop_test,67.1994155701339,
,,,,48.0,0.0,4.0,,,,,,,,,,,,,rot,red,r,1.0,r,1.0,0.5787614049986587,,,,,,,,,,4.0,0.0,48.0,0.0,228.2955821149953,,,,,,,,,,,,,,,,,228.2850233489953,228.63617248199444,229.431609524996,229.4197978529992,,,,,,,,,,,,,,,,,,,,,,,,,,,,,,,,,,,229.42048379199696,229.431609524996,229.431609524996,230.0218461139957,r,1.0,0.5787614049986587,,,,,,sub-185,1,stroop_test,67.1994155701339,
,,,,49.0,1.0,4.0,,,,,,,,,,,,,rot,red,r,1.0,r,1.0,0.4936124739979277,,,,,,,,,,4.0,1.0,49.0,1.0,230.0315268829945,,,,,,,,,,,,,,,,,230.0221498499959,231.21903191800084,232.0206226589944,232.0054962930008,,,,,,,,,,,,,,,,,,,,,,,,,,,,,,,,,,,232.00619194300089,232.0206226589944,232.0206226589944,232.52061239499744,r,1.0,0.4936124739979277,,,,,,sub-185,1,stroop_test,67.1994155701339,
,,,,50.0,2.0,4.0,,,,,,,,,,,,,gelb,red,r,0.0,r,1.0,0.6236559500030125,,,,,,,,,,4.0,2.0,50.0,8.0,232.53044750299887,,,,,,,,,,,,,,,,,232.52087127299453,233.3213956479958,234.12045304099595,234.1057969149988,,,,,,,,,,,,,,,,,,,,,,,,,,,,,,,,,,,234.1082194369956,234.12045304099595,234.12045304099595,234.7474770900008,r,1.0,0.6236559500030125,,,,,,sub-185,1,stroop_test,67.1994155701339,
,,,,51.0,3.0,4.0,,,,,,,,,,,,,blau,yellow,g,0.0,g,1.0,0.6098803229979239,,,,,,,,,,4.0,3.0,51.0,7.0,234.75775824800075,,,,,,,,,,,,,,,,,234.74789710999903,234.85261022999475,235.64728883399948,235.63587673699655,,,,,,,,,,,,,,,,,,,,,,,,,,,,,,,,,,,235.63832259799528,235.64728883399948,235.64728883399948,236.260939036998,g,1.0,0.6098803229979239,,,,,,sub-185,1,stroop_test,67.1994155701339,
,,,,52.0,4.0,4.0,,,,,,,,,,,,,rot,yellow,g,0.0,g,1.0,0.6350993070009281,,,,,,,,,,4.0,4.0,52.0,3.0,236.28415311799472,,,,,,,,,,,,,,,,,236.26127677699697,237.06130809099704,237.8647303649996,237.8529403049979,,,,,,,,,,,,,,,,,,,,,,,,,,,,,,,,,,,237.85593529099424,237.8647303649996,237.8647303649996,238.5034903259948,g,1.0,0.6350993070009281,,,,,,sub-185,1,stroop_test,67.1994155701339,
,,,,53.0,5.0,4.0,,,,,,,,,,,,,blau,red,r,0.0,r,1.0,0.640384329999506,,,,,,,,,,4.0,5.0,53.0,4.0,238.51433264399384,,,,,,,,,,,,,,,,,238.5038584349968,238.8445514049963,239.64964590199816,239.6363010849964,,,,,,,,,,,,,,,,,,,,,,,,,,,,,,,,,,,239.6402962499997,239.64964590199816,239.64964590199816,240.29728832199908,r,1.0,0.640384329999506,,,,,,sub-185,1,stroop_test,67.1994155701339,
,,,,54.0,6.0,4.0,,,,,,,,,,,,,gelb,yellow,g,1.0,g,1.0,0.5331414539978141,,,,,,,,,,4.0,6.0,54.0,10.0,240.30783287799568,,,,,,,,,,,,,,,,,240.29756454000017,241.4927445259964,242.2995260579992,242.28633871099737,,,,,,,,,,,,,,,,,,,,,,,,,,,,,,,,,,,242.2903411859952,242.2995260579992,242.2995260579992,242.8368054179955,g,1.0,0.5331414539978141,,,,,,sub-185,1,stroop_test,67.1994155701339,
,,,,55.0,7.0,4.0,,,,,,,,,,,,,gelb,blue,b,0.0,b,1.0,0.6903052859997842,,,,,,,,,,4.0,7.0,55.0,9.0,242.8479183429954,,,,,,,,,,,,,,,,,242.83720082299988,243.62790183099423,244.42850882699716,244.41933796299415,,,,,,,,,,,,,,,,,,,,,,,,,,,,,,,,,,,244.4198060619965,244.42850882699716,244.42850882699716,245.1348985279983,b,1.0,0.6903052859997842,,,,,,sub-185,1,stroop_test,67.1994155701339,
,,,,56.0,8.0,4.0,,,,,,,,,,,,,rot,blue,b,0.0,b,1.0,0.5576918450024095,,,,,,,,,,4.0,8.0,56.0,2.0,245.1520385319964,,,,,,,,,,,,,,,,,245.13527832199907,246.32705427499604,247.1291827899986,247.1189839409999,,,,,,,,,,,,,,,,,,,,,,,,,,,,,,,,,,,247.12078901600037,247.1291827899986,247.1291827899986,247.70245384299776,b,1.0,0.5576918450024095,,,,,,sub-185,1,stroop_test,67.1994155701339,
,,,,57.0,9.0,4.0,,,,,,,,,,,,,blau,blue,b,1.0,b,1.0,0.4680483750053099,,,,,,,,,,4.0,9.0,57.0,6.0,247.71884807400056,,,,,,,,,,,,,,,,,247.7029977709972,248.05444597899623,248.85648113299976,248.84309566799493,,,,,,,,,,,,,,,,,,,,,,,,,,,,,,,,,,,248.84631265799544,248.85648113299976,248.85648113299976,249.3356843910005,b,1.0,0.4680483750053099,,,,,,sub-185,1,stroop_test,67.1994155701339,
,,,,58.0,10.0,4.0,,,,,,,,,,,,,gelb,yellow,g,1.0,g,1.0,0.5072044089974952,,,,,,,,,,4.0,10.0,58.0,11.0,249.34521071899508,,,,,,,,,,,,,,,,,249.3360179349984,249.43897108899543,250.2433500740008,250.2285895479945,,,,,,,,,,,,,,,,,,,,,,,,,,,,,,,,,,,250.23423324099716,250.2433500740008,250.2433500740008,250.7535524569976,g,1.0,0.5072044089974952,,,,,,sub-185,1,stroop_test,67.1994155701339,
,,,,59.0,11.0,4.0,,,,,,,,,,,,,blau,blue,b,1.0,b,1.0,0.5914117580032325,,,,,,,,,,4.0,11.0,59.0,5.0,250.7626214289994,,,,,,,,,,,,,,,,,250.75393908499973,251.5484164119989,252.352123865996,252.3345295889958,,,,,,,,,,,,,,,,,,,,,,,,,,,,,,,,,,,252.33856645599732,252.352123865996,252.352123865996,252.9464103069986,b,1.0,0.5914117580032325,,,,,,sub-185,1,stroop_test,67.1994155701339,
,,,,60.0,0.0,5.0,,,,,,,,,,,,,gelb,yellow,g,1.0,g,1.0,0.5530090760003077,,,,,,,,,,5.0,0.0,60.0,11.0,252.9578063269946,,,,,,,,,,,,,,,,,252.94671138699775,253.7523562959977,254.5514031069979,254.5361503690001,,,,,,,,,,,,,,,,,,,,,,,,,,,,,,,,,,,254.53971044399805,254.5514031069979,254.5514031069979,255.1129734619972,g,1.0,0.5530090760003077,,,,,,sub-185,1,stroop_test,67.1994155701339,
,,,,61.0,1.0,5.0,,,,,,,,,,,,,blau,red,r,0.0,r,1.0,0.709025001997361,,,,,,,,,,5.0,1.0,61.0,4.0,255.1251401279951,,,,,,,,,,,,,,,,,255.113240062994,255.91915681999672,256.71850152399566,256.7026135319975,,,,,,,,,,,,,,,,,,,,,,,,,,,,,,,,,,,256.7068051679962,256.71850152399566,256.71850152399566,257.4367026519976,r,1.0,0.709025001997361,,,,,,sub-185,1,stroop_test,67.1994155701339,
,,,,62.0,2.0,5.0,,,,,,,,,,,,,blau,yellow,g,0.0,g,1.0,1.097193271001743,,,,,,,,,,5.0,2.0,62.0,7.0,257.4468462289951,,,,,,,,,,,,,,,,,257.4369904799969,258.63550991499505,259.429059135,259.41963509299967,,,,,,,,,,,,,,,,,,,,,,,,,,,,,,,,,,,259.4201128669956,259.429059135,259.429059135,260.52992988599726,g,1.0,1.097193271001743,,,,,,sub-185,1,stroop_test,67.1994155701339,
,,,,63.0,3.0,5.0,,,,,,,,,,,,,rot,red,r,1.0,r,1.0,0.5514846239966573,,,,,,,,,,5.0,3.0,63.0,1.0,260.5407842509958,,,,,,,,,,,,,,,,,260.5303954569972,260.6254729249995,261.4269166659942,261.4114792029941,,,,,,,,,,,,,,,,,,,,,,,,,,,,,,,,,,,261.41751320599724,261.4269166659942,261.4269166659942,261.9867062169942,r,1.0,0.5514846239966573,,,,,,sub-185,1,stroop_test,67.1994155701339,
,,,,64.0,4.0,5.0,,,,,,,,,,,,,rot,blue,b,0.0,b,1.0,0.6298888980018091,,,,,,,,,,5.0,4.0,64.0,2.0,261.9963486880006,,,,,,,,,,,,,,,,,261.9869647219966,262.34449465599755,263.1454189049982,263.1357320879979,,,,,,,,,,,,,,,,,,,,,,,,,,,,,,,,,,,263.136077105999,263.1454189049982,263.1454189049982,263.7802006009952,b,1.0,0.6298888980018091,,,,,,sub-185,1,stroop_test,67.1994155701339,
,,,,65.0,5.0,5.0,,,,,,,,,,,,,gelb,red,r,0.0,r,1.0,0.7708783769994625,,,,,,,,,,5.0,5.0,65.0,8.0,263.791550625996,,,,,,,,,,,,,,,,,263.7805451940003,263.8861604179983,264.6902495079994,264.6783280569944,,,,,,,,,,,,,,,,,,,,,,,,,,,,,,,,,,,264.68087202799506,264.6902495079994,264.6902495079994,265.46252371999435,r,1.0,0.7708783769994625,,,,,,sub-185,1,stroop_test,67.1994155701339,
,,,,66.0,6.0,5.0,,,,,,,,,,,,,rot,yellow,g,0.0,g,1.0,0.5081265740009258,,,,,,,,,,5.0,6.0,66.0,3.0,265.4839224280004,,,,,,,,,,,,,,,,,265.4629130799949,266.65812947599625,267.45984528400004,267.44527964200097,,,,,,,,,,,,,,,,,,,,,,,,,,,,,,,,,,,267.4508422899962,267.45984528400004,267.45984528400004,267.9700344349985,g,1.0,0.5081265740009258,,,,,,sub-185,1,stroop_test,67.1994155701339,
,,,,67.0,7.0,5.0,,,,,,,,,,,,,rot,red,r,1.0,r,1.0,0.6089686709965463,,,,,,,,,,5.0,7.0,67.0,0.0,267.9789399889996,,,,,,,,,,,,,,,,,267.9703405749969,268.319037782996,269.119079226999,269.1047402039985,,,,,,,,,,,,,,,,,,,,,,,,,,,,,,,,,,,269.1054396909967,269.119079226999,269.119079226999,269.7362542419942,r,1.0,0.6089686709965463,,,,,,sub-185,1,stroop_test,67.1994155701339,
,,,,68.0,8.0,5.0,,,,,,,,,,,,,gelb,yellow,g,1.0,g,1.0,0.6046459130011499,,,,,,,,,,5.0,8.0,68.0,10.0,269.7461712999939,,,,,,,,,,,,,,,,,269.7365138899986,270.0790701730002,270.876595842994,270.86223268199683,,,,,,,,,,,,,,,,,,,,,,,,,,,,,,,,,,,270.86776072099747,270.876595842994,270.876595842994,271.5019280869965,g,1.0,0.6046459130011499,,,,,,sub-185,1,stroop_test,67.1994155701339,
,,,,69.0,9.0,5.0,,,,,,,,,,,,,blau,blue,b,1.0,b,1.0,0.381370600000082,,,,,,,,,,5.0,9.0,69.0,5.0,271.51855352299754,,,,,,,,,,,,,,,,,271.5024707119956,272.30331761999696,273.1184897089988,273.1012800669996,,,,,,,,,,,,,,,,,,,,,,,,,,,,,,,,,,,273.1061285100004,273.1184897089988,273.1184897089988,273.50312123699405,b,1.0,0.381370600000082,,,,,,sub-185,1,stroop_test,67.1994155701339,
,,,,70.0,10.0,5.0,,,,,,,,,,,,,blau,blue,b,1.0,b,1.0,0.5706321649995516,,,,,,,,,,5.0,10.0,70.0,6.0,273.5110565499999,,,,,,,,,,,,,,,,,273.5034289999967,273.85221310199995,274.6492413499945,274.63813470699824,,,,,,,,,,,,,,,,,,,,,,,,,,,,,,,,,,,274.6398475419992,274.6492413499945,274.6492413499945,275.22529130799376,b,1.0,0.5706321649995516,,,,,,sub-185,1,stroop_test,67.1994155701339,
,,,,71.0,11.0,5.0,,,,,,,,,,,,,gelb,blue,b,0.0,b,1.0,0.5794048300012946,,,,,,,,,,5.0,11.0,71.0,9.0,275.2355924009971,,,,,,,,,,,,,,,,,275.2256408749963,275.3250130219967,276.1252923869979,276.1124199019978,,,,,,,,,,,,,,,,,,,,,,,,,,,,,,,,,,,276.11669268999685,276.1252923869979,276.1252923869979,276.708311811999,b,1.0,0.5794048300012946,,,,,,sub-185,1,stroop_test,67.1994155701339,
,,,,72.0,0.0,6.0,,,,,,,,,,,,,gelb,red,r,0.0,r,1.0,0.6049341059988365,,,,,,,,,,6.0,0.0,72.0,8.0,276.72113241400075,,,,,,,,,,,,,,,,,276.7086985579954,277.90717079000024,278.7187693149972,278.7008510509986,,,,,,,,,,,,,,,,,,,,,,,,,,,,,,,,,,,278.7015433839988,278.7187693149972,278.7187693149972,279.33477762899565,r,1.0,0.6049341059988365,,,,,,sub-185,1,stroop_test,67.1994155701339,
,,,,73.0,1.0,6.0,,,,,,,,,,,,,blau,yellow,g,0.0,g,1.0,0.5475453449980705,,,,,,,,,,6.0,1.0,73.0,7.0,279.3516480959952,,,,,,,,,,,,,,,,,279.33512376499857,279.68209867599944,280.4830050889941,280.4692248259962,,,,,,,,,,,,,,,,,,,,,,,,,,,,,,,,,,,280.4735555619991,280.4830050889941,280.4830050889941,281.04193782999937,g,1.0,0.5475453449980705,,,,,,sub-185,1,stroop_test,67.1994155701339,
,,,,74.0,2.0,6.0,,,,,,,,,,,,,rot,yellow,g,0.0,g,1.0,0.6104766770004062,,,,,,,,,,6.0,2.0,74.0,3.0,281.054364607,,,,,,,,,,,,,,,,,281.0422433659988,282.237289015,283.03996366099454,283.0270339149938,,,,,,,,,,,,,,,,,,,,,,,,,,,,,,,,,,,283.0303352810006,283.03996366099454,283.03996366099454,283.65305895699566,g,1.0,0.6104766770004062,,,,,,sub-185,1,stroop_test,67.1994155701339,
,,,,75.0,3.0,6.0,,,,,,,,,,,,,blau,blue,b,1.0,b,1.0,0.5927913690029527,,,,,,,,,,6.0,3.0,75.0,6.0,283.66117774699524,,,,,,,,,,,,,,,,,283.6533663839946,284.0043659129951,284.80300430299394,284.7916068139966,,,,,,,,,,,,,,,,,,,,,,,,,,,,,,,,,,,284.7942426899972,284.80300430299394,284.80300430299394,285.4086765719985,b,1.0,0.5927913690029527,,,,,,sub-185,1,stroop_test,67.1994155701339,
,,,,76.0,4.0,6.0,,,,,,,,,,,,,rot,red,r,1.0,r,1.0,0.652590870995482,,,,,,,,,,6.0,4.0,76.0,0.0,285.4214935459968,,,,,,,,,,,,,,,,,285.4089814859981,285.50929811199603,286.3095895489969,286.2948365199991,,,,,,,,,,,,,,,,,,,,,,,,,,,,,,,,,,,286.300391372999,286.3095895489969,286.3095895489969,286.9683634949979,r,1.0,0.652590870995482,,,,,,sub-185,1,stroop_test,67.1994155701339,
,,,,77.0,5.0,6.0,,,,,,,,,,,,,rot,blue,b,0.0,b,1.0,0.7776578040065942,,,,,,,,,,6.0,5.0,77.0,2.0,286.98488004499814,,,,,,,,,,,,,,,,,286.96871943899896,287.76838240699726,288.56965369299724,288.5607132689984,,,,,,,,,,,,,,,,,,,,,,,,,,,,,,,,,,,288.5610503779972,288.56965369299724,288.56965369299724,289.36756803199387,b,1.0,0.7776578040065942,,,,,,sub-185,1,stroop_test,67.1994155701339,
,,,,78.0,6.0,6.0,,,,,,,,,,,,,gelb,yellow,g,1.0,g,1.0,0.6150483500023256,,,,,,,,,,6.0,6.0,78.0,10.0,289.3848123409989,,,,,,,,,,,,,,,,,289.3679145089991,290.57025623599475,291.385228866995,291.36733850799646,,,,,,,,,,,,,,,,,,,,,,,,,,,,,,,,,,,291.3719362789998,291.385228866995,291.385228866995,292.002893607998,g,1.0,0.6150483500023256,,,,,,sub-185,1,stroop_test,67.1994155701339,
,,,,79.0,7.0,6.0,,,,,,,,,,,,,gelb,blue,b,0.0,b,1.0,0.6808239489982952,,,,,,,,,,6.0,7.0,79.0,9.0,292.0106970769993,,,,,,,,,,,,,,,,,292.00316417099384,293.19403261599655,293.992467045995,293.9821345409946,,,,,,,,,,,,,,,,,,,,,,,,,,,,,,,,,,,293.9828785699938,293.992467045995,293.992467045995,294.6872558850009,b,1.0,0.6808239489982952,,,,,,sub-185,1,stroop_test,67.1994155701339,
,,,,80.0,8.0,6.0,,,,,,,,,,,,,rot,red,r,1.0,r,1.0,0.5118207179984893,,,,,,,,,,6.0,8.0,80.0,1.0,294.7016561229975,,,,,,,,,,,,,,,,,294.6877905349975,295.88635670899384,296.6833650740009,296.6706095679983,,,,,,,,,,,,,,,,,,,,,,,,,,,,,,,,,,,296.6743016759938,296.6833650740009,296.6833650740009,297.21834800299985,r,1.0,0.5118207179984893,,,,,,sub-185,1,stroop_test,67.1994155701339,
,,,,81.0,9.0,6.0,,,,,,,,,,,,,gelb,yellow,g,1.0,g,1.0,0.6102010860049631,,,,,,,,,,6.0,9.0,81.0,11.0,297.23475541799417,,,,,,,,,,,,,,,,,297.21889103699505,297.563780738994,298.3721054799971,298.3572715449991,,,,,,,,,,,,,,,,,,,,,,,,,,,,,,,,,,,298.36130436099484,298.3721054799971,298.3721054799971,298.9941826680006,g,1.0,0.6102010860049631,,,,,,sub-185,1,stroop_test,67.1994155701339,
,,,,82.0,10.0,6.0,,,,,,,,,,,,,blau,red,r,0.0,r,1.0,0.7039957679953659,,,,,,,,,,6.0,10.0,82.0,4.0,299.0075985359945,,,,,,,,,,,,,,,,,298.99449159600044,300.1908619399983,301.00346214699675,300.98662976799824,,,,,,,,,,,,,,,,,,,,,,,,,,,,,,,,,,,300.9907475090004,301.00346214699675,301.00346214699675,301.7127797149951,r,1.0,0.7039957679953659,,,,,,sub-185,1,stroop_test,67.1994155701339,
,,,,83.0,11.0,6.0,,,,,,,,,,,,,blau,blue,b,1.0,b,1.0,0.4724770220054779,,,,,,,,,,6.0,11.0,83.0,5.0,301.72359641899675,,,,,,,,,,,,,,,,,301.71324960499624,302.91354324799613,303.7124801389946,303.70207248299994,,,,,,,,,,,,,,,,,,,,,,,,,,,,,,,,,,,303.7027531229978,303.7124801389946,303.7124801389946,304.1920104479941,b,1.0,0.4724770220054779,,,,,,sub-185,1,stroop_test,67.1994155701339,
,,,,84.0,0.0,7.0,,,,,,,,,,,,,rot,yellow,g,0.0,g,1.0,0.7495747840002878,,,,,,,,,,7.0,0.0,84.0,3.0,304.2032478359979,,,,,,,,,,,,,,,,,304.19240998500027,304.2905687759994,305.10023784799705,305.0744594079952,,,,,,,,,,,,,,,,,,,,,,,,,,,,,,,,,,,305.0777693819982,305.10023784799705,305.10023784799705,305.8525348289986,g,1.0,0.7495747840002878,,,,,,sub-185,1,stroop_test,67.1994155701339,
,,,,85.0,1.0,7.0,,,,,,,,,,,,,rot,blue,b,0.0,b,1.0,0.8950505910033826,,,,,,,,,,7.0,1.0,85.0,2.0,305.8605350639991,,,,,,,,,,,,,,,,,305.8528582289946,306.64446716299426,307.45170366399543,307.4337433499968,,,,,,,,,,,,,,,,,,,,,,,,,,,,,,,,,,,307.4344239380007,307.45170366399543,307.45170366399543,308.3527862999981,b,1.0,0.8950505910033826,,,,,,sub-185,1,stroop_test,67.1994155701339,
,,,,86.0,2.0,7.0,,,,,,,,,,,,,blau,yellow,g,0.0,g,1.0,0.5546233639979619,,,,,,,,,,7.0,2.0,86.0,7.0,308.36228609599493,,,,,,,,,,,,,,,,,308.353046254997,308.70444037299603,309.5088974809987,309.4947479459952,,,,,,,,,,,,,,,,,,,,,,,,,,,,,,,,,,,309.49994389699714,309.5088974809987,309.5088974809987,310.075013802998,g,1.0,0.5546233639979619,,,,,,sub-185,1,stroop_test,67.1994155701339,
,,,,87.0,3.0,7.0,,,,,,,,,,,,,gelb,yellow,g,1.0,g,1.0,0.6163266770017799,,,,,,,,,,7.0,3.0,87.0,10.0,310.08492697600013,,,,,,,,,,,,,,,,,310.0752784449942,310.8836229669978,311.68615424699965,311.67222445999505,,,,,,,,,,,,,,,,,,,,,,,,,,,,,,,,,,,311.6745607449993,311.68615424699965,311.68615424699965,312.31312432399864,g,1.0,0.6163266770017799,,,,,,sub-185,1,stroop_test,67.1994155701339,
,,,,88.0,4.0,7.0,,,,,,,,,,,,,rot,red,r,1.0,r,1.0,0.4319871740008238,,,,,,,,,,7.0,4.0,88.0,1.0,312.3249820359997,,,,,,,,,,,,,,,,,312.3134209669952,312.66836944799434,313.46758776500064,313.4518915909939,,,,,,,,,,,,,,,,,,,,,,,,,,,,,,,,,,,313.45586112999445,313.46758776500064,313.46758776500064,313.9064550740004,r,1.0,0.4319871740008238,,,,,,sub-185,1,stroop_test,67.1994155701339,
,,,,89.0,5.0,7.0,,,,,,,,,,,,,gelb,red,r,0.0,r,1.0,0.3869440679991385,,,,,,,,,,7.0,5.0,89.0,8.0,313.9166955729961,,,,,,,,,,,,,,,,,313.9069072969942,314.7078328589996,315.5154338669963,315.50188376099686,,,,,,,,,,,,,,,,,,,,,,,,,,,,,,,,,,,315.50587408299907,315.5154338669963,315.5154338669963,315.9053484459946,r,1.0,0.3869440679991385,,,,,,sub-185,1,stroop_test,67.1994155701339,
,,,,90.0,6.0,7.0,,,,,,,,,,,,,blau,blue,b,1.0,b,1.0,0.5622410139985732,,,,,,,,,,7.0,6.0,90.0,5.0,315.9180101679958,,,,,,,,,,,,,,,,,315.90566646399384,317.10812114199507,317.91536128699954,317.9020128319971,,,,,,,,,,,,,,,,,,,,,,,,,,,,,,,,,,,317.90602205399773,317.91536128699954,317.91536128699954,318.48378505800065,b,1.0,0.5622410139985732,,,,,,sub-185,1,stroop_test,67.1994155701339,
,,,,91.0,7.0,7.0,,,,,,,,,,,,,blau,red,r,0.0,r,1.0,0.678301519001252,,,,,,,,,,7.0,7.0,91.0,4.0,318.4945463019976,,,,,,,,,,,,,,,,,318.4841698699965,318.58497327700024,319.38804891499603,319.37349177899887,,,,,,,,,,,,,,,,,,,,,,,,,,,,,,,,,,,319.37418262299616,319.38804891499603,319.38804891499603,320.0768016469956,r,1.0,0.678301519001252,,,,,,sub-185,1,stroop_test,67.1994155701339,
,,,,92.0,8.0,7.0,,,,,,,,,,,,,gelb,yellow,g,1.0,g,1.0,0.306096084001183,,,,,,,,,,7.0,8.0,92.0,11.0,320.0997546840008,,,,,,,,,,,,,,,,,320.0770802990009,320.87673813599395,321.6761336589989,321.66146113899595,,,,,,,,,,,,,,,,,,,,,,,,,,,,,,,,,,,321.6670659589945,321.6761336589989,321.6761336589989,321.9895030639964,g,1.0,0.306096084001183,,,,,,sub-185,1,stroop_test,67.1994155701339,
,,,,93.0,9.0,7.0,,,,,,,,,,,,,blau,blue,b,1.0,b,1.0,0.4943307520006783,,,,,,,,,,7.0,9.0,93.0,6.0,322.0023828509948,,,,,,,,,,,,,,,,,321.9897685429969,322.3400811190004,323.1477660689998,323.1351572049971,,,,,,,,,,,,,,,,,,,,,,,,,,,,,,,,,,,323.1385776629977,323.1477660689998,323.1477660689998,323.6452645209938,b,1.0,0.4943307520006783,,,,,,sub-185,1,stroop_test,67.1994155701339,
,,,,94.0,10.0,7.0,,,,,,,,,,,,,gelb,blue,b,0.0,b,1.0,0.4667230510021909,,,,,,,,,,7.0,10.0,94.0,9.0,323.6567785399966,,,,,,,,,,,,,,,,,323.6455492690002,324.4436350179967,325.25134394099587,325.2334152429976,,,,,,,,,,,,,,,,,,,,,,,,,,,,,,,,,,,325.23738167999545,325.25134394099587,325.25134394099587,325.7359129269971,b,1.0,0.4667230510021909,,,,,,sub-185,1,stroop_test,67.1994155701339,
,,,,95.0,11.0,7.0,,,,,,,,,,,,,rot,red,r,1.0,r,1.0,0.3135152780014323,,,,,,,,,,7.0,11.0,95.0,0.0,325.75097355899925,,,,,,,,,,,,,,,,,325.73647133999475,326.5345211019958,327.3348256440004,327.3183593609938,,,,,,,,,,,,,,,,,,,,,,,,,,,,,,,,,,,327.32298172599985,327.3348256440004,327.3348256440004,327.667837944995,r,1.0,0.3135152780014323,,,,,,sub-185,1,stroop_test,67.1994155701339,
,,,,96.0,0.0,8.0,,,,,,,,,,,,,blau,red,r,0.0,r,1.0,0.5521530070036533,,,,,,,,,,8.0,0.0,96.0,4.0,327.6847243009979,,,,,,,,,,,,,,,,,327.66834238199954,328.86013862300024,329.65996677899966,329.6487882319998,,,,,,,,,,,,,,,,,,,,,,,,,,,,,,,,,,,329.6514453869968,329.65996677899966,329.65996677899966,330.2213162439948,r,1.0,0.5521530070036533,,,,,,sub-185,1,stroop_test,67.1994155701339,
,,,,97.0,1.0,8.0,,,,,,,,,,,,,blau,yellow,g,0.0,g,1.0,0.6153958240029169,,,,,,,,,,8.0,1.0,97.0,7.0,330.23452892500063,,,,,,,,,,,,,,,,,330.22159653299605,330.5831651749977,331.3847346159964,331.3667710879963,,,,,,,,,,,,,,,,,,,,,,,,,,,,,,,,,,,331.36746659100027,331.3847346159964,331.3847346159964,332.0046166569955,g,1.0,0.6153958240029169,,,,,,sub-185,1,stroop_test,67.1994155701339,
,,,,98.0,2.0,8.0,,,,,,,,,,,,,gelb,blue,b,0.0,b,1.0,0.3760581280002952,,,,,,,,,,8.0,2.0,98.0,9.0,332.0130340769974,,,,,,,,,,,,,,,,,332.0050523269965,333.2075352929969,334.01790453199646,334.00011979499686,,,,,,,,,,,,,,,,,,,,,,,,,,,,,,,,,,,334.0041781619948,334.01790453199646,334.01790453199646,334.3961370269972,b,1.0,0.3760581280002952,,,,,,sub-185,1,stroop_test,67.1994155701339,
,,,,99.0,3.0,8.0,,,,,,,,,,,,,gelb,red,r,0.0,r,1.0,0.7933423909998965,,,,,,,,,,8.0,3.0,99.0,8.0,334.40673018699454,,,,,,,,,,,,,,,,,334.39650325999537,334.4936089469993,335.30135438499565,335.28350047499407,,,,,,,,,,,,,,,,,,,,,,,,,,,,,,,,,,,335.2842020109965,335.30135438499565,335.30135438499565,336.09961245500017,r,1.0,0.7933423909998965,,,,,,sub-185,1,stroop_test,67.1994155701339,
,,,,100.0,4.0,8.0,,,,,,,,,,,,,gelb,yellow,g,1.0,g,1.0,0.706876165997528,,,,,,,,,,8.0,4.0,100.0,11.0,336.10766099899774,,,,,,,,,,,,,,,,,336.0999872350003,336.4514396609957,337.2679312580003,337.25011626899504,,,,,,,,,,,,,,,,,,,,,,,,,,,,,,,,,,,337.2508071129996,337.2679312580003,337.2679312580003,337.97624143899884,g,1.0,0.706876165997528,,,,,,sub-185,1,stroop_test,67.1994155701339,
,,,,101.0,5.0,8.0,,,,,,,,,,,,,rot,blue,b,0.0,b,1.0,0.7114654730030452,,,,,,,,,,8.0,5.0,101.0,2.0,337.9845066589987,,,,,,,,,,,,,,,,,337.9765568799994,338.33286821699585,339.1281311389976,339.11794901399844,,,,,,,,,,,,,,,,,,,,,,,,,,,,,,,,,,,339.11975446699944,339.1281311389976,339.1281311389976,339.8519043139968,b,1.0,0.7114654730030452,,,,,,sub-185,1,stroop_test,67.1994155701339,
,,,,102.0,6.0,8.0,,,,,,,,,,,,,blau,blue,b,1.0,b,1.0,0.8393642749942956,,,,,,,,,,8.0,6.0,102.0,5.0,339.86290152099536,,,,,,,,,,,,,,,,,339.8522043269986,340.2042237610003,341.0175681569963,341.00006532699626,,,,,,,,,,,,,,,,,,,,,,,,,,,,,,,,,,,341.00398343699635,341.0175681569963,341.0175681569963,341.8681108460005,b,1.0,0.8393642749942956,,,,,,sub-185,1,stroop_test,67.1994155701339,
,,,,103.0,7.0,8.0,,,,,,,,,,,,,rot,red,r,1.0,r,1.0,0.4667640940024284,,,,,,,,,,8.0,7.0,103.0,0.0,341.87785873100074,,,,,,,,,,,,,,,,,341.8684852829974,342.66796548300044,343.471873221999,343.4566101449964,,,,,,,,,,,,,,,,,,,,,,,,,,,,,,,,,,,343.4614108089954,343.471873221999,343.471873221999,343.9520195219957,r,1.0,0.4667640940024284,,,,,,sub-185,1,stroop_test,67.1994155701339,
,,,,104.0,8.0,8.0,,,,,,,,,,,,,blau,blue,b,1.0,b,1.0,0.5586715809986345,,,,,,,,,,8.0,8.0,104.0,6.0,343.9633835200002,,,,,,,,,,,,,,,,,343.9522806210007,344.0532727949976,344.85204915099894,344.83996669399494,,,,,,,,,,,,,,,,,,,,,,,,,,,,,,,,,,,344.8431185410009,344.85204915099894,344.85204915099894,345.4343419989964,b,1.0,0.5586715809986345,,,,,,sub-185,1,stroop_test,67.1994155701339,
,,,,105.0,9.0,8.0,,,,,,,,,,,,,rot,yellow,g,0.0,g,1.0,1.9526710739955888,,,,,,,,,,8.0,9.0,105.0,3.0,345.4508560499962,,,,,,,,,,,,,,,,,345.43490214199846,346.6340951940001,347.43416082899785,347.42390790699574,,,,,,,,,,,,,,,,,,,,,,,,,,,,,,,,,,,347.42573907199403,347.43416082899785,347.43416082899785,349.4017162569944,g,1.0,1.9526710739955888,,,,,,sub-185,1,stroop_test,67.1994155701339,
,,,,106.0,10.0,8.0,,,,,,,,,,,,,rot,red,r,1.0,r,1.0,0.9004782639967743,,,,,,,,,,8.0,10.0,106.0,1.0,349.412703132999,,,,,,,,,,,,,,,,,349.401977179994,350.6032400490003,351.4073865209939,351.3941441719944,,,,,,,,,,,,,,,,,,,,,,,,,,,,,,,,,,,351.3953715049938,351.4073865209939,351.4073865209939,352.3162891979955,r,1.0,0.9004782639967743,,,,,,sub-185,1,stroop_test,67.1994155701339,
,,,,107.0,11.0,8.0,,,,,,,,,,,,,gelb,yellow,g,1.0,g,1.0,0.6790372920004302,,,,,,,,,,8.0,11.0,107.0,10.0,352.3279593939951,,,,,,,,,,,,,,,,,352.3170727869947,353.1097832339947,353.9087512949991,353.8939533609955,,,,,,,,,,,,,,,,,,,,,,,,,,,,,,,,,,,353.8993921239962,353.9087512949991,353.9087512949991,354.59333740700094,g,1.0,0.6790372920004302,,,,,,sub-185,1,stroop_test,67.1994155701339,
,,,,108.0,0.0,9.0,,,,,,,,,,,,,rot,red,r,1.0,r,1.0,0.4847738440003013,,,,,,,,,,9.0,0.0,108.0,0.0,354.60638621600083,,,,,,,,,,,,,,,,,354.5937758189975,355.79341654699965,356.5920124119948,356.577274806994,,,,,,,,,,,,,,,,,,,,,,,,,,,,,,,,,,,356.582646361996,356.5920124119948,356.5920124119948,357.0853496290001,r,1.0,0.4847738440003013,,,,,,sub-185,1,stroop_test,67.1994155701339,
,,,,109.0,1.0,9.0,,,,,,,,,,,,,gelb,yellow,g,1.0,g,1.0,0.6308919630027958,,,,,,,,,,9.0,1.0,109.0,11.0,357.09531390799384,,,,,,,,,,,,,,,,,357.08571531199414,357.184127004999,358.0006837589972,357.9831691359941,,,,,,,,,,,,,,,,,,,,,,,,,,,,,,,,,,,357.986143397,358.0006837589972,358.0006837589972,358.63544530899526,g,1.0,0.6308919630027958,,,,,,sub-185,1,stroop_test,67.1994155701339,
,,,,110.0,2.0,9.0,,,,,,,,,,,,,blau,blue,b,1.0,b,1.0,0.4384806559974095,,,,,,,,,,9.0,2.0,110.0,5.0,358.6439098589981,,,,,,,,,,,,,,,,,358.6357633029984,358.7400354329948,359.5391697059968,359.52329520299827,,,,,,,,,,,,,,,,,,,,,,,,,,,,,,,,,,,359.52730748099566,359.5391697059968,359.5391697059968,359.98320059499383,b,1.0,0.4384806559974095,,,,,,sub-185,1,stroop_test,67.1994155701339,
,,,,111.0,3.0,9.0,,,,,,,,,,,,,rot,blue,b,0.0,b,1.0,0.5862768579972908,,,,,,,,,,9.0,3.0,111.0,2.0,359.99249538000004,,,,,,,,,,,,,,,,,359.98408561299584,360.08417625499715,360.8860907409981,360.8693165419973,,,,,,,,,,,,,,,,,,,,,,,,,,,,,,,,,,,360.8733518129957,360.8860907409981,360.8860907409981,361.4838270409964,b,1.0,0.5862768579972908,,,,,,sub-185,1,stroop_test,67.1994155701339,
,,,,112.0,4.0,9.0,,,,,,,,,,,,,blau,blue,b,1.0,b,1.0,0.5663465979960165,,,,,,,,,,9.0,4.0,112.0,6.0,361.5004250339989,,,,,,,,,,,,,,,,,361.4841207200007,362.2872353579951,363.0920933479938,363.077414763,,,,,,,,,,,,,,,,,,,,,,,,,,,,,,,,,,,363.0831635239956,363.0920933479938,363.0920933479938,363.66825323199737,b,1.0,0.5663465979960165,,,,,,sub-185,1,stroop_test,67.1994155701339,
,,,,113.0,5.0,9.0,,,,,,,,,,,,,blau,yellow,g,0.0,g,1.0,0.6569540420023259,,,,,,,,,,9.0,5.0,113.0,7.0,363.6796714679949,,,,,,,,,,,,,,,,,363.6686389530005,364.019374863994,364.81953908399737,364.8069256140007,,,,,,,,,,,,,,,,,,,,,,,,,,,,,,,,,,,364.8074403329956,364.81953908399737,364.81953908399737,365.5007577559954,g,1.0,0.6569540420023259,,,,,,sub-185,1,stroop_test,67.1994155701339,
,,,,114.0,6.0,9.0,,,,,,,,,,,,,gelb,yellow,g,1.0,g,1.0,0.5634454959945288,,,,,,,,,,9.0,6.0,114.0,10.0,365.5173363389986,,,,,,,,,,,,,,,,,365.5013036529999,365.85088390099554,366.6478967619987,366.634643393998,,,,,,,,,,,,,,,,,,,,,,,,,,,,,,,,,,,366.6385622419984,366.6478967619987,366.6478967619987,367.233691043999,g,1.0,0.5634454959945288,,,,,,sub-185,1,stroop_test,67.1994155701339,
,,,,115.0,7.0,9.0,,,,,,,,,,,,,rot,yellow,g,0.0,g,1.0,0.6892181770017487,,,,,,,,,,9.0,7.0,115.0,3.0,367.2506631069991,,,,,,,,,,,,,,,,,367.23422882799787,368.42563400799554,369.2340681299975,369.2161943989995,,,,,,,,,,,,,,,,,,,,,,,,,,,,,,,,,,,369.2204533569966,369.2340681299975,369.2340681299975,369.9277708669979,g,1.0,0.6892181770017487,,,,,,sub-185,1,stroop_test,67.1994155701339,
,,,,116.0,8.0,9.0,,,,,,,,,,,,,blau,red,r,0.0,r,1.0,0.3191154169981018,,,,,,,,,,9.0,8.0,116.0,4.0,369.93900374599616,,,,,,,,,,,,,,,,,369.9280707719954,370.7339118529999,371.5480516259995,371.5327775589976,,,,,,,,,,,,,,,,,,,,,,,,,,,,,,,,,,,371.5371784309973,371.5480516259995,371.5480516259995,371.8686678979939,r,1.0,0.3191154169981018,,,,,,sub-185,1,stroop_test,67.1994155701339,
,,,,117.0,9.0,9.0,,,,,,,,,,,,,gelb,blue,b,0.0,b,1.0,0.5298312700033421,,,,,,,,,,9.0,9.0,117.0,9.0,371.8766943849987,,,,,,,,,,,,,,,,,371.8690380129992,372.21991198199976,373.0341502890005,373.0163012089979,,,,,,,,,,,,,,,,,,,,,,,,,,,,,,,,,,,373.02052526899934,373.0341502890005,373.0341502890005,373.56702653799584,b,1.0,0.5298312700033421,,,,,,sub-185,1,stroop_test,67.1994155701339,
,,,,118.0,10.0,9.0,,,,,,,,,,,,,gelb,red,r,0.0,r,1.0,0.4954583380022086,,,,,,,,,,9.0,10.0,118.0,8.0,373.5839931219962,,,,,,,,,,,,,,,,,373.56733419299417,374.3633921739965,375.167624113994,375.1559482899975,,,,,,,,,,,,,,,,,,,,,,,,,,,,,,,,,,,375.1563657439983,375.167624113994,375.167624113994,375.6709474909949,r,1.0,0.4954583380022086,,,,,,sub-185,1,stroop_test,67.1994155701339,
,,,,119.0,11.0,9.0,,,,,,,,,,,,,rot,red,r,1.0,r,1.0,0.4980892250023316,,,,,,,,,,9.0,11.0,119.0,1.0,375.6841099789963,,,,,,,,,,,,,,,,,375.6712117679999,376.026284738,376.8339459849958,376.8178202969939,,,,,,,,,,,,,,,,,,,,,,,,,,,,,,,,,,,376.8220710899986,376.8339459849958,376.8339459849958,377.3365849740003,r,1.0,0.4980892250023316,,,,,,sub-185,1,stroop_test,67.1994155701339,
,,,,,,,,,,,,,,,,,,,,,,,,,,,,,,,,,,,,,,,,,,,,,,,,,,,,,,,,,,,,,,,,,,,,,,,,,,,,,,,,,,,,,,,,,,,,,,,,,,,,,,377.3367605710009,377.35054743599903,382.3433458859945,382.3343842049944,sub-185,1,stroop_test,67.1994155701339,
