wordCTK,colorCTK,corrAnsCTK,congruentCTK,thisN,thisTrialN,thisRepN,keyResp_CTK.keys,keyResp_CTK.corr,keyResp_CTK.rt,keyResp_CTK.duration,wordPractice,colorPractice,corrAnsPractice,congruentPractice,respPractice.keys,respPractice.corr,respPractice.rt,respPractice.duration,word,color,corrAns,congruent,keyResp_test_run.keys,keyResp_test_run.corr,keyResp_test_run.rt,keyResp_test_run.duration,trials_CTK.thisRepN,trials_CTK.thisTrialN,trials_CTK.thisN,trials_CTK.thisIndex,trials_practice.thisRepN,trials_practice.thisTrialN,trials_practice.thisN,trials_practice.thisIndex,trials_test.thisRepN,trials_test.thisTrialN,trials_test.thisN,trials_test.thisIndex,thisRow.t,notes,instruction.started,instr_text.started,instr_image.started,instr_resp.started,instruction.stopped,instr_resp.keys,instr_resp.rt,instr_resp.duration,instr_color_to_key.started,instr_ctk.started,resp_ctk.started,instr_color_to_key.stopped,resp_ctk.keys,resp_ctk.rt,resp_ctk.duration,ITI.started,fixcross.started,fixcross.stopped,ITI.stopped,color_to_key_run.started,stimulus_CTK.started,keyResp_CTK.started,color_to_key_run.stopped,trials_CTK.keyResp_CTK.keys,trials_CTK.keyResp_CTK.corr,trials_CTK.keyResp_CTK.rt,trials_CTK.keyResp_CTK.duration,instr_practice.started,instr_practice_text.started,instr_practice_resp.started,instr_practice.stopped,instr_practice_resp.keys,instr_practice_resp.rt,instr_practice_resp.duration,practice_run.started,stimulus_practice.started,respPractice.started,practice_run.stopped,trials_practice.respPractice.keys,trials_practice.respPractice.corr,trials_practice.respPractice.rt,trials_practice.respPractice.duration,feedback.started,textFeedback.started,feedback.stopped,textFeedback.stopped,instr_test.started,instr_test_text.started,instr_test_resp.started,instr_test.stopped,instr_test_resp.keys,instr_test_resp.rt,instr_test_resp.duration,test_run.started,stimulus_test_run.started,keyResp_test_run.started,test_run.stopped,trials_test.keyResp_test_run.keys,trials_test.keyResp_test_run.corr,trials_test.keyResp_test_run.rt,trials_test.keyResp_test_run.duration,goodbye.started,textGoodbye.started,textGoodbye.stopped,goodbye.stopped,participant,session,expName,frameRate,Unnamed: 113
,,,,,,,,,,,,,,,,,,,,,,,,,,,,,,,,,,,,,,,,,0.0103460829996038,0.0248573329881764,0.0248573329881764,0.0248573329881764,67.2547009169939,space,67.22468537501118,,,,,,,,,,,,,,,,,,,,,,,,,,,,,,,,,,,,,,,,,,,,,,,,,,,,,,,,,,,sub-126,1,stroop_test,120.12348645797944,
,,,,,,,,,,,,,,,,,,,,,,,,,,,,,,,,,,,,,,,,,,,,,,,,,67.25480770799913,67.26604520798719,67.26604520798719,79.38829791698663,space,12.111326415993972,,,,,,,,,,,,,,,,,,,,,,,,,,,,,,,,,,,,,,,,,,,,,,,,,,,,sub-126,1,stroop_test,120.12348645797944,
test,yellow,g,1.0,0.0,0.0,0.0,g,1.0,2.0945462079980643,,,,,,,,,,,,,,,,,,0.0,0.0,0.0,1.0,,,,,,,,,79.42831262499385,,,,,,,,,,,,,,,,,79.40868237499672,80.18840179199469,80.98956704199372,80.97625983299804,80.98323820799123,80.98956704199372,80.98956704199372,83.08813341699715,g,1.0,2.0945462079980643,,,,,,,,,,,,,,,,,,,,,,,,,,,,,,,,,,,,,,,,sub-126,1,stroop_test,120.12348645797944,
test,blue,b,1.0,1.0,1.0,0.0,b,1.0,1.625427207996836,,,,,,,,,,,,,,,,,,0.0,1.0,1.0,2.0,,,,,,,,,83.09883179199824,,,,,,,,,,,,,,,,,83.08869024999149,83.18662599999516,83.97910779199447,83.97027999999409,83.97152337498846,83.97910779199447,83.97910779199447,85.61120983299043,b,1.0,1.625427207996836,,,,,,,,,,,,,,,,,,,,,,,,,,,,,,,,,,,,,,,,sub-126,1,stroop_test,120.12348645797944,
test,red,r,1.0,2.0,2.0,0.0,r,1.0,0.9141822079982376,,,,,,,,,,,,,,,,,,0.0,2.0,2.0,0.0,,,,,,,,,85.62214983299782,,,,,,,,,,,,,,,,,85.61178279199521,85.71055616698868,86.50289304199396,86.49330716699478,86.49411008298921,86.50289304199396,86.50289304199396,87.42155545800051,r,1.0,0.9141822079982376,,,,,,,,,,,,,,,,,,,,,,,,,,,,,,,,,,,,,,,,sub-126,1,stroop_test,120.12348645797944,
test,blue,b,1.0,3.0,0.0,1.0,b,1.0,1.3228495410003234,,,,,,,,,,,,,,,,,,1.0,0.0,3.0,2.0,,,,,,,,,87.43184041698987,,,,,,,,,,,,,,,,,87.4221360419906,87.76967637499911,88.56177908300015,88.55358833298669,88.55438674999459,88.56177908300015,88.56177908300015,89.88813362499059,b,1.0,1.3228495410003234,,,,,,,,,,,,,,,,,,,,,,,,,,,,,,,,,,,,,,,,sub-126,1,stroop_test,120.12348645797944,
test,red,r,1.0,4.0,1.0,1.0,r,1.0,0.9871971670072526,,,,,,,,,,,,,,,,,,1.0,1.0,4.0,0.0,,,,,,,,,89.89779533298861,,,,,,,,,,,,,,,,,89.88870383299945,89.98686558299232,90.77893983299144,90.77047641699028,90.7713050829916,90.77893983299144,90.77893983299144,91.77196408298914,r,1.0,0.9871971670072526,,,,,,,,,,,,,,,,,,,,,,,,,,,,,,,,,,,,,,,,sub-126,1,stroop_test,120.12348645797944,
test,yellow,g,1.0,5.0,2.0,1.0,g,1.0,0.563049582997337,,,,,,,,,,,,,,,,,,1.0,2.0,5.0,1.0,,,,,,,,,91.78231595800024,,,,,,,,,,,,,,,,,91.77257783299136,92.96977354199043,93.76275366698974,93.75392237499182,93.7548598329886,93.76275366698974,93.76275366698974,94.32797304198904,g,1.0,0.563049582997337,,,,,,,,,,,,,,,,,,,,,,,,,,,,,,,,,,,,,,,,sub-126,1,stroop_test,120.12348645797944,
test,red,r,1.0,6.0,0.0,2.0,r,1.0,1.3819092500052648,,,,,,,,,,,,,,,,,,2.0,0.0,6.0,0.0,,,,,,,,,94.33709549999912,,,,,,,,,,,,,,,,,94.32853766699554,94.67750016698848,95.4795295829972,95.47043524999754,95.47139116699692,95.4795295829972,95.4795295829972,96.87139245799337,r,1.0,1.3819092500052648,,,,,,,,,,,,,,,,,,,,,,,,,,,,,,,,,,,,,,,,sub-126,1,stroop_test,120.12348645797944,
test,yellow,g,1.0,7.0,1.0,2.0,g,1.0,1.0510190409986535,,,,,,,,,,,,,,,,,,2.0,1.0,7.0,1.0,,,,,,,,,96.88065883298988,,,,,,,,,,,,,,,,,96.8719124999916,97.22004499999456,98.01217666699084,98.0037374169915,98.00452262499311,98.01217666699084,98.01217666699084,99.0721297919954,g,1.0,1.0510190409986535,,,,,,,,,,,,,,,,,,,,,,,,,,,,,,,,,,,,,,,,sub-126,1,stroop_test,120.12348645797944,
test,blue,b,1.0,8.0,2.0,2.0,b,1.0,0.7173342080059228,,,,,,,,,,,,,,,,,,2.0,2.0,8.0,2.0,,,,,,,,,99.08188366699324,,,,,,,,,,,,,,,,,99.07277808299114,100.27032308299384,101.06252645798668,101.05404254198947,101.05497916699096,101.06252645798668,101.06252645798668,101.7889236669871,b,1.0,0.7173342080059228,,,,,,,,,,,,,,,,,,,,,,,,,,,,,,,,,,,,,,,,sub-126,1,stroop_test,120.12348645797944,
test,blue,b,1.0,9.0,0.0,3.0,b,1.0,1.4333610419998877,,,,,,,,,,,,,,,,,,3.0,0.0,9.0,2.0,,,,,,,,,101.80019529198762,,,,,,,,,,,,,,,,,101.78961570799584,101.8869934999966,102.67909145799058,102.67059770799824,102.67137395798636,102.67909145799058,102.67909145799058,104.12186604199816,b,1.0,1.4333610419998877,,,,,,,,,,,,,,,,,,,,,,,,,,,,,,,,,,,,,,,,sub-126,1,stroop_test,120.12348645797944,
test,red,r,1.0,10.0,1.0,3.0,r,1.0,0.8223817079997389,,,,,,,,,,,,,,,,,,3.0,1.0,10.0,0.0,,,,,,,,,104.13252145799925,,,,,,,,,,,,,,,,,104.12244262499736,104.47042133299692,105.26257483298832,105.25392583299254,105.25485612500052,105.26257483298832,105.26257483298832,106.0883402920008,r,1.0,0.8223817079997389,,,,,,,,,,,,,,,,,,,,,,,,,,,,,,,,,,,,,,,,sub-126,1,stroop_test,120.12348645797944,
test,yellow,g,1.0,11.0,2.0,3.0,g,1.0,0.8010547500016401,,,,,,,,,,,,,,,,,,3.0,2.0,11.0,1.0,,,,,,,,,106.09828537498834,,,,,,,,,,,,,,,,,106.08890233299462,107.27724804199534,108.06988249999996,108.06057045799388,108.06142808299046,108.06988249999996,108.06988249999996,108.877680916994,g,1.0,0.8010547500016401,,,,,,,,,,,,,,,,,,,,,,,,,,,,,,,,,,,,,,,,sub-126,1,stroop_test,120.12348645797944,
,,,,,,,,,,,,,,,,,,,,,,,,,,,,,,,,,,,,,,,,,,,,,,,,,,,,,,,,,,,,,,,,,,,,108.87795533299504,108.8891066669894,108.8891066669894,115.65529020800022,space,6.76175241699093,,,,,,,,,,,,,,,,,,,,,,,,,,,,,,,,,sub-126,1,stroop_test,120.12348645797944,
,,,,0.0,0.0,0.0,,,,,blau,blue,b,1.0,b,1.0,0.9661988330044552,,,,,,,,,,,,,,0.0,0.0,0.0,6.0,,,,,115.67944991699189,,,,,,,,,,,,,,,,,115.67094741699113,116.003801999992,116.80322487499508,116.78752070799236,,,,,,,,,,,,,,,,116.79594095799256,116.80322487499508,116.80322487499508,117.772019541997,b,1.0,0.9661988330044552,,117.78089795800042,117.79118641698732,118.77643633299158,,,,,,,,,,,,,,,,,,,,,sub-126,1,stroop_test,120.12348645797944,
,,,,1.0,1.0,0.0,,,,,blau,blue,b,1.0,b,1.0,0.784635874995729,,,,,,,,,,,,,,0.0,1.0,1.0,5.0,,,,,118.78716791699117,,,,,,,,,,,,,,,,,118.77701212499232,118.87014904199168,119.66246795799816,119.65420462499604,,,,,,,,,,,,,,,,119.65497158298967,119.66246795799816,119.66246795799816,120.4551638749981,b,1.0,0.784635874995729,,120.45592616699288,120.46659862498927,121.45437408299767,121.46034987499296,,,,,,,,,,,,,,,,,,,,sub-126,1,stroop_test,120.12348645797944,
,,,,2.0,2.0,0.0,,,,,gelb,yellow,g,1.0,g,1.0,0.7041385409975192,,,,,,,,,,,,,,0.0,2.0,2.0,10.0,,,,,121.46034987499296,,,,,,,,,,,,,,,,,121.45505616698938,122.65396691698696,123.44954570799018,123.43756808299804,,,,,,,,,,,,,,,,123.44190770799467,123.44954570799018,123.44954570799018,124.15571370799444,g,1.0,0.7041385409975192,,124.15654462498787,124.16807191699628,125.15442816699216,125.16076074999,,,,,,,,,,,,,,,,,,,,sub-126,1,stroop_test,120.12348645797944,
,,,,3.0,3.0,0.0,,,,,rot,yellow,g,0.0,r,0.0,0.9518668329983484,,,,,,,,,,,,,,0.0,3.0,3.0,3.0,,,,,125.16076074999,,,,,,,,,,,,,,,,,125.15507320799225,125.95364020799752,126.75055237500057,126.7376427079871,,,,,,,,,,,,,,,,126.74333074998869,126.75055237500057,126.75055237500057,127.70525649999036,r,0.0,0.9518668329983484,,127.71151970799838,127.72170733299572,128.70951070799492,,,,,,,,,,,,,,,,,,,,,sub-126,1,stroop_test,120.12348645797944,
,,,,4.0,4.0,0.0,,,,,rot,red,r,1.0,r,1.0,0.7827994999970542,,,,,,,,,,,,,,0.0,4.0,4.0,1.0,,,,,128.7206688749866,,,,,,,,,,,,,,,,,128.71010720799677,128.8037493749871,129.59589929199137,129.58767095798976,,,,,,,,,,,,,,,,129.58845320799446,129.59589929199137,129.59589929199137,130.38867012498667,r,1.0,0.7827994999970542,,130.3943151669955,130.40480074999505,131.38768658299523,131.39328512499924,,,,,,,,,,,,,,,,,,,,sub-126,1,stroop_test,120.12348645797944,
,,,,5.0,5.0,0.0,,,,,rot,red,r,1.0,r,1.0,1.1072618330072146,,,,,,,,,,,,,,0.0,5.0,5.0,0.0,,,,,131.39328512499924,,,,,,,,,,,,,,,,,131.388223499991,132.58691404199635,133.37979583299602,133.3708778750006,,,,,,,,,,,,,,,,133.37184366698784,133.37979583299602,133.37979583299602,134.48873754199303,r,1.0,1.1072618330072146,,134.48960779199842,134.50038949999723,135.48789645799843,135.49417099999846,,,,,,,,,,,,,,,,,,,,sub-126,1,stroop_test,120.12348645797944,
,,,,6.0,6.0,0.0,,,,,gelb,blue,b,0.0,b,1.0,1.597670625007595,,,,,,,,,,,,,,0.0,6.0,6.0,9.0,,,,,135.49417099999846,,,,,,,,,,,,,,,,,135.48854737498914,136.68750099999306,137.48304545799328,137.47109099999943,,,,,,,,,,,,,,,,137.47564279199287,137.48304545799328,137.48304545799328,139.08896120799182,b,1.0,1.597670625007595,,139.0897568329965,139.10094766700058,140.08777787500003,140.09370191699418,,,,,,,,,,,,,,,,,,,,sub-126,1,stroop_test,120.12348645797944,
,,,,7.0,7.0,0.0,,,,,gelb,red,r,0.0,r,1.0,1.6314876249962251,,,,,,,,,,,,,,0.0,7.0,7.0,8.0,,,,,140.09370191699418,,,,,,,,,,,,,,,,,140.08833579199563,141.28727362499922,142.07869608298645,142.07092016699607,,,,,,,,,,,,,,,,142.07160966699303,142.07869608298645,142.07869608298645,143.72216370799288,r,1.0,1.6314876249962251,,143.7229121249984,143.73336583298806,144.72104433299685,144.72699858299163,,,,,,,,,,,,,,,,,,,,sub-126,1,stroop_test,120.12348645797944,
,,,,8.0,8.0,0.0,,,,,blau,yellow,g,0.0,r,0.0,1.309012375000748,,,,,,,,,,,,,,0.0,8.0,8.0,7.0,,,,,144.72699858299163,,,,,,,,,,,,,,,,,144.72158504198887,144.82082237499708,145.61702704199706,145.60462820799148,,,,,,,,,,,,,,,,145.60945412499132,145.61702704199706,145.61702704199706,146.9284185419965,r,0.0,1.309012375000748,,146.93324945798668,146.94285129199852,147.9273904169968,147.93759599998884,,,,,,,,,,,,,,,,,,,,sub-126,1,stroop_test,120.12348645797944,
,,,,9.0,9.0,0.0,,,,,gelb,yellow,g,1.0,g,1.0,0.9672778329986612,,,,,,,,,,,,,,0.0,9.0,9.0,11.0,,,,,147.93759599998884,,,,,,,,,,,,,,,,,147.92794566699013,148.27821087499615,149.08322466698883,149.0712841669883,,,,,,,,,,,,,,,,149.07554137498664,149.08322466698883,149.08322466698883,150.05634208300037,g,1.0,0.9672778329986612,,150.061619916989,150.07173712499207,151.0547375419992,151.06098545799614,,,,,,,,,,,,,,,,,,,,sub-126,1,stroop_test,120.12348645797944,
,,,,10.0,10.0,0.0,,,,,rot,blue,b,0.0,b,1.0,1.350340083008632,,,,,,,,,,,,,,0.0,10.0,10.0,2.0,,,,,151.06098545799614,,,,,,,,,,,,,,,,,151.0553923749976,151.40399237499514,152.20064766699215,152.1880796669866,,,,,,,,,,,,,,,,152.1929655829881,152.20064766699215,152.20064766699215,153.55608529198798,b,1.0,1.350340083008632,,153.55691358298645,153.5677836669929,154.55446170798675,154.56001649999234,,,,,,,,,,,,,,,,,,,,sub-126,1,stroop_test,120.12348645797944,
,,,,11.0,11.0,0.0,,,,,blau,red,r,0.0,r,1.0,1.1232872079999652,,,,,,,,,,,,,,0.0,11.0,11.0,4.0,,,,,154.56001649999234,,,,,,,,,,,,,,,,,154.55502174999856,155.3544372079923,156.1486680419912,156.13762337499065,,,,,,,,,,,,,,,,156.1419655419886,156.1486680419912,156.1486680419912,157.27812424999138,r,1.0,1.1232872079999652,,157.27875620799023,157.3040187919978,158.28779108299932,,,,,,,,,,,,,,,,,,,,,sub-126,1,stroop_test,120.12348645797944,
,,,,12.0,0.0,1.0,,,,,gelb,red,r,0.0,r,1.0,0.7066554579942022,,,,,,,,,,,,,,1.0,0.0,12.0,8.0,,,,,158.2937736249878,,,,,,,,,,,,,,,,,158.28849887498654,158.6285696249979,159.43348366698774,159.42132112498803,,,,,,,,,,,,,,,,159.42575808298716,159.43348366698774,159.43348366698774,160.1454198749998,r,1.0,0.7066554579942022,,160.14612133298942,160.15689166699303,161.14352962499834,161.15443029199378,,,,,,,,,,,,,,,,,,,,sub-126,1,stroop_test,120.12348645797944,
,,,,13.0,1.0,1.0,,,,,rot,blue,b,0.0,b,1.0,0.6807152910041623,,,,,,,,,,,,,,1.0,1.0,13.0,2.0,,,,,161.15443029199378,,,,,,,,,,,,,,,,,161.14402779199008,162.3452815419878,163.14984062498843,163.13813470798777,,,,,,,,,,,,,,,,163.1422644169943,163.14984062498843,163.14984062498843,163.8393664999894,b,1.0,0.6807152910041623,,163.84016787499422,163.8512556249916,164.83827916698647,164.84426229199744,,,,,,,,,,,,,,,,,,,,sub-126,1,stroop_test,120.12348645797944,
,,,,14.0,2.0,1.0,,,,,gelb,blue,b,0.0,b,1.0,0.6633837499975925,,,,,,,,,,,,,,1.0,2.0,14.0,9.0,,,,,164.84426229199744,,,,,,,,,,,,,,,,,164.83894337499805,165.63784974999726,166.43342199998733,166.42157224999391,,,,,,,,,,,,,,,,166.42635945799702,166.43342199998733,166.43342199998733,167.1062180000008,b,1.0,0.6633837499975925,,167.1070447499951,167.1181297919975,168.10469154198654,168.11069724999834,,,,,,,,,,,,,,,,,,,,sub-126,1,stroop_test,120.12348645797944,
,,,,15.0,3.0,1.0,,,,,blau,yellow,g,0.0,g,1.0,0.6480279579991475,,,,,,,,,,,,,,1.0,3.0,15.0,7.0,,,,,168.11069724999834,,,,,,,,,,,,,,,,,168.10525358299492,169.30427695799153,170.10065120799118,170.08822766698722,,,,,,,,,,,,,,,,170.09329945799254,170.10065120799118,170.10065120799118,170.75607687499723,g,1.0,0.6480279579991475,,170.75690137498896,170.76801762499963,171.75499216699973,171.76088658299705,,,,,,,,,,,,,,,,,,,,sub-126,1,stroop_test,120.12348645797944,
,,,,16.0,4.0,1.0,,,,,blau,blue,b,1.0,b,1.0,1.5791614159970777,,,,,,,,,,,,,,1.0,4.0,16.0,6.0,,,,,171.76088658299705,,,,,,,,,,,,,,,,,171.75553333299467,172.1041842919949,172.89646899999934,172.8882246669964,,,,,,,,,,,,,,,,172.88905954199436,172.89646899999934,172.89646899999934,174.47898108299705,b,1.0,1.5791614159970777,,174.47985725000035,174.4920632919966,175.47794937499566,175.48792970798968,,,,,,,,,,,,,,,,,,,,sub-126,1,stroop_test,120.12348645797944,
,,,,17.0,5.0,1.0,,,,,blau,blue,b,1.0,b,1.0,0.6039089580008294,,,,,,,,,,,,,,1.0,5.0,17.0,5.0,,,,,175.48792970798968,,,,,,,,,,,,,,,,,175.47858574999557,175.82881495798938,176.63048666699615,176.62183820799692,,,,,,,,,,,,,,,,176.62281466698914,176.63048666699615,176.63048666699615,177.2396604999958,b,1.0,0.6039089580008294,,177.24051620799582,177.25133108299633,178.2384802919987,178.24447504199634,,,,,,,,,,,,,,,,,,,,sub-126,1,stroop_test,120.12348645797944,
,,,,18.0,6.0,1.0,,,,,rot,red,r,1.0,r,1.0,0.6730347499978961,,,,,,,,,,,,,,1.0,6.0,18.0,0.0,,,,,178.24447504199634,,,,,,,,,,,,,,,,,178.23913391699898,178.33811074998812,179.13406870799372,179.121743124997,,,,,,,,,,,,,,,,179.12674708299164,179.13406870799372,179.13406870799372,179.81245424998633,r,1.0,0.6730347499978961,,179.81324720798875,179.82364145798783,180.81116974999892,180.821261582998,,,,,,,,,,,,,,,,,,,,sub-126,1,stroop_test,120.12348645797944,
,,,,19.0,7.0,1.0,,,,,blau,red,r,0.0,r,1.0,0.943150457998854,,,,,,,,,,,,,,1.0,7.0,19.0,4.0,,,,,180.821261582998,,,,,,,,,,,,,,,,,180.81174012499105,182.01190483299436,182.8184845829965,182.80518570799904,,,,,,,,,,,,,,,,182.81088458299928,182.8184845829965,182.8184845829965,183.7729614169948,r,1.0,0.943150457998854,,183.7738672079868,183.78486749999863,184.77179808299115,184.77769729199645,,,,,,,,,,,,,,,,,,,,sub-126,1,stroop_test,120.12348645797944,
,,,,20.0,8.0,1.0,,,,,rot,yellow,g,0.0,g,1.0,0.896337248996133,,,,,,,,,,,,,,1.0,8.0,20.0,3.0,,,,,184.77769729199645,,,,,,,,,,,,,,,,,184.7723552499956,185.12095779199444,185.9170468749944,185.90513070799352,,,,,,,,,,,,,,,,185.90931524999905,185.9170468749944,185.9170468749944,186.8230157499929,g,1.0,0.896337248996133,,186.8238236670004,186.8351977919956,187.82183783299115,187.82777333298876,,,,,,,,,,,,,,,,,,,,sub-126,1,stroop_test,120.12348645797944,
,,,,21.0,9.0,1.0,,,,,gelb,yellow,g,1.0,g,1.0,1.1007272489950992,,,,,,,,,,,,,,1.0,9.0,21.0,10.0,,,,,187.82777333298876,,,,,,,,,,,,,,,,,187.8223986249941,187.92107849998865,188.71719024999769,188.70514737498888,,,,,,,,,,,,,,,,188.70950399999856,188.71719024999769,188.71719024999769,189.8230728749913,g,1.0,1.1007272489950992,,189.82391674999965,189.8353249579959,190.82184854199292,190.82743379198652,,,,,,,,,,,,,,,,,,,,sub-126,1,stroop_test,120.12348645797944,
,,,,22.0,10.0,1.0,,,,,gelb,yellow,g,1.0,g,1.0,0.6131426659994759,,,,,,,,,,,,,,1.0,10.0,22.0,11.0,,,,,190.82743379198652,,,,,,,,,,,,,,,,,190.82242479200067,191.17101712498695,191.9644127079955,191.95533154199077,,,,,,,,,,,,,,,,191.95627479199905,191.9644127079955,191.9644127079955,192.57904833299108,g,1.0,0.6131426659994759,,192.5798504169943,192.5905011249997,193.57831362499564,193.5883007079974,,,,,,,,,,,,,,,,,,,,sub-126,1,stroop_test,120.12348645797944,
,,,,23.0,11.0,1.0,,,,,rot,red,r,1.0,r,1.0,0.5821098329906818,,,,,,,,,,,,,,1.0,11.0,23.0,1.0,,,,,193.5883007079974,,,,,,,,,,,,,,,,,193.57889924998744,193.9279854999913,194.73439920799865,194.72182274999795,,,,,,,,,,,,,,,,194.7268558749929,194.73439920799865,194.73439920799865,195.32319970800015,r,1.0,0.5821098329906818,,195.3238718329958,195.33419341698757,196.32194270798936,196.3300322919968,,,,,,,,,,,,,,,,,,,,sub-126,1,stroop_test,120.12348645797944,
,,,,,,,,,,,,,,,,,,,,,,,,,,,,,,,,,,,,,,,,,,,,,,,,,,,,,,,,,,,,,,,,,,,,,,,,,,,,,,,,,,,,,,,196.32217883299745,196.3300322919968,196.3300322919968,202.8897844999883,space,6.548675290992833,,,,,,,,,,,,,,sub-126,1,stroop_test,120.12348645797944,
,,,,0.0,0.0,0.0,,,,,,,,,,,,,rot,blue,b,0.0,b,1.0,0.905028166002012,,,,,,,,,,0.0,0.0,0.0,2.0,202.9150129169866,,,,,,,,,,,,,,,,,202.90675770799865,204.08837954199407,204.88416870799847,204.8720421249891,,,,,,,,,,,,,,,,,,,,,,,,,,,,,,,,,,,204.8763833749981,204.88416870799847,204.88416870799847,205.79595770798915,b,1.0,0.905028166002012,,,,,,sub-126,1,stroop_test,120.12348645797944,
,,,,1.0,1.0,0.0,,,,,,,,,,,,,gelb,red,r,0.0,r,1.0,0.8581968329963274,,,,,,,,,,0.0,1.0,1.0,8.0,205.8214197079942,,,,,,,,,,,,,,,,,205.79660324999716,205.8991638749867,206.7020040419884,206.6890220829955,,,,,,,,,,,,,,,,,,,,,,,,,,,,,,,,,,,206.69411699999185,206.7020040419884,206.7020040419884,207.5617225419992,r,1.0,0.8581968329963274,,,,,,sub-126,1,stroop_test,120.12348645797944,
,,,,2.0,2.0,0.0,,,,,,,,,,,,,gelb,yellow,g,1.0,g,1.0,0.98940274999768,,,,,,,,,,0.0,2.0,2.0,11.0,207.57084941699577,,,,,,,,,,,,,,,,,207.5623882499931,208.7550434579898,209.5472516669979,209.5390030829876,,,,,,,,,,,,,,,,,,,,,,,,,,,,,,,,,,,209.53979862498815,209.5472516669979,209.5472516669979,210.54018841699872,g,1.0,0.98940274999768,,,,,,sub-126,1,stroop_test,120.12348645797944,
,,,,3.0,3.0,0.0,,,,,,,,,,,,,rot,yellow,g,0.0,g,1.0,0.7289544999948703,,,,,,,,,,0.0,3.0,3.0,3.0,210.55161954199136,,,,,,,,,,,,,,,,,210.5408144169924,210.8883226249891,211.68524762499143,211.6722075419966,,,,,,,,,,,,,,,,,,,,,,,,,,,,,,,,,,,211.67733962499187,211.68524762499143,211.68524762499143,212.42342474999896,g,1.0,0.7289544999948703,,,,,,sub-126,1,stroop_test,120.12348645797944,
,,,,4.0,4.0,0.0,,,,,,,,,,,,,blau,red,r,0.0,r,1.0,0.7084581660019467,,,,,,,,,,0.0,4.0,4.0,4.0,212.43579595799383,,,,,,,,,,,,,,,,,212.4242157919944,212.52144233298893,213.31764354198825,213.3055022079934,,,,,,,,,,,,,,,,,,,,,,,,,,,,,,,,,,,213.30988983299176,213.31764354198825,213.31764354198825,214.029655041988,r,1.0,0.7084581660019467,,,,,,sub-126,1,stroop_test,120.12348645797944,
,,,,5.0,5.0,0.0,,,,,,,,,,,,,gelb,blue,b,0.0,b,1.0,0.7569748329988215,,,,,,,,,,0.0,5.0,5.0,9.0,214.0401927919884,,,,,,,,,,,,,,,,,214.0302795419993,214.37971216699225,215.1838334579952,215.17193874999063,,,,,,,,,,,,,,,,,,,,,,,,,,,,,,,,,,,215.17660129199797,215.1838334579952,215.1838334579952,215.94634954199137,b,1.0,0.7569748329988215,,,,,,sub-126,1,stroop_test,120.12348645797944,
,,,,6.0,6.0,0.0,,,,,,,,,,,,,rot,red,r,1.0,r,1.0,0.7329528330010362,,,,,,,,,,0.0,6.0,6.0,0.0,215.9715455419937,,,,,,,,,,,,,,,,,215.9469558749988,216.04606341698675,216.85049949999663,216.8386211670004,,,,,,,,,,,,,,,,,,,,,,,,,,,,,,,,,,,216.8433098749956,216.85049949999663,216.85049949999663,217.590307874998,r,1.0,0.7329528330010362,,,,,,sub-126,1,stroop_test,120.12348645797944,
,,,,7.0,7.0,0.0,,,,,,,,,,,,,rot,red,r,1.0,r,1.0,0.68358320799598,,,,,,,,,,0.0,7.0,7.0,1.0,217.59934137499656,,,,,,,,,,,,,,,,,217.59084345799056,217.68869008299956,218.48042241699292,218.4722037499887,,,,,,,,,,,,,,,,,,,,,,,,,,,,,,,,,,,218.47298016698915,218.48042241699292,218.48042241699292,219.17313908299548,r,1.0,0.68358320799598,,,,,,sub-126,1,stroop_test,120.12348645797944,
,,,,8.0,8.0,0.0,,,,,,,,,,,,,blau,yellow,g,0.0,g,1.0,0.6770850410102867,,,,,,,,,,0.0,8.0,8.0,7.0,219.18250724999237,,,,,,,,,,,,,,,,,219.1738014579896,219.52187599999888,220.32131079198732,220.30562104198907,,,,,,,,,,,,,,,,,,,,,,,,,,,,,,,,,,,220.3142150419881,220.32131079198732,220.32131079198732,221.00719504199515,g,1.0,0.6770850410102867,,,,,,sub-126,1,stroop_test,120.12348645797944,
,,,,9.0,9.0,0.0,,,,,,,,,,,,,blau,blue,b,1.0,b,1.0,0.992262457992183,,,,,,,,,,0.0,9.0,9.0,6.0,221.01868012499472,,,,,,,,,,,,,,,,,221.00799204199572,221.35499324998815,222.1476532079978,222.1389955829945,,,,,,,,,,,,,,,,,,,,,,,,,,,,,,,,,,,222.13994066699524,222.1476532079978,222.1476532079978,223.1464524579933,b,1.0,0.992262457992183,,,,,,sub-126,1,stroop_test,120.12348645797944,
,,,,10.0,10.0,0.0,,,,,,,,,,,,,blau,blue,b,1.0,b,1.0,0.7719416250038194,,,,,,,,,,0.0,10.0,10.0,5.0,223.171659707994,,,,,,,,,,,,,,,,,223.1470417079981,223.24553804199968,224.0477007499867,224.0389459579892,,,,,,,,,,,,,,,,,,,,,,,,,,,,,,,,,,,224.03977904199564,224.0477007499867,224.0477007499867,224.8237626249902,b,1.0,0.7719416250038194,,,,,,sub-126,1,stroop_test,120.12348645797944,
,,,,11.0,11.0,0.0,,,,,,,,,,,,,gelb,yellow,g,1.0,g,1.0,0.6460389160056366,,,,,,,,,,0.0,11.0,11.0,10.0,224.83455716699245,,,,,,,,,,,,,,,,,224.8245546249964,226.02205204199709,226.81831749998676,226.8057501669973,,,,,,,,,,,,,,,,,,,,,,,,,,,,,,,,,,,226.8104991250002,226.81831749998676,226.81831749998676,227.4737157079944,g,1.0,0.6460389160056366,,,,,,sub-126,1,stroop_test,120.12348645797944,
,,,,12.0,0.0,1.0,,,,,,,,,,,,,gelb,red,r,0.0,r,1.0,0.5966552909958409,,,,,,,,,,1.0,0.0,12.0,8.0,227.48443425000005,,,,,,,,,,,,,,,,,227.47450529198977,227.57200579199707,228.36458962499452,228.35578495799564,,,,,,,,,,,,,,,,,,,,,,,,,,,,,,,,,,,228.3567538749921,228.36458962499452,228.36458962499452,228.96340545799467,r,1.0,0.5966552909958409,,,,,,sub-126,1,stroop_test,120.12348645797944,
,,,,13.0,1.0,1.0,,,,,,,,,,,,,rot,blue,b,0.0,b,1.0,0.6350552079966292,,,,,,,,,,1.0,1.0,13.0,2.0,228.97375112499867,,,,,,,,,,,,,,,,,228.96408512500057,229.06302616698667,229.8684288749937,229.8558421669877,,,,,,,,,,,,,,,,,,,,,,,,,,,,,,,,,,,229.86060570798875,229.8684288749937,229.8684288749937,230.50688020799132,b,1.0,0.6350552079966292,,,,,,sub-126,1,stroop_test,120.12348645797944,
,,,,14.0,2.0,1.0,,,,,,,,,,,,,rot,red,r,1.0,r,1.0,0.8799132499989355,,,,,,,,,,1.0,2.0,14.0,0.0,230.51779904199063,,,,,,,,,,,,,,,,,230.5076836669905,230.6054982499918,231.3981271669909,231.38910683299764,,,,,,,,,,,,,,,,,,,,,,,,,,,,,,,,,,,231.3900908749929,231.3981271669909,231.3981271669909,232.2901944579935,r,1.0,0.8799132499989355,,,,,,sub-126,1,stroop_test,120.12348645797944,
,,,,15.0,3.0,1.0,,,,,,,,,,,,,blau,red,r,0.0,r,1.0,0.6952273740025703,,,,,,,,,,1.0,3.0,15.0,4.0,232.3009001249884,,,,,,,,,,,,,,,,,232.2908464999928,232.6383588329918,233.43406587500067,233.42240891698748,,,,,,,,,,,,,,,,,,,,,,,,,,,,,,,,,,,233.42696937499568,233.43406587500067,233.43406587500067,234.140235999992,r,1.0,0.6952273740025703,,,,,,sub-126,1,stroop_test,120.12348645797944,
,,,,16.0,4.0,1.0,,,,,,,,,,,,,blau,blue,b,1.0,b,1.0,0.5399301659927005,,,,,,,,,,1.0,4.0,16.0,5.0,234.15078612499929,,,,,,,,,,,,,,,,,234.1408890419989,234.4884683329874,235.28048129199303,235.27225037499736,,,,,,,,,,,,,,,,,,,,,,,,,,,,,,,,,,,235.27303995798863,235.28048129199303,235.28048129199303,235.8235899579886,b,1.0,0.5399301659927005,,,,,,sub-126,1,stroop_test,120.12348645797944,
,,,,17.0,5.0,1.0,,,,,,,,,,,,,gelb,yellow,g,1.0,g,1.0,0.4566194990038639,,,,,,,,,,1.0,5.0,17.0,10.0,235.8345701669896,,,,,,,,,,,,,,,,,235.82425966698796,237.02176499999769,237.81790087498663,237.80573429199285,,,,,,,,,,,,,,,,,,,,,,,,,,,,,,,,,,,237.81067404198984,237.81790087498663,237.81790087498663,238.27959920799185,g,1.0,0.4566194990038639,,,,,,sub-126,1,stroop_test,120.12348645797944,
,,,,18.0,6.0,1.0,,,,,,,,,,,,,blau,yellow,g,0.0,g,1.0,0.6615444580093026,,,,,,,,,,1.0,6.0,18.0,7.0,238.30541733298745,,,,,,,,,,,,,,,,,238.28016091699828,239.07967420799832,239.87460724999252,239.8624257919873,,,,,,,,,,,,,,,,,,,,,,,,,,,,,,,,,,,239.8674054169969,239.87460724999252,239.87460724999252,240.54035512499104,g,1.0,0.6615444580093026,,,,,,sub-126,1,stroop_test,120.12348645797944,
,,,,19.0,7.0,1.0,,,,,,,,,,,,,blau,blue,b,1.0,b,1.0,0.8582018750021234,,,,,,,,,,1.0,7.0,19.0,6.0,240.55037224999975,,,,,,,,,,,,,,,,,240.54106237499215,240.6388562919892,241.4307983329927,241.42250966699797,,,,,,,,,,,,,,,,,,,,,,,,,,,,,,,,,,,241.42331554199336,241.4307983329927,241.4307983329927,242.29641466699832,b,1.0,0.8582018750021234,,,,,,sub-126,1,stroop_test,120.12348645797944,
,,,,20.0,8.0,1.0,,,,,,,,,,,,,gelb,blue,b,0.0,b,1.0,0.7776039159944048,,,,,,,,,,1.0,8.0,20.0,9.0,242.3057385419961,,,,,,,,,,,,,,,,,242.2970796669979,243.4961803329934,244.302400332992,244.28921858299876,,,,,,,,,,,,,,,,,,,,,,,,,,,,,,,,,,,244.2952970419865,244.302400332992,244.302400332992,245.09054883298813,b,1.0,0.7776039159944048,,,,,,sub-126,1,stroop_test,120.12348645797944,
,,,,21.0,9.0,1.0,,,,,,,,,,,,,gelb,yellow,g,1.0,g,1.0,0.9053574999998092,,,,,,,,,,1.0,9.0,21.0,11.0,245.100870957991,,,,,,,,,,,,,,,,,245.09118033299453,245.8885750419868,246.67936162499245,246.67192162499123,,,,,,,,,,,,,,,,,,,,,,,,,,,,,,,,,,,246.67276074999245,246.67936162499245,246.67936162499245,247.5911067499983,g,1.0,0.9053574999998092,,,,,,sub-126,1,stroop_test,120.12348645797944,
,,,,22.0,10.0,1.0,,,,,,,,,,,,,rot,red,r,1.0,r,1.0,0.6315378739964217,,,,,,,,,,1.0,10.0,22.0,1.0,247.60297058300057,,,,,,,,,,,,,,,,,247.5918343749945,247.9387909169891,248.735338582992,248.72262945798863,,,,,,,,,,,,,,,,,,,,,,,,,,,,,,,,,,,248.7276388749888,248.735338582992,248.735338582992,249.37379112499184,r,1.0,0.6315378739964217,,,,,,sub-126,1,stroop_test,120.12348645797944,
,,,,23.0,11.0,1.0,,,,,,,,,,,,,rot,yellow,g,0.0,g,1.0,1.296325750008691,,,,,,,,,,1.0,11.0,23.0,3.0,249.3844530419883,,,,,,,,,,,,,,,,,249.37441983299504,249.72233599999163,250.51383237499977,250.5058863749873,,,,,,,,,,,,,,,,,,,,,,,,,,,,,,,,,,,250.50657908299763,250.51383237499977,250.51383237499977,251.8127942919964,g,1.0,1.296325750008691,,,,,,sub-126,1,stroop_test,120.12348645797944,
,,,,24.0,0.0,2.0,,,,,,,,,,,,,gelb,yellow,g,1.0,g,1.0,0.5984859579912154,,,,,,,,,,2.0,0.0,24.0,11.0,251.8226183749939,,,,,,,,,,,,,,,,,251.8134798749961,252.1633432499948,252.96868016698863,252.95594316699132,,,,,,,,,,,,,,,,,,,,,,,,,,,,,,,,,,,252.96116183299452,252.96868016698863,252.96868016698863,253.5740659999865,g,1.0,0.5984859579912154,,,,,,sub-126,1,stroop_test,120.12348645797944,
,,,,25.0,1.0,2.0,,,,,,,,,,,,,gelb,blue,b,0.0,b,1.0,0.6846200829895679,,,,,,,,,,2.0,1.0,25.0,9.0,253.5850716249988,,,,,,,,,,,,,,,,,253.5747172919946,254.37239795799545,255.16422512498684,255.15600254198944,,,,,,,,,,,,,,,,,,,,,,,,,,,,,,,,,,,255.1567739579914,255.16422512498684,255.16422512498684,255.8571627499914,b,1.0,0.6846200829895679,,,,,,sub-126,1,stroop_test,120.12348645797944,
,,,,26.0,2.0,2.0,,,,,,,,,,,,,rot,red,r,1.0,r,1.0,0.453718624994508,,,,,,,,,,2.0,2.0,26.0,0.0,255.86776233300043,,,,,,,,,,,,,,,,,255.85780366699328,255.9558705829986,256.7511086249869,256.7393715419894,,,,,,,,,,,,,,,,,,,,,,,,,,,,,,,,,,,256.7438226249942,256.7511086249869,256.7511086249869,257.20718991699687,r,1.0,0.453718624994508,,,,,,sub-126,1,stroop_test,120.12348645797944,
,,,,27.0,3.0,2.0,,,,,,,,,,,,,blau,blue,b,1.0,b,1.0,0.8486096670094412,,,,,,,,,,2.0,3.0,27.0,6.0,257.2173799999873,,,,,,,,,,,,,,,,,257.20781237499614,258.00573158299085,258.8009936249873,258.78946899999573,,,,,,,,,,,,,,,,,,,,,,,,,,,,,,,,,,,258.79399758299405,258.8009936249873,258.8009936249873,259.6572611249867,b,1.0,0.8486096670094412,,,,,,sub-126,1,stroop_test,120.12348645797944,
,,,,28.0,4.0,2.0,,,,,,,,,,,,,gelb,yellow,g,1.0,g,1.0,0.7915142080018995,,,,,,,,,,2.0,4.0,28.0,10.0,259.66798516699055,,,,,,,,,,,,,,,,,259.6579006249958,260.0057380419894,260.8016039999929,260.7894477919908,,,,,,,,,,,,,,,,,,,,,,,,,,,,,,,,,,,260.79382820799947,260.8016039999929,260.8016039999929,261.5970099169936,g,1.0,0.7915142080018995,,,,,,sub-126,1,stroop_test,120.12348645797944,
,,,,29.0,5.0,2.0,,,,,,,,,,,,,rot,red,r,1.0,r,1.0,0.4770036669942783,,,,,,,,,,2.0,5.0,29.0,1.0,261.622194999989,,,,,,,,,,,,,,,,,261.5976968749892,261.94660287498846,262.75214583298657,262.7394429579872,,,,,,,,,,,,,,,,,,,,,,,,,,,,,,,,,,,262.74486879199685,262.75214583298657,262.75214583298657,263.2407573749952,r,1.0,0.4770036669942783,,,,,,sub-126,1,stroop_test,120.12348645797944,
,,,,30.0,6.0,2.0,,,,,,,,,,,,,rot,yellow,g,0.0,g,1.0,0.6625254999962635,,,,,,,,,,2.0,6.0,30.0,3.0,263.2510858329915,,,,,,,,,,,,,,,,,263.24141287499515,263.3389984999958,264.1310505829897,264.1228587499936,,,,,,,,,,,,,,,,,,,,,,,,,,,,,,,,,,,264.1236580829864,264.1310505829897,264.1310505829897,264.7968070419884,g,1.0,0.6625254999962635,,,,,,sub-126,1,stroop_test,120.12348645797944,
,,,,31.0,7.0,2.0,,,,,,,,,,,,,gelb,red,r,0.0,r,1.0,0.6454283749917522,,,,,,,,,,2.0,7.0,31.0,8.0,264.807722832993,,,,,,,,,,,,,,,,,264.79745554199326,265.9968592919904,266.8013942499965,266.789488874987,,,,,,,,,,,,,,,,,,,,,,,,,,,,,,,,,,,266.7939586249995,266.8013942499965,266.8013942499965,267.45776983299584,r,1.0,0.6454283749917522,,,,,,sub-126,1,stroop_test,120.12348645797944,
,,,,32.0,8.0,2.0,,,,,,,,,,,,,blau,blue,b,1.0,b,1.0,0.5661626250075642,,,,,,,,,,2.0,8.0,32.0,5.0,267.46862220799085,,,,,,,,,,,,,,,,,267.4585419169889,267.5557906249888,268.349495167,268.33935341698816,,,,,,,,,,,,,,,,,,,,,,,,,,,,,,,,,,,268.342825957996,268.349495167,268.349495167,268.9238865829975,b,1.0,0.5661626250075642,,,,,,sub-126,1,stroop_test,120.12348645797944,
,,,,33.0,9.0,2.0,,,,,,,,,,,,,blau,yellow,g,0.0,g,1.0,0.6400927919894457,,,,,,,,,,2.0,9.0,33.0,7.0,268.9350689579878,,,,,,,,,,,,,,,,,268.9245447919966,270.12240100000054,270.91445283299254,270.90616812498774,,,,,,,,,,,,,,,,,,,,,,,,,,,,,,,,,,,270.9069845419872,270.91445283299254,270.91445283299254,271.55968112499977,g,1.0,0.6400927919894457,,,,,,sub-126,1,stroop_test,120.12348645797944,
,,,,34.0,10.0,2.0,,,,,,,,,,,,,rot,blue,b,0.0,b,1.0,1.0681484170054318,,,,,,,,,,2.0,10.0,34.0,2.0,271.5714855829865,,,,,,,,,,,,,,,,,271.56021804199554,271.9058795829915,272.7020830419933,272.6896626669913,,,,,,,,,,,,,,,,,,,,,,,,,,,,,,,,,,,272.6944307919912,272.7020830419933,272.7020830419933,273.77416108299803,b,1.0,1.0681484170054318,,,,,,sub-126,1,stroop_test,120.12348645797944,
,,,,35.0,11.0,2.0,,,,,,,,,,,,,blau,red,r,0.0,r,1.0,1.037520708006923,,,,,,,,,,2.0,11.0,35.0,4.0,273.7842007500003,,,,,,,,,,,,,,,,,273.774750749988,273.87257133299136,274.6683340419986,274.6563752499933,,,,,,,,,,,,,,,,,,,,,,,,,,,,,,,,,,,274.6608776249923,274.6683340419986,274.6683340419986,275.70762583299074,r,1.0,1.037520708006923,,,,,,sub-126,1,stroop_test,120.12348645797944,
,,,,36.0,0.0,3.0,,,,,,,,,,,,,rot,yellow,g,0.0,g,1.0,1.5390338329889346,,,,,,,,,,3.0,0.0,36.0,3.0,275.7191926249943,,,,,,,,,,,,,,,,,275.70839766699646,276.50596245798806,277.3017149579973,277.28963416699844,,,,,,,,,,,,,,,,,,,,,,,,,,,,,,,,,,,277.2942972079909,277.3017149579973,277.3017149579973,278.8469624999998,g,1.0,1.5390338329889346,,,,,,sub-126,1,stroop_test,120.12348645797944,
,,,,37.0,1.0,3.0,,,,,,,,,,,,,gelb,yellow,g,1.0,g,1.0,0.5999010829982581,,,,,,,,,,3.0,1.0,37.0,11.0,278.85799379200034,,,,,,,,,,,,,,,,,278.8476188749919,278.9465393329883,279.75262916699285,279.73967512499075,,,,,,,,,,,,,,,,,,,,,,,,,,,,,,,,,,,279.7453862919938,279.75262916699285,279.75262916699285,280.357677832988,g,1.0,0.5999010829982581,,,,,,sub-126,1,stroop_test,120.12348645797944,
,,,,38.0,2.0,3.0,,,,,,,,,,,,,gelb,yellow,g,1.0,g,1.0,0.7138627499953145,,,,,,,,,,3.0,2.0,38.0,10.0,280.36840904199926,,,,,,,,,,,,,,,,,280.3583125419973,280.7055691249989,281.4979669579916,281.4896738749958,,,,,,,,,,,,,,,,,,,,,,,,,,,,,,,,,,,281.4904815829941,281.4979669579916,281.4979669579916,282.2135881669965,g,1.0,0.7138627499953145,,,,,,sub-126,1,stroop_test,120.12348645797944,
,,,,39.0,3.0,3.0,,,,,,,,,,,,,blau,yellow,g,0.0,g,1.0,0.6676910829992266,,,,,,,,,,3.0,3.0,39.0,7.0,282.2392617919977,,,,,,,,,,,,,,,,,282.214254541992,283.41356058299425,284.21804841699486,284.20630749998963,,,,,,,,,,,,,,,,,,,,,,,,,,,,,,,,,,,284.21089749998646,284.21804841699486,284.21804841699486,284.8913370829978,g,1.0,0.6676910829992266,,,,,,sub-126,1,stroop_test,120.12348645797944,
,,,,40.0,4.0,3.0,,,,,,,,,,,,,gelb,red,r,0.0,r,1.0,0.5793317919888068,,,,,,,,,,3.0,4.0,40.0,8.0,284.901903082995,,,,,,,,,,,,,,,,,284.8921119999868,284.9894239169953,285.785084749994,285.77304795799137,,,,,,,,,,,,,,,,,,,,,,,,,,,,,,,,,,,285.7773796669935,285.785084749994,285.785084749994,286.3744445829944,r,1.0,0.5793317919888068,,,,,,sub-126,1,stroop_test,120.12348645797944,
,,,,41.0,5.0,3.0,,,,,,,,,,,,,gelb,blue,b,0.0,b,1.0,0.5012239159987075,,,,,,,,,,3.0,5.0,41.0,9.0,286.3851859999995,,,,,,,,,,,,,,,,,286.3751018329931,286.72300416699727,287.5155840829975,287.506499916999,,,,,,,,,,,,,,,,,,,,,,,,,,,,,,,,,,,287.5074061669875,287.5155840829975,287.5155840829975,288.02435549999063,b,1.0,0.5012239159987075,,,,,,sub-126,1,stroop_test,120.12348645797944,
,,,,42.0,6.0,3.0,,,,,,,,,,,,,rot,red,r,1.0,r,1.0,0.6502018740138737,,,,,,,,,,3.0,6.0,42.0,1.0,288.0349994169956,,,,,,,,,,,,,,,,,288.02500770799816,288.121905707987,288.91870987499715,288.9064599169942,,,,,,,,,,,,,,,,,,,,,,,,,,,,,,,,,,,288.910714749989,288.91870987499715,288.91870987499715,289.57422554199,r,1.0,0.6502018740138737,,,,,,sub-126,1,stroop_test,120.12348645797944,
,,,,43.0,7.0,3.0,,,,,,,,,,,,,blau,blue,b,1.0,b,1.0,0.7701330830022926,,,,,,,,,,3.0,7.0,43.0,5.0,289.58516037499066,,,,,,,,,,,,,,,,,289.57487754199246,289.92275462498947,290.7181770419993,290.7064842079999,,,,,,,,,,,,,,,,,,,,,,,,,,,,,,,,,,,290.7109117079963,290.7181770419993,290.7181770419993,291.4909680419951,b,1.0,0.7701330830022926,,,,,,sub-126,1,stroop_test,120.12348645797944,
,,,,44.0,8.0,3.0,,,,,,,,,,,,,blau,blue,b,1.0,b,1.0,0.5507168750045821,,,,,,,,,,3.0,8.0,44.0,6.0,291.5011639999866,,,,,,,,,,,,,,,,,291.4916249579983,291.83937383299053,292.63183591699635,292.6232852499961,,,,,,,,,,,,,,,,,,,,,,,,,,,,,,,,,,,292.62411712500034,292.63183591699635,292.63183591699635,293.1911762919917,b,1.0,0.5507168750045821,,,,,,sub-126,1,stroop_test,120.12348645797944,
,,,,45.0,9.0,3.0,,,,,,,,,,,,,blau,red,r,0.0,r,1.0,0.7034364580031252,,,,,,,,,,3.0,9.0,45.0,4.0,293.20135254198976,,,,,,,,,,,,,,,,,293.19182254199404,293.28962779199355,294.0816071249865,294.0733505829994,,,,,,,,,,,,,,,,,,,,,,,,,,,,,,,,,,,294.0741689169954,294.0816071249865,294.0816071249865,294.7914499999897,r,1.0,0.7034364580031252,,,,,,sub-126,1,stroop_test,120.12348645797944,
,,,,46.0,10.0,3.0,,,,,,,,,,,,,rot,blue,b,0.0,b,1.0,0.9535856659931596,,,,,,,,,,3.0,10.0,46.0,2.0,294.80272808299924,,,,,,,,,,,,,,,,,294.7922792919999,295.98954387499543,296.7856645419961,296.77314666699385,,,,,,,,,,,,,,,,,,,,,,,,,,,,,,,,,,,296.77813554198656,296.7856645419961,296.7856645419961,297.7409904169908,b,1.0,0.9535856659931596,,,,,,sub-126,1,stroop_test,120.12348645797944,
,,,,47.0,11.0,3.0,,,,,,,,,,,,,rot,red,r,1.0,r,1.0,0.6675146249908721,,,,,,,,,,3.0,11.0,47.0,0.0,297.751923082993,,,,,,,,,,,,,,,,,297.7416166669864,298.5395907499915,299.331428999998,299.3232227499975,,,,,,,,,,,,,,,,,,,,,,,,,,,,,,,,,,,299.32403849999537,299.331428999998,299.331428999998,300.0079300419893,r,1.0,0.6675146249908721,,,,,,sub-126,1,stroop_test,120.12348645797944,
,,,,48.0,0.0,4.0,,,,,,,,,,,,,rot,yellow,g,0.0,g,1.0,0.5467757500009611,,,,,,,,,,4.0,0.0,48.0,3.0,300.01880320798955,,,,,,,,,,,,,,,,,300.00858791699284,301.20628600000055,301.9987307499978,301.98992845798784,,,,,,,,,,,,,,,,,,,,,,,,,,,,,,,,,,,301.9907172499952,301.9987307499978,301.9987307499978,302.55774991698854,g,1.0,0.5467757500009611,,,,,,sub-126,1,stroop_test,120.12348645797944,
,,,,49.0,1.0,4.0,,,,,,,,,,,,,gelb,blue,b,0.0,b,1.0,2.421758665994276,,,,,,,,,,4.0,1.0,49.0,9.0,302.56695424999634,,,,,,,,,,,,,,,,,302.55831449999823,302.65579870798683,303.45315620799374,303.4399652919965,,,,,,,,,,,,,,,,,,,,,,,,,,,,,,,,,,,303.4462609579932,303.45315620799374,303.45315620799374,305.8810751669953,b,1.0,2.421758665994276,,,,,,sub-126,1,stroop_test,120.12348645797944,
,,,,50.0,2.0,4.0,,,,,,,,,,,,,gelb,yellow,g,1.0,g,1.0,0.7207653750083409,,,,,,,,,,4.0,2.0,50.0,11.0,305.89158670799225,,,,,,,,,,,,,,,,,305.8817232500005,306.68063741699734,307.48174429198843,307.47333033299947,,,,,,,,,,,,,,,,,,,,,,,,,,,,,,,,,,,307.47413995799434,307.48174429198843,307.48174429198843,308.2082750829868,g,1.0,0.7207653750083409,,,,,,sub-126,1,stroop_test,120.12348645797944,
,,,,51.0,3.0,4.0,,,,,,,,,,,,,rot,blue,b,0.0,b,1.0,0.9982460830069612,,,,,,,,,,4.0,3.0,51.0,2.0,308.2193281669897,,,,,,,,,,,,,,,,,308.20900812499167,309.40632383299817,310.2021837499924,310.1900737499964,,,,,,,,,,,,,,,,,,,,,,,,,,,,,,,,,,,310.19431241699203,310.2021837499924,310.2021837499924,311.2080681669904,b,1.0,0.9982460830069612,,,,,,sub-126,1,stroop_test,120.12348645797944,
,,,,52.0,4.0,4.0,,,,,,,,,,,,,blau,blue,b,1.0,b,1.0,0.6656980419938918,,,,,,,,,,4.0,4.0,52.0,5.0,311.218571874997,,,,,,,,,,,,,,,,,311.2086929999932,312.0058934999979,312.80278929199267,312.7902633329941,,,,,,,,,,,,,,,,,,,,,,,,,,,,,,,,,,,312.79508062498644,312.80278929199267,312.80278929199267,313.47494883299805,b,1.0,0.6656980419938918,,,,,,sub-126,1,stroop_test,120.12348645797944,
,,,,53.0,5.0,4.0,,,,,,,,,,,,,rot,red,r,1.0,r,1.0,0.3974337919935351,,,,,,,,,,4.0,5.0,53.0,0.0,313.4859098329907,,,,,,,,,,,,,,,,,313.47575033298926,314.6731675419869,315.4686392500007,315.4567810000008,,,,,,,,,,,,,,,,,,,,,,,,,,,,,,,,,,,315.46119745798933,315.4686392500007,315.4686392500007,315.87475491699297,r,1.0,0.3974337919935351,,,,,,sub-126,1,stroop_test,120.12348645797944,
,,,,54.0,6.0,4.0,,,,,,,,,,,,,blau,blue,b,1.0,b,1.0,0.7380715409963159,,,,,,,,,,4.0,6.0,54.0,6.0,315.88424241699977,,,,,,,,,,,,,,,,,315.87545149998914,315.97284674999537,316.76886195800034,316.7569175419921,,,,,,,,,,,,,,,,,,,,,,,,,,,,,,,,,,,316.7612282919872,316.76886195800034,316.76886195800034,317.5132621669909,b,1.0,0.7380715409963159,,,,,,sub-126,1,stroop_test,120.12348645797944,
,,,,55.0,7.0,4.0,,,,,,,,,,,,,rot,red,r,1.0,r,1.0,0.5888885419990402,,,,,,,,,,4.0,7.0,55.0,1.0,317.5224751249916,,,,,,,,,,,,,,,,,317.51395783299813,318.3065949169977,319.1024176249921,319.09027762500045,,,,,,,,,,,,,,,,,,,,,,,,,,,,,,,,,,,319.0946261249919,319.1024176249921,319.1024176249921,319.69737758299743,r,1.0,0.5888885419990402,,,,,,sub-126,1,stroop_test,120.12348645797944,
,,,,56.0,8.0,4.0,,,,,,,,,,,,,gelb,yellow,g,1.0,b,0.0,0.5693942910002079,,,,,,,,,,4.0,8.0,56.0,10.0,319.7058954999957,,,,,,,,,,,,,,,,,319.697886791997,320.89731479198963,321.70180454199726,321.6900860829919,,,,,,,,,,,,,,,,,,,,,,,,,,,,,,,,,,,321.69470024999464,321.70180454199726,321.70180454199726,322.2748379169934,b,0.0,0.5693942910002079,,,,,,sub-126,1,stroop_test,120.12348645797944,
,,,,57.0,9.0,4.0,,,,,,,,,,,,,blau,yellow,g,0.0,g,1.0,0.7222911249991739,,,,,,,,,,4.0,9.0,57.0,7.0,322.28480424999725,,,,,,,,,,,,,,,,,322.27544758300064,322.62331599999743,323.41943116699986,323.40701404199353,,,,,,,,,,,,,,,,,,,,,,,,,,,,,,,,,,,323.4122134579957,323.41943116699986,323.41943116699986,324.1470805419958,g,1.0,0.7222911249991739,,,,,,sub-126,1,stroop_test,120.12348645797944,
,,,,58.0,10.0,4.0,,,,,,,,,,,,,blau,red,r,0.0,r,1.0,0.5201253330014879,,,,,,,,,,4.0,10.0,58.0,4.0,324.15630262499326,,,,,,,,,,,,,,,,,324.14766674999555,324.94724833298824,325.7492463329981,325.74047595799493,,,,,,,,,,,,,,,,,,,,,,,,,,,,,,,,,,,325.74143949999416,325.7492463329981,325.7492463329981,326.2749153749901,r,1.0,0.5201253330014879,,,,,,sub-126,1,stroop_test,120.12348645797944,
,,,,59.0,11.0,4.0,,,,,,,,,,,,,gelb,red,r,0.0,g,0.0,1.096682791001513,,,,,,,,,,4.0,11.0,59.0,8.0,326.2848859579972,,,,,,,,,,,,,,,,,326.27557695799624,326.6231143329933,327.4190343329974,327.4070483749965,,,,,,,,,,,,,,,,,,,,,,,,,,,,,,,,,,,327.4115909169923,327.4190343329974,327.4190343329974,328.52533970799414,g,0.0,1.096682791001513,,,,,,sub-126,1,stroop_test,120.12348645797944,
,,,,60.0,0.0,5.0,,,,,,,,,,,,,gelb,blue,b,0.0,b,1.0,1.8678220409929052,,,,,,,,,,5.0,0.0,60.0,9.0,328.5361239999911,,,,,,,,,,,,,,,,,328.526084541998,329.32299079198856,330.116344457987,330.107429124997,,,,,,,,,,,,,,,,,,,,,,,,,,,,,,,,,,,330.10834745799366,330.116344457987,330.116344457987,331.99148583298665,b,1.0,1.8678220409929052,,,,,,sub-126,1,stroop_test,120.12348645797944,
,,,,61.0,1.0,5.0,,,,,,,,,,,,,rot,blue,b,0.0,b,1.0,1.0521082920022309,,,,,,,,,,5.0,1.0,61.0,2.0,332.0015145829966,,,,,,,,,,,,,,,,,331.99210754199885,332.3401867079956,333.1354865829926,333.123854541991,,,,,,,,,,,,,,,,,,,,,,,,,,,,,,,,,,,333.1280615829892,333.1354865829926,333.1354865829926,334.1916357919981,b,1.0,1.0521082920022309,,,,,,sub-126,1,stroop_test,120.12348645797944,
,,,,62.0,2.0,5.0,,,,,,,,,,,,,blau,blue,b,1.0,b,1.0,0.7029784159967676,,,,,,,,,,5.0,2.0,62.0,5.0,334.2017654169904,,,,,,,,,,,,,,,,,334.1922277079866,335.3901419999893,336.185461999994,336.1735912919976,,,,,,,,,,,,,,,,,,,,,,,,,,,,,,,,,,,336.1785209999944,336.185461999994,336.185461999994,336.8914704579947,b,1.0,0.7029784159967676,,,,,,sub-126,1,stroop_test,120.12348645797944,
,,,,63.0,3.0,5.0,,,,,,,,,,,,,blau,blue,b,1.0,b,1.0,0.6419872080005007,,,,,,,,,,5.0,3.0,63.0,6.0,336.9014889579994,,,,,,,,,,,,,,,,,336.8920766669908,337.2400846669916,338.0317421669897,338.0237153749913,,,,,,,,,,,,,,,,,,,,,,,,,,,,,,,,,,,338.02447974999086,338.0317421669897,338.0317421669897,338.68137566698715,b,1.0,0.6419872080005007,,,,,,sub-126,1,stroop_test,120.12348645797944,
,,,,64.0,4.0,5.0,,,,,,,,,,,,,rot,yellow,g,0.0,g,1.0,1.3733164169971133,,,,,,,,,,5.0,4.0,64.0,3.0,338.6923251669941,,,,,,,,,,,,,,,,,338.682143166996,339.88083920799545,340.6863809579954,340.6739752079884,,,,,,,,,,,,,,,,,,,,,,,,,,,,,,,,,,,340.67895037498965,340.6863809579954,340.6863809579954,342.0652463329898,g,1.0,1.3733164169971133,,,,,,sub-126,1,stroop_test,120.12348645797944,
,,,,65.0,5.0,5.0,,,,,,,,,,,,,gelb,red,r,0.0,r,1.0,1.0513101660035318,,,,,,,,,,5.0,5.0,65.0,8.0,342.0750887079921,,,,,,,,,,,,,,,,,342.065892374987,343.2642993749905,344.0692152079864,344.0572889169998,,,,,,,,,,,,,,,,,,,,,,,,,,,,,,,,,,,344.0615098329872,344.0692152079864,344.0692152079864,345.12513837499137,r,1.0,1.0513101660035318,,,,,,sub-126,1,stroop_test,120.12348645797944,
,,,,66.0,6.0,5.0,,,,,,,,,,,,,gelb,yellow,g,1.0,g,1.0,0.8072787080018315,,,,,,,,,,5.0,6.0,66.0,10.0,345.1357047079946,,,,,,,,,,,,,,,,,345.1257787079958,346.32359154199366,347.11516099999426,347.10699199998635,,,,,,,,,,,,,,,,,,,,,,,,,,,,,,,,,,,347.1077872919996,347.11516099999426,347.11516099999426,347.9251848749991,g,1.0,0.8072787080018315,,,,,,sub-126,1,stroop_test,120.12348645797944,
,,,,67.0,7.0,5.0,,,,,,,,,,,,,blau,red,r,0.0,r,1.0,0.7135199990007095,,,,,,,,,,5.0,7.0,67.0,4.0,347.93506887499825,,,,,,,,,,,,,,,,,347.925825082988,348.023398624995,348.81994266698894,348.8073136249877,,,,,,,,,,,,,,,,,,,,,,,,,,,,,,,,,,,348.81268795799406,348.81994266698894,348.81994266698894,349.5418908749998,r,1.0,0.7135199990007095,,,,,,sub-126,1,stroop_test,120.12348645797944,
,,,,68.0,8.0,5.0,,,,,,,,,,,,,gelb,yellow,g,1.0,g,1.0,0.7345123749983031,,,,,,,,,,5.0,8.0,68.0,11.0,349.55249079198984,,,,,,,,,,,,,,,,,349.542582582988,349.89063458298915,350.68664866698964,350.6741640830005,,,,,,,,,,,,,,,,,,,,,,,,,,,,,,,,,,,350.6789265829866,350.68664866698964,350.68664866698964,351.4250644579879,g,1.0,0.7345123749983031,,,,,,sub-126,1,stroop_test,120.12348645797944,
,,,,69.0,9.0,5.0,,,,,,,,,,,,,blau,yellow,g,0.0,g,1.0,2.3568985409947345,,,,,,,,,,5.0,9.0,69.0,7.0,351.43523149999965,,,,,,,,,,,,,,,,,351.4256967919937,352.223766916999,353.0192552499939,353.00737266699434,,,,,,,,,,,,,,,,,,,,,,,,,,,,,,,,,,,353.01188616699073,353.0192552499939,353.0192552499939,355.38080349999655,g,1.0,2.3568985409947345,,,,,,sub-126,1,stroop_test,120.12348645797944,
,,,,70.0,10.0,5.0,,,,,,,,,,,,,rot,red,r,1.0,r,1.0,0.6832229160063434,,,,,,,,,,5.0,10.0,70.0,1.0,355.39002395799616,,,,,,,,,,,,,,,,,355.3813879999944,356.5802207499946,357.3861058749899,357.37414479198924,,,,,,,,,,,,,,,,,,,,,,,,,,,,,,,,,,,357.3783737079939,357.3861058749899,357.3861058749899,358.07552845799364,r,1.0,0.6832229160063434,,,,,,sub-126,1,stroop_test,120.12348645797944,
,,,,71.0,11.0,5.0,,,,,,,,,,,,,rot,red,r,1.0,r,1.0,1.0569204579951474,,,,,,,,,,5.0,11.0,71.0,0.0,358.08754679199774,,,,,,,,,,,,,,,,,358.0762896669912,359.27342391699494,360.06567916698987,360.05728104199807,,,,,,,,,,,,,,,,,,,,,,,,,,,,,,,,,,,360.0580752919923,360.06567916698987,360.06567916698987,361.1253282079997,r,1.0,1.0569204579951474,,,,,,sub-126,1,stroop_test,120.12348645797944,
,,,,72.0,0.0,6.0,,,,,,,,,,,,,gelb,yellow,g,1.0,g,1.0,0.989139208002598,,,,,,,,,,6.0,0.0,72.0,11.0,361.13574304198846,,,,,,,,,,,,,,,,,361.1259640419885,361.2238694169937,362.0197486249963,362.007346207989,,,,,,,,,,,,,,,,,,,,,,,,,,,,,,,,,,,362.0119381669938,362.0197486249963,362.0197486249963,363.0145162919944,g,1.0,0.989139208002598,,,,,,sub-126,1,stroop_test,120.12348645797944,
,,,,73.0,1.0,6.0,,,,,,,,,,,,,gelb,blue,b,0.0,b,1.0,0.9908806659950642,,,,,,,,,,6.0,1.0,73.0,9.0,363.0241417919897,,,,,,,,,,,,,,,,,363.0151991249877,364.2145110829879,365.0160722500004,365.0075389999984,,,,,,,,,,,,,,,,,,,,,,,,,,,,,,,,,,,365.0083522079949,365.0160722500004,365.0160722500004,366.0087142079865,b,1.0,0.9908806659950642,,,,,,sub-126,1,stroop_test,120.12348645797944,
,,,,74.0,2.0,6.0,,,,,,,,,,,,,blau,blue,b,1.0,b,1.0,0.6875432079978054,,,,,,,,,,6.0,2.0,74.0,5.0,366.0195370000001,,,,,,,,,,,,,,,,,366.0095125829976,366.3568117079994,367.1528963749879,367.1407359579898,,,,,,,,,,,,,,,,,,,,,,,,,,,,,,,,,,,367.14574249999714,367.1528963749879,367.1528963749879,367.842512999996,b,1.0,0.6875432079978054,,,,,,sub-126,1,stroop_test,120.12348645797944,
,,,,75.0,3.0,6.0,,,,,,,,,,,,,blau,blue,b,1.0,b,1.0,0.5401547079964075,,,,,,,,,,6.0,3.0,75.0,6.0,367.8536185829871,,,,,,,,,,,,,,,,,367.8431735829945,368.1908396669896,368.9824220419978,368.9740867499932,,,,,,,,,,,,,,,,,,,,,,,,,,,,,,,,,,,368.9748905419983,368.9824220419978,368.9824220419978,369.5252519999922,b,1.0,0.5401547079964075,,,,,,sub-126,1,stroop_test,120.12348645797944,
,,,,76.0,4.0,6.0,,,,,,,,,,,,,gelb,yellow,g,1.0,g,1.0,1.6366763740079475,,,,,,,,,,6.0,4.0,76.0,10.0,369.53566441699513,,,,,,,,,,,,,,,,,369.5259277919977,370.3239814999979,371.1211773749965,371.1075907919876,,,,,,,,,,,,,,,,,,,,,,,,,,,,,,,,,,,371.1140891249961,371.1211773749965,371.1211773749965,372.76516020800045,g,1.0,1.6366763740079475,,,,,,sub-126,1,stroop_test,120.12348645797944,
,,,,77.0,5.0,6.0,,,,,,,,,,,,,gelb,red,r,0.0,r,1.0,0.8231934159994125,,,,,,,,,,6.0,5.0,77.0,8.0,372.7755795829871,,,,,,,,,,,,,,,,,372.765832124991,373.5646280829969,374.3571281249897,374.34774870799447,,,,,,,,,,,,,,,,,,,,,,,,,,,,,,,,,,,374.34848204199807,374.3571281249897,374.3571281249897,375.1921705829882,r,1.0,0.8231934159994125,,,,,,sub-126,1,stroop_test,120.12348645797944,
,,,,78.0,6.0,6.0,,,,,,,,,,,,,rot,red,r,1.0,r,1.0,0.526071166008478,,,,,,,,,,6.0,6.0,78.0,0.0,375.2018930419872,,,,,,,,,,,,,,,,,375.19286770799954,376.3911447499995,377.1863208329887,377.1742076669907,,,,,,,,,,,,,,,,,,,,,,,,,,,,,,,,,,,377.17888195799605,377.1863208329887,377.1863208329887,377.7154150419956,r,1.0,0.526071166008478,,,,,,sub-126,1,stroop_test,120.12348645797944,
,,,,79.0,7.0,6.0,,,,,,,,,,,,,rot,yellow,g,0.0,g,1.0,0.9836935409985016,,,,,,,,,,6.0,7.0,79.0,3.0,377.72596141698887,,,,,,,,,,,,,,,,,377.71604524999566,378.5149613329995,379.3159806669864,379.30774924998695,,,,,,,,,,,,,,,,,,,,,,,,,,,,,,,,,,,379.3085479579895,379.3159806669864,379.3159806669864,380.3092045419908,g,1.0,0.9836935409985016,,,,,,sub-126,1,stroop_test,120.12348645797944,
,,,,80.0,8.0,6.0,,,,,,,,,,,,,blau,red,r,0.0,r,1.0,1.1417598330008332,,,,,,,,,,6.0,8.0,80.0,4.0,380.32022412499646,,,,,,,,,,,,,,,,,380.31000841700006,380.6570366669912,381.4528266249981,381.4410968329903,,,,,,,,,,,,,,,,,,,,,,,,,,,,,,,,,,,381.44582524998987,381.4528266249981,381.4528266249981,382.5978449999966,r,1.0,1.1417598330008332,,,,,,sub-126,1,stroop_test,120.12348645797944,
,,,,81.0,9.0,6.0,,,,,,,,,,,,,rot,red,r,1.0,r,1.0,0.4808686250034952,,,,,,,,,,6.0,9.0,81.0,1.0,382.60709441699146,,,,,,,,,,,,,,,,,382.5984095829917,383.7985246249882,384.602871916999,384.5909606669884,,,,,,,,,,,,,,,,,,,,,,,,,,,,,,,,,,,384.59512474999065,384.602871916999,384.602871916999,385.0923456249875,r,1.0,0.4808686250034952,,,,,,sub-126,1,stroop_test,120.12348645797944,
,,,,82.0,10.0,6.0,,,,,,,,,,,,,rot,blue,b,0.0,b,1.0,0.8254891249962384,,,,,,,,,,6.0,10.0,82.0,2.0,385.1020835419913,,,,,,,,,,,,,,,,,385.092996249994,385.4403997079935,386.2321546249877,386.224507957988,,,,,,,,,,,,,,,,,,,,,,,,,,,,,,,,,,,386.2252927919908,386.2321546249877,386.2321546249877,387.059158582997,b,1.0,0.8254891249962384,,,,,,sub-126,1,stroop_test,120.12348645797944,
,,,,83.0,11.0,6.0,,,,,,,,,,,,,blau,yellow,g,0.0,g,1.0,0.4876540830009617,,,,,,,,,,6.0,11.0,83.0,7.0,387.0699360419967,,,,,,,,,,,,,,,,,387.0599125000008,387.157198749992,387.9527883329865,387.940938374988,,,,,,,,,,,,,,,,,,,,,,,,,,,,,,,,,,,387.9456976669899,387.9527883329865,387.9527883329865,388.4423627499928,g,1.0,0.4876540830009617,,,,,,sub-126,1,stroop_test,120.12348645797944,
,,,,84.0,0.0,7.0,,,,,,,,,,,,,rot,red,r,1.0,r,1.0,0.4918116659973748,,,,,,,,,,7.0,0.0,84.0,0.0,388.4532216669904,,,,,,,,,,,,,,,,,388.4430195419991,388.5405925829982,389.3362830829865,389.3243487500004,,,,,,,,,,,,,,,,,,,,,,,,,,,,,,,,,,,389.3290092499956,389.3362830829865,389.3362830829865,389.83201108299545,r,1.0,0.4918116659973748,,,,,,sub-126,1,stroop_test,120.12348645797944,
,,,,85.0,1.0,7.0,,,,,,,,,,,,,blau,red,r,0.0,r,1.0,0.5876700829976471,,,,,,,,,,7.0,1.0,85.0,4.0,389.8424762499926,,,,,,,,,,,,,,,,,389.8326509579929,389.93186154199066,390.7371812499914,390.7245370419987,,,,,,,,,,,,,,,,,,,,,,,,,,,,,,,,,,,390.7296264579927,390.7371812499914,390.7371812499914,391.3317036249937,r,1.0,0.5876700829976471,,,,,,sub-126,1,stroop_test,120.12348645797944,
,,,,86.0,2.0,7.0,,,,,,,,,,,,,blau,blue,b,1.0,b,1.0,0.4891591249906923,,,,,,,,,,7.0,2.0,86.0,5.0,391.3430057499936,,,,,,,,,,,,,,,,,391.3323635419947,392.1317687499977,392.93262854199565,392.9243711249874,,,,,,,,,,,,,,,,,,,,,,,,,,,,,,,,,,,392.92515216699394,392.93262854199565,392.93262854199565,393.42559999998775,b,1.0,0.4891591249906923,,,,,,sub-126,1,stroop_test,120.12348645797944,
,,,,87.0,3.0,7.0,,,,,,,,,,,,,blau,yellow,g,0.0,g,1.0,0.5967219580052188,,,,,,,,,,7.0,3.0,87.0,7.0,393.435272082992,,,,,,,,,,,,,,,,,393.42628983299073,394.62447233298735,395.4161902499909,395.4079867919936,,,,,,,,,,,,,,,,,,,,,,,,,,,,,,,,,,,395.4087709169981,395.4161902499909,395.4161902499909,396.0156620829948,g,1.0,0.5967219580052188,,,,,,sub-126,1,stroop_test,120.12348645797944,
,,,,88.0,4.0,7.0,,,,,,,,,,,,,gelb,yellow,g,1.0,g,1.0,0.4883032500074478,,,,,,,,,,7.0,4.0,88.0,10.0,396.0263418749964,,,,,,,,,,,,,,,,,396.0163254999934,397.2149534169876,398.0202314579946,398.0078459999932,,,,,,,,,,,,,,,,,,,,,,,,,,,,,,,,,,,398.0128813749907,398.0202314579946,398.0202314579946,398.5153353329952,g,1.0,0.4883032500074478,,,,,,sub-126,1,stroop_test,120.12348645797944,
,,,,89.0,5.0,7.0,,,,,,,,,,,,,rot,red,r,1.0,r,1.0,0.7604511660028948,,,,,,,,,,7.0,5.0,89.0,1.0,398.52632574999006,,,,,,,,,,,,,,,,,398.51596808299655,398.8641075829946,399.6598897919903,399.64770404199953,,,,,,,,,,,,,,,,,,,,,,,,,,,,,,,,,,,399.6522431669873,399.6598897919903,399.6598897919903,400.4258633329882,r,1.0,0.7604511660028948,,,,,,sub-126,1,stroop_test,120.12348645797944,
,,,,90.0,6.0,7.0,,,,,,,,,,,,,blau,blue,b,1.0,b,1.0,0.8767661250021774,,,,,,,,,,7.0,6.0,90.0,6.0,400.4364222919976,,,,,,,,,,,,,,,,,400.4264843749989,400.5244360829965,401.3200924579869,401.3080237079994,,,,,,,,,,,,,,,,,,,,,,,,,,,,,,,,,,,401.3123377499869,401.3200924579869,401.3200924579869,402.20919070798845,b,1.0,0.8767661250021774,,,,,,sub-126,1,stroop_test,120.12348645797944,
,,,,91.0,7.0,7.0,,,,,,,,,,,,,rot,yellow,g,0.0,g,1.0,2.1538971240079263,,,,,,,,,,7.0,7.0,91.0,3.0,402.21987358298793,,,,,,,,,,,,,,,,,402.2098387499864,402.5572058749967,403.354366457992,403.3414659999981,,,,,,,,,,,,,,,,,,,,,,,,,,,,,,,,,,,403.3466503749951,403.354366457992,403.354366457992,405.5155687919905,g,1.0,2.1538971240079263,,,,,,sub-126,1,stroop_test,120.12348645797944,
,,,,92.0,8.0,7.0,,,,,,,,,,,,,gelb,red,r,0.0,r,1.0,0.6223840000020573,,,,,,,,,,7.0,8.0,92.0,8.0,405.5408080419875,,,,,,,,,,,,,,,,,405.5162927499914,406.3142092079943,407.1094546249951,407.0979717499868,,,,,,,,,,,,,,,,,,,,,,,,,,,,,,,,,,,407.102340707992,407.1094546249951,407.1094546249951,407.7425675829873,r,1.0,0.6223840000020573,,,,,,sub-126,1,stroop_test,120.12348645797944,
,,,,93.0,9.0,7.0,,,,,,,,,,,,,gelb,blue,b,0.0,b,1.0,0.8581970000086585,,,,,,,,,,7.0,9.0,93.0,9.0,407.75316808299976,,,,,,,,,,,,,,,,,407.7431993329956,408.09074341699306,408.8837430419953,408.87489312498656,,,,,,,,,,,,,,,,,,,,,,,,,,,,,,,,,,,408.8758360419888,408.8837430419953,408.8837430419953,409.7488481249893,b,1.0,0.8581970000086585,,,,,,sub-126,1,stroop_test,120.12348645797944,
,,,,94.0,10.0,7.0,,,,,,,,,,,,,gelb,yellow,g,1.0,g,1.0,0.7508814580069156,,,,,,,,,,7.0,10.0,94.0,11.0,409.7579138329893,,,,,,,,,,,,,,,,,409.7495025419921,410.5489292919956,411.34974662499735,411.34155041699705,,,,,,,,,,,,,,,,,,,,,,,,,,,,,,,,,,,411.3423242919962,411.34974662499735,411.34974662499735,412.1095464999962,g,1.0,0.7508814580069156,,,,,,sub-126,1,stroop_test,120.12348645797944,
,,,,95.0,11.0,7.0,,,,,,,,,,,,,rot,blue,b,0.0,b,1.0,1.74854108299769,,,,,,,,,,7.0,11.0,95.0,2.0,412.1197873329948,,,,,,,,,,,,,,,,,412.1102844579873,412.2078374999983,413.0044122919935,412.99149229199975,,,,,,,,,,,,,,,,,,,,,,,,,,,,,,,,,,,412.9971496249928,413.0044122919935,413.0044122919935,414.7595188329869,b,1.0,1.74854108299769,,,,,,sub-126,1,stroop_test,120.12348645797944,
,,,,96.0,0.0,8.0,,,,,,,,,,,,,blau,red,r,0.0,r,1.0,1.1466660830046749,,,,,,,,,,8.0,0.0,96.0,4.0,414.7691259999992,,,,,,,,,,,,,,,,,414.76004470798944,415.55788737499097,416.3540088749869,416.3415779579954,,,,,,,,,,,,,,,,,,,,,,,,,,,,,,,,,,,416.3467595419934,416.3540088749869,416.3540088749869,417.5095289579913,r,1.0,1.1466660830046749,,,,,,sub-126,1,stroop_test,120.12348645797944,
,,,,97.0,1.0,8.0,,,,,,,,,,,,,gelb,yellow,g,1.0,g,1.0,0.5289410419936758,,,,,,,,,,8.0,1.0,97.0,10.0,417.5207778329932,,,,,,,,,,,,,,,,,417.5103269169922,418.70753041699936,419.50331200000073,419.4916088749888,,,,,,,,,,,,,,,,,,,,,,,,,,,,,,,,,,,419.49606929199945,419.50331200000073,419.50331200000073,420.0428368329885,g,1.0,0.5289410419936758,,,,,,sub-126,1,stroop_test,120.12348645797944,
,,,,98.0,2.0,8.0,,,,,,,,,,,,,gelb,blue,b,0.0,b,1.0,0.9817562909884144,,,,,,,,,,8.0,2.0,98.0,9.0,420.0539137919986,,,,,,,,,,,,,,,,,420.04346379199706,420.14094191699405,420.9333453329891,420.9249084579933,,,,,,,,,,,,,,,,,,,,,,,,,,,,,,,,,,,420.9256829169899,420.9333453329891,420.9333453329891,421.9261347499996,b,1.0,0.9817562909884144,,,,,,sub-126,1,stroop_test,120.12348645797944,
,,,,99.0,3.0,8.0,,,,,,,,,,,,,gelb,red,r,0.0,r,1.0,0.5263084990001516,,,,,,,,,,8.0,3.0,99.0,8.0,421.9370521669916,,,,,,,,,,,,,,,,,421.926762499992,422.2740453329898,423.0665452499961,423.05831479199696,,,,,,,,,,,,,,,,,,,,,,,,,,,,,,,,,,,423.0590879999945,423.0665452499961,423.0665452499961,423.59834466699976,r,1.0,0.5263084990001516,,,,,,sub-126,1,stroop_test,120.12348645797944,
,,,,100.0,4.0,8.0,,,,,,,,,,,,,blau,yellow,g,0.0,g,1.0,0.9029607080010464,,,,,,,,,,8.0,4.0,100.0,7.0,423.607410874989,,,,,,,,,,,,,,,,,423.5989121249877,423.9490310830006,424.7536354170006,424.7416350419953,,,,,,,,,,,,,,,,,,,,,,,,,,,,,,,,,,,424.7464046249952,424.7536354170006,424.7536354170006,425.6593121249898,g,1.0,0.9029607080010464,,,,,,sub-126,1,stroop_test,120.12348645797944,
,,,,101.0,5.0,8.0,,,,,,,,,,,,,rot,yellow,g,0.0,g,1.0,1.0249789160006912,,,,,,,,,,8.0,5.0,101.0,3.0,425.6695233749924,,,,,,,,,,,,,,,,,425.65999508299865,426.4580251669977,427.25391908299935,427.2417209579871,,,,,,,,,,,,,,,,,,,,,,,,,,,,,,,,,,,427.24597099999664,427.25391908299935,427.25391908299935,428.2821012499917,g,1.0,1.0249789160006912,,,,,,sub-126,1,stroop_test,120.12348645797944,
,,,,102.0,6.0,8.0,,,,,,,,,,,,,rot,red,r,1.0,r,1.0,0.5757520830084104,,,,,,,,,,8.0,6.0,102.0,0.0,428.29168104199925,,,,,,,,,,,,,,,,,428.2828031669924,429.4824387919944,430.2832268329949,430.27506587498647,,,,,,,,,,,,,,,,,,,,,,,,,,,,,,,,,,,430.275845791999,430.2832268329949,430.2832268329949,430.8661604579975,r,1.0,0.5757520830084104,,,,,,sub-126,1,stroop_test,120.12348645797944,
,,,,103.0,7.0,8.0,,,,,,,,,,,,,blau,blue,b,1.0,b,1.0,0.7630616660026135,,,,,,,,,,8.0,7.0,103.0,5.0,430.8768302499957,,,,,,,,,,,,,,,,,430.866758499993,431.6652742499864,432.47008524999546,432.45843058299215,,,,,,,,,,,,,,,,,,,,,,,,,,,,,,,,,,,432.4627857919986,432.47008524999546,432.47008524999546,433.2429625829973,b,1.0,0.7630616660026135,,,,,,sub-126,1,stroop_test,120.12348645797944,
,,,,104.0,8.0,8.0,,,,,,,,,,,,,gelb,yellow,g,1.0,g,1.0,0.6341082910075784,,,,,,,,,,8.0,8.0,104.0,11.0,433.2531681669934,,,,,,,,,,,,,,,,,433.2435871249909,433.3411408329994,434.1379283749993,434.1251302079909,,,,,,,,,,,,,,,,,,,,,,,,,,,,,,,,,,,434.1306821249891,434.1379283749993,434.1379283749993,434.7761755419924,g,1.0,0.6341082910075784,,,,,,sub-126,1,stroop_test,120.12348645797944,
,,,,105.0,9.0,8.0,,,,,,,,,,,,,rot,red,r,1.0,r,1.0,0.5101772080088267,,,,,,,,,,8.0,9.0,105.0,1.0,434.7866175829986,,,,,,,,,,,,,,,,,434.7768107919983,435.57422741698974,436.3704815829988,436.358489582999,,,,,,,,,,,,,,,,,,,,,,,,,,,,,,,,,,,436.3627567919903,436.3704815829988,436.3704815829988,436.882997541994,r,1.0,0.5101772080088267,,,,,,sub-126,1,stroop_test,120.12348645797944,
,,,,106.0,10.0,8.0,,,,,,,,,,,,,rot,blue,b,0.0,b,1.0,0.4588861240044934,,,,,,,,,,8.0,10.0,106.0,2.0,436.8937028749933,,,,,,,,,,,,,,,,,436.8836617079942,437.23204350000015,438.0333722919895,438.0251699999935,,,,,,,,,,,,,,,,,,,,,,,,,,,,,,,,,,,438.02594199999294,438.0333722919895,438.0333722919895,438.49936895800056,b,1.0,0.4588861240044934,,,,,,sub-126,1,stroop_test,120.12348645797944,
,,,,107.0,11.0,8.0,,,,,,,,,,,,,blau,blue,b,1.0,b,1.0,0.8658862919983221,,,,,,,,,,8.0,11.0,107.0,6.0,438.52474629199423,,,,,,,,,,,,,,,,,438.500007249997,439.69905474998814,440.504583499991,440.492003249994,,,,,,,,,,,,,,,,,,,,,,,,,,,,,,,,,,,440.4968348330003,440.504583499991,440.504583499991,441.3764562079887,b,1.0,0.8658862919983221,,,,,,sub-126,1,stroop_test,120.12348645797944,
,,,,108.0,0.0,9.0,,,,,,,,,,,,,gelb,red,r,0.0,r,1.0,0.6156038749904837,,,,,,,,,,9.0,0.0,108.0,8.0,441.38655274998746,,,,,,,,,,,,,,,,,441.37706899999466,441.724569041995,442.5208945419872,442.5083731669874,,,,,,,,,,,,,,,,,,,,,,,,,,,,,,,,,,,442.5130586669984,442.5208945419872,442.5208945419872,443.1433428749879,r,1.0,0.6156038749904837,,,,,,sub-126,1,stroop_test,120.12348645797944,
,,,,109.0,1.0,9.0,,,,,,,,,,,,,rot,yellow,g,0.0,g,1.0,0.7422877500066534,,,,,,,,,,9.0,1.0,109.0,3.0,443.15419074999227,,,,,,,,,,,,,,,,,443.14397762498993,443.4915848749952,444.2871404999896,444.275246374993,,,,,,,,,,,,,,,,,,,,,,,,,,,,,,,,,,,444.2796357079933,444.2871404999896,444.2871404999896,445.0326440419885,g,1.0,0.7422877500066534,,,,,,sub-126,1,stroop_test,120.12348645797944,
,,,,110.0,2.0,9.0,,,,,,,,,,,,,gelb,yellow,g,1.0,r,0.0,0.7616039580025245,,,,,,,,,,9.0,2.0,110.0,10.0,445.0581603749888,,,,,,,,,,,,,,,,,445.0332449169946,446.2322503329924,447.0376469170005,447.0253872920002,,,,,,,,,,,,,,,,,,,,,,,,,,,,,,,,,,,447.030419082992,447.0376469170005,447.0376469170005,447.809803332988,r,0.0,0.7616039580025245,,,,,,sub-126,1,stroop_test,120.12348645797944,
,,,,111.0,3.0,9.0,,,,,,,,,,,,,gelb,blue,b,0.0,b,1.0,1.5310142079979414,,,,,,,,,,9.0,3.0,111.0,9.0,447.819552749992,,,,,,,,,,,,,,,,,447.8104310419876,448.1580250419938,448.950563624996,448.9419893749873,,,,,,,,,,,,,,,,,,,,,,,,,,,,,,,,,,,448.942931957994,448.950563624996,448.950563624996,450.4935692919971,b,1.0,1.5310142079979414,,,,,,sub-126,1,stroop_test,120.12348645797944,
,,,,112.0,4.0,9.0,,,,,,,,,,,,,blau,blue,b,1.0,b,1.0,0.6737235409964342,,,,,,,,,,9.0,4.0,112.0,6.0,450.50477287499234,,,,,,,,,,,,,,,,,450.4943992919871,450.5916918329895,451.38879862499016,451.37536283298687,,,,,,,,,,,,,,,,,,,,,,,,,,,,,,,,,,,451.3816544579895,451.38879862499016,451.38879862499016,452.0660865829996,b,1.0,0.6737235409964342,,,,,,sub-126,1,stroop_test,120.12348645797944,
,,,,113.0,5.0,9.0,,,,,,,,,,,,,rot,blue,b,0.0,r,0.0,2.0578882080008043,,,,,,,,,,9.0,5.0,113.0,2.0,452.0915932919888,,,,,,,,,,,,,,,,,452.0667722079961,453.266108374999,454.0712033749878,454.0587748329999,,,,,,,,,,,,,,,,,,,,,,,,,,,,,,,,,,,454.0633650829986,454.0712033749878,454.0712033749878,456.1327829999937,r,0.0,2.0578882080008043,,,,,,sub-126,1,stroop_test,120.12348645797944,
,,,,114.0,6.0,9.0,,,,,,,,,,,,,rot,red,r,1.0,r,1.0,1.0077661249961238,,,,,,,,,,9.0,6.0,114.0,0.0,456.1421533749962,,,,,,,,,,,,,,,,,456.1333352079964,456.9328724579973,457.733889332987,457.72545662499033,,,,,,,,,,,,,,,,,,,,,,,,,,,,,,,,,,,457.72626641699753,457.733889332987,457.733889332987,458.7433469169919,r,1.0,1.0077661249961238,,,,,,sub-126,1,stroop_test,120.12348645797944,
,,,,115.0,7.0,9.0,,,,,,,,,,,,,blau,yellow,g,0.0,g,1.0,1.5605232910020277,,,,,,,,,,9.0,7.0,115.0,7.0,458.75409758299065,,,,,,,,,,,,,,,,,458.74400808299833,459.0917594579951,459.8875843749993,459.8752560829889,,,,,,,,,,,,,,,,,,,,,,,,,,,,,,,,,,,459.8801921669947,459.8875843749993,459.8875843749993,461.449974416988,g,1.0,1.5605232910020277,,,,,,sub-126,1,stroop_test,120.12348645797944,
,,,,116.0,8.0,9.0,,,,,,,,,,,,,blau,blue,b,1.0,b,1.0,0.7935352909989888,,,,,,,,,,9.0,8.0,116.0,5.0,461.4627195829962,,,,,,,,,,,,,,,,,461.45071325000026,461.79931720798777,462.6010912919882,462.5922397079994,,,,,,,,,,,,,,,,,,,,,,,,,,,,,,,,,,,462.5931955829874,462.6010912919882,462.6010912919882,463.4001445829927,b,1.0,0.7935352909989888,,,,,,sub-126,1,stroop_test,120.12348645797944,
,,,,117.0,9.0,9.0,,,,,,,,,,,,,blau,red,r,0.0,r,1.0,1.7650895410042722,,,,,,,,,,9.0,9.0,117.0,4.0,463.4108008329931,,,,,,,,,,,,,,,,,463.4007812919881,463.49956470799225,464.3008259169874,464.2921951669996,,,,,,,,,,,,,,,,,,,,,,,,,,,,,,,,,,,464.2931654999993,464.3008259169874,464.3008259169874,466.07689774999744,r,1.0,1.7650895410042722,,,,,,sub-126,1,stroop_test,120.12348645797944,
,,,,118.0,10.0,9.0,,,,,,,,,,,,,rot,red,r,1.0,r,1.0,0.7183408330020029,,,,,,,,,,9.0,10.0,118.0,1.0,466.0866364579997,,,,,,,,,,,,,,,,,466.0776074169989,466.4251700419991,467.22103754199634,467.208828332994,,,,,,,,,,,,,,,,,,,,,,,,,,,,,,,,,,,467.2131362499931,467.22103754199634,467.22103754199634,467.9434519579954,r,1.0,0.7183408330020029,,,,,,sub-126,1,stroop_test,120.12348645797944,
,,,,119.0,11.0,9.0,,,,,,,,,,,,,gelb,yellow,g,1.0,g,1.0,1.1299054580013037,,,,,,,,,,9.0,11.0,119.0,11.0,467.95393299999705,,,,,,,,,,,,,,,,,467.944094541992,468.0419055419916,468.83746537499246,468.8255194579978,,,,,,,,,,,,,,,,,,,,,,,,,,,,,,,,,,,468.8303930830007,468.83746537499246,468.83746537499246,469.9770567499945,g,1.0,1.1299054580013037,,,,,,sub-126,1,stroop_test,120.12348645797944,
,,,,,,,,,,,,,,,,,,,,,,,,,,,,,,,,,,,,,,,,,,,,,,,,,,,,,,,,,,,,,,,,,,,,,,,,,,,,,,,,,,,,,,,,,,,,,,,,,,,,,,469.9773628330004,469.9892579999869,474.9806996249972,474.9757915829978,sub-126,1,stroop_test,120.12348645797944,
