wordCTK,colorCTK,corrAnsCTK,congruentCTK,thisN,thisTrialN,thisRepN,keyResp_CTK.keys,keyResp_CTK.corr,keyResp_CTK.rt,keyResp_CTK.duration,wordPractice,colorPractice,corrAnsPractice,congruentPractice,respPractice.keys,respPractice.corr,respPractice.rt,respPractice.duration,word,color,corrAns,congruent,keyResp_test_run.keys,keyResp_test_run.corr,keyResp_test_run.rt,keyResp_test_run.duration,trials_CTK.thisRepN,trials_CTK.thisTrialN,trials_CTK.thisN,trials_CTK.thisIndex,trials_practice.thisRepN,trials_practice.thisTrialN,trials_practice.thisN,trials_practice.thisIndex,trials_test.thisRepN,trials_test.thisTrialN,trials_test.thisN,trials_test.thisIndex,thisRow.t,notes,instruction.started,instr_text.started,instr_image.started,instr_resp.started,instruction.stopped,instr_resp.keys,instr_resp.rt,instr_resp.duration,instr_color_to_key.started,instr_ctk.started,resp_ctk.started,instr_color_to_key.stopped,resp_ctk.keys,resp_ctk.rt,resp_ctk.duration,ITI.started,fixcross.started,fixcross.stopped,ITI.stopped,color_to_key_run.started,stimulus_CTK.started,keyResp_CTK.started,color_to_key_run.stopped,trials_CTK.keyResp_CTK.keys,trials_CTK.keyResp_CTK.corr,trials_CTK.keyResp_CTK.rt,trials_CTK.keyResp_CTK.duration,instr_practice.started,instr_practice_text.started,instr_practice_resp.started,instr_practice.stopped,instr_practice_resp.keys,instr_practice_resp.rt,instr_practice_resp.duration,practice_run.started,stimulus_practice.started,respPractice.started,practice_run.stopped,trials_practice.respPractice.keys,trials_practice.respPractice.corr,trials_practice.respPractice.rt,trials_practice.respPractice.duration,feedback.started,textFeedback.started,textFeedback.stopped,feedback.stopped,instr_test.started,instr_test_text.started,instr_test_resp.started,instr_test.stopped,instr_test_resp.keys,instr_test_resp.rt,instr_test_resp.duration,test_run.started,stimulus_test_run.started,keyResp_test_run.started,test_run.stopped,trials_test.keyResp_test_run.keys,trials_test.keyResp_test_run.corr,trials_test.keyResp_test_run.rt,trials_test.keyResp_test_run.duration,goodbye.started,textGoodbye.started,textGoodbye.stopped,goodbye.stopped,participant,session,expName,frameRate,Unnamed: 113
,,,,,,,,,,,,,,,,,,,,,,,,,,,,,,,,,,,,,,,,,0.0042935000965371,0.0353797000134363,0.0353797000134363,0.0353797000134363,20.696224100072868,space,20.62882080010604,,,,,,,,,,,,,,,,,,,,,,,,,,,,,,,,,,,,,,,,,,,,,,,,,,,,,,,,,,,sub-005,1,stroop_test,59.84003559699745,
,,,,,,,,,,,,,,,,,,,,,,,,,,,,,,,,,,,,,,,,,,,,,,,,,20.69644309999421,20.705335100064985,20.705335100064985,26.30388830008451,space,5.581422600080259,,,,,,,,,,,,,,,,,,,,,,,,,,,,,,,,,,,,,,,,,,,,,,,,,,,,sub-005,1,stroop_test,59.84003559699745,
test,red,r,1.0,0.0,0.0,0.0,r,1.0,2.5369473999598995,,,,,,,,,,,,,,,,,,0.0,0.0,0.0,0.0,,,,,,,,,26.329322000034157,,,,,,,,,,,,,,,,,26.325090900063515,27.518696200102568,28.322001100052148,28.30335500009824,28.315687200054526,28.322001100052148,28.322001100052148,30.86866480007302,r,1.0,2.5369473999598995,,,,,,,,,,,,,,,,,,,,,,,,,,,,,,,,,,,,,,,,sub-005,1,stroop_test,59.84003559699745,
test,yellow,g,1.0,1.0,1.0,0.0,g,1.0,1.0688653000397608,,,,,,,,,,,,,,,,,,0.0,1.0,1.0,1.0,,,,,,,,,30.884829600108787,,,,,,,,,,,,,,,,,30.868864400079477,32.06880870007444,32.868952900054865,32.85320580005646,32.853829900035635,32.868952900054865,32.868952900054865,33.95282090001274,g,1.0,1.0688653000397608,,,,,,,,,,,,,,,,,,,,,,,,,,,,,,,,,,,,,,,,sub-005,1,stroop_test,59.84003559699745,
test,blue,b,1.0,2.0,2.0,0.0,b,1.0,0.5694162999279797,,,,,,,,,,,,,,,,,,0.0,2.0,2.0,2.0,,,,,,,,,33.96840190002695,,,,,,,,,,,,,,,,,33.95311760006007,34.301981700002216,35.101618400076404,35.08565540006384,35.08612800005358,35.101618400076404,35.101618400076404,35.686355700017884,b,1.0,0.5694162999279797,,,,,,,,,,,,,,,,,,,,,,,,,,,,,,,,,,,,,,,,sub-005,1,stroop_test,59.84003559699745,
test,red,r,1.0,3.0,0.0,1.0,r,1.0,0.5164014999754727,,,,,,,,,,,,,,,,,,1.0,0.0,3.0,0.0,,,,,,,,,35.70175620005466,,,,,,,,,,,,,,,,,35.68664369999897,36.90165720006917,37.70186730008572,37.68622230004985,37.6868814000627,37.70186730008572,37.70186730008572,38.22191650001332,r,1.0,0.5164014999754727,,,,,,,,,,,,,,,,,,,,,,,,,,,,,,,,,,,,,,,,sub-005,1,stroop_test,59.84003559699745,
test,blue,b,1.0,4.0,1.0,1.0,b,1.0,0.5588133999845013,,,,,,,,,,,,,,,,,,1.0,1.0,4.0,2.0,,,,,,,,,38.23515850002877,,,,,,,,,,,,,,,,,38.22238210006617,39.03492920007557,39.83507120003924,39.81932870007586,39.82003620010801,39.83507120003924,39.83507120003924,40.40467780001927,b,1.0,0.5588133999845013,,,,,,,,,,,,,,,,,,,,,,,,,,,,,,,,,,,,,,,,sub-005,1,stroop_test,59.84003559699745,
test,yellow,g,1.0,5.0,2.0,1.0,g,1.0,0.5933454000623897,,,,,,,,,,,,,,,,,,1.0,2.0,5.0,1.0,,,,,,,,,40.418479500105605,,,,,,,,,,,,,,,,,40.40515410003718,41.21857390005607,42.0185173000209,42.00333960005082,42.00413970008958,42.0185173000209,42.0185173000209,42.62029630003963,g,1.0,0.5933454000623897,,,,,,,,,,,,,,,,,,,,,,,,,,,,,,,,,,,,,,,,sub-005,1,stroop_test,59.84003559699745,
test,yellow,g,1.0,6.0,0.0,2.0,g,1.0,0.5913201000075787,,,,,,,,,,,,,,,,,,2.0,0.0,6.0,1.0,,,,,,,,,42.63485170004424,,,,,,,,,,,,,,,,,42.62067570001818,43.43510020000394,44.23506630002521,44.21952290006448,44.22039640008006,44.23506630002521,44.23506630002521,44.83704380004201,g,1.0,0.5913201000075787,,,,,,,,,,,,,,,,,,,,,,,,,,,,,,,,,,,,,,,,sub-005,1,stroop_test,59.84003559699745,
test,red,r,1.0,7.0,1.0,2.0,r,1.0,0.6193824000656605,,,,,,,,,,,,,,,,,,2.0,1.0,7.0,0.0,,,,,,,,,44.85166520008352,,,,,,,,,,,,,,,,,44.8374498001067,45.201581400004216,46.00229040009435,45.98724480008241,45.98820190003608,46.00229040009435,46.00229040009435,46.63733860000502,r,1.0,0.6193824000656605,,,,,,,,,,,,,,,,,,,,,,,,,,,,,,,,,,,,,,,,sub-005,1,stroop_test,59.84003559699745,
test,blue,b,1.0,8.0,2.0,2.0,b,1.0,0.5947717999806628,,,,,,,,,,,,,,,,,,2.0,2.0,8.0,2.0,,,,,,,,,46.65151910006534,,,,,,,,,,,,,,,,,46.63789940008428,47.451780100003816,48.25157660001423,48.23685159999877,48.23775170010049,48.25157660001423,48.25157660001423,48.8535208000103,b,1.0,0.5947717999806628,,,,,,,,,,,,,,,,,,,,,,,,,,,,,,,,,,,,,,,,sub-005,1,stroop_test,59.84003559699745,
test,red,r,1.0,9.0,0.0,3.0,r,1.0,0.796862700022757,,,,,,,,,,,,,,,,,,3.0,0.0,9.0,0.0,,,,,,,,,48.868202200043015,,,,,,,,,,,,,,,,,48.853922500042245,49.6684112000512,50.46864140010439,50.453949699993245,50.454800500068814,50.46864140010439,50.46864140010439,51.27125630003866,r,1.0,0.796862700022757,,,,,,,,,,,,,,,,,,,,,,,,,,,,,,,,,,,,,,,,sub-005,1,stroop_test,59.84003559699745,
test,blue,b,1.0,10.0,1.0,3.0,b,1.0,1.0170724000781777,,,,,,,,,,,,,,,,,,3.0,1.0,10.0,2.0,,,,,,,,,51.28490700002294,,,,,,,,,,,,,,,,,51.27180450002197,51.635238900082186,52.434861800051294,52.41865630005486,52.41916640009731,52.434861800051294,52.434861800051294,53.45465369999874,b,1.0,1.0170724000781777,,,,,,,,,,,,,,,,,,,,,,,,,,,,,,,,,,,,,,,,sub-005,1,stroop_test,59.84003559699745,
test,yellow,g,1.0,11.0,2.0,3.0,g,1.0,0.7545099999988452,,,,,,,,,,,,,,,,,,3.0,2.0,11.0,1.0,,,,,,,,,53.46828740008641,,,,,,,,,,,,,,,,,53.45508260000497,53.56857040000614,54.36844099999871,54.35259010002483,54.35330410010647,54.36844099999871,54.36844099999871,55.138197600026615,g,1.0,0.7545099999988452,,,,,,,,,,,,,,,,,,,,,,,,,,,,,,,,,,,,,,,,sub-005,1,stroop_test,59.84003559699745,
,,,,,,,,,,,,,,,,,,,,,,,,,,,,,,,,,,,,,,,,,,,,,,,,,,,,,,,,,,,,,,,,,,,,55.138488900032826,55.15191340004094,55.15191340004094,60.83664080000017,space,5.671658799983561,,,,,,,,,,,,,,,,,,,,,,,,,,,,,,,,,sub-005,1,stroop_test,59.84003559699745,
,,,,0.0,0.0,0.0,,,,,rot,blue,b,0.0,r,0.0,8.73707709996961,,,,,,,,,,,,,,0.0,0.0,0.0,2.0,,,,,60.85363920009695,,,,,,,,,,,,,,,,,60.84803940006532,61.185599800082855,61.98470820009243,61.96941060002428,,,,,,,,,,,,,,,,61.97848170006182,61.98470820009243,61.98470820009243,70.73515150009189,r,0.0,8.73707709996961,,70.7414434000384,70.75127260002773,71.75133490003645,71.73620620009024,,,,,,,,,,,,,,,,,,,,sub-005,1,stroop_test,59.84003559699745,
,,,,1.0,1.0,0.0,,,,,blau,blue,b,1.0,b,1.0,2.3276075000176206,,,,,,,,,,,,,,0.0,1.0,1.0,5.0,,,,,71.75133490003645,,,,,,,,,,,,,,,,,71.73669520008843,71.83479059999809,72.63437030010391,72.61853380000684,,,,,,,,,,,,,,,,72.6247646000702,72.63437030010391,72.63437030010391,74.9702324999962,b,1.0,2.3276075000176206,,74.9785767000867,74.98443630000111,75.98508260003291,75.9689156000968,,,,,,,,,,,,,,,,,,,,sub-005,1,stroop_test,59.84003559699745,
,,,,2.0,2.0,0.0,,,,,blau,red,r,0.0,b,0.0,0.77365170000121,,,,,,,,,,,,,,0.0,2.0,2.0,4.0,,,,,75.98508260003291,,,,,,,,,,,,,,,,,75.9692434000317,76.7848926000297,77.58487370004877,77.56924620002974,,,,,,,,,,,,,,,,77.56994170008693,77.58487370004877,77.58487370004877,78.37071690009907,b,0.0,0.77365170000121,,78.37501600000542,78.38473650009837,79.38467160006985,79.36948690004647,,,,,,,,,,,,,,,,,,,,sub-005,1,stroop_test,59.84003559699745,
,,,,3.0,3.0,0.0,,,,,blau,yellow,g,0.0,g,1.0,2.0047558000078425,,,,,,,,,,,,,,0.0,3.0,3.0,7.0,,,,,79.38467160006985,,,,,,,,,,,,,,,,,79.3700353000313,80.18517240008805,80.98484640009701,80.97023670002818,,,,,,,,,,,,,,,,80.97095770004671,80.98484640009701,80.98484640009701,83.0038649000926,g,1.0,2.0047558000078425,,83.00759789999574,83.01812680007424,84.02288120007142,84.00330750003923,,,,,,,,,,,,,,,,,,,,sub-005,1,stroop_test,59.84003559699745,
,,,,4.0,4.0,0.0,,,,,blau,blue,b,1.0,b,1.0,1.2884935999754816,,,,,,,,,,,,,,0.0,4.0,4.0,6.0,,,,,84.02288120007142,,,,,,,,,,,,,,,,,84.00387270003557,85.21876600000542,86.0180467000464,86.00311580009293,,,,,,,,,,,,,,,,86.00397980003618,86.0180467000464,86.0180467000464,87.32028760004323,b,1.0,1.2884935999754816,,87.3211583000375,87.33462890004739,88.33471690001898,88.31973860005382,,,,,,,,,,,,,,,,,,,,sub-005,1,stroop_test,59.84003559699745,
,,,,5.0,5.0,0.0,,,,,rot,red,r,1.0,r,1.0,2.313775300048292,,,,,,,,,,,,,,0.0,5.0,5.0,1.0,,,,,88.33471690001898,,,,,,,,,,,,,,,,,88.32033900008537,89.1344777001068,89.93455120001454,89.92191520007327,,,,,,,,,,,,,,,,89.92544680007268,89.93455120001454,89.93455120001454,92.253757800092,r,1.0,2.313775300048292,,92.25434200000018,92.26791120006236,93.26803890010342,93.25237400003245,,,,,,,,,,,,,,,,,,,,sub-005,1,stroop_test,59.84003559699745,
,,,,6.0,6.0,0.0,,,,,gelb,red,r,0.0,r,1.0,2.0313932000426576,,,,,,,,,,,,,,0.0,6.0,6.0,8.0,,,,,93.26803890010342,,,,,,,,,,,,,,,,,93.25271840009373,94.46824620000552,95.26786140003242,95.25286920007784,,,,,,,,,,,,,,,,95.2569569000043,95.26786140003242,95.26786140003242,97.30339370004369,r,1.0,2.0313932000426576,,97.30400400003418,97.31793150003068,98.31789440009744,98.30261550005524,,,,,,,,,,,,,,,,,,,,sub-005,1,stroop_test,59.84003559699745,
,,,,7.0,7.0,0.0,,,,,rot,red,r,1.0,r,1.0,0.6662827000254765,,,,,,,,,,,,,,0.0,7.0,7.0,0.0,,,,,98.31789440009744,,,,,,,,,,,,,,,,,98.30313580005895,98.66792979999444,99.4677974000806,99.45261340006256,,,,,,,,,,,,,,,,99.45665130007546,99.4677974000806,99.4677974000806,100.13754270004574,r,1.0,0.6662827000254765,,100.13815270003396,100.151289200061,101.15176140004768,101.13655080005992,,,,,,,,,,,,,,,,,,,,sub-005,1,stroop_test,59.84003559699745,
,,,,8.0,8.0,0.0,,,,,gelb,yellow,g,1.0,g,1.0,0.9266956999199464,,,,,,,,,,,,,,0.0,8.0,8.0,10.0,,,,,101.15176140004768,,,,,,,,,,,,,,,,,101.13706580002328,101.50109270005488,102.30138330010232,102.28635970002506,,,,,,,,,,,,,,,,102.29033069999424,102.30138330010232,102.30138330010232,103.2363927999977,g,1.0,0.9266956999199464,,103.23700080008712,103.25110240001231,104.2511935000075,104.23507550009526,,,,,,,,,,,,,,,,,,,,sub-005,1,stroop_test,59.84003559699745,
,,,,9.0,9.0,0.0,,,,,gelb,yellow,g,1.0,g,1.0,0.5668410999933258,,,,,,,,,,,,,,0.0,9.0,9.0,11.0,,,,,104.2511935000075,,,,,,,,,,,,,,,,,104.23539780010468,104.60160100006031,105.40125080000143,105.38597820000724,,,,,,,,,,,,,,,,105.38674910005648,105.40125080000143,105.40125080000143,105.97001490008552,g,1.0,0.5668410999933258,,105.97055780002847,105.9842094000196,106.98438620008528,106.9692566000158,,,,,,,,,,,,,,,,,,,,sub-005,1,stroop_test,59.84003559699745,
,,,,10.0,10.0,0.0,,,,,rot,yellow,g,0.0,g,1.0,0.9857233000220732,,,,,,,,,,,,,,0.0,10.0,10.0,3.0,,,,,106.98438620008528,,,,,,,,,,,,,,,,,106.9696729000425,107.78454600006808,108.58447170001456,108.56976240000222,,,,,,,,,,,,,,,,108.57554700004404,108.58447170001456,108.58447170001456,109.58728640002664,g,1.0,0.9857233000220732,,109.5879530000966,109.60144310002217,110.60112330003176,110.58653270010836,,,,,,,,,,,,,,,,,,,,sub-005,1,stroop_test,59.84003559699745,
,,,,11.0,11.0,0.0,,,,,gelb,blue,b,0.0,b,1.0,2.1092346999794245,,,,,,,,,,,,,,0.0,11.0,11.0,9.0,,,,,110.60112330003176,,,,,,,,,,,,,,,,,110.58719029999338,111.80116250005084,112.6016303000506,112.58735060004985,,,,,,,,,,,,,,,,112.5917177000083,112.6016303000506,112.6016303000506,114.7206884000916,b,1.0,2.1092346999794245,,114.72152960009409,114.73434700001962,115.73437100008596,115.71970300003886,,,,,,,,,,,,,,,,,,,,sub-005,1,stroop_test,59.84003559699745,
,,,,12.0,0.0,1.0,,,,,gelb,yellow,g,1.0,g,1.0,0.6738001999910921,,,,,,,,,,,,,,1.0,0.0,12.0,11.0,,,,,115.73437100008596,,,,,,,,,,,,,,,,,115.7202897000825,116.53456570010168,117.33449030003976,117.32038950000424,,,,,,,,,,,,,,,,117.32138940005098,117.33449030003976,117.33449030003976,118.01946290000342,g,1.0,0.6738001999910921,,118.02006830007304,118.03445979999378,119.03449310001452,119.01919870008714,,,,,,,,,,,,,,,,,,,,sub-005,1,stroop_test,59.84003559699745,
,,,,13.0,1.0,1.0,,,,,blau,blue,b,1.0,b,1.0,0.6764949999051169,,,,,,,,,,,,,,1.0,1.0,13.0,5.0,,,,,119.03449310001452,,,,,,,,,,,,,,,,,119.01987190009096,120.23523730004672,121.0348789000418,121.01934440003242,,,,,,,,,,,,,,,,121.02330590004568,121.0348789000418,121.0348789000418,121.72113320010249,b,1.0,0.6764949999051169,,121.72200130007695,121.73477360000834,122.7345755000133,122.72026010008994,,,,,,,,,,,,,,,,,,,,sub-005,1,stroop_test,59.84003559699745,
,,,,14.0,2.0,1.0,,,,,rot,red,r,1.0,r,1.0,0.5816336000571027,,,,,,,,,,,,,,1.0,2.0,14.0,0.0,,,,,122.7345755000133,,,,,,,,,,,,,,,,,122.72117460006848,123.93455170001836,124.73504729999696,124.71973110002,,,,,,,,,,,,,,,,124.72401980008,124.73504729999696,124.73504729999696,125.32127470010892,r,1.0,0.5816336000571027,,125.322802000097,125.334550700034,126.33512320008596,126.32004470005631,,,,,,,,,,,,,,,,,,,,sub-005,1,stroop_test,59.84003559699745,
,,,,15.0,3.0,1.0,,,,,blau,yellow,g,0.0,g,1.0,1.0820963999722153,,,,,,,,,,,,,,1.0,3.0,15.0,7.0,,,,,126.33512320008596,,,,,,,,,,,,,,,,,126.3218214000808,127.53450490010437,128.33446360006928,128.31899470009375,,,,,,,,,,,,,,,,128.32228880003095,128.33446360006928,128.33446360006928,129.42061420006212,g,1.0,1.0820963999722153,,129.42126000009011,129.43447800003923,130.43428929999936,130.418720100075,,,,,,,,,,,,,,,,,,,,sub-005,1,stroop_test,59.84003559699745,
,,,,16.0,4.0,1.0,,,,,gelb,blue,b,0.0,b,1.0,0.7944417999824509,,,,,,,,,,,,,,1.0,4.0,16.0,9.0,,,,,130.43428929999936,,,,,,,,,,,,,,,,,130.41911170003004,130.7845591000514,131.5842845001025,131.56907310010865,,,,,,,,,,,,,,,,131.5721823000349,131.5842845001025,131.5842845001025,132.38620730000548,b,1.0,0.7944417999824509,,132.387559600058,132.4010139000602,133.40094880003016,133.38620730000548,,,,,,,,,,,,,,,,,,,,sub-005,1,stroop_test,59.84003559699745,
,,,,17.0,5.0,1.0,,,,,rot,red,r,1.0,r,1.0,0.5644666999578476,,,,,,,,,,,,,,1.0,5.0,17.0,1.0,,,,,133.40094880003016,,,,,,,,,,,,,,,,,133.38675020006485,134.20085920009296,135.00125700002536,134.98556920001283,,,,,,,,,,,,,,,,134.9887640000088,135.00125700002536,135.00125700002536,135.57026220008265,r,1.0,0.5644666999578476,,135.57100940006785,135.58449340006337,136.58455680008046,136.56957090005744,,,,,,,,,,,,,,,,,,,,sub-005,1,stroop_test,59.84003559699745,
,,,,18.0,6.0,1.0,,,,,rot,blue,b,0.0,g,0.0,0.7229812999721617,,,,,,,,,,,,,,1.0,6.0,18.0,2.0,,,,,136.58455680008046,,,,,,,,,,,,,,,,,136.5701174000278,136.93442669999786,137.73438490007538,137.71943290007766,,,,,,,,,,,,,,,,137.7203409000067,137.73438490007538,137.73438490007538,138.4699989000801,g,0.0,0.7229812999721617,,138.47411890001968,138.48421300004702,139.48449470009655,139.46930700005032,,,,,,,,,,,,,,,,,,,,sub-005,1,stroop_test,59.84003559699745,
,,,,19.0,7.0,1.0,,,,,gelb,red,r,0.0,g,0.0,0.5951756000285968,,,,,,,,,,,,,,1.0,7.0,19.0,8.0,,,,,139.48449470009655,,,,,,,,,,,,,,,,,139.4699063000735,140.68446650006808,141.4844244000269,141.46949600009248,,,,,,,,,,,,,,,,141.47382890002336,141.4844244000269,141.4844244000269,142.08634390006773,g,0.0,0.5951756000285968,,142.0870485000778,142.10108430008404,143.10128290008288,143.08586370002013,,,,,,,,,,,,,,,,,,,,sub-005,1,stroop_test,59.84003559699745,
,,,,20.0,8.0,1.0,,,,,gelb,yellow,g,1.0,g,1.0,0.794627399998717,,,,,,,,,,,,,,1.0,8.0,20.0,10.0,,,,,143.10128290008288,,,,,,,,,,,,,,,,,143.08630140009336,143.20087960001547,144.00112100003753,143.9856808000477,,,,,,,,,,,,,,,,143.98629990010522,144.00112100003753,144.00112100003753,144.80344960000366,g,1.0,0.794627399998717,,144.8069736000616,144.81751940003596,145.81804230005946,145.8024027000647,,,,,,,,,,,,,,,,,,,,sub-005,1,stroop_test,59.84003559699745,
,,,,21.0,9.0,1.0,,,,,blau,red,r,0.0,r,1.0,1.235905000008643,,,,,,,,,,,,,,1.0,9.0,21.0,4.0,,,,,145.81804230005946,,,,,,,,,,,,,,,,,145.80290760006756,146.1682272000471,146.96771180001087,146.9525465000188,,,,,,,,,,,,,,,,146.95686989999376,146.96771180001087,146.96771180001087,148.22019740007818,r,1.0,1.235905000008643,,148.2211343999952,148.2343427001033,149.23415480006952,149.2189078000374,,,,,,,,,,,,,,,,,,,,sub-005,1,stroop_test,59.84003559699745,
,,,,22.0,10.0,1.0,,,,,rot,yellow,g,0.0,g,1.0,0.8061197999631986,,,,,,,,,,,,,,1.0,10.0,22.0,3.0,,,,,149.23415480006952,,,,,,,,,,,,,,,,,149.219345599995,150.43489220004994,151.23443000006955,151.2196354001062,,,,,,,,,,,,,,,,151.22373780002818,151.23443000006955,151.23443000006955,152.05300920002628,g,1.0,0.8061197999631986,,152.0536247000564,152.06756190001033,153.0678440000629,153.05234340007885,,,,,,,,,,,,,,,,,,,,sub-005,1,stroop_test,59.84003559699745,
,,,,23.0,11.0,1.0,,,,,blau,blue,b,1.0,b,1.0,0.5840406999923289,,,,,,,,,,,,,,1.0,11.0,23.0,6.0,,,,,153.0678440000629,,,,,,,,,,,,,,,,,153.05276240000967,153.41760540008545,154.21727470005862,154.20212540007196,,,,,,,,,,,,,,,,154.20584589999635,154.21727470005862,154.21727470005862,154.80456160008907,b,1.0,0.5840406999923289,,154.80521520006005,154.81721210002434,155.8174981001066,155.80232860008255,,,,,,,,,,,,,,,,,,,,sub-005,1,stroop_test,59.84003559699745,
,,,,,,,,,,,,,,,,,,,,,,,,,,,,,,,,,,,,,,,,,,,,,,,,,,,,,,,,,,,,,,,,,,,,,,,,,,,,,,,,,,,,,,,155.80256610002834,155.8174981001066,155.8174981001066,160.50449710001703,space,4.681932199979201,,,,,,,,,,,,,,sub-005,1,stroop_test,59.84003559699745,
,,,,0.0,0.0,0.0,,,,,,,,,,,,,rot,yellow,g,0.0,g,1.0,1.1354580000042915,,,,,,,,,,0.0,0.0,0.0,3.0,160.52238830004353,,,,,,,,,,,,,,,,,160.51725480007008,160.8675290000392,161.66743950010277,161.65217270003632,,,,,,,,,,,,,,,,,,,,,,,,,,,,,,,,,,,161.6565791000612,161.66743950010277,161.66743950010277,162.819062900031,g,1.0,1.1354580000042915,,,,,,sub-005,1,stroop_test,59.84003559699745,
,,,,1.0,1.0,0.0,,,,,,,,,,,,,gelb,yellow,g,1.0,g,1.0,0.6744205000577495,,,,,,,,,,0.0,1.0,1.0,10.0,162.8339733000612,,,,,,,,,,,,,,,,,162.81968700001016,164.0341172000626,164.83384940004908,164.8186388000613,,,,,,,,,,,,,,,,,,,,,,,,,,,,,,,,,,,164.8224716000259,164.83384940004908,164.83384940004908,165.5204213000834,g,1.0,0.6744205000577495,,,,,,sub-005,1,stroop_test,59.84003559699745,
,,,,2.0,2.0,0.0,,,,,,,,,,,,,gelb,blue,b,0.0,b,1.0,0.8316644999431446,,,,,,,,,,0.0,2.0,2.0,9.0,165.53432690002955,,,,,,,,,,,,,,,,,165.520994600025,166.73375730006956,167.53380800003652,167.5177029001061,,,,,,,,,,,,,,,,,,,,,,,,,,,,,,,,,,,167.51801390002947,167.53380800003652,167.53380800003652,168.36899000010453,b,1.0,0.8316644999431446,,,,,,sub-005,1,stroop_test,59.84003559699745,
,,,,3.0,3.0,0.0,,,,,,,,,,,,,blau,red,r,0.0,r,1.0,1.309337900020182,,,,,,,,,,0.0,3.0,3.0,4.0,168.3838143000612,,,,,,,,,,,,,,,,,168.36936480004806,168.48392580007203,169.2840127000818,169.26856540003791,,,,,,,,,,,,,,,,,,,,,,,,,,,,,,,,,,,169.2727004000917,169.2840127000818,169.2840127000818,170.60246070008725,r,1.0,1.309337900020182,,,,,,sub-005,1,stroop_test,59.84003559699745,
,,,,4.0,4.0,0.0,,,,,,,,,,,,,blau,blue,b,1.0,b,1.0,1.0371829000068828,,,,,,,,,,0.0,4.0,4.0,6.0,170.6171909000259,,,,,,,,,,,,,,,,,170.60290110006463,170.71725190000143,171.51714460004587,171.5028178000357,,,,,,,,,,,,,,,,,,,,,,,,,,,,,,,,,,,171.50349550007377,171.51714460004587,171.51714460004587,172.56953550002072,b,1.0,1.0371829000068828,,,,,,sub-005,1,stroop_test,59.84003559699745,
,,,,5.0,5.0,0.0,,,,,,,,,,,,,rot,blue,b,0.0,b,1.0,0.859862899989821,,,,,,,,,,0.0,5.0,5.0,2.0,172.58406090002973,,,,,,,,,,,,,,,,,172.56995050003752,173.3842252000468,174.18391930009238,174.16884020005818,,,,,,,,,,,,,,,,,,,,,,,,,,,,,,,,,,,174.17286410008091,174.18391930009238,174.18391930009238,175.05403770005796,b,1.0,0.859862899989821,,,,,,sub-005,1,stroop_test,59.84003559699745,
,,,,6.0,6.0,0.0,,,,,,,,,,,,,blau,blue,b,1.0,b,1.0,0.6425386000191793,,,,,,,,,,0.0,6.0,6.0,5.0,175.06715390004683,,,,,,,,,,,,,,,,,175.05484960007016,175.16719579999335,175.96753230004106,175.9517038000049,,,,,,,,,,,,,,,,,,,,,,,,,,,,,,,,,,,175.9562891999958,175.96753230004106,175.96753230004106,176.61969310010318,b,1.0,0.6425386000191793,,,,,,sub-005,1,stroop_test,59.84003559699745,
,,,,7.0,7.0,0.0,,,,,,,,,,,,,blau,yellow,g,0.0,g,1.0,0.9555705999955536,,,,,,,,,,0.0,7.0,7.0,7.0,176.63386330008507,,,,,,,,,,,,,,,,,176.6204004000174,176.73415610007942,177.53415520000271,177.51901810010895,,,,,,,,,,,,,,,,,,,,,,,,,,,,,,,,,,,177.51981830003206,177.53415520000271,177.53415520000271,178.50437930005137,g,1.0,0.9555705999955536,,,,,,sub-005,1,stroop_test,59.84003559699745,
,,,,8.0,8.0,0.0,,,,,,,,,,,,,rot,red,r,1.0,r,1.0,0.6398479000199586,,,,,,,,,,0.0,8.0,8.0,0.0,178.51737960008904,,,,,,,,,,,,,,,,,178.50499360007234,179.31730980006978,180.11693900008686,180.10154760000296,,,,,,,,,,,,,,,,,,,,,,,,,,,,,,,,,,,180.1046918000793,180.11693900008686,180.11693900008686,180.76911660004407,r,1.0,0.6398479000199586,,,,,,sub-005,1,stroop_test,59.84003559699745,
,,,,9.0,9.0,0.0,,,,,,,,,,,,,gelb,red,r,0.0,r,1.0,0.8213494999799877,,,,,,,,,,0.0,9.0,9.0,8.0,180.78403450001497,,,,,,,,,,,,,,,,,180.76953160006087,181.5841554000508,182.3837701000739,182.3685114000691,,,,,,,,,,,,,,,,,,,,,,,,,,,,,,,,,,,182.3721533000935,182.3837701000739,182.3837701000739,183.21968830004332,r,1.0,0.8213494999799877,,,,,,sub-005,1,stroop_test,59.84003559699745,
,,,,10.0,10.0,0.0,,,,,,,,,,,,,rot,red,r,1.0,r,1.0,0.5649056999245659,,,,,,,,,,0.0,10.0,10.0,1.0,183.23367900005545,,,,,,,,,,,,,,,,,183.2203430000227,184.0341505000833,184.83403400005773,184.8184208000312,,,,,,,,,,,,,,,,,,,,,,,,,,,,,,,,,,,184.82178820006084,184.83403400005773,184.83403400005773,185.40398699999787,r,1.0,0.5649056999245659,,,,,,sub-005,1,stroop_test,59.84003559699745,
,,,,11.0,11.0,0.0,,,,,,,,,,,,,gelb,yellow,g,1.0,g,1.0,0.6184629999333993,,,,,,,,,,0.0,11.0,11.0,11.0,185.41701080009807,,,,,,,,,,,,,,,,,185.40461880003568,185.76719510008115,186.56692130002196,186.5523852000479,,,,,,,,,,,,,,,,,,,,,,,,,,,,,,,,,,,186.5564490000252,186.56692130002196,186.56692130002196,187.20218900009056,g,1.0,0.6184629999333993,,,,,,sub-005,1,stroop_test,59.84003559699745,
,,,,12.0,0.0,1.0,,,,,,,,,,,,,rot,blue,b,0.0,b,1.0,0.9271498000016436,,,,,,,,,,1.0,0.0,12.0,2.0,187.2173842000775,,,,,,,,,,,,,,,,,187.20255440007892,188.01718490000349,188.8170960000716,188.80207470001187,,,,,,,,,,,,,,,,,,,,,,,,,,,,,,,,,,,188.8060119000729,188.8170960000716,188.8170960000716,189.7530843000859,b,1.0,0.9271498000016436,,,,,,sub-005,1,stroop_test,59.84003559699745,
,,,,13.0,1.0,1.0,,,,,,,,,,,,,gelb,yellow,g,1.0,g,1.0,0.6764610999962315,,,,,,,,,,1.0,1.0,13.0,10.0,189.76710630010348,,,,,,,,,,,,,,,,,189.75376099999997,190.5669185000006,191.36725200002547,191.35227000003212,,,,,,,,,,,,,,,,,,,,,,,,,,,,,,,,,,,191.35699900006875,191.36725200002547,191.36725200002547,192.05276610003784,g,1.0,0.6764610999962315,,,,,,sub-005,1,stroop_test,59.84003559699745,
,,,,14.0,2.0,1.0,,,,,,,,,,,,,blau,blue,b,1.0,b,1.0,0.5632049000123516,,,,,,,,,,1.0,2.0,14.0,6.0,192.06696270010437,,,,,,,,,,,,,,,,,192.05327710008717,192.86717209999915,193.6672301000217,193.65231370006225,,,,,,,,,,,,,,,,,,,,,,,,,,,,,,,,,,,193.65918620000596,193.6672301000217,193.6672301000217,194.23703390010635,b,1.0,0.5632049000123516,,,,,,sub-005,1,stroop_test,59.84003559699745,
,,,,15.0,3.0,1.0,,,,,,,,,,,,,rot,yellow,g,0.0,g,1.0,0.7495073999743909,,,,,,,,,,1.0,3.0,15.0,3.0,194.25052750005847,,,,,,,,,,,,,,,,,194.23762420006096,194.3505721000256,195.15043860010337,195.13546450005376,,,,,,,,,,,,,,,,,,,,,,,,,,,,,,,,,,,195.13955760002136,195.15043860010337,195.15043860010337,195.90308469999584,g,1.0,0.7495073999743909,,,,,,sub-005,1,stroop_test,59.84003559699745,
,,,,16.0,4.0,1.0,,,,,,,,,,,,,blau,yellow,g,0.0,g,1.0,0.8872627000091597,,,,,,,,,,1.0,4.0,16.0,7.0,195.91723480005749,,,,,,,,,,,,,,,,,195.9035290000029,196.26745080004912,197.06747190002352,197.05253920005637,,,,,,,,,,,,,,,,,,,,,,,,,,,,,,,,,,,197.05738460004795,197.06747190002352,197.06747190002352,197.9694083000068,g,1.0,0.8872627000091597,,,,,,sub-005,1,stroop_test,59.84003559699745,
,,,,17.0,5.0,1.0,,,,,,,,,,,,,blau,blue,b,1.0,b,1.0,0.7350751000922173,,,,,,,,,,1.0,5.0,17.0,5.0,197.98372990009372,,,,,,,,,,,,,,,,,197.96991700003852,198.08416460000444,198.88420299999416,198.8682608000236,,,,,,,,,,,,,,,,,,,,,,,,,,,,,,,,,,,198.8688578000292,198.88420299999416,198.88420299999416,199.63640120008492,b,1.0,0.7350751000922173,,,,,,sub-005,1,stroop_test,59.84003559699745,
,,,,18.0,6.0,1.0,,,,,,,,,,,,,gelb,red,r,0.0,r,1.0,0.754663800005801,,,,,,,,,,1.0,6.0,18.0,8.0,199.65036520001013,,,,,,,,,,,,,,,,,199.63697200000752,199.75048839999363,200.55036360002123,200.53580090007745,,,,,,,,,,,,,,,,,,,,,,,,,,,,,,,,,,,200.5412881000666,200.55036360002123,200.55036360002123,201.3197366000386,r,1.0,0.754663800005801,,,,,,sub-005,1,stroop_test,59.84003559699745,
,,,,19.0,7.0,1.0,,,,,,,,,,,,,rot,red,r,1.0,r,1.0,0.5680481999879703,,,,,,,,,,1.0,7.0,19.0,1.0,201.33372059999965,,,,,,,,,,,,,,,,,201.3203200000571,201.68420950009025,202.48393300001044,202.46867570001632,,,,,,,,,,,,,,,,,,,,,,,,,,,,,,,,,,,202.4720695000142,202.48393300001044,202.48393300001044,203.06867130007595,r,1.0,0.5680481999879703,,,,,,sub-005,1,stroop_test,59.84003559699745,
,,,,20.0,8.0,1.0,,,,,,,,,,,,,rot,red,r,1.0,r,1.0,0.3945993999950588,,,,,,,,,,1.0,8.0,20.0,0.0,203.08378510002512,,,,,,,,,,,,,,,,,203.0691180001013,203.4339408000233,204.2337103000609,204.21823080000468,,,,,,,,,,,,,,,,,,,,,,,,,,,,,,,,,,,204.2188618000364,204.2337103000609,204.2337103000609,204.63549170002807,r,1.0,0.3945993999950588,,,,,,sub-005,1,stroop_test,59.84003559699745,
,,,,21.0,9.0,1.0,,,,,,,,,,,,,gelb,blue,b,0.0,b,1.0,2.116240800009109,,,,,,,,,,1.0,9.0,21.0,9.0,204.65032950008757,,,,,,,,,,,,,,,,,204.63603200006764,204.75051500007976,205.55027430003972,205.53517829999328,,,,,,,,,,,,,,,,,,,,,,,,,,,,,,,,,,,205.5395200001076,205.55027430003972,205.55027430003972,207.66954740008805,b,1.0,2.116240800009109,,,,,,sub-005,1,stroop_test,59.84003559699745,
,,,,22.0,10.0,1.0,,,,,,,,,,,,,blau,red,r,0.0,r,1.0,1.4847326000453904,,,,,,,,,,1.0,10.0,22.0,4.0,207.68365310004447,,,,,,,,,,,,,,,,,207.6700077001005,208.4836130000185,209.28405740007287,209.26871570001825,,,,,,,,,,,,,,,,,,,,,,,,,,,,,,,,,,,209.27266820007932,209.28405740007287,209.28405740007287,210.78594990004785,r,1.0,1.4847326000453904,,,,,,sub-005,1,stroop_test,59.84003559699745,
,,,,23.0,11.0,1.0,,,,,,,,,,,,,gelb,yellow,g,1.0,g,1.0,0.6540041000116616,,,,,,,,,,1.0,11.0,23.0,11.0,210.80061999999447,,,,,,,,,,,,,,,,,210.78643780003767,210.9002928000409,211.7008245000616,211.68570840009488,,,,,,,,,,,,,,,,,,,,,,,,,,,,,,,,,,,211.6900686000008,211.7008245000616,211.7008245000616,212.37046990008093,g,1.0,0.6540041000116616,,,,,,sub-005,1,stroop_test,59.84003559699745,
,,,,24.0,0.0,2.0,,,,,,,,,,,,,blau,red,r,0.0,r,1.0,0.915945400018245,,,,,,,,,,2.0,0.0,24.0,4.0,212.3833818000276,,,,,,,,,,,,,,,,,212.3710839000996,212.4837825000286,213.28340300009583,213.2676479000365,,,,,,,,,,,,,,,,,,,,,,,,,,,,,,,,,,,213.2707104000729,213.28340300009583,213.28340300009583,214.2025113001,r,1.0,0.915945400018245,,,,,,sub-005,1,stroop_test,59.84003559699745,
,,,,25.0,1.0,2.0,,,,,,,,,,,,,gelb,yellow,g,1.0,g,1.0,0.5904833000386134,,,,,,,,,,2.0,1.0,25.0,10.0,214.2167239000555,,,,,,,,,,,,,,,,,214.2030599000864,214.31684640003368,215.11710530007255,215.10223360010423,,,,,,,,,,,,,,,,,,,,,,,,,,,,,,,,,,,215.10630770004357,215.11710530007255,215.11710530007255,215.71838140010368,g,1.0,0.5904833000386134,,,,,,sub-005,1,stroop_test,59.84003559699745,
,,,,26.0,2.0,2.0,,,,,,,,,,,,,rot,red,r,1.0,r,1.0,0.4926427999744192,,,,,,,,,,2.0,2.0,26.0,1.0,215.7333083000267,,,,,,,,,,,,,,,,,215.71873080008663,215.83336540008892,216.63361840008287,216.6188037000829,,,,,,,,,,,,,,,,,,,,,,,,,,,,,,,,,,,216.6227390000131,216.63361840008287,216.63361840008287,217.13646760000847,r,1.0,0.4926427999744192,,,,,,sub-005,1,stroop_test,59.84003559699745,
,,,,27.0,3.0,2.0,,,,,,,,,,,,,rot,red,r,1.0,r,1.0,0.4640502999536693,,,,,,,,,,2.0,3.0,27.0,0.0,217.15017910010647,,,,,,,,,,,,,,,,,217.1371064000996,217.2504391000839,218.0501611001091,218.03553870006,,,,,,,,,,,,,,,,,,,,,,,,,,,,,,,,,,,218.03642990009396,218.0501611001091,218.0501611001091,218.5192583000753,r,1.0,0.4640502999536693,,,,,,sub-005,1,stroop_test,59.84003559699745,
,,,,28.0,4.0,2.0,,,,,,,,,,,,,rot,blue,b,0.0,b,1.0,0.8120408999966457,,,,,,,,,,2.0,4.0,28.0,2.0,218.5333845000714,,,,,,,,,,,,,,,,,218.519813299994,218.8836288000457,219.6835754000349,219.6685160000343,,,,,,,,,,,,,,,,,,,,,,,,,,,,,,,,,,,219.6699656000128,219.6835754000349,219.6835754000349,220.5018185999943,b,1.0,0.8120408999966457,,,,,,sub-005,1,stroop_test,59.84003559699745,
,,,,29.0,5.0,2.0,,,,,,,,,,,,,gelb,yellow,g,1.0,g,1.0,0.4369486999930814,,,,,,,,,,2.0,5.0,29.0,11.0,220.51674430002456,,,,,,,,,,,,,,,,,220.5022220000392,221.3167854000349,222.11690150003412,222.1015487000113,,,,,,,,,,,,,,,,,,,,,,,,,,,,,,,,,,,222.10586170002352,222.11690150003412,222.11690150003412,222.56969140004367,g,1.0,0.4369486999930814,,,,,,sub-005,1,stroop_test,59.84003559699745,
,,,,30.0,6.0,2.0,,,,,,,,,,,,,gelb,red,r,0.0,g,0.0,0.3898264999734238,,,,,,,,,,2.0,6.0,30.0,8.0,222.5833409000188,,,,,,,,,,,,,,,,,222.5702480000909,222.9335979000898,223.7334302000236,223.71886710007675,,,,,,,,,,,,,,,,,,,,,,,,,,,,,,,,,,,223.71978420007508,223.7334302000236,223.7334302000236,224.1350878000958,g,0.0,0.3898264999734238,,,,,,sub-005,1,stroop_test,59.84003559699745,
,,,,31.0,7.0,2.0,,,,,,,,,,,,,blau,blue,b,1.0,b,1.0,0.7152200000127777,,,,,,,,,,2.0,7.0,31.0,5.0,224.14987409999597,,,,,,,,,,,,,,,,,224.13553780002985,224.25031970010605,225.0500356000848,225.0350362000754,,,,,,,,,,,,,,,,,,,,,,,,,,,,,,,,,,,225.04026890010573,225.0500356000848,225.0500356000848,225.76993160007987,b,1.0,0.7152200000127777,,,,,,sub-005,1,stroop_test,59.84003559699745,
,,,,32.0,8.0,2.0,,,,,,,,,,,,,rot,yellow,g,0.0,g,1.0,1.0545726000564173,,,,,,,,,,2.0,8.0,32.0,3.0,225.78339090000367,,,,,,,,,,,,,,,,,225.7704642000608,226.98348100006115,227.78349640010856,227.76718760002404,,,,,,,,,,,,,,,,,,,,,,,,,,,,,,,,,,,227.76970500010063,227.78349640010856,227.78349640010856,228.8519309000112,g,1.0,1.0545726000564173,,,,,,sub-005,1,stroop_test,59.84003559699745,
,,,,33.0,9.0,2.0,,,,,,,,,,,,,blau,yellow,g,0.0,g,1.0,1.0641820000018924,,,,,,,,,,2.0,9.0,33.0,7.0,228.86682200001087,,,,,,,,,,,,,,,,,228.8523848000914,229.2170929000713,230.01712930004575,230.00232900003903,,,,,,,,,,,,,,,,,,,,,,,,,,,,,,,,,,,230.00720620003997,230.01712930004575,230.01712930004575,231.08692860009612,g,1.0,1.0641820000018924,,,,,,sub-005,1,stroop_test,59.84003559699745,
,,,,34.0,10.0,2.0,,,,,,,,,,,,,blau,blue,b,1.0,b,1.0,0.5562984000425786,,,,,,,,,,2.0,10.0,34.0,6.0,231.10194060008507,,,,,,,,,,,,,,,,,231.0875525000738,232.30023470008743,233.10010780009907,233.08512610010803,,,,,,,,,,,,,,,,,,,,,,,,,,,,,,,,,,,233.086033700034,233.10010780009907,233.10010780009907,233.669065300026,b,1.0,0.5562984000425786,,,,,,sub-005,1,stroop_test,59.84003559699745,
,,,,35.0,11.0,2.0,,,,,,,,,,,,,gelb,blue,b,0.0,b,1.0,1.412778800004162,,,,,,,,,,2.0,11.0,35.0,9.0,233.6840734001016,,,,,,,,,,,,,,,,,233.6695621000836,233.78354870004117,234.58346940006595,234.56864860001951,,,,,,,,,,,,,,,,,,,,,,,,,,,,,,,,,,,234.57210770004892,234.58346940006595,234.58346940006595,236.00196070002855,b,1.0,1.412778800004162,,,,,,sub-005,1,stroop_test,59.84003559699745,
,,,,36.0,0.0,3.0,,,,,,,,,,,,,rot,blue,b,0.0,b,1.0,0.8817090999800712,,,,,,,,,,3.0,0.0,36.0,2.0,236.01670300005932,,,,,,,,,,,,,,,,,236.00245340005492,236.366940200096,237.16662530007304,237.1541533001,,,,,,,,,,,,,,,,,,,,,,,,,,,,,,,,,,,237.1583338000346,237.16662530007304,237.16662530007304,238.05288000009023,b,1.0,0.8817090999800712,,,,,,sub-005,1,stroop_test,59.84003559699745,
,,,,37.0,1.0,3.0,,,,,,,,,,,,,gelb,yellow,g,1.0,g,1.0,0.8849801999749616,,,,,,,,,,3.0,1.0,37.0,11.0,238.06661110010464,,,,,,,,,,,,,,,,,238.0536032000091,238.86721370008308,239.66702020005323,239.6520108000841,,,,,,,,,,,,,,,,,,,,,,,,,,,,,,,,,,,239.65537210006727,239.66702020005323,239.66702020005323,240.56863950006664,g,1.0,0.8849801999749616,,,,,,sub-005,1,stroop_test,59.84003559699745,
,,,,38.0,2.0,3.0,,,,,,,,,,,,,rot,red,r,1.0,r,1.0,0.3730743000051006,,,,,,,,,,3.0,2.0,38.0,0.0,240.58360400004312,,,,,,,,,,,,,,,,,240.5692019000417,241.7833928000182,242.58374580007512,242.5688636000268,,,,,,,,,,,,,,,,,,,,,,,,,,,,,,,,,,,242.57357700006105,242.58374580007512,242.58374580007512,242.96941630006768,r,1.0,0.3730743000051006,,,,,,sub-005,1,stroop_test,59.84003559699745,
,,,,39.0,3.0,3.0,,,,,,,,,,,,,blau,blue,b,1.0,b,1.0,0.5296813999302685,,,,,,,,,,3.0,3.0,39.0,5.0,242.98372990009372,,,,,,,,,,,,,,,,,242.970060700085,243.7835608000169,244.58401940006297,244.56747770006768,,,,,,,,,,,,,,,,,,,,,,,,,,,,,,,,,,,244.5709952000761,244.58401940006297,244.58401940006297,245.12093140010256,b,1.0,0.5296813999302685,,,,,,sub-005,1,stroop_test,59.84003559699745,
,,,,40.0,4.0,3.0,,,,,,,,,,,,,rot,yellow,g,0.0,g,1.0,0.8746975000249222,,,,,,,,,,3.0,4.0,40.0,3.0,245.1335087000625,,,,,,,,,,,,,,,,,245.12155520007943,245.2335967000108,246.03363020007964,246.018676900072,,,,,,,,,,,,,,,,,,,,,,,,,,,,,,,,,,,246.02212040009908,246.03363020007964,246.03363020007964,246.9187252999982,g,1.0,0.8746975000249222,,,,,,sub-005,1,stroop_test,59.84003559699745,
,,,,41.0,5.0,3.0,,,,,,,,,,,,,gelb,yellow,g,1.0,g,1.0,0.7097391000716016,,,,,,,,,,3.0,5.0,41.0,10.0,246.9336024000077,,,,,,,,,,,,,,,,,246.9191989999963,247.73366600007284,248.53332690009847,248.51856380002573,,,,,,,,,,,,,,,,,,,,,,,,,,,,,,,,,,,248.52239090006333,248.53332690009847,248.53332690009847,249.25190650008156,g,1.0,0.7097391000716016,,,,,,sub-005,1,stroop_test,59.84003559699745,
,,,,42.0,6.0,3.0,,,,,,,,,,,,,blau,red,r,0.0,r,1.0,0.5530659999931231,,,,,,,,,,3.0,6.0,42.0,4.0,249.26678810000885,,,,,,,,,,,,,,,,,249.2522927999962,250.06704470003024,250.8667324000271,250.8515648000175,,,,,,,,,,,,,,,,,,,,,,,,,,,,,,,,,,,250.85562960000243,250.8667324000271,250.8667324000271,251.4359751000302,r,1.0,0.5530659999931231,,,,,,sub-005,1,stroop_test,59.84003559699745,
,,,,43.0,7.0,3.0,,,,,,,,,,,,,gelb,red,r,0.0,r,1.0,0.4504848999204114,,,,,,,,,,3.0,7.0,43.0,8.0,251.45024500007275,,,,,,,,,,,,,,,,,251.4365066000028,252.65010880003683,253.4500899000559,253.4352478000801,,,,,,,,,,,,,,,,,,,,,,,,,,,,,,,,,,,253.4397937000031,253.4500899000559,253.4500899000559,253.9030196000822,r,1.0,0.4504848999204114,,,,,,sub-005,1,stroop_test,59.84003559699745,
,,,,44.0,8.0,3.0,,,,,,,,,,,,,blau,blue,b,1.0,b,1.0,0.6136844999855384,,,,,,,,,,3.0,8.0,44.0,6.0,253.9169543000171,,,,,,,,,,,,,,,,,253.9036268000491,255.11647820007056,255.9166923000012,255.9018638000125,,,,,,,,,,,,,,,,,,,,,,,,,,,,,,,,,,,255.9059870000929,255.9166923000012,255.9166923000012,256.53630050003994,b,1.0,0.6136844999855384,,,,,,sub-005,1,stroop_test,59.84003559699745,
,,,,45.0,9.0,3.0,,,,,,,,,,,,,blau,yellow,g,0.0,g,1.0,0.9675363999558612,,,,,,,,,,3.0,9.0,45.0,7.0,256.5501018000068,,,,,,,,,,,,,,,,,256.53686940006446,257.3499876999995,258.1502654000651,258.13428530003875,,,,,,,,,,,,,,,,,,,,,,,,,,,,,,,,,,,258.1349304000614,258.1502654000651,258.1502654000651,259.1207906000782,g,1.0,0.9675363999558612,,,,,,sub-005,1,stroop_test,59.84003559699745,
,,,,46.0,10.0,3.0,,,,,,,,,,,,,rot,red,r,1.0,r,1.0,0.6101905999239534,,,,,,,,,,3.0,10.0,46.0,1.0,259.1332278000191,,,,,,,,,,,,,,,,,259.12132440006826,259.4835032999981,260.2835390000837,260.26765410008375,,,,,,,,,,,,,,,,,,,,,,,,,,,,,,,,,,,260.271294800099,260.2835390000837,260.2835390000837,260.90279850002844,r,1.0,0.6101905999239534,,,,,,sub-005,1,stroop_test,59.84003559699745,
,,,,47.0,11.0,3.0,,,,,,,,,,,,,gelb,blue,b,0.0,g,0.0,0.7504999999655411,,,,,,,,,,3.0,11.0,47.0,9.0,260.9167633000761,,,,,,,,,,,,,,,,,260.90339089999907,261.0170715000713,261.8167069000192,261.80193170008715,,,,,,,,,,,,,,,,,,,,,,,,,,,,,,,,,,,261.806830800022,261.8167069000192,261.8167069000192,262.5722910000477,g,0.0,0.7504999999655411,,,,,,sub-005,1,stroop_test,59.84003559699745,
,,,,48.0,0.0,4.0,,,,,,,,,,,,,gelb,red,r,0.0,g,0.0,0.5438100000610575,,,,,,,,,,4.0,0.0,48.0,8.0,262.58351990010124,,,,,,,,,,,,,,,,,262.5728585000616,262.9334990000352,263.7336345000658,263.71846450003795,,,,,,,,,,,,,,,,,,,,,,,,,,,,,,,,,,,263.7197469000239,263.7336345000658,263.7336345000658,264.28640680003446,g,0.0,0.5438100000610575,,,,,,sub-005,1,stroop_test,59.84003559699745,
,,,,49.0,1.0,4.0,,,,,,,,,,,,,rot,red,r,1.0,r,1.0,0.611323699937202,,,,,,,,,,4.0,1.0,49.0,0.0,264.29996150010265,,,,,,,,,,,,,,,,,264.28711420006584,264.40008110005874,265.2002056000056,265.1841228000121,,,,,,,,,,,,,,,,,,,,,,,,,,,,,,,,,,,265.1879950000439,265.2002056000056,265.2002056000056,265.8185697000008,r,1.0,0.611323699937202,,,,,,sub-005,1,stroop_test,59.84003559699745,
,,,,50.0,2.0,4.0,,,,,,,,,,,,,rot,yellow,g,0.0,r,0.0,0.6827247999608517,,,,,,,,,,4.0,2.0,50.0,3.0,265.8334496000316,,,,,,,,,,,,,,,,,265.8190200000536,267.0334374000085,267.83348600007594,267.8175635000225,,,,,,,,,,,,,,,,,,,,,,,,,,,,,,,,,,,267.81818669999484,267.83348600007594,267.83348600007594,268.52036680001765,r,0.0,0.6827247999608517,,,,,,sub-005,1,stroop_test,59.84003559699745,
,,,,51.0,3.0,4.0,,,,,,,,,,,,,rot,blue,b,0.0,r,0.0,0.8835602999897674,,,,,,,,,,4.0,3.0,51.0,2.0,268.5333516000537,,,,,,,,,,,,,,,,,268.5209912999999,269.73302590008825,270.53369120007847,270.5192281000782,,,,,,,,,,,,,,,,,,,,,,,,,,,,,,,,,,,270.5198816000484,270.53369120007847,270.53369120007847,271.42157190002035,r,0.0,0.8835602999897674,,,,,,sub-005,1,stroop_test,59.84003559699745,
,,,,52.0,4.0,4.0,,,,,,,,,,,,,gelb,blue,b,0.0,g,0.0,0.5145476000616327,,,,,,,,,,4.0,4.0,52.0,9.0,271.43341020005755,,,,,,,,,,,,,,,,,271.42200170003343,272.6335486000171,273.4328658001032,273.41810710006393,,,,,,,,,,,,,,,,,,,,,,,,,,,,,,,,,,,273.42209300003015,273.4328658001032,273.4328658001032,273.95218570006546,g,0.0,0.5145476000616327,,,,,,sub-005,1,stroop_test,59.84003559699745,
,,,,53.0,5.0,4.0,,,,,,,,,,,,,blau,yellow,g,0.0,g,1.0,1.0682850999291986,,,,,,,,,,4.0,5.0,53.0,7.0,273.9664820000762,,,,,,,,,,,,,,,,,273.9527092000935,274.06677999999374,274.86675120005384,274.85056190006435,,,,,,,,,,,,,,,,,,,,,,,,,,,,,,,,,,,274.8535746000707,274.86675120005384,274.86675120005384,275.95199530001264,g,1.0,1.0682850999291986,,,,,,sub-005,1,stroop_test,59.84003559699745,
,,,,54.0,6.0,4.0,,,,,,,,,,,,,blau,blue,b,1.0,b,1.0,0.6599277999484912,,,,,,,,,,4.0,6.0,54.0,5.0,275.96619000006467,,,,,,,,,,,,,,,,,275.95262009999715,276.31661410001107,277.1168918000767,277.10120460006874,,,,,,,,,,,,,,,,,,,,,,,,,,,,,,,,,,,277.10197090008296,277.1168918000767,277.1168918000767,277.78552200004924,b,1.0,0.6599277999484912,,,,,,sub-005,1,stroop_test,59.84003559699745,
,,,,55.0,7.0,4.0,,,,,,,,,,,,,blau,blue,b,1.0,b,1.0,0.5370346000418067,,,,,,,,,,4.0,7.0,55.0,6.0,277.7995196999982,,,,,,,,,,,,,,,,,277.7860059000086,278.60007390007377,279.3994841000531,279.3844722000649,,,,,,,,,,,,,,,,,,,,,,,,,,,,,,,,,,,279.3852758000139,279.3994841000531,279.3994841000531,279.9515937000979,b,1.0,0.5370346000418067,,,,,,sub-005,1,stroop_test,59.84003559699745,
,,,,56.0,8.0,4.0,,,,,,,,,,,,,rot,red,r,1.0,r,1.0,0.4795710999751463,,,,,,,,,,4.0,8.0,56.0,1.0,279.9664421000052,,,,,,,,,,,,,,,,,279.95213079999667,281.1667100000195,281.96627309999894,281.95081110007595,,,,,,,,,,,,,,,,,,,,,,,,,,,,,,,,,,,281.95384980004746,281.96627309999894,281.96627309999894,282.4521110000788,r,1.0,0.4795710999751463,,,,,,sub-005,1,stroop_test,59.84003559699745,
,,,,57.0,9.0,4.0,,,,,,,,,,,,,gelb,yellow,g,1.0,g,1.0,0.5827510999515653,,,,,,,,,,4.0,9.0,57.0,11.0,282.466198900016,,,,,,,,,,,,,,,,,282.4527231000829,282.5661187000805,283.36664360004943,283.3498210000107,,,,,,,,,,,,,,,,,,,,,,,,,,,,,,,,,,,283.351933100028,283.36664360004943,283.36664360004943,283.9532380000456,g,1.0,0.5827510999515653,,,,,,sub-005,1,stroop_test,59.84003559699745,
,,,,58.0,10.0,4.0,,,,,,,,,,,,,blau,red,r,0.0,r,1.0,0.8585113999433815,,,,,,,,,,4.0,10.0,58.0,4.0,283.96644410002045,,,,,,,,,,,,,,,,,283.9539335001027,284.0664193000412,284.8664031000808,284.85066850006115,,,,,,,,,,,,,,,,,,,,,,,,,,,,,,,,,,,284.8548628001008,284.8664031000808,284.8664031000808,285.735488000093,r,1.0,0.8585113999433815,,,,,,sub-005,1,stroop_test,59.84003559699745,
,,,,59.0,11.0,4.0,,,,,,,,,,,,,gelb,yellow,g,1.0,g,1.0,0.6050464999862015,,,,,,,,,,4.0,11.0,59.0,10.0,285.7497967000818,,,,,,,,,,,,,,,,,285.73601880006026,286.95006649999414,287.7496933999937,287.73502330004703,,,,,,,,,,,,,,,,,,,,,,,,,,,,,,,,,,,287.74008520005737,287.7496933999937,287.7496933999937,288.3694115000544,g,1.0,0.6050464999862015,,,,,,sub-005,1,stroop_test,59.84003559699745,
,,,,60.0,0.0,5.0,,,,,,,,,,,,,rot,red,r,1.0,r,1.0,0.5752130000619218,,,,,,,,,,5.0,0.0,60.0,1.0,288.3826702000806,,,,,,,,,,,,,,,,,288.37006410001777,288.483304399997,289.28340710001066,289.26760600006673,,,,,,,,,,,,,,,,,,,,,,,,,,,,,,,,,,,289.27071840001736,289.28340710001066,289.28340710001066,289.86902640003245,r,1.0,0.5752130000619218,,,,,,sub-005,1,stroop_test,59.84003559699745,
,,,,61.0,1.0,5.0,,,,,,,,,,,,,blau,yellow,g,0.0,g,1.0,1.183892000000924,,,,,,,,,,5.0,1.0,61.0,7.0,289.88307940005325,,,,,,,,,,,,,,,,,289.8696155000944,290.23347190010827,291.0329462999944,291.0177142000757,,,,,,,,,,,,,,,,,,,,,,,,,,,,,,,,,,,291.021758900024,291.0329462999944,291.0329462999944,292.219302100013,g,1.0,1.183892000000924,,,,,,sub-005,1,stroop_test,59.84003559699745,
,,,,62.0,2.0,5.0,,,,,,,,,,,,,gelb,yellow,g,1.0,g,1.0,0.5121373999863863,,,,,,,,,,5.0,2.0,62.0,10.0,292.2329490000848,,,,,,,,,,,,,,,,,292.21976250002626,292.3331099000061,293.13300570007414,293.1175425000256,,,,,,,,,,,,,,,,,,,,,,,,,,,,,,,,,,,293.1211280000862,293.13300570007414,293.13300570007414,293.651455400046,g,1.0,0.5121373999863863,,,,,,sub-005,1,stroop_test,59.84003559699745,
,,,,63.0,3.0,5.0,,,,,,,,,,,,,gelb,red,r,0.0,r,1.0,0.7894778000190854,,,,,,,,,,5.0,3.0,63.0,8.0,293.6662488000002,,,,,,,,,,,,,,,,,293.6520333000226,294.0163753000088,294.8167977000121,294.8016491000308,,,,,,,,,,,,,,,,,,,,,,,,,,,,,,,,,,,294.80235500005074,294.8167977000121,294.8167977000121,295.6189388000639,r,1.0,0.7894778000190854,,,,,,sub-005,1,stroop_test,59.84003559699745,
,,,,64.0,4.0,5.0,,,,,,,,,,,,,rot,red,r,1.0,r,1.0,0.7079238999867812,,,,,,,,,,5.0,4.0,64.0,0.0,295.63317360007204,,,,,,,,,,,,,,,,,295.61948440002743,295.7328530000523,296.5332085000118,296.518347300007,,,,,,,,,,,,,,,,,,,,,,,,,,,,,,,,,,,296.5231335000135,296.5332085000118,296.5332085000118,297.2521350000752,r,1.0,0.7079238999867812,,,,,,sub-005,1,stroop_test,59.84003559699745,
,,,,65.0,5.0,5.0,,,,,,,,,,,,,blau,blue,b,1.0,b,1.0,0.5278189999517053,,,,,,,,,,5.0,5.0,65.0,6.0,297.26622150000185,,,,,,,,,,,,,,,,,297.2526739001041,298.0665198001079,298.86647460004315,298.85119400010444,,,,,,,,,,,,,,,,,,,,,,,,,,,,,,,,,,,298.85551470005885,298.86647460004315,298.86647460004315,299.4010266000405,b,1.0,0.5278189999517053,,,,,,sub-005,1,stroop_test,59.84003559699745,
,,,,66.0,6.0,5.0,,,,,,,,,,,,,rot,yellow,g,0.0,g,1.0,0.7952562000136822,,,,,,,,,,5.0,6.0,66.0,3.0,299.4162982000271,,,,,,,,,,,,,,,,,299.4015251999954,300.6000634999946,301.39956730010454,301.38337700010743,,,,,,,,,,,,,,,,,,,,,,,,,,,,,,,,,,,301.38660070009064,301.39956730010454,301.39956730010454,302.20120620005764,g,1.0,0.7952562000136822,,,,,,sub-005,1,stroop_test,59.84003559699745,
,,,,67.0,7.0,5.0,,,,,,,,,,,,,blau,red,r,0.0,b,0.0,0.5941692000487819,,,,,,,,,,5.0,7.0,67.0,4.0,302.2163394000381,,,,,,,,,,,,,,,,,302.20164420001674,303.41635290009435,304.21646970009897,304.2012681000633,,,,,,,,,,,,,,,,,,,,,,,,,,,,,,,,,,,304.20619850000367,304.21646970009897,304.21646970009897,304.81809509999584,b,0.0,0.5941692000487819,,,,,,sub-005,1,stroop_test,59.84003559699745,
,,,,68.0,8.0,5.0,,,,,,,,,,,,,gelb,blue,b,0.0,b,1.0,1.706473400001414,,,,,,,,,,5.0,8.0,68.0,9.0,304.8328029999975,,,,,,,,,,,,,,,,,304.81856030004565,304.9331615000265,305.7328776000068,305.71764280006755,,,,,,,,,,,,,,,,,,,,,,,,,,,,,,,,,,,305.7216928000562,305.7328776000068,305.7328776000068,307.45092650002334,b,1.0,1.706473400001414,,,,,,sub-005,1,stroop_test,59.84003559699745,
,,,,69.0,9.0,5.0,,,,,,,,,,,,,blau,blue,b,1.0,b,1.0,0.7017900999635458,,,,,,,,,,5.0,9.0,69.0,5.0,307.4662957000546,,,,,,,,,,,,,,,,,307.4513338000979,307.8161687999964,308.61637060006615,308.60174660000484,,,,,,,,,,,,,,,,,,,,,,,,,,,,,,,,,,,308.6062965000747,308.61637060006615,308.61637060006615,309.3356542000547,b,1.0,0.7017900999635458,,,,,,sub-005,1,stroop_test,59.84003559699745,
,,,,70.0,10.0,5.0,,,,,,,,,,,,,rot,blue,b,0.0,b,1.0,1.5178993999725208,,,,,,,,,,5.0,10.0,70.0,2.0,309.3494270000374,,,,,,,,,,,,,,,,,309.33622560009826,309.6994488000637,310.4996851000469,310.48405920004006,,,,,,,,,,,,,,,,,,,,,,,,,,,,,,,,,,,310.4875030000694,310.4996851000469,310.4996851000469,312.035724000074,b,1.0,1.5178993999725208,,,,,,sub-005,1,stroop_test,59.84003559699745,
,,,,71.0,11.0,5.0,,,,,,,,,,,,,gelb,yellow,g,1.0,g,1.0,0.8184750999789685,,,,,,,,,,5.0,11.0,71.0,11.0,312.0514348000288,,,,,,,,,,,,,,,,,312.03629610000644,312.1492846000474,312.94943470007274,312.93402360007167,,,,,,,,,,,,,,,,,,,,,,,,,,,,,,,,,,,312.9381727,312.94943470007274,312.94943470007274,313.7851632999955,g,1.0,0.8184750999789685,,,,,,sub-005,1,stroop_test,59.84003559699745,
,,,,72.0,0.0,6.0,,,,,,,,,,,,,gelb,red,r,0.0,r,1.0,0.8038698999444023,,,,,,,,,,6.0,0.0,72.0,8.0,313.7993833000073,,,,,,,,,,,,,,,,,313.78571030008607,314.14924000005703,314.94948800001293,314.9338641000213,,,,,,,,,,,,,,,,,,,,,,,,,,,,,,,,,,,314.93447199999355,314.94948800001293,314.94948800001293,315.7682640000712,r,1.0,0.8038698999444023,,,,,,sub-005,1,stroop_test,59.84003559699745,
,,,,73.0,1.0,6.0,,,,,,,,,,,,,blau,red,r,0.0,b,0.0,0.7661887999856845,,,,,,,,,,6.0,1.0,73.0,4.0,315.7826976000797,,,,,,,,,,,,,,,,,315.768732800032,316.1329544000328,316.93294060009066,316.9168792000273,,,,,,,,,,,,,,,,,,,,,,,,,,,,,,,,,,,316.91987570002675,316.93294060009066,316.93294060009066,317.7012521000579,b,0.0,0.7661887999856845,,,,,,sub-005,1,stroop_test,59.84003559699745,
,,,,74.0,2.0,6.0,,,,,,,,,,,,,gelb,yellow,g,1.0,g,1.0,0.6312134999316186,,,,,,,,,,6.0,2.0,74.0,10.0,317.7159475000808,,,,,,,,,,,,,,,,,317.7016795000527,318.51622570003383,319.31613550009206,319.3010107000591,,,,,,,,,,,,,,,,,,,,,,,,,,,,,,,,,,,319.3056211000076,319.31613550009206,319.31613550009206,319.9522968000965,g,1.0,0.6312134999316186,,,,,,sub-005,1,stroop_test,59.84003559699745,
,,,,75.0,3.0,6.0,,,,,,,,,,,,,rot,yellow,g,0.0,g,1.0,1.366058100014925,,,,,,,,,,6.0,3.0,75.0,3.0,319.9660367000615,,,,,,,,,,,,,,,,,319.9529069000855,321.16621710010804,321.96594300004654,321.9503595000133,,,,,,,,,,,,,,,,,,,,,,,,,,,,,,,,,,,321.95594760007225,321.96594300004654,321.96594300004654,323.3353055000771,g,1.0,1.366058100014925,,,,,,sub-005,1,stroop_test,59.84003559699745,
,,,,76.0,4.0,6.0,,,,,,,,,,,,,blau,blue,b,1.0,b,1.0,0.4312080000527203,,,,,,,,,,6.0,4.0,76.0,5.0,323.3497983000707,,,,,,,,,,,,,,,,,323.33580180001445,324.14918980002403,324.9497196000302,324.9337508000899,,,,,,,,,,,,,,,,,,,,,,,,,,,,,,,,,,,324.93702260009013,324.9497196000302,324.9497196000302,325.3854898000136,b,1.0,0.4312080000527203,,,,,,sub-005,1,stroop_test,59.84003559699745,
,,,,77.0,5.0,6.0,,,,,,,,,,,,,gelb,blue,b,0.0,b,1.0,5.286438499926589,,,,,,,,,,6.0,5.0,77.0,9.0,325.3998160000192,,,,,,,,,,,,,,,,,325.38599520002026,326.5993375000544,327.39963580004405,327.3840196999954,,,,,,,,,,,,,,,,,,,,,,,,,,,,,,,,,,,327.3874574000947,327.39963580004405,327.39963580004405,332.70158520003315,b,1.0,5.286438499926589,,,,,,sub-005,1,stroop_test,59.84003559699745,
,,,,78.0,6.0,6.0,,,,,,,,,,,,,rot,red,r,1.0,r,1.0,0.5980660000350326,,,,,,,,,,6.0,6.0,78.0,0.0,332.7160016000271,,,,,,,,,,,,,,,,,332.7023498000344,333.9156493000919,334.7157009000657,334.70071720005944,,,,,,,,,,,,,,,,,,,,,,,,,,,,,,,,,,,334.7044484000653,334.7157009000657,334.7157009000657,335.3186422000872,r,1.0,0.5980660000350326,,,,,,sub-005,1,stroop_test,59.84003559699745,
,,,,79.0,7.0,6.0,,,,,,,,,,,,,rot,red,r,1.0,r,1.0,0.4967399999732151,,,,,,,,,,6.0,7.0,79.0,1.0,335.33239780005533,,,,,,,,,,,,,,,,,335.3192411001073,336.13265660009347,336.93245320010465,336.91786950000096,,,,,,,,,,,,,,,,,,,,,,,,,,,,,,,,,,,336.9187415000051,336.93245320010465,336.93245320010465,337.43573150003795,r,1.0,0.4967399999732151,,,,,,sub-005,1,stroop_test,59.84003559699745,
,,,,80.0,8.0,6.0,,,,,,,,,,,,,blau,blue,b,1.0,b,1.0,0.5365490999538451,,,,,,,,,,6.0,8.0,80.0,6.0,337.4491817000089,,,,,,,,,,,,,,,,,337.43635319999885,338.24921830010135,339.0489471000619,339.032714900095,,,,,,,,,,,,,,,,,,,,,,,,,,,,,,,,,,,339.03440270002466,339.0489471000619,339.0489471000619,339.60161800007336,b,1.0,0.5365490999538451,,,,,,sub-005,1,stroop_test,59.84003559699745,
,,,,81.0,9.0,6.0,,,,,,,,,,,,,blau,yellow,g,0.0,g,1.0,1.013690899941139,,,,,,,,,,6.0,9.0,81.0,7.0,339.61572820006404,,,,,,,,,,,,,,,,,339.602169000078,339.71587569999974,340.51622150000185,340.5007056000177,,,,,,,,,,,,,,,,,,,,,,,,,,,,,,,,,,,340.50149960001,340.51622150000185,340.51622150000185,341.53470750001725,g,1.0,1.013690899941139,,,,,,sub-005,1,stroop_test,59.84003559699745,
,,,,82.0,10.0,6.0,,,,,,,,,,,,,gelb,yellow,g,1.0,g,1.0,0.4203548999503255,,,,,,,,,,6.0,10.0,82.0,11.0,341.54918349999934,,,,,,,,,,,,,,,,,341.5351745000808,342.33253930008505,343.1329458000837,343.11756929999683,,,,,,,,,,,,,,,,,,,,,,,,,,,,,,,,,,,343.1212681001052,343.1329458000837,343.1329458000837,343.5671731000766,g,1.0,0.4203548999503255,,,,,,sub-005,1,stroop_test,59.84003559699745,
,,,,83.0,11.0,6.0,,,,,,,,,,,,,rot,blue,b,0.0,b,1.0,0.8720650000032037,,,,,,,,,,6.0,11.0,83.0,2.0,343.58323390001897,,,,,,,,,,,,,,,,,343.56763300008606,343.6824944000691,344.4825898000272,344.4673932000296,,,,,,,,,,,,,,,,,,,,,,,,,,,,,,,,,,,344.4721106000943,344.4825898000272,344.4825898000272,345.36789190000854,b,1.0,0.8720650000032037,,,,,,sub-005,1,stroop_test,59.84003559699745,
,,,,84.0,0.0,7.0,,,,,,,,,,,,,blau,blue,b,1.0,b,1.0,0.5199115000432357,,,,,,,,,,7.0,0.0,84.0,5.0,345.38269230001606,,,,,,,,,,,,,,,,,345.3683927000966,346.1826424000319,346.9824441000819,346.96729790000245,,,,,,,,,,,,,,,,,,,,,,,,,,,,,,,,,,,346.97222039999906,346.9824441000819,346.9824441000819,347.51857210008893,b,1.0,0.5199115000432357,,,,,,sub-005,1,stroop_test,59.84003559699745,
,,,,85.0,1.0,7.0,,,,,,,,,,,,,rot,red,r,1.0,r,1.0,0.6367851999821141,,,,,,,,,,7.0,1.0,85.0,0.0,347.53229850006755,,,,,,,,,,,,,,,,,347.519149400061,348.3331247000024,349.13261309999507,349.11785310006235,,,,,,,,,,,,,,,,,,,,,,,,,,,,,,,,,,,349.12208170001395,349.13261309999507,349.13261309999507,349.784295200021,r,1.0,0.6367851999821141,,,,,,sub-005,1,stroop_test,59.84003559699745,
,,,,86.0,2.0,7.0,,,,,,,,,,,,,blau,red,r,0.0,b,0.0,0.6207599000772461,,,,,,,,,,7.0,2.0,86.0,4.0,349.79904870002065,,,,,,,,,,,,,,,,,349.78474240005016,350.14878510008566,350.94906050001737,350.93374160001986,,,,,,,,,,,,,,,,,,,,,,,,,,,,,,,,,,,350.9377890001051,350.94906050001737,350.94906050001737,351.5844386999961,b,0.0,0.6207599000772461,,,,,,sub-005,1,stroop_test,59.84003559699745,
,,,,87.0,3.0,7.0,,,,,,,,,,,,,gelb,yellow,g,1.0,g,1.0,1.1367409999947995,,,,,,,,,,7.0,3.0,87.0,10.0,351.5990694001084,,,,,,,,,,,,,,,,,351.58488390001,352.3994254000718,353.1991191999987,353.1834512000205,,,,,,,,,,,,,,,,,,,,,,,,,,,,,,,,,,,353.1870806000661,353.1991191999987,353.1991191999987,354.3519010000164,g,1.0,1.1367409999947995,,,,,,sub-005,1,stroop_test,59.84003559699745,
,,,,88.0,4.0,7.0,,,,,,,,,,,,,gelb,red,r,0.0,b,0.0,0.8668071000138298,,,,,,,,,,7.0,4.0,88.0,8.0,354.36558770004194,,,,,,,,,,,,,,,,,354.35251710005105,354.4659865000285,355.26599740004167,355.2507850000402,,,,,,,,,,,,,,,,,,,,,,,,,,,,,,,,,,,355.25163430010434,355.26599740004167,355.26599740004167,356.13492720003705,b,0.0,0.8668071000138298,,,,,,sub-005,1,stroop_test,59.84003559699745,
,,,,89.0,5.0,7.0,,,,,,,,,,,,,gelb,blue,b,0.0,g,0.0,0.5373273000586778,,,,,,,,,,7.0,5.0,89.0,9.0,356.14921120007057,,,,,,,,,,,,,,,,,356.1353535000235,356.4991569000995,357.2990086000645,357.2840218000347,,,,,,,,,,,,,,,,,,,,,,,,,,,,,,,,,,,357.28482240007725,357.2990086000645,357.2990086000645,357.85128560010344,g,0.0,0.5373273000586778,,,,,,sub-005,1,stroop_test,59.84003559699745,
,,,,90.0,6.0,7.0,,,,,,,,,,,,,rot,red,r,1.0,g,0.0,1.0466705999569967,,,,,,,,,,7.0,6.0,90.0,1.0,357.8657865000423,,,,,,,,,,,,,,,,,357.8519115000963,358.6659657000564,359.4656994000543,359.45081680000294,,,,,,,,,,,,,,,,,,,,,,,,,,,,,,,,,,,359.4547306000022,359.4656994000543,359.4656994000543,360.5184856000124,g,0.0,1.0466705999569967,,,,,,sub-005,1,stroop_test,59.84003559699745,
,,,,91.0,7.0,7.0,,,,,,,,,,,,,rot,blue,b,0.0,r,0.0,0.7403324999613687,,,,,,,,,,7.0,7.0,91.0,2.0,360.5321570000378,,,,,,,,,,,,,,,,,360.51894130010623,360.6326363000553,361.43251630000304,361.417929999996,,,,,,,,,,,,,,,,,,,,,,,,,,,,,,,,,,,361.4187120000133,361.43251630000304,361.43251630000304,362.1845093000448,r,0.0,0.7403324999613687,,,,,,sub-005,1,stroop_test,59.84003559699745,
,,,,92.0,8.0,7.0,,,,,,,,,,,,,blau,blue,b,1.0,b,1.0,0.5486842999234796,,,,,,,,,,7.0,8.0,92.0,6.0,362.1992191000609,,,,,,,,,,,,,,,,,362.1850286000408,362.298933000071,363.0991096000653,363.0840795000549,,,,,,,,,,,,,,,,,,,,,,,,,,,,,,,,,,,363.0882819000399,363.0991096000653,363.0991096000653,363.6520513000432,b,1.0,0.5486842999234796,,,,,,sub-005,1,stroop_test,59.84003559699745,
,,,,93.0,9.0,7.0,,,,,,,,,,,,,gelb,yellow,g,1.0,g,1.0,0.6653362999204546,,,,,,,,,,7.0,9.0,93.0,11.0,363.66574460000265,,,,,,,,,,,,,,,,,363.6525935000973,364.8664424000308,365.6658314000815,365.6507003000006,,,,,,,,,,,,,,,,,,,,,,,,,,,,,,,,,,,365.6549214000115,365.6658314000815,365.6658314000815,366.3355163000524,g,1.0,0.6653362999204546,,,,,,sub-005,1,stroop_test,59.84003559699745,
,,,,94.0,10.0,7.0,,,,,,,,,,,,,rot,yellow,g,0.0,r,0.0,0.6050681000342593,,,,,,,,,,7.0,10.0,94.0,3.0,366.34932979999576,,,,,,,,,,,,,,,,,366.33600930008106,367.149256600067,367.9491209000116,367.9337801000802,,,,,,,,,,,,,,,,,,,,,,,,,,,,,,,,,,,367.9376283000456,367.9491209000116,367.9491209000116,368.5685125000309,r,0.0,0.6050681000342593,,,,,,sub-005,1,stroop_test,59.84003559699745,
,,,,95.0,11.0,7.0,,,,,,,,,,,,,blau,yellow,g,0.0,b,0.0,0.6047750000143424,,,,,,,,,,7.0,11.0,95.0,7.0,368.5824172000866,,,,,,,,,,,,,,,,,368.5692590000108,369.3826572000981,370.1824727000203,370.1675362000242,,,,,,,,,,,,,,,,,,,,,,,,,,,,,,,,,,,370.1724080001004,370.1824727000203,370.1824727000203,370.80149010010064,b,0.0,0.6047750000143424,,,,,,sub-005,1,stroop_test,59.84003559699745,
,,,,96.0,0.0,8.0,,,,,,,,,,,,,blau,red,r,0.0,b,0.0,0.8207329000579193,,,,,,,,,,8.0,0.0,96.0,4.0,370.8157271000091,,,,,,,,,,,,,,,,,370.8020483000437,370.9159739000024,371.715769900009,371.7009993999964,,,,,,,,,,,,,,,,,,,,,,,,,,,,,,,,,,,371.7017723000608,371.715769900009,371.715769900009,372.5507102000993,b,0.0,0.8207329000579193,,,,,,sub-005,1,stroop_test,59.84003559699745,
,,,,97.0,1.0,8.0,,,,,,,,,,,,,blau,blue,b,1.0,b,1.0,0.6407172000035644,,,,,,,,,,8.0,1.0,97.0,6.0,372.56551720004063,,,,,,,,,,,,,,,,,372.5511217000894,373.7655423000688,374.5657580000116,374.5499328000005,,,,,,,,,,,,,,,,,,,,,,,,,,,,,,,,,,,374.55046390008647,374.5657580000116,374.5657580000116,375.21634919999633,b,1.0,0.6407172000035644,,,,,,sub-005,1,stroop_test,59.84003559699745,
,,,,98.0,2.0,8.0,,,,,,,,,,,,,rot,yellow,g,0.0,r,0.0,0.6810424000723287,,,,,,,,,,8.0,2.0,98.0,3.0,375.23211130010895,,,,,,,,,,,,,,,,,375.21656860003714,376.01578840008005,376.81566720001865,376.80019560002256,,,,,,,,,,,,,,,,,,,,,,,,,,,,,,,,,,,376.80361390009057,376.81566720001865,376.81566720001865,377.501756700105,r,0.0,0.6810424000723287,,,,,,sub-005,1,stroop_test,59.84003559699745,
,,,,99.0,3.0,8.0,,,,,,,,,,,,,gelb,blue,b,0.0,g,0.0,2.471154500031844,,,,,,,,,,8.0,3.0,99.0,9.0,377.5155874000629,,,,,,,,,,,,,,,,,377.50220940005966,377.8657077000244,378.6655637000222,378.6501180001069,,,,,,,,,,,,,,,,,,,,,,,,,,,,,,,,,,,378.6538922000909,378.6655637000222,378.6655637000222,381.15102700004354,g,0.0,2.471154500031844,,,,,,sub-005,1,stroop_test,59.84003559699745,
,,,,100.0,4.0,8.0,,,,,,,,,,,,,rot,blue,b,0.0,r,0.0,1.3906487000640482,,,,,,,,,,8.0,4.0,100.0,2.0,381.1655417000875,,,,,,,,,,,,,,,,,381.1515029000584,381.51585850003175,382.3156342000002,382.3003777000122,,,,,,,,,,,,,,,,,,,,,,,,,,,,,,,,,,,382.3042391000781,382.3156342000002,382.3156342000002,383.7191481000045,r,0.0,1.3906487000640482,,,,,,sub-005,1,stroop_test,59.84003559699745,
,,,,101.0,5.0,8.0,,,,,,,,,,,,,rot,red,r,1.0,r,1.0,1.0150603000074625,,,,,,,,,,8.0,5.0,101.0,0.0,383.73234260000754,,,,,,,,,,,,,,,,,383.71978450007737,383.8323489000322,384.6321142000379,384.61664790008217,,,,,,,,,,,,,,,,,,,,,,,,,,,,,,,,,,,384.6172029000009,384.6321142000379,384.6321142000379,385.6513767000288,r,1.0,1.0150603000074625,,,,,,sub-005,1,stroop_test,59.84003559699745,
,,,,102.0,6.0,8.0,,,,,,,,,,,,,blau,blue,b,1.0,b,1.0,0.8643330000340939,,,,,,,,,,8.0,6.0,102.0,5.0,385.6654356000945,,,,,,,,,,,,,,,,,385.6518178000115,386.01557000004686,386.8155977000715,386.7998455000343,,,,,,,,,,,,,,,,,,,,,,,,,,,,,,,,,,,386.802692700061,386.8155977000715,386.8155977000715,387.68445290008094,b,1.0,0.8643330000340939,,,,,,sub-005,1,stroop_test,59.84003559699745,
,,,,103.0,7.0,8.0,,,,,,,,,,,,,gelb,red,r,0.0,g,0.0,3.361782200052403,,,,,,,,,,8.0,7.0,103.0,8.0,387.6985191000858,,,,,,,,,,,,,,,,,387.6851043000352,388.0489208000945,388.848890800029,388.8342027000617,,,,,,,,,,,,,,,,,,,,,,,,,,,,,,,,,,,388.8382045000326,388.848890800029,388.848890800029,392.2168362000957,g,0.0,3.361782200052403,,,,,,sub-005,1,stroop_test,59.84003559699745,
,,,,104.0,8.0,8.0,,,,,,,,,,,,,blau,yellow,g,0.0,b,0.0,1.7456904000137,,,,,,,,,,8.0,8.0,104.0,7.0,392.232200800092,,,,,,,,,,,,,,,,,392.2172764000716,392.5818920000456,393.38191750005353,393.3674534000456,,,,,,,,,,,,,,,,,,,,,,,,,,,,,,,,,,,393.3721088001039,393.38191750005353,393.38191750005353,395.1347893000348,b,0.0,1.7456904000137,,,,,,sub-005,1,stroop_test,59.84003559699745,
,,,,105.0,9.0,8.0,,,,,,,,,,,,,gelb,yellow,g,1.0,b,0.0,1.6822084999876097,,,,,,,,,,8.0,9.0,105.0,11.0,395.1486773000797,,,,,,,,,,,,,,,,,395.1353782000952,395.9487388000125,396.74879040010273,396.73329960007686,,,,,,,,,,,,,,,,,,,,,,,,,,,,,,,,,,,396.7367457000073,396.74879040010273,396.74879040010273,398.4356950999936,b,0.0,1.6822084999876097,,,,,,sub-005,1,stroop_test,59.84003559699745,
,,,,106.0,10.0,8.0,,,,,,,,,,,,,gelb,yellow,g,1.0,g,1.0,2.1881516999565065,,,,,,,,,,8.0,10.0,106.0,10.0,398.44848510005977,,,,,,,,,,,,,,,,,398.4362153999973,398.7986008001026,399.5985181001015,399.5822684000013,,,,,,,,,,,,,,,,,,,,,,,,,,,,,,,,,,,399.5826106000459,399.5985181001015,399.5985181001015,401.8009312000359,g,1.0,2.1881516999565065,,,,,,sub-005,1,stroop_test,59.84003559699745,
,,,,107.0,11.0,8.0,,,,,,,,,,,,,rot,red,r,1.0,r,1.0,0.8529779999516904,,,,,,,,,,8.0,11.0,107.0,1.0,401.8156236000359,,,,,,,,,,,,,,,,,401.8014919999987,403.01581190002616,403.8152302000672,403.7998812000733,,,,,,,,,,,,,,,,,,,,,,,,,,,,,,,,,,,403.8039804000873,403.8152302000672,403.8152302000672,404.6844150000252,r,1.0,0.8529779999516904,,,,,,sub-005,1,stroop_test,59.84003559699745,
,,,,108.0,0.0,9.0,,,,,,,,,,,,,gelb,red,r,0.0,g,0.0,1.3120964000700042,,,,,,,,,,9.0,0.0,108.0,8.0,404.6985708000138,,,,,,,,,,,,,,,,,404.68495690007694,405.0492385000689,405.8491095000645,405.834284700104,,,,,,,,,,,,,,,,,,,,,,,,,,,,,,,,,,,405.8400485001039,405.8491095000645,405.8491095000645,407.1677621999988,g,0.0,1.3120964000700042,,,,,,sub-005,1,stroop_test,59.84003559699745,
,,,,109.0,1.0,9.0,,,,,,,,,,,,,rot,red,r,1.0,r,1.0,0.5941861000610515,,,,,,,,,,9.0,1.0,109.0,0.0,407.1819636001019,,,,,,,,,,,,,,,,,407.16832490009256,408.3822035000194,409.1818945000414,409.1661126000108,,,,,,,,,,,,,,,,,,,,,,,,,,,,,,,,,,,409.1691757000517,409.1818945000414,409.1818945000414,409.7829701000592,r,1.0,0.5941861000610515,,,,,,sub-005,1,stroop_test,59.84003559699745,
,,,,110.0,2.0,9.0,,,,,,,,,,,,,blau,blue,b,1.0,b,1.0,0.3451512000756338,,,,,,,,,,9.0,2.0,110.0,5.0,409.79849190008827,,,,,,,,,,,,,,,,,409.7832704000175,410.9984400999965,411.7984808000037,411.7839584000176,,,,,,,,,,,,,,,,,,,,,,,,,,,,,,,,,,,411.7878520000959,411.7984808000037,411.7984808000037,412.1500866001006,b,1.0,0.3451512000756338,,,,,,sub-005,1,stroop_test,59.84003559699745,
,,,,111.0,3.0,9.0,,,,,,,,,,,,,rot,yellow,g,0.0,r,0.0,0.527089299983345,,,,,,,,,,9.0,3.0,111.0,3.0,412.1651505000191,,,,,,,,,,,,,,,,,412.15050880005583,413.3651802000823,414.1650638000574,414.1494856000645,,,,,,,,,,,,,,,,,,,,,,,,,,,,,,,,,,,414.1523800001014,414.1650638000574,414.1650638000574,414.7007265000138,r,0.0,0.527089299983345,,,,,,sub-005,1,stroop_test,59.84003559699745,
,,,,112.0,4.0,9.0,,,,,,,,,,,,,gelb,yellow,g,1.0,g,1.0,0.6358481000643224,,,,,,,,,,9.0,4.0,112.0,11.0,414.7152132000774,,,,,,,,,,,,,,,,,414.701161700068,414.8152135000564,415.6152336000232,415.5998825000133,,,,,,,,,,,,,,,,,,,,,,,,,,,,,,,,,,,415.604298200109,415.6152336000232,415.6152336000232,416.26758630003314,g,1.0,0.6358481000643224,,,,,,sub-005,1,stroop_test,59.84003559699745,
,,,,113.0,5.0,9.0,,,,,,,,,,,,,rot,blue,b,0.0,r,0.0,0.6323230999987572,,,,,,,,,,9.0,5.0,113.0,2.0,416.28212260000873,,,,,,,,,,,,,,,,,416.26812230004,417.081716200104,417.8818727000617,417.8664106000215,,,,,,,,,,,,,,,,,,,,,,,,,,,,,,,,,,,417.86972780001815,417.8818727000617,417.8818727000617,418.51826750009786,r,0.0,0.6323230999987572,,,,,,sub-005,1,stroop_test,59.84003559699745,
,,,,114.0,6.0,9.0,,,,,,,,,,,,,rot,red,r,1.0,r,1.0,0.6453919999767095,,,,,,,,,,9.0,6.0,114.0,1.0,418.5319237000076,,,,,,,,,,,,,,,,,418.5188320000889,419.7321691000834,420.5316058000317,420.5153939001029,,,,,,,,,,,,,,,,,,,,,,,,,,,,,,,,,,,420.5157991000451,420.5316058000317,420.5316058000317,421.18337760004215,r,1.0,0.6453919999767095,,,,,,sub-005,1,stroop_test,59.84003559699745,
,,,,115.0,7.0,9.0,,,,,,,,,,,,,blau,yellow,g,0.0,b,0.0,0.7779659000225365,,,,,,,,,,9.0,7.0,115.0,7.0,421.1982384000439,,,,,,,,,,,,,,,,,421.1837712000124,421.9991286000004,422.7983189000515,422.7836023001,,,,,,,,,,,,,,,,,,,,,,,,,,,,,,,,,,,422.7873692000285,422.7983189000515,422.7983189000515,423.58390510000754,b,0.0,0.7779659000225365,,,,,,sub-005,1,stroop_test,59.84003559699745,
,,,,116.0,8.0,9.0,,,,,,,,,,,,,gelb,blue,b,0.0,g,0.0,0.6484870000276715,,,,,,,,,,9.0,8.0,116.0,9.0,423.5985532000195,,,,,,,,,,,,,,,,,423.5843963000225,423.6984277000884,424.49829950009007,424.4834823000711,,,,,,,,,,,,,,,,,,,,,,,,,,,,,,,,,,,424.4876799000194,424.49829950009007,424.49829950009007,425.1498722000979,g,0.0,0.6484870000276715,,,,,,sub-005,1,stroop_test,59.84003559699745,
,,,,117.0,9.0,9.0,,,,,,,,,,,,,blau,red,r,0.0,r,1.0,1.100655300077051,,,,,,,,,,9.0,9.0,117.0,4.0,425.16512970009353,,,,,,,,,,,,,,,,,425.15023500006646,425.9650002000853,426.7651938000927,426.7500081000617,,,,,,,,,,,,,,,,,,,,,,,,,,,,,,,,,,,426.7541431999998,426.7651938000927,426.7651938000927,427.8685678000329,r,1.0,1.100655300077051,,,,,,sub-005,1,stroop_test,59.84003559699745,
,,,,118.0,10.0,9.0,,,,,,,,,,,,,gelb,yellow,g,1.0,g,1.0,0.9394556999905036,,,,,,,,,,9.0,10.0,118.0,10.0,427.8816224000184,,,,,,,,,,,,,,,,,427.8691262000939,428.6817436000565,429.4818095000228,429.4672675000038,,,,,,,,,,,,,,,,,,,,,,,,,,,,,,,,,,,429.4713165001013,429.4818095000228,429.4818095000228,430.434856900014,g,1.0,0.9394556999905036,,,,,,sub-005,1,stroop_test,59.84003559699745,
,,,,119.0,11.0,9.0,,,,,,,,,,,,,blau,blue,b,1.0,b,1.0,0.7209739000536501,,,,,,,,,,9.0,11.0,119.0,6.0,430.4482977000298,,,,,,,,,,,,,,,,,430.4354684000136,431.24857970001176,432.0482027000981,432.0336327000987,,,,,,,,,,,,,,,,,,,,,,,,,,,,,,,,,,,432.03777290007565,432.0482027000981,432.0482027000981,432.7829003999941,b,1.0,0.7209739000536501,,,,,,sub-005,1,stroop_test,59.84003559699745,
,,,,,,,,,,,,,,,,,,,,,,,,,,,,,,,,,,,,,,,,,,,,,,,,,,,,,,,,,,,,,,,,,,,,,,,,,,,,,,,,,,,,,,,,,,,,,,,,,,,,,,432.7831076000584,432.7983392000897,437.7984826000175,437.7820770000108,sub-005,1,stroop_test,59.84003559699745,
