wordCTK,colorCTK,corrAnsCTK,congruentCTK,thisN,thisTrialN,thisRepN,keyResp_CTK.keys,keyResp_CTK.corr,keyResp_CTK.rt,keyResp_CTK.duration,wordPractice,colorPractice,corrAnsPractice,congruentPractice,respPractice.keys,respPractice.corr,respPractice.rt,respPractice.duration,word,color,corrAns,congruent,keyResp_test_run.keys,keyResp_test_run.corr,keyResp_test_run.rt,keyResp_test_run.duration,trials_CTK.thisRepN,trials_CTK.thisTrialN,trials_CTK.thisN,trials_CTK.thisIndex,trials_practice.thisRepN,trials_practice.thisTrialN,trials_practice.thisN,trials_practice.thisIndex,trials_test.thisRepN,trials_test.thisTrialN,trials_test.thisN,trials_test.thisIndex,thisRow.t,notes,instruction.started,instr_text.started,instr_image.started,instr_resp.started,instruction.stopped,instr_resp.keys,instr_resp.rt,instr_resp.duration,instr_color_to_key.started,instr_ctk.started,resp_ctk.started,instr_color_to_key.stopped,resp_ctk.keys,resp_ctk.rt,resp_ctk.duration,ITI.started,fixcross.started,fixcross.stopped,ITI.stopped,color_to_key_run.started,stimulus_CTK.started,keyResp_CTK.started,color_to_key_run.stopped,trials_CTK.keyResp_CTK.keys,trials_CTK.keyResp_CTK.corr,trials_CTK.keyResp_CTK.rt,trials_CTK.keyResp_CTK.duration,instr_practice.started,instr_practice_text.started,instr_practice_resp.started,instr_practice.stopped,instr_practice_resp.keys,instr_practice_resp.rt,instr_practice_resp.duration,practice_run.started,stimulus_practice.started,respPractice.started,practice_run.stopped,trials_practice.respPractice.keys,trials_practice.respPractice.corr,trials_practice.respPractice.rt,trials_practice.respPractice.duration,feedback.started,textFeedback.started,feedback.stopped,textFeedback.stopped,instr_test.started,instr_test_text.started,instr_test_resp.started,instr_test.stopped,instr_test_resp.keys,instr_test_resp.rt,instr_test_resp.duration,test_run.started,stimulus_test_run.started,keyResp_test_run.started,test_run.stopped,trials_test.keyResp_test_run.keys,trials_test.keyResp_test_run.corr,trials_test.keyResp_test_run.rt,trials_test.keyResp_test_run.duration,goodbye.started,textGoodbye.started,textGoodbye.stopped,goodbye.stopped,participant,session,expName,frameRate,Unnamed: 113
,,,,,,,,,,,,,,,,,,,,,,,,,,,,,,,,,,,,,,,,,0.011398791000829,0.0196107080046203,0.0196107080046203,0.0196107080046203,42.8623402910016,space,42.79971133299841,,,,,,,,,,,,,,,,,,,,,,,,,,,,,,,,,,,,,,,,,,,,,,,,,,,,,,,,,,,sub-169,1,stroop_test,,
,,,,,,,,,,,,,,,,,,,,,,,,,,,,,,,,,,,,,,,,,,,,,,,,,42.862436666000576,42.895576832997904,42.895576832997904,58.23084950000339,space,15.329355083995324,,,,,,,,,,,,,,,,,,,,,,,,,,,,,,,,,,,,,,,,,,,,,,,,,,,,sub-169,1,stroop_test,,
test,red,r,1.0,0.0,0.0,0.0,r,1.0,1.2305278750063735,,,,,,,,,,,,,,,,,,0.0,0.0,0.0,0.0,,,,,,,,,58.2721196249986,,,,,,,,,,,,,,,,,58.25225987500016,59.43185916600487,60.23382033300004,60.21928633299831,60.227076333001605,60.23382033300004,60.23382033300004,61.47123558299791,r,1.0,1.2305278750063735,,,,,,,,,,,,,,,,,,,,,,,,,,,,,,,,,,,,,,,,sub-169,1,stroop_test,,
test,yellow,g,1.0,1.0,1.0,0.0,g,1.0,1.2728628750046482,,,,,,,,,,,,,,,,,,0.0,1.0,1.0,1.0,,,,,,,,,61.481139583003824,,,,,,,,,,,,,,,,,61.47172924999904,62.26907616599783,63.06175379100023,63.05227241600369,63.05297537500155,63.06175379100023,63.06175379100023,64.33734754100442,g,1.0,1.2728628750046482,,,,,,,,,,,,,,,,,,,,,,,,,,,,,,,,,,,,,,,,sub-169,1,stroop_test,,
test,blue,b,1.0,2.0,2.0,0.0,b,1.0,0.9574325830035376,,,,,,,,,,,,,,,,,,0.0,2.0,2.0,2.0,,,,,,,,,64.36197037500096,,,,,,,,,,,,,,,,,64.33774954100227,64.43687208300253,65.23787916600122,65.22965058300178,65.23033479099831,65.23787916600122,65.23787916600122,66.19772629100044,b,1.0,0.9574325830035376,,,,,,,,,,,,,,,,,,,,,,,,,,,,,,,,,,,,,,,,sub-169,1,stroop_test,,
test,blue,b,1.0,3.0,0.0,1.0,b,1.0,1.611926500001573,,,,,,,,,,,,,,,,,,1.0,0.0,3.0,2.0,,,,,,,,,66.20661149999796,,,,,,,,,,,,,,,,,66.19820329100185,66.54579450000165,67.33740583300096,67.32951779100404,67.33017012500204,67.33740583300096,67.33740583300096,68.95368558300106,b,1.0,1.611926500001573,,,,,,,,,,,,,,,,,,,,,,,,,,,,,,,,,,,,,,,,sub-169,1,stroop_test,,
test,yellow,g,1.0,4.0,1.0,1.0,g,1.0,0.9597852500010048,,,,,,,,,,,,,,,,,,1.0,1.0,4.0,1.0,,,,,,,,,68.97877170800348,,,,,,,,,,,,,,,,,68.95415895800397,69.05526595799893,69.85447583300265,69.84646470800362,69.84711270800472,69.85447583300265,69.85447583300265,70.82011495799816,g,1.0,0.9597852500010048,,,,,,,,,,,,,,,,,,,,,,,,,,,,,,,,,,,,,,,,sub-169,1,stroop_test,,
test,red,r,1.0,5.0,2.0,1.0,r,1.0,0.5036448750033742,,,,,,,,,,,,,,,,,,1.0,2.0,5.0,0.0,,,,,,,,,70.82954299999983,,,,,,,,,,,,,,,,,70.82049133300461,71.16891958300403,71.97084112500306,71.96295345800172,71.96358787499776,71.97084112500306,71.97084112500306,72.48071975000494,r,1.0,0.5036448750033742,,,,,,,,,,,,,,,,,,,,,,,,,,,,,,,,,,,,,,,,sub-169,1,stroop_test,,
test,blue,b,1.0,6.0,0.0,2.0,b,1.0,0.8478273750006338,,,,,,,,,,,,,,,,,,2.0,0.0,6.0,2.0,,,,,,,,,72.49015445799887,,,,,,,,,,,,,,,,,72.48120554100024,73.67896925000241,74.47083379099786,74.46296191600413,74.463600957999,74.47083379099786,74.47083379099786,75.32079695800348,b,1.0,0.8478273750006338,,,,,,,,,,,,,,,,,,,,,,,,,,,,,,,,,,,,,,,,sub-169,1,stroop_test,,
test,yellow,g,1.0,7.0,1.0,2.0,g,1.0,0.7269057500016061,,,,,,,,,,,,,,,,,,2.0,1.0,7.0,1.0,,,,,,,,,75.32868358300038,,,,,,,,,,,,,,,,,75.32116762499936,76.11934958300117,76.92064433300402,76.91308250000293,76.91373433300032,76.92064433300402,76.92064433300402,77.65402575000189,g,1.0,0.7269057500016061,,,,,,,,,,,,,,,,,,,,,,,,,,,,,,,,,,,,,,,,sub-169,1,stroop_test,,
test,red,r,1.0,8.0,2.0,2.0,r,1.0,0.9651703749987064,,,,,,,,,,,,,,,,,,2.0,2.0,8.0,0.0,,,,,,,,,77.67894383300154,,,,,,,,,,,,,,,,,77.65442054100276,78.85232979099965,79.65505675000168,79.64691937500174,79.64761445800104,79.65505675000168,79.65505675000168,80.63092387500365,r,1.0,0.9651703749987064,,,,,,,,,,,,,,,,,,,,,,,,,,,,,,,,,,,,,,,,sub-169,1,stroop_test,,
test,blue,b,1.0,9.0,0.0,3.0,b,1.0,0.7531224579943228,,,,,,,,,,,,,,,,,,3.0,0.0,9.0,2.0,,,,,,,,,80.64012608300254,,,,,,,,,,,,,,,,,80.63132254100492,80.97916529099894,81.77110512500076,81.76315466599772,81.76380541599792,81.77110512500076,81.77110512500076,82.5315340829984,b,1.0,0.7531224579943228,,,,,,,,,,,,,,,,,,,,,,,,,,,,,,,,,,,,,,,,sub-169,1,stroop_test,,
test,yellow,g,1.0,10.0,1.0,3.0,g,1.0,0.7383200419935747,,,,,,,,,,,,,,,,,,3.0,1.0,10.0,1.0,,,,,,,,,82.54061879100482,,,,,,,,,,,,,,,,,82.53196133299934,83.7293222080043,84.52140216599946,84.51325075000204,84.51393166599883,84.52140216599946,84.52140216599946,85.26415616599843,g,1.0,0.7383200419935747,,,,,,,,,,,,,,,,,,,,,,,,,,,,,,,,,,,,,,,,sub-169,1,stroop_test,,
test,red,r,1.0,11.0,2.0,3.0,r,1.0,0.5595331670047017,,,,,,,,,,,,,,,,,,3.0,2.0,11.0,0.0,,,,,,,,,85.27311100000225,,,,,,,,,,,,,,,,,85.26456329099892,86.06279929100128,86.85469016600109,86.84663687500142,86.84728287500184,86.85469016600109,86.85469016600109,87.41974933299934,r,1.0,0.5595331670047017,,,,,,,,,,,,,,,,,,,,,,,,,,,,,,,,,,,,,,,,sub-169,1,stroop_test,,
,,,,,,,,,,,,,,,,,,,,,,,,,,,,,,,,,,,,,,,,,,,,,,,,,,,,,,,,,,,,,,,,,,,,87.41987720799807,87.42824991600355,87.42824991600355,95.97056675000204,space,8.535438917002466,,,,,,,,,,,,,,,,,,,,,,,,,,,,,,,,,sub-169,1,stroop_test,,
,,,,0.0,0.0,0.0,,,,,rot,red,r,1.0,r,1.0,1.043340750002244,,,,,,,,,,,,,,0.0,0.0,0.0,0.0,,,,,95.99383466599828,,,,,,,,,,,,,,,,,95.98415033300262,97.16904100000102,97.96652129100404,97.95245175000308,,,,,,,,,,,,,,,,97.95919379100089,97.96652129100404,97.96652129100404,99.01548116600316,r,1.0,1.043340750002244,,99.0230210410009,99.03387787500104,100.01981541600252,,,,,,,,,,,,,,,,,,,,,sub-169,1,stroop_test,,
,,,,1.0,1.0,0.0,,,,,blau,blue,b,1.0,b,1.0,1.258617665997008,,,,,,,,,,,,,,0.0,1.0,1.0,6.0,,,,,100.02960037500452,,,,,,,,,,,,,,,,,100.0203312080048,100.11329158300214,100.91037366600358,100.89710904099776,,,,,,,,,,,,,,,,100.90305349999836,100.91037366600358,100.91037366600358,102.17146954100464,b,1.0,1.258617665997008,,102.17216241599816,102.18239933300356,103.16898108299938,103.1797516660008,,,,,,,,,,,,,,,,,,,,sub-169,1,stroop_test,,
,,,,2.0,2.0,0.0,,,,,gelb,yellow,g,1.0,g,1.0,0.7349444170031347,,,,,,,,,,,,,,0.0,2.0,2.0,11.0,,,,,103.1797516660008,,,,,,,,,,,,,,,,,103.16944004099788,103.51932558300176,104.31353500000114,104.3029161250015,,,,,,,,,,,,,,,,104.30637608300458,104.31353500000114,104.31353500000114,105.0538249579986,g,1.0,0.7349444170031347,,105.05451458300377,105.0649237500038,106.05240370800313,106.06324554100138,,,,,,,,,,,,,,,,,,,,sub-169,1,stroop_test,,
,,,,3.0,3.0,0.0,,,,,blau,blue,b,1.0,b,1.0,1.142720707997796,,,,,,,,,,,,,,0.0,3.0,3.0,5.0,,,,,106.06324554100138,,,,,,,,,,,,,,,,,106.05286504099786,107.25367233300494,108.04896495800494,108.03710195799796,,,,,,,,,,,,,,,,108.04066250000324,108.04896495800494,108.04896495800494,109.19848187499883,b,1.0,1.142720707997796,,109.19911200000206,109.20913899999869,110.19741954100029,110.20451049999974,,,,,,,,,,,,,,,,,,,,sub-169,1,stroop_test,,
,,,,4.0,4.0,0.0,,,,,gelb,blue,b,0.0,b,1.0,1.4058150830023806,,,,,,,,,,,,,,0.0,4.0,4.0,9.0,,,,,110.20451049999974,,,,,,,,,,,,,,,,,110.19788300000072,110.29681012500076,111.09170895800344,111.0806674580017,,,,,,,,,,,,,,,,111.08453537500463,111.09170895800344,111.09170895800344,112.50084345800131,b,1.0,1.4058150830023806,,112.50157091599976,112.5119652909998,113.49741454100148,113.50347216600494,,,,,,,,,,,,,,,,,,,,sub-169,1,stroop_test,,
,,,,5.0,5.0,0.0,,,,,rot,blue,b,0.0,b,1.0,1.321749374998035,,,,,,,,,,,,,,0.0,5.0,5.0,2.0,,,,,113.50347216600494,,,,,,,,,,,,,,,,,113.49795804099996,113.84705620800378,114.64257383299991,114.6308650830033,,,,,,,,,,,,,,,,114.6349719159989,114.64257383299991,114.64257383299991,115.97258566600068,b,1.0,1.321749374998035,,115.97316266599957,115.9830382910004,116.96990070799802,116.98030950000248,,,,,,,,,,,,,,,,,,,,sub-169,1,stroop_test,,
,,,,6.0,6.0,0.0,,,,,gelb,red,r,0.0,r,1.0,2.154885750001995,,,,,,,,,,,,,,0.0,6.0,6.0,8.0,,,,,116.98030950000248,,,,,,,,,,,,,,,,,116.97034274999896,117.06960629099922,117.87581120800314,117.86412958300208,,,,,,,,,,,,,,,,117.86846945800062,117.87581120800314,117.87581120800314,120.03325666599994,r,1.0,2.154885750001995,,120.0340024160032,120.0443428330036,121.03090045800492,121.03707266600397,,,,,,,,,,,,,,,,,,,,sub-169,1,stroop_test,,
,,,,7.0,7.0,0.0,,,,,rot,yellow,g,0.0,g,1.0,1.2814805419984625,,,,,,,,,,,,,,0.0,7.0,7.0,3.0,,,,,121.03707266600397,,,,,,,,,,,,,,,,,121.03140745800192,122.23050691599929,123.02631916599783,123.01442274999864,,,,,,,,,,,,,,,,123.01861866599938,123.02631916599783,123.02631916599783,124.3154971660042,g,1.0,1.2814805419984625,,124.31623245800438,124.32685075000336,125.31440795800154,125.3202426659991,,,,,,,,,,,,,,,,,,,,sub-169,1,stroop_test,,
,,,,8.0,8.0,0.0,,,,,gelb,yellow,g,1.0,g,1.0,1.522444915994129,,,,,,,,,,,,,,0.0,8.0,8.0,10.0,,,,,125.3202426659991,,,,,,,,,,,,,,,,,125.3148561249982,126.11386183300056,126.90953725000143,126.89781262500036,,,,,,,,,,,,,,,,126.90204779100168,126.90953725000143,126.90953725000143,128.43777141600003,g,1.0,1.522444915994129,,128.43836008300423,128.4490663750039,129.43655216600018,129.44724216600298,,,,,,,,,,,,,,,,,,,,sub-169,1,stroop_test,,
,,,,9.0,9.0,0.0,,,,,blau,red,r,0.0,r,1.0,1.288973167000222,,,,,,,,,,,,,,0.0,9.0,9.0,4.0,,,,,129.44724216600298,,,,,,,,,,,,,,,,,129.43699737499992,130.23726575000182,131.0420027500004,131.03115912499925,,,,,,,,,,,,,,,,131.03479304099892,131.0420027500004,131.0420027500004,132.33331550000003,r,1.0,1.288973167000222,,132.33390925000276,132.3444328330006,133.33108675000403,133.336965333001,,,,,,,,,,,,,,,,,,,,sub-169,1,stroop_test,,
,,,,10.0,10.0,0.0,,,,,blau,yellow,g,0.0,g,1.0,1.4843163750047097,,,,,,,,,,,,,,0.0,10.0,10.0,7.0,,,,,133.336965333001,,,,,,,,,,,,,,,,,133.33153300000413,133.43062425000244,134.22282699999778,134.21466608300398,,,,,,,,,,,,,,,,134.2153265829984,134.22282699999778,134.22282699999778,135.71594883299986,g,1.0,1.4843163750047097,,135.7166856660042,135.72713687500072,136.7145719580003,136.72040208300314,,,,,,,,,,,,,,,,,,,,sub-169,1,stroop_test,,
,,,,11.0,11.0,0.0,,,,,rot,red,r,1.0,r,1.0,0.6433603330006008,,,,,,,,,,,,,,0.0,11.0,11.0,1.0,,,,,136.72040208300314,,,,,,,,,,,,,,,,,136.71502179100207,137.51415141599864,138.3101058750035,138.29803874999925,,,,,,,,,,,,,,,,138.30243991599855,138.3101058750035,138.3101058750035,138.9646879159991,r,1.0,0.6433603330006008,,138.9652774999995,138.97202174999984,139.96460987500177,139.9704072500026,,,,,,,,,,,,,,,,,,,,sub-169,1,stroop_test,,
,,,,12.0,0.0,1.0,,,,,gelb,blue,b,0.0,b,1.0,1.373617417004425,,,,,,,,,,,,,,1.0,0.0,12.0,9.0,,,,,139.9704072500026,,,,,,,,,,,,,,,,,139.96509437500208,140.0542985409993,140.86027712500072,140.84819137500017,,,,,,,,,,,,,,,,140.85279675000493,140.86027712500072,140.86027712500072,142.23887745800312,b,1.0,1.373617417004425,,142.2395684160001,142.24991679099912,143.23678425000253,143.24757916600356,,,,,,,,,,,,,,,,,,,,sub-169,1,stroop_test,,
,,,,13.0,1.0,1.0,,,,,rot,red,r,1.0,r,1.0,0.7383582920010667,,,,,,,,,,,,,,1.0,1.0,13.0,0.0,,,,,143.24757916600356,,,,,,,,,,,,,,,,,143.23728283300443,144.43645179099985,145.24717291600246,145.22012345799885,,,,,,,,,,,,,,,,145.2242243330038,145.24717291600246,145.24717291600246,145.98947295800463,r,1.0,0.7383582920010667,,145.99005349999788,146.00025083299988,146.9870074999999,146.99760104100278,,,,,,,,,,,,,,,,,,,,sub-169,1,stroop_test,,
,,,,14.0,2.0,1.0,,,,,gelb,yellow,g,1.0,g,1.0,0.9307597910010372,,,,,,,,,,,,,,1.0,2.0,14.0,11.0,,,,,146.99760104100278,,,,,,,,,,,,,,,,,146.98746020800172,147.33731504100433,148.1332565410048,148.121691458,,,,,,,,,,,,,,,,148.12551650000387,148.1332565410048,148.1332565410048,149.06649295800162,g,1.0,0.9307597910010372,,149.06721929099876,149.0770923750024,150.0650115410026,150.07084195800417,,,,,,,,,,,,,,,,,,,,sub-169,1,stroop_test,,
,,,,15.0,3.0,1.0,,,,,rot,blue,b,0.0,b,1.0,0.935839500001748,,,,,,,,,,,,,,1.0,3.0,15.0,2.0,,,,,150.07084195800417,,,,,,,,,,,,,,,,,150.06547183300427,150.16437541600317,150.9587022909982,150.94803825000417,,,,,,,,,,,,,,,,150.95135725,150.9587022909982,150.9587022909982,151.8996652909991,b,1.0,0.935839500001748,,151.90039049999905,151.91054262500256,152.89845604100265,152.90430045800167,,,,,,,,,,,,,,,,,,,,sub-169,1,stroop_test,,
,,,,16.0,4.0,1.0,,,,,blau,yellow,g,0.0,g,1.0,1.0717973329956294,,,,,,,,,,,,,,1.0,4.0,16.0,7.0,,,,,152.90430045800167,,,,,,,,,,,,,,,,,152.8988983329982,154.09754200000316,154.8929133749989,154.8817050409998,,,,,,,,,,,,,,,,154.8855580829986,154.8929133749989,154.8929133749989,155.96700370799954,g,1.0,1.0717973329956294,,155.9675984159985,155.9772132500002,156.96528124999895,156.9713206660017,,,,,,,,,,,,,,,,,,,,sub-169,1,stroop_test,,
,,,,17.0,5.0,1.0,,,,,blau,red,r,0.0,r,1.0,0.5157665000006091,,,,,,,,,,,,,,1.0,5.0,17.0,4.0,,,,,156.9713206660017,,,,,,,,,,,,,,,,,156.9657467500001,157.06460558300023,157.85706745800417,157.84863391600084,,,,,,,,,,,,,,,,157.84942199999932,157.85706745800417,157.85706745800417,158.38286833299935,r,1.0,0.5157665000006091,,158.38344404099917,158.39356608300295,159.3818790830046,159.38765691599838,,,,,,,,,,,,,,,,,,,,sub-169,1,stroop_test,,
,,,,18.0,6.0,1.0,,,,,rot,red,r,1.0,r,1.0,0.7424963750017923,,,,,,,,,,,,,,1.0,6.0,18.0,1.0,,,,,159.38765691599838,,,,,,,,,,,,,,,,,159.38233020799817,160.18148954099888,160.97759004100226,160.96540341600485,,,,,,,,,,,,,,,,160.96991308300494,160.97759004100226,160.97759004100226,161.72278075000213,r,1.0,0.7424963750017923,,161.72334075000254,161.73350575000222,162.72013462500036,162.73147600000084,,,,,,,,,,,,,,,,,,,,sub-169,1,stroop_test,,
,,,,19.0,7.0,1.0,,,,,gelb,yellow,g,1.0,g,1.0,0.6535361669957638,,,,,,,,,,,,,,1.0,7.0,19.0,10.0,,,,,162.73147600000084,,,,,,,,,,,,,,,,,162.72051450000436,163.07107745800022,163.86719941600313,163.85550770800182,,,,,,,,,,,,,,,,163.85950066600344,163.86719941600313,163.86719941600313,164.52319041600276,g,1.0,0.6535361669957638,,164.523752041001,164.53373454100074,165.5204290410038,165.53132591600297,,,,,,,,,,,,,,,,,,,,sub-169,1,stroop_test,,
,,,,20.0,8.0,1.0,,,,,rot,yellow,g,0.0,g,1.0,0.8420433330029482,,,,,,,,,,,,,,1.0,8.0,20.0,3.0,,,,,165.53132591600297,,,,,,,,,,,,,,,,,165.5209160000013,166.72132145800424,167.51763016600307,167.50504708300286,,,,,,,,,,,,,,,,167.51035920800496,167.51763016600307,167.51763016600307,168.36702637500275,g,1.0,0.8420433330029482,,168.36763066599815,168.3778758749977,169.36578862500028,169.37186725000356,,,,,,,,,,,,,,,,,,,,sub-169,1,stroop_test,,
,,,,21.0,9.0,1.0,,,,,blau,blue,b,1.0,b,1.0,0.6046872090009856,,,,,,,,,,,,,,1.0,9.0,21.0,5.0,,,,,169.37186725000356,,,,,,,,,,,,,,,,,169.36635554100212,170.1648827079989,170.96083825000096,170.94887958300387,,,,,,,,,,,,,,,,170.95341016600287,170.96083825000096,170.96083825000096,171.57243729100446,b,1.0,0.6046872090009856,,171.5731375000032,171.58335033299954,172.570610666,172.58148008300486,,,,,,,,,,,,,,,,,,,,sub-169,1,stroop_test,,
,,,,22.0,10.0,1.0,,,,,blau,blue,b,1.0,b,1.0,0.532437709000078,,,,,,,,,,,,,,1.0,10.0,22.0,6.0,,,,,172.58148008300486,,,,,,,,,,,,,,,,,172.57094250000227,172.92114750000474,173.72357804100466,173.7156004999997,,,,,,,,,,,,,,,,173.71627799999987,173.72357804100466,173.72357804100466,174.2670790830016,b,1.0,0.532437709000078,,174.26778229100455,174.2781277910035,175.2655620000005,175.27140608300397,,,,,,,,,,,,,,,,,,,,sub-169,1,stroop_test,,
,,,,23.0,11.0,1.0,,,,,gelb,red,r,0.0,r,1.0,1.2722654999961378,,,,,,,,,,,,,,1.0,11.0,23.0,8.0,,,,,175.27140608300397,,,,,,,,,,,,,,,,,175.26601195800322,176.46507550000388,177.2599016660024,177.2487370000017,,,,,,,,,,,,,,,,177.25261508300173,177.2599016660024,177.2599016660024,178.53465483299806,r,1.0,1.2722654999961378,,178.53538887500326,178.54606179099935,179.53258600000115,179.5399613749978,,,,,,,,,,,,,,,,,,,,sub-169,1,stroop_test,,
,,,,,,,,,,,,,,,,,,,,,,,,,,,,,,,,,,,,,,,,,,,,,,,,,,,,,,,,,,,,,,,,,,,,,,,,,,,,,,,,,,,,,,,179.53277912500198,179.5399613749978,179.5399613749978,215.9910409160002,space,36.44848566699511,,,,,,,,,,,,,,sub-169,1,stroop_test,,
,,,,0.0,0.0,0.0,,,,,,,,,,,,,gelb,blue,b,0.0,b,1.0,1.1657671250068231,,,,,,,,,,0.0,0.0,0.0,9.0,216.01543087499888,,,,,,,,,,,,,,,,,216.0066795410021,217.18925904099888,217.994319999998,217.98329262500192,,,,,,,,,,,,,,,,,,,,,,,,,,,,,,,,,,,217.9868080410015,217.994319999998,217.994319999998,219.16794295800355,b,1.0,1.1657671250068231,,,,,,sub-169,1,stroop_test,,
,,,,1.0,1.0,0.0,,,,,,,,,,,,,gelb,red,r,0.0,r,1.0,0.5111947500045062,,,,,,,,,,0.0,1.0,1.0,8.0,219.17713041599927,,,,,,,,,,,,,,,,,219.16840312500423,219.96581575000164,220.7586118750041,220.75041083300312,,,,,,,,,,,,,,,,,,,,,,,,,,,,,,,,,,,220.7511017910001,220.7586118750041,220.7586118750041,221.2737095830016,r,1.0,0.5111947500045062,,,,,,sub-169,1,stroop_test,,
,,,,2.0,2.0,0.0,,,,,,,,,,,,,blau,yellow,g,0.0,g,1.0,0.8525497919981717,,,,,,,,,,0.0,2.0,2.0,7.0,221.2826044579997,,,,,,,,,,,,,,,,,221.2742463750037,221.37256866600364,222.16887533300175,222.15633016599892,,,,,,,,,,,,,,,,,,,,,,,,,,,,,,,,,,,222.1614813330016,222.16887533300175,222.16887533300175,223.02382675000263,g,1.0,0.8525497919981717,,,,,,sub-169,1,stroop_test,,
,,,,3.0,3.0,0.0,,,,,,,,,,,,,blau,blue,b,1.0,b,1.0,0.5773257079999894,,,,,,,,,,0.0,3.0,3.0,5.0,223.03258174999792,,,,,,,,,,,,,,,,,223.02425137499813,223.1156357910004,223.9086737079997,223.9004822909992,,,,,,,,,,,,,,,,,,,,,,,,,,,,,,,,,,,223.90116975000277,223.9086737079997,223.9086737079997,224.4905985830046,b,1.0,0.5773257079999894,,,,,,sub-169,1,stroop_test,,
,,,,4.0,4.0,0.0,,,,,,,,,,,,,rot,blue,b,0.0,b,1.0,1.1771380830032283,,,,,,,,,,0.0,4.0,4.0,2.0,224.4997830409993,,,,,,,,,,,,,,,,,224.49102608300015,224.8397299580029,225.6460847080016,225.63366304100052,,,,,,,,,,,,,,,,,,,,,,,,,,,,,,,,,,,225.63835308299892,225.6460847080016,225.6460847080016,226.83506425000087,b,1.0,1.1771380830032283,,,,,,sub-169,1,stroop_test,,
,,,,5.0,5.0,0.0,,,,,,,,,,,,,blau,blue,b,1.0,b,1.0,0.6387971250005648,,,,,,,,,,0.0,5.0,5.0,6.0,226.8446105000039,,,,,,,,,,,,,,,,,226.8356252080048,227.1826481660028,227.97906316599983,227.9669150410045,,,,,,,,,,,,,,,,,,,,,,,,,,,,,,,,,,,227.971472833,227.97906316599983,227.97906316599983,228.62418875000003,b,1.0,0.6387971250005648,,,,,,sub-169,1,stroop_test,,
,,,,6.0,6.0,0.0,,,,,,,,,,,,,gelb,yellow,g,1.0,g,1.0,0.4501765419990988,,,,,,,,,,0.0,6.0,6.0,11.0,228.6331124999997,,,,,,,,,,,,,,,,,228.62462029100425,229.82232937499796,230.63268454100037,230.60644212500483,,,,,,,,,,,,,,,,,,,,,,,,,,,,,,,,,,,230.60996858300496,230.63268454100037,230.63268454100037,231.0852778749977,g,1.0,0.4501765419990988,,,,,,sub-169,1,stroop_test,,
,,,,7.0,7.0,0.0,,,,,,,,,,,,,blau,red,r,0.0,r,1.0,0.4488251670045429,,,,,,,,,,0.0,7.0,7.0,4.0,231.09453637499973,,,,,,,,,,,,,,,,,231.08579008300148,232.28329358300107,233.0776334580005,233.0670466660013,,,,,,,,,,,,,,,,,,,,,,,,,,,,,,,,,,,233.07056541600468,233.0776334580005,233.0776334580005,233.53479966599843,r,1.0,0.4488251670045429,,,,,,sub-169,1,stroop_test,,
,,,,8.0,8.0,0.0,,,,,,,,,,,,,gelb,yellow,g,1.0,b,0.0,0.5247625839983812,,,,,,,,,,0.0,8.0,8.0,10.0,233.5438780410041,,,,,,,,,,,,,,,,,233.53523820800183,233.88266145800296,234.67808104099825,234.66706658300245,,,,,,,,,,,,,,,,,,,,,,,,,,,,,,,,,,,234.6707707079986,234.67808104099825,234.67808104099825,235.20723100000032,b,0.0,0.5247625839983812,,,,,,sub-169,1,stroop_test,,
,,,,9.0,9.0,0.0,,,,,,,,,,,,,rot,yellow,g,0.0,g,1.0,1.4214282920002006,,,,,,,,,,0.0,9.0,9.0,3.0,235.2167766249986,,,,,,,,,,,,,,,,,235.20765808300348,235.3062264580003,236.10229824999988,236.0898216659989,,,,,,,,,,,,,,,,,,,,,,,,,,,,,,,,,,,236.09410491600283,236.10229824999988,236.10229824999988,237.53513633300463,g,1.0,1.4214282920002006,,,,,,sub-169,1,stroop_test,,
,,,,10.0,10.0,0.0,,,,,,,,,,,,,rot,red,r,1.0,r,1.0,0.5996437080029864,,,,,,,,,,0.0,10.0,10.0,1.0,237.5443826250048,,,,,,,,,,,,,,,,,237.5356907500027,238.7333339160032,239.52511416600464,239.51712091600348,,,,,,,,,,,,,,,,,,,,,,,,,,,,,,,,,,,239.51777345799928,239.52511416600464,239.52511416600464,240.1353071659978,r,1.0,0.5996437080029864,,,,,,sub-169,1,stroop_test,,
,,,,11.0,11.0,0.0,,,,,,,,,,,,,rot,red,r,1.0,r,1.0,0.5974776250004652,,,,,,,,,,0.0,11.0,11.0,0.0,240.14462395800365,,,,,,,,,,,,,,,,,240.1358604159977,240.93326245799835,241.72579179100285,241.7174187080018,,,,,,,,,,,,,,,,,,,,,,,,,,,,,,,,,,,241.7181504580003,241.72579179100285,241.72579179100285,242.32568066599924,r,1.0,0.5974776250004652,,,,,,sub-169,1,stroop_test,,
,,,,12.0,0.0,1.0,,,,,,,,,,,,,gelb,yellow,g,1.0,g,1.0,0.705432374998054,,,,,,,,,,1.0,0.0,12.0,10.0,242.3354861250045,,,,,,,,,,,,,,,,,242.32624495799973,243.1235167909981,243.9281058330016,243.91714279100412,,,,,,,,,,,,,,,,,,,,,,,,,,,,,,,,,,,243.9209400000036,243.9281058330016,243.9281058330016,244.63596691600105,g,1.0,0.705432374998054,,,,,,sub-169,1,stroop_test,,
,,,,13.0,1.0,1.0,,,,,,,,,,,,,gelb,blue,b,0.0,b,1.0,1.759535790995869,,,,,,,,,,1.0,1.0,13.0,9.0,244.6451992500006,,,,,,,,,,,,,,,,,244.63651120800205,244.9833187910044,245.7753917910013,245.7673442910018,,,,,,,,,,,,,,,,,,,,,,,,,,,,,,,,,,,245.7679879999996,245.7753917910013,245.7753917910013,247.54034187499929,b,1.0,1.759535790995869,,,,,,sub-169,1,stroop_test,,
,,,,14.0,2.0,1.0,,,,,,,,,,,,,rot,yellow,g,0.0,r,0.0,0.8240974159998586,,,,,,,,,,1.0,2.0,14.0,3.0,247.54935408299932,,,,,,,,,,,,,,,,,247.54076799999893,247.8901421250048,248.6997515830008,248.67331133300468,,,,,,,,,,,,,,,,,,,,,,,,,,,,,,,,,,,248.6768857080024,248.6997515830008,248.6997515830008,249.53563720799863,r,0.0,0.8240974159998586,,,,,,sub-169,1,stroop_test,,
,,,,15.0,3.0,1.0,,,,,,,,,,,,,blau,blue,b,1.0,b,1.0,1.0382492920034565,,,,,,,,,,1.0,3.0,15.0,6.0,249.5448414999992,,,,,,,,,,,,,,,,,249.53620695800052,250.33354400000096,251.12905762500304,251.11754083300184,,,,,,,,,,,,,,,,,,,,,,,,,,,,,,,,,,,251.1219157910018,251.12905762500304,251.12905762500304,252.1752942079984,b,1.0,1.0382492920034565,,,,,,sub-169,1,stroop_test,,
,,,,16.0,4.0,1.0,,,,,,,,,,,,,blau,blue,b,1.0,b,1.0,0.5804296659989632,,,,,,,,,,1.0,4.0,16.0,5.0,252.19973312500224,,,,,,,,,,,,,,,,,252.1757120830007,252.9733280410001,253.77535408300173,253.76743979100135,,,,,,,,,,,,,,,,,,,,,,,,,,,,,,,,,,,253.76809350000255,253.77535408300173,253.77535408300173,254.3580767079984,b,1.0,0.5804296659989632,,,,,,sub-169,1,stroop_test,,
,,,,17.0,5.0,1.0,,,,,,,,,,,,,blau,red,r,0.0,r,1.0,0.7775349169969559,,,,,,,,,,1.0,5.0,17.0,4.0,254.36729362500049,,,,,,,,,,,,,,,,,254.35848608300148,255.15735683299863,255.95919533300184,255.95087179099937,,,,,,,,,,,,,,,,,,,,,,,,,,,,,,,,,,,255.9515828750009,255.95919533300184,255.95919533300184,256.7415967499983,r,1.0,0.7775349169969559,,,,,,sub-169,1,stroop_test,,
,,,,18.0,6.0,1.0,,,,,,,,,,,,,rot,blue,b,0.0,b,1.0,2.8668015000002924,,,,,,,,,,1.0,6.0,18.0,2.0,256.7504842080016,,,,,,,,,,,,,,,,,256.7420454579988,256.84283033300017,257.64581962500233,257.63435520799976,,,,,,,,,,,,,,,,,,,,,,,,,,,,,,,,,,,257.6383663750021,257.64581962500233,257.64581962500233,260.5188420830018,b,1.0,2.8668015000002924,,,,,,sub-169,1,stroop_test,,
,,,,19.0,7.0,1.0,,,,,,,,,,,,,gelb,yellow,g,1.0,g,1.0,0.972526999998081,,,,,,,,,,1.0,7.0,19.0,11.0,260.52820087500004,,,,,,,,,,,,,,,,,260.51943308299815,260.6171217910014,261.412060415998,261.40108287500334,,,,,,,,,,,,,,,,,,,,,,,,,,,,,,,,,,,261.40486149999924,261.412060415998,261.412060415998,262.39735674999974,g,1.0,0.972526999998081,,,,,,sub-169,1,stroop_test,,
,,,,20.0,8.0,1.0,,,,,,,,,,,,,rot,red,r,1.0,r,1.0,0.6508763750025537,,,,,,,,,,1.0,8.0,20.0,0.0,262.40217870799825,,,,,,,,,,,,,,,,,262.3978083750044,263.59061491600005,264.3958193750004,264.38421941600245,,,,,,,,,,,,,,,,,,,,,,,,,,,,,,,,,,,264.3884278750047,264.3958193750004,264.3958193750004,265.0524615000031,r,1.0,0.6508763750025537,,,,,,sub-169,1,stroop_test,,
,,,,21.0,9.0,1.0,,,,,,,,,,,,,blau,yellow,g,0.0,g,1.0,0.863790292001795,,,,,,,,,,1.0,9.0,21.0,7.0,265.0619664580008,,,,,,,,,,,,,,,,,265.05302466599824,266.25051600000006,267.04679891600244,267.0348107910031,,,,,,,,,,,,,,,,,,,,,,,,,,,,,,,,,,,267.0393692910002,267.04679891600244,267.04679891600244,267.9190749160043,g,1.0,0.863790292001795,,,,,,sub-169,1,stroop_test,,
,,,,22.0,10.0,1.0,,,,,,,,,,,,,rot,red,r,1.0,r,1.0,0.570065167004941,,,,,,,,,,1.0,10.0,22.0,1.0,267.92876324999816,,,,,,,,,,,,,,,,,267.919650541,268.7173127909992,269.51157645800413,269.5008125000022,,,,,,,,,,,,,,,,,,,,,,,,,,,,,,,,,,,269.5041649160048,269.51157645800413,269.51157645800413,270.0859848330001,r,1.0,0.570065167004941,,,,,,sub-169,1,stroop_test,,
,,,,23.0,11.0,1.0,,,,,,,,,,,,,gelb,red,r,0.0,r,1.0,0.4895213330019032,,,,,,,,,,1.0,11.0,23.0,8.0,270.0953748750035,,,,,,,,,,,,,,,,,270.086533791,270.43400962500164,271.2283389160002,271.2178088750006,,,,,,,,,,,,,,,,,,,,,,,,,,,,,,,,,,,271.221179416003,271.2283389160002,271.2283389160002,271.7256954580007,r,1.0,0.4895213330019032,,,,,,sub-169,1,stroop_test,,
,,,,24.0,0.0,2.0,,,,,,,,,,,,,blau,red,r,0.0,r,1.0,0.777939958999923,,,,,,,,,,2.0,0.0,24.0,4.0,271.75020841600053,,,,,,,,,,,,,,,,,271.7261402910008,272.92342245799955,273.7169911660021,273.70643045799807,,,,,,,,,,,,,,,,,,,,,,,,,,,,,,,,,,,273.7100618330005,273.7169911660021,273.7169911660021,274.5034004580011,r,1.0,0.777939958999923,,,,,,sub-169,1,stroop_test,,
,,,,25.0,1.0,2.0,,,,,,,,,,,,,gelb,yellow,g,1.0,g,1.0,1.572087915999873,,,,,,,,,,2.0,1.0,25.0,11.0,274.51312995800254,,,,,,,,,,,,,,,,,274.50401533300465,274.6008690410017,275.39565087499795,275.384530041003,,,,,,,,,,,,,,,,,,,,,,,,,,,,,,,,,,,275.3884137080022,275.39565087499795,275.39565087499795,276.9702843749983,g,1.0,1.572087915999873,,,,,,sub-169,1,stroop_test,,
,,,,26.0,2.0,2.0,,,,,,,,,,,,,blau,blue,b,1.0,b,1.0,0.5238127089978661,,,,,,,,,,2.0,2.0,26.0,5.0,276.9762431659983,,,,,,,,,,,,,,,,,276.97075441600464,277.31751975000225,278.1133519580035,278.10142800000176,,,,,,,,,,,,,,,,,,,,,,,,,,,,,,,,,,,278.1058005410014,278.1133519580035,278.1133519580035,278.6418950410007,b,1.0,0.5238127089978661,,,,,,sub-169,1,stroop_test,,
,,,,27.0,3.0,2.0,,,,,,,,,,,,,blau,blue,b,1.0,b,1.0,0.55455074999918,,,,,,,,,,2.0,3.0,27.0,6.0,278.6510767500004,,,,,,,,,,,,,,,,,278.64231845799804,278.7335448750018,279.52688779099844,279.5184121659986,,,,,,,,,,,,,,,,,,,,,,,,,,,,,,,,,,,279.5191225000017,279.52688779099844,279.52688779099844,280.08607024999947,b,1.0,0.55455074999918,,,,,,sub-169,1,stroop_test,,
,,,,28.0,4.0,2.0,,,,,,,,,,,,,gelb,yellow,g,1.0,g,1.0,0.5919759999960661,,,,,,,,,,2.0,4.0,28.0,10.0,280.0949055829988,,,,,,,,,,,,,,,,,280.08651508299954,280.1842725000024,280.98108712500107,280.9683731660043,,,,,,,,,,,,,,,,,,,,,,,,,,,,,,,,,,,280.9735664580003,280.98108712500107,280.98108712500107,281.57519075000164,g,1.0,0.5919759999960661,,,,,,sub-169,1,stroop_test,,
,,,,29.0,5.0,2.0,,,,,,,,,,,,,rot,yellow,g,0.0,g,1.0,1.1385701249964768,,,,,,,,,,2.0,5.0,29.0,3.0,281.58455379099905,,,,,,,,,,,,,,,,,281.57560945799924,281.92447695800365,282.7295707910016,282.71810279100464,,,,,,,,,,,,,,,,,,,,,,,,,,,,,,,,,,,282.721894291004,282.7295707910016,282.7295707910016,283.87605870800326,g,1.0,1.1385701249964768,,,,,,sub-169,1,stroop_test,,
,,,,30.0,6.0,2.0,,,,,,,,,,,,,blau,yellow,g,0.0,g,1.0,0.4883033750011236,,,,,,,,,,2.0,6.0,30.0,7.0,283.884553625001,,,,,,,,,,,,,,,,,283.8764886249992,284.67318137500115,285.4668079580006,285.45648179099953,,,,,,,,,,,,,,,,,,,,,,,,,,,,,,,,,,,285.4599296660017,285.4668079580006,285.4668079580006,285.95924945799925,g,1.0,0.4883033750011236,,,,,,sub-169,1,stroop_test,,
,,,,31.0,7.0,2.0,,,,,,,,,,,,,rot,blue,b,0.0,b,1.0,0.8511986250014161,,,,,,,,,,2.0,7.0,31.0,2.0,285.98394225000084,,,,,,,,,,,,,,,,,285.9596839160004,286.0505879580014,286.84519170800195,286.8346292499991,,,,,,,,,,,,,,,,,,,,,,,,,,,,,,,,,,,286.83790391599905,286.84519170800195,286.84519170800195,287.7027688329981,b,1.0,0.8511986250014161,,,,,,sub-169,1,stroop_test,,
,,,,32.0,8.0,2.0,,,,,,,,,,,,,rot,red,r,1.0,r,1.0,0.6167429580018506,,,,,,,,,,2.0,8.0,32.0,1.0,287.7123569579999,,,,,,,,,,,,,,,,,287.70332025000243,288.90071579100186,289.69232416600425,289.68467450000026,,,,,,,,,,,,,,,,,,,,,,,,,,,,,,,,,,,289.6853364999988,289.69232416600425,289.69232416600425,290.31996845800313,r,1.0,0.6167429580018506,,,,,,sub-169,1,stroop_test,,
,,,,33.0,9.0,2.0,,,,,,,,,,,,,rot,red,r,1.0,r,1.0,0.5076874579972355,,,,,,,,,,2.0,9.0,33.0,0.0,290.3290998330049,,,,,,,,,,,,,,,,,290.32040629100084,290.4180065410037,291.2095818750022,291.20164945800207,,,,,,,,,,,,,,,,,,,,,,,,,,,,,,,,,,,291.202305083003,291.2095818750022,291.2095818750022,291.71969495800295,r,1.0,0.5076874579972355,,,,,,sub-169,1,stroop_test,,
,,,,34.0,10.0,2.0,,,,,,,,,,,,,gelb,red,r,0.0,r,1.0,0.777877417000127,,,,,,,,,,2.0,10.0,34.0,8.0,291.72849600000336,,,,,,,,,,,,,,,,,291.7201244579992,292.06780399999843,292.86381454100047,292.85162058300193,,,,,,,,,,,,,,,,,,,,,,,,,,,,,,,,,,,292.8562920830009,292.86381454100047,292.86381454100047,293.6441213330036,r,1.0,0.777877417000127,,,,,,sub-169,1,stroop_test,,
,,,,35.0,11.0,2.0,,,,,,,,,,,,,gelb,blue,b,0.0,b,1.0,0.5072710420063231,,,,,,,,,,2.0,11.0,35.0,9.0,293.65357824999955,,,,,,,,,,,,,,,,,293.64473537500453,294.8410733749988,295.6433541660008,295.6352557499995,,,,,,,,,,,,,,,,,,,,,,,,,,,,,,,,,,,295.6359377500048,295.6433541660008,295.6433541660008,296.15326820799964,b,1.0,0.5072710420063231,,,,,,sub-169,1,stroop_test,,
,,,,36.0,0.0,3.0,,,,,,,,,,,,,gelb,red,r,0.0,r,1.0,0.8454516670026351,,,,,,,,,,3.0,0.0,36.0,8.0,296.1622672080048,,,,,,,,,,,,,,,,,296.15372000000207,296.5009970829997,297.29284058300254,297.2850270830022,,,,,,,,,,,,,,,,,,,,,,,,,,,,,,,,,,,297.2856790410005,297.29284058300254,297.29284058300254,298.1427127499992,r,1.0,0.8454516670026351,,,,,,sub-169,1,stroop_test,,
,,,,37.0,1.0,3.0,,,,,,,,,,,,,rot,red,r,1.0,r,1.0,0.4338111249962821,,,,,,,,,,3.0,1.0,37.0,0.0,298.1677030830033,,,,,,,,,,,,,,,,,298.1432610830016,298.4917239580027,299.3009968750048,299.2748868330018,,,,,,,,,,,,,,,,,,,,,,,,,,,,,,,,,,,299.2782035830023,299.3009968750048,299.3009968750048,299.7372133750032,r,1.0,0.4338111249962821,,,,,,sub-169,1,stroop_test,,
,,,,38.0,2.0,3.0,,,,,,,,,,,,,gelb,yellow,g,1.0,g,1.0,0.8210158330039121,,,,,,,,,,3.0,2.0,38.0,10.0,299.7465592080043,,,,,,,,,,,,,,,,,299.7377692910013,299.8347767910018,300.631295332998,300.6186552500003,,,,,,,,,,,,,,,,,,,,,,,,,,,,,,,,,,,300.6238459160013,300.631295332998,300.631295332998,301.46091691600304,g,1.0,0.8210158330039121,,,,,,sub-169,1,stroop_test,,
,,,,39.0,3.0,3.0,,,,,,,,,,,,,rot,yellow,g,0.0,g,1.0,0.6211257089962601,,,,,,,,,,3.0,3.0,39.0,3.0,301.4702370410014,,,,,,,,,,,,,,,,,301.4613369159997,302.2581389160041,303.0533625000025,303.0421391659984,,,,,,,,,,,,,,,,,,,,,,,,,,,,,,,,,,,303.0458471660022,303.0533625000025,303.0533625000025,303.676789582998,g,1.0,0.6211257089962601,,,,,,sub-169,1,stroop_test,,
,,,,40.0,4.0,3.0,,,,,,,,,,,,,rot,blue,b,0.0,b,1.0,1.1054482079998706,,,,,,,,,,3.0,4.0,40.0,2.0,303.6868745000029,,,,,,,,,,,,,,,,,303.6772221249994,304.8745379579996,305.66760720800085,305.6576401659986,,,,,,,,,,,,,,,,,,,,,,,,,,,,,,,,,,,305.65829108300386,305.66760720800085,305.66760720800085,306.77590541599784,b,1.0,1.1054482079998706,,,,,,sub-169,1,stroop_test,,
,,,,41.0,5.0,3.0,,,,,,,,,,,,,blau,blue,b,1.0,b,1.0,0.5910265419952339,,,,,,,,,,3.0,5.0,41.0,5.0,306.78523729099834,,,,,,,,,,,,,,,,,306.77632995800377,306.8677943750008,307.66360775000066,307.6521357910024,,,,,,,,,,,,,,,,,,,,,,,,,,,,,,,,,,,307.65627374999895,307.66360775000066,307.66360775000066,308.2593676660035,b,1.0,0.5910265419952339,,,,,,sub-169,1,stroop_test,,
,,,,42.0,6.0,3.0,,,,,,,,,,,,,rot,red,r,1.0,r,1.0,0.5227136659959797,,,,,,,,,,3.0,6.0,42.0,1.0,308.26833408300445,,,,,,,,,,,,,,,,,308.2597940830019,308.60829175000254,309.4041137079985,309.39220708300127,,,,,,,,,,,,,,,,,,,,,,,,,,,,,,,,,,,309.39590991599835,309.4041137079985,309.4041137079985,309.93680070800474,r,1.0,0.5227136659959797,,,,,,sub-169,1,stroop_test,,
,,,,43.0,7.0,3.0,,,,,,,,,,,,,blau,yellow,g,0.0,g,1.0,0.80393112499587,,,,,,,,,,3.0,7.0,43.0,7.0,309.9461570830026,,,,,,,,,,,,,,,,,309.9373600410036,310.73485666600027,311.5314284160049,311.5189147909987,,,,,,,,,,,,,,,,,,,,,,,,,,,,,,,,,,,311.5237184159996,311.5314284160049,311.5314284160049,312.3437745410047,g,1.0,0.80393112499587,,,,,,sub-169,1,stroop_test,,
,,,,44.0,8.0,3.0,,,,,,,,,,,,,blau,blue,b,1.0,b,1.0,0.5741247089972603,,,,,,,,,,3.0,8.0,44.0,6.0,312.36805262500275,,,,,,,,,,,,,,,,,312.3441937910029,313.5415887499985,314.34433737499785,314.3359743750043,,,,,,,,,,,,,,,,,,,,,,,,,,,,,,,,,,,314.3366996660043,314.34433737499785,314.34433737499785,314.9209462910003,b,1.0,0.5741247089972603,,,,,,sub-169,1,stroop_test,,
,,,,45.0,9.0,3.0,,,,,,,,,,,,,gelb,yellow,g,1.0,g,1.0,0.6603991670053801,,,,,,,,,,3.0,9.0,45.0,11.0,314.9305365830005,,,,,,,,,,,,,,,,,314.9215084160023,315.0184196660048,315.8138482909999,315.8024686659992,,,,,,,,,,,,,,,,,,,,,,,,,,,,,,,,,,,315.8063535830006,315.8138482909999,315.8138482909999,316.4764987910021,g,1.0,0.6603991670053801,,,,,,sub-169,1,stroop_test,,
,,,,46.0,10.0,3.0,,,,,,,,,,,,,gelb,blue,b,0.0,b,1.0,1.2363899580013822,,,,,,,,,,3.0,10.0,46.0,9.0,316.5014683749978,,,,,,,,,,,,,,,,,316.4769314580044,316.8250171660038,317.6269319999992,317.6190150410039,,,,,,,,,,,,,,,,,,,,,,,,,,,,,,,,,,,317.6196410000048,317.6269319999992,317.6269319999992,318.8697176659989,b,1.0,1.2363899580013822,,,,,,sub-169,1,stroop_test,,
,,,,47.0,11.0,3.0,,,,,,,,,,,,,blau,red,r,0.0,r,1.0,0.5579927500002668,,,,,,,,,,3.0,11.0,47.0,4.0,318.8776841250001,,,,,,,,,,,,,,,,,318.8700677500019,319.6684593750033,320.4653459580004,320.45256925000285,,,,,,,,,,,,,,,,,,,,,,,,,,,,,,,,,,,320.4579419580041,320.4653459580004,320.4653459580004,321.026965791003,r,1.0,0.5579927500002668,,,,,,sub-169,1,stroop_test,,
,,,,48.0,0.0,4.0,,,,,,,,,,,,,blau,red,r,0.0,r,1.0,0.5678865830050199,,,,,,,,,,4.0,0.0,48.0,4.0,321.0375847910036,,,,,,,,,,,,,,,,,321.02750587500486,322.2250510829981,323.02686487499886,323.019013582998,,,,,,,,,,,,,,,,,,,,,,,,,,,,,,,,,,,323.0196686249983,323.02686487499886,323.02686487499886,323.6037747080045,r,1.0,0.5678865830050199,,,,,,sub-169,1,stroop_test,,
,,,,49.0,1.0,4.0,,,,,,,,,,,,,blau,blue,b,1.0,b,1.0,0.7906699579980341,,,,,,,,,,4.0,1.0,49.0,6.0,323.6135089160016,,,,,,,,,,,,,,,,,323.6043161249981,323.7015251249977,324.4948350830018,324.4862699160003,,,,,,,,,,,,,,,,,,,,,,,,,,,,,,,,,,,324.4871456660039,324.4948350830018,324.4948350830018,325.28782958300144,b,1.0,0.7906699579980341,,,,,,sub-169,1,stroop_test,,
,,,,50.0,2.0,4.0,,,,,,,,,,,,,gelb,yellow,g,1.0,g,1.0,0.5100266669978737,,,,,,,,,,4.0,2.0,50.0,11.0,325.2968710830028,,,,,,,,,,,,,,,,,325.28826491600194,325.63537616599933,326.43156199999794,326.4194051660015,,,,,,,,,,,,,,,,,,,,,,,,,,,,,,,,,,,326.4240694580003,326.43156199999794,326.43156199999794,326.9438738750032,g,1.0,0.5100266669978737,,,,,,sub-169,1,stroop_test,,
,,,,51.0,3.0,4.0,,,,,,,,,,,,,gelb,blue,b,0.0,b,1.0,0.785981291999633,,,,,,,,,,4.0,3.0,51.0,9.0,326.9537457910046,,,,,,,,,,,,,,,,,326.9443250830009,327.7423491660011,328.5440979999985,328.5358725410042,,,,,,,,,,,,,,,,,,,,,,,,,,,,,,,,,,,328.5365502080021,328.5440979999985,328.5440979999985,329.33879254099884,b,1.0,0.785981291999633,,,,,,sub-169,1,stroop_test,,
,,,,52.0,4.0,4.0,,,,,,,,,,,,,gelb,yellow,g,1.0,g,1.0,0.6112427499974729,,,,,,,,,,4.0,4.0,52.0,10.0,329.34768887500104,,,,,,,,,,,,,,,,,329.33923904100084,330.1355148750008,330.9274298750024,330.91930812499777,,,,,,,,,,,,,,,,,,,,,,,,,,,,,,,,,,,330.9199773750006,330.9274298750024,330.9274298750024,331.54342991600424,g,1.0,0.6112427499974729,,,,,,sub-169,1,stroop_test,,
,,,,53.0,5.0,4.0,,,,,,,,,,,,,rot,red,r,1.0,r,1.0,0.342023875004088,,,,,,,,,,4.0,5.0,53.0,0.0,331.56832283300173,,,,,,,,,,,,,,,,,331.54390979099844,332.3420500409993,333.1470850000041,333.1359520000042,,,,,,,,,,,,,,,,,,,,,,,,,,,,,,,,,,,333.1397718750013,333.1470850000041,333.1470850000041,333.493608458004,r,1.0,0.342023875004088,,,,,,sub-169,1,stroop_test,,
,,,,54.0,6.0,4.0,,,,,,,,,,,,,rot,red,r,1.0,r,1.0,0.3928144590026932,,,,,,,,,,4.0,6.0,54.0,1.0,333.51850829100295,,,,,,,,,,,,,,,,,333.4940297499997,334.6922938330026,335.49487979100377,335.4864996250035,,,,,,,,,,,,,,,,,,,,,,,,,,,,,,,,,,,335.4872955000028,335.49487979100377,335.49487979100377,335.8904710830029,r,1.0,0.3928144590026932,,,,,,sub-169,1,stroop_test,,
,,,,55.0,7.0,4.0,,,,,,,,,,,,,rot,yellow,g,0.0,r,0.0,0.7248338749996037,,,,,,,,,,4.0,7.0,55.0,3.0,335.89970454099966,,,,,,,,,,,,,,,,,335.8909105830025,336.23556833300245,337.02738345800026,337.01956591600174,,,,,,,,,,,,,,,,,,,,,,,,,,,,,,,,,,,337.0202184580048,337.02738345800026,337.02738345800026,337.75460212500184,r,0.0,0.7248338749996037,,,,,,sub-169,1,stroop_test,,
,,,,56.0,8.0,4.0,,,,,,,,,,,,,gelb,red,r,0.0,r,1.0,1.4621524169997429,,,,,,,,,,4.0,8.0,56.0,8.0,337.7639350000027,,,,,,,,,,,,,,,,,337.7550505410036,337.85230612500163,338.6478727909998,338.636389583,,,,,,,,,,,,,,,,,,,,,,,,,,,,,,,,,,,338.6404794580012,338.6478727909998,338.6478727909998,340.1213017910049,r,1.0,1.4621524169997429,,,,,,sub-169,1,stroop_test,,
,,,,57.0,9.0,4.0,,,,,,,,,,,,,rot,blue,b,0.0,b,1.0,0.6958212079989607,,,,,,,,,,4.0,9.0,57.0,2.0,340.130816375,,,,,,,,,,,,,,,,,340.12184383300337,341.31881966600486,342.11405124999874,342.1029453750016,,,,,,,,,,,,,,,,,,,,,,,,,,,,,,,,,,,342.1067196250005,342.11405124999874,342.11405124999874,342.82114625000395,b,1.0,0.6958212079989607,,,,,,sub-169,1,stroop_test,,
,,,,58.0,10.0,4.0,,,,,,,,,,,,,blau,blue,b,1.0,b,1.0,0.5540421249970677,,,,,,,,,,4.0,10.0,58.0,5.0,342.8309120830017,,,,,,,,,,,,,,,,,342.8216958330013,342.91931966599805,343.7157940410034,343.70309895800165,,,,,,,,,,,,,,,,,,,,,,,,,,,,,,,,,,,343.7083109160012,343.7157940410034,343.7157940410034,344.2725127500016,b,1.0,0.5540421249970677,,,,,,sub-169,1,stroop_test,,
,,,,59.0,11.0,4.0,,,,,,,,,,,,,blau,yellow,g,0.0,g,1.0,0.8661742499971297,,,,,,,,,,4.0,11.0,59.0,7.0,344.285362374998,,,,,,,,,,,,,,,,,344.27307758299867,345.46905787500145,346.2610911660013,346.2531932499988,,,,,,,,,,,,,,,,,,,,,,,,,,,,,,,,,,,346.2538291250021,346.2610911660013,346.2610911660013,347.1377624579982,g,1.0,0.8661742499971297,,,,,,sub-169,1,stroop_test,,
,,,,60.0,0.0,5.0,,,,,,,,,,,,,rot,yellow,g,0.0,g,1.0,0.4233454170025652,,,,,,,,,,5.0,0.0,60.0,3.0,347.1471125829994,,,,,,,,,,,,,,,,,347.13828366599773,347.4857897500042,348.2818718749986,348.269955415999,,,,,,,,,,,,,,,,,,,,,,,,,,,,,,,,,,,348.2742829159979,348.2818718749986,348.2818718749986,348.7101850830004,g,1.0,0.4233454170025652,,,,,,sub-169,1,stroop_test,,
,,,,61.0,1.0,5.0,,,,,,,,,,,,,blau,blue,b,1.0,b,1.0,0.5647710419943905,,,,,,,,,,5.0,1.0,61.0,5.0,348.71957804100384,,,,,,,,,,,,,,,,,348.7106397079988,349.50862687500194,350.31512716600264,350.30341325000336,,,,,,,,,,,,,,,,,,,,,,,,,,,,,,,,,,,350.3075964160016,350.31512716600264,350.31512716600264,350.88728062500013,b,1.0,0.5647710419943905,,,,,,sub-169,1,stroop_test,,
,,,,62.0,2.0,5.0,,,,,,,,,,,,,gelb,blue,b,0.0,b,1.0,0.7498567080037901,,,,,,,,,,5.0,2.0,62.0,9.0,350.89625933299976,,,,,,,,,,,,,,,,,350.88771691600414,350.9859230410002,351.78186112500407,351.76978454100026,,,,,,,,,,,,,,,,,,,,,,,,,,,,,,,,,,,351.7743855410008,351.78186112500407,351.78186112500407,352.53775729100016,b,1.0,0.7498567080037901,,,,,,sub-169,1,stroop_test,,
,,,,63.0,3.0,5.0,,,,,,,,,,,,,blau,red,r,0.0,r,1.0,0.4282422920005047,,,,,,,,,,5.0,3.0,63.0,4.0,352.5468708749977,,,,,,,,,,,,,,,,,352.5382324579987,352.88583387499966,353.68089829100063,353.6698864159989,,,,,,,,,,,,,,,,,,,,,,,,,,,,,,,,,,,353.67364558300324,353.68089829100063,353.68089829100063,354.11130187500385,r,1.0,0.4282422920005047,,,,,,sub-169,1,stroop_test,,
,,,,64.0,4.0,5.0,,,,,,,,,,,,,rot,blue,b,0.0,b,1.0,1.0122280420036986,,,,,,,,,,5.0,4.0,64.0,2.0,354.1212785000025,,,,,,,,,,,,,,,,,354.1117305410007,355.30918316599855,356.11887258299976,356.0927582910008,,,,,,,,,,,,,,,,,,,,,,,,,,,,,,,,,,,356.09627504100354,356.11887258299976,356.11887258299976,357.13824125000247,b,1.0,1.0122280420036986,,,,,,sub-169,1,stroop_test,,
,,,,65.0,5.0,5.0,,,,,,,,,,,,,rot,red,r,1.0,r,1.0,0.9749753750002128,,,,,,,,,,5.0,5.0,65.0,1.0,357.1482710830023,,,,,,,,,,,,,,,,,357.1389147910013,357.4860463330042,358.27788566600066,358.2701817909983,,,,,,,,,,,,,,,,,,,,,,,,,,,,,,,,,,,358.27084216599906,358.27788566600066,358.27788566600066,359.2554329160048,r,1.0,0.9749753750002128,,,,,,sub-169,1,stroop_test,,
,,,,66.0,6.0,5.0,,,,,,,,,,,,,gelb,yellow,g,1.0,g,1.0,0.525224832999811,,,,,,,,,,5.0,6.0,66.0,11.0,359.26476666599774,,,,,,,,,,,,,,,,,359.2559162079997,360.4525788750034,361.250111207999,361.2372617910005,,,,,,,,,,,,,,,,,,,,,,,,,,,,,,,,,,,361.2424934580049,361.250111207999,361.250111207999,361.7774502079992,g,1.0,0.525224832999811,,,,,,sub-169,1,stroop_test,,
,,,,67.0,7.0,5.0,,,,,,,,,,,,,blau,blue,b,1.0,b,1.0,0.6468762919976143,,,,,,,,,,5.0,7.0,67.0,6.0,361.8026243330023,,,,,,,,,,,,,,,,,361.7778771250014,362.9760179580044,363.7811378330007,363.77007704100106,,,,,,,,,,,,,,,,,,,,,,,,,,,,,,,,,,,363.773881041001,363.7811378330007,363.7811378330007,364.438029500001,b,1.0,0.6468762919976143,,,,,,sub-169,1,stroop_test,,
,,,,68.0,8.0,5.0,,,,,,,,,,,,,rot,red,r,1.0,r,1.0,0.6503420840017498,,,,,,,,,,5.0,8.0,68.0,0.0,364.4478771249997,,,,,,,,,,,,,,,,,364.4385794580012,364.5364339160005,365.3328193749985,365.32043316600175,,,,,,,,,,,,,,,,,,,,,,,,,,,,,,,,,,,365.3250145830025,365.3328193749985,365.3328193749985,365.9884393750035,r,1.0,0.6503420840017498,,,,,,sub-169,1,stroop_test,,
,,,,69.0,9.0,5.0,,,,,,,,,,,,,gelb,yellow,g,1.0,g,1.0,0.5709807919993182,,,,,,,,,,5.0,9.0,69.0,10.0,365.9976938750042,,,,,,,,,,,,,,,,,365.9889153330005,366.0862455000024,366.88257762500143,366.8704503330009,,,,,,,,,,,,,,,,,,,,,,,,,,,,,,,,,,,366.8748445829988,366.88257762500143,366.88257762500143,367.46129358300095,g,1.0,0.5709807919993182,,,,,,sub-169,1,stroop_test,,
,,,,70.0,10.0,5.0,,,,,,,,,,,,,gelb,red,r,0.0,r,1.0,0.6428572919976432,,,,,,,,,,5.0,10.0,70.0,8.0,367.4858935000011,,,,,,,,,,,,,,,,,367.4617243329994,368.659632916002,369.4618139160011,369.4536956250013,,,,,,,,,,,,,,,,,,,,,,,,,,,,,,,,,,,369.4543671249994,369.4618139160011,369.4618139160011,370.11173720800434,r,1.0,0.6428572919976432,,,,,,sub-169,1,stroop_test,,
,,,,71.0,11.0,5.0,,,,,,,,,,,,,blau,yellow,g,0.0,g,1.0,0.4889897920002113,,,,,,,,,,5.0,11.0,71.0,7.0,370.1212743330034,,,,,,,,,,,,,,,,,370.1121806660012,370.9092408330034,371.714613832999,371.7036281250039,,,,,,,,,,,,,,,,,,,,,,,,,,,,,,,,,,,371.70746833299927,371.714613832999,371.714613832999,372.2061018750028,g,1.0,0.4889897920002113,,,,,,sub-169,1,stroop_test,,
,,,,72.0,0.0,6.0,,,,,,,,,,,,,gelb,blue,b,0.0,b,1.0,0.4389169169953675,,,,,,,,,,6.0,0.0,72.0,9.0,372.2152810830012,,,,,,,,,,,,,,,,,372.20666062500095,372.5532805410039,373.34764545800135,373.33709012500185,,,,,,,,,,,,,,,,,,,,,,,,,,,,,,,,,,,373.3404896659995,373.34764545800135,373.34764545800135,373.78893658299785,b,1.0,0.4389169169953675,,,,,,sub-169,1,stroop_test,,
,,,,73.0,1.0,6.0,,,,,,,,,,,,,blau,yellow,g,0.0,g,1.0,0.5422145830016234,,,,,,,,,,6.0,1.0,73.0,7.0,373.798236415998,,,,,,,,,,,,,,,,,373.78937466600473,374.986562666003,375.7813937079991,375.77033491600014,,,,,,,,,,,,,,,,,,,,,,,,,,,,,,,,,,,375.77415933299926,375.7813937079991,375.7813937079991,376.3284293329998,g,1.0,0.5422145830016234,,,,,,sub-169,1,stroop_test,,
,,,,74.0,2.0,6.0,,,,,,,,,,,,,rot,red,r,1.0,r,1.0,0.4205079169987584,,,,,,,,,,6.0,2.0,74.0,1.0,376.33846262500447,,,,,,,,,,,,,,,,,376.3288687079985,377.5260646250026,378.3221217910032,378.3104436659996,,,,,,,,,,,,,,,,,,,,,,,,,,,,,,,,,,,378.3144929580012,378.3221217910032,378.3221217910032,378.7451094580029,r,1.0,0.4205079169987584,,,,,,sub-169,1,stroop_test,,
,,,,75.0,3.0,6.0,,,,,,,,,,,,,rot,yellow,g,0.0,g,1.0,0.5974563749987283,,,,,,,,,,6.0,3.0,75.0,3.0,378.7551176249981,,,,,,,,,,,,,,,,,378.7455330000012,379.5430347080037,380.3361354580047,380.32686983299936,,,,,,,,,,,,,,,,,,,,,,,,,,,,,,,,,,,380.3275687909991,380.3361354580047,380.3361354580047,380.9384787500021,g,1.0,0.5974563749987283,,,,,,sub-169,1,stroop_test,,
,,,,76.0,4.0,6.0,,,,,,,,,,,,,blau,blue,b,1.0,b,1.0,0.4297550830015098,,,,,,,,,,6.0,4.0,76.0,6.0,380.94821695800056,,,,,,,,,,,,,,,,,380.9390326249995,381.2865678750022,382.0818256249986,382.07061220800097,,,,,,,,,,,,,,,,,,,,,,,,,,,,,,,,,,,382.0745527079998,382.0818256249986,382.0818256249986,382.5222335409999,b,1.0,0.4297550830015098,,,,,,sub-169,1,stroop_test,,
,,,,77.0,5.0,6.0,,,,,,,,,,,,,gelb,red,r,0.0,r,1.0,0.4950746249960502,,,,,,,,,,6.0,5.0,77.0,8.0,382.531610500002,,,,,,,,,,,,,,,,,382.5227503330025,383.3198033330045,384.1151203749978,384.10393470800045,,,,,,,,,,,,,,,,,,,,,,,,,,,,,,,,,,,384.1078506249978,384.1151203749978,384.1151203749978,384.61275979100174,r,1.0,0.4950746249960502,,,,,,sub-169,1,stroop_test,,
,,,,78.0,6.0,6.0,,,,,,,,,,,,,gelb,yellow,g,1.0,g,1.0,0.4779234160014312,,,,,,,,,,6.0,6.0,78.0,10.0,384.6223767499978,,,,,,,,,,,,,,,,,384.6133029160046,384.7028470000005,385.4951228330028,385.4874424580048,,,,,,,,,,,,,,,,,,,,,,,,,,,,,,,,,,,385.4880913750021,385.4951228330028,385.4951228330028,385.9773483329991,g,1.0,0.4779234160014312,,,,,,sub-169,1,stroop_test,,
,,,,79.0,7.0,6.0,,,,,,,,,,,,,blau,blue,b,1.0,b,1.0,0.7664756250014761,,,,,,,,,,6.0,7.0,79.0,5.0,385.98613087500416,,,,,,,,,,,,,,,,,385.9777703330037,386.0758280410009,386.8697197500005,386.859424291004,,,,,,,,,,,,,,,,,,,,,,,,,,,,,,,,,,,386.8628607499995,386.8697197500005,386.8697197500005,387.638826082999,b,1.0,0.7664756250014761,,,,,,sub-169,1,stroop_test,,
,,,,80.0,8.0,6.0,,,,,,,,,,,,,rot,red,r,1.0,r,1.0,0.494612499998766,,,,,,,,,,6.0,8.0,80.0,0.0,387.6479137080023,,,,,,,,,,,,,,,,,387.6392770829989,387.9869137080023,388.7830593750041,388.7709694160003,,,,,,,,,,,,,,,,,,,,,,,,,,,,,,,,,,,388.77542712500144,388.7830593750041,388.7830593750041,389.2884757499996,r,1.0,0.494612499998766,,,,,,sub-169,1,stroop_test,,
,,,,81.0,9.0,6.0,,,,,,,,,,,,,rot,blue,b,0.0,b,1.0,0.8145815000025323,,,,,,,,,,6.0,9.0,81.0,2.0,389.2976718749997,,,,,,,,,,,,,,,,,389.28891516599833,389.6367998330024,390.4288553750012,390.4208371249988,,,,,,,,,,,,,,,,,,,,,,,,,,,,,,,,,,,390.4214960410027,390.4288553750012,390.4288553750012,391.2549855410034,b,1.0,0.8145815000025323,,,,,,sub-169,1,stroop_test,,
,,,,82.0,10.0,6.0,,,,,,,,,,,,,gelb,yellow,g,1.0,g,1.0,0.4904442500046571,,,,,,,,,,6.0,10.0,82.0,11.0,391.2598155000014,,,,,,,,,,,,,,,,,391.2554534580049,391.35383329100296,392.1488530830029,392.1376208330039,,,,,,,,,,,,,,,,,,,,,,,,,,,,,,,,,,,392.1415297909989,392.1488530830029,392.1488530830029,392.6439883330022,g,1.0,0.4904442500046571,,,,,,sub-169,1,stroop_test,,
,,,,83.0,11.0,6.0,,,,,,,,,,,,,blau,red,r,0.0,r,1.0,0.3924946670013014,,,,,,,,,,6.0,11.0,83.0,4.0,392.6532505830037,,,,,,,,,,,,,,,,,392.6444131660028,392.9936179580036,393.78936741600046,393.77718191600434,,,,,,,,,,,,,,,,,,,,,,,,,,,,,,,,,,,393.78163016599865,393.78936741600046,393.78936741600046,394.1891454580036,r,1.0,0.3924946670013014,,,,,,sub-169,1,stroop_test,,
,,,,84.0,0.0,7.0,,,,,,,,,,,,,blau,blue,b,1.0,b,1.0,0.8131805000011809,,,,,,,,,,7.0,0.0,84.0,6.0,394.1986024580037,,,,,,,,,,,,,,,,,394.1896993749979,394.5367922500009,395.32960716600064,395.3212821659981,,,,,,,,,,,,,,,,,,,,,,,,,,,,,,,,,,,395.3219800000006,395.32960716600064,395.32960716600064,396.14526787499926,b,1.0,0.8131805000011809,,,,,,sub-169,1,stroop_test,,
,,,,85.0,1.0,7.0,,,,,,,,,,,,,blau,blue,b,1.0,b,1.0,0.4510725420041126,,,,,,,,,,7.0,1.0,85.0,5.0,396.1561035409977,,,,,,,,,,,,,,,,,396.1458146660007,396.4924475830048,397.28647400000045,397.2760514580005,,,,,,,,,,,,,,,,,,,,,,,,,,,,,,,,,,,397.276738665998,397.28647400000045,397.28647400000045,397.7400372499978,b,1.0,0.4510725420041126,,,,,,sub-169,1,stroop_test,,
,,,,86.0,2.0,7.0,,,,,,,,,,,,,gelb,yellow,g,1.0,g,1.0,0.5219197920014267,,,,,,,,,,7.0,2.0,86.0,10.0,397.749282165998,,,,,,,,,,,,,,,,,397.7405801249988,398.0871542500026,398.8823764580011,398.87119125000027,,,,,,,,,,,,,,,,,,,,,,,,,,,,,,,,,,,398.8750716659997,398.8823764580011,398.8823764580011,399.4067545409998,g,1.0,0.5219197920014267,,,,,,sub-169,1,stroop_test,,
,,,,87.0,3.0,7.0,,,,,,,,,,,,,gelb,yellow,g,1.0,g,1.0,0.533646542004135,,,,,,,,,,7.0,3.0,87.0,11.0,399.4162149160038,,,,,,,,,,,,,,,,,399.4072939580001,399.5037784579981,400.294610666002,400.2873874580037,,,,,,,,,,,,,,,,,,,,,,,,,,,,,,,,,,,400.2879765830003,400.294610666002,400.294610666002,400.8389980409993,g,1.0,0.533646542004135,,,,,,sub-169,1,stroop_test,,
,,,,88.0,4.0,7.0,,,,,,,,,,,,,rot,yellow,g,0.0,r,0.0,0.4527093329961644,,,,,,,,,,7.0,4.0,88.0,3.0,400.8483031659998,,,,,,,,,,,,,,,,,400.83944716599945,400.93715650000377,401.73209512500034,401.72102283300046,,,,,,,,,,,,,,,,,,,,,,,,,,,,,,,,,,,401.7247529579981,401.73209512500034,401.73209512500034,402.1891440000036,r,0.0,0.4527093329961644,,,,,,sub-169,1,stroop_test,,
,,,,89.0,5.0,7.0,,,,,,,,,,,,,gelb,red,r,0.0,r,1.0,1.2558295410053688,,,,,,,,,,7.0,5.0,89.0,8.0,402.1985835410014,,,,,,,,,,,,,,,,,402.1897433330014,402.5372781660044,403.33163920800143,403.321050999999,,,,,,,,,,,,,,,,,,,,,,,,,,,,,,,,,,,403.3243950830001,403.33163920800143,403.33163920800143,404.5900293750019,r,1.0,1.2558295410053688,,,,,,sub-169,1,stroop_test,,
,,,,90.0,6.0,7.0,,,,,,,,,,,,,rot,red,r,1.0,r,1.0,0.4877779160015052,,,,,,,,,,7.0,6.0,90.0,0.0,404.5998399579985,,,,,,,,,,,,,,,,,404.590582290999,405.7873293330049,406.5831190000026,406.5714273330013,,,,,,,,,,,,,,,,,,,,,,,,,,,,,,,,,,,406.5754835830012,406.5831190000026,406.5831190000026,407.0733425409999,r,1.0,0.4877779160015052,,,,,,sub-169,1,stroop_test,,
,,,,91.0,7.0,7.0,,,,,,,,,,,,,rot,red,r,1.0,r,1.0,0.6378207079978893,,,,,,,,,,7.0,7.0,91.0,1.0,407.082646875002,,,,,,,,,,,,,,,,,407.0738175830047,407.8705203749996,408.66238679100206,408.654649707998,,,,,,,,,,,,,,,,,,,,,,,,,,,,,,,,,,,408.65530283300177,408.66238679100206,408.66238679100206,409.3057040830026,r,1.0,0.6378207079978893,,,,,,sub-169,1,stroop_test,,
,,,,92.0,8.0,7.0,,,,,,,,,,,,,blau,yellow,g,0.0,g,1.0,0.845611333999841,,,,,,,,,,7.0,8.0,92.0,7.0,409.3150456250005,,,,,,,,,,,,,,,,,409.3061422500032,409.40424720800365,410.1988644579978,410.1878243750034,,,,,,,,,,,,,,,,,,,,,,,,,,,,,,,,,,,410.1916601249977,410.1988644579978,410.1988644579978,411.0563369579977,g,1.0,0.845611333999841,,,,,,sub-169,1,stroop_test,,
,,,,93.0,9.0,7.0,,,,,,,,,,,,,rot,blue,b,0.0,b,1.0,0.3920499169980758,,,,,,,,,,7.0,9.0,93.0,2.0,411.06564554099896,,,,,,,,,,,,,,,,,411.0568592080017,411.404212458001,412.2000662080027,412.18811516599817,,,,,,,,,,,,,,,,,,,,,,,,,,,,,,,,,,,412.19267983300233,412.2000662080027,412.2000662080027,412.5947677500008,b,1.0,0.3920499169980758,,,,,,sub-169,1,stroop_test,,
,,,,94.0,10.0,7.0,,,,,,,,,,,,,blau,red,r,0.0,r,1.0,0.5006047499991837,,,,,,,,,,7.0,10.0,94.0,4.0,412.60369341600017,,,,,,,,,,,,,,,,,412.5952306660038,413.3938079580039,414.1875527910015,414.17697687500186,,,,,,,,,,,,,,,,,,,,,,,,,,,,,,,,,,,414.1804143749978,414.1875527910015,414.1875527910015,414.6969985830001,r,1.0,0.5006047499991837,,,,,,sub-169,1,stroop_test,,
,,,,95.0,11.0,7.0,,,,,,,,,,,,,gelb,blue,b,0.0,b,1.0,0.7213809999957448,,,,,,,,,,7.0,11.0,95.0,9.0,414.7059678750011,,,,,,,,,,,,,,,,,414.6974232080029,414.7933517909987,415.6037170830023,415.5777378330022,,,,,,,,,,,,,,,,,,,,,,,,,,,,,,,,,,,415.5812177500047,415.6037170830023,415.6037170830023,416.3289463330002,b,1.0,0.7213809999957448,,,,,,sub-169,1,stroop_test,,
,,,,96.0,0.0,8.0,,,,,,,,,,,,,gelb,red,r,0.0,r,1.0,0.5440485830040416,,,,,,,,,,8.0,0.0,96.0,8.0,416.35397883300175,,,,,,,,,,,,,,,,,416.3295095409994,416.4268887500002,417.2195907909991,417.2115207079987,,,,,,,,,,,,,,,,,,,,,,,,,,,,,,,,,,,417.2122011250031,417.2195907909991,417.2195907909991,417.77307462500175,r,1.0,0.5440485830040416,,,,,,sub-169,1,stroop_test,,
,,,,97.0,1.0,8.0,,,,,,,,,,,,,gelb,yellow,g,1.0,g,1.0,0.3545474580023438,,,,,,,,,,8.0,1.0,97.0,11.0,417.7824682499995,,,,,,,,,,,,,,,,,417.7736227909991,418.570965166,419.36362887499854,419.35480766600085,,,,,,,,,,,,,,,,,,,,,,,,,,,,,,,,,,,419.3556200829989,419.36362887499854,419.36362887499854,419.7232003750032,g,1.0,0.3545474580023438,,,,,,sub-169,1,stroop_test,,
,,,,98.0,2.0,8.0,,,,,,,,,,,,,rot,red,r,1.0,r,1.0,0.5498231669989764,,,,,,,,,,8.0,2.0,98.0,1.0,419.7324018750005,,,,,,,,,,,,,,,,,419.7237447080042,419.82044687500456,420.6158653329985,420.6047925829989,,,,,,,,,,,,,,,,,,,,,,,,,,,,,,,,,,,420.6084606660006,420.6158653329985,420.6158653329985,421.1730782080049,r,1.0,0.5498231669989764,,,,,,sub-169,1,stroop_test,,
,,,,99.0,3.0,8.0,,,,,,,,,,,,,blau,red,r,0.0,r,1.0,0.5722071249983856,,,,,,,,,,8.0,3.0,99.0,4.0,421.1829290829992,,,,,,,,,,,,,,,,,421.1737160000048,422.37103291600215,423.1653538329992,423.1547787079981,,,,,,,,,,,,,,,,,,,,,,,,,,,,,,,,,,,423.1580777909985,423.1653538329992,423.1653538329992,423.7402361249988,r,1.0,0.5722071249983856,,,,,,sub-169,1,stroop_test,,
,,,,100.0,4.0,8.0,,,,,,,,,,,,,blau,blue,b,1.0,b,1.0,0.5790057080012048,,,,,,,,,,8.0,4.0,100.0,5.0,423.7499944160009,,,,,,,,,,,,,,,,,423.7407809159995,423.8373132499983,424.6296236249982,424.6216075410048,,,,,,,,,,,,,,,,,,,,,,,,,,,,,,,,,,,424.6222688330017,424.6296236249982,424.6296236249982,425.2108287500014,b,1.0,0.5790057080012048,,,,,,sub-169,1,stroop_test,,
,,,,101.0,5.0,8.0,,,,,,,,,,,,,rot,blue,b,0.0,b,1.0,0.767536832994665,,,,,,,,,,8.0,5.0,101.0,2.0,425.2199738749987,,,,,,,,,,,,,,,,,425.2112465410028,425.5612270409984,426.3660725410009,426.3551704999991,,,,,,,,,,,,,,,,,,,,,,,,,,,,,,,,,,,426.35868191600457,426.3660725410009,426.3660725410009,427.1394927500005,b,1.0,0.767536832994665,,,,,,sub-169,1,stroop_test,,
,,,,102.0,6.0,8.0,,,,,,,,,,,,,gelb,blue,b,0.0,b,1.0,0.4470465830017929,,,,,,,,,,8.0,6.0,102.0,9.0,427.14851516600174,,,,,,,,,,,,,,,,,427.13994045800064,427.93773166600295,428.733633541,428.7218831659993,,,,,,,,,,,,,,,,,,,,,,,,,,,,,,,,,,,428.7264977500017,428.733633541,428.733633541,429.189622124999,b,1.0,0.4470465830017929,,,,,,sub-169,1,stroop_test,,
,,,,103.0,7.0,8.0,,,,,,,,,,,,,rot,red,r,1.0,r,1.0,0.4711833749970537,,,,,,,,,,8.0,7.0,103.0,0.0,429.1993310830003,,,,,,,,,,,,,,,,,429.19015062499966,430.3879948750037,431.1835636250034,431.1717068750004,,,,,,,,,,,,,,,,,,,,,,,,,,,,,,,,,,,431.1759260830004,431.1835636250034,431.1835636250034,431.6573413330043,r,1.0,0.4711833749970537,,,,,,sub-169,1,stroop_test,,
,,,,104.0,8.0,8.0,,,,,,,,,,,,,rot,yellow,g,0.0,g,1.0,0.6658678749954561,,,,,,,,,,8.0,8.0,104.0,3.0,431.66667666599824,,,,,,,,,,,,,,,,,431.65788737500407,432.8545674580018,433.64665145800245,433.6387142500025,,,,,,,,,,,,,,,,,,,,,,,,,,,,,,,,,,,433.6393729580013,433.64665145800245,433.64665145800245,434.3234425830015,g,1.0,0.6658678749954561,,,,,,sub-169,1,stroop_test,,
,,,,105.0,9.0,8.0,,,,,,,,,,,,,blau,blue,b,1.0,b,1.0,0.5716482919960981,,,,,,,,,,8.0,9.0,105.0,6.0,434.33254383299936,,,,,,,,,,,,,,,,,434.3240075830036,434.4214092910042,435.2160857080016,435.205164125,,,,,,,,,,,,,,,,,,,,,,,,,,,,,,,,,,,435.208759000001,435.2160857080016,435.2160857080016,435.7901800000036,b,1.0,0.5716482919960981,,,,,,sub-169,1,stroop_test,,
,,,,106.0,10.0,8.0,,,,,,,,,,,,,gelb,yellow,g,1.0,g,1.0,0.406689749994257,,,,,,,,,,8.0,10.0,106.0,10.0,435.7992328750042,,,,,,,,,,,,,,,,,435.7907262910012,436.5880185830029,437.3841298750049,437.37193383300473,,,,,,,,,,,,,,,,,,,,,,,,,,,,,,,,,,,437.37652333299775,437.3841298750049,437.3841298750049,437.7961348329991,g,1.0,0.406689749994257,,,,,,sub-169,1,stroop_test,,
,,,,107.0,11.0,8.0,,,,,,,,,,,,,blau,yellow,g,0.0,g,1.0,0.4575890000051004,,,,,,,,,,8.0,11.0,107.0,7.0,437.8209737080033,,,,,,,,,,,,,,,,,437.7965508330017,438.5936095830039,439.3873820000008,439.3770106250013,,,,,,,,,,,,,,,,,,,,,,,,,,,,,,,,,,,439.3806761660017,439.3873820000008,439.3873820000008,439.84754858299857,g,1.0,0.4575890000051004,,,,,,sub-169,1,stroop_test,,
,,,,108.0,0.0,9.0,,,,,,,,,,,,,rot,yellow,g,0.0,g,1.0,0.3421637920037028,,,,,,,,,,9.0,0.0,108.0,3.0,439.8571412910024,,,,,,,,,,,,,,,,,439.84800004099816,441.04515608300426,441.8502098329991,441.8390835829996,,,,,,,,,,,,,,,,,,,,,,,,,,,,,,,,,,,441.8429577909992,441.8502098329991,441.8502098329991,442.1961420830048,g,1.0,0.3421637920037028,,,,,,sub-169,1,stroop_test,,
,,,,109.0,1.0,9.0,,,,,,,,,,,,,blau,blue,b,1.0,b,1.0,0.4663153750007041,,,,,,,,,,9.0,1.0,109.0,6.0,442.2210224160008,,,,,,,,,,,,,,,,,442.19667395800207,443.3952008330016,444.2001200829982,444.1888367499996,,,,,,,,,,,,,,,,,,,,,,,,,,,,,,,,,,,444.1927490000016,444.2001200829982,444.2001200829982,444.6737550830003,b,1.0,0.4663153750007041,,,,,,sub-169,1,stroop_test,,
,,,,110.0,2.0,9.0,,,,,,,,,,,,,rot,blue,b,0.0,b,1.0,0.3073262079997221,,,,,,,,,,9.0,2.0,110.0,2.0,444.683120665999,,,,,,,,,,,,,,,,,444.6743047080017,445.8715811660004,446.66688299999805,446.6553606660018,,,,,,,,,,,,,,,,,,,,,,,,,,,,,,,,,,,446.6595856249987,446.66688299999805,446.66688299999805,446.9803080409984,b,1.0,0.3073262079997221,,,,,,sub-169,1,stroop_test,,
,,,,111.0,3.0,9.0,,,,,,,,,,,,,gelb,yellow,g,1.0,g,1.0,0.3973947910053539,,,,,,,,,,9.0,3.0,111.0,11.0,446.989980958002,,,,,,,,,,,,,,,,,446.9807348329996,447.7781635830033,448.5831650830005,448.5721756249986,,,,,,,,,,,,,,,,,,,,,,,,,,,,,,,,,,,448.5760069579992,448.5831650830005,448.5831650830005,448.9901735000021,g,1.0,0.3973947910053539,,,,,,sub-169,1,stroop_test,,
,,,,112.0,4.0,9.0,,,,,,,,,,,,,rot,red,r,1.0,r,1.0,0.2768286659993464,,,,,,,,,,9.0,4.0,112.0,1.0,448.99938304100215,,,,,,,,,,,,,,,,,448.990624791004,449.7883058330044,450.5845100410006,450.5724710830036,,,,,,,,,,,,,,,,,,,,,,,,,,,,,,,,,,,450.5767507080018,450.5845100410006,450.5845100410006,450.8737974160031,r,1.0,0.2768286659993464,,,,,,sub-169,1,stroop_test,,
,,,,113.0,5.0,9.0,,,,,,,,,,,,,blau,yellow,g,0.0,g,1.0,0.6044621670007473,,,,,,,,,,9.0,5.0,113.0,7.0,450.8831820409978,,,,,,,,,,,,,,,,,450.8743365000046,452.0714147079998,452.86684783300007,452.8557408749985,,,,,,,,,,,,,,,,,,,,,,,,,,,,,,,,,,,452.8595926249982,452.86684783300007,452.86684783300007,453.4738547500019,g,1.0,0.6044621670007473,,,,,,sub-169,1,stroop_test,,
,,,,114.0,6.0,9.0,,,,,,,,,,,,,gelb,red,r,0.0,r,1.0,0.4795226249989355,,,,,,,,,,9.0,6.0,114.0,8.0,453.4798486660002,,,,,,,,,,,,,,,,,453.4744217910047,454.6717922500029,455.4666824579981,455.45581908299937,,,,,,,,,,,,,,,,,,,,,,,,,,,,,,,,,,,455.4596579159988,455.4666824579981,455.4666824579981,455.9572519159992,r,1.0,0.4795226249989355,,,,,,sub-169,1,stroop_test,,
,,,,115.0,7.0,9.0,,,,,,,,,,,,,gelb,yellow,g,1.0,g,1.0,0.6576004160015145,,,,,,,,,,9.0,7.0,115.0,10.0,455.9663486659993,,,,,,,,,,,,,,,,,455.95769400000427,456.3050815000024,457.0979125829981,457.0894899999985,,,,,,,,,,,,,,,,,,,,,,,,,,,,,,,,,,,457.09029787500185,457.0979125829981,457.0979125829981,457.7642065830005,g,1.0,0.6576004160015145,,,,,,sub-169,1,stroop_test,,
,,,,116.0,8.0,9.0,,,,,,,,,,,,,rot,red,r,1.0,r,1.0,0.5404340419991058,,,,,,,,,,9.0,8.0,116.0,0.0,457.7736242500032,,,,,,,,,,,,,,,,,457.7646347500049,457.86100658299983,458.6714193330045,458.6448463749985,,,,,,,,,,,,,,,,,,,,,,,,,,,,,,,,,,,458.6483292080011,458.6714193330045,458.6714193330045,459.2393068750025,r,1.0,0.5404340419991058,,,,,,sub-169,1,stroop_test,,
,,,,117.0,9.0,9.0,,,,,,,,,,,,,blau,red,r,0.0,r,1.0,0.4673467079992406,,,,,,,,,,9.0,9.0,117.0,4.0,459.2553992500034,,,,,,,,,,,,,,,,,459.2398556660046,459.5788687500026,460.3835829579984,460.37239741600206,,,,,,,,,,,,,,,,,,,,,,,,,,,,,,,,,,,460.37622583300254,460.3835829579984,460.3835829579984,460.85694299999886,r,1.0,0.4673467079992406,,,,,,sub-169,1,stroop_test,,
,,,,118.0,10.0,9.0,,,,,,,,,,,,,gelb,blue,b,0.0,b,1.0,0.4415840000001481,,,,,,,,,,9.0,10.0,118.0,9.0,460.86611837500095,,,,,,,,,,,,,,,,,460.8573917500034,461.205330458004,462.00091720800265,461.9891306249992,,,,,,,,,,,,,,,,,,,,,,,,,,,,,,,,,,,461.993710625,462.00091720800265,462.00091720800265,462.4467175829996,b,1.0,0.4415840000001481,,,,,,sub-169,1,stroop_test,,
,,,,119.0,11.0,9.0,,,,,,,,,,,,,blau,blue,b,1.0,b,1.0,0.4652839170012157,,,,,,,,,,9.0,11.0,119.0,5.0,462.4714815830012,,,,,,,,,,,,,,,,,462.447139625001,462.5449095830045,463.340382082999,463.32841554100014,,,,,,,,,,,,,,,,,,,,,,,,,,,,,,,,,,,463.3329334580049,463.340382082999,463.340382082999,463.80819787499786,b,1.0,0.4652839170012157,,,,,,sub-169,1,stroop_test,,
,,,,,,,,,,,,,,,,,,,,,,,,,,,,,,,,,,,,,,,,,,,,,,,,,,,,,,,,,,,,,,,,,,,,,,,,,,,,,,,,,,,,,,,,,,,,,,,,,,,,,,463.808516875004,463.8188790830027,468.8100853750002,468.8059039159998,sub-169,1,stroop_test,,
