wordCTK,colorCTK,corrAnsCTK,congruentCTK,thisN,thisTrialN,thisRepN,keyResp_CTK.keys,keyResp_CTK.corr,keyResp_CTK.rt,keyResp_CTK.duration,wordPractice,colorPractice,corrAnsPractice,congruentPractice,respPractice.keys,respPractice.corr,respPractice.rt,respPractice.duration,word,color,corrAns,congruent,keyResp_test_run.keys,keyResp_test_run.corr,keyResp_test_run.rt,keyResp_test_run.duration,trials_CTK.thisRepN,trials_CTK.thisTrialN,trials_CTK.thisN,trials_CTK.thisIndex,trials_practice.thisRepN,trials_practice.thisTrialN,trials_practice.thisN,trials_practice.thisIndex,trials_test.thisRepN,trials_test.thisTrialN,trials_test.thisN,trials_test.thisIndex,thisRow.t,notes,instruction.started,instr_text.started,instr_image.started,instr_resp.started,instruction.stopped,instr_resp.keys,instr_resp.rt,instr_resp.duration,instr_color_to_key.started,instr_ctk.started,resp_ctk.started,instr_color_to_key.stopped,resp_ctk.keys,resp_ctk.rt,resp_ctk.duration,ITI.started,fixcross.started,fixcross.stopped,ITI.stopped,color_to_key_run.started,stimulus_CTK.started,keyResp_CTK.started,color_to_key_run.stopped,trials_CTK.keyResp_CTK.keys,trials_CTK.keyResp_CTK.corr,trials_CTK.keyResp_CTK.rt,trials_CTK.keyResp_CTK.duration,instr_practice.started,instr_practice_text.started,instr_practice_resp.started,instr_practice.stopped,instr_practice_resp.keys,instr_practice_resp.rt,instr_practice_resp.duration,practice_run.started,stimulus_practice.started,respPractice.started,practice_run.stopped,trials_practice.respPractice.keys,trials_practice.respPractice.corr,trials_practice.respPractice.rt,trials_practice.respPractice.duration,feedback.started,textFeedback.started,feedback.stopped,textFeedback.stopped,instr_test.started,instr_test_text.started,instr_test_resp.started,instr_test.stopped,instr_test_resp.keys,instr_test_resp.rt,instr_test_resp.duration,test_run.started,stimulus_test_run.started,keyResp_test_run.started,test_run.stopped,trials_test.keyResp_test_run.keys,trials_test.keyResp_test_run.corr,trials_test.keyResp_test_run.rt,trials_test.keyResp_test_run.duration,goodbye.started,textGoodbye.started,textGoodbye.stopped,goodbye.stopped,participant,session,expName,frameRate,Unnamed: 113
,,,,,,,,,,,,,,,,,,,,,,,,,,,,,,,,,,,,,,,,,0.0124514179915422,0.0459149309899657,0.0459149309899657,0.0459149309899657,48.93540421698708,space,48.60064762800175,,,,,,,,,,,,,,,,,,,,,,,,,,,,,,,,,,,,,,,,,,,,,,,,,,,,,,,,,,,sub-186,1,stroop_test,62.18810141123349,
,,,,,,,,,,,,,,,,,,,,,,,,,,,,,,,,,,,,,,,,,,,,,,,,,48.93550292898726,48.95172810999793,48.95172810999793,52.04258840798866,space,3.0772742520057363,,,,,,,,,,,,,,,,,,,,,,,,,,,,,,,,,,,,,,,,,,,,,,,,,,,,sub-186,1,stroop_test,62.18810141123349,
test,yellow,g,1.0,0.0,0.0,0.0,g,1.0,1.6024437750020295,,,,,,,,,,,,,,,,,,0.0,0.0,0.0,1.0,,,,,,,,,52.100074673988274,,,,,,,,,,,,,,,,,52.0798334209976,52.1415287359996,52.9425176629884,52.92440582899144,52.92891438299557,52.9425176629884,52.9425176629884,54.55920006299857,g,1.0,1.6024437750020295,,,,,,,,,,,,,,,,,,,,,,,,,,,,,,,,,,,,,,,,sub-186,1,stroop_test,62.18810141123349,
test,red,r,1.0,1.0,1.0,0.0,r,1.0,0.634938235001755,,,,,,,,,,,,,,,,,,0.0,1.0,1.0,0.0,,,,,,,,,54.57406265298778,,,,,,,,,,,,,,,,,54.55960686599428,55.373761472990736,56.17367642499448,56.158020289993146,56.15865458500048,56.17367642499448,56.17367642499448,56.824535389998346,r,1.0,0.634938235001755,,,,,,,,,,,,,,,,,,,,,,,,,,,,,,,,,,,,,,,,sub-186,1,stroop_test,62.18810141123349,
test,blue,b,1.0,2.0,2.0,0.0,b,1.0,0.6019877420039847,,,,,,,,,,,,,,,,,,0.0,2.0,2.0,2.0,,,,,,,,,56.84079080900119,,,,,,,,,,,,,,,,,56.82480697600113,57.62374125399219,58.42373332599527,58.408040684997104,58.40865527499409,58.42373332599527,58.42373332599527,59.041699495996,b,1.0,0.6019877420039847,,,,,,,,,,,,,,,,,,,,,,,,,,,,,,,,,,,,,,,,sub-186,1,stroop_test,62.18810141123349,
test,red,r,1.0,3.0,0.0,1.0,r,1.0,0.3792188149964204,,,,,,,,,,,,,,,,,,1.0,0.0,3.0,0.0,,,,,,,,,59.05768956898828,,,,,,,,,,,,,,,,,59.04212143000041,59.85764303899487,60.6575126839889,60.64083616599965,60.641523496000445,60.6575126839889,60.6575126839889,61.04198965099931,r,1.0,0.3792188149964204,,,,,,,,,,,,,,,,,,,,,,,,,,,,,,,,,,,,,,,,sub-186,1,stroop_test,62.18810141123349,
test,yellow,g,1.0,4.0,1.0,1.0,g,1.0,0.6227293260017177,,,,,,,,,,,,,,,,,,1.0,1.0,4.0,1.0,,,,,,,,,61.05741423599829,,,,,,,,,,,,,,,,,61.042419776989846,61.40779801100143,62.20768813599716,62.19075480099127,62.19121503499628,62.20768813599716,62.20768813599716,62.84118042398768,g,1.0,0.6227293260017177,,,,,,,,,,,,,,,,,,,,,,,,,,,,,,,,,,,,,,,,sub-186,1,stroop_test,62.18810141123349,
test,blue,b,1.0,5.0,2.0,1.0,b,1.0,0.7129029680072563,,,,,,,,,,,,,,,,,,1.0,2.0,5.0,2.0,,,,,,,,,62.85899775099824,,,,,,,,,,,,,,,,,62.841504648997216,63.20747386298899,64.00784116599243,63.99079633200017,63.99137821499608,64.00784116599243,64.00784116599243,64.72673725298955,b,1.0,0.7129029680072563,,,,,,,,,,,,,,,,,,,,,,,,,,,,,,,,,,,,,,,,sub-186,1,stroop_test,62.18810141123349,
test,blue,b,1.0,6.0,0.0,2.0,b,1.0,0.4925746899971273,,,,,,,,,,,,,,,,,,2.0,0.0,6.0,2.0,,,,,,,,,64.74030192299688,,,,,,,,,,,,,,,,,64.72701534099178,65.5407340870006,66.34072721398843,66.32382558898826,66.32423528999789,66.34072721398843,66.34072721398843,66.84152128300047,b,1.0,0.4925746899971273,,,,,,,,,,,,,,,,,,,,,,,,,,,,,,,,,,,,,,,,sub-186,1,stroop_test,62.18810141123349,
test,yellow,g,1.0,7.0,1.0,2.0,g,1.0,1.0307633880001958,,,,,,,,,,,,,,,,,,2.0,1.0,7.0,1.0,,,,,,,,,66.85714274099155,,,,,,,,,,,,,,,,,66.84179868998763,67.65737315898878,68.4574838970002,68.44061547498859,68.44102646799001,68.4574838970002,68.4574838970002,69.49161381799786,g,1.0,1.0307633880001958,,,,,,,,,,,,,,,,,,,,,,,,,,,,,,,,,,,,,,,,sub-186,1,stroop_test,62.18810141123349,
test,red,r,1.0,8.0,2.0,2.0,r,1.0,0.5973274830030277,,,,,,,,,,,,,,,,,,2.0,2.0,8.0,0.0,,,,,,,,,69.50739323999733,,,,,,,,,,,,,,,,,69.49207918898901,69.60751507099485,70.40794550199644,70.39115179599321,70.39163179098978,70.40794550199644,70.40794550199644,71.00907563699002,r,1.0,0.5973274830030277,,,,,,,,,,,,,,,,,,,,,,,,,,,,,,,,,,,,,,,,sub-186,1,stroop_test,62.18810141123349,
test,blue,b,1.0,9.0,0.0,3.0,b,1.0,1.0463379459979478,,,,,,,,,,,,,,,,,,3.0,0.0,9.0,2.0,,,,,,,,,71.02382795899757,,,,,,,,,,,,,,,,,71.0095159199991,71.82367408899881,72.62400274298852,72.60776941699442,72.60819682000147,72.62400274298852,72.62400274298852,73.67487789900042,b,1.0,1.0463379459979478,,,,,,,,,,,,,,,,,,,,,,,,,,,,,,,,,,,,,,,,sub-186,1,stroop_test,62.18810141123349,
test,yellow,g,1.0,10.0,1.0,3.0,r,0.0,0.5868469400011236,,,,,,,,,,,,,,,,,,3.0,1.0,10.0,1.0,,,,,,,,,73.6909733020002,,,,,,,,,,,,,,,,,73.67514502399717,73.77381941399653,74.57355329699931,74.55826083599823,74.55894729099236,74.57355329699931,74.57355329699931,75.17445816598774,r,0.0,0.5868469400011236,,,,,,,,,,,,,,,,,,,,,,,,,,,,,,,,,,,,,,,,sub-186,1,stroop_test,62.18810141123349,
test,red,r,1.0,11.0,2.0,3.0,r,1.0,0.6695084539969685,,,,,,,,,,,,,,,,,,3.0,2.0,11.0,0.0,,,,,,,,,75.19080321300135,,,,,,,,,,,,,,,,,75.17474777800089,75.52383686399844,76.32367617898853,76.30778477399144,76.30830764200073,76.32367617898853,76.32367617898853,77.00825481399079,r,1.0,0.6695084539969685,,,,,,,,,,,,,,,,,,,,,,,,,,,,,,,,,,,,,,,,sub-186,1,stroop_test,62.18810141123349,
,,,,,,,,,,,,,,,,,,,,,,,,,,,,,,,,,,,,,,,,,,,,,,,,,,,,,,,,,,,,,,,,,,,,77.00842375199136,77.02374978498847,77.02374978498847,79.05819863999204,space,2.020646286997362,,,,,,,,,,,,,,,,,,,,,,,,,,,,,,,,,sub-186,1,stroop_test,62.18810141123349,
,,,,0.0,0.0,0.0,,,,,gelb,yellow,g,1.0,g,1.0,1.2375387130014133,,,,,,,,,,,,,,0.0,0.0,0.0,11.0,,,,,79.08552427399263,,,,,,,,,,,,,,,,,79.07586776198877,80.257578232995,81.06031173600059,81.04146319998836,,,,,,,,,,,,,,,,81.04658650000056,81.06031173600059,81.06031173600059,82.30867758698878,g,1.0,1.2375387130014133,,82.31411777099129,82.32875647599576,83.32393694498751,,,,,,,,,,,,,,,,,,,,,sub-186,1,stroop_test,62.18810141123349,
,,,,1.0,1.0,0.0,,,,,rot,red,r,1.0,r,1.0,0.5939715650019934,,,,,,,,,,,,,,0.0,1.0,1.0,1.0,,,,,83.34075395399122,,,,,,,,,,,,,,,,,83.3242867319932,83.6737687989953,84.47503854599199,84.45767227000033,,,,,,,,,,,,,,,,84.4613840039965,84.47503854599199,84.47503854599199,85.07461384798808,r,1.0,0.5939715650019934,,85.07504012399295,85.09072031899996,86.07430292399658,86.09062443599396,,,,,,,,,,,,,,,,,,,,sub-186,1,stroop_test,62.18810141123349,
,,,,2.0,2.0,0.0,,,,,rot,yellow,g,0.0,r,0.0,0.8259672169951955,,,,,,,,,,,,,,0.0,2.0,2.0,3.0,,,,,86.09062443599396,,,,,,,,,,,,,,,,,86.07470535399625,86.42374279198702,87.22373782999057,87.20735456499096,,,,,,,,,,,,,,,,87.20780561398715,87.22373782999057,87.22373782999057,88.05882363898854,r,0.0,0.8259672169951955,,88.06356852799945,88.08848136098823,89.07497556699673,,,,,,,,,,,,,,,,,,,,,sub-186,1,stroop_test,62.18810141123349,
,,,,3.0,3.0,0.0,,,,,rot,blue,b,0.0,b,1.0,1.042918617997202,,,,,,,,,,,,,,0.0,3.0,3.0,2.0,,,,,89.09107046299323,,,,,,,,,,,,,,,,,89.07532719499432,89.87436659399827,90.67452403598872,90.65777947098832,,,,,,,,,,,,,,,,90.65824313199846,90.67452403598872,90.67452403598872,91.72489003399096,b,1.0,1.042918617997202,,91.72736722198896,91.74275225200108,92.74118323899164,,,,,,,,,,,,,,,,,,,,,sub-186,1,stroop_test,62.18810141123349,
,,,,4.0,4.0,0.0,,,,,gelb,blue,b,0.0,b,1.0,0.916198261998943,,,,,,,,,,,,,,0.0,4.0,4.0,9.0,,,,,92.75755697999556,,,,,,,,,,,,,,,,,92.7416750859993,93.52446996199431,94.32503083399206,94.30760943998756,,,,,,,,,,,,,,,,94.31013316399184,94.32503083399206,94.32503083399206,95.25817288499093,b,1.0,0.916198261998943,,95.25863215899152,95.27445906799404,96.25763448300133,96.27466719399672,,,,,,,,,,,,,,,,,,,,sub-186,1,stroop_test,62.18810141123349,
,,,,5.0,5.0,0.0,,,,,blau,yellow,g,0.0,g,1.0,0.5072824620001484,,,,,,,,,,,,,,0.0,5.0,5.0,7.0,,,,,96.27466719399672,,,,,,,,,,,,,,,,,96.2579176279978,96.35728518899124,97.15878644799524,97.14117923799496,,,,,,,,,,,,,,,,97.14505342800112,97.15878644799524,97.15878644799524,97.674755688,g,1.0,0.5072824620001484,,97.67517870299343,97.6907869179995,98.67453966099129,98.69089036800142,,,,,,,,,,,,,,,,,,,,sub-186,1,stroop_test,62.18810141123349,
,,,,6.0,6.0,0.0,,,,,blau,blue,b,1.0,b,1.0,1.1308966520009562,,,,,,,,,,,,,,0.0,6.0,6.0,5.0,,,,,98.69089036800142,,,,,,,,,,,,,,,,,98.67483553099736,99.02420518799045,99.82419502698758,99.8076853419916,,,,,,,,,,,,,,,,99.80831776899868,99.82419502698758,99.82419502698758,100.95843965798848,b,1.0,1.1308966520009562,,100.95919417699042,100.97517408999556,101.97462675099086,,,,,,,,,,,,,,,,,,,,,sub-186,1,stroop_test,62.18810141123349,
,,,,7.0,7.0,0.0,,,,,blau,blue,b,1.0,b,1.0,0.5248442360025365,,,,,,,,,,,,,,0.0,7.0,7.0,6.0,,,,,101.990850459988,,,,,,,,,,,,,,,,,101.97494498199376,102.75727840399486,103.5572884639987,103.54108342299878,,,,,,,,,,,,,,,,103.54161049899994,103.5572884639987,103.5572884639987,104.091565611001,b,1.0,0.5248442360025365,,104.09208710199164,104.1076041609922,105.09119074699991,105.10723722299736,,,,,,,,,,,,,,,,,,,,sub-186,1,stroop_test,62.18810141123349,
,,,,8.0,8.0,0.0,,,,,blau,red,r,0.0,r,1.0,0.984339155998896,,,,,,,,,,,,,,0.0,8.0,8.0,4.0,,,,,105.10723722299736,,,,,,,,,,,,,,,,,105.09155495899904,105.44088295698748,106.2405111209955,106.22430662099214,,,,,,,,,,,,,,,,106.22481030899507,106.2405111209955,106.2405111209955,107.24159285399946,r,1.0,0.984339155998896,,107.2420878099947,107.2573777489888,108.24115491598786,108.2574625129928,,,,,,,,,,,,,,,,,,,,sub-186,1,stroop_test,62.18810141123349,
,,,,9.0,9.0,0.0,,,,,gelb,red,r,0.0,r,1.0,0.6727340500074206,,,,,,,,,,,,,,0.0,9.0,9.0,8.0,,,,,108.2574625129928,,,,,,,,,,,,,,,,,108.24150986899622,109.44085700898722,110.24112042599882,110.22424920799676,,,,,,,,,,,,,,,,110.22688953999022,110.24112042599882,110.24112042599882,110.92537744999572,r,1.0,0.6727340500074206,,110.92591892198834,110.94153483299306,111.9242826159898,111.9409224439878,,,,,,,,,,,,,,,,,,,,sub-186,1,stroop_test,62.18810141123349,
,,,,10.0,10.0,0.0,,,,,gelb,yellow,g,1.0,g,1.0,1.578274704006617,,,,,,,,,,,,,,0.0,10.0,10.0,10.0,,,,,111.9409224439878,,,,,,,,,,,,,,,,,111.92456348099222,113.14091060998908,113.94088523199024,113.92421319500136,,,,,,,,,,,,,,,,113.92462261900071,113.94088523199024,113.94088523199024,115.5247794409952,g,1.0,1.578274704006617,,115.52544024899544,115.54200136399596,116.54089755599853,,,,,,,,,,,,,,,,,,,,,sub-186,1,stroop_test,62.18810141123349,
,,,,11.0,11.0,0.0,,,,,rot,red,r,1.0,r,1.0,0.5102198490058072,,,,,,,,,,,,,,0.0,11.0,11.0,0.0,,,,,116.55704025899468,,,,,,,,,,,,,,,,,116.54135372799648,117.32368691999,118.12554030599132,118.10734834399771,,,,,,,,,,,,,,,,118.11080920298993,118.12554030599132,118.12554030599132,118.6417325569928,r,1.0,0.5102198490058072,,118.6423906479904,118.65876811099588,119.65686528998776,,,,,,,,,,,,,,,,,,,,,sub-186,1,stroop_test,62.18810141123349,
,,,,12.0,0.0,1.0,,,,,rot,red,r,1.0,r,1.0,0.6358627479930874,,,,,,,,,,,,,,1.0,0.0,12.0,0.0,,,,,119.6734200649953,,,,,,,,,,,,,,,,,119.65716692298884,119.75688369999988,120.55673400299564,120.5402824789926,,,,,,,,,,,,,,,,120.54070337300072,120.55673400299564,120.55673400299564,121.20781207199616,r,1.0,0.6358627479930874,,121.20827310498862,121.22362756599614,122.20753028200124,122.2237007169897,,,,,,,,,,,,,,,,,,,,sub-186,1,stroop_test,62.18810141123349,
,,,,13.0,1.0,1.0,,,,,blau,red,r,0.0,r,1.0,0.6354584880027687,,,,,,,,,,,,,,1.0,1.0,13.0,4.0,,,,,122.2237007169897,,,,,,,,,,,,,,,,,122.2079013170005,123.0073173099954,123.80829705999348,123.7908564209938,,,,,,,,,,,,,,,,123.79369589500128,123.80829705999348,123.80829705999348,124.4581005509972,r,1.0,0.6354584880027687,,124.45861801999854,124.47387645399432,125.45751108099648,125.47396883399053,,,,,,,,,,,,,,,,,,,,sub-186,1,stroop_test,62.18810141123349,
,,,,14.0,2.0,1.0,,,,,rot,yellow,g,0.0,b,0.0,1.0436582709953657,,,,,,,,,,,,,,1.0,2.0,14.0,3.0,,,,,125.47396883399053,,,,,,,,,,,,,,,,,125.45796473800146,125.55729822599096,126.3577816659963,126.34101968999312,,,,,,,,,,,,,,,,126.34380690399848,126.3577816659963,126.3577816659963,127.40827454900136,b,0.0,1.0436582709953657,,127.41073524398962,127.42574373800016,128.42413983499864,,,,,,,,,,,,,,,,,,,,,sub-186,1,stroop_test,62.18810141123349,
,,,,15.0,3.0,1.0,,,,,gelb,yellow,g,1.0,g,1.0,0.8387929599994095,,,,,,,,,,,,,,1.0,3.0,15.0,11.0,,,,,128.4405789579905,,,,,,,,,,,,,,,,,128.42464336899866,129.6239211619977,130.42434946198773,130.40742449800018,,,,,,,,,,,,,,,,130.4102577809972,130.42434946198773,130.42434946198773,131.2749026179954,g,1.0,0.8387929599994095,,131.2777646339964,131.29291615799593,132.2906463249965,,,,,,,,,,,,,,,,,,,,,sub-186,1,stroop_test,62.18810141123349,
,,,,16.0,4.0,1.0,,,,,blau,blue,b,1.0,b,1.0,0.4029901869944297,,,,,,,,,,,,,,1.0,4.0,16.0,6.0,,,,,132.30727037099132,,,,,,,,,,,,,,,,,132.29117062099976,132.390596592988,133.19118760499987,133.1742721099872,,,,,,,,,,,,,,,,133.17711308199796,133.19118760499987,133.19118760499987,133.60818554999423,b,1.0,0.4029901869944297,,133.60865238599945,133.62390388899075,134.60734015799244,134.62386115599656,,,,,,,,,,,,,,,,,,,,sub-186,1,stroop_test,62.18810141123349,
,,,,17.0,5.0,1.0,,,,,blau,blue,b,1.0,b,1.0,0.6639463449973846,,,,,,,,,,,,,,1.0,5.0,17.0,5.0,,,,,134.62386115599656,,,,,,,,,,,,,,,,,134.60776560199156,134.72383924399037,135.52371990999382,135.50733783299802,,,,,,,,,,,,,,,,135.50791785299953,135.52371990999382,135.52371990999382,136.19125691099907,b,1.0,0.6639463449973846,,136.19176116598828,136.20749670399528,137.19080889500037,137.20711084599316,,,,,,,,,,,,,,,,,,,,sub-186,1,stroop_test,62.18810141123349,
,,,,18.0,6.0,1.0,,,,,gelb,red,r,0.0,r,1.0,0.8180485299963038,,,,,,,,,,,,,,1.0,6.0,18.0,8.0,,,,,137.20711084599316,,,,,,,,,,,,,,,,,137.1912326199963,137.29049507300078,138.09046032300105,138.0740361539938,,,,,,,,,,,,,,,,138.07653763100095,138.09046032300105,138.09046032300105,138.9246452679945,r,1.0,0.8180485299963038,,138.9251682920003,138.94038786899182,139.92354863599758,139.94029561500065,,,,,,,,,,,,,,,,,,,,sub-186,1,stroop_test,62.18810141123349,
,,,,19.0,7.0,1.0,,,,,gelb,yellow,g,1.0,g,1.0,0.3768711940065259,,,,,,,,,,,,,,1.0,7.0,19.0,10.0,,,,,139.94029561500065,,,,,,,,,,,,,,,,,139.92384847499488,141.123630142989,141.92357750999508,141.90752092598996,,,,,,,,,,,,,,,,141.90810069299187,141.92357750999508,141.92357750999508,142.3082232309971,g,1.0,0.3768711940065259,,142.30864475198905,142.3241889209894,143.30741353399935,143.3236612969922,,,,,,,,,,,,,,,,,,,,sub-186,1,stroop_test,62.18810141123349,
,,,,20.0,8.0,1.0,,,,,rot,red,r,1.0,r,1.0,0.9936867600044934,,,,,,,,,,,,,,1.0,8.0,20.0,1.0,,,,,143.3236612969922,,,,,,,,,,,,,,,,,143.30774487600138,143.67373046500143,144.47365775999788,144.45717793398944,,,,,,,,,,,,,,,,144.4596711859922,144.47365775999788,144.47365775999788,145.47480378099135,r,1.0,0.9936867600044934,,145.47522998899512,145.4914016709954,146.49048956298793,,,,,,,,,,,,,,,,,,,,,sub-186,1,stroop_test,62.18810141123349,
,,,,21.0,9.0,1.0,,,,,rot,blue,b,0.0,b,1.0,0.679944585004705,,,,,,,,,,,,,,1.0,9.0,21.0,2.0,,,,,146.507074491994,,,,,,,,,,,,,,,,,146.49084526298975,147.29034099799173,148.09038202799275,148.0738713729952,,,,,,,,,,,,,,,,148.0744526579947,148.09038202799275,148.09038202799275,148.77476917499737,b,1.0,0.679944585004705,,148.7753377899935,148.7905923819926,149.77410907398735,149.7901507929928,,,,,,,,,,,,,,,,,,,,sub-186,1,stroop_test,62.18810141123349,
,,,,22.0,10.0,1.0,,,,,gelb,blue,b,0.0,b,1.0,0.4793145499861566,,,,,,,,,,,,,,1.0,10.0,22.0,9.0,,,,,149.7901507929928,,,,,,,,,,,,,,,,,149.77453630400123,149.890434128989,150.69068418099778,150.67386908599292,,,,,,,,,,,,,,,,150.6767069179914,150.69068418099778,150.69068418099778,151.17419433398754,b,1.0,0.4793145499861566,,151.17462553898804,151.1907128719904,152.1740022390004,152.19029459999,,,,,,,,,,,,,,,,,,,,sub-186,1,stroop_test,62.18810141123349,
,,,,23.0,11.0,1.0,,,,,blau,yellow,g,0.0,g,1.0,0.3906729830050608,,,,,,,,,,,,,,1.0,11.0,23.0,7.0,,,,,152.19029459999,,,,,,,,,,,,,,,,,152.17444513499504,153.37366194700007,154.17433167700074,154.15708547999384,,,,,,,,,,,,,,,,154.15994249600044,154.17433167700074,154.17433167700074,154.57413260798785,g,1.0,0.3906729830050608,,154.5745903019997,154.59039073898748,155.57386483698792,155.59028124599718,,,,,,,,,,,,,,,,,,,,sub-186,1,stroop_test,62.18810141123349,
,,,,,,,,,,,,,,,,,,,,,,,,,,,,,,,,,,,,,,,,,,,,,,,,,,,,,,,,,,,,,,,,,,,,,,,,,,,,,,,,,,,,,,,155.57404615198902,155.59028124599718,155.59028124599718,181.74120460999256,space,26.139911768012094,,,,,,,,,,,,,,sub-186,1,stroop_test,62.18810141123349,
,,,,0.0,0.0,0.0,,,,,,,,,,,,,blau,blue,b,1.0,b,1.0,0.866849354992155,,,,,,,,,,0.0,0.0,0.0,6.0,181.77150583599,,,,,,,,,,,,,,,,,181.7605594060005,182.5556852129957,183.3560573040013,183.33964260399807,,,,,,,,,,,,,,,,,,,,,,,,,,,,,,,,,,,183.34250528398843,183.3560573040013,183.3560573040013,184.2407022879925,b,1.0,0.866849354992155,,,,,,sub-186,1,stroop_test,62.18810141123349,
,,,,1.0,1.0,0.0,,,,,,,,,,,,,rot,red,r,1.0,r,1.0,0.4688992420124123,,,,,,,,,,0.0,1.0,1.0,1.0,184.25603045499884,,,,,,,,,,,,,,,,,184.24119238599087,185.4559563840012,186.25598536799956,186.23954726599916,,,,,,,,,,,,,,,,,,,,,,,,,,,,,,,,,,,186.24242994999804,186.25598536799956,186.25598536799956,186.74023468799717,r,1.0,0.4688992420124123,,,,,,sub-186,1,stroop_test,62.18810141123349,
,,,,2.0,2.0,0.0,,,,,,,,,,,,,blau,red,r,0.0,r,1.0,0.4583212100114906,,,,,,,,,,0.0,2.0,2.0,4.0,186.75633571199432,,,,,,,,,,,,,,,,,186.7405452009989,187.5392290579912,188.34131880599307,188.3262179079902,,,,,,,,,,,,,,,,,,,,,,,,,,,,,,,,,,,188.32850543499808,188.34131880599307,188.34131880599307,188.80703042499957,r,1.0,0.4583212100114906,,,,,,sub-186,1,stroop_test,62.18810141123349,
,,,,3.0,3.0,0.0,,,,,,,,,,,,,gelb,yellow,g,1.0,g,1.0,0.5114381719904486,,,,,,,,,,0.0,3.0,3.0,10.0,188.822110958994,,,,,,,,,,,,,,,,,188.8073936199944,189.1724769379944,189.97347842899035,189.95644995399925,,,,,,,,,,,,,,,,,,,,,,,,,,,,,,,,,,,189.95985517698864,189.97347842899035,189.97347842899035,190.4905668639985,g,1.0,0.5114381719904486,,,,,,sub-186,1,stroop_test,62.18810141123349,
,,,,4.0,4.0,0.0,,,,,,,,,,,,,rot,blue,b,0.0,b,1.0,0.3423080339998705,,,,,,,,,,0.0,4.0,4.0,2.0,190.50566298099875,,,,,,,,,,,,,,,,,190.49100340600123,191.70586410499527,192.50619582099895,192.48915020399727,,,,,,,,,,,,,,,,,,,,,,,,,,,,,,,,,,,192.491849166996,192.50619582099895,192.50619582099895,192.85708826199695,b,1.0,0.3423080339998705,,,,,,sub-186,1,stroop_test,62.18810141123349,
,,,,5.0,5.0,0.0,,,,,,,,,,,,,blau,yellow,g,0.0,g,1.0,0.509071672000573,,,,,,,,,,0.0,5.0,5.0,7.0,192.87250126799336,,,,,,,,,,,,,,,,,192.857555169001,194.07276663999076,194.87270972199624,194.85611317199076,,,,,,,,,,,,,,,,,,,,,,,,,,,,,,,,,,,194.8591202289972,194.87270972199624,194.87270972199624,195.3902242299955,g,1.0,0.509071672000573,,,,,,sub-186,1,stroop_test,62.18810141123349,
,,,,6.0,6.0,0.0,,,,,,,,,,,,,gelb,red,r,0.0,r,1.0,0.5128759570070542,,,,,,,,,,0.0,6.0,6.0,8.0,195.4056406239979,,,,,,,,,,,,,,,,,195.39059253499727,196.1893176070007,196.9897158179956,196.97292388499773,,,,,,,,,,,,,,,,,,,,,,,,,,,,,,,,,,,196.9761861559964,196.9897158179956,196.9897158179956,197.50714773099756,r,1.0,0.5128759570070542,,,,,,sub-186,1,stroop_test,62.18810141123349,
,,,,7.0,7.0,0.0,,,,,,,,,,,,,rot,red,r,1.0,g,0.0,0.3710683270037407,,,,,,,,,,0.0,7.0,7.0,0.0,197.52255420800063,,,,,,,,,,,,,,,,,197.5074599879881,198.30633736899472,199.10668774798975,199.08989273798943,,,,,,,,,,,,,,,,,,,,,,,,,,,,,,,,,,,199.09258448900076,199.10668774798975,199.10668774798975,199.49036484298995,g,0.0,0.3710683270037407,,,,,,sub-186,1,stroop_test,62.18810141123349,
,,,,8.0,8.0,0.0,,,,,,,,,,,,,gelb,blue,b,0.0,b,1.0,0.455698213991127,,,,,,,,,,0.0,8.0,8.0,9.0,199.50590771599676,,,,,,,,,,,,,,,,,199.4906783740007,200.68968007199877,201.48996686100145,201.473337753996,,,,,,,,,,,,,,,,,,,,,,,,,,,,,,,,,,,201.47608209498867,201.48996686100145,201.48996686100145,201.9576641349995,b,1.0,0.455698213991127,,,,,,sub-186,1,stroop_test,62.18810141123349,
,,,,9.0,9.0,0.0,,,,,,,,,,,,,blau,blue,b,1.0,b,1.0,0.4155308659974253,,,,,,,,,,0.0,9.0,9.0,5.0,201.9727020559949,,,,,,,,,,,,,,,,,201.95797770199715,202.77293764999197,203.57350171699363,203.55664155900013,,,,,,,,,,,,,,,,,,,,,,,,,,,,,,,,,,,203.55943902798757,203.57350171699363,203.57350171699363,203.99047102598703,b,1.0,0.4155308659974253,,,,,,sub-186,1,stroop_test,62.18810141123349,
,,,,10.0,10.0,0.0,,,,,,,,,,,,,gelb,yellow,g,1.0,r,0.0,0.4139674870093586,,,,,,,,,,0.0,10.0,10.0,11.0,204.006033216996,,,,,,,,,,,,,,,,,203.9909334479889,204.7895008479973,205.5902433739975,205.57334711399744,,,,,,,,,,,,,,,,,,,,,,,,,,,,,,,,,,,205.57618730398823,205.5902433739975,205.5902433739975,206.00725187499484,r,0.0,0.4139674870093586,,,,,,sub-186,1,stroop_test,62.18810141123349,
,,,,11.0,11.0,0.0,,,,,,,,,,,,,rot,yellow,g,0.0,g,1.0,0.9397524319938384,,,,,,,,,,0.0,11.0,11.0,3.0,206.02322071799423,,,,,,,,,,,,,,,,,206.00761620499543,206.3728854029905,207.17338751799247,207.1563840059971,,,,,,,,,,,,,,,,,,,,,,,,,,,,,,,,,,,207.1594285229949,207.17338751799247,207.17338751799247,208.1240898190008,g,1.0,0.9397524319938384,,,,,,sub-186,1,stroop_test,62.18810141123349,
,,,,12.0,0.0,1.0,,,,,,,,,,,,,rot,red,r,1.0,r,1.0,0.4929885519959498,,,,,,,,,,1.0,0.0,12.0,1.0,208.1395666699973,,,,,,,,,,,,,,,,,208.12445875100093,208.9393819319957,209.7390408959909,209.7230192799907,,,,,,,,,,,,,,,,,,,,,,,,,,,,,,,,,,,209.72343102798916,209.7390408959909,209.7390408959909,210.24023759599368,r,1.0,0.4929885519959498,,,,,,sub-186,1,stroop_test,62.18810141123349,
,,,,13.0,1.0,1.0,,,,,,,,,,,,,rot,blue,b,0.0,b,1.0,0.7958145940065151,,,,,,,,,,1.0,1.0,13.0,2.0,210.256041228,,,,,,,,,,,,,,,,,210.2405625370011,210.33957014099,211.13935026199036,211.12324137998803,,,,,,,,,,,,,,,,,,,,,,,,,,,,,,,,,,,211.12380421299892,211.13935026199036,211.13935026199036,211.9404964979913,b,1.0,0.7958145940065151,,,,,,sub-186,1,stroop_test,62.18810141123349,
,,,,14.0,2.0,1.0,,,,,,,,,,,,,gelb,yellow,g,1.0,g,1.0,0.5022502959909616,,,,,,,,,,1.0,2.0,14.0,10.0,211.9561585009942,,,,,,,,,,,,,,,,,211.9408016349917,212.05599796200116,212.8570415909926,212.8396183149889,,,,,,,,,,,,,,,,,,,,,,,,,,,,,,,,,,,212.8426844189962,212.8570415909926,212.8570415909926,213.37369057199976,g,1.0,0.5022502959909616,,,,,,sub-186,1,stroop_test,62.18810141123349,
,,,,15.0,3.0,1.0,,,,,,,,,,,,,blau,blue,b,1.0,b,1.0,0.4289799670077627,,,,,,,,,,1.0,3.0,15.0,6.0,213.38914158499392,,,,,,,,,,,,,,,,,213.37400681000145,213.4727139089955,214.2740673019871,214.25633531699717,,,,,,,,,,,,,,,,,,,,,,,,,,,,,,,,,,,214.26054252599715,214.2740673019871,214.2740673019871,214.70711112699064,b,1.0,0.4289799670077627,,,,,,sub-186,1,stroop_test,62.18810141123349,
,,,,16.0,4.0,1.0,,,,,,,,,,,,,gelb,yellow,g,1.0,g,1.0,0.3898793380067218,,,,,,,,,,1.0,4.0,16.0,11.0,214.72252070499235,,,,,,,,,,,,,,,,,214.70747036299144,214.82271276100076,215.62296605399752,215.60642385599203,,,,,,,,,,,,,,,,,,,,,,,,,,,,,,,,,,,215.6089497799985,215.62296605399752,215.62296605399752,216.0239210039872,g,1.0,0.3898793380067218,,,,,,sub-186,1,stroop_test,62.18810141123349,
,,,,17.0,5.0,1.0,,,,,,,,,,,,,blau,blue,b,1.0,b,1.0,0.4650422510021599,,,,,,,,,,1.0,5.0,17.0,5.0,216.0393264079903,,,,,,,,,,,,,,,,,216.024247422989,216.83934098099417,217.6397936299909,217.623132430992,,,,,,,,,,,,,,,,,,,,,,,,,,,,,,,,,,,217.62591235699077,217.6397936299909,217.6397936299909,218.10703515299247,b,1.0,0.4650422510021599,,,,,,sub-186,1,stroop_test,62.18810141123349,
,,,,18.0,6.0,1.0,,,,,,,,,,,,,blau,red,r,0.0,b,0.0,0.6584138939942932,,,,,,,,,,1.0,6.0,18.0,4.0,218.1227064509876,,,,,,,,,,,,,,,,,218.10736088799604,218.22287207699264,219.02260269799444,219.0061597039894,,,,,,,,,,,,,,,,,,,,,,,,,,,,,,,,,,,219.00674350198824,219.02260269799444,219.02260269799444,219.6899098069989,b,0.0,0.6584138939942932,,,,,,sub-186,1,stroop_test,62.18810141123349,
,,,,19.0,7.0,1.0,,,,,,,,,,,,,rot,yellow,g,0.0,g,1.0,0.8883312099933391,,,,,,,,,,1.0,7.0,19.0,3.0,219.70562531999892,,,,,,,,,,,,,,,,,219.6902173409908,220.8895052109874,221.6897070569976,221.672923894992,,,,,,,,,,,,,,,,,,,,,,,,,,,,,,,,,,,221.67573277300107,221.6897070569976,221.6897070569976,222.59031934899397,g,1.0,0.8883312099933391,,,,,,sub-186,1,stroop_test,62.18810141123349,
,,,,20.0,8.0,1.0,,,,,,,,,,,,,gelb,blue,b,0.0,b,1.0,0.6229159329959657,,,,,,,,,,1.0,8.0,20.0,9.0,222.60554790499737,,,,,,,,,,,,,,,,,222.59069312798965,223.40602411699365,224.2067200419988,224.1896273119928,,,,,,,,,,,,,,,,,,,,,,,,,,,,,,,,,,,224.1924506549985,224.2067200419988,224.2067200419988,224.84043344898964,b,1.0,0.6229159329959657,,,,,,sub-186,1,stroop_test,62.18810141123349,
,,,,21.0,9.0,1.0,,,,,,,,,,,,,rot,red,r,1.0,r,1.0,0.6618622009991668,,,,,,,,,,1.0,9.0,21.0,0.0,224.8555993519985,,,,,,,,,,,,,,,,,224.84074447798776,225.65602093699272,226.45691579399863,226.43990033199952,,,,,,,,,,,,,,,,,,,,,,,,,,,,,,,,,,,226.4421482990001,226.45691579399863,226.45691579399863,227.1234251839924,r,1.0,0.6618622009991668,,,,,,sub-186,1,stroop_test,62.18810141123349,
,,,,22.0,10.0,1.0,,,,,,,,,,,,,gelb,red,r,0.0,r,1.0,0.4958291989896679,,,,,,,,,,1.0,10.0,22.0,8.0,227.13915524199547,,,,,,,,,,,,,,,,,227.12373319399197,227.47257343798992,228.27378158499775,228.25610626398705,,,,,,,,,,,,,,,,,,,,,,,,,,,,,,,,,,,228.25904643499237,228.27378158499775,228.27378158499775,228.77367671599492,r,1.0,0.4958291989896679,,,,,,sub-186,1,stroop_test,62.18810141123349,
,,,,23.0,11.0,1.0,,,,,,,,,,,,,blau,yellow,g,0.0,g,1.0,0.6248462210060097,,,,,,,,,,1.0,11.0,23.0,7.0,228.7892800759873,,,,,,,,,,,,,,,,,228.77402755699583,228.88927362998948,229.6898054679914,229.6728689129959,,,,,,,,,,,,,,,,,,,,,,,,,,,,,,,,,,,229.6760732489929,229.6898054679914,229.6898054679914,230.32320274999077,g,1.0,0.6248462210060097,,,,,,sub-186,1,stroop_test,62.18810141123349,
,,,,24.0,0.0,2.0,,,,,,,,,,,,,rot,blue,b,0.0,b,1.0,0.3208699870010605,,,,,,,,,,2.0,0.0,24.0,2.0,230.33921270800056,,,,,,,,,,,,,,,,,230.3235109269881,231.1225913209928,231.92288006699528,231.90608588099715,,,,,,,,,,,,,,,,,,,,,,,,,,,,,,,,,,,231.9088914229942,231.92288006699528,231.92288006699528,232.2567965079943,b,1.0,0.3208699870010605,,,,,,sub-186,1,stroop_test,62.18810141123349,
,,,,25.0,1.0,2.0,,,,,,,,,,,,,blau,yellow,g,0.0,g,1.0,0.6377531489997637,,,,,,,,,,2.0,1.0,25.0,7.0,232.2724930939876,,,,,,,,,,,,,,,,,232.25711682198744,232.372648812001,233.17291933599336,233.15601141798837,,,,,,,,,,,,,,,,,,,,,,,,,,,,,,,,,,,233.15891611299597,233.17291933599336,233.17291933599336,233.8235879569984,g,1.0,0.6377531489997637,,,,,,sub-186,1,stroop_test,62.18810141123349,
,,,,26.0,2.0,2.0,,,,,,,,,,,,,gelb,red,r,0.0,r,1.0,0.5710879349935567,,,,,,,,,,2.0,2.0,26.0,8.0,233.8391158070008,,,,,,,,,,,,,,,,,233.8238942889875,233.93908656798885,234.73959028899844,234.72290195299135,,,,,,,,,,,,,,,,,,,,,,,,,,,,,,,,,,,234.72574172599707,234.73959028899844,234.73959028899844,235.32371621299532,r,1.0,0.5710879349935567,,,,,,sub-186,1,stroop_test,62.18810141123349,
,,,,27.0,3.0,2.0,,,,,,,,,,,,,blau,red,r,0.0,r,1.0,0.9133683899999596,,,,,,,,,,2.0,3.0,27.0,4.0,235.3390467989957,,,,,,,,,,,,,,,,,235.3240297289885,235.43908830199507,236.23979102898736,236.22293225399332,,,,,,,,,,,,,,,,,,,,,,,,,,,,,,,,,,,236.22575746699292,236.23979102898736,236.23979102898736,237.1567190719943,r,1.0,0.9133683899999596,,,,,,sub-186,1,stroop_test,62.18810141123349,
,,,,28.0,4.0,2.0,,,,,,,,,,,,,gelb,yellow,g,1.0,g,1.0,0.5850985779979965,,,,,,,,,,2.0,4.0,28.0,11.0,237.1723390929983,,,,,,,,,,,,,,,,,237.15709644398885,237.95580585999411,238.75619574300072,238.73935156999505,,,,,,,,,,,,,,,,,,,,,,,,,,,,,,,,,,,238.74222839299185,238.75619574300072,238.75619574300072,239.35659247198785,g,1.0,0.5850985779979965,,,,,,sub-186,1,stroop_test,62.18810141123349,
,,,,29.0,5.0,2.0,,,,,,,,,,,,,blau,blue,b,1.0,b,1.0,0.6179228039982263,,,,,,,,,,2.0,5.0,29.0,5.0,239.37245116499253,,,,,,,,,,,,,,,,,239.3569084299961,240.5558527899993,241.35614037999767,241.3393406959949,,,,,,,,,,,,,,,,,,,,,,,,,,,,,,,,,,,241.3422731539904,241.35614037999767,241.35614037999767,241.98992236200135,b,1.0,0.6179228039982263,,,,,,sub-186,1,stroop_test,62.18810141123349,
,,,,30.0,6.0,2.0,,,,,,,,,,,,,gelb,yellow,g,1.0,g,1.0,0.5106156270048814,,,,,,,,,,2.0,6.0,30.0,10.0,242.0056938829948,,,,,,,,,,,,,,,,,241.9902410259965,242.7890660970006,243.58962378698925,243.57257462199777,,,,,,,,,,,,,,,,,,,,,,,,,,,,,,,,,,,243.57594411598984,243.58962378698925,243.58962378698925,244.106718621988,g,1.0,0.5106156270048814,,,,,,sub-186,1,stroop_test,62.18810141123349,
,,,,31.0,7.0,2.0,,,,,,,,,,,,,gelb,blue,b,0.0,b,1.0,0.7137199749995489,,,,,,,,,,2.0,7.0,31.0,9.0,244.1223732859944,,,,,,,,,,,,,,,,,244.1070261559944,245.3223993129941,246.12230436099344,246.1059991689981,,,,,,,,,,,,,,,,,,,,,,,,,,,,,,,,,,,246.1065758319892,246.12230436099344,246.12230436099344,246.83994953498768,b,1.0,0.7137199749995489,,,,,,sub-186,1,stroop_test,62.18810141123349,
,,,,32.0,8.0,2.0,,,,,,,,,,,,,rot,yellow,g,0.0,g,1.0,0.9433282320096624,,,,,,,,,,2.0,8.0,32.0,3.0,246.85582548499224,,,,,,,,,,,,,,,,,246.8403107709892,246.94017653499031,247.75674118199092,247.73919966899848,,,,,,,,,,,,,,,,,,,,,,,,,,,,,,,,,,,247.74207804400064,247.75674118199092,247.75674118199092,248.70658311399168,g,1.0,0.9433282320096624,,,,,,sub-186,1,stroop_test,62.18810141123349,
,,,,33.0,9.0,2.0,,,,,,,,,,,,,blau,blue,b,1.0,r,0.0,0.5187434529943857,,,,,,,,,,2.0,9.0,33.0,6.0,248.72230845599552,,,,,,,,,,,,,,,,,248.70689635600135,249.5056227579917,250.30628858698765,250.28925431899552,,,,,,,,,,,,,,,,,,,,,,,,,,,,,,,,,,,250.2921326039941,250.30628858698765,250.30628858698765,250.8396839240013,r,0.0,0.5187434529943857,,,,,,sub-186,1,stroop_test,62.18810141123349,
,,,,34.0,10.0,2.0,,,,,,,,,,,,,rot,red,r,1.0,r,1.0,0.4321369630051777,,,,,,,,,,2.0,10.0,34.0,1.0,250.85597589999088,,,,,,,,,,,,,,,,,250.84005805299967,251.6390307979891,252.4392018069921,252.42239644899385,,,,,,,,,,,,,,,,,,,,,,,,,,,,,,,,,,,252.4252367739973,252.4392018069921,252.4392018069921,252.87351319399025,r,1.0,0.4321369630051777,,,,,,sub-186,1,stroop_test,62.18810141123349,
,,,,35.0,11.0,2.0,,,,,,,,,,,,,rot,red,r,1.0,r,1.0,0.6008213809982408,,,,,,,,,,2.0,11.0,35.0,0.0,252.88864728699264,,,,,,,,,,,,,,,,,252.87390593499003,253.23881484099547,254.03887097399277,254.02237810999213,,,,,,,,,,,,,,,,,,,,,,,,,,,,,,,,,,,254.022866520987,254.03887097399277,254.03887097399277,254.6567956200015,r,1.0,0.6008213809982408,,,,,,sub-186,1,stroop_test,62.18810141123349,
,,,,36.0,0.0,3.0,,,,,,,,,,,,,blau,red,r,0.0,b,0.0,0.7249922090122709,,,,,,,,,,3.0,0.0,36.0,4.0,254.672361334,,,,,,,,,,,,,,,,,254.6571547079948,255.472274432992,256.2726591259998,256.25577880599303,,,,,,,,,,,,,,,,,,,,,,,,,,,,,,,,,,,256.25854935799725,256.2726591259998,256.2726591259998,257.00622748798924,b,0.0,0.7249922090122709,,,,,,sub-186,1,stroop_test,62.18810141123349,
,,,,37.0,1.0,3.0,,,,,,,,,,,,,rot,blue,b,0.0,b,1.0,0.6896806959994137,,,,,,,,,,3.0,1.0,37.0,2.0,257.0219464519905,,,,,,,,,,,,,,,,,257.00652938199346,257.1057583340007,257.905952614994,257.88919285999145,,,,,,,,,,,,,,,,,,,,,,,,,,,,,,,,,,,257.8919798939896,257.905952614994,257.905952614994,258.60665812499064,b,1.0,0.6896806959994137,,,,,,sub-186,1,stroop_test,62.18810141123349,
,,,,38.0,2.0,3.0,,,,,,,,,,,,,gelb,red,r,0.0,r,1.0,1.0269494269887218,,,,,,,,,,3.0,2.0,38.0,8.0,258.62216955299664,,,,,,,,,,,,,,,,,258.60703329299577,259.42215440399013,260.2227108349907,260.20572270099365,,,,,,,,,,,,,,,,,,,,,,,,,,,,,,,,,,,260.20910366799217,260.2227108349907,260.2227108349907,261.2565953619924,r,1.0,1.0269494269887218,,,,,,sub-186,1,stroop_test,62.18810141123349,
,,,,39.0,3.0,3.0,,,,,,,,,,,,,rot,yellow,g,0.0,g,1.0,0.4036076119955396,,,,,,,,,,3.0,3.0,39.0,3.0,261.27179704699665,,,,,,,,,,,,,,,,,261.2568965859973,261.3722163819912,262.1721905279992,262.15556302999903,,,,,,,,,,,,,,,,,,,,,,,,,,,,,,,,,,,262.15823379899666,262.1721905279992,262.1721905279992,262.5900951829972,g,1.0,0.4036076119955396,,,,,,sub-186,1,stroop_test,62.18810141123349,
,,,,40.0,4.0,3.0,,,,,,,,,,,,,blau,blue,b,1.0,b,1.0,0.3065682940068654,,,,,,,,,,3.0,4.0,40.0,5.0,262.6054660779919,,,,,,,,,,,,,,,,,262.5904570189887,262.7052876709932,263.50589062999643,263.48916433499835,,,,,,,,,,,,,,,,,,,,,,,,,,,,,,,,,,,263.492001822,263.50589062999643,263.50589062999643,263.8232731099997,b,1.0,0.3065682940068654,,,,,,sub-186,1,stroop_test,62.18810141123349,
,,,,41.0,5.0,3.0,,,,,,,,,,,,,rot,red,r,1.0,r,1.0,0.4241994530020747,,,,,,,,,,3.0,5.0,41.0,1.0,263.83871372399153,,,,,,,,,,,,,,,,,263.82359622599324,264.188756137999,264.9893080109905,264.9723032309994,,,,,,,,,,,,,,,,,,,,,,,,,,,,,,,,,,,264.9751501409919,264.9893080109905,264.9893080109905,265.4227143999888,r,1.0,0.4241994530020747,,,,,,sub-186,1,stroop_test,62.18810141123349,
,,,,42.0,6.0,3.0,,,,,,,,,,,,,gelb,yellow,g,1.0,g,1.0,0.3148055019992171,,,,,,,,,,3.0,6.0,42.0,11.0,265.4383026239957,,,,,,,,,,,,,,,,,265.4230179219885,266.22199436899973,267.02244490699377,267.00566132999666,,,,,,,,,,,,,,,,,,,,,,,,,,,,,,,,,,,267.008506831,267.02244490699377,267.02244490699377,267.3392967359978,g,1.0,0.3148055019992171,,,,,,sub-186,1,stroop_test,62.18810141123349,
,,,,43.0,7.0,3.0,,,,,,,,,,,,,gelb,blue,b,0.0,b,1.0,0.3339161850017262,,,,,,,,,,3.0,7.0,43.0,9.0,267.3549000849889,,,,,,,,,,,,,,,,,267.3396146239975,268.5551707279956,269.3552899919887,269.33906031599327,,,,,,,,,,,,,,,,,,,,,,,,,,,,,,,,,,,269.3396393659932,269.3552899919887,269.3552899919887,269.70630951799103,b,1.0,0.3339161850017262,,,,,,sub-186,1,stroop_test,62.18810141123349,
,,,,44.0,8.0,3.0,,,,,,,,,,,,,blau,yellow,g,0.0,g,1.0,0.4890279719984391,,,,,,,,,,3.0,8.0,44.0,7.0,269.72198955398926,,,,,,,,,,,,,,,,,269.70669864899537,270.5220693609881,271.322387563996,271.3054759929946,,,,,,,,,,,,,,,,,,,,,,,,,,,,,,,,,,,271.3083209339966,271.322387563996,271.322387563996,271.8228701999906,g,1.0,0.4890279719984391,,,,,,sub-186,1,stroop_test,62.18810141123349,
,,,,45.0,9.0,3.0,,,,,,,,,,,,,rot,red,r,1.0,r,1.0,0.6967172790027689,,,,,,,,,,3.0,9.0,45.0,0.0,271.83835105999606,,,,,,,,,,,,,,,,,271.8231842509995,271.9220229700004,272.7224458290002,272.7057173469948,,,,,,,,,,,,,,,,,,,,,,,,,,,,,,,,,,,272.7084330379876,272.7224458290002,272.7224458290002,273.4230668480013,r,1.0,0.6967172790027689,,,,,,sub-186,1,stroop_test,62.18810141123349,
,,,,46.0,10.0,3.0,,,,,,,,,,,,,gelb,yellow,g,1.0,g,1.0,0.3360849820019211,,,,,,,,,,3.0,10.0,46.0,10.0,273.4388674889924,,,,,,,,,,,,,,,,,273.4234275729977,273.78867958099,274.5893281049939,274.57218777699745,,,,,,,,,,,,,,,,,,,,,,,,,,,,,,,,,,,274.57538342398766,274.5893281049939,274.5893281049939,274.93972234398825,g,1.0,0.3360849820019211,,,,,,sub-186,1,stroop_test,62.18810141123349,
,,,,47.0,11.0,3.0,,,,,,,,,,,,,blau,blue,b,1.0,b,1.0,0.38728553900728,,,,,,,,,,3.0,11.0,47.0,6.0,274.95551657398755,,,,,,,,,,,,,,,,,274.94008371199016,275.055348747992,275.8561054999882,275.83890117600095,,,,,,,,,,,,,,,,,,,,,,,,,,,,,,,,,,,275.8417396849982,275.8561054999882,275.8561054999882,276.25662937699235,b,1.0,0.38728553900728,,,,,,sub-186,1,stroop_test,62.18810141123349,
,,,,48.0,0.0,4.0,,,,,,,,,,,,,rot,red,r,1.0,r,1.0,0.4628425919945584,,,,,,,,,,4.0,0.0,48.0,0.0,276.27163820900023,,,,,,,,,,,,,,,,,276.25693658099044,277.4719707789918,278.27227427999605,278.25562452099985,,,,,,,,,,,,,,,,,,,,,,,,,,,,,,,,,,,278.25841267699434,278.27227427999605,278.27227427999605,278.73963776299206,r,1.0,0.4628425919945584,,,,,,sub-186,1,stroop_test,62.18810141123349,
,,,,49.0,1.0,4.0,,,,,,,,,,,,,blau,blue,b,1.0,b,1.0,0.4227282909996575,,,,,,,,,,4.0,1.0,49.0,6.0,278.7553614359931,,,,,,,,,,,,,,,,,278.7399402909941,279.55544485899736,280.3544459239929,280.3382798899984,,,,,,,,,,,,,,,,,,,,,,,,,,,,,,,,,,,280.3405079340009,280.3544459239929,280.3544459239929,280.7897356559988,b,1.0,0.4227282909996575,,,,,,sub-186,1,stroop_test,62.18810141123349,
,,,,50.0,2.0,4.0,,,,,,,,,,,,,rot,red,r,1.0,r,1.0,0.4879598130064551,,,,,,,,,,4.0,2.0,50.0,1.0,280.8050076699874,,,,,,,,,,,,,,,,,280.7901432949875,281.6052187309979,282.4052438259969,282.38867287599714,,,,,,,,,,,,,,,,,,,,,,,,,,,,,,,,,,,282.391134118996,282.4052438259969,282.4052438259969,282.90605980699183,r,1.0,0.4879598130064551,,,,,,sub-186,1,stroop_test,62.18810141123349,
,,,,51.0,3.0,4.0,,,,,,,,,,,,,gelb,yellow,g,1.0,g,1.0,0.3539316590031376,,,,,,,,,,4.0,3.0,51.0,11.0,282.92211965398747,,,,,,,,,,,,,,,,,282.90637931499805,284.10527020799054,284.9051649739995,284.88856783699885,,,,,,,,,,,,,,,,,,,,,,,,,,,,,,,,,,,284.8910778110003,284.9051649739995,284.9051649739995,285.2727319229889,g,1.0,0.3539316590031376,,,,,,sub-186,1,stroop_test,62.18810141123349,
,,,,52.0,4.0,4.0,,,,,,,,,,,,,rot,blue,b,0.0,b,1.0,0.6434787239995785,,,,,,,,,,4.0,4.0,52.0,2.0,285.2882407369907,,,,,,,,,,,,,,,,,285.2730967459938,285.3718713159906,286.1722659879888,286.15552839699376,,,,,,,,,,,,,,,,,,,,,,,,,,,,,,,,,,,286.1583412209875,286.1722659879888,286.1722659879888,286.8233201739931,b,1.0,0.6434787239995785,,,,,,sub-186,1,stroop_test,62.18810141123349,
,,,,53.0,5.0,4.0,,,,,,,,,,,,,gelb,red,r,0.0,r,1.0,0.6316339350014459,,,,,,,,,,4.0,5.0,53.0,8.0,286.8383450279944,,,,,,,,,,,,,,,,,286.8236599609954,288.03843667199544,288.83923459298967,288.82216414099094,,,,,,,,,,,,,,,,,,,,,,,,,,,,,,,,,,,288.8255690629885,288.83923459298967,288.83923459298967,289.4729466729914,r,1.0,0.6316339350014459,,,,,,sub-186,1,stroop_test,62.18810141123349,
,,,,54.0,6.0,4.0,,,,,,,,,,,,,blau,red,r,0.0,b,0.0,0.7710916869982611,,,,,,,,,,4.0,6.0,54.0,4.0,289.4882163989969,,,,,,,,,,,,,,,,,289.4732998169929,290.6884104349883,291.48882578698976,291.472062610992,,,,,,,,,,,,,,,,,,,,,,,,,,,,,,,,,,,291.474887363991,291.48882578698976,291.48882578698976,292.272849424,b,0.0,0.7710916869982611,,,,,,sub-186,1,stroop_test,62.18810141123349,
,,,,55.0,7.0,4.0,,,,,,,,,,,,,gelb,blue,b,0.0,b,1.0,0.630688547011232,,,,,,,,,,4.0,7.0,55.0,9.0,292.28831062300014,,,,,,,,,,,,,,,,,292.27315552798973,293.0882603279897,293.8887602600007,293.871860454994,,,,,,,,,,,,,,,,,,,,,,,,,,,,,,,,,,,293.8746699420008,293.8887602600007,293.8887602600007,294.5228433609882,b,1.0,0.630688547011232,,,,,,sub-186,1,stroop_test,62.18810141123349,
,,,,56.0,8.0,4.0,,,,,,,,,,,,,blau,blue,b,1.0,b,1.0,0.4154376599908573,,,,,,,,,,4.0,8.0,56.0,5.0,294.53813079399697,,,,,,,,,,,,,,,,,294.52322484699835,295.3383277289977,296.13867840799503,296.1219780940009,,,,,,,,,,,,,,,,,,,,,,,,,,,,,,,,,,,296.124814906987,296.13867840799503,296.13867840799503,296.5561300429981,b,1.0,0.4154376599908573,,,,,,sub-186,1,stroop_test,62.18810141123349,
,,,,57.0,9.0,4.0,,,,,,,,,,,,,rot,yellow,g,0.0,g,1.0,0.9061114059877582,,,,,,,,,,4.0,9.0,57.0,3.0,296.5713736990001,,,,,,,,,,,,,,,,,296.5564652769972,297.3716507169884,298.17216405399085,298.1552557249961,,,,,,,,,,,,,,,,,,,,,,,,,,,,,,,,,,,298.1580654849968,298.17216405399085,298.17216405399085,299.0885519309959,g,1.0,0.9061114059877582,,,,,,sub-186,1,stroop_test,62.18810141123349,
,,,,58.0,10.0,4.0,,,,,,,,,,,,,blau,yellow,g,0.0,g,1.0,0.3730568059982033,,,,,,,,,,4.0,10.0,58.0,7.0,299.1049435219902,,,,,,,,,,,,,,,,,299.0888649139961,299.8863986119977,300.6875460570009,300.6712432859931,,,,,,,,,,,,,,,,,,,,,,,,,,,,,,,,,,,300.673756979988,300.6875460570009,300.6875460570009,301.07230315699417,g,1.0,0.3730568059982033,,,,,,sub-186,1,stroop_test,62.18810141123349,
,,,,59.0,11.0,4.0,,,,,,,,,,,,,gelb,yellow,g,1.0,g,1.0,0.4475196830026107,,,,,,,,,,4.0,11.0,59.0,10.0,301.0877378289879,,,,,,,,,,,,,,,,,301.0726223849924,301.8877205030003,302.6877950469934,302.6711710649979,,,,,,,,,,,,,,,,,,,,,,,,,,,,,,,,,,,302.6740089669911,302.6877950469934,302.6877950469934,303.1389003840013,g,1.0,0.4475196830026107,,,,,,sub-186,1,stroop_test,62.18810141123349,
,,,,60.0,0.0,5.0,,,,,,,,,,,,,rot,red,r,1.0,r,1.0,0.4848527319991262,,,,,,,,,,5.0,0.0,60.0,0.0,303.15479576999496,,,,,,,,,,,,,,,,,303.1392304389883,303.95449747299426,304.7554551959911,304.7381091649877,,,,,,,,,,,,,,,,,,,,,,,,,,,,,,,,,,,304.74141571299697,304.7554551959911,304.7554551959911,305.2556677370012,r,1.0,0.4848527319991262,,,,,,sub-186,1,stroop_test,62.18810141123349,
,,,,61.0,1.0,5.0,,,,,,,,,,,,,blau,yellow,g,0.0,g,1.0,0.9404714280099142,,,,,,,,,,5.0,1.0,61.0,7.0,305.27119005699933,,,,,,,,,,,,,,,,,305.2560300089972,305.6212762399955,306.42093364099856,306.40468199999304,,,,,,,,,,,,,,,,,,,,,,,,,,,,,,,,,,,306.40733252398786,306.42093364099856,306.42093364099856,307.37274228499155,g,1.0,0.9404714280099142,,,,,,sub-186,1,stroop_test,62.18810141123349,
,,,,62.0,2.0,5.0,,,,,,,,,,,,,gelb,blue,b,0.0,b,1.0,0.6642452709929785,,,,,,,,,,5.0,2.0,62.0,9.0,307.38760424099746,,,,,,,,,,,,,,,,,307.3731067599874,308.18756808899343,308.9876654010004,308.9715869130014,,,,,,,,,,,,,,,,,,,,,,,,,,,,,,,,,,,308.97399579299963,308.9876654010004,308.9876654010004,309.65531850799744,b,1.0,0.6642452709929785,,,,,,sub-186,1,stroop_test,62.18810141123349,
,,,,63.0,3.0,5.0,,,,,,,,,,,,,blau,blue,b,1.0,b,1.0,0.4281805060018087,,,,,,,,,,5.0,3.0,63.0,6.0,309.67179963199305,,,,,,,,,,,,,,,,,309.65581578399,310.47108967498934,311.27187255398894,311.25475949399697,,,,,,,,,,,,,,,,,,,,,,,,,,,,,,,,,,,311.2580867289944,311.27187255398894,311.27187255398894,311.70555946198874,b,1.0,0.4281805060018087,,,,,,sub-186,1,stroop_test,62.18810141123349,
,,,,64.0,4.0,5.0,,,,,,,,,,,,,rot,blue,b,0.0,b,1.0,0.501089528988814,,,,,,,,,,5.0,4.0,64.0,2.0,311.7210451079882,,,,,,,,,,,,,,,,,311.7060112920008,312.92091220499424,313.721839861988,313.70465557900025,,,,,,,,,,,,,,,,,,,,,,,,,,,,,,,,,,,313.70739462699567,313.721839861988,313.721839861988,314.23871018199134,b,1.0,0.501089528988814,,,,,,sub-186,1,stroop_test,62.18810141123349,
,,,,65.0,5.0,5.0,,,,,,,,,,,,,rot,red,r,1.0,r,1.0,0.5073059400019702,,,,,,,,,,5.0,5.0,65.0,1.0,314.2542097839905,,,,,,,,,,,,,,,,,314.2390388759959,314.3377155599883,315.13754949999566,315.12150850798935,,,,,,,,,,,,,,,,,,,,,,,,,,,,,,,,,,,315.1221677729918,315.13754949999566,315.13754949999566,315.6555873329926,r,1.0,0.5073059400019702,,,,,,sub-186,1,stroop_test,62.18810141123349,
,,,,66.0,6.0,5.0,,,,,,,,,,,,,gelb,yellow,g,1.0,g,1.0,0.7845833640021738,,,,,,,,,,5.0,6.0,66.0,10.0,315.6709344449919,,,,,,,,,,,,,,,,,315.6558902909892,316.8710483229952,317.67105593299493,317.6544935569982,,,,,,,,,,,,,,,,,,,,,,,,,,,,,,,,,,,317.65719651999825,317.67105593299493,317.67105593299493,318.4722247609898,g,1.0,0.7845833640021738,,,,,,sub-186,1,stroop_test,62.18810141123349,
,,,,67.0,7.0,5.0,,,,,,,,,,,,,gelb,yellow,g,1.0,g,1.0,0.5374789299967233,,,,,,,,,,5.0,7.0,67.0,11.0,318.4874638959882,,,,,,,,,,,,,,,,,318.47254735798924,318.837631426999,319.63762768899323,319.6213824820006,,,,,,,,,,,,,,,,,,,,,,,,,,,,,,,,,,,319.6219529279915,319.63762768899323,319.63762768899323,320.18877108799643,g,1.0,0.5374789299967233,,,,,,sub-186,1,stroop_test,62.18810141123349,
,,,,68.0,8.0,5.0,,,,,,,,,,,,,rot,yellow,g,0.0,g,1.0,0.9516594509914283,,,,,,,,,,5.0,8.0,68.0,3.0,320.20431801599625,,,,,,,,,,,,,,,,,320.1890768479934,321.3875493980013,322.1879645399895,322.171263436001,,,,,,,,,,,,,,,,,,,,,,,,,,,,,,,,,,,322.1744929080014,322.1879645399895,322.1879645399895,323.1552235699928,g,1.0,0.9516594509914283,,,,,,sub-186,1,stroop_test,62.18810141123349,
,,,,69.0,9.0,5.0,,,,,,,,,,,,,gelb,red,r,0.0,r,1.0,0.8183642960066209,,,,,,,,,,5.0,9.0,69.0,8.0,323.1709637899912,,,,,,,,,,,,,,,,,323.15560265799286,323.9709426329937,324.7711707109993,324.75467120698886,,,,,,,,,,,,,,,,,,,,,,,,,,,,,,,,,,,324.7574890419928,324.7711707109993,324.7711707109993,325.6050884189899,r,1.0,0.8183642960066209,,,,,,sub-186,1,stroop_test,62.18810141123349,
,,,,70.0,10.0,5.0,,,,,,,,,,,,,blau,red,r,0.0,r,1.0,1.0873660210054368,,,,,,,,,,5.0,10.0,70.0,4.0,325.6208835610014,,,,,,,,,,,,,,,,,325.6054489189992,325.7042857419874,326.504435498995,326.48785395998857,,,,,,,,,,,,,,,,,,,,,,,,,,,,,,,,,,,326.49062216299353,326.504435498995,326.504435498995,327.6051009219955,r,1.0,1.0873660210054368,,,,,,sub-186,1,stroop_test,62.18810141123349,
,,,,71.0,11.0,5.0,,,,,,,,,,,,,blau,blue,b,1.0,b,1.0,0.5442634580103913,,,,,,,,,,5.0,11.0,71.0,5.0,327.6208060869976,,,,,,,,,,,,,,,,,327.6054116710002,328.8044146409957,329.60426473298867,329.58738150799763,,,,,,,,,,,,,,,,,,,,,,,,,,,,,,,,,,,329.587777208988,329.60426473298867,329.60426473298867,330.15508129999216,b,1.0,0.5442634580103913,,,,,,sub-186,1,stroop_test,62.18810141123349,
,,,,72.0,0.0,6.0,,,,,,,,,,,,,rot,yellow,g,0.0,g,1.0,1.1587128840037622,,,,,,,,,,6.0,0.0,72.0,3.0,330.170965428988,,,,,,,,,,,,,,,,,330.15554713099846,330.2539610199892,331.0546984649991,331.0379293139995,,,,,,,,,,,,,,,,,,,,,,,,,,,,,,,,,,,331.0408322279982,331.0546984649991,331.0546984649991,332.22153607699147,g,1.0,1.1587128840037622,,,,,,sub-186,1,stroop_test,62.18810141123349,
,,,,73.0,1.0,6.0,,,,,,,,,,,,,blau,red,r,0.0,r,1.0,0.4866049929987639,,,,,,,,,,6.0,1.0,73.0,4.0,332.2372733119992,,,,,,,,,,,,,,,,,332.22183770099946,333.4208661039884,334.2209477239958,334.20450185200025,,,,,,,,,,,,,,,,,,,,,,,,,,,,,,,,,,,334.207283604992,334.2209477239958,334.2209477239958,334.7219251829956,r,1.0,0.4866049929987639,,,,,,sub-186,1,stroop_test,62.18810141123349,
,,,,74.0,2.0,6.0,,,,,,,,,,,,,rot,red,r,1.0,r,1.0,0.6466505899879849,,,,,,,,,,6.0,2.0,74.0,1.0,334.73725547899085,,,,,,,,,,,,,,,,,334.7222866809898,334.83749388399883,335.63757152498874,335.62108853999234,,,,,,,,,,,,,,,,,,,,,,,,,,,,,,,,,,,335.6238656639907,335.63757152498874,335.63757152498874,336.2885416289937,r,1.0,0.6466505899879849,,,,,,sub-186,1,stroop_test,62.18810141123349,
,,,,75.0,3.0,6.0,,,,,,,,,,,,,gelb,yellow,g,1.0,g,1.0,0.7688726350024808,,,,,,,,,,6.0,3.0,75.0,11.0,336.30413173399575,,,,,,,,,,,,,,,,,336.2888864819979,337.5040864749899,338.3043268170004,338.2877974839939,,,,,,,,,,,,,,,,,,,,,,,,,,,,,,,,,,,338.29057647299487,338.3043268170004,338.3043268170004,339.0883604349947,g,1.0,0.7688726350024808,,,,,,sub-186,1,stroop_test,62.18810141123349,
,,,,76.0,4.0,6.0,,,,,,,,,,,,,rot,red,r,1.0,r,1.0,0.6162391219986603,,,,,,,,,,6.0,4.0,76.0,0.0,339.1042884639901,,,,,,,,,,,,,,,,,339.0886718039983,339.90397306399245,340.7057090299932,340.6877508239995,,,,,,,,,,,,,,,,,,,,,,,,,,,,,,,,,,,340.6910959119996,340.7057090299932,340.7057090299932,341.338706798997,r,1.0,0.6162391219986603,,,,,,sub-186,1,stroop_test,62.18810141123349,
,,,,77.0,5.0,6.0,,,,,,,,,,,,,gelb,red,r,0.0,r,1.0,0.3806688369950279,,,,,,,,,,6.0,5.0,77.0,8.0,341.35450728099386,,,,,,,,,,,,,,,,,341.3390117039962,342.1377425239916,342.938258604001,342.92127290400094,,,,,,,,,,,,,,,,,,,,,,,,,,,,,,,,,,,342.92405532699195,342.938258604001,342.938258604001,343.32228393999685,r,1.0,0.3806688369950279,,,,,,sub-186,1,stroop_test,62.18810141123349,
,,,,78.0,6.0,6.0,,,,,,,,,,,,,rot,blue,b,0.0,b,1.0,0.5863302789948648,,,,,,,,,,6.0,6.0,78.0,2.0,343.3377294249949,,,,,,,,,,,,,,,,,343.32263127899205,343.6877512380015,344.4879440259974,344.4712986319937,,,,,,,,,,,,,,,,,,,,,,,,,,,,,,,,,,,344.4740056809969,344.4879440259974,344.4879440259974,345.0889672249905,b,1.0,0.5863302789948648,,,,,,sub-186,1,stroop_test,62.18810141123349,
,,,,79.0,7.0,6.0,,,,,,,,,,,,,blau,blue,b,1.0,b,1.0,0.5175762280123308,,,,,,,,,,6.0,7.0,79.0,6.0,345.1043605499872,,,,,,,,,,,,,,,,,345.089332233998,345.2043105569901,346.0042089329945,345.98758319899207,,,,,,,,,,,,,,,,,,,,,,,,,,,,,,,,,,,345.9900757669966,346.0042089329945,346.0042089329945,346.5385943559959,b,1.0,0.5175762280123308,,,,,,sub-186,1,stroop_test,62.18810141123349,
,,,,80.0,8.0,6.0,,,,,,,,,,,,,gelb,blue,b,0.0,b,1.0,0.334206372994231,,,,,,,,,,6.0,8.0,80.0,9.0,346.5542134139978,,,,,,,,,,,,,,,,,346.53890998898714,347.3376388129982,348.13752073700016,348.1208878350008,,,,,,,,,,,,,,,,,,,,,,,,,,,,,,,,,,,348.12314298699494,348.13752073700016,348.13752073700016,348.4885140439874,b,1.0,0.334206372994231,,,,,,sub-186,1,stroop_test,62.18810141123349,
,,,,81.0,9.0,6.0,,,,,,,,,,,,,blau,yellow,g,0.0,g,1.0,0.5200569690059638,,,,,,,,,,6.0,9.0,81.0,7.0,348.50430850699195,,,,,,,,,,,,,,,,,348.4888461829978,349.70433618199604,350.50501863299,350.48796834899986,,,,,,,,,,,,,,,,,,,,,,,,,,,,,,,,,,,350.4908598079928,350.50501863299,350.50501863299,351.0385843789991,g,1.0,0.5200569690059638,,,,,,sub-186,1,stroop_test,62.18810141123349,
,,,,82.0,10.0,6.0,,,,,,,,,,,,,blau,blue,b,1.0,b,1.0,0.7001999810017878,,,,,,,,,,6.0,10.0,82.0,5.0,351.05439643299906,,,,,,,,,,,,,,,,,351.0388946989988,351.1375442869903,351.9375539619941,351.9213953169965,,,,,,,,,,,,,,,,,,,,,,,,,,,,,,,,,,,351.921948186995,351.9375539619941,351.9375539619941,352.655043930994,b,1.0,0.7001999810017878,,,,,,sub-186,1,stroop_test,62.18810141123349,
,,,,83.0,11.0,6.0,,,,,,,,,,,,,gelb,yellow,g,1.0,g,1.0,0.6562135410058545,,,,,,,,,,6.0,11.0,83.0,10.0,352.67093206199934,,,,,,,,,,,,,,,,,352.6553489899961,353.4543133429979,354.2544652840006,354.23795213599806,,,,,,,,,,,,,,,,,,,,,,,,,,,,,,,,,,,354.2407564739988,354.2544652840006,354.2544652840006,354.92180609799107,g,1.0,0.6562135410058545,,,,,,sub-186,1,stroop_test,62.18810141123349,
,,,,84.0,0.0,7.0,,,,,,,,,,,,,blau,red,r,0.0,r,1.0,0.5041367889934918,,,,,,,,,,7.0,0.0,84.0,4.0,354.937511333992,,,,,,,,,,,,,,,,,354.9221243209904,355.0209034079889,355.8217362049909,355.80444105099014,,,,,,,,,,,,,,,,,,,,,,,,,,,,,,,,,,,355.8077306799969,355.8217362049909,355.8217362049909,356.3383767459891,r,1.0,0.5041367889934918,,,,,,sub-186,1,stroop_test,62.18810141123349,
,,,,85.0,1.0,7.0,,,,,,,,,,,,,rot,red,r,1.0,r,1.0,0.4701925809931708,,,,,,,,,,7.0,1.0,85.0,0.0,356.35414455899445,,,,,,,,,,,,,,,,,356.3386872429983,356.4375287469884,357.23772412999824,357.2211033439962,,,,,,,,,,,,,,,,,,,,,,,,,,,,,,,,,,,357.22381626699644,357.23772412999824,357.23772412999824,357.7217321109929,r,1.0,0.4701925809931708,,,,,,sub-186,1,stroop_test,62.18810141123349,
,,,,86.0,2.0,7.0,,,,,,,,,,,,,blau,blue,b,1.0,b,1.0,0.58943932200782,,,,,,,,,,7.0,2.0,86.0,6.0,357.7373926049913,,,,,,,,,,,,,,,,,357.7220436219941,357.82086925499607,358.6213588259998,358.60449143000005,,,,,,,,,,,,,,,,,,,,,,,,,,,,,,,,,,,358.60725488798926,358.6213588259998,358.6213588259998,359.2212703629921,b,1.0,0.58943932200782,,,,,,sub-186,1,stroop_test,62.18810141123349,
,,,,87.0,3.0,7.0,,,,,,,,,,,,,blau,blue,b,1.0,b,1.0,0.6087165420030942,,,,,,,,,,7.0,3.0,87.0,5.0,359.2367382939992,,,,,,,,,,,,,,,,,359.22159452099004,360.4208413469896,361.2208509929915,361.204457535001,,,,,,,,,,,,,,,,,,,,,,,,,,,,,,,,,,,361.2050504020008,361.2208509929915,361.2208509929915,361.837906271001,b,1.0,0.6087165420030942,,,,,,sub-186,1,stroop_test,62.18810141123349,
,,,,88.0,4.0,7.0,,,,,,,,,,,,,gelb,blue,b,0.0,b,1.0,0.4017046799999662,,,,,,,,,,7.0,4.0,88.0,9.0,361.8544749479916,,,,,,,,,,,,,,,,,361.83820990799,362.6375233449944,363.43785425799433,363.42123352599447,,,,,,,,,,,,,,,,,,,,,,,,,,,,,,,,,,,363.4239495429938,363.43785425799433,363.43785425799433,363.85507310299727,b,1.0,0.4017046799999662,,,,,,sub-186,1,stroop_test,62.18810141123349,
,,,,89.0,5.0,7.0,,,,,,,,,,,,,rot,blue,b,0.0,b,1.0,0.4102670279971789,,,,,,,,,,7.0,5.0,89.0,2.0,363.8707686509879,,,,,,,,,,,,,,,,,363.8553846309951,364.6707626159914,365.4709905479976,365.454306271,,,,,,,,,,,,,,,,,,,,,,,,,,,,,,,,,,,365.4569705439935,365.4709905479976,365.4709905479976,365.8883631709905,b,1.0,0.4102670279971789,,,,,,sub-186,1,stroop_test,62.18810141123349,
,,,,90.0,6.0,7.0,,,,,,,,,,,,,gelb,red,r,0.0,r,1.0,0.787216968004941,,,,,,,,,,7.0,6.0,90.0,8.0,365.90429611099535,,,,,,,,,,,,,,,,,365.8886666139879,366.0038705729967,366.8044236089918,366.78759872500086,,,,,,,,,,,,,,,,,,,,,,,,,,,,,,,,,,,366.7903845919936,366.8044236089918,366.8044236089918,367.60544493798807,r,1.0,0.787216968004941,,,,,,sub-186,1,stroop_test,62.18810141123349,
,,,,91.0,7.0,7.0,,,,,,,,,,,,,blau,yellow,g,0.0,g,1.0,0.5032753520063125,,,,,,,,,,7.0,7.0,91.0,7.0,367.6211904039956,,,,,,,,,,,,,,,,,367.6057530699909,368.8206166339951,369.6212256959989,369.6044097889972,,,,,,,,,,,,,,,,,,,,,,,,,,,,,,,,,,,369.6071965029987,369.6212256959989,369.6212256959989,370.13828718700097,g,1.0,0.5032753520063125,,,,,,sub-186,1,stroop_test,62.18810141123349,
,,,,92.0,8.0,7.0,,,,,,,,,,,,,rot,yellow,g,0.0,r,0.0,0.488505871995585,,,,,,,,,,7.0,8.0,92.0,3.0,370.153997661997,,,,,,,,,,,,,,,,,370.1386164939904,370.48734381698887,371.28799532599805,371.2709928879922,,,,,,,,,,,,,,,,,,,,,,,,,,,,,,,,,,,371.2742605300009,371.28799532599805,371.28799532599805,371.7884896819887,r,0.0,0.488505871995585,,,,,,sub-186,1,stroop_test,62.18810141123349,
,,,,93.0,9.0,7.0,,,,,,,,,,,,,gelb,yellow,g,1.0,g,1.0,0.9040754539892076,,,,,,,,,,7.0,9.0,93.0,10.0,371.80404508599895,,,,,,,,,,,,,,,,,371.788807740988,373.0038554829953,373.8042287339922,373.78762550099054,,,,,,,,,,,,,,,,,,,,,,,,,,,,,,,,,,,373.7901009609923,373.8042287339922,373.8042287339922,374.7219541399973,g,1.0,0.9040754539892076,,,,,,sub-186,1,stroop_test,62.18810141123349,
,,,,94.0,10.0,7.0,,,,,,,,,,,,,rot,red,r,1.0,r,1.0,0.5201541970018297,,,,,,,,,,7.0,10.0,94.0,1.0,374.7370940119872,,,,,,,,,,,,,,,,,374.7223152359948,375.5372716389975,376.3380920659984,376.3210612619878,,,,,,,,,,,,,,,,,,,,,,,,,,,,,,,,,,,376.32375309399504,376.3380920659984,376.3380920659984,376.87150586998905,r,1.0,0.5201541970018297,,,,,,sub-186,1,stroop_test,62.18810141123349,
,,,,95.0,11.0,7.0,,,,,,,,,,,,,gelb,yellow,g,1.0,g,1.0,0.7154190909932368,,,,,,,,,,7.0,11.0,95.0,11.0,376.8881583129987,,,,,,,,,,,,,,,,,376.87183162599104,376.9705709669943,377.7712677979871,377.754188203995,,,,,,,,,,,,,,,,,,,,,,,,,,,,,,,,,,,377.7569746839872,377.7712677979871,377.7712677979871,378.48817581599,g,1.0,0.7154190909932368,,,,,,sub-186,1,stroop_test,62.18810141123349,
,,,,96.0,0.0,8.0,,,,,,,,,,,,,rot,blue,b,0.0,b,1.0,0.3255384860094636,,,,,,,,,,8.0,0.0,96.0,2.0,378.50379469100153,,,,,,,,,,,,,,,,,378.4885957739898,378.8539392649982,379.65423466799257,379.63745457999175,,,,,,,,,,,,,,,,,,,,,,,,,,,,,,,,,,,379.6402399379877,379.65423466799257,379.65423466799257,379.9881303449947,b,1.0,0.3255384860094636,,,,,,sub-186,1,stroop_test,62.18810141123349,
,,,,97.0,1.0,8.0,,,,,,,,,,,,,gelb,red,r,0.0,r,1.0,0.5498863679968053,,,,,,,,,,8.0,1.0,97.0,8.0,380.0039573419927,,,,,,,,,,,,,,,,,379.9884338429984,380.0872299159964,380.8878490770003,380.8710052690003,,,,,,,,,,,,,,,,,,,,,,,,,,,,,,,,,,,380.87380841698905,380.8878490770003,380.8878490770003,381.4548104149872,r,1.0,0.5498863679968053,,,,,,sub-186,1,stroop_test,62.18810141123349,
,,,,98.0,2.0,8.0,,,,,,,,,,,,,rot,red,r,1.0,r,1.0,0.5219198959966889,,,,,,,,,,8.0,2.0,98.0,0.0,381.4704677819973,,,,,,,,,,,,,,,,,381.4551243439928,381.5536503369949,382.3541556489945,382.3375630749943,,,,,,,,,,,,,,,,,,,,,,,,,,,,,,,,,,,382.3398245779972,382.3541556489945,382.3541556489945,382.8881493599911,r,1.0,0.5219198959966889,,,,,,sub-186,1,stroop_test,62.18810141123349,
,,,,99.0,3.0,8.0,,,,,,,,,,,,,gelb,blue,b,0.0,b,1.0,0.4306916180066764,,,,,,,,,,8.0,3.0,99.0,9.0,382.903887523993,,,,,,,,,,,,,,,,,382.8884568619978,383.2537874619884,384.0550199189893,384.03763687898754,,,,,,,,,,,,,,,,,,,,,,,,,,,,,,,,,,,384.0409531579935,384.0550199189893,384.0550199189893,384.4881550449936,b,1.0,0.4306916180066764,,,,,,sub-186,1,stroop_test,62.18810141123349,
,,,,100.0,4.0,8.0,,,,,,,,,,,,,blau,red,r,0.0,r,1.0,0.3531690170057118,,,,,,,,,,8.0,4.0,100.0,4.0,384.50378615899535,,,,,,,,,,,,,,,,,384.4885637449916,385.6869438819994,386.4878180609958,386.4707683469896,,,,,,,,,,,,,,,,,,,,,,,,,,,,,,,,,,,386.4736092569947,386.4878180609958,386.4878180609958,386.854881072999,r,1.0,0.3531690170057118,,,,,,sub-186,1,stroop_test,62.18810141123349,
,,,,101.0,5.0,8.0,,,,,,,,,,,,,rot,red,r,1.0,r,1.0,0.4506016219966113,,,,,,,,,,8.0,5.0,101.0,1.0,386.8704562589992,,,,,,,,,,,,,,,,,386.855245350991,386.9705259119946,387.7709243059944,387.7540011919919,,,,,,,,,,,,,,,,,,,,,,,,,,,,,,,,,,,387.7567550599924,387.7709243059944,387.7709243059944,388.23790184999234,r,1.0,0.4506016219966113,,,,,,sub-186,1,stroop_test,62.18810141123349,
,,,,102.0,6.0,8.0,,,,,,,,,,,,,gelb,yellow,g,1.0,g,1.0,0.4224134380056057,,,,,,,,,,8.0,6.0,102.0,11.0,388.2537577309995,,,,,,,,,,,,,,,,,388.23821377698914,388.33698804899177,389.1374701280001,389.1207446420012,,,,,,,,,,,,,,,,,,,,,,,,,,,,,,,,,,,389.1234364650009,389.1374701280001,389.1374701280001,389.5716867909941,g,1.0,0.4224134380056057,,,,,,sub-186,1,stroop_test,62.18810141123349,
,,,,103.0,7.0,8.0,,,,,,,,,,,,,gelb,yellow,g,1.0,r,0.0,0.4352691310050431,,,,,,,,,,8.0,7.0,103.0,10.0,389.58791602999554,,,,,,,,,,,,,,,,,389.5720490379899,389.9370171999908,390.7372346729972,390.7209517159936,,,,,,,,,,,,,,,,,,,,,,,,,,,,,,,,,,,390.7213691349898,390.7372346729972,390.7372346729972,391.1880254489952,r,0.0,0.4352691310050431,,,,,,sub-186,1,stroop_test,62.18810141123349,
,,,,104.0,8.0,8.0,,,,,,,,,,,,,blau,blue,b,1.0,b,1.0,0.4533737970050424,,,,,,,,,,8.0,8.0,104.0,6.0,391.2037928619975,,,,,,,,,,,,,,,,,391.1883461149992,392.3870936849999,393.1874309709965,393.1706010039925,,,,,,,,,,,,,,,,,,,,,,,,,,,,,,,,,,,393.1734080469905,393.1874309709965,393.1874309709965,393.65441777699743,b,1.0,0.4533737970050424,,,,,,sub-186,1,stroop_test,62.18810141123349,
,,,,105.0,9.0,8.0,,,,,,,,,,,,,blau,yellow,g,0.0,g,1.0,0.6547495139966486,,,,,,,,,,8.0,9.0,105.0,7.0,393.67029434398864,,,,,,,,,,,,,,,,,393.6547196280008,394.8536354550015,395.65374817200063,395.637433113996,,,,,,,,,,,,,,,,,,,,,,,,,,,,,,,,,,,395.6380136689986,395.65374817200063,395.65374817200063,396.3213839659875,g,1.0,0.6547495139966486,,,,,,sub-186,1,stroop_test,62.18810141123349,
,,,,106.0,10.0,8.0,,,,,,,,,,,,,blau,blue,b,1.0,b,1.0,0.4536089989996981,,,,,,,,,,8.0,10.0,106.0,5.0,396.3369622139872,,,,,,,,,,,,,,,,,396.3217092299892,397.1370229749882,397.9369816459948,397.9206663579971,,,,,,,,,,,,,,,,,,,,,,,,,,,,,,,,,,,397.9212436050002,397.9369816459948,397.9369816459948,398.4044562029885,b,1.0,0.4536089989996981,,,,,,sub-186,1,stroop_test,62.18810141123349,
,,,,107.0,11.0,8.0,,,,,,,,,,,,,rot,yellow,g,0.0,r,0.0,0.6865773180034012,,,,,,,,,,8.0,11.0,107.0,3.0,398.42034802099806,,,,,,,,,,,,,,,,,398.40475435998815,398.7537149470008,399.5539533830015,399.5373035379889,,,,,,,,,,,,,,,,,,,,,,,,,,,,,,,,,,,399.54001826599415,399.5539533830015,399.5539533830015,400.2545465129952,r,0.0,0.6865773180034012,,,,,,sub-186,1,stroop_test,62.18810141123349,
,,,,108.0,0.0,9.0,,,,,,,,,,,,,blau,blue,b,1.0,b,1.0,0.5280845789966406,,,,,,,,,,9.0,0.0,108.0,5.0,400.27002613998775,,,,,,,,,,,,,,,,,400.2549453919928,401.0703030119912,401.8712208879879,401.8538840489928,,,,,,,,,,,,,,,,,,,,,,,,,,,,,,,,,,,401.8576969269925,401.8712208879879,401.8712208879879,402.404627122989,b,1.0,0.5280845789966406,,,,,,sub-186,1,stroop_test,62.18810141123349,
,,,,109.0,1.0,9.0,,,,,,,,,,,,,blau,blue,b,1.0,b,1.0,0.537159168990911,,,,,,,,,,9.0,1.0,109.0,6.0,402.4202009399887,,,,,,,,,,,,,,,,,402.40497982499073,403.22021065199806,404.0201618819992,404.0038254399988,,,,,,,,,,,,,,,,,,,,,,,,,,,,,,,,,,,404.004332764991,404.0201618819992,404.0201618819992,404.5712817780004,b,1.0,0.537159168990911,,,,,,sub-186,1,stroop_test,62.18810141123349,
,,,,110.0,2.0,9.0,,,,,,,,,,,,,rot,yellow,g,0.0,r,0.0,1.0412869090068853,,,,,,,,,,9.0,2.0,110.0,3.0,404.586762572988,,,,,,,,,,,,,,,,,404.5716466439917,404.9364515329944,405.7378034199937,405.7204851389979,,,,,,,,,,,,,,,,,,,,,,,,,,,,,,,,,,,405.7231963199884,405.7378034199937,405.7378034199937,406.7874664650008,r,0.0,1.0412869090068853,,,,,,sub-186,1,stroop_test,62.18810141123349,
,,,,111.0,3.0,9.0,,,,,,,,,,,,,gelb,yellow,g,1.0,g,1.0,0.6562614780123113,,,,,,,,,,9.0,3.0,111.0,11.0,406.8035280059994,,,,,,,,,,,,,,,,,406.7877711899928,407.9869618189987,408.786863988993,408.77021713298745,,,,,,,,,,,,,,,,,,,,,,,,,,,,,,,,,,,408.7728729399969,408.786863988993,408.786863988993,409.4541988669953,g,1.0,0.6562614780123113,,,,,,sub-186,1,stroop_test,62.18810141123349,
,,,,112.0,4.0,9.0,,,,,,,,,,,,,blau,yellow,g,0.0,g,1.0,0.3990072760061594,,,,,,,,,,9.0,4.0,112.0,7.0,409.47006768798747,,,,,,,,,,,,,,,,,409.4545033369941,410.2535168559989,411.0538968809997,411.0370237889874,,,,,,,,,,,,,,,,,,,,,,,,,,,,,,,,,,,411.0398996589938,411.0538968809997,411.0538968809997,411.4544005889911,g,1.0,0.3990072760061594,,,,,,sub-186,1,stroop_test,62.18810141123349,
,,,,113.0,5.0,9.0,,,,,,,,,,,,,rot,red,r,1.0,r,1.0,0.475299259996973,,,,,,,,,,9.0,5.0,113.0,0.0,411.47004596999614,,,,,,,,,,,,,,,,,411.45474303398805,412.25334018300055,413.0535965579911,413.0369024999964,,,,,,,,,,,,,,,,,,,,,,,,,,,,,,,,,,,413.0393537689961,413.0535965579911,413.0535965579911,413.537301614997,r,1.0,0.475299259996973,,,,,,sub-186,1,stroop_test,62.18810141123349,
,,,,114.0,6.0,9.0,,,,,,,,,,,,,rot,red,r,1.0,r,1.0,0.5691176740074297,,,,,,,,,,9.0,6.0,114.0,1.0,413.5535006309947,,,,,,,,,,,,,,,,,413.5375992659974,413.88674051398993,414.68669165699976,414.6704077769973,,,,,,,,,,,,,,,,,,,,,,,,,,,,,,,,,,,414.670932301,414.68669165699976,414.68669165699976,415.27103481598897,r,1.0,0.5691176740074297,,,,,,sub-186,1,stroop_test,62.18810141123349,
,,,,115.0,7.0,9.0,,,,,,,,,,,,,gelb,blue,b,0.0,b,1.0,0.6055627270106925,,,,,,,,,,9.0,7.0,115.0,9.0,415.2866909259901,,,,,,,,,,,,,,,,,415.2713572859939,415.63672096299706,416.4372872039967,416.4205399969942,,,,,,,,,,,,,,,,,,,,,,,,,,,,,,,,,,,416.4233249679965,416.4372872039967,416.4372872039967,417.0541521409905,b,1.0,0.6055627270106925,,,,,,sub-186,1,stroop_test,62.18810141123349,
,,,,116.0,8.0,9.0,,,,,,,,,,,,,blau,red,r,0.0,r,1.0,0.6191946599865332,,,,,,,,,,9.0,8.0,116.0,4.0,417.0699575609906,,,,,,,,,,,,,,,,,417.054458033992,417.1700700509973,417.9708393729961,417.9536440410011,,,,,,,,,,,,,,,,,,,,,,,,,,,,,,,,,,,417.9570203329931,417.9708393729961,417.9708393729961,418.60449109598994,r,1.0,0.6191946599865332,,,,,,sub-186,1,stroop_test,62.18810141123349,
,,,,117.0,9.0,9.0,,,,,,,,,,,,,gelb,yellow,g,1.0,g,1.0,0.4051666199957253,,,,,,,,,,9.0,9.0,117.0,10.0,418.6199951629969,,,,,,,,,,,,,,,,,418.6048050959944,418.7196999439912,419.520727051,419.5037195909972,,,,,,,,,,,,,,,,,,,,,,,,,,,,,,,,,,,419.5065647549927,419.520727051,419.520727051,419.9373746199999,g,1.0,0.4051666199957253,,,,,,sub-186,1,stroop_test,62.18810141123349,
,,,,118.0,10.0,9.0,,,,,,,,,,,,,gelb,red,r,0.0,r,1.0,0.3329345579986693,,,,,,,,,,9.0,10.0,118.0,8.0,419.9534039639984,,,,,,,,,,,,,,,,,419.9376816599979,420.7365595549927,421.5367245959933,421.5204294779978,,,,,,,,,,,,,,,,,,,,,,,,,,,,,,,,,,,421.5209219489916,421.5367245959933,421.5367245959933,421.87112295499537,r,1.0,0.3329345579986693,,,,,,sub-186,1,stroop_test,62.18810141123349,
,,,,119.0,11.0,9.0,,,,,,,,,,,,,rot,blue,b,0.0,b,1.0,0.355500245001167,,,,,,,,,,9.0,11.0,119.0,2.0,421.8865684539924,,,,,,,,,,,,,,,,,421.87150322599337,422.2365755219944,423.03721304799546,423.0201914119971,,,,,,,,,,,,,,,,,,,,,,,,,,,,,,,,,,,423.0230536559975,423.03721304799546,423.03721304799546,423.4040685539949,b,1.0,0.355500245001167,,,,,,sub-186,1,stroop_test,62.18810141123349,
,,,,,,,,,,,,,,,,,,,,,,,,,,,,,,,,,,,,,,,,,,,,,,,,,,,,,,,,,,,,,,,,,,,,,,,,,,,,,,,,,,,,,,,,,,,,,,,,,,,,,,423.404211503992,423.419882725997,428.4200287470012,428.4036292249948,sub-186,1,stroop_test,62.18810141123349,
