wordCTK,colorCTK,corrAnsCTK,congruentCTK,thisN,thisTrialN,thisRepN,keyResp_CTK.keys,keyResp_CTK.corr,keyResp_CTK.rt,keyResp_CTK.duration,wordPractice,colorPractice,corrAnsPractice,congruentPractice,respPractice.keys,respPractice.corr,respPractice.rt,respPractice.duration,word,color,corrAns,congruent,keyResp_test_run.keys,keyResp_test_run.corr,keyResp_test_run.rt,keyResp_test_run.duration,trials_CTK.thisRepN,trials_CTK.thisTrialN,trials_CTK.thisN,trials_CTK.thisIndex,trials_practice.thisRepN,trials_practice.thisTrialN,trials_practice.thisN,trials_practice.thisIndex,trials_test.thisRepN,trials_test.thisTrialN,trials_test.thisN,trials_test.thisIndex,thisRow.t,notes,instruction.started,instr_text.started,instr_image.started,instr_resp.started,instruction.stopped,instr_resp.keys,instr_resp.rt,instr_resp.duration,instr_color_to_key.started,instr_ctk.started,resp_ctk.started,instr_color_to_key.stopped,resp_ctk.keys,resp_ctk.rt,resp_ctk.duration,ITI.started,fixcross.started,fixcross.stopped,ITI.stopped,color_to_key_run.started,stimulus_CTK.started,keyResp_CTK.started,color_to_key_run.stopped,trials_CTK.keyResp_CTK.keys,trials_CTK.keyResp_CTK.corr,trials_CTK.keyResp_CTK.rt,trials_CTK.keyResp_CTK.duration,instr_practice.started,instr_practice_text.started,instr_practice_resp.started,instr_practice.stopped,instr_practice_resp.keys,instr_practice_resp.rt,instr_practice_resp.duration,practice_run.started,stimulus_practice.started,respPractice.started,practice_run.stopped,trials_practice.respPractice.keys,trials_practice.respPractice.corr,trials_practice.respPractice.rt,trials_practice.respPractice.duration,feedback.started,textFeedback.started,feedback.stopped,textFeedback.stopped,instr_test.started,instr_test_text.started,instr_test_resp.started,instr_test.stopped,instr_test_resp.keys,instr_test_resp.rt,instr_test_resp.duration,test_run.started,stimulus_test_run.started,keyResp_test_run.started,test_run.stopped,trials_test.keyResp_test_run.keys,trials_test.keyResp_test_run.corr,trials_test.keyResp_test_run.rt,trials_test.keyResp_test_run.duration,goodbye.started,textGoodbye.started,textGoodbye.stopped,goodbye.stopped,participant,session,expName,frameRate,Unnamed: 113
,,,,,,,,,,,,,,,,,,,,,,,,,,,,,,,,,,,,,,,,,0.0177640740002971,0.0383943540000473,0.0383943540000473,0.0383943540000473,9.72028779899847,space,9.655420918003074,,,,,,,,,,,,,,,,,,,,,,,,,,,,,,,,,,,,,,,,,,,,,,,,,,,,,,,,,,,sub-030,3,stroop_test,61.71663461401519,
,,,,,,,,,,,,,,,,,,,,,,,,,,,,,,,,,,,,,,,,,,,,,,,,,9.720355731995369,9.729209717996127,9.729209717996127,13.894933495997975,space,4.159818863001419,,,,,,,,,,,,,,,,,,,,,,,,,,,,,,,,,,,,,,,,,,,,,,,,,,,,sub-030,3,stroop_test,61.71663461401519,
test,yellow,g,1.0,0.0,0.0,0.0,g,1.0,1.3628781590014114,,,,,,,,,,,,,,,,,,0.0,0.0,0.0,1.0,,,,,,,,,13.91356125099992,,,,,,,,,,,,,,,,,13.903270308001083,15.10345129599591,15.910681240995473,15.894843367001158,15.899722167996517,15.910681240995473,15.910681240995473,17.278813493001508,g,1.0,1.3628781590014114,,,,,,,,,,,,,,,,,,,,,,,,,,,,,,,,,,,,,,,,sub-030,3,stroop_test,61.71663461401519,
test,blue,b,1.0,1.0,1.0,0.0,b,1.0,0.5673242209959426,,,,,,,,,,,,,,,,,,0.0,1.0,1.0,2.0,,,,,,,,,17.294064148998586,,,,,,,,,,,,,,,,,17.279119993996574,17.394160867996106,18.19456191200152,18.178825552997296,18.179407730000094,18.19456191200152,18.19456191200152,18.77862266399461,b,1.0,0.5673242209959426,,,,,,,,,,,,,,,,,,,,,,,,,,,,,,,,,,,,,,,,sub-030,3,stroop_test,61.71663461401519,
test,red,r,1.0,2.0,2.0,0.0,r,1.0,0.2785478270016028,,,,,,,,,,,,,,,,,,0.0,2.0,2.0,0.0,,,,,,,,,18.794831610000983,,,,,,,,,,,,,,,,,18.77891341099894,19.97840393200022,20.77829139399546,20.76215253999544,20.76258240899915,20.77829139399546,20.77829139399546,21.06269780699949,r,1.0,0.2785478270016028,,,,,,,,,,,,,,,,,,,,,,,,,,,,,,,,,,,,,,,,sub-030,3,stroop_test,61.71663461401519,
test,red,r,1.0,3.0,0.0,1.0,g,0.0,0.5292909859999781,,,,,,,,,,,,,,,,,,1.0,0.0,3.0,0.0,,,,,,,,,21.07851583699812,,,,,,,,,,,,,,,,,21.062949747996758,21.16180083099607,21.96181861999503,21.94593450299726,21.94636030399852,21.96181861999503,21.96181861999503,22.49643355100125,g,0.0,0.5292909859999781,,,,,,,,,,,,,,,,,,,,,,,,,,,,,,,,,,,,,,,,sub-030,3,stroop_test,61.71663461401519,
test,yellow,g,1.0,4.0,1.0,1.0,g,1.0,0.8771498380010598,,,,,,,,,,,,,,,,,,1.0,1.0,4.0,1.0,,,,,,,,,22.51175391300057,,,,,,,,,,,,,,,,,22.49673934999737,22.61191267799586,23.41225396400114,23.395966295996917,23.3964227280012,23.41225396400114,23.41225396400114,24.29674680999597,g,1.0,0.8771498380010598,,,,,,,,,,,,,,,,,,,,,,,,,,,,,,,,,,,,,,,,sub-030,3,stroop_test,61.71663461401519,
test,blue,b,1.0,5.0,2.0,1.0,b,1.0,0.4233515380037715,,,,,,,,,,,,,,,,,,1.0,2.0,5.0,2.0,,,,,,,,,24.31214323599852,,,,,,,,,,,,,,,,,24.297050275999936,25.51264416900085,26.32249671199679,26.30642177900154,26.30683982499613,26.32249671199679,26.32249671199679,26.747529932996255,b,1.0,0.4233515380037715,,,,,,,,,,,,,,,,,,,,,,,,,,,,,,,,,,,,,,,,sub-030,3,stroop_test,61.71663461401519,
test,red,r,1.0,6.0,0.0,2.0,r,1.0,0.4863046329992357,,,,,,,,,,,,,,,,,,2.0,0.0,6.0,0.0,,,,,,,,,26.762545400997624,,,,,,,,,,,,,,,,,26.74794045899762,27.96298227399529,28.76297957600036,28.74731081799837,28.747738616999413,28.76297957600036,28.76297957600036,29.264499528995657,r,1.0,0.4863046329992357,,,,,,,,,,,,,,,,,,,,,,,,,,,,,,,,,,,,,,,,sub-030,3,stroop_test,61.71663461401519,
test,blue,b,1.0,7.0,1.0,2.0,b,1.0,0.8652851430015289,,,,,,,,,,,,,,,,,,2.0,1.0,7.0,2.0,,,,,,,,,29.279844270997277,,,,,,,,,,,,,,,,,29.264785560997552,30.07997181599785,30.880028414998375,30.86389857500035,30.864322197994625,30.880028414998375,30.880028414998375,31.74805871299759,b,1.0,0.8652851430015289,,,,,,,,,,,,,,,,,,,,,,,,,,,,,,,,,,,,,,,,sub-030,3,stroop_test,61.71663461401519,
test,yellow,g,1.0,8.0,2.0,2.0,g,1.0,0.3980229150038212,,,,,,,,,,,,,,,,,,2.0,2.0,8.0,1.0,,,,,,,,,31.76353720200132,,,,,,,,,,,,,,,,,31.748343072998978,32.94716982499813,33.74712009399809,33.73177174000011,33.732389512995724,33.74712009399809,33.74712009399809,34.148523509997176,g,1.0,0.3980229150038212,,,,,,,,,,,,,,,,,,,,,,,,,,,,,,,,,,,,,,,,sub-030,3,stroop_test,61.71663461401519,
test,red,r,1.0,9.0,0.0,3.0,r,1.0,0.3581761390014435,,,,,,,,,,,,,,,,,,3.0,0.0,9.0,0.0,,,,,,,,,34.163845928997034,,,,,,,,,,,,,,,,,34.148786546997144,34.96406028199999,35.76430573799735,35.74827835099859,35.74885282800096,35.76430573799735,35.76430573799735,36.13213429299503,r,1.0,0.3581761390014435,,,,,,,,,,,,,,,,,,,,,,,,,,,,,,,,,,,,,,,,sub-030,3,stroop_test,61.71663461401519,
test,yellow,g,1.0,10.0,1.0,3.0,g,1.0,0.6622237740011769,,,,,,,,,,,,,,,,,,3.0,1.0,10.0,1.0,,,,,,,,,36.14756705399486,,,,,,,,,,,,,,,,,36.13242967299448,36.94768936599576,37.747784419996606,37.73206308699446,37.73264265299804,37.747784419996606,37.747784419996606,38.41925709199859,g,1.0,0.6622237740011769,,,,,,,,,,,,,,,,,,,,,,,,,,,,,,,,,,,,,,,,sub-030,3,stroop_test,61.71663461401519,
test,blue,b,1.0,11.0,2.0,3.0,b,1.0,0.3296982319952803,,,,,,,,,,,,,,,,,,3.0,2.0,11.0,2.0,,,,,,,,,38.431171161995735,,,,,,,,,,,,,,,,,38.41956569299509,39.23125334100041,40.03141346100165,40.01597952299926,40.016550540000026,40.03141346100165,40.03141346100165,40.37687674899644,b,1.0,0.3296982319952803,,,,,,,,,,,,,,,,,,,,,,,,,,,,,,,,,,,,,,,,sub-030,3,stroop_test,61.71663461401519,
,,,,,,,,,,,,,,,,,,,,,,,,,,,,,,,,,,,,,,,,,,,,,,,,,,,,,,,,,,,,,,,,,,,,40.37702263599931,40.39199249800004,40.39199249800004,44.43386638599623,space,4.0245362450004905,,,,,,,,,,,,,,,,,,,,,,,,,,,,,,,,,sub-030,3,stroop_test,61.71663461401519,
,,,,0.0,0.0,0.0,,,,,blau,blue,b,1.0,b,1.0,0.6794309530014289,,,,,,,,,,,,,,0.0,0.0,0.0,6.0,,,,,44.45128853099595,,,,,,,,,,,,,,,,,44.44320342999709,45.25110219400085,46.06580454399955,46.04990515199461,,,,,,,,,,,,,,,,46.05492871399474,46.06580454399955,46.06580454399955,46.75080179499491,b,1.0,0.6794309530014289,,46.755682486000296,46.773012384997855,47.76646350399824,,,,,,,,,,,,,,,,,,,,,sub-030,3,stroop_test,61.71663461401519,
,,,,1.0,1.0,0.0,,,,,blau,yellow,g,0.0,g,1.0,0.91407068099943,,,,,,,,,,,,,,0.0,1.0,1.0,7.0,,,,,47.78288760899886,,,,,,,,,,,,,,,,,47.766760375998274,48.96646449800028,49.76644111399946,49.75035964899871,,,,,,,,,,,,,,,,49.75079093800014,49.76644111399946,49.76644111399946,50.68458663799538,g,1.0,0.91407068099943,,50.68501400099922,50.69987690499693,51.68436086199654,51.700188882001385,,,,,,,,,,,,,,,,,,,,sub-030,3,stroop_test,61.71663461401519,
,,,,2.0,2.0,0.0,,,,,gelb,yellow,g,1.0,g,1.0,0.4865409319972968,,,,,,,,,,,,,,0.0,2.0,2.0,11.0,,,,,51.700188882001385,,,,,,,,,,,,,,,,,51.68472936900071,52.05023267299839,52.8502830360012,52.83450439199805,,,,,,,,,,,,,,,,52.83760923999944,52.8502830360012,52.8502830360012,53.34306531799666,g,1.0,0.4865409319972968,,53.34364814899891,53.360655481999856,54.3505925089994,,,,,,,,,,,,,,,,,,,,,sub-030,3,stroop_test,61.71663461401519,
,,,,3.0,3.0,0.0,,,,,gelb,red,r,0.0,r,1.0,0.3212525179988006,,,,,,,,,,,,,,0.0,3.0,3.0,8.0,,,,,54.3672998569964,,,,,,,,,,,,,,,,,54.35090227299952,55.5510036859996,56.35103581199655,56.33478358899447,,,,,,,,,,,,,,,,56.33522529399488,56.35103581199655,56.35103581199655,56.68578457499825,r,1.0,0.3212525179988006,,56.68624788799934,56.701145792001626,57.68537687599746,57.7011395199952,,,,,,,,,,,,,,,,,,,,sub-030,3,stroop_test,61.71663461401519,
,,,,4.0,4.0,0.0,,,,,rot,blue,b,0.0,b,1.0,0.5190294069980155,,,,,,,,,,,,,,0.0,4.0,4.0,2.0,,,,,57.7011395199952,,,,,,,,,,,,,,,,,57.68576391199895,57.80136749299709,58.60115199699794,58.585629087996494,,,,,,,,,,,,,,,,58.58949942699837,58.60115199699794,58.60115199699794,59.13635979199898,b,1.0,0.5190294069980155,,59.13682381899707,59.15143435599748,60.14284869599942,,,,,,,,,,,,,,,,,,,,,sub-030,3,stroop_test,61.71663461401519,
,,,,5.0,5.0,0.0,,,,,blau,blue,b,1.0,b,1.0,0.3456802519940538,,,,,,,,,,,,,,0.0,5.0,5.0,5.0,,,,,60.15300294599729,,,,,,,,,,,,,,,,,60.14324023399968,60.50156711699674,61.30171149899979,61.28601099299704,,,,,,,,,,,,,,,,61.28912929999933,61.30171149899979,61.30171149899979,61.6536614200013,b,1.0,0.3456802519940538,,61.65410615599831,61.66834413600009,62.65280577399972,62.66887654499442,,,,,,,,,,,,,,,,,,,,sub-030,3,stroop_test,61.71663461401519,
,,,,6.0,6.0,0.0,,,,,gelb,blue,b,0.0,b,1.0,0.8267718170027365,,,,,,,,,,,,,,0.0,6.0,6.0,9.0,,,,,62.66887654499442,,,,,,,,,,,,,,,,,62.653176407999126,63.468595695994736,64.26886266799556,64.25300438299746,,,,,,,,,,,,,,,,64.25580818000162,64.26886266799556,64.26886266799556,65.10369526800059,b,1.0,0.8267718170027365,,65.10417856399727,65.11913531599566,66.10332879599446,66.11928545299452,,,,,,,,,,,,,,,,,,,,sub-030,3,stroop_test,61.71663461401519,
,,,,7.0,7.0,0.0,,,,,blau,red,r,0.0,r,1.0,0.5441910189983901,,,,,,,,,,,,,,0.0,7.0,7.0,4.0,,,,,66.11928545299452,,,,,,,,,,,,,,,,,66.10370470799535,66.90839697799674,67.71935353799927,67.7040081449959,,,,,,,,,,,,,,,,67.70696926999517,67.71935353799927,67.71935353799927,68.27088143199944,r,1.0,0.5441910189983901,,68.27136384999903,68.28624168699753,69.27117759999965,69.28662709800119,,,,,,,,,,,,,,,,,,,,sub-030,3,stroop_test,61.71663461401519,
,,,,8.0,8.0,0.0,,,,,gelb,yellow,g,1.0,g,1.0,0.6133986560016638,,,,,,,,,,,,,,0.0,8.0,8.0,10.0,,,,,69.28662709800119,,,,,,,,,,,,,,,,,69.27156594799453,69.37015132999659,70.16988753999613,70.15453549999802,,,,,,,,,,,,,,,,70.15747812799964,70.16988753999613,70.16988753999613,70.78847998999845,g,1.0,0.6133986560016638,,70.78895009999542,70.8033834309972,71.78740179899614,71.80354716700094,,,,,,,,,,,,,,,,,,,,sub-030,3,stroop_test,61.71663461401519,
,,,,9.0,9.0,0.0,,,,,rot,red,r,1.0,r,1.0,0.5755449950011098,,,,,,,,,,,,,,0.0,9.0,9.0,0.0,,,,,71.80354716700094,,,,,,,,,,,,,,,,,71.78768547900108,72.13699134800117,72.9371367509957,72.92083336599899,,,,,,,,,,,,,,,,72.92310718699446,72.9371367509957,72.9371367509957,73.52176152799802,r,1.0,0.5755449950011098,,73.52217264299543,73.53726610000012,74.5217788039954,74.53758990699862,,,,,,,,,,,,,,,,,,,,sub-030,3,stroop_test,61.71663461401519,
,,,,10.0,10.0,0.0,,,,,rot,red,r,1.0,r,1.0,0.5774126649994287,,,,,,,,,,,,,,0.0,10.0,10.0,1.0,,,,,74.53758990699862,,,,,,,,,,,,,,,,,74.52216359799786,74.87102294399665,75.67087763900054,75.65474238399474,,,,,,,,,,,,,,,,75.65517019699473,75.67087763900054,75.67087763900054,76.25570118899486,r,1.0,0.5774126649994287,,76.25616623400128,76.27094415100146,77.25537878299656,77.27152931399905,,,,,,,,,,,,,,,,,,,,sub-030,3,stroop_test,61.71663461401519,
,,,,11.0,11.0,0.0,,,,,rot,yellow,g,0.0,g,1.0,0.4816855850003776,,,,,,,,,,,,,,0.0,11.0,11.0,3.0,,,,,77.27152931399905,,,,,,,,,,,,,,,,,77.25574754799891,78.454679810995,79.25484135100123,79.239388916998,,,,,,,,,,,,,,,,79.23999131999881,79.25484135100123,79.25484135100123,79.73992867399647,g,1.0,0.4816855850003776,,79.74038654800097,79.75493206000101,80.73917413099844,80.75516098499793,,,,,,,,,,,,,,,,,,,,sub-030,3,stroop_test,61.71663461401519,
,,,,12.0,0.0,1.0,,,,,gelb,red,r,0.0,r,1.0,0.541165094000462,,,,,,,,,,,,,,1.0,0.0,12.0,8.0,,,,,80.75516098499793,,,,,,,,,,,,,,,,,80.73955020200083,81.55539941100142,82.35530530799588,82.33968921699852,,,,,,,,,,,,,,,,82.34269592200144,82.35530530799588,82.35530530799588,82.90713046599558,r,1.0,0.541165094000462,,82.90759178399458,82.92218045699701,83.90664500999992,83.92242962299497,,,,,,,,,,,,,,,,,,,,sub-030,3,stroop_test,61.71663461401519,
,,,,13.0,1.0,1.0,,,,,gelb,yellow,g,1.0,g,1.0,0.649694214000192,,,,,,,,,,,,,,1.0,1.0,13.0,11.0,,,,,83.92242962299497,,,,,,,,,,,,,,,,,83.90701305599941,84.01233784099895,84.82246647599823,84.80640938099532,,,,,,,,,,,,,,,,84.80716818999645,84.82246647599823,84.82246647599823,85.47426395799994,g,1.0,0.649694214000192,,85.47474178500124,85.48909955300041,86.47348946899729,86.48932542099647,,,,,,,,,,,,,,,,,,,,sub-030,3,stroop_test,61.71663461401519,
,,,,14.0,2.0,1.0,,,,,rot,red,r,1.0,r,1.0,0.4620127669986686,,,,,,,,,,,,,,1.0,2.0,14.0,0.0,,,,,86.48932542099647,,,,,,,,,,,,,,,,,86.47386259199993,87.68938256499678,88.4897226739995,88.47406963099638,,,,,,,,,,,,,,,,88.47829604599974,88.4897226739995,88.4897226739995,88.95820504799485,r,1.0,0.4620127669986686,,88.9586849490006,88.97305999599484,89.95770797300065,89.97360107299755,,,,,,,,,,,,,,,,,,,,sub-030,3,stroop_test,61.71663461401519,
,,,,15.0,3.0,1.0,,,,,blau,blue,b,1.0,b,1.0,0.362878913001623,,,,,,,,,,,,,,1.0,3.0,15.0,6.0,,,,,89.97360107299755,,,,,,,,,,,,,,,,,89.95807665999746,91.1738145479976,91.9735584079972,91.95770287999768,,,,,,,,,,,,,,,,91.96019229599916,91.9735584079972,91.9735584079972,92.34227341399674,b,1.0,0.362878913001623,,92.34273598599977,92.35702262999985,93.34128463800153,93.35729804999572,,,,,,,,,,,,,,,,,,,,sub-030,3,stroop_test,61.71663461401519,
,,,,16.0,4.0,1.0,,,,,rot,red,r,1.0,g,0.0,0.5056268300031661,,,,,,,,,,,,,,1.0,4.0,16.0,1.0,,,,,93.35729804999572,,,,,,,,,,,,,,,,,93.34165773099812,93.45721439399496,94.26296790799825,94.25129951800044,,,,,,,,,,,,,,,,94.25467223699523,94.26296790799825,94.26296790799825,94.7760463739978,g,0.0,0.5056268300031661,,94.7793803789973,94.79128458299964,95.77657146899584,,,,,,,,,,,,,,,,,,,,,sub-030,3,stroop_test,61.71663461401519,
,,,,17.0,5.0,1.0,,,,,gelb,yellow,g,1.0,g,1.0,0.4508809920007479,,,,,,,,,,,,,,1.0,5.0,17.0,10.0,,,,,95.79091978199722,,,,,,,,,,,,,,,,,95.77686900900152,96.14091987999564,96.94097904699449,96.92542961100116,,,,,,,,,,,,,,,,96.92867911599753,96.94097904699449,96.94097904699449,97.40921346400135,g,1.0,0.4508809920007479,,97.41191456299566,97.42456775499886,98.40895439499582,98.42496148499777,,,,,,,,,,,,,,,,,,,,sub-030,3,stroop_test,61.71663461401519,
,,,,18.0,6.0,1.0,,,,,rot,yellow,g,0.0,g,1.0,0.3911845420007012,,,,,,,,,,,,,,1.0,6.0,18.0,3.0,,,,,98.42496148499777,,,,,,,,,,,,,,,,,98.409340608996,99.61397563199716,100.4249716369959,100.4092671489998,,,,,,,,,,,,,,,,100.4123925909953,100.4249716369959,100.4249716369959,100.81983704299635,g,1.0,0.3911845420007012,,100.82025861799777,100.83524558899808,101.82575483099936,,,,,,,,,,,,,,,,,,,,,sub-030,3,stroop_test,61.71663461401519,
,,,,19.0,7.0,1.0,,,,,rot,blue,b,0.0,b,1.0,0.6806469130024198,,,,,,,,,,,,,,1.0,7.0,19.0,2.0,,,,,101.8423635520012,,,,,,,,,,,,,,,,,101.82614308800112,102.17560774999583,102.97551151600057,102.95952521100116,,,,,,,,,,,,,,,,102.95995022200076,102.97551151600057,102.97551151600057,103.6604561599961,b,1.0,0.6806469130024198,,103.66091361199506,103.67556364199844,104.66029985199566,104.67600679399766,,,,,,,,,,,,,,,,,,,,sub-030,3,stroop_test,61.71663461401519,
,,,,20.0,8.0,1.0,,,,,gelb,blue,b,0.0,b,1.0,0.9651480089960388,,,,,,,,,,,,,,1.0,8.0,20.0,9.0,,,,,104.67600679399766,,,,,,,,,,,,,,,,,104.6606702049976,105.00947428999643,105.81956166899909,105.80322341899593,,,,,,,,,,,,,,,,105.80622357600078,105.81956166899909,105.81956166899909,106.79411715600143,b,1.0,0.9651480089960388,,106.79457940299471,106.80944644699775,107.80309853299696,,,,,,,,,,,,,,,,,,,,,sub-030,3,stroop_test,61.71663461401519,
,,,,21.0,9.0,1.0,,,,,blau,blue,b,1.0,b,1.0,0.4627418700038106,,,,,,,,,,,,,,1.0,9.0,21.0,5.0,,,,,107.81971796500147,,,,,,,,,,,,,,,,,107.80339010199532,108.99335803400028,109.79336604799757,109.77757105400087,,,,,,,,,,,,,,,,109.78077028299596,109.79336604799757,109.79336604799757,110.2615669769948,b,1.0,0.4627418700038106,,110.26205405099608,110.2769560529996,111.26086137299716,111.27699899499568,,,,,,,,,,,,,,,,,,,,sub-030,3,stroop_test,61.71663461401519,
,,,,22.0,10.0,1.0,,,,,blau,red,r,0.0,r,1.0,0.3080338610016042,,,,,,,,,,,,,,1.0,10.0,22.0,4.0,,,,,111.27699899499568,,,,,,,,,,,,,,,,,111.26114137299736,112.0771325819951,112.8833640219964,112.8713610029954,,,,,,,,,,,,,,,,112.87201128900053,112.8833640219964,112.8833640219964,113.19535836199792,r,1.0,0.3080338610016042,,113.19580738999504,113.21071936599763,114.20002706499508,,,,,,,,,,,,,,,,,,,,,sub-030,3,stroop_test,61.71663461401519,
,,,,23.0,11.0,1.0,,,,,blau,yellow,g,0.0,g,1.0,0.4218635040015215,,,,,,,,,,,,,,1.0,11.0,23.0,7.0,,,,,114.21779515199889,,,,,,,,,,,,,,,,,114.20041400699849,114.99442794700008,115.79453135399672,115.77859441699547,,,,,,,,,,,,,,,,115.77918570499604,115.79453135399672,115.79453135399672,116.21845923799992,g,1.0,0.4218635040015215,,116.21887729299488,116.2377143199992,117.23475156499626,,,,,,,,,,,,,,,,,,,,,sub-030,3,stroop_test,61.71663461401519,
,,,,,,,,,,,,,,,,,,,,,,,,,,,,,,,,,,,,,,,,,,,,,,,,,,,,,,,,,,,,,,,,,,,,,,,,,,,,,,,,,,,,,,,117.23494116299844,117.25467586499872,117.25467586499872,119.16336412699457,space,1.8981843670044327,,,,,,,,,,,,,,sub-030,3,stroop_test,61.71663461401519,
,,,,0.0,0.0,0.0,,,,,,,,,,,,,blau,blue,b,1.0,b,1.0,1.157942114994512,,,,,,,,,,0.0,0.0,0.0,6.0,119.18128050199448,,,,,,,,,,,,,,,,,119.17352797700003,119.97849888199562,120.7784717780014,120.76312487099494,,,,,,,,,,,,,,,,,,,,,,,,,,,,,,,,,,,120.76637139300146,120.7784717780014,120.7784717780014,121.94672012500088,b,1.0,1.157942114994512,,,,,,sub-030,3,stroop_test,61.71663461401519,
,,,,1.0,1.0,0.0,,,,,,,,,,,,,blau,red,r,0.0,r,1.0,0.5098543310014065,,,,,,,,,,0.0,1.0,1.0,4.0,121.96200161199522,,,,,,,,,,,,,,,,,121.94704806400114,123.16252125099707,123.96254125300038,123.94718080099848,,,,,,,,,,,,,,,,,,,,,,,,,,,,,,,,,,,123.947776246001,123.96254125300038,123.96254125300038,124.4809383920001,r,1.0,0.5098543310014065,,,,,,sub-030,3,stroop_test,61.71663461401519,
,,,,2.0,2.0,0.0,,,,,,,,,,,,,blau,yellow,g,0.0,g,1.0,0.495658949999779,,,,,,,,,,0.0,2.0,2.0,7.0,124.4958968629944,,,,,,,,,,,,,,,,,124.48126464300005,125.29625302399654,126.0962933069968,126.08036237699709,,,,,,,,,,,,,,,,,,,,,,,,,,,,,,,,,,,126.08094133900158,126.0962933069968,126.0962933069968,126.59842295099952,g,1.0,0.495658949999779,,,,,,sub-030,3,stroop_test,61.71663461401519,
,,,,3.0,3.0,0.0,,,,,,,,,,,,,gelb,yellow,g,1.0,g,1.0,0.5553513859995292,,,,,,,,,,0.0,3.0,3.0,11.0,126.61302568799874,,,,,,,,,,,,,,,,,126.59874552900146,127.81346453099832,128.61318150299485,128.59768435099977,,,,,,,,,,,,,,,,,,,,,,,,,,,,,,,,,,,128.60091462999844,128.61318150299485,128.61318150299485,129.1815451250004,g,1.0,0.5553513859995292,,,,,,sub-030,3,stroop_test,61.71663461401519,
,,,,4.0,4.0,0.0,,,,,,,,,,,,,gelb,blue,b,0.0,g,0.0,0.9071694599988404,,,,,,,,,,0.0,4.0,4.0,9.0,129.19676928199624,,,,,,,,,,,,,,,,,129.1818844369991,130.3969380319977,131.1970465139966,131.18178386699583,,,,,,,,,,,,,,,,,,,,,,,,,,,,,,,,,,,131.1823565559971,131.1970465139966,131.1970465139966,132.1150937450002,g,0.0,0.9071694599988404,,,,,,sub-030,3,stroop_test,61.71663461401519,
,,,,5.0,5.0,0.0,,,,,,,,,,,,,gelb,yellow,g,1.0,g,1.0,0.5833324310005992,,,,,,,,,,0.0,5.0,5.0,10.0,132.13062760199682,,,,,,,,,,,,,,,,,132.11542905600072,132.2308487209957,133.04078994399606,133.02292555799795,,,,,,,,,,,,,,,,,,,,,,,,,,,,,,,,,,,133.0237275670006,133.04078994399606,133.04078994399606,133.6322508239973,g,1.0,0.5833324310005992,,,,,,sub-030,3,stroop_test,61.71663461401519,
,,,,6.0,6.0,0.0,,,,,,,,,,,,,rot,yellow,g,0.0,r,0.0,0.6612586829942302,,,,,,,,,,0.0,6.0,6.0,3.0,133.64743710799667,,,,,,,,,,,,,,,,,133.63257748099568,133.74749808300112,134.54748322699743,134.53154553999775,,,,,,,,,,,,,,,,,,,,,,,,,,,,,,,,,,,134.5340012279994,134.54748322699743,134.54748322699743,135.21607022499666,r,0.0,0.6612586829942302,,,,,,sub-030,3,stroop_test,61.71663461401519,
,,,,7.0,7.0,0.0,,,,,,,,,,,,,rot,red,r,1.0,r,1.0,0.3207667500028037,,,,,,,,,,0.0,7.0,7.0,0.0,135.2310451999947,,,,,,,,,,,,,,,,,135.21640378399752,136.0244775389947,136.83161666699743,136.81586011499894,,,,,,,,,,,,,,,,,,,,,,,,,,,,,,,,,,,136.81645861399738,136.83161666699743,136.83161666699743,137.1662675359985,r,1.0,0.3207667500028037,,,,,,sub-030,3,stroop_test,61.71663461401519,
,,,,8.0,8.0,0.0,,,,,,,,,,,,,rot,blue,b,0.0,b,1.0,0.5183893700013869,,,,,,,,,,0.0,8.0,8.0,2.0,137.18140398999822,,,,,,,,,,,,,,,,,137.166601334,137.28162651599996,138.08148994499788,138.0658442339991,,,,,,,,,,,,,,,,,,,,,,,,,,,,,,,,,,,138.0664116650005,138.08148994499788,138.08148994499788,138.61749262899684,b,1.0,0.5183893700013869,,,,,,sub-030,3,stroop_test,61.71663461401519,
,,,,9.0,9.0,0.0,,,,,,,,,,,,,blau,blue,b,1.0,b,1.0,0.5441938160001882,,,,,,,,,,0.0,9.0,9.0,5.0,138.63181563699618,,,,,,,,,,,,,,,,,138.6178195859975,139.83197457499773,140.63198237100005,140.61626152599638,,,,,,,,,,,,,,,,,,,,,,,,,,,,,,,,,,,140.61930818499968,140.63198237100005,140.63198237100005,141.18347115399956,b,1.0,0.5441938160001882,,,,,,sub-030,3,stroop_test,61.71663461401519,
,,,,10.0,10.0,0.0,,,,,,,,,,,,,rot,red,r,1.0,r,1.0,0.5385774579990539,,,,,,,,,,0.0,10.0,10.0,1.0,141.19867238699953,,,,,,,,,,,,,,,,,141.18380299899582,141.54222838400165,142.34892365899577,142.33311376499478,,,,,,,,,,,,,,,,,,,,,,,,,,,,,,,,,,,142.33609788999456,142.34892365899577,142.34892365899577,142.88951255499703,r,1.0,0.5385774579990539,,,,,,sub-030,3,stroop_test,61.71663461401519,
,,,,11.0,11.0,0.0,,,,,,,,,,,,,gelb,red,r,0.0,r,1.0,0.3415818569992552,,,,,,,,,,0.0,11.0,11.0,8.0,142.90794809699582,,,,,,,,,,,,,,,,,142.8898347159993,143.6993592899962,144.49921071299468,144.48361822099832,,,,,,,,,,,,,,,,,,,,,,,,,,,,,,,,,,,144.48680488999526,144.49921071299468,144.49921071299468,144.85080812499655,r,1.0,0.3415818569992552,,,,,,sub-030,3,stroop_test,61.71663461401519,
,,,,12.0,0.0,1.0,,,,,,,,,,,,,rot,blue,b,0.0,b,1.0,0.6296478450021823,,,,,,,,,,1.0,0.0,12.0,2.0,144.8659604179993,,,,,,,,,,,,,,,,,144.8511314470015,146.05708238700026,146.86657492599625,146.85090880499774,,,,,,,,,,,,,,,,,,,,,,,,,,,,,,,,,,,146.8541388789963,146.86657492599625,146.86657492599625,147.51168254300137,b,1.0,0.6296478450021823,,,,,,sub-030,3,stroop_test,61.71663461401519,
,,,,13.0,1.0,1.0,,,,,,,,,,,,,blau,blue,b,1.0,b,1.0,0.6111802700033877,,,,,,,,,,1.0,1.0,13.0,6.0,147.52653814299993,,,,,,,,,,,,,,,,,147.51201031800156,148.31666493300145,149.11668202299916,149.1008679899969,,,,,,,,,,,,,,,,,,,,,,,,,,,,,,,,,,,149.10402212999907,149.11668202299916,149.11668202299916,149.73520432000078,b,1.0,0.6111802700033877,,,,,,sub-030,3,stroop_test,61.71663461401519,
,,,,14.0,2.0,1.0,,,,,,,,,,,,,blau,yellow,g,0.0,g,1.0,0.5324747080012457,,,,,,,,,,1.0,2.0,14.0,7.0,149.75007116999768,,,,,,,,,,,,,,,,,149.73553231099504,150.10046291499748,150.90025423000043,150.88492257300095,,,,,,,,,,,,,,,,,,,,,,,,,,,,,,,,,,,150.8855109319993,150.90025423000043,150.90025423000043,151.4413987519947,g,1.0,0.5324747080012457,,,,,,sub-030,3,stroop_test,61.71663461401519,
,,,,15.0,3.0,1.0,,,,,,,,,,,,,gelb,blue,b,0.0,b,1.0,0.5270930990009219,,,,,,,,,,1.0,3.0,15.0,9.0,151.45993713099597,,,,,,,,,,,,,,,,,151.4417175359995,151.80075145400042,152.60055697099597,152.58498702499492,,,,,,,,,,,,,,,,,,,,,,,,,,,,,,,,,,,152.5885743100007,152.60055697099597,152.60055697099597,153.1294362560002,b,1.0,0.5270930990009219,,,,,,sub-030,3,stroop_test,61.71663461401519,
,,,,16.0,4.0,1.0,,,,,,,,,,,,,gelb,red,r,0.0,r,1.0,0.6263776049963781,,,,,,,,,,1.0,4.0,16.0,8.0,153.14143221799895,,,,,,,,,,,,,,,,,153.12977568800125,153.9344775770005,154.73431942000025,154.71837715899892,,,,,,,,,,,,,,,,,,,,,,,,,,,,,,,,,,,154.71880471999611,154.73431942000025,154.73431942000025,155.36933900299482,r,1.0,0.6263776049963781,,,,,,sub-030,3,stroop_test,61.71663461401519,
,,,,17.0,5.0,1.0,,,,,,,,,,,,,gelb,yellow,g,1.0,b,0.0,1.0155469570017883,,,,,,,,,,1.0,5.0,17.0,10.0,155.38441894899734,,,,,,,,,,,,,,,,,155.3696626480014,155.73497882599622,156.54464229199948,156.52750361799554,,,,,,,,,,,,,,,,,,,,,,,,,,,,,,,,,,,156.52795026500098,156.54464229199948,156.54464229199948,157.56952690499747,b,0.0,1.0155469570017883,,,,,,sub-030,3,stroop_test,61.71663461401519,
,,,,18.0,6.0,1.0,,,,,,,,,,,,,rot,yellow,g,0.0,g,1.0,0.9272734869955456,,,,,,,,,,1.0,6.0,18.0,3.0,157.5847717699944,,,,,,,,,,,,,,,,,157.56984823299717,158.78528800599452,159.58507068299514,159.56931948299462,,,,,,,,,,,,,,,,,,,,,,,,,,,,,,,,,,,159.57216560399684,159.58507068299514,159.58507068299514,160.51983848799864,g,1.0,0.9272734869955456,,,,,,sub-030,3,stroop_test,61.71663461401519,
,,,,19.0,7.0,1.0,,,,,,,,,,,,,blau,red,r,0.0,r,1.0,0.5935732619982446,,,,,,,,,,1.0,7.0,19.0,4.0,160.53530728299663,,,,,,,,,,,,,,,,,160.52011027599656,161.71906897699955,162.51898889400036,162.50311907500145,,,,,,,,,,,,,,,,,,,,,,,,,,,,,,,,,,,162.50632852499984,162.51898889400036,162.51898889400036,163.11437640799704,r,1.0,0.5935732619982446,,,,,,sub-030,3,stroop_test,61.71663461401519,
,,,,20.0,8.0,1.0,,,,,,,,,,,,,blau,blue,b,1.0,b,1.0,0.8207258120019105,,,,,,,,,,1.0,8.0,20.0,5.0,163.12919567200152,,,,,,,,,,,,,,,,,163.11469640399446,163.21920075399976,164.01935056799994,164.00379294699815,,,,,,,,,,,,,,,,,,,,,,,,,,,,,,,,,,,164.004373552998,164.01935056799994,164.01935056799994,164.8546823259967,b,1.0,0.8207258120019105,,,,,,sub-030,3,stroop_test,61.71663461401519,
,,,,21.0,9.0,1.0,,,,,,,,,,,,,rot,red,r,1.0,r,1.0,0.6388987350001116,,,,,,,,,,1.0,9.0,21.0,0.0,164.8694531009969,,,,,,,,,,,,,,,,,164.85500345599576,164.9696611199979,165.7696139949985,165.75426797399996,,,,,,,,,,,,,,,,,,,,,,,,,,,,,,,,,,,165.75738334599737,165.7696139949985,165.7696139949985,166.4214206539982,r,1.0,0.6388987350001116,,,,,,sub-030,3,stroop_test,61.71663461401519,
,,,,22.0,10.0,1.0,,,,,,,,,,,,,rot,red,r,1.0,r,1.0,0.3467951490019914,,,,,,,,,,1.0,10.0,22.0,1.0,166.4362420030011,,,,,,,,,,,,,,,,,166.4217459279971,167.63678743399942,168.43686210500164,168.42062064199854,,,,,,,,,,,,,,,,,,,,,,,,,,,,,,,,,,,168.42104709400155,168.43686210500164,168.43686210500164,168.78806762299791,r,1.0,0.3467951490019914,,,,,,sub-030,3,stroop_test,61.71663461401519,
,,,,23.0,11.0,1.0,,,,,,,,,,,,,gelb,yellow,g,1.0,g,1.0,0.7017211629936355,,,,,,,,,,1.0,11.0,23.0,11.0,168.80351483699633,,,,,,,,,,,,,,,,,168.78835273299774,168.90342539300036,169.7137319339963,169.69750986299914,,,,,,,,,,,,,,,,,,,,,,,,,,,,,,,,,,,169.70008678599697,169.7137319339963,169.7137319339963,170.4219641210002,g,1.0,0.7017211629936355,,,,,,sub-030,3,stroop_test,61.71663461401519,
,,,,24.0,0.0,2.0,,,,,,,,,,,,,gelb,yellow,g,1.0,g,1.0,0.3789793169999029,,,,,,,,,,2.0,0.0,24.0,10.0,170.43700001199613,,,,,,,,,,,,,,,,,170.42230775499775,171.23757336299605,172.03730808299588,172.02173441999912,,,,,,,,,,,,,,,,,,,,,,,,,,,,,,,,,,,172.0223211170014,172.03730808299588,172.03730808299588,172.42230192499846,g,1.0,0.3789793169999029,,,,,,sub-030,3,stroop_test,61.71663461401519,
,,,,25.0,1.0,2.0,,,,,,,,,,,,,gelb,yellow,g,1.0,g,1.0,0.3546813710054266,,,,,,,,,,2.0,1.0,25.0,11.0,172.43730816600146,,,,,,,,,,,,,,,,,172.42262738000136,173.6377743599951,174.43784789699566,174.4218200299947,,,,,,,,,,,,,,,,,,,,,,,,,,,,,,,,,,,174.4224133759999,174.43784789699566,174.43784789699566,174.8059094479977,g,1.0,0.3546813710054266,,,,,,sub-030,3,stroop_test,61.71663461401519,
,,,,26.0,2.0,2.0,,,,,,,,,,,,,blau,red,r,0.0,r,1.0,0.6030108880004263,,,,,,,,,,2.0,2.0,26.0,4.0,174.82132788899617,,,,,,,,,,,,,,,,,174.80623013999866,175.62132395299705,176.42134419999638,176.40556183199806,,,,,,,,,,,,,,,,,,,,,,,,,,,,,,,,,,,176.40905726699566,176.42134419999638,176.42134419999638,177.03959306299657,r,1.0,0.6030108880004263,,,,,,sub-030,3,stroop_test,61.71663461401519,
,,,,27.0,3.0,2.0,,,,,,,,,,,,,blau,blue,b,1.0,b,1.0,0.4934774680004921,,,,,,,,,,2.0,3.0,27.0,6.0,177.05458346299565,,,,,,,,,,,,,,,,,177.03991452699847,177.1550489729998,177.95489065199945,177.9388935829993,,,,,,,,,,,,,,,,,,,,,,,,,,,,,,,,,,,177.93931743299618,177.95489065199945,177.95489065199945,178.45631513399712,b,1.0,0.4934774680004921,,,,,,sub-030,3,stroop_test,61.71663461401519,
,,,,28.0,4.0,2.0,,,,,,,,,,,,,rot,blue,b,0.0,b,1.0,0.6094697689986788,,,,,,,,,,2.0,4.0,28.0,2.0,178.47150609600067,,,,,,,,,,,,,,,,,178.45663401799538,179.65537925800163,180.45531709499485,180.43919022599584,,,,,,,,,,,,,,,,,,,,,,,,,,,,,,,,,,,180.4416250360009,180.45531709499485,180.45531709499485,181.07368098799637,b,1.0,0.6094697689986788,,,,,,sub-030,3,stroop_test,61.71663461401519,
,,,,29.0,5.0,2.0,,,,,,,,,,,,,blau,blue,b,1.0,b,1.0,0.3909530390010332,,,,,,,,,,2.0,5.0,29.0,5.0,181.0887745090004,,,,,,,,,,,,,,,,,181.07400653999505,182.28916153899627,183.08915400399565,183.07356293799967,,,,,,,,,,,,,,,,,,,,,,,,,,,,,,,,,,,183.07649165899784,183.08915400399565,183.08915400399565,183.49063829700023,b,1.0,0.3909530390010332,,,,,,sub-030,3,stroop_test,61.71663461401519,
,,,,30.0,6.0,2.0,,,,,,,,,,,,,rot,red,r,1.0,r,1.0,0.7305518860011944,,,,,,,,,,2.0,6.0,30.0,1.0,183.50602737999725,,,,,,,,,,,,,,,,,183.4909639319958,183.6060536379955,184.4059238289992,184.39007596999727,,,,,,,,,,,,,,,,,,,,,,,,,,,,,,,,,,,184.39251509099995,184.4059238289992,184.4059238289992,185.14678674699823,r,1.0,0.7305518860011944,,,,,,sub-030,3,stroop_test,61.71663461401519,
,,,,31.0,7.0,2.0,,,,,,,,,,,,,rot,yellow,g,0.0,g,1.0,0.6560568929999135,,,,,,,,,,2.0,7.0,31.0,3.0,185.16555979899567,,,,,,,,,,,,,,,,,185.14712071499525,185.2495432700016,186.05629595599748,186.0406457689969,,,,,,,,,,,,,,,,,,,,,,,,,,,,,,,,,,,186.04122600700063,186.05629595599748,186.05629595599748,186.71781247699985,g,1.0,0.6560568929999135,,,,,,sub-030,3,stroop_test,61.71663461401519,
,,,,32.0,8.0,2.0,,,,,,,,,,,,,rot,red,r,1.0,r,1.0,0.5505464650050271,,,,,,,,,,2.0,8.0,32.0,0.0,186.73314107699844,,,,,,,,,,,,,,,,,186.71813116200065,187.07340617299636,187.87330250800005,187.857250684996,,,,,,,,,,,,,,,,,,,,,,,,,,,,,,,,,,,187.85767980099627,187.87330250800005,187.87330250800005,188.42584275300032,r,1.0,0.5505464650050271,,,,,,sub-030,3,stroop_test,61.71663461401519,
,,,,33.0,9.0,2.0,,,,,,,,,,,,,blau,yellow,g,0.0,g,1.0,0.7480720340026892,,,,,,,,,,2.0,9.0,33.0,7.0,188.44009053999616,,,,,,,,,,,,,,,,,188.42618702999607,188.54028069700144,189.34028442099952,189.32461544800023,,,,,,,,,,,,,,,,,,,,,,,,,,,,,,,,,,,189.3278355520015,189.34028442099952,189.34028442099952,190.09215334100008,g,1.0,0.7480720340026892,,,,,,sub-030,3,stroop_test,61.71663461401519,
,,,,34.0,10.0,2.0,,,,,,,,,,,,,gelb,blue,b,0.0,b,1.0,0.4345985729960375,,,,,,,,,,2.0,10.0,34.0,9.0,190.10708677199727,,,,,,,,,,,,,,,,,190.09249868599727,190.90744582999469,191.71763261500016,191.6972267949968,,,,,,,,,,,,,,,,,,,,,,,,,,,,,,,,,,,191.69972728399443,191.71763261500016,191.71763261500016,192.1589061829945,b,1.0,0.4345985729960375,,,,,,sub-030,3,stroop_test,61.71663461401519,
,,,,35.0,11.0,2.0,,,,,,,,,,,,,gelb,red,r,0.0,r,1.0,0.4137389460011036,,,,,,,,,,2.0,11.0,35.0,8.0,192.1741105109977,,,,,,,,,,,,,,,,,192.15920654799996,192.2742016069969,193.0742896869997,193.0585370139961,,,,,,,,,,,,,,,,,,,,,,,,,,,,,,,,,,,193.05911757899597,193.0742896869997,193.0742896869997,193.49259253099444,r,1.0,0.4137389460011036,,,,,,sub-030,3,stroop_test,61.71663461401519,
,,,,36.0,0.0,3.0,,,,,,,,,,,,,blau,yellow,g,0.0,g,1.0,0.7169278830042458,,,,,,,,,,3.0,0.0,36.0,7.0,193.5077236809957,,,,,,,,,,,,,,,,,193.49294706199728,194.6914203089982,195.491279793001,195.47540716100048,,,,,,,,,,,,,,,,,,,,,,,,,,,,,,,,,,,195.4783046070006,195.491279793001,195.491279793001,196.2103736279969,g,1.0,0.7169278830042458,,,,,,sub-030,3,stroop_test,61.71663461401519,
,,,,37.0,1.0,3.0,,,,,,,,,,,,,gelb,blue,b,0.0,b,1.0,0.5669113719995948,,,,,,,,,,3.0,1.0,37.0,9.0,196.22478805999708,,,,,,,,,,,,,,,,,196.2107658629975,197.425289064995,198.2252162509976,198.20920650100012,,,,,,,,,,,,,,,,,,,,,,,,,,,,,,,,,,,198.2116859109956,198.2252162509976,198.2252162509976,198.8032591029987,b,1.0,0.5669113719995948,,,,,,sub-030,3,stroop_test,61.71663461401519,
,,,,38.0,2.0,3.0,,,,,,,,,,,,,blau,blue,b,1.0,b,1.0,0.3724772540008416,,,,,,,,,,3.0,2.0,38.0,6.0,198.8186136299992,,,,,,,,,,,,,,,,,198.8035823419996,199.6090006459999,200.41903453399573,200.40291885199983,,,,,,,,,,,,,,,,,,,,,,,,,,,,,,,,,,,200.40545907399792,200.41903453399573,200.41903453399573,200.7937623129983,b,1.0,0.3724772540008416,,,,,,sub-030,3,stroop_test,61.71663461401519,
,,,,39.0,3.0,3.0,,,,,,,,,,,,,blau,red,r,0.0,r,1.0,0.6969311279972317,,,,,,,,,,3.0,3.0,39.0,4.0,200.80881822599625,,,,,,,,,,,,,,,,,200.79408007299932,201.1592139150016,201.95931344199929,201.94857596200015,,,,,,,,,,,,,,,,,,,,,,,,,,,,,,,,,,,201.94900665399476,201.95931344199929,201.95931344199929,202.66067821499743,r,1.0,0.6969311279972317,,,,,,sub-030,3,stroop_test,61.71663461401519,
,,,,40.0,4.0,3.0,,,,,,,,,,,,,gelb,red,r,0.0,r,1.0,0.8036047040004632,,,,,,,,,,3.0,4.0,40.0,8.0,202.676063547995,,,,,,,,,,,,,,,,,202.6609873080015,203.8669823849996,204.67635443299517,204.6604955449948,,,,,,,,,,,,,,,,,,,,,,,,,,,,,,,,,,,204.6635376170016,204.67635443299517,204.67635443299517,205.4947545229952,r,1.0,0.8036047040004632,,,,,,sub-030,3,stroop_test,61.71663461401519,
,,,,41.0,5.0,3.0,,,,,,,,,,,,,rot,red,r,1.0,r,1.0,0.4499976049992256,,,,,,,,,,3.0,5.0,41.0,0.0,205.5097501929995,,,,,,,,,,,,,,,,,205.495085646995,206.31002073599663,207.10999269699823,207.09418945599464,,,,,,,,,,,,,,,,,,,,,,,,,,,,,,,,,,,207.09663884600013,207.10999269699823,207.10999269699823,207.56164556399744,r,1.0,0.4499976049992256,,,,,,sub-030,3,stroop_test,61.71663461401519,
,,,,42.0,6.0,3.0,,,,,,,,,,,,,rot,blue,b,0.0,b,1.0,0.7423202039935859,,,,,,,,,,3.0,6.0,42.0,2.0,207.5769893729957,,,,,,,,,,,,,,,,,207.5621086190004,208.77681761999705,209.57712903799984,209.56132217499544,,,,,,,,,,,,,,,,,,,,,,,,,,,,,,,,,,,209.5619171779981,209.57712903799984,209.57712903799984,210.33497135699872,b,1.0,0.7423202039935859,,,,,,sub-030,3,stroop_test,61.71663461401519,
,,,,43.0,7.0,3.0,,,,,,,,,,,,,blau,blue,b,1.0,b,1.0,0.3434351199975936,,,,,,,,,,3.0,7.0,43.0,5.0,210.35359566099945,,,,,,,,,,,,,,,,,210.3352905549982,211.5440743079962,212.3440858959948,212.32793182099704,,,,,,,,,,,,,,,,,,,,,,,,,,,,,,,,,,,212.330348427,212.3440858959948,212.3440858959948,212.69548006599507,b,1.0,0.3434351199975936,,,,,,sub-030,3,stroop_test,61.71663461401519,
,,,,44.0,8.0,3.0,,,,,,,,,,,,,rot,yellow,g,0.0,g,1.0,0.6695422260017949,,,,,,,,,,3.0,8.0,44.0,3.0,212.7110417059957,,,,,,,,,,,,,,,,,212.69581256999663,212.81112509399827,213.61099130599905,213.5949827519944,,,,,,,,,,,,,,,,,,,,,,,,,,,,,,,,,,,213.59789631899912,213.61099130599905,213.61099130599905,214.29630036199524,g,1.0,0.6695422260017949,,,,,,sub-030,3,stroop_test,61.71663461401519,
,,,,45.0,9.0,3.0,,,,,,,,,,,,,gelb,yellow,g,1.0,g,1.0,0.3023569719953229,,,,,,,,,,3.0,9.0,45.0,10.0,214.3111762799963,,,,,,,,,,,,,,,,,214.29662154099788,215.1116952109951,215.92169259699585,215.90362163900136,,,,,,,,,,,,,,,,,,,,,,,,,,,,,,,,,,,215.90620205799496,215.92169259699585,215.92169259699585,216.22970879200147,g,1.0,0.3023569719953229,,,,,,sub-030,3,stroop_test,61.71663461401519,
,,,,46.0,10.0,3.0,,,,,,,,,,,,,rot,red,r,1.0,r,1.0,0.3469108709978172,,,,,,,,,,3.0,10.0,46.0,1.0,216.24494240999772,,,,,,,,,,,,,,,,,216.23006263099523,217.44520195399676,218.24530928499732,218.2293939349984,,,,,,,,,,,,,,,,,,,,,,,,,,,,,,,,,,,218.23228148499769,218.24530928499732,218.24530928499732,218.5966256009997,r,1.0,0.3469108709978172,,,,,,sub-030,3,stroop_test,61.71663461401519,
,,,,47.0,11.0,3.0,,,,,,,,,,,,,gelb,yellow,g,1.0,g,1.0,0.5730006390003837,,,,,,,,,,3.0,11.0,47.0,11.0,218.6120671559984,,,,,,,,,,,,,,,,,218.59694902999763,218.95341983399703,219.76250170300045,219.74608695999632,,,,,,,,,,,,,,,,,,,,,,,,,,,,,,,,,,,219.7485292909987,219.76250170300045,219.76250170300045,220.34700177899504,g,1.0,0.5730006390003837,,,,,,sub-030,3,stroop_test,61.71663461401519,
,,,,48.0,0.0,4.0,,,,,,,,,,,,,gelb,red,r,0.0,r,1.0,0.359765115994378,,,,,,,,,,4.0,0.0,48.0,8.0,220.36669352999888,,,,,,,,,,,,,,,,,220.34734122300145,220.71236441699875,221.51245948200085,221.49691275999797,,,,,,,,,,,,,,,,,,,,,,,,,,,,,,,,,,,221.49749687899748,221.51245948200085,221.51245948200085,221.8804075129956,r,1.0,0.359765115994378,,,,,,sub-030,3,stroop_test,61.71663461401519,
,,,,49.0,1.0,4.0,,,,,,,,,,,,,gelb,yellow,g,1.0,g,1.0,0.3604725140030496,,,,,,,,,,4.0,1.0,49.0,10.0,221.89598007699533,,,,,,,,,,,,,,,,,221.8807281639965,223.07947558700107,223.8796972150012,223.86393375199987,,,,,,,,,,,,,,,,,,,,,,,,,,,,,,,,,,,223.86452519599695,223.8796972150012,223.8796972150012,224.24767432599765,g,1.0,0.3604725140030496,,,,,,sub-030,3,stroop_test,61.71663461401519,
,,,,50.0,2.0,4.0,,,,,,,,,,,,,rot,yellow,g,0.0,g,1.0,0.3891415090038208,,,,,,,,,,4.0,2.0,50.0,3.0,224.2629095299999,,,,,,,,,,,,,,,,,224.2479869210001,224.3633361889952,225.16308320299868,225.14746117399773,,,,,,,,,,,,,,,,,,,,,,,,,,,,,,,,,,,225.15040401499573,225.16308320299868,225.16308320299868,225.55789666299825,g,1.0,0.3891415090038208,,,,,,sub-030,3,stroop_test,61.71663461401519,
,,,,51.0,3.0,4.0,,,,,,,,,,,,,gelb,blue,b,0.0,b,1.0,0.4946470220020273,,,,,,,,,,4.0,3.0,51.0,9.0,225.5730633839994,,,,,,,,,,,,,,,,,225.55819610199976,225.91347643499464,226.7134181199945,226.6972617729989,,,,,,,,,,,,,,,,,,,,,,,,,,,,,,,,,,,226.6997368259981,226.7134181199945,226.7134181199945,227.21534432000044,b,1.0,0.4946470220020273,,,,,,sub-030,3,stroop_test,61.71663461401519,
,,,,52.0,4.0,4.0,,,,,,,,,,,,,blau,red,r,0.0,r,1.0,0.4423721339990152,,,,,,,,,,4.0,4.0,52.0,4.0,227.23042850999627,,,,,,,,,,,,,,,,,227.21567656299885,228.03060270299463,228.83022161099507,228.8145538259996,,,,,,,,,,,,,,,,,,,,,,,,,,,,,,,,,,,228.8178030029958,228.83022161099507,228.83022161099507,229.2822143449957,r,1.0,0.4423721339990152,,,,,,sub-030,3,stroop_test,61.71663461401519,
,,,,53.0,5.0,4.0,,,,,,,,,,,,,rot,red,r,1.0,r,1.0,0.4592240729980403,,,,,,,,,,4.0,5.0,53.0,1.0,229.2970471519948,,,,,,,,,,,,,,,,,229.28253728099665,229.3974758510012,230.19713785500065,230.1811918759995,,,,,,,,,,,,,,,,,,,,,,,,,,,,,,,,,,,230.18410980799672,230.19713785500065,230.19713785500065,230.66550040699804,r,1.0,0.4592240729980403,,,,,,sub-030,3,stroop_test,61.71663461401519,
,,,,54.0,6.0,4.0,,,,,,,,,,,,,rot,red,r,1.0,r,1.0,0.430513303996122,,,,,,,,,,4.0,6.0,54.0,0.0,230.68071154099744,,,,,,,,,,,,,,,,,230.66582147699955,231.8811075139965,232.6809346019945,232.6654246990001,,,,,,,,,,,,,,,,,,,,,,,,,,,,,,,,,,,232.66601048399752,232.6809346019945,232.6809346019945,233.11582017399635,r,1.0,0.430513303996122,,,,,,sub-030,3,stroop_test,61.71663461401519,
,,,,55.0,7.0,4.0,,,,,,,,,,,,,blau,blue,b,1.0,b,1.0,0.4870376359976944,,,,,,,,,,4.0,7.0,55.0,6.0,233.13108638699487,,,,,,,,,,,,,,,,,233.1161701749952,233.4814113819957,234.2812144119962,234.26573020499927,,,,,,,,,,,,,,,,,,,,,,,,,,,,,,,,,,,234.26865708599507,234.2812144119962,234.2812144119962,234.7829520879968,b,1.0,0.4870376359976944,,,,,,sub-030,3,stroop_test,61.71663461401519,
,,,,56.0,8.0,4.0,,,,,,,,,,,,,blau,yellow,g,0.0,b,0.0,0.3931979230037541,,,,,,,,,,4.0,8.0,56.0,7.0,234.7979728049977,,,,,,,,,,,,,,,,,234.78327547200024,235.5916534450007,236.398314580998,236.38213116199768,,,,,,,,,,,,,,,,,,,,,,,,,,,,,,,,,,,236.3825683149989,236.398314580998,236.398314580998,236.80018090299563,b,0.0,0.3931979230037541,,,,,,sub-030,3,stroop_test,61.71663461401519,
,,,,57.0,9.0,4.0,,,,,,,,,,,,,gelb,yellow,g,1.0,g,1.0,0.3374094160026288,,,,,,,,,,4.0,9.0,57.0,11.0,236.81528639599856,,,,,,,,,,,,,,,,,236.80050210899932,237.60739321800065,238.41537227599477,238.39952514800095,,,,,,,,,,,,,,,,,,,,,,,,,,,,,,,,,,,238.40272905899477,238.41537227599477,238.41537227599477,238.76030926699605,g,1.0,0.3374094160026288,,,,,,sub-030,3,stroop_test,61.71663461401519,
,,,,58.0,10.0,4.0,,,,,,,,,,,,,blau,blue,b,1.0,b,1.0,0.3391006230012863,,,,,,,,,,4.0,10.0,58.0,5.0,238.77538219499547,,,,,,,,,,,,,,,,,238.76071326300007,239.565613494,240.36566362099984,240.3500121850011,,,,,,,,,,,,,,,,,,,,,,,,,,,,,,,,,,,240.3530453860003,240.36566362099984,240.36566362099984,240.7153321980004,b,1.0,0.3391006230012863,,,,,,sub-030,3,stroop_test,61.71663461401519,
,,,,59.0,11.0,4.0,,,,,,,,,,,,,rot,blue,b,0.0,b,1.0,0.7459847200007061,,,,,,,,,,4.0,11.0,59.0,2.0,240.7326061989952,,,,,,,,,,,,,,,,,240.71565038900007,241.91618863299664,242.7183271699978,242.70689138199668,,,,,,,,,,,,,,,,,,,,,,,,,,,,,,,,,,,242.709361276,242.7183271699978,242.7183271699978,243.4676754600005,b,1.0,0.7459847200007061,,,,,,sub-030,3,stroop_test,61.71663461401519,
,,,,60.0,0.0,5.0,,,,,,,,,,,,,gelb,yellow,g,1.0,g,1.0,0.6845807310019154,,,,,,,,,,5.0,0.0,60.0,10.0,243.4829170539961,,,,,,,,,,,,,,,,,243.4679877689996,244.2830860489994,245.08317537699625,245.06750287699836,,,,,,,,,,,,,,,,,,,,,,,,,,,,,,,,,,,245.07074461699813,245.08317537699625,245.08317537699625,245.78467993099912,g,1.0,0.6845807310019154,,,,,,sub-030,3,stroop_test,61.71663461401519,
,,,,61.0,1.0,5.0,,,,,,,,,,,,,gelb,blue,b,0.0,b,1.0,1.4682171499953256,,,,,,,,,,5.0,1.0,61.0,9.0,245.799862423999,,,,,,,,,,,,,,,,,245.7850018359968,245.90013263199944,246.69990141599555,246.68433145799645,,,,,,,,,,,,,,,,,,,,,,,,,,,,,,,,,,,246.68490353899688,246.69990141599555,246.69990141599555,248.1847911180012,b,1.0,1.4682171499953256,,,,,,sub-030,3,stroop_test,61.71663461401519,
,,,,62.0,2.0,5.0,,,,,,,,,,,,,blau,blue,b,1.0,b,1.0,0.3602716629975475,,,,,,,,,,5.0,2.0,62.0,6.0,248.20016382099857,,,,,,,,,,,,,,,,,248.1851077210013,249.38412986299957,250.18392745700112,250.16848439399476,,,,,,,,,,,,,,,,,,,,,,,,,,,,,,,,,,,250.1720898779968,250.18392745700112,250.18392745700112,250.5558316440001,b,1.0,0.3602716629975475,,,,,,sub-030,3,stroop_test,61.71663461401519,
,,,,63.0,3.0,5.0,,,,,,,,,,,,,blau,red,r,0.0,r,1.0,0.4676030590053415,,,,,,,,,,5.0,3.0,63.0,4.0,250.57486210099887,,,,,,,,,,,,,,,,,250.55617212400105,250.6608144799975,251.4676872759956,251.45169368799543,,,,,,,,,,,,,,,,,,,,,,,,,,,,,,,,,,,251.45229707699764,251.4676872759956,251.4676872759956,251.95310833099936,r,1.0,0.4676030590053415,,,,,,sub-030,3,stroop_test,61.71663461401519,
,,,,64.0,4.0,5.0,,,,,,,,,,,,,gelb,red,r,0.0,r,1.0,0.4979932749993168,,,,,,,,,,5.0,4.0,64.0,8.0,251.96749928400092,,,,,,,,,,,,,,,,,251.95342651099784,252.31802003399932,253.11767463699653,253.1021902020002,,,,,,,,,,,,,,,,,,,,,,,,,,,,,,,,,,,253.10533095099527,253.11767463699653,253.11767463699653,253.6194270459964,r,1.0,0.4979932749993168,,,,,,sub-030,3,stroop_test,61.71663461401519,
,,,,65.0,5.0,5.0,,,,,,,,,,,,,rot,yellow,g,0.0,g,1.0,0.4767923730032635,,,,,,,,,,5.0,5.0,65.0,3.0,253.63447748799808,,,,,,,,,,,,,,,,,253.61977292299707,254.42779066399817,255.2349148979993,255.21933039999567,,,,,,,,,,,,,,,,,,,,,,,,,,,,,,,,,,,255.2224001959985,255.2349148979993,255.2349148979993,255.72022327399463,g,1.0,0.4767923730032635,,,,,,sub-030,3,stroop_test,61.71663461401519,
,,,,66.0,6.0,5.0,,,,,,,,,,,,,gelb,yellow,g,1.0,g,1.0,0.3465724209963809,,,,,,,,,,5.0,6.0,66.0,11.0,255.73480640199705,,,,,,,,,,,,,,,,,255.72054385599768,256.0862282399976,256.88493892599945,256.8693747299985,,,,,,,,,,,,,,,,,,,,,,,,,,,,,,,,,,,256.87254906100134,256.88493892599945,256.88493892599945,257.2467430889956,g,1.0,0.3465724209963809,,,,,,sub-030,3,stroop_test,61.71663461401519,
,,,,67.0,7.0,5.0,,,,,,,,,,,,,rot,red,r,1.0,r,1.0,0.4177449220005655,,,,,,,,,,5.0,7.0,67.0,0.0,257.26185799399536,,,,,,,,,,,,,,,,,257.24708164500043,258.4523039849955,259.2631092619995,259.2464164779958,,,,,,,,,,,,,,,,,,,,,,,,,,,,,,,,,,,259.2496453540007,259.2631092619995,259.2631092619995,259.687219225998,r,1.0,0.4177449220005655,,,,,,sub-030,3,stroop_test,61.71663461401519,
,,,,68.0,8.0,5.0,,,,,,,,,,,,,blau,yellow,g,0.0,g,1.0,0.4678784130010172,,,,,,,,,,5.0,8.0,68.0,7.0,259.7023193079949,,,,,,,,,,,,,,,,,259.68754778499715,260.052451466996,260.85255771000084,260.8365703390009,,,,,,,,,,,,,,,,,,,,,,,,,,,,,,,,,,,260.8390705759957,260.85255771000084,260.85255771000084,261.3252252129969,g,1.0,0.4678784130010172,,,,,,sub-030,3,stroop_test,61.71663461401519,
,,,,69.0,9.0,5.0,,,,,,,,,,,,,blau,blue,b,1.0,b,1.0,0.4314592209993861,,,,,,,,,,5.0,9.0,69.0,5.0,261.3363186950009,,,,,,,,,,,,,,,,,261.3255547239969,262.1363455909959,262.9362036539969,262.9204131049992,,,,,,,,,,,,,,,,,,,,,,,,,,,,,,,,,,,262.92098260000057,262.9362036539969,262.9362036539969,263.3710991409971,b,1.0,0.4314592209993861,,,,,,sub-030,3,stroop_test,61.71663461401519,
,,,,70.0,10.0,5.0,,,,,,,,,,,,,rot,red,r,1.0,r,1.0,0.5976557780013536,,,,,,,,,,5.0,10.0,70.0,1.0,263.38621907999914,,,,,,,,,,,,,,,,,263.3714094399984,264.5867957800001,265.3865124570002,265.3706673639972,,,,,,,,,,,,,,,,,,,,,,,,,,,,,,,,,,,265.3737626389993,265.3865124570002,265.3865124570002,265.9876487299989,r,1.0,0.5976557780013536,,,,,,sub-030,3,stroop_test,61.71663461401519,
,,,,71.0,11.0,5.0,,,,,,,,,,,,,rot,blue,b,0.0,b,1.0,0.5979561929998454,,,,,,,,,,5.0,11.0,71.0,2.0,266.0031049649988,,,,,,,,,,,,,,,,,265.9879521529947,266.3423666279996,267.1534872929988,267.1377032119999,,,,,,,,,,,,,,,,,,,,,,,,,,,,,,,,,,,267.13827460199536,267.1534872929988,267.1534872929988,267.76525472099456,b,1.0,0.5979561929998454,,,,,,sub-030,3,stroop_test,61.71663461401519,
,,,,72.0,0.0,6.0,,,,,,,,,,,,,rot,blue,b,0.0,b,1.0,0.4573495180011377,,,,,,,,,,6.0,0.0,72.0,2.0,267.78024969800026,,,,,,,,,,,,,,,,,267.765572364995,267.8723093000008,268.6870522300014,268.6712852499986,,,,,,,,,,,,,,,,,,,,,,,,,,,,,,,,,,,268.6725345009981,268.6870522300014,268.6870522300014,269.1551160070012,b,1.0,0.4573495180011377,,,,,,sub-030,3,stroop_test,61.71663461401519,
,,,,73.0,1.0,6.0,,,,,,,,,,,,,gelb,yellow,g,1.0,g,1.0,0.3174078929951065,,,,,,,,,,6.0,1.0,73.0,11.0,269.1718935300014,,,,,,,,,,,,,,,,,269.1554417579973,270.35430632800126,271.15411052599666,271.1388389450003,,,,,,,,,,,,,,,,,,,,,,,,,,,,,,,,,,,271.1418315830015,271.15411052599666,271.15411052599666,271.48817576999863,g,1.0,0.3174078929951065,,,,,,sub-030,3,stroop_test,61.71663461401519,
,,,,74.0,2.0,6.0,,,,,,,,,,,,,gelb,red,r,0.0,r,1.0,0.354393944995536,,,,,,,,,,6.0,2.0,74.0,8.0,271.5043560119957,,,,,,,,,,,,,,,,,271.48849243799486,271.58762785900035,272.3978607359968,272.3816264310008,,,,,,,,,,,,,,,,,,,,,,,,,,,,,,,,,,,272.38205291199847,272.3978607359968,272.3978607359968,272.75579434999963,r,1.0,0.354393944995536,,,,,,sub-030,3,stroop_test,61.71663461401519,
,,,,75.0,3.0,6.0,,,,,,,,,,,,,gelb,blue,b,0.0,b,1.0,0.5255421710025985,,,,,,,,,,6.0,3.0,75.0,9.0,272.7709590719969,,,,,,,,,,,,,,,,,272.7561071309974,273.9549000740008,274.7547752959945,274.7392068189947,,,,,,,,,,,,,,,,,,,,,,,,,,,,,,,,,,,274.739775172995,274.7547752959945,274.7547752959945,275.289572720998,b,1.0,0.5255421710025985,,,,,,sub-030,3,stroop_test,61.71663461401519,
,,,,76.0,4.0,6.0,,,,,,,,,,,,,gelb,yellow,g,1.0,g,1.0,0.5789718849991914,,,,,,,,,,6.0,4.0,76.0,10.0,275.3047668559957,,,,,,,,,,,,,,,,,275.28988973800006,275.4050560100004,276.2050495309959,276.18980937200104,,,,,,,,,,,,,,,,,,,,,,,,,,,,,,,,,,,276.19039517499914,276.2050495309959,276.2050495309959,276.7905762559967,g,1.0,0.5789718849991914,,,,,,sub-030,3,stroop_test,61.71663461401519,
,,,,77.0,5.0,6.0,,,,,,,,,,,,,rot,yellow,g,0.0,g,1.0,0.450819516001502,,,,,,,,,,6.0,5.0,77.0,3.0,276.8051053870004,,,,,,,,,,,,,,,,,276.7908882569973,277.6054300499964,278.40545106499485,278.3896589020005,,,,,,,,,,,,,,,,,,,,,,,,,,,,,,,,,,,278.3927713929952,278.40545106499485,278.40545106499485,278.87402598199697,g,1.0,0.450819516001502,,,,,,sub-030,3,stroop_test,61.71663461401519,
,,,,78.0,6.0,6.0,,,,,,,,,,,,,blau,blue,b,1.0,b,1.0,0.4987876779996441,,,,,,,,,,6.0,6.0,78.0,5.0,278.888805098999,,,,,,,,,,,,,,,,,278.87434506000136,278.9887275930014,279.788747052,279.7728078069995,,,,,,,,,,,,,,,,,,,,,,,,,,,,,,,,,,,279.7752722149962,279.788747052,279.788747052,280.290428059001,b,1.0,0.4987876779996441,,,,,,sub-030,3,stroop_test,61.71663461401519,
,,,,79.0,7.0,6.0,,,,,,,,,,,,,blau,blue,b,1.0,b,1.0,0.3815622569964034,,,,,,,,,,6.0,7.0,79.0,6.0,280.30565250799555,,,,,,,,,,,,,,,,,280.2907495909967,281.10601926899835,281.9060063450015,281.8900016039988,,,,,,,,,,,,,,,,,,,,,,,,,,,,,,,,,,,281.8904312769955,281.9060063450015,281.9060063450015,282.29069567999977,b,1.0,0.3815622569964034,,,,,,sub-030,3,stroop_test,61.71663461401519,
,,,,80.0,8.0,6.0,,,,,,,,,,,,,blau,yellow,g,0.0,g,1.0,0.3603814020025311,,,,,,,,,,6.0,8.0,80.0,7.0,282.30618200499885,,,,,,,,,,,,,,,,,282.2909866409973,282.6563664369969,283.4564174209954,283.44040805799887,,,,,,,,,,,,,,,,,,,,,,,,,,,,,,,,,,,283.4410027249978,283.4564174209954,283.4564174209954,283.8243707319998,g,1.0,0.3603814020025311,,,,,,sub-030,3,stroop_test,61.71663461401519,
,,,,81.0,9.0,6.0,,,,,,,,,,,,,blau,red,r,0.0,r,1.0,0.2953224500015494,,,,,,,,,,6.0,9.0,81.0,4.0,283.8397747009949,,,,,,,,,,,,,,,,,283.8246919539961,284.6331385949961,285.44016972999816,285.4240402430005,,,,,,,,,,,,,,,,,,,,,,,,,,,,,,,,,,,285.424470508995,285.44016972999816,285.44016972999816,285.7417384099972,r,1.0,0.2953224500015494,,,,,,sub-030,3,stroop_test,61.71663461401519,
,,,,82.0,10.0,6.0,,,,,,,,,,,,,rot,red,r,1.0,r,1.0,0.3133261599941761,,,,,,,,,,6.0,10.0,82.0,1.0,285.7568213669947,,,,,,,,,,,,,,,,,285.74205644700123,286.5571750730014,287.3671837090005,287.34830320299807,,,,,,,,,,,,,,,,,,,,,,,,,,,,,,,,,,,287.3507844689957,287.3671837090005,287.3671837090005,287.6921200539946,r,1.0,0.3133261599941761,,,,,,sub-030,3,stroop_test,61.71663461401519,
,,,,83.0,11.0,6.0,,,,,,,,,,,,,rot,red,r,1.0,r,1.0,0.2980761059952783,,,,,,,,,,6.0,11.0,83.0,0.0,287.70710337299533,,,,,,,,,,,,,,,,,287.69244308499765,288.50755806099914,289.3100642270001,289.2915205190002,,,,,,,,,,,,,,,,,,,,,,,,,,,,,,,,,,,289.29210366899497,289.3100642270001,289.3100642270001,289.62563314699946,r,1.0,0.2980761059952783,,,,,,sub-030,3,stroop_test,61.71663461401519,
,,,,84.0,0.0,7.0,,,,,,,,,,,,,gelb,red,r,0.0,r,1.0,0.3186693329989793,,,,,,,,,,7.0,0.0,84.0,8.0,289.6406169740003,,,,,,,,,,,,,,,,,289.6259550969989,290.8411412109999,291.6414737649975,291.6278020690006,,,,,,,,,,,,,,,,,,,,,,,,,,,,,,,,,,,291.63067389599746,291.6414737649975,291.6414737649975,291.97610335399804,r,1.0,0.3186693329989793,,,,,,sub-030,3,stroop_test,61.71663461401519,
,,,,85.0,1.0,7.0,,,,,,,,,,,,,rot,yellow,g,0.0,g,1.0,0.3952072899992345,,,,,,,,,,7.0,1.0,85.0,3.0,291.9909731539956,,,,,,,,,,,,,,,,,291.97642525300034,292.341372431998,293.1412507049972,293.125275077,,,,,,,,,,,,,,,,,,,,,,,,,,,,,,,,,,,293.12767532699945,293.1412507049972,293.1412507049972,293.5428994269969,g,1.0,0.3952072899992345,,,,,,sub-030,3,stroop_test,61.71663461401519,
,,,,86.0,2.0,7.0,,,,,,,,,,,,,rot,red,r,1.0,r,1.0,0.5936980510014109,,,,,,,,,,7.0,2.0,86.0,1.0,293.5579029859946,,,,,,,,,,,,,,,,,293.5432363729997,294.36472926699935,295.1748940059988,295.1592097429966,,,,,,,,,,,,,,,,,,,,,,,,,,,,,,,,,,,295.15979864700057,295.1748940059988,295.1748940059988,295.7764084390001,r,1.0,0.5936980510014109,,,,,,sub-030,3,stroop_test,61.71663461401519,
,,,,87.0,3.0,7.0,,,,,,,,,,,,,blau,red,r,0.0,r,1.0,0.5359891179978149,,,,,,,,,,7.0,3.0,87.0,4.0,295.7916023959988,,,,,,,,,,,,,,,,,295.7767263889982,296.9922594969976,297.79207528099505,297.77616518699506,,,,,,,,,,,,,,,,,,,,,,,,,,,,,,,,,,,297.77929324499564,297.79207528099505,297.79207528099505,298.34420993299864,r,1.0,0.5359891179978149,,,,,,sub-030,3,stroop_test,61.71663461401519,
,,,,88.0,4.0,7.0,,,,,,,,,,,,,gelb,yellow,g,1.0,g,1.0,0.409400361997541,,,,,,,,,,7.0,4.0,88.0,11.0,298.3589161109994,,,,,,,,,,,,,,,,,298.34452893699927,298.7092540250014,299.51907747099904,299.49961116600025,,,,,,,,,,,,,,,,,,,,,,,,,,,,,,,,,,,299.5020873869944,299.51907747099904,299.51907747099904,299.9441116589951,g,1.0,0.409400361997541,,,,,,sub-030,3,stroop_test,61.71663461401519,
,,,,89.0,5.0,7.0,,,,,,,,,,,,,blau,yellow,g,0.0,r,0.0,0.3711068429984152,,,,,,,,,,7.0,5.0,89.0,7.0,299.9591112929993,,,,,,,,,,,,,,,,,299.94443386200146,300.309195996997,301.1091552500002,301.0937005329979,,,,,,,,,,,,,,,,,,,,,,,,,,,,,,,,,,,301.0966275079991,301.1091552500002,301.1091552500002,301.5000928679947,r,0.0,0.3711068429984152,,,,,,sub-030,3,stroop_test,61.71663461401519,
,,,,90.0,6.0,7.0,,,,,,,,,,,,,rot,blue,b,0.0,b,1.0,0.5708194780017948,,,,,,,,,,7.0,6.0,90.0,2.0,301.5189091189968,,,,,,,,,,,,,,,,,301.5004127209977,302.3095662220003,303.10954742899776,303.09396309599833,,,,,,,,,,,,,,,,,,,,,,,,,,,,,,,,,,,303.0970043779962,303.10954742899776,303.10954742899776,303.6948063300006,b,1.0,0.5708194780017948,,,,,,sub-030,3,stroop_test,61.71663461401519,
,,,,91.0,7.0,7.0,,,,,,,,,,,,,gelb,blue,b,0.0,b,1.0,0.4102379289979581,,,,,,,,,,7.0,7.0,91.0,9.0,303.70974919199944,,,,,,,,,,,,,,,,,303.6951395360011,304.50277387399547,305.3101018609959,305.29414018199896,,,,,,,,,,,,,,,,,,,,,,,,,,,,,,,,,,,305.29660330800107,305.3101018609959,305.3101018609959,305.7281497410004,b,1.0,0.4102379289979581,,,,,,sub-030,3,stroop_test,61.71663461401519,
,,,,92.0,8.0,7.0,,,,,,,,,,,,,rot,red,r,1.0,r,1.0,0.5612293380036135,,,,,,,,,,7.0,8.0,92.0,0.0,305.7435139539957,,,,,,,,,,,,,,,,,305.7284890059964,306.92734605199803,307.7272401049995,307.7113833889962,,,,,,,,,,,,,,,,,,,,,,,,,,,,,,,,,,,307.7156468579997,307.7272401049995,307.7272401049995,308.29540086599445,r,1.0,0.5612293380036135,,,,,,sub-030,3,stroop_test,61.71663461401519,
,,,,93.0,9.0,7.0,,,,,,,,,,,,,blau,blue,b,1.0,b,1.0,0.4572021370040602,,,,,,,,,,7.0,9.0,93.0,6.0,308.310633987996,,,,,,,,,,,,,,,,,308.2957376400009,309.50250210899685,310.31078133700066,310.29501364799944,,,,,,,,,,,,,,,,,,,,,,,,,,,,,,,,,,,310.29816903499886,310.31078133700066,310.31078133700066,310.7789983729963,b,1.0,0.4572021370040602,,,,,,sub-030,3,stroop_test,61.71663461401519,
,,,,94.0,10.0,7.0,,,,,,,,,,,,,blau,blue,b,1.0,b,1.0,0.5220673209987581,,,,,,,,,,7.0,10.0,94.0,5.0,310.7941754079948,,,,,,,,,,,,,,,,,310.77931511999486,310.89441402100056,311.6942949709992,311.6786353860007,,,,,,,,,,,,,,,,,,,,,,,,,,,,,,,,,,,311.67905423799675,311.6942949709992,311.6942949709992,312.22924594699725,b,1.0,0.5220673209987581,,,,,,sub-030,3,stroop_test,61.71663461401519,
,,,,95.0,11.0,7.0,,,,,,,,,,,,,gelb,yellow,g,1.0,g,1.0,0.4127452530010487,,,,,,,,,,7.0,11.0,95.0,10.0,312.24454225500085,,,,,,,,,,,,,,,,,312.2295658660005,312.3444437739963,313.1548600319948,313.13861666199955,,,,,,,,,,,,,,,,,,,,,,,,,,,,,,,,,,,313.141116204999,313.1548600319948,313.1548600319948,313.5794111319992,g,1.0,0.4127452530010487,,,,,,sub-030,3,stroop_test,61.71663461401519,
,,,,96.0,0.0,8.0,,,,,,,,,,,,,blau,blue,b,1.0,b,1.0,0.5094144899994717,,,,,,,,,,8.0,0.0,96.0,6.0,313.5946188710004,,,,,,,,,,,,,,,,,313.57973204899463,314.37846457900014,315.17833207199874,315.16284818400163,,,,,,,,,,,,,,,,,,,,,,,,,,,,,,,,,,,315.1658367229975,315.17833207199874,315.17833207199874,315.69699898600084,b,1.0,0.5094144899994717,,,,,,sub-030,3,stroop_test,61.71663461401519,
,,,,97.0,1.0,8.0,,,,,,,,,,,,,rot,blue,b,0.0,b,1.0,0.3916186030037352,,,,,,,,,,8.0,1.0,97.0,2.0,315.7118879729969,,,,,,,,,,,,,,,,,315.69731891500123,316.9122815390001,317.7120694699988,317.6968759589945,,,,,,,,,,,,,,,,,,,,,,,,,,,,,,,,,,,317.7000937310004,317.7120694699988,317.7120694699988,318.10693440999603,b,1.0,0.3916186030037352,,,,,,sub-030,3,stroop_test,61.71663461401519,
,,,,98.0,2.0,8.0,,,,,,,,,,,,,blau,yellow,g,0.0,g,1.0,0.5039682520000497,,,,,,,,,,8.0,2.0,98.0,7.0,318.12220273899584,,,,,,,,,,,,,,,,,318.1072336649959,318.9124360069982,319.71255538999685,319.69658167799935,,,,,,,,,,,,,,,,,,,,,,,,,,,,,,,,,,,319.6990389519997,319.71255538999685,319.71255538999685,320.23081304499647,g,1.0,0.5039682520000497,,,,,,sub-030,3,stroop_test,61.71663461401519,
,,,,99.0,3.0,8.0,,,,,,,,,,,,,gelb,blue,b,0.0,b,1.0,0.5954408809993765,,,,,,,,,,8.0,3.0,99.0,9.0,320.2460389119952,,,,,,,,,,,,,,,,,320.23114494799665,320.5963689669952,321.39601731499715,321.38028023999505,,,,,,,,,,,,,,,,,,,,,,,,,,,,,,,,,,,321.38320612900134,321.39601731499715,321.39601731499715,321.9978644549992,b,1.0,0.5954408809993765,,,,,,sub-030,3,stroop_test,61.71663461401519,
,,,,100.0,4.0,8.0,,,,,,,,,,,,,rot,red,r,1.0,r,1.0,0.5670882819977123,,,,,,,,,,8.0,4.0,100.0,0.0,322.0128550839945,,,,,,,,,,,,,,,,,321.9981854639991,322.1130088930004,322.91287191899755,322.8974023299961,,,,,,,,,,,,,,,,,,,,,,,,,,,,,,,,,,,322.90100253499986,322.91287191899755,322.91287191899755,323.48152400099934,r,1.0,0.5670882819977123,,,,,,sub-030,3,stroop_test,61.71663461401519,
,,,,101.0,5.0,8.0,,,,,,,,,,,,,blau,blue,b,1.0,b,1.0,0.4879925870045554,,,,,,,,,,8.0,5.0,101.0,5.0,323.49610066699825,,,,,,,,,,,,,,,,,323.4818950129993,324.6965512030001,325.496738681999,325.4805801019975,,,,,,,,,,,,,,,,,,,,,,,,,,,,,,,,,,,325.4829907759995,325.496738681999,325.496738681999,325.99861891199544,b,1.0,0.4879925870045554,,,,,,sub-030,3,stroop_test,61.71663461401519,
,,,,102.0,6.0,8.0,,,,,,,,,,,,,gelb,yellow,g,1.0,g,1.0,1.164242243001354,,,,,,,,,,8.0,6.0,102.0,10.0,326.0136068369975,,,,,,,,,,,,,,,,,325.9989346689981,326.3638718459988,327.1635881600014,327.1478497969947,,,,,,,,,,,,,,,,,,,,,,,,,,,,,,,,,,,327.1509877290009,327.1635881600014,327.1635881600014,328.33210852299817,g,1.0,1.164242243001354,,,,,,sub-030,3,stroop_test,61.71663461401519,
,,,,103.0,7.0,8.0,,,,,,,,,,,,,blau,red,r,0.0,r,1.0,0.819878547998087,,,,,,,,,,8.0,7.0,103.0,4.0,328.3473490539982,,,,,,,,,,,,,,,,,328.332439865997,329.1476130439987,329.9476203279992,329.9318814829967,,,,,,,,,,,,,,,,,,,,,,,,,,,,,,,,,,,329.93488374899607,329.9476203279992,329.9476203279992,330.78263593500014,r,1.0,0.819878547998087,,,,,,sub-030,3,stroop_test,61.71663461401519,
,,,,104.0,8.0,8.0,,,,,,,,,,,,,rot,red,r,1.0,r,1.0,0.3536798229979467,,,,,,,,,,8.0,8.0,104.0,1.0,330.797531846998,,,,,,,,,,,,,,,,,330.7829653709996,331.9982747260001,332.79794453999784,332.7825031319953,,,,,,,,,,,,,,,,,,,,,,,,,,,,,,,,,,,332.78567303699674,332.79794453999784,332.79794453999784,333.16056006299914,r,1.0,0.3536798229979467,,,,,,sub-030,3,stroop_test,61.71663461401519,
,,,,105.0,9.0,8.0,,,,,,,,,,,,,rot,yellow,g,0.0,g,1.0,0.7564172250058618,,,,,,,,,,8.0,9.0,105.0,3.0,333.17480510300084,,,,,,,,,,,,,,,,,333.16097739299585,333.5146102439976,334.31508973999735,334.2989272759951,,,,,,,,,,,,,,,,,,,,,,,,,,,,,,,,,,,334.2993646569957,334.31508973999735,334.31508973999735,335.0834148319991,g,1.0,0.7564172250058618,,,,,,sub-030,3,stroop_test,61.71663461401519,
,,,,106.0,10.0,8.0,,,,,,,,,,,,,gelb,yellow,g,1.0,g,1.0,0.2993368110037409,,,,,,,,,,8.0,10.0,106.0,11.0,335.10348836900084,,,,,,,,,,,,,,,,,335.0837475160006,335.8989894019978,336.70892926099623,336.6912477629958,,,,,,,,,,,,,,,,,,,,,,,,,,,,,,,,,,,336.6938647229981,336.70892926099623,336.70892926099623,337.0172766959949,g,1.0,0.2993368110037409,,,,,,sub-030,3,stroop_test,61.71663461401519,
,,,,107.0,11.0,8.0,,,,,,,,,,,,,gelb,red,r,0.0,r,1.0,0.7120595519954804,,,,,,,,,,8.0,11.0,107.0,8.0,337.03226270899904,,,,,,,,,,,,,,,,,337.0175947839962,337.38262504799786,338.1923839719966,338.1743373450008,,,,,,,,,,,,,,,,,,,,,,,,,,,,,,,,,,,338.174766352,338.1923839719966,338.1923839719966,338.917285042,r,1.0,0.7120595519954804,,,,,,sub-030,3,stroop_test,61.71663461401519,
,,,,108.0,0.0,9.0,,,,,,,,,,,,,blau,blue,b,1.0,b,1.0,0.4205620439970516,,,,,,,,,,9.0,0.0,108.0,6.0,338.93246704399644,,,,,,,,,,,,,,,,,338.9176017089994,340.1163555079984,340.9159517669977,340.9003561439968,,,,,,,,,,,,,,,,,,,,,,,,,,,,,,,,,,,340.90326001899666,340.9159517669977,340.9159517669977,341.3509998019945,b,1.0,0.4205620439970516,,,,,,sub-030,3,stroop_test,61.71663461401519,
,,,,109.0,1.0,9.0,,,,,,,,,,,,,rot,blue,b,0.0,b,1.0,0.3819345960000646,,,,,,,,,,9.0,1.0,109.0,2.0,341.36638461899565,,,,,,,,,,,,,,,,,341.3513269749965,341.46626323999953,342.26656406500115,342.250968139997,,,,,,,,,,,,,,,,,,,,,,,,,,,,,,,,,,,342.2540338559993,342.26656406500115,342.26656406500115,342.6514768179986,b,1.0,0.3819345960000646,,,,,,sub-030,3,stroop_test,61.71663461401519,
,,,,110.0,2.0,9.0,,,,,,,,,,,,,gelb,yellow,g,1.0,g,1.0,0.4620533809938933,,,,,,,,,,9.0,2.0,110.0,11.0,342.666583487,,,,,,,,,,,,,,,,,342.65180066199537,343.01654831099586,343.8266174579985,343.8104134719979,,,,,,,,,,,,,,,,,,,,,,,,,,,,,,,,,,,343.81294470599823,343.8266174579985,343.8266174579985,344.3013732289983,g,1.0,0.4620533809938933,,,,,,sub-030,3,stroop_test,61.71663461401519,
,,,,111.0,3.0,9.0,,,,,,,,,,,,,gelb,blue,b,0.0,b,1.0,0.4134285949985496,,,,,,,,,,9.0,3.0,111.0,9.0,344.3166090059967,,,,,,,,,,,,,,,,,344.301704947,344.416558152996,345.22696954300045,345.2089093879986,,,,,,,,,,,,,,,,,,,,,,,,,,,,,,,,,,,345.209483118997,345.22696954300045,345.22696954300045,345.6516596090005,b,1.0,0.4134285949985496,,,,,,sub-030,3,stroop_test,61.71663461401519,
,,,,112.0,4.0,9.0,,,,,,,,,,,,,rot,red,r,1.0,r,1.0,0.4129270650009857,,,,,,,,,,9.0,4.0,112.0,0.0,345.6667565799944,,,,,,,,,,,,,,,,,345.6519767869977,346.8716372439958,347.6838362720009,347.66802093300066,,,,,,,,,,,,,,,,,,,,,,,,,,,,,,,,,,,347.6709686670001,347.6838362720009,347.6838362720009,348.1028232690005,r,1.0,0.4129270650009857,,,,,,sub-030,3,stroop_test,61.71663461401519,
,,,,113.0,5.0,9.0,,,,,,,,,,,,,rot,red,r,1.0,r,1.0,0.3503350779938046,,,,,,,,,,9.0,5.0,113.0,1.0,348.11713637199864,,,,,,,,,,,,,,,,,348.1031413199962,348.2171276299996,349.0176028119968,349.001821687998,,,,,,,,,,,,,,,,,,,,,,,,,,,,,,,,,,,349.0022492979988,349.0176028119968,349.0176028119968,349.3694008569946,r,1.0,0.3503350779938046,,,,,,sub-030,3,stroop_test,61.71663461401519,
,,,,114.0,6.0,9.0,,,,,,,,,,,,,blau,yellow,g,0.0,g,1.0,0.7519065009983024,,,,,,,,,,9.0,6.0,114.0,7.0,349.38440651199926,,,,,,,,,,,,,,,,,349.36971724299656,350.1846236229976,350.9843967419947,350.96877975299867,,,,,,,,,,,,,,,,,,,,,,,,,,,,,,,,,,,350.9712788819961,350.9843967419947,350.9843967419947,351.7429571499961,g,1.0,0.7519065009983024,,,,,,sub-030,3,stroop_test,61.71663461401519,
,,,,115.0,7.0,9.0,,,,,,,,,,,,,gelb,yellow,g,1.0,g,1.0,0.3446283100056462,,,,,,,,,,9.0,7.0,115.0,10.0,351.7611804759945,,,,,,,,,,,,,,,,,351.7432965179978,352.551746582998,353.3516162199958,353.3358770669947,,,,,,,,,,,,,,,,,,,,,,,,,,,,,,,,,,,353.3390871090014,353.3516162199958,353.3516162199958,353.7030085639999,g,1.0,0.3446283100056462,,,,,,sub-030,3,stroop_test,61.71663461401519,
,,,,116.0,8.0,9.0,,,,,,,,,,,,,gelb,red,r,0.0,r,1.0,1.4419350110038067,,,,,,,,,,9.0,8.0,116.0,8.0,353.7223138260015,,,,,,,,,,,,,,,,,353.7033285180005,354.9117597799996,355.7184634239966,355.70283845099766,,,,,,,,,,,,,,,,,,,,,,,,,,,,,,,,,,,355.70341870099946,355.7184634239966,355.7184634239966,357.170058179996,r,1.0,1.4419350110038067,,,,,,sub-030,3,stroop_test,61.71663461401519,
,,,,117.0,9.0,9.0,,,,,,,,,,,,,blau,red,r,0.0,r,1.0,0.402597111002251,,,,,,,,,,9.0,9.0,117.0,4.0,357.1855304799974,,,,,,,,,,,,,,,,,357.17038205899735,357.28539707299933,358.08552983900154,358.069954984996,,,,,,,,,,,,,,,,,,,,,,,,,,,,,,,,,,,358.0735262980015,358.08552983900154,358.08552983900154,358.5040591539946,r,1.0,0.402597111002251,,,,,,sub-030,3,stroop_test,61.71663461401519,
,,,,118.0,10.0,9.0,,,,,,,,,,,,,rot,yellow,g,0.0,g,1.0,0.9522891730011906,,,,,,,,,,9.0,10.0,118.0,3.0,358.5189534279998,,,,,,,,,,,,,,,,,358.50438546599617,359.71941624100145,360.51923981599975,360.5034521720008,,,,,,,,,,,,,,,,,,,,,,,,,,,,,,,,,,,360.5059036879975,360.51923981599975,360.51923981599975,361.487802949996,g,1.0,0.9522891730011906,,,,,,sub-030,3,stroop_test,61.71663461401519,
,,,,119.0,11.0,9.0,,,,,,,,,,,,,blau,blue,b,1.0,b,1.0,0.5385693219941459,,,,,,,,,,9.0,11.0,119.0,5.0,361.5029915249979,,,,,,,,,,,,,,,,,361.488125803,361.8453792829969,362.6530606949964,362.6369101749952,,,,,,,,,,,,,,,,,,,,,,,,,,,,,,,,,,,362.63937048599473,362.6530606949964,362.6530606949964,363.2045920689998,b,1.0,0.5385693219941459,,,,,,sub-030,3,stroop_test,61.71663461401519,
,,,,,,,,,,,,,,,,,,,,,,,,,,,,,,,,,,,,,,,,,,,,,,,,,,,,,,,,,,,,,,,,,,,,,,,,,,,,,,,,,,,,,,,,,,,,,,,,,,,,,,363.2047525719972,363.2197202419993,368.2210822669949,368.205151958995,sub-030,3,stroop_test,61.71663461401519,
