wordCTK,colorCTK,corrAnsCTK,congruentCTK,thisN,thisTrialN,thisRepN,keyResp_CTK.keys,keyResp_CTK.corr,keyResp_CTK.rt,keyResp_CTK.duration,wordPractice,colorPractice,corrAnsPractice,congruentPractice,respPractice.keys,respPractice.corr,respPractice.rt,respPractice.duration,word,color,corrAns,congruent,keyResp_test_run.keys,keyResp_test_run.corr,keyResp_test_run.rt,keyResp_test_run.duration,trials_CTK.thisRepN,trials_CTK.thisTrialN,trials_CTK.thisN,trials_CTK.thisIndex,trials_practice.thisRepN,trials_practice.thisTrialN,trials_practice.thisN,trials_practice.thisIndex,trials_test.thisRepN,trials_test.thisTrialN,trials_test.thisN,trials_test.thisIndex,thisRow.t,notes,instruction.started,instr_text.started,instr_image.started,instr_resp.started,instruction.stopped,instr_resp.keys,instr_resp.rt,instr_resp.duration,instr_color_to_key.started,instr_ctk.started,resp_ctk.started,instr_color_to_key.stopped,resp_ctk.keys,resp_ctk.rt,resp_ctk.duration,ITI.started,fixcross.started,fixcross.stopped,ITI.stopped,color_to_key_run.started,stimulus_CTK.started,keyResp_CTK.started,color_to_key_run.stopped,trials_CTK.keyResp_CTK.keys,trials_CTK.keyResp_CTK.corr,trials_CTK.keyResp_CTK.rt,trials_CTK.keyResp_CTK.duration,instr_practice.started,instr_practice_text.started,instr_practice_resp.started,instr_practice.stopped,instr_practice_resp.keys,instr_practice_resp.rt,instr_practice_resp.duration,practice_run.started,stimulus_practice.started,respPractice.started,practice_run.stopped,trials_practice.respPractice.keys,trials_practice.respPractice.corr,trials_practice.respPractice.rt,trials_practice.respPractice.duration,feedback.started,textFeedback.started,feedback.stopped,textFeedback.stopped,instr_test.started,instr_test_text.started,instr_test_resp.started,instr_test.stopped,instr_test_resp.keys,instr_test_resp.rt,instr_test_resp.duration,test_run.started,stimulus_test_run.started,keyResp_test_run.started,test_run.stopped,trials_test.keyResp_test_run.keys,trials_test.keyResp_test_run.corr,trials_test.keyResp_test_run.rt,trials_test.keyResp_test_run.duration,goodbye.started,textGoodbye.started,participant,session,expName,frameRate,Unnamed: 111
,,,,,,,,,,,,,,,,,,,,,,,,,,,,,,,,,,,,,,,,,0.0018764999999802,0.015299900000059,0.015299900000059,0.015299900000059,11.081164899999976,space,11.051300800000035,,,,,,,,,,,,,,,,,,,,,,,,,,,,,,,,,,,,,,,,,,,,,,,,,,,,,,,,,sub-225,1.0,stroop_test,60.12234898018703,
,,,,,,,,,,,,,,,,,,,,,,,,,,,,,,,,,,,,,,,,,,,,,,,,,11.081202500000018,11.095396700000038,11.095396700000038,15.059943900000007,space,3.963023899999939,,,,,,,,,,,,,,,,,,,,,,,,,,,,,,,,,,,,,,,,,,,,,,,,,,sub-225,1.0,stroop_test,60.12234898018703,
test,yellow,g,1.0,0.0,0.0,0.0,g,1.0,1.06301029999986,,,,,,,,,,,,,,,,,,0.0,0.0,0.0,1.0,,,,,,,,,15.07711889999996,,,,,,,,,,,,,,,,,15.074873699999898,15.424837600000046,16.224016399999982,16.207628599999907,16.212761499999942,16.224016399999982,16.224016399999982,17.308186400000068,g,1.0,1.06301029999986,,,,,,,,,,,,,,,,,,,,,,,,,,,,,,,,,,,,,,sub-225,1.0,stroop_test,60.12234898018703,
test,blue,b,1.0,1.0,1.0,0.0,b,1.0,0.989688200000046,,,,,,,,,,,,,,,,,,0.0,1.0,1.0,2.0,,,,,,,,,17.31121189999999,,,,,,,,,,,,,,,,,17.308487499999956,18.122397300000102,18.92178949999993,18.905494699999963,18.905936699999984,18.92178949999993,18.92178949999993,19.921201599999904,b,1.0,0.989688200000046,,,,,,,,,,,,,,,,,,,,,,,,,,,,,,,,,,,,,,sub-225,1.0,stroop_test,60.12234898018703,
test,red,r,1.0,2.0,2.0,0.0,r,1.0,0.7245448000001034,,,,,,,,,,,,,,,,,,0.0,2.0,2.0,0.0,,,,,,,,,19.937382099999923,,,,,,,,,,,,,,,,,19.921353499999896,20.0206697000001,20.83648510000012,20.82051320000005,20.821002200000063,20.83648510000012,20.83648510000012,21.57017850000011,r,1.0,0.7245448000001034,,,,,,,,,,,,,,,,,,,,,,,,,,,,,,,,,,,,,,sub-225,1.0,stroop_test,60.12234898018703,
test,red,r,1.0,3.0,0.0,1.0,r,1.0,0.6769495000000916,,,,,,,,,,,,,,,,,,1.0,0.0,3.0,0.0,,,,,,,,,21.58569239999997,,,,,,,,,,,,,,,,,21.570543999999927,22.385107999999946,23.184240600000063,23.167992800000093,23.168196800000032,23.184240600000063,23.184240600000063,23.891154200000077,r,1.0,0.6769495000000916,,,,,,,,,,,,,,,,,,,,,,,,,,,,,,,,,,,,,,sub-225,1.0,stroop_test,60.12234898018703,
test,yellow,g,1.0,4.0,1.0,1.0,g,1.0,0.7020880000000034,,,,,,,,,,,,,,,,,,1.0,1.0,4.0,1.0,,,,,,,,,23.894057799999928,,,,,,,,,,,,,,,,,23.891456999999946,24.24984599999993,25.04922609999994,25.0331999,25.033640800000057,25.04922609999994,25.04922609999994,25.78200480000009,g,1.0,0.7020880000000034,,,,,,,,,,,,,,,,,,,,,,,,,,,,,,,,,,,,,,sub-225,1.0,stroop_test,60.12234898018703,
test,blue,b,1.0,5.0,2.0,1.0,b,1.0,0.4439952999998695,,,,,,,,,,,,,,,,,,1.0,2.0,5.0,2.0,,,,,,,,,25.78481899999997,,,,,,,,,,,,,,,,,25.782285,26.597508600000083,27.39688369999999,27.38094799999999,27.38120260000005,27.39688369999999,27.39688369999999,27.8469912999999,b,1.0,0.4439952999998695,,,,,,,,,,,,,,,,,,,,,,,,,,,,,,,,,,,,,,sub-225,1.0,stroop_test,60.12234898018703,
test,blue,b,1.0,6.0,0.0,2.0,b,1.0,0.5666367000001173,,,,,,,,,,,,,,,,,,2.0,0.0,6.0,2.0,,,,,,,,,27.86313689999997,,,,,,,,,,,,,,,,,27.84716219999996,27.9464031,28.74580089999995,28.729651099999955,28.730055400000083,28.74580089999995,28.74580089999995,29.32973240000001,b,1.0,0.5666367000001173,,,,,,,,,,,,,,,,,,,,,,,,,,,,,,,,,,,,,,sub-225,1.0,stroop_test,60.12234898018703,
test,red,r,1.0,7.0,1.0,2.0,r,1.0,0.5243863000000601,,,,,,,,,,,,,,,,,,2.0,1.0,7.0,0.0,,,,,,,,,29.34485680000012,,,,,,,,,,,,,,,,,29.33008930000005,29.44503899999995,30.244420900000023,30.22811930000012,30.228438000000097,30.244420900000023,30.244420900000023,30.80151180000007,r,1.0,0.5243863000000601,,,,,,,,,,,,,,,,,,,,,,,,,,,,,,,,,,,,,,sub-225,1.0,stroop_test,60.12234898018703,
test,yellow,g,1.0,8.0,2.0,2.0,g,1.0,0.3000377000000753,,,,,,,,,,,,,,,,,,2.0,2.0,8.0,1.0,,,,,,,,,30.803507900000117,,,,,,,,,,,,,,,,,30.801682100000107,30.91045450000001,31.72611129999996,31.71057440000004,31.7110424,31.72611129999996,31.72611129999996,32.04333040000006,g,1.0,0.3000377000000753,,,,,,,,,,,,,,,,,,,,,,,,,,,,,,,,,,,,,,sub-225,1.0,stroop_test,60.12234898018703,
test,yellow,g,1.0,9.0,0.0,3.0,g,1.0,0.5676686999997855,,,,,,,,,,,,,,,,,,3.0,0.0,9.0,1.0,,,,,,,,,32.059190700000045,,,,,,,,,,,,,,,,,32.0436251000001,32.85838839999997,33.65773379999996,33.64192389999994,33.642393600000105,33.65773379999996,33.65773379999996,34.242937900000015,g,1.0,0.5676686999997855,,,,,,,,,,,,,,,,,,,,,,,,,,,,,,,,,,,,,,sub-225,1.0,stroop_test,60.12234898018703,
test,blue,b,1.0,10.0,1.0,3.0,r,0.0,0.6437267999999676,,,,,,,,,,,,,,,,,,3.0,1.0,10.0,2.0,,,,,,,,,34.25714689999995,,,,,,,,,,,,,,,,,34.243240100000094,34.606788800000004,35.40600339999992,35.38953910000009,35.38976750000006,35.40600339999992,35.40600339999992,36.05725350000012,r,0.0,0.6437267999999676,,,,,,,,,,,,,,,,,,,,,,,,,,,,,,,,,,,,,,sub-225,1.0,stroop_test,60.12234898018703,
test,red,r,1.0,11.0,2.0,3.0,r,1.0,0.4346559000000525,,,,,,,,,,,,,,,,,,3.0,2.0,11.0,0.0,,,,,,,,,36.07223619999991,,,,,,,,,,,,,,,,,36.05766259999996,36.42188329999999,37.2210192,37.20500119999997,37.20519300000001,37.2210192,37.2210192,37.67131829999994,r,1.0,0.4346559000000525,,,,,,,,,,,,,,,,,,,,,,,,,,,,,,,,,,,,,,sub-225,1.0,stroop_test,60.12234898018703,
,,,,,,,,,,,,,,,,,,,,,,,,,,,,,,,,,,,,,,,,,,,,,,,,,,,,,,,,,,,,,,,,,,,,37.67139259999999,37.68754160000003,37.68754160000003,39.75265740000009,space,2.059669999999869,,,,,,,,,,,,,,,,,,,,,,,,,,,,,,,sub-225,1.0,stroop_test,60.12234898018703,
,,,,0.0,0.0,0.0,,,,,blau,yellow,g,0.0,g,1.0,1.0175654999998187,,,,,,,,,,,,,,0.0,0.0,0.0,7.0,,,,,39.76871189999997,,,,,,,,,,,,,,,,,39.76020749999998,39.85200570000006,40.65117609999993,40.63507400000003,,,,,,,,,,,,,,,,40.6425084,40.65117609999993,40.65117609999993,41.68484830000011,g,1.0,1.0175654999998187,,41.6929462999999,41.700241400000095,42.69921,,,,,,,,,,,,,,,,,,,sub-225,1.0,stroop_test,60.12234898018703,
,,,,1.0,1.0,0.0,,,,,blau,blue,b,1.0,b,1.0,0.5445287000000008,,,,,,,,,,,,,,0.0,1.0,1.0,6.0,,,,,42.71591250000006,,,,,,,,,,,,,,,,,42.69938400000001,43.04884119999997,43.8480806,43.83200609999994,,,,,,,,,,,,,,,,43.83244119999995,43.8480806,43.8480806,44.398500600000034,b,1.0,0.5445287000000008,,44.39872070000001,44.41451499999994,45.413463999999976,,,,,,,,,,,,,,,,,,,sub-225,1.0,stroop_test,60.12234898018703,
,,,,2.0,2.0,0.0,,,,,gelb,blue,b,0.0,b,1.0,0.679256099999975,,,,,,,,,,,,,,0.0,2.0,2.0,9.0,,,,,45.42985990000011,,,,,,,,,,,,,,,,,45.41377590000002,46.6123841000001,47.41161770000008,47.3956055000001,,,,,,,,,,,,,,,,47.39930709999999,47.41161770000008,47.41161770000008,48.094843399999945,b,1.0,0.679256099999975,,48.095134500000086,48.11078399999997,49.09348640000008,49.10994660000006,,,,,,,,,,,,,,,,,,sub-225,1.0,stroop_test,60.12234898018703,
,,,,3.0,3.0,0.0,,,,,gelb,red,r,0.0,r,1.0,0.7732994999998937,,,,,,,,,,,,,,0.0,3.0,3.0,8.0,,,,,49.10994660000006,,,,,,,,,,,,,,,,,49.09366249999994,49.21017290000009,50.00924039999995,49.993256799999926,,,,,,,,,,,,,,,,49.993563400000085,50.00924039999995,50.00924039999995,50.792637700000114,r,1.0,0.7732994999998937,,50.79297479999991,50.80853759999991,51.8075045999999,,,,,,,,,,,,,,,,,,,sub-225,1.0,stroop_test,60.12234898018703,
,,,,4.0,4.0,0.0,,,,,blau,red,r,0.0,g,0.0,0.8843474000000242,,,,,,,,,,,,,,0.0,4.0,4.0,4.0,,,,,51.82389349999994,,,,,,,,,,,,,,,,,51.80786259999991,52.60666489999994,53.405846599999904,53.39008409999997,,,,,,,,,,,,,,,,53.392527199999904,53.405846599999904,53.405846599999904,54.30603790000009,g,0.0,0.8843474000000242,,54.30928410000001,54.32155609999995,55.30538729999989,55.32072169999992,,,,,,,,,,,,,,,,,,sub-225,1.0,stroop_test,60.12234898018703,
,,,,5.0,5.0,0.0,,,,,rot,red,r,1.0,r,1.0,0.687213699999802,,,,,,,,,,,,,,0.0,5.0,5.0,0.0,,,,,55.32072169999992,,,,,,,,,,,,,,,,,55.30596420000006,56.12011050000001,56.91945009999995,56.90344410000012,,,,,,,,,,,,,,,,56.90611100000001,56.91945009999995,56.91945009999995,57.61967329999993,r,1.0,0.687213699999802,,57.62286640000002,57.6353246000001,58.61866699999996,58.63462980000008,,,,,,,,,,,,,,,,,,sub-225,1.0,stroop_test,60.12234898018703,
,,,,6.0,6.0,0.0,,,,,rot,red,r,1.0,r,1.0,0.6484599000000344,,,,,,,,,,,,,,0.0,6.0,6.0,1.0,,,,,58.63462980000008,,,,,,,,,,,,,,,,,58.61897649999992,59.83312479999995,60.63251119999995,60.61609109999995,,,,,,,,,,,,,,,,60.616285999999945,60.63251119999995,60.63251119999995,61.28409069999998,r,1.0,0.6484599000000344,,61.28472779999993,61.298741500000006,62.29769820000001,,,,,,,,,,,,,,,,,,,sub-225,1.0,stroop_test,60.12234898018703,
,,,,7.0,7.0,0.0,,,,,rot,blue,b,0.0,b,1.0,0.8880163999999695,,,,,,,,,,,,,,0.0,7.0,7.0,2.0,,,,,62.31410669999991,,,,,,,,,,,,,,,,,62.2979150000001,63.09677579999993,63.8960419,63.87997810000002,,,,,,,,,,,,,,,,63.88018340000008,63.8960419,63.8960419,64.7957555999999,b,1.0,0.8880163999999695,,64.79601109999999,64.81196219999993,65.79472499999997,65.8108221,,,,,,,,,,,,,,,,,,sub-225,1.0,stroop_test,60.12234898018703,
,,,,8.0,8.0,0.0,,,,,gelb,yellow,g,1.0,g,1.0,0.6919049000000541,,,,,,,,,,,,,,0.0,8.0,8.0,10.0,,,,,65.8108221,,,,,,,,,,,,,,,,,65.79489110000009,65.91095949999999,66.71027520000007,66.69424709999998,,,,,,,,,,,,,,,,66.69701620000001,66.71027520000007,66.71027520000007,67.41054220000001,g,1.0,0.6919049000000541,,67.4109805999999,67.42627620000007,68.4090768000001,68.42508380000004,,,,,,,,,,,,,,,,,,sub-225,1.0,stroop_test,60.12234898018703,
,,,,9.0,9.0,0.0,,,,,blau,blue,b,1.0,b,1.0,0.6701367000000573,,,,,,,,,,,,,,0.0,9.0,9.0,5.0,,,,,68.42508380000004,,,,,,,,,,,,,,,,,68.40922180000007,69.22458699999993,70.02407080000012,70.0077116,,,,,,,,,,,,,,,,70.01054010000007,70.02407080000012,70.02407080000012,70.70723980000002,b,1.0,0.6701367000000573,,70.70776819999992,70.72324299999991,71.7064221999999,71.72228739999991,,,,,,,,,,,,,,,,,,sub-225,1.0,stroop_test,60.12234898018703,
,,,,10.0,10.0,0.0,,,,,gelb,yellow,g,1.0,g,1.0,1.115721500000063,,,,,,,,,,,,,,0.0,10.0,10.0,11.0,,,,,71.72228739999991,,,,,,,,,,,,,,,,,71.7067743,72.5214238000001,73.32066789999999,73.30466010000009,,,,,,,,,,,,,,,,73.3075659000001,73.32066789999999,73.32066789999999,74.45455930000003,g,1.0,1.115721500000063,,74.45499309999991,74.45839180000007,75.45237739999993,75.46862770000007,,,,,,,,,,,,,,,,,,sub-225,1.0,stroop_test,60.12234898018703,
,,,,11.0,11.0,0.0,,,,,rot,yellow,g,0.0,r,0.0,0.9149565000000166,,,,,,,,,,,,,,0.0,11.0,11.0,3.0,,,,,75.46862770000007,,,,,,,,,,,,,,,,,75.45252600000003,75.81843660000004,76.61752419999993,76.60183239999992,,,,,,,,,,,,,,,,76.60480400000006,76.61752419999993,76.61752419999993,77.54221920000009,r,0.0,0.9149565000000166,,77.5459006000001,77.55057179999994,78.5492478000001,,,,,,,,,,,,,,,,,,,sub-225,1.0,stroop_test,60.12234898018703,
,,,,12.0,0.0,1.0,,,,,gelb,yellow,g,1.0,g,1.0,0.5700813999999355,,,,,,,,,,,,,,1.0,0.0,12.0,10.0,,,,,78.56569330000002,,,,,,,,,,,,,,,,,78.54955010000003,78.8986605,79.69805550000001,79.68157640000004,,,,,,,,,,,,,,,,79.68290210000009,79.69805550000001,79.69805550000001,80.2820236,g,1.0,0.5700813999999355,,80.28659070000003,80.29745720000005,81.29671830000007,,,,,,,,,,,,,,,,,,,sub-225,1.0,stroop_test,60.12234898018703,
,,,,13.0,1.0,1.0,,,,,rot,yellow,g,0.0,r,0.0,0.8077209000000494,,,,,,,,,,,,,,1.0,1.0,13.0,3.0,,,,,81.31306210000002,,,,,,,,,,,,,,,,,81.29702180000004,82.0958584,82.89509730000009,82.8789056999999,,,,,,,,,,,,,,,,82.88031000000001,82.89509730000009,82.89509730000009,83.71184719999997,r,0.0,0.8077209000000494,,83.7158624000001,83.72751050000011,84.71048070000006,84.72661549999998,,,,,,,,,,,,,,,,,,sub-225,1.0,stroop_test,60.12234898018703,
,,,,14.0,2.0,1.0,,,,,blau,blue,b,1.0,b,1.0,0.6595409000001382,,,,,,,,,,,,,,1.0,2.0,14.0,5.0,,,,,84.72661549999998,,,,,,,,,,,,,,,,,84.71075719999999,84.82664900000009,85.6259172,85.60972809999998,,,,,,,,,,,,,,,,85.61095769999997,85.6259172,85.6259172,86.2926179000001,b,1.0,0.6595409000001382,,86.29420570000002,86.30850839999994,87.29178139999999,87.30768289999992,,,,,,,,,,,,,,,,,,sub-225,1.0,stroop_test,60.12234898018703,
,,,,15.0,3.0,1.0,,,,,gelb,red,r,0.0,r,1.0,1.0922169000000397,,,,,,,,,,,,,,1.0,3.0,15.0,8.0,,,,,87.30768289999992,,,,,,,,,,,,,,,,,87.29214649999994,87.40762199999995,88.22336689999997,88.20736220000003,,,,,,,,,,,,,,,,88.21133850000001,88.22336689999997,88.22336689999997,89.32280229999992,r,1.0,1.0922169000000397,,89.32301899999993,89.33894979999991,90.32206560000007,90.33817049999992,,,,,,,,,,,,,,,,,,sub-225,1.0,stroop_test,60.12234898018703,
,,,,16.0,4.0,1.0,,,,,blau,blue,b,1.0,b,1.0,0.6328819999998814,,,,,,,,,,,,,,1.0,4.0,16.0,6.0,,,,,90.33817049999992,,,,,,,,,,,,,,,,,90.32240270000013,91.5367718,92.33608520000008,92.31968570000004,,,,,,,,,,,,,,,,92.32100089999994,92.33608520000008,92.33608520000008,92.97055120000005,b,1.0,0.6328819999998814,,92.9707949000001,92.98548239999992,93.96857279999996,93.98439400000008,,,,,,,,,,,,,,,,,,sub-225,1.0,stroop_test,60.12234898018703,
,,,,17.0,5.0,1.0,,,,,gelb,blue,b,0.0,b,1.0,0.9555669000001216,,,,,,,,,,,,,,1.0,5.0,17.0,9.0,,,,,93.98439400000008,,,,,,,,,,,,,,,,,93.9687206000001,94.78382549999992,95.58300439999994,95.56670009999992,,,,,,,,,,,,,,,,95.56879299999991,95.58300439999994,95.58300439999994,96.54962799999998,b,1.0,0.9555669000001216,,96.54985020000004,96.56583090000004,97.56470919999992,,,,,,,,,,,,,,,,,,,sub-225,1.0,stroop_test,60.12234898018703,
,,,,18.0,6.0,1.0,,,,,gelb,yellow,g,1.0,g,1.0,0.6559986999998273,,,,,,,,,,,,,,1.0,6.0,18.0,11.0,,,,,97.58117629999992,,,,,,,,,,,,,,,,,97.56507820000002,97.66469239999992,98.4638837,98.44761199999994,,,,,,,,,,,,,,,,98.44783639999991,98.4638837,98.4638837,99.13140840000004,g,1.0,0.6559986999998273,,99.13188089999994,99.14663919999998,100.14573309999992,,,,,,,,,,,,,,,,,,,sub-225,1.0,stroop_test,60.12234898018703,
,,,,19.0,7.0,1.0,,,,,blau,red,r,0.0,r,1.0,0.8679795000000468,,,,,,,,,,,,,,1.0,7.0,19.0,4.0,,,,,100.1622640999999,,,,,,,,,,,,,,,,,100.14587740000002,100.24541150000005,101.04483649999996,101.02884859999996,,,,,,,,,,,,,,,,101.03147020000006,101.04483649999996,101.04483649999996,101.95061959999998,r,1.0,0.8679795000000468,,101.95120500000009,101.95379380000008,102.94320089999997,102.9596805000001,,,,,,,,,,,,,,,,,,sub-225,1.0,stroop_test,60.12234898018703,
,,,,20.0,8.0,1.0,,,,,blau,yellow,g,0.0,g,1.0,1.0017336999999316,,,,,,,,,,,,,,1.0,8.0,20.0,7.0,,,,,102.9596805000001,,,,,,,,,,,,,,,,,102.94337450000012,104.15842870000006,104.95777930000008,104.94170069999996,,,,,,,,,,,,,,,,104.94192360000012,104.95777930000008,104.95777930000008,105.97480259999998,g,1.0,1.0017336999999316,,105.97526429999994,105.9902752999999,106.9894511,,,,,,,,,,,,,,,,,,,sub-225,1.0,stroop_test,60.12234898018703,
,,,,21.0,9.0,1.0,,,,,rot,red,r,1.0,r,1.0,0.6546270999999706,,,,,,,,,,,,,,1.0,9.0,21.0,0.0,,,,,107.0059490000001,,,,,,,,,,,,,,,,,106.98960340000008,107.7884868000001,108.5875630999999,108.5711185,,,,,,,,,,,,,,,,108.57305470000006,108.5875630999999,108.5875630999999,109.2541834000001,r,1.0,0.6546270999999706,,109.25445839999998,109.27015230000006,110.2536963,110.26942400000009,,,,,,,,,,,,,,,,,,sub-225,1.0,stroop_test,60.12234898018703,
,,,,22.0,10.0,1.0,,,,,rot,red,r,1.0,r,1.0,0.6660435000001144,,,,,,,,,,,,,,1.0,10.0,22.0,1.0,,,,,110.26942400000009,,,,,,,,,,,,,,,,,110.25384069999996,110.6191827,111.4184676,111.40234779999992,,,,,,,,,,,,,,,,111.40276130000008,111.4184676,111.4184676,112.0865255000001,r,1.0,0.6660435000001144,,112.08679580000012,112.1010533000001,113.0843190999999,113.10013729999991,,,,,,,,,,,,,,,,,,sub-225,1.0,stroop_test,60.12234898018703,
,,,,23.0,11.0,1.0,,,,,rot,blue,b,0.0,b,1.0,0.8914706000000479,,,,,,,,,,,,,,1.0,11.0,23.0,2.0,,,,,113.10013729999991,,,,,,,,,,,,,,,,,113.08461420000005,114.2989348000001,115.09827330000007,115.0821691000001,,,,,,,,,,,,,,,,115.08258060000004,115.09827330000007,115.09827330000007,115.9979659999999,b,1.0,0.8914706000000479,,115.99817009999992,116.01393540000004,116.99701039999992,117.01331660000004,,,,,,,,,,,,,,,,,,sub-225,1.0,stroop_test,60.12234898018703,
,,,,,,,,,,,,,,,,,,,,,,,,,,,,,,,,,,,,,,,,,,,,,,,,,,,,,,,,,,,,,,,,,,,,,,,,,,,,,,,,,,,,,,,116.99707200000012,117.01331660000004,117.01331660000004,118.29665189999992,space,1.2715229000000363,,,,,,,,,,,,sub-225,1.0,stroop_test,60.12234898018703,
,,,,0.0,0.0,0.0,,,,,,,,,,,,,gelb,yellow,g,1.0,g,1.0,0.5865903999999773,,,,,,,,,,0.0,0.0,0.0,11.0,118.31194410000012,,,,,,,,,,,,,,,,,118.30604289999997,118.66141300000004,119.46099860000004,119.44449149999993,,,,,,,,,,,,,,,,,,,,,,,,,,,,,,,,,,,119.44592940000008,119.46099860000004,119.46099860000004,120.06166340000004,g,1.0,0.5865903999999773,,,,sub-225,1.0,stroop_test,60.12234898018703,
,,,,1.0,1.0,0.0,,,,,,,,,,,,,blau,blue,b,1.0,b,1.0,0.4898140000000239,,,,,,,,,,0.0,1.0,1.0,5.0,120.07725380000012,,,,,,,,,,,,,,,,,120.0618351999999,120.4264756,121.22572059999992,121.20952820000002,,,,,,,,,,,,,,,,,,,,,,,,,,,,,,,,,,,121.21092199999998,121.22572059999992,121.22572059999992,121.7257133999999,b,1.0,0.4898140000000239,,,,sub-225,1.0,stroop_test,60.12234898018703,
,,,,2.0,2.0,0.0,,,,,,,,,,,,,rot,red,r,1.0,r,1.0,0.4693827999999485,,,,,,,,,,0.0,2.0,2.0,1.0,121.74189290000004,,,,,,,,,,,,,,,,,121.7258953999999,122.9407202,123.74011969999992,123.72385110000003,,,,,,,,,,,,,,,,,,,,,,,,,,,,,,,,,,,123.7264196000001,123.74011969999992,123.74011969999992,124.22408530000008,r,1.0,0.4693827999999485,,,,sub-225,1.0,stroop_test,60.12234898018703,
,,,,3.0,3.0,0.0,,,,,,,,,,,,,blau,red,r,0.0,r,1.0,0.8742677999998705,,,,,,,,,,0.0,3.0,3.0,4.0,124.23951710000006,,,,,,,,,,,,,,,,,124.22453919999998,124.5892503,125.38855050000006,125.3722576,,,,,,,,,,,,,,,,,,,,,,,,,,,,,,,,,,,125.37429539999994,125.38855050000006,125.38855050000006,126.2713394,r,1.0,0.8742677999998705,,,,sub-225,1.0,stroop_test,60.12234898018703,
,,,,4.0,4.0,0.0,,,,,,,,,,,,,blau,yellow,g,0.0,g,1.0,0.5882050999998683,,,,,,,,,,0.0,4.0,4.0,7.0,126.28768080000008,,,,,,,,,,,,,,,,,126.27151449999997,126.37076920000004,127.17019860000003,127.1539315,,,,,,,,,,,,,,,,,,,,,,,,,,,,,,,,,,,127.15421059999994,127.17019860000003,127.17019860000003,127.7700413,g,1.0,0.5882050999998683,,,,sub-225,1.0,stroop_test,60.12234898018703,
,,,,5.0,5.0,0.0,,,,,,,,,,,,,rot,blue,b,0.0,b,1.0,0.5023882000000413,,,,,,,,,,0.0,5.0,5.0,2.0,127.78624059999991,,,,,,,,,,,,,,,,,127.77022020000004,128.58551749999992,129.38479589999997,129.3685762,,,,,,,,,,,,,,,,,,,,,,,,,,,,,,,,,,,129.3700518999999,129.38479589999997,129.38479589999997,129.9023863,b,1.0,0.5023882000000413,,,,sub-225,1.0,stroop_test,60.12234898018703,
,,,,6.0,6.0,0.0,,,,,,,,,,,,,gelb,yellow,g,1.0,g,1.0,0.5890686999998707,,,,,,,,,,0.0,6.0,6.0,10.0,129.91749750000008,,,,,,,,,,,,,,,,,129.90286549999996,130.0173992,130.81675330000007,130.8003486,,,,,,,,,,,,,,,,,,,,,,,,,,,,,,,,,,,130.80355680000002,130.81675330000007,130.81675330000007,131.41671410000004,g,1.0,0.5890686999998707,,,,sub-225,1.0,stroop_test,60.12234898018703,
,,,,7.0,7.0,0.0,,,,,,,,,,,,,blau,blue,b,1.0,b,1.0,0.5693214999998872,,,,,,,,,,0.0,7.0,7.0,6.0,131.43267250000008,,,,,,,,,,,,,,,,,131.41690689999996,132.23217649999992,133.03127470000004,133.01518009999995,,,,,,,,,,,,,,,,,,,,,,,,,,,,,,,,,,,133.0167045999999,133.03127470000004,133.03127470000004,133.61461099999997,b,1.0,0.5693214999998872,,,,sub-225,1.0,stroop_test,60.12234898018703,
,,,,8.0,8.0,0.0,,,,,,,,,,,,,rot,yellow,g,0.0,g,1.0,1.0104718999998568,,,,,,,,,,0.0,8.0,8.0,3.0,133.63074899999992,,,,,,,,,,,,,,,,,133.6147965,133.71398799999997,134.51327119999996,134.49705210000002,,,,,,,,,,,,,,,,,,,,,,,,,,,,,,,,,,,134.50027410000007,134.51327119999996,134.51327119999996,135.5294656000001,g,1.0,1.0104718999998568,,,,sub-225,1.0,stroop_test,60.12234898018703,
,,,,9.0,9.0,0.0,,,,,,,,,,,,,gelb,red,r,0.0,r,1.0,0.7037001999999575,,,,,,,,,,0.0,9.0,9.0,8.0,135.5455927999999,,,,,,,,,,,,,,,,,135.52964569999995,135.62883540000007,136.42806380000002,136.4120562999999,,,,,,,,,,,,,,,,,,,,,,,,,,,,,,,,,,,136.41532570000004,136.42806380000002,136.42806380000002,137.1446426,r,1.0,0.7037001999999575,,,,sub-225,1.0,stroop_test,60.12234898018703,
,,,,10.0,10.0,0.0,,,,,,,,,,,,,gelb,blue,b,0.0,b,1.0,0.8236656000001403,,,,,,,,,,0.0,10.0,10.0,9.0,137.16084479999995,,,,,,,,,,,,,,,,,137.14483840000003,137.24401809999995,138.0432456000001,138.0271998999999,,,,,,,,,,,,,,,,,,,,,,,,,,,,,,,,,,,138.02768719999997,138.0432456000001,138.0432456000001,138.8763773999999,b,1.0,0.8236656000001403,,,,sub-225,1.0,stroop_test,60.12234898018703,
,,,,11.0,11.0,0.0,,,,,,,,,,,,,rot,red,r,1.0,r,1.0,0.6633925999999519,,,,,,,,,,0.0,11.0,11.0,0.0,138.8924159999999,,,,,,,,,,,,,,,,,138.87657620000004,138.9756122000001,139.7749799999999,139.7588002,,,,,,,,,,,,,,,,,,,,,,,,,,,,,,,,,,,139.7611890999999,139.7749799999999,139.7749799999999,140.4490092000001,r,1.0,0.6633925999999519,,,,sub-225,1.0,stroop_test,60.12234898018703,
,,,,12.0,0.0,1.0,,,,,,,,,,,,,rot,yellow,g,0.0,g,1.0,0.570837999999867,,,,,,,,,,1.0,0.0,12.0,3.0,140.4577010999999,,,,,,,,,,,,,,,,,140.44944710000004,140.55767489999994,141.35674719999997,141.34047099999998,,,,,,,,,,,,,,,,,,,,,,,,,,,,,,,,,,,141.3407142000001,141.35674719999997,141.35674719999997,141.94000929999993,g,1.0,0.570837999999867,,,,sub-225,1.0,stroop_test,60.12234898018703,
,,,,13.0,1.0,1.0,,,,,,,,,,,,,rot,blue,b,0.0,b,1.0,0.5551170000001093,,,,,,,,,,1.0,1.0,13.0,2.0,141.9563215999999,,,,,,,,,,,,,,,,,141.94018570000003,142.2893365,143.0885957999999,143.0723774999999,,,,,,,,,,,,,,,,,,,,,,,,,,,,,,,,,,,143.07266019999997,143.0885957999999,143.0885957999999,143.65528960000006,b,1.0,0.5551170000001093,,,,sub-225,1.0,stroop_test,60.12234898018703,
,,,,14.0,2.0,1.0,,,,,,,,,,,,,rot,red,r,1.0,r,1.0,0.5108857000000171,,,,,,,,,,1.0,2.0,14.0,1.0,143.6712695000001,,,,,,,,,,,,,,,,,143.6554721,143.75467830000002,144.55377369999997,144.5377163999999,,,,,,,,,,,,,,,,,,,,,,,,,,,,,,,,,,,144.5382899000001,144.55377369999997,144.55377369999997,145.0705706000001,r,1.0,0.5108857000000171,,,,sub-225,1.0,stroop_test,60.12234898018703,
,,,,15.0,3.0,1.0,,,,,,,,,,,,,blau,yellow,g,0.0,g,1.0,0.7081845999998677,,,,,,,,,,1.0,3.0,15.0,7.0,145.0866446,,,,,,,,,,,,,,,,,145.07101319999992,145.8858835000001,146.68518429999995,146.66885630000002,,,,,,,,,,,,,,,,,,,,,,,,,,,,,,,,,,,146.67144009999993,146.68518429999995,146.68518429999995,147.40173060000006,g,1.0,0.7081845999998677,,,,sub-225,1.0,stroop_test,60.12234898018703,
,,,,16.0,4.0,1.0,,,,,,,,,,,,,gelb,blue,b,0.0,b,1.0,0.7120592999999644,,,,,,,,,,1.0,4.0,16.0,9.0,147.41784869999992,,,,,,,,,,,,,,,,,147.40191460000003,147.75093579999998,148.55017999999995,148.53374510000003,,,,,,,,,,,,,,,,,,,,,,,,,,,,,,,,,,,148.53533730000004,148.55017999999995,148.55017999999995,149.26715839999997,b,1.0,0.7120592999999644,,,,sub-225,1.0,stroop_test,60.12234898018703,
,,,,17.0,5.0,1.0,,,,,,,,,,,,,blau,blue,b,1.0,b,1.0,0.6501385999999911,,,,,,,,,,1.0,5.0,17.0,5.0,149.28267189999997,,,,,,,,,,,,,,,,,149.26746580000008,150.4816581,151.2808083,151.2645348000001,,,,,,,,,,,,,,,,,,,,,,,,,,,,,,,,,,,151.2658808000001,151.2808083,151.2808083,151.94759610000006,b,1.0,0.6501385999999911,,,,sub-225,1.0,stroop_test,60.12234898018703,
,,,,18.0,6.0,1.0,,,,,,,,,,,,,gelb,red,r,0.0,r,1.0,0.565531700000065,,,,,,,,,,1.0,6.0,18.0,8.0,151.96363010000005,,,,,,,,,,,,,,,,,151.94780689999993,153.1624296,153.96174730000007,153.94573089999994,,,,,,,,,,,,,,,,,,,,,,,,,,,,,,,,,,,153.9482528000001,153.96174730000007,153.96174730000007,154.52868680000006,r,1.0,0.565531700000065,,,,sub-225,1.0,stroop_test,60.12234898018703,
,,,,19.0,7.0,1.0,,,,,,,,,,,,,rot,red,r,1.0,r,1.0,0.5486045999998623,,,,,,,,,,1.0,7.0,19.0,0.0,154.5444434000001,,,,,,,,,,,,,,,,,154.52887529999998,155.74345960000005,156.5426331000001,156.52632059999996,,,,,,,,,,,,,,,,,,,,,,,,,,,,,,,,,,,156.52782290000005,156.5426331000001,156.5426331000001,157.09279330000004,r,1.0,0.5486045999998623,,,,sub-225,1.0,stroop_test,60.12234898018703,
,,,,20.0,8.0,1.0,,,,,,,,,,,,,blau,blue,b,1.0,b,1.0,0.5549843000001147,,,,,,,,,,1.0,8.0,20.0,6.0,157.10881360000008,,,,,,,,,,,,,,,,,157.09297919999997,157.90797180000004,158.70714569999996,158.69095700000003,,,,,,,,,,,,,,,,,,,,,,,,,,,,,,,,,,,158.69229240000004,158.70714569999996,158.70714569999996,159.27402009999992,b,1.0,0.5549843000001147,,,,sub-225,1.0,stroop_test,60.12234898018703,
,,,,21.0,9.0,1.0,,,,,,,,,,,,,gelb,yellow,g,1.0,g,1.0,0.542060900000024,,,,,,,,,,1.0,9.0,21.0,10.0,159.2901273,,,,,,,,,,,,,,,,,159.2742154,159.62305650000008,160.42228369999998,160.40599399999996,,,,,,,,,,,,,,,,,,,,,,,,,,,,,,,,,,,160.40800259999992,160.42228369999998,160.42228369999998,160.97234509999998,g,1.0,0.542060900000024,,,,sub-225,1.0,stroop_test,60.12234898018703,
,,,,22.0,10.0,1.0,,,,,,,,,,,,,gelb,yellow,g,1.0,g,1.0,0.532764699999916,,,,,,,,,,1.0,10.0,22.0,11.0,160.98859960000004,,,,,,,,,,,,,,,,,160.97253139999998,161.07176120000008,161.8709424000001,161.85474999999997,,,,,,,,,,,,,,,,,,,,,,,,,,,,,,,,,,,161.85498370000005,161.8709424000001,161.8709424000001,162.4049293999999,g,1.0,0.532764699999916,,,,sub-225,1.0,stroop_test,60.12234898018703,
,,,,23.0,11.0,1.0,,,,,,,,,,,,,blau,red,r,0.0,r,1.0,0.455579200000102,,,,,,,,,,1.0,11.0,23.0,4.0,162.42043650000005,,,,,,,,,,,,,,,,,162.40511629999992,163.61932180000008,164.418635,164.40279239999995,,,,,,,,,,,,,,,,,,,,,,,,,,,,,,,,,,,164.40454130000012,164.418635,164.418635,164.8854249000001,r,1.0,0.455579200000102,,,,sub-225,1.0,stroop_test,60.12234898018703,
,,,,24.0,0.0,2.0,,,,,,,,,,,,,gelb,red,r,0.0,r,1.0,0.6167129000000386,,,,,,,,,,2.0,0.0,24.0,8.0,164.90153600000008,,,,,,,,,,,,,,,,,164.88560469999993,164.98473239999998,165.78408190000005,165.76794569999993,,,,,,,,,,,,,,,,,,,,,,,,,,,,,,,,,,,165.77185110000005,165.78408190000005,165.78408190000005,166.41721329999996,r,1.0,0.6167129000000386,,,,sub-225,1.0,stroop_test,60.12234898018703,
,,,,25.0,1.0,2.0,,,,,,,,,,,,,blau,blue,b,1.0,b,1.0,0.4980474999999842,,,,,,,,,,2.0,1.0,25.0,5.0,166.43343219999997,,,,,,,,,,,,,,,,,166.41740750000008,167.23260359999995,168.03198569999995,168.0155651,,,,,,,,,,,,,,,,,,,,,,,,,,,,,,,,,,,168.01720840000007,168.03198569999995,168.03198569999995,168.5318506000001,b,1.0,0.4980474999999842,,,,sub-225,1.0,stroop_test,60.12234898018703,
,,,,26.0,2.0,2.0,,,,,,,,,,,,,gelb,yellow,g,1.0,g,1.0,0.6138513000000785,,,,,,,,,,2.0,2.0,26.0,10.0,168.54809550000004,,,,,,,,,,,,,,,,,168.53203499999995,168.8810195000001,169.68040509999992,169.6639987000001,,,,,,,,,,,,,,,,,,,,,,,,,,,,,,,,,,,169.66559669999992,169.68040509999992,169.68040509999992,170.2969475,g,1.0,0.6138513000000785,,,,sub-225,1.0,stroop_test,60.12234898018703,
,,,,27.0,3.0,2.0,,,,,,,,,,,,,rot,red,r,1.0,r,1.0,0.6026956999999129,,,,,,,,,,2.0,3.0,27.0,1.0,170.31302920000007,,,,,,,,,,,,,,,,,170.29712829999994,171.51193740000008,172.31114720000005,172.2949713999999,,,,,,,,,,,,,,,,,,,,,,,,,,,,,,,,,,,172.29676399999994,172.31114720000005,172.31114720000005,172.92791209999996,r,1.0,0.6026956999999129,,,,sub-225,1.0,stroop_test,60.12234898018703,
,,,,28.0,4.0,2.0,,,,,,,,,,,,,blau,blue,b,1.0,b,1.0,0.4996283999998923,,,,,,,,,,2.0,4.0,28.0,6.0,172.94398320000005,,,,,,,,,,,,,,,,,172.92811559999996,174.14282860000003,174.94213409999998,174.9261168999999,,,,,,,,,,,,,,,,,,,,,,,,,,,,,,,,,,,174.9293087000001,174.94213409999998,174.94213409999998,175.44475639999996,b,1.0,0.4996283999998923,,,,sub-225,1.0,stroop_test,60.12234898018703,
,,,,29.0,5.0,2.0,,,,,,,,,,,,,rot,yellow,g,0.0,r,0.0,0.62851169999999,,,,,,,,,,2.0,5.0,29.0,3.0,175.45830189999992,,,,,,,,,,,,,,,,,175.44494039999995,175.80797819999998,176.6073308,176.59126130000004,,,,,,,,,,,,,,,,,,,,,,,,,,,,,,,,,,,176.59437060000005,176.6073308,176.6073308,177.24069299999996,r,0.0,0.62851169999999,,,,sub-225,1.0,stroop_test,60.12234898018703,
,,,,30.0,6.0,2.0,,,,,,,,,,,,,gelb,blue,b,0.0,b,1.0,0.9160603000000264,,,,,,,,,,2.0,6.0,30.0,9.0,177.25650640000003,,,,,,,,,,,,,,,,,177.24086439999996,178.0557710999999,178.85519580000005,178.8389732999999,,,,,,,,,,,,,,,,,,,,,,,,,,,,,,,,,,,178.84060290000002,178.85519580000005,178.85519580000005,179.78803510000012,b,1.0,0.9160603000000264,,,,sub-225,1.0,stroop_test,60.12234898018703,
,,,,31.0,7.0,2.0,,,,,,,,,,,,,rot,red,r,1.0,r,1.0,0.6694813999999951,,,,,,,,,,2.0,7.0,31.0,0.0,179.80409340000006,,,,,,,,,,,,,,,,,179.7882325999999,181.00295699999992,181.8024468000001,181.78619980000008,,,,,,,,,,,,,,,,,,,,,,,,,,,,,,,,,,,181.78767070000004,181.8024468000001,181.8024468000001,182.48569969999997,r,1.0,0.6694813999999951,,,,sub-225,1.0,stroop_test,60.12234898018703,
,,,,32.0,8.0,2.0,,,,,,,,,,,,,blau,yellow,g,0.0,g,1.0,0.8228804999998829,,,,,,,,,,2.0,8.0,32.0,7.0,182.5018418,,,,,,,,,,,,,,,,,182.48588399999997,182.83501679999995,183.6339327999999,183.6178572000001,,,,,,,,,,,,,,,,,,,,,,,,,,,,,,,,,,,183.6192642000001,183.6339327999999,183.6339327999999,184.46716659999996,g,1.0,0.8228804999998829,,,,sub-225,1.0,stroop_test,60.12234898018703,
,,,,33.0,9.0,2.0,,,,,,,,,,,,,gelb,yellow,g,1.0,g,1.0,0.5817188000000897,,,,,,,,,,2.0,9.0,33.0,11.0,184.4830136999999,,,,,,,,,,,,,,,,,184.46735450000008,185.2822794000001,186.0816774,186.0654047999999,,,,,,,,,,,,,,,,,,,,,,,,,,,,,,,,,,,186.0668383,186.0816774,186.0816774,186.6651101,g,1.0,0.5817188000000897,,,,sub-225,1.0,stroop_test,60.12234898018703,
,,,,34.0,10.0,2.0,,,,,,,,,,,,,rot,blue,b,0.0,b,1.0,0.8891571999999996,,,,,,,,,,2.0,10.0,34.0,2.0,186.68107740000005,,,,,,,,,,,,,,,,,186.665272,187.8798830000001,188.6792121000001,188.66315340000008,,,,,,,,,,,,,,,,,,,,,,,,,,,,,,,,,,,188.66456040000003,188.6792121000001,188.6792121000001,189.5788844000001,b,1.0,0.8891571999999996,,,,sub-225,1.0,stroop_test,60.12234898018703,
,,,,35.0,11.0,2.0,,,,,,,,,,,,,blau,red,r,0.0,r,1.0,1.0121474000000037,,,,,,,,,,2.0,11.0,35.0,4.0,189.5949316000001,,,,,,,,,,,,,,,,,189.579062,189.6781562000001,190.4774829999999,190.4612626999999,,,,,,,,,,,,,,,,,,,,,,,,,,,,,,,,,,,190.4627722,190.4774829999999,190.4774829999999,191.49393940000004,r,1.0,1.0121474000000037,,,,sub-225,1.0,stroop_test,60.12234898018703,
,,,,36.0,0.0,3.0,,,,,,,,,,,,,gelb,blue,b,0.0,b,1.0,0.6300650999999107,,,,,,,,,,3.0,0.0,36.0,9.0,191.50997239999992,,,,,,,,,,,,,,,,,191.49412000000007,191.84306960000004,192.6422371000001,192.6259692000001,,,,,,,,,,,,,,,,,,,,,,,,,,,,,,,,,,,192.62755560000005,192.6422371000001,192.6422371000001,193.27568309999992,b,1.0,0.6300650999999107,,,,sub-225,1.0,stroop_test,60.12234898018703,
,,,,37.0,1.0,3.0,,,,,,,,,,,,,rot,yellow,g,0.0,g,1.0,1.1723850999999286,,,,,,,,,,3.0,1.0,37.0,3.0,193.2916106,,,,,,,,,,,,,,,,,193.2758616000001,193.3750298,194.17417290000003,194.1580031000001,,,,,,,,,,,,,,,,,,,,,,,,,,,,,,,,,,,194.1600479000001,194.17417290000003,194.17417290000003,195.35706529999996,g,1.0,1.1723850999999286,,,,sub-225,1.0,stroop_test,60.12234898018703,
,,,,38.0,2.0,3.0,,,,,,,,,,,,,gelb,yellow,g,1.0,g,1.0,0.5543465000000651,,,,,,,,,,3.0,2.0,38.0,11.0,195.37314990000004,,,,,,,,,,,,,,,,,195.3572419,195.456422,196.25575060000008,196.23991389999992,,,,,,,,,,,,,,,,,,,,,,,,,,,,,,,,,,,196.24354889999995,196.25575060000008,196.25575060000008,196.8221142,g,1.0,0.5543465000000651,,,,sub-225,1.0,stroop_test,60.12234898018703,
,,,,39.0,3.0,3.0,,,,,,,,,,,,,rot,red,r,1.0,r,1.0,0.4715071999999054,,,,,,,,,,3.0,3.0,39.0,0.0,196.83822409999996,,,,,,,,,,,,,,,,,196.82229340000004,197.17162740000003,197.9871986999999,197.9708502000001,,,,,,,,,,,,,,,,,,,,,,,,,,,,,,,,,,,197.97228900000005,197.9871986999999,197.9871986999999,198.47066070000005,r,1.0,0.4715071999999054,,,,sub-225,1.0,stroop_test,60.12234898018703,
,,,,40.0,4.0,3.0,,,,,,,,,,,,,blau,red,r,0.0,r,1.0,0.5879632999999558,,,,,,,,,,3.0,4.0,40.0,4.0,198.4866910000001,,,,,,,,,,,,,,,,,198.4708387999999,198.81978099999992,199.6192880000001,199.6029120000001,,,,,,,,,,,,,,,,,,,,,,,,,,,,,,,,,,,199.60499329999996,199.6192880000001,199.6192880000001,200.2191928,r,1.0,0.5879632999999558,,,,sub-225,1.0,stroop_test,60.12234898018703,
,,,,41.0,5.0,3.0,,,,,,,,,,,,,gelb,red,r,0.0,r,1.0,0.5546543999998903,,,,,,,,,,3.0,5.0,41.0,8.0,200.23503789999995,,,,,,,,,,,,,,,,,200.21937189999997,200.3184501000001,201.11766480000009,201.1014642,,,,,,,,,,,,,,,,,,,,,,,,,,,,,,,,,,,201.1031190000001,201.11766480000009,201.11766480000009,201.6844430000001,r,1.0,0.5546543999998903,,,,sub-225,1.0,stroop_test,60.12234898018703,
,,,,42.0,6.0,3.0,,,,,,,,,,,,,gelb,yellow,g,1.0,g,1.0,0.4979750999998487,,,,,,,,,,3.0,6.0,42.0,10.0,201.7005806,,,,,,,,,,,,,,,,,201.68462449999996,202.0500399,202.84927300000004,202.8330208,,,,,,,,,,,,,,,,,,,,,,,,,,,,,,,,,,,202.83325689999992,202.84927300000004,202.84927300000004,203.3494108,g,1.0,0.4979750999998487,,,,sub-225,1.0,stroop_test,60.12234898018703,
,,,,43.0,7.0,3.0,,,,,,,,,,,,,rot,blue,b,0.0,b,1.0,0.5178326999998717,,,,,,,,,,3.0,7.0,43.0,2.0,203.3654664000001,,,,,,,,,,,,,,,,,203.3495949999999,203.69847430000004,204.4976915,204.4815919,,,,,,,,,,,,,,,,,,,,,,,,,,,,,,,,,,,204.4830824000001,204.4976915,204.4976915,205.03143210000007,b,1.0,0.5178326999998717,,,,sub-225,1.0,stroop_test,60.12234898018703,
,,,,44.0,8.0,3.0,,,,,,,,,,,,,blau,yellow,g,0.0,g,1.0,0.4661000999999487,,,,,,,,,,3.0,8.0,44.0,7.0,205.04719750000004,,,,,,,,,,,,,,,,,205.03179189999992,205.8464644999999,206.6458901000001,206.62954719999996,,,,,,,,,,,,,,,,,,,,,,,,,,,,,,,,,,,206.6308358000001,206.6458901000001,206.6458901000001,207.11435699999996,g,1.0,0.4661000999999487,,,,sub-225,1.0,stroop_test,60.12234898018703,
,,,,45.0,9.0,3.0,,,,,,,,,,,,,rot,red,r,1.0,r,1.0,0.3883127999999942,,,,,,,,,,3.0,9.0,45.0,1.0,207.12850150000008,,,,,,,,,,,,,,,,,207.1145425,207.92790590000004,208.7271916,208.7110783999999,,,,,,,,,,,,,,,,,,,,,,,,,,,,,,,,,,,208.71257160000005,208.7271916,208.7271916,209.1275662999999,r,1.0,0.3883127999999942,,,,sub-225,1.0,stroop_test,60.12234898018703,
,,,,46.0,10.0,3.0,,,,,,,,,,,,,blau,blue,b,1.0,b,1.0,0.2771175000000312,,,,,,,,,,3.0,10.0,46.0,6.0,209.14349429999996,,,,,,,,,,,,,,,,,209.12774790000003,210.34241139999995,211.1416769,211.1254037000001,,,,,,,,,,,,,,,,,,,,,,,,,,,,,,,,,,,211.1268759,211.1416769,211.1416769,211.4251411,b,1.0,0.2771175000000312,,,,sub-225,1.0,stroop_test,60.12234898018703,
,,,,47.0,11.0,3.0,,,,,,,,,,,,,blau,blue,b,1.0,b,1.0,0.4466445999998996,,,,,,,,,,3.0,11.0,47.0,5.0,211.4413171000001,,,,,,,,,,,,,,,,,211.4253434,211.7742994,212.57360190000009,212.5573429000001,,,,,,,,,,,,,,,,,,,,,,,,,,,,,,,,,,,212.5577317,212.57360190000009,212.57360190000009,213.02381990000003,b,1.0,0.4466445999998996,,,,sub-225,1.0,stroop_test,60.12234898018703,
,,,,48.0,0.0,4.0,,,,,,,,,,,,,blau,blue,b,1.0,b,1.0,0.5131376000001637,,,,,,,,,,4.0,0.0,48.0,5.0,213.03978239999992,,,,,,,,,,,,,,,,,213.0239957000001,213.12299740000003,213.9221917,213.9059729999999,,,,,,,,,,,,,,,,,,,,,,,,,,,,,,,,,,,213.9062426999999,213.9221917,213.9221917,214.4393497000001,b,1.0,0.5131376000001637,,,,sub-225,1.0,stroop_test,60.12234898018703,
,,,,49.0,1.0,4.0,,,,,,,,,,,,,gelb,blue,b,0.0,b,1.0,0.734126999999944,,,,,,,,,,4.0,1.0,49.0,9.0,214.45523230000003,,,,,,,,,,,,,,,,,214.4395328999999,214.5385182,215.3375979,215.3211819999999,,,,,,,,,,,,,,,,,,,,,,,,,,,,,,,,,,,215.32266299999992,215.3375979,215.3375979,216.0883429999999,b,1.0,0.734126999999944,,,,sub-225,1.0,stroop_test,60.12234898018703,
,,,,50.0,2.0,4.0,,,,,,,,,,,,,gelb,red,r,0.0,r,1.0,0.3944164999998065,,,,,,,,,,4.0,2.0,50.0,8.0,216.1036451,,,,,,,,,,,,,,,,,216.0885401999999,216.90282810000008,217.7022919000001,217.6859462,,,,,,,,,,,,,,,,,,,,,,,,,,,,,,,,,,,217.6861606,217.7022919000001,217.7022919000001,218.1025692000001,r,1.0,0.3944164999998065,,,,sub-225,1.0,stroop_test,60.12234898018703,
,,,,51.0,3.0,4.0,,,,,,,,,,,,,rot,red,r,1.0,r,1.0,0.5679537999999411,,,,,,,,,,4.0,3.0,51.0,1.0,218.1183698,,,,,,,,,,,,,,,,,218.10275890000003,218.2182984000001,219.01761910000005,219.0013127,,,,,,,,,,,,,,,,,,,,,,,,,,,,,,,,,,,219.00318730000004,219.01761910000005,219.01761910000005,219.6008918,r,1.0,0.5679537999999411,,,,sub-225,1.0,stroop_test,60.12234898018703,
,,,,52.0,4.0,4.0,,,,,,,,,,,,,blau,blue,b,1.0,b,1.0,0.4734234000000015,,,,,,,,,,4.0,4.0,52.0,6.0,219.61682300000007,,,,,,,,,,,,,,,,,219.6010816999999,220.815746,221.61506110000005,221.5991315000001,,,,,,,,,,,,,,,,,,,,,,,,,,,,,,,,,,,221.6004393000001,221.61506110000005,221.61506110000005,222.09865480000008,b,1.0,0.4734234000000015,,,,sub-225,1.0,stroop_test,60.12234898018703,
,,,,53.0,5.0,4.0,,,,,,,,,,,,,blau,yellow,g,0.0,g,1.0,0.4089943999999832,,,,,,,,,,4.0,5.0,53.0,7.0,222.1145789,,,,,,,,,,,,,,,,,222.0988421,222.4475453,223.2467125000001,223.23054260000004,,,,,,,,,,,,,,,,,,,,,,,,,,,,,,,,,,,223.2307490000001,223.2467125000001,223.2467125000001,223.66365470000005,g,1.0,0.4089943999999832,,,,sub-225,1.0,stroop_test,60.12234898018703,
,,,,54.0,6.0,4.0,,,,,,,,,,,,,gelb,yellow,g,1.0,g,1.0,0.3450772000001052,,,,,,,,,,4.0,6.0,54.0,11.0,223.6796973999999,,,,,,,,,,,,,,,,,223.66384700000003,224.8788558000001,225.6779755,225.66173189999995,,,,,,,,,,,,,,,,,,,,,,,,,,,,,,,,,,,225.6631573,225.6779755,225.6779755,226.0283548,g,1.0,0.3450772000001052,,,,sub-225,1.0,stroop_test,60.12234898018703,
,,,,55.0,7.0,4.0,,,,,,,,,,,,,gelb,yellow,g,1.0,g,1.0,0.3495531999999457,,,,,,,,,,4.0,7.0,55.0,10.0,226.0443514000001,,,,,,,,,,,,,,,,,226.02854559999992,226.39392539999997,227.1933871000001,227.1776145000001,,,,,,,,,,,,,,,,,,,,,,,,,,,,,,,,,,,227.17807700000003,227.1933871000001,227.1933871000001,227.5439208,g,1.0,0.3495531999999457,,,,sub-225,1.0,stroop_test,60.12234898018703,
,,,,56.0,8.0,4.0,,,,,,,,,,,,,rot,yellow,g,0.0,g,1.0,0.8640235999998822,,,,,,,,,,4.0,8.0,56.0,3.0,227.55949370000008,,,,,,,,,,,,,,,,,227.5441186999999,227.6593891,228.45865120000008,228.44237500000008,,,,,,,,,,,,,,,,,,,,,,,,,,,,,,,,,,,228.4438457000001,228.45865120000008,228.45865120000008,229.3316725,g,1.0,0.8640235999998822,,,,sub-225,1.0,stroop_test,60.12234898018703,
,,,,57.0,9.0,4.0,,,,,,,,,,,,,rot,blue,b,0.0,b,1.0,0.6376657000000705,,,,,,,,,,4.0,9.0,57.0,2.0,229.3412588000001,,,,,,,,,,,,,,,,,229.33185460000004,230.1404743999999,230.9396380000001,230.92329829999997,,,,,,,,,,,,,,,,,,,,,,,,,,,,,,,,,,,230.9235043000001,230.9396380000001,230.9396380000001,231.5899435000001,b,1.0,0.6376657000000705,,,,sub-225,1.0,stroop_test,60.12234898018703,
,,,,58.0,10.0,4.0,,,,,,,,,,,,,rot,red,r,1.0,r,1.0,0.612827599999946,,,,,,,,,,4.0,10.0,58.0,0.0,231.6057632,,,,,,,,,,,,,,,,,231.59013589999995,232.80485479999996,233.60394640000004,233.58764640000004,,,,,,,,,,,,,,,,,,,,,,,,,,,,,,,,,,,233.5878673,233.60394640000004,233.60394640000004,234.2205646,r,1.0,0.612827599999946,,,,sub-225,1.0,stroop_test,60.12234898018703,
,,,,59.0,11.0,4.0,,,,,,,,,,,,,blau,red,r,0.0,r,1.0,0.684193999999934,,,,,,,,,,4.0,11.0,59.0,4.0,234.2366274000001,,,,,,,,,,,,,,,,,234.22074270000007,234.31987780000009,235.11925139999997,235.1030059,,,,,,,,,,,,,,,,,,,,,,,,,,,,,,,,,,,235.1042124999999,235.11925139999997,235.11925139999997,235.8190110999999,r,1.0,0.684193999999934,,,,sub-225,1.0,stroop_test,60.12234898018703,
,,,,60.0,0.0,5.0,,,,,,,,,,,,,blau,blue,b,1.0,b,1.0,0.8318017999999938,,,,,,,,,,5.0,0.0,60.0,6.0,235.8351699,,,,,,,,,,,,,,,,,235.81919470000005,235.9182558,236.71783060000007,236.7014457,,,,,,,,,,,,,,,,,,,,,,,,,,,,,,,,,,,236.7016567000001,236.71783060000007,236.71783060000007,237.551125,b,1.0,0.8318017999999938,,,,sub-225,1.0,stroop_test,60.12234898018703,
,,,,61.0,1.0,5.0,,,,,,,,,,,,,gelb,red,r,0.0,r,1.0,0.629569599999968,,,,,,,,,,5.0,1.0,61.0,8.0,237.5672201,,,,,,,,,,,,,,,,,237.55128360000003,238.76587270000005,239.5649209999999,239.5486573999999,,,,,,,,,,,,,,,,,,,,,,,,,,,,,,,,,,,239.55026999999995,239.5649209999999,239.5649209999999,240.1985459,r,1.0,0.629569599999968,,,,sub-225,1.0,stroop_test,60.12234898018703,
,,,,62.0,2.0,5.0,,,,,,,,,,,,,blau,red,r,0.0,r,1.0,0.4929857000001902,,,,,,,,,,5.0,2.0,62.0,4.0,240.2143476000001,,,,,,,,,,,,,,,,,240.19870680000008,240.2976887,241.09690479999995,241.0806528999999,,,,,,,,,,,,,,,,,,,,,,,,,,,,,,,,,,,241.08189620000007,241.09690479999995,241.09690479999995,241.5973027,r,1.0,0.4929857000001902,,,,sub-225,1.0,stroop_test,60.12234898018703,
,,,,63.0,3.0,5.0,,,,,,,,,,,,,rot,red,r,1.0,r,1.0,0.5575476999999864,,,,,,,,,,5.0,3.0,63.0,1.0,241.61309469999992,,,,,,,,,,,,,,,,,241.5974861,242.81206339999997,243.6113861000001,243.59559489999992,,,,,,,,,,,,,,,,,,,,,,,,,,,,,,,,,,,243.5986108,243.6113861000001,243.6113861000001,244.1780798,r,1.0,0.5575476999999864,,,,sub-225,1.0,stroop_test,60.12234898018703,
,,,,64.0,4.0,5.0,,,,,,,,,,,,,blau,yellow,g,0.0,g,1.0,0.6216872999998486,,,,,,,,,,5.0,4.0,64.0,7.0,244.1940429000001,,,,,,,,,,,,,,,,,244.17824969999992,245.392885,246.19226780000008,246.1759775999999,,,,,,,,,,,,,,,,,,,,,,,,,,,,,,,,,,,246.1774152999999,246.19226780000008,246.19226780000008,246.82554920000007,g,1.0,0.6216872999998486,,,,sub-225,1.0,stroop_test,60.12234898018703,
,,,,65.0,5.0,5.0,,,,,,,,,,,,,gelb,yellow,g,1.0,g,1.0,0.6175516999999218,,,,,,,,,,5.0,5.0,65.0,10.0,246.8414259000001,,,,,,,,,,,,,,,,,246.82572699999992,248.04054,248.8398540999999,248.8235188000001,,,,,,,,,,,,,,,,,,,,,,,,,,,,,,,,,,,248.825026,248.8398540999999,248.8398540999999,249.4729548,g,1.0,0.6175516999999218,,,,sub-225,1.0,stroop_test,60.12234898018703,
,,,,66.0,6.0,5.0,,,,,,,,,,,,,rot,yellow,g,0.0,g,1.0,0.584942299999966,,,,,,,,,,5.0,6.0,66.0,3.0,249.48885999999996,,,,,,,,,,,,,,,,,249.4731339,249.5722479000001,250.3714711,250.3552648,,,,,,,,,,,,,,,,,,,,,,,,,,,,,,,,,,,250.35673500000007,250.3714711,250.3714711,250.97155769999995,g,1.0,0.584942299999966,,,,sub-225,1.0,stroop_test,60.12234898018703,
,,,,67.0,7.0,5.0,,,,,,,,,,,,,gelb,blue,b,0.0,b,1.0,0.8700410000001284,,,,,,,,,,5.0,7.0,67.0,9.0,250.98750829999997,,,,,,,,,,,,,,,,,250.9717559999999,251.07108070000004,251.8701985,251.853885,,,,,,,,,,,,,,,,,,,,,,,,,,,,,,,,,,,251.85552069999997,251.8701985,251.8701985,252.7530448,b,1.0,0.8700410000001284,,,,sub-225,1.0,stroop_test,60.12234898018703,
,,,,68.0,8.0,5.0,,,,,,,,,,,,,blau,blue,b,1.0,b,1.0,0.5036734999998771,,,,,,,,,,5.0,8.0,68.0,5.0,252.76914050000005,,,,,,,,,,,,,,,,,252.75322699999992,252.85242470000003,253.6519624,253.6357753,,,,,,,,,,,,,,,,,,,,,,,,,,,,,,,,,,,253.6385032000001,253.6519624,253.6519624,254.168465,b,1.0,0.5036734999998771,,,,sub-225,1.0,stroop_test,60.12234898018703,
,,,,69.0,9.0,5.0,,,,,,,,,,,,,gelb,yellow,g,1.0,g,1.0,0.6476608999998916,,,,,,,,,,5.0,9.0,69.0,11.0,254.1846554000001,,,,,,,,,,,,,,,,,254.1686325999999,255.3834932,256.18262359999994,256.1664112000001,,,,,,,,,,,,,,,,,,,,,,,,,,,,,,,,,,,256.1679028000001,256.18262359999994,256.18262359999994,256.8328673000001,g,1.0,0.6476608999998916,,,,sub-225,1.0,stroop_test,60.12234898018703,
,,,,70.0,10.0,5.0,,,,,,,,,,,,,rot,blue,b,0.0,b,1.0,1.0939204000001157,,,,,,,,,,5.0,10.0,70.0,2.0,256.84885940000004,,,,,,,,,,,,,,,,,256.8330358999999,258.04770970000004,258.8468046999999,258.830608,,,,,,,,,,,,,,,,,,,,,,,,,,,,,,,,,,,258.83209020000004,258.8468046999999,258.8468046999999,259.9461939,b,1.0,1.0939204000001157,,,,sub-225,1.0,stroop_test,60.12234898018703,
,,,,71.0,11.0,5.0,,,,,,,,,,,,,rot,red,r,1.0,r,1.0,0.4338133000001107,,,,,,,,,,5.0,11.0,71.0,0.0,259.9623842000001,,,,,,,,,,,,,,,,,259.94636790000004,260.0458243999999,260.84518619999994,260.82887099999994,,,,,,,,,,,,,,,,,,,,,,,,,,,,,,,,,,,260.8291042999999,260.84518619999994,260.84518619999994,261.2951800999999,r,1.0,0.4338133000001107,,,,sub-225,1.0,stroop_test,60.12234898018703,
,,,,72.0,0.0,6.0,,,,,,,,,,,,,rot,blue,b,0.0,b,1.0,0.5554165999999441,,,,,,,,,,6.0,0.0,72.0,2.0,261.3112238000001,,,,,,,,,,,,,,,,,261.29534910000007,261.3944862999999,262.19385310000007,262.1775898000001,,,,,,,,,,,,,,,,,,,,,,,,,,,,,,,,,,,262.1778448,262.19385310000007,262.19385310000007,262.7608161999999,b,1.0,0.5554165999999441,,,,sub-225,1.0,stroop_test,60.12234898018703,
,,,,73.0,1.0,6.0,,,,,,,,,,,,,blau,blue,b,1.0,b,1.0,0.5802678000000014,,,,,,,,,,6.0,1.0,73.0,5.0,262.7766164,,,,,,,,,,,,,,,,,262.7609901000001,263.12631809999993,263.9255407999999,263.9090985,,,,,,,,,,,,,,,,,,,,,,,,,,,,,,,,,,,263.91042820000007,263.9255407999999,263.9255407999999,264.50873980000006,b,1.0,0.5802678000000014,,,,sub-225,1.0,stroop_test,60.12234898018703,
,,,,74.0,2.0,6.0,,,,,,,,,,,,,blau,yellow,g,0.0,g,1.0,0.6061392999999953,,,,,,,,,,6.0,2.0,74.0,7.0,264.5248104,,,,,,,,,,,,,,,,,264.5089104000001,265.72378490000006,266.5232146999999,266.5068782000001,,,,,,,,,,,,,,,,,,,,,,,,,,,,,,,,,,,266.5071009999999,266.5232146999999,266.5232146999999,267.13997730000006,g,1.0,0.6061392999999953,,,,sub-225,1.0,stroop_test,60.12234898018703,
,,,,75.0,3.0,6.0,,,,,,,,,,,,,rot,red,r,1.0,r,1.0,0.5990681999999197,,,,,,,,,,6.0,3.0,75.0,0.0,267.15594409999994,,,,,,,,,,,,,,,,,267.14014799999995,267.95517300000006,268.75436880000007,268.7379349,,,,,,,,,,,,,,,,,,,,,,,,,,,,,,,,,,,268.7394052,268.75436880000007,268.75436880000007,269.3553949,r,1.0,0.5990681999999197,,,,sub-225,1.0,stroop_test,60.12234898018703,
,,,,76.0,4.0,6.0,,,,,,,,,,,,,gelb,yellow,g,1.0,g,1.0,0.5925589999999374,,,,,,,,,,6.0,4.0,76.0,11.0,269.3704385000001,,,,,,,,,,,,,,,,,269.3555724,269.4702087999999,270.26954479999995,270.2532054999999,,,,,,,,,,,,,,,,,,,,,,,,,,,,,,,,,,,270.25489930000003,270.26954479999995,270.26954479999995,270.86971029999995,g,1.0,0.5925589999999374,,,,sub-225,1.0,stroop_test,60.12234898018703,
,,,,77.0,5.0,6.0,,,,,,,,,,,,,gelb,yellow,g,1.0,g,1.0,0.4959144999997988,,,,,,,,,,6.0,5.0,77.0,10.0,270.8856154,,,,,,,,,,,,,,,,,270.86989470000003,271.2187779000001,272.01789080000003,272.0015737000001,,,,,,,,,,,,,,,,,,,,,,,,,,,,,,,,,,,272.00181010000006,272.01789080000003,272.01789080000003,272.5179771999999,g,1.0,0.4959144999997988,,,,sub-225,1.0,stroop_test,60.12234898018703,
,,,,78.0,6.0,6.0,,,,,,,,,,,,,blau,blue,b,1.0,b,1.0,0.5207892000000811,,,,,,,,,,6.0,6.0,78.0,6.0,272.5340864,,,,,,,,,,,,,,,,,272.51816069999995,272.6172188999999,273.4165359000001,273.40066649999994,,,,,,,,,,,,,,,,,,,,,,,,,,,,,,,,,,,273.40197880000005,273.4165359000001,273.4165359000001,273.9499158000001,b,1.0,0.5207892000000811,,,,sub-225,1.0,stroop_test,60.12234898018703,
,,,,79.0,7.0,6.0,,,,,,,,,,,,,rot,yellow,g,0.0,g,1.0,0.8925564999999551,,,,,,,,,,6.0,7.0,79.0,3.0,273.9660739000001,,,,,,,,,,,,,,,,,273.9500971,274.2990188000001,275.0983722000001,275.08233670000004,,,,,,,,,,,,,,,,,,,,,,,,,,,,,,,,,,,275.0838053,275.0983722000001,275.0983722000001,275.9980147000001,g,1.0,0.8925564999999551,,,,sub-225,1.0,stroop_test,60.12234898018703,
,,,,80.0,8.0,6.0,,,,,,,,,,,,,gelb,red,r,0.0,r,1.0,0.4485913999999411,,,,,,,,,,6.0,8.0,80.0,8.0,276.0141754000001,,,,,,,,,,,,,,,,,275.9981786999999,276.34738330000005,277.1464825999999,277.1302854999999,,,,,,,,,,,,,,,,,,,,,,,,,,,,,,,,,,,277.1317702000001,277.1464825999999,277.1464825999999,277.59688000000006,r,1.0,0.4485913999999411,,,,sub-225,1.0,stroop_test,60.12234898018703,
,,,,81.0,9.0,6.0,,,,,,,,,,,,,blau,red,r,0.0,r,1.0,0.5601097999999638,,,,,,,,,,6.0,9.0,81.0,4.0,277.6127107,,,,,,,,,,,,,,,,,277.5970552000001,277.6960901,278.4951453000001,278.4790035000001,,,,,,,,,,,,,,,,,,,,,,,,,,,,,,,,,,,278.4803514,278.4951453000001,278.4951453000001,279.0620096,r,1.0,0.5601097999999638,,,,sub-225,1.0,stroop_test,60.12234898018703,
,,,,82.0,10.0,6.0,,,,,,,,,,,,,gelb,blue,b,0.0,b,1.0,0.6126238000001649,,,,,,,,,,6.0,10.0,82.0,9.0,279.07799320000004,,,,,,,,,,,,,,,,,279.06218579999995,279.4276263,280.2270275000001,280.21064019999994,,,,,,,,,,,,,,,,,,,,,,,,,,,,,,,,,,,280.2121556,280.2270275000001,280.2270275000001,280.8436641999999,b,1.0,0.6126238000001649,,,,sub-225,1.0,stroop_test,60.12234898018703,
,,,,83.0,11.0,6.0,,,,,,,,,,,,,rot,red,r,1.0,r,1.0,0.645498100000168,,,,,,,,,,6.0,11.0,83.0,1.0,280.8596738000001,,,,,,,,,,,,,,,,,280.8438434,282.05858379999995,282.8578173000001,282.8417827999999,,,,,,,,,,,,,,,,,,,,,,,,,,,,,,,,,,,282.8437655,282.8578173000001,282.8578173000001,283.50797020000005,r,1.0,0.645498100000168,,,,sub-225,1.0,stroop_test,60.12234898018703,
,,,,84.0,0.0,7.0,,,,,,,,,,,,,rot,blue,b,0.0,b,1.0,0.592982099999972,,,,,,,,,,7.0,0.0,84.0,2.0,283.52376630000003,,,,,,,,,,,,,,,,,283.5081421,283.60710859999995,284.4062924,284.39008220000005,,,,,,,,,,,,,,,,,,,,,,,,,,,,,,,,,,,284.39031079999995,284.4062924,284.4062924,285.00655370000004,b,1.0,0.592982099999972,,,,sub-225,1.0,stroop_test,60.12234898018703,
,,,,85.0,1.0,7.0,,,,,,,,,,,,,blau,blue,b,1.0,b,1.0,0.4838418000001638,,,,,,,,,,7.0,1.0,85.0,6.0,285.0222685000001,,,,,,,,,,,,,,,,,285.0067289000001,286.2214371,287.0206674000001,287.0043381999999,,,,,,,,,,,,,,,,,,,,,,,,,,,,,,,,,,,287.0057664000001,287.0206674000001,287.0206674000001,287.5209553,b,1.0,0.4838418000001638,,,,sub-225,1.0,stroop_test,60.12234898018703,
,,,,86.0,2.0,7.0,,,,,,,,,,,,,gelb,yellow,g,1.0,g,1.0,0.520889200000056,,,,,,,,,,7.0,2.0,86.0,10.0,287.53692,,,,,,,,,,,,,,,,,287.5211313,288.7355709000001,289.53500869999993,289.5187472,,,,,,,,,,,,,,,,,,,,,,,,,,,,,,,,,,,289.5202611,289.53500869999993,289.53500869999993,290.0685847,g,1.0,0.520889200000056,,,,sub-225,1.0,stroop_test,60.12234898018703,
,,,,87.0,3.0,7.0,,,,,,,,,,,,,gelb,yellow,g,1.0,g,1.0,0.4540890999999192,,,,,,,,,,7.0,3.0,87.0,11.0,290.0843580999999,,,,,,,,,,,,,,,,,290.0687576,290.4341922000001,291.2332073,291.21696210000005,,,,,,,,,,,,,,,,,,,,,,,,,,,,,,,,,,,291.2171922,291.2332073,291.2332073,291.7002009,g,1.0,0.4540890999999192,,,,sub-225,1.0,stroop_test,60.12234898018703,
,,,,88.0,4.0,7.0,,,,,,,,,,,,,blau,blue,b,1.0,b,1.0,0.4302506000001358,,,,,,,,,,7.0,4.0,88.0,5.0,291.71622019999995,,,,,,,,,,,,,,,,,291.7003823,292.5153611999999,293.3145988000001,293.2983518000001,,,,,,,,,,,,,,,,,,,,,,,,,,,,,,,,,,,293.2996602999999,293.3145988000001,293.3145988000001,293.7484674,b,1.0,0.4302506000001358,,,,sub-225,1.0,stroop_test,60.12234898018703,
,,,,89.0,5.0,7.0,,,,,,,,,,,,,blau,red,r,0.0,r,1.0,0.9067992000000232,,,,,,,,,,7.0,5.0,89.0,4.0,293.7644352,,,,,,,,,,,,,,,,,293.7486363999999,294.96311919999994,295.76264949999995,295.7460698,,,,,,,,,,,,,,,,,,,,,,,,,,,,,,,,,,,295.7463207999999,295.76264949999995,295.76264949999995,296.6788412000001,r,1.0,0.9067992000000232,,,,sub-225,1.0,stroop_test,60.12234898018703,
,,,,90.0,6.0,7.0,,,,,,,,,,,,,gelb,red,r,0.0,g,0.0,0.8057461999999305,,,,,,,,,,7.0,6.0,90.0,8.0,296.69485439999994,,,,,,,,,,,,,,,,,296.67901830000005,297.04461190000006,297.8438367000001,297.8273214999999,,,,,,,,,,,,,,,,,,,,,,,,,,,,,,,,,,,297.8289533,297.8438367000001,297.8438367000001,298.6605328999999,g,0.0,0.8057461999999305,,,,sub-225,1.0,stroop_test,60.12234898018703,
,,,,91.0,7.0,7.0,,,,,,,,,,,,,rot,red,r,1.0,r,1.0,0.5964272000001074,,,,,,,,,,7.0,7.0,91.0,1.0,298.6763569,,,,,,,,,,,,,,,,,298.66073099999994,299.8752122000001,300.6744188,300.6581976,,,,,,,,,,,,,,,,,,,,,,,,,,,,,,,,,,,300.6595987999999,300.6744188,300.6744188,301.2747932,r,1.0,0.5964272000001074,,,,sub-225,1.0,stroop_test,60.12234898018703,
,,,,92.0,8.0,7.0,,,,,,,,,,,,,rot,red,r,1.0,r,1.0,0.7171733000000131,,,,,,,,,,7.0,8.0,92.0,0.0,301.2906383,,,,,,,,,,,,,,,,,301.2749615,301.3737701,302.1729932999999,302.15695559999995,,,,,,,,,,,,,,,,,,,,,,,,,,,,,,,,,,,302.1571664999999,302.1729932999999,302.1729932999999,302.9062784,r,1.0,0.7171733000000131,,,,sub-225,1.0,stroop_test,60.12234898018703,
,,,,93.0,9.0,7.0,,,,,,,,,,,,,rot,yellow,g,0.0,g,1.0,1.167895000000044,,,,,,,,,,7.0,9.0,93.0,3.0,302.9223032,,,,,,,,,,,,,,,,,302.90647020000006,303.72177220000003,304.5208746999999,304.5046041999999,,,,,,,,,,,,,,,,,,,,,,,,,,,,,,,,,,,304.50510869999994,304.5208746999999,304.5208746999999,305.703483,g,1.0,1.167895000000044,,,,sub-225,1.0,stroop_test,60.12234898018703,
,,,,94.0,10.0,7.0,,,,,,,,,,,,,blau,yellow,g,0.0,b,0.0,0.7324682000000848,,,,,,,,,,7.0,10.0,94.0,7.0,305.71981860000005,,,,,,,,,,,,,,,,,305.7036625999999,306.51906170000007,307.31821319999995,307.3019343000001,,,,,,,,,,,,,,,,,,,,,,,,,,,,,,,,,,,307.3033171,307.31821319999995,307.31821319999995,308.0524389,b,0.0,0.7324682000000848,,,,sub-225,1.0,stroop_test,60.12234898018703,
,,,,95.0,11.0,7.0,,,,,,,,,,,,,gelb,blue,b,0.0,b,1.0,2.0827813000000788,,,,,,,,,,7.0,11.0,95.0,9.0,308.0675919,,,,,,,,,,,,,,,,,308.05263089999994,308.8668305000001,309.6660807999999,309.6500343,,,,,,,,,,,,,,,,,,,,,,,,,,,,,,,,,,,309.65152979999993,309.6660807999999,309.6660807999999,311.76492540000004,b,1.0,2.0827813000000788,,,,sub-225,1.0,stroop_test,60.12234898018703,
,,,,96.0,0.0,8.0,,,,,,,,,,,,,rot,red,r,1.0,r,1.0,0.7184144000000288,,,,,,,,,,8.0,0.0,96.0,0.0,311.7807295,,,,,,,,,,,,,,,,,311.7651088,311.8806396,312.6798369999999,312.66371260000005,,,,,,,,,,,,,,,,,,,,,,,,,,,,,,,,,,,312.6650662,312.6798369999999,312.6798369999999,313.4136934999999,r,1.0,0.7184144000000288,,,,sub-225,1.0,stroop_test,60.12234898018703,
,,,,97.0,1.0,8.0,,,,,,,,,,,,,gelb,blue,b,0.0,b,1.0,1.083868000000166,,,,,,,,,,8.0,1.0,97.0,9.0,313.42919340000003,,,,,,,,,,,,,,,,,313.41388340000003,314.2283138,315.0275614,315.0112844,,,,,,,,,,,,,,,,,,,,,,,,,,,,,,,,,,,315.01266239999995,315.0275614,315.0275614,316.1275326,b,1.0,1.083868000000166,,,,sub-225,1.0,stroop_test,60.12234898018703,
,,,,98.0,2.0,8.0,,,,,,,,,,,,,gelb,yellow,g,1.0,g,1.0,0.8890605999999934,,,,,,,,,,8.0,2.0,98.0,10.0,316.1432609000001,,,,,,,,,,,,,,,,,316.1278453,316.9424813999999,317.7418799,317.7259845000001,,,,,,,,,,,,,,,,,,,,,,,,,,,,,,,,,,,317.7261917000001,317.7418799,317.7418799,318.6415683,g,1.0,0.8890605999999934,,,,sub-225,1.0,stroop_test,60.12234898018703,
,,,,99.0,3.0,8.0,,,,,,,,,,,,,gelb,yellow,g,1.0,g,1.0,0.6839012000000366,,,,,,,,,,8.0,3.0,99.0,11.0,318.65766370000006,,,,,,,,,,,,,,,,,318.6417627000001,319.8563778,320.6556442000001,320.63944190000007,,,,,,,,,,,,,,,,,,,,,,,,,,,,,,,,,,,320.63967260000004,320.6556442000001,320.6556442000001,321.35554690000004,g,1.0,0.6839012000000366,,,,sub-225,1.0,stroop_test,60.12234898018703,
,,,,100.0,4.0,8.0,,,,,,,,,,,,,gelb,red,r,0.0,r,1.0,0.5897909000000254,,,,,,,,,,8.0,4.0,100.0,8.0,321.3715509000001,,,,,,,,,,,,,,,,,321.35572550000006,322.1708705000001,322.9701318,322.9542592,,,,,,,,,,,,,,,,,,,,,,,,,,,,,,,,,,,322.95447020000006,322.9701318,322.9701318,323.5703575,r,1.0,0.5897909000000254,,,,sub-225,1.0,stroop_test,60.12234898018703,
,,,,101.0,5.0,8.0,,,,,,,,,,,,,blau,red,r,0.0,r,1.0,0.8725162999999156,,,,,,,,,,8.0,5.0,101.0,4.0,323.5863384,,,,,,,,,,,,,,,,,323.5705108,323.9193192,324.71858,324.7021669999999,,,,,,,,,,,,,,,,,,,,,,,,,,,,,,,,,,,324.70356100000004,324.71858,324.71858,325.6022453999999,r,1.0,0.8725162999999156,,,,sub-225,1.0,stroop_test,60.12234898018703,
,,,,102.0,6.0,8.0,,,,,,,,,,,,,rot,blue,b,0.0,b,1.0,0.8569861999999375,,,,,,,,,,8.0,6.0,102.0,2.0,325.6180307,,,,,,,,,,,,,,,,,325.6025606999999,325.71766019999995,326.5169335999999,326.5009226,,,,,,,,,,,,,,,,,,,,,,,,,,,,,,,,,,,326.5045666000001,326.5169335999999,326.5169335999999,327.3830482999999,b,1.0,0.8569861999999375,,,,sub-225,1.0,stroop_test,60.12234898018703,
,,,,103.0,7.0,8.0,,,,,,,,,,,,,blau,blue,b,1.0,b,1.0,0.5113880999999765,,,,,,,,,,8.0,7.0,103.0,6.0,327.39923939999994,,,,,,,,,,,,,,,,,327.38320180000005,327.4825381999999,328.2818325999999,328.2655191000001,,,,,,,,,,,,,,,,,,,,,,,,,,,,,,,,,,,328.26693320000004,328.2818325999999,328.2818325999999,328.7987501,b,1.0,0.5113880999999765,,,,sub-225,1.0,stroop_test,60.12234898018703,
,,,,104.0,8.0,8.0,,,,,,,,,,,,,blau,blue,b,1.0,b,1.0,0.5066971999999623,,,,,,,,,,8.0,8.0,104.0,5.0,328.81470949999994,,,,,,,,,,,,,,,,,328.7989108,330.0136345000001,330.8128035,330.7963979000001,,,,,,,,,,,,,,,,,,,,,,,,,,,,,,,,,,,330.7966103000001,330.8128035,330.8128035,331.32940570000005,b,1.0,0.5066971999999623,,,,sub-225,1.0,stroop_test,60.12234898018703,
,,,,105.0,9.0,8.0,,,,,,,,,,,,,rot,red,r,1.0,r,1.0,0.613460699999905,,,,,,,,,,8.0,9.0,105.0,1.0,331.3455862999999,,,,,,,,,,,,,,,,,331.3295782,331.4288967,332.2281269,332.2117192999999,,,,,,,,,,,,,,,,,,,,,,,,,,,,,,,,,,,332.21292530000005,332.2281269,332.2281269,332.8446893,r,1.0,0.613460699999905,,,,sub-225,1.0,stroop_test,60.12234898018703,
,,,,106.0,10.0,8.0,,,,,,,,,,,,,rot,yellow,g,0.0,g,1.0,0.5776895999999851,,,,,,,,,,8.0,10.0,106.0,3.0,332.8607975,,,,,,,,,,,,,,,,,332.84485760000007,332.9440754,333.74334109999995,333.7270487999999,,,,,,,,,,,,,,,,,,,,,,,,,,,,,,,,,,,333.7273163,333.74334109999995,333.74334109999995,334.32661729999995,g,1.0,0.5776895999999851,,,,sub-225,1.0,stroop_test,60.12234898018703,
,,,,107.0,11.0,8.0,,,,,,,,,,,,,blau,yellow,g,0.0,g,1.0,0.5092220999999881,,,,,,,,,,8.0,11.0,107.0,7.0,334.34281710000005,,,,,,,,,,,,,,,,,334.326791,334.4261469999999,335.2252929000001,335.2088636000001,,,,,,,,,,,,,,,,,,,,,,,,,,,,,,,,,,,335.21004889999995,335.2252929000001,335.2252929000001,335.7420930999999,g,1.0,0.5092220999999881,,,,sub-225,1.0,stroop_test,60.12234898018703,
,,,,108.0,0.0,9.0,,,,,,,,,,,,,blau,red,r,0.0,r,1.0,0.7737675000000763,,,,,,,,,,9.0,0.0,108.0,4.0,335.7582814,,,,,,,,,,,,,,,,,335.7422557,335.8415087000001,336.64066460000004,336.6247848999999,,,,,,,,,,,,,,,,,,,,,,,,,,,,,,,,,,,336.6250043,336.64066460000004,336.64066460000004,337.42374900000004,r,1.0,0.7737675000000763,,,,sub-225,1.0,stroop_test,60.12234898018703,
,,,,109.0,1.0,9.0,,,,,,,,,,,,,rot,blue,b,0.0,b,1.0,0.4844069999999192,,,,,,,,,,9.0,1.0,109.0,2.0,337.4399236,,,,,,,,,,,,,,,,,337.4239213999999,338.6390961,339.4381310000001,339.4219906999999,,,,,,,,,,,,,,,,,,,,,,,,,,,,,,,,,,,339.4237767,339.4381310000001,339.4381310000001,339.9382751999999,b,1.0,0.4844069999999192,,,,sub-225,1.0,stroop_test,60.12234898018703,
,,,,110.0,2.0,9.0,,,,,,,,,,,,,blau,blue,b,1.0,b,1.0,0.5446048999999675,,,,,,,,,,9.0,2.0,110.0,5.0,339.9544152000001,,,,,,,,,,,,,,,,,339.9384496,340.7535591999999,341.5527628,341.5365511,,,,,,,,,,,,,,,,,,,,,,,,,,,,,,,,,,,341.537807,341.5527628,341.5527628,342.10276309999995,b,1.0,0.5446048999999675,,,,sub-225,1.0,stroop_test,60.12234898018703,
,,,,111.0,3.0,9.0,,,,,,,,,,,,,blau,blue,b,1.0,b,1.0,0.5621191000000181,,,,,,,,,,9.0,3.0,111.0,6.0,342.11908199999993,,,,,,,,,,,,,,,,,342.1029433000001,342.20243789999995,343.0014872,342.9851592,,,,,,,,,,,,,,,,,,,,,,,,,,,,,,,,,,,342.98541279999995,343.0014872,343.0014872,343.56817249999995,b,1.0,0.5621191000000181,,,,sub-225,1.0,stroop_test,60.12234898018703,
,,,,112.0,4.0,9.0,,,,,,,,,,,,,gelb,blue,b,0.0,b,1.0,0.6134433999998237,,,,,,,,,,9.0,4.0,112.0,9.0,343.5843784000001,,,,,,,,,,,,,,,,,343.56833860000006,344.3835391,345.1829924000001,345.1666330999999,,,,,,,,,,,,,,,,,,,,,,,,,,,,,,,,,,,345.16836779999994,345.1829924000001,345.1829924000001,345.7991796000001,b,1.0,0.6134433999998237,,,,sub-225,1.0,stroop_test,60.12234898018703,
,,,,113.0,5.0,9.0,,,,,,,,,,,,,rot,red,r,1.0,r,1.0,0.7428637000000435,,,,,,,,,,9.0,5.0,113.0,0.0,345.8155654,,,,,,,,,,,,,,,,,345.7993404000001,345.89872749999995,346.6980139,346.6818506,,,,,,,,,,,,,,,,,,,,,,,,,,,,,,,,,,,346.68337169999995,346.6980139,346.6980139,347.4477849,r,1.0,0.7428637000000435,,,,sub-225,1.0,stroop_test,60.12234898018703,
,,,,114.0,6.0,9.0,,,,,,,,,,,,,rot,red,r,1.0,r,1.0,0.428175900000042,,,,,,,,,,9.0,6.0,114.0,1.0,347.4639439,,,,,,,,,,,,,,,,,347.447962,348.2633956,349.062457,349.046206,,,,,,,,,,,,,,,,,,,,,,,,,,,,,,,,,,,349.0465779000001,349.062457,349.062457,349.4957733000001,r,1.0,0.428175900000042,,,,sub-225,1.0,stroop_test,60.12234898018703,
,,,,115.0,7.0,9.0,,,,,,,,,,,,,rot,yellow,g,0.0,g,1.0,0.6266736000000037,,,,,,,,,,9.0,7.0,115.0,3.0,349.5119896000001,,,,,,,,,,,,,,,,,349.4959443,349.8451648,350.64430530000004,350.6279213,,,,,,,,,,,,,,,,,,,,,,,,,,,,,,,,,,,350.6281434,350.64430530000004,350.64430530000004,351.2775537,g,1.0,0.6266736000000037,,,,sub-225,1.0,stroop_test,60.12234898018703,
,,,,116.0,8.0,9.0,,,,,,,,,,,,,blau,yellow,g,0.0,g,1.0,0.5940961000001153,,,,,,,,,,9.0,8.0,116.0,7.0,351.29364179999993,,,,,,,,,,,,,,,,,351.27773120000006,352.0929125,352.8921577000001,352.8757837999999,,,,,,,,,,,,,,,,,,,,,,,,,,,,,,,,,,,352.8776998999999,352.8921577000001,352.8921577000001,353.49289509999994,g,1.0,0.5940961000001153,,,,sub-225,1.0,stroop_test,60.12234898018703,
,,,,117.0,9.0,9.0,,,,,,,,,,,,,gelb,red,r,0.0,r,1.0,0.7899436000000151,,,,,,,,,,9.0,9.0,117.0,8.0,353.5083903,,,,,,,,,,,,,,,,,353.4932643,354.3077020999999,355.1068708,355.0905252,,,,,,,,,,,,,,,,,,,,,,,,,,,,,,,,,,,355.0927461000001,355.1068708,355.1068708,355.90707610000004,r,1.0,0.7899436000000151,,,,sub-225,1.0,stroop_test,60.12234898018703,
,,,,118.0,10.0,9.0,,,,,,,,,,,,,gelb,yellow,g,1.0,g,1.0,0.7435637999999472,,,,,,,,,,9.0,10.0,118.0,11.0,355.9230441,,,,,,,,,,,,,,,,,355.9073263,356.0229403999999,356.8221831999999,356.80616869999994,,,,,,,,,,,,,,,,,,,,,,,,,,,,,,,,,,,356.8066375000001,356.8221831999999,356.8221831999999,357.5747815,g,1.0,0.7435637999999472,,,,sub-225,1.0,stroop_test,60.12234898018703,
,,,,119.0,11.0,9.0,,,,,,,,,,,,,gelb,yellow,g,1.0,g,1.0,0.4618815999999697,,,,,,,,,,9.0,11.0,119.0,10.0,357.58812250000005,,,,,,,,,,,,,,,,,357.5752069,357.9377652999999,358.73704939999993,358.7207138000001,,,,,,,,,,,,,,,,,,,,,,,,,,,,,,,,,,,358.72104850000005,358.73704939999993,358.73704939999993,359.20468959999994,g,1.0,0.4618815999999697,,,,sub-225,1.0,stroop_test,60.12234898018703,
,,,,,,,,,,,,,,,,,,,,,,,,,,,,,,,,,,,,,,,,,,,,,,,,,,,,,,,,,,,,,,,,,,,,,,,,,,,,,,,,,,,,,,,,,,,,,,,,,,,,,,359.2049109,359.2199144000001,sub-225,,,,
