wordCTK,colorCTK,corrAnsCTK,congruentCTK,thisN,thisTrialN,thisRepN,keyResp_CTK.keys,keyResp_CTK.corr,keyResp_CTK.rt,keyResp_CTK.duration,wordPractice,colorPractice,corrAnsPractice,congruentPractice,respPractice.keys,respPractice.corr,respPractice.rt,respPractice.duration,word,color,corrAns,congruent,keyResp_test_run.keys,keyResp_test_run.corr,keyResp_test_run.rt,keyResp_test_run.duration,trials_CTK.thisRepN,trials_CTK.thisTrialN,trials_CTK.thisN,trials_CTK.thisIndex,trials_practice.thisRepN,trials_practice.thisTrialN,trials_practice.thisN,trials_practice.thisIndex,trials_test.thisRepN,trials_test.thisTrialN,trials_test.thisN,trials_test.thisIndex,thisRow.t,notes,instruction.started,instr_text.started,instr_image.started,instr_resp.started,instruction.stopped,instr_resp.keys,instr_resp.rt,instr_resp.duration,instr_color_to_key.started,instr_ctk.started,resp_ctk.started,instr_color_to_key.stopped,resp_ctk.keys,resp_ctk.rt,resp_ctk.duration,ITI.started,fixcross.started,fixcross.stopped,ITI.stopped,color_to_key_run.started,stimulus_CTK.started,keyResp_CTK.started,color_to_key_run.stopped,trials_CTK.keyResp_CTK.keys,trials_CTK.keyResp_CTK.corr,trials_CTK.keyResp_CTK.rt,trials_CTK.keyResp_CTK.duration,instr_practice.started,instr_practice_text.started,instr_practice_resp.started,instr_practice.stopped,instr_practice_resp.keys,instr_practice_resp.rt,instr_practice_resp.duration,practice_run.started,stimulus_practice.started,respPractice.started,practice_run.stopped,trials_practice.respPractice.keys,trials_practice.respPractice.corr,trials_practice.respPractice.rt,trials_practice.respPractice.duration,feedback.started,textFeedback.started,feedback.stopped,textFeedback.stopped,instr_test.started,instr_test_text.started,instr_test_resp.started,instr_test.stopped,instr_test_resp.keys,instr_test_resp.rt,instr_test_resp.duration,test_run.started,stimulus_test_run.started,keyResp_test_run.started,test_run.stopped,trials_test.keyResp_test_run.keys,trials_test.keyResp_test_run.corr,trials_test.keyResp_test_run.rt,trials_test.keyResp_test_run.duration,goodbye.started,textGoodbye.started,textGoodbye.stopped,goodbye.stopped,participant,session,expName,frameRate,Unnamed: 113
,,,,,,,,,,,,,,,,,,,,,,,,,,,,,,,,,,,,,,,,,0.0121797430037986,0.0406922440015478,0.0406922440015478,0.0406922440015478,1.9019854229991324,space,1.8340860160024024,,,,,,,,,,,,,,,,,,,,,,,,,,,,,,,,,,,,,,,,,,,,,,,,,,,,,,,,,,,sub-212,1,stroop_test,89.47196616472367,
,,,,,,,,,,,,,,,,,,,,,,,,,,,,,,,,,,,,,,,,,,,,,,,,,1.902050524004153,1.921493679001287,1.921493679001287,3.984373717998096,space,2.0501297840019106,,,,,,,,,,,,,,,,,,,,,,,,,,,,,,,,,,,,,,,,,,,,,,,,,,,,sub-212,1,stroop_test,89.47196616472367,
test,yellow,g,1.0,0.0,0.0,0.0,g,1.0,0.6174622079997789,,,,,,,,,,,,,,,,,,0.0,0.0,0.0,1.0,,,,,,,,,4.016667586001859,,,,,,,,,,,,,,,,,3.9977572900024825,4.787308502003725,5.590549874003045,5.577398371999152,5.582743266000762,5.590549874003045,5.590549874003045,6.211534586000198,g,1.0,0.6174622079997789,,,,,,,,,,,,,,,,,,,,,,,,,,,,,,,,,,,,,,,,sub-212,1,stroop_test,89.47196616472367,
test,red,r,1.0,1.0,1.0,0.0,r,1.0,0.4161236380023183,,,,,,,,,,,,,,,,,,0.0,1.0,1.0,0.0,,,,,,,,,6.220569461998821,,,,,,,,,,,,,,,,,6.211837879003724,7.009627915998863,7.803938916003972,7.794254211999942,7.795067434002703,7.803938916003972,7.803938916003972,8.228547632003028,r,1.0,0.4161236380023183,,,,,,,,,,,,,,,,,,,,,,,,,,,,,,,,,,,,,,,,sub-212,1,stroop_test,89.47196616472367,
test,blue,b,1.0,2.0,2.0,0.0,b,1.0,0.5006083530024625,,,,,,,,,,,,,,,,,,0.0,2.0,2.0,2.0,,,,,,,,,8.237459632000537,,,,,,,,,,,,,,,,,8.228846714999236,8.326213439002458,9.118335977000244,9.110310419004236,9.110921644001792,9.118335977000244,9.118335977000244,9.628106237003522,b,1.0,0.5006083530024625,,,,,,,,,,,,,,,,,,,,,,,,,,,,,,,,,,,,,,,,sub-212,1,stroop_test,89.47196616472367,
test,yellow,g,1.0,3.0,0.0,1.0,g,1.0,0.3623268759984057,,,,,,,,,,,,,,,,,,1.0,0.0,3.0,1.0,,,,,,,,,9.637547341000754,,,,,,,,,,,,,,,,,9.62845485300204,9.976190193003276,10.76851111400174,10.760332170997572,10.76092519100348,10.76851111400174,10.76851111400174,11.137894434999907,g,1.0,0.3623268759984057,,,,,,,,,,,,,,,,,,,,,,,,,,,,,,,,,,,,,,,,sub-212,1,stroop_test,89.47196616472367,
test,blue,b,1.0,4.0,1.0,1.0,b,1.0,0.3085548080052831,,,,,,,,,,,,,,,,,,1.0,1.0,4.0,2.0,,,,,,,,,11.148416602001816,,,,,,,,,,,,,,,,,11.13825837100012,11.9343530690021,12.727053784001328,12.717946860000666,12.718584207999813,12.727053784001328,12.727053784001328,13.038216606997594,b,1.0,0.3085548080052831,,,,,,,,,,,,,,,,,,,,,,,,,,,,,,,,,,,,,,,,sub-212,1,stroop_test,89.47196616472367,
test,red,r,1.0,5.0,2.0,1.0,r,1.0,0.5156543129996862,,,,,,,,,,,,,,,,,,1.0,2.0,5.0,0.0,,,,,,,,,13.048847186997593,,,,,,,,,,,,,,,,,13.038815607003926,13.833677570000871,14.629611958000169,14.617993951003882,14.618785188999029,14.629611958000169,14.629611958000169,15.153609070002858,r,1.0,0.5156543129996862,,,,,,,,,,,,,,,,,,,,,,,,,,,,,,,,,,,,,,,,sub-212,1,stroop_test,89.47196616472367,
test,yellow,g,1.0,6.0,0.0,2.0,g,1.0,0.3439025970001239,,,,,,,,,,,,,,,,,,2.0,0.0,6.0,1.0,,,,,,,,,15.163707462001184,,,,,,,,,,,,,,,,,15.153984949000003,15.949609825998778,16.758646050999232,16.73417170999892,16.734971760000917,16.758646050999232,16.758646050999232,17.11091058600141,g,1.0,0.3439025970001239,,,,,,,,,,,,,,,,,,,,,,,,,,,,,,,,,,,,,,,,sub-212,1,stroop_test,89.47196616472367,
test,blue,b,1.0,7.0,1.0,2.0,b,1.0,0.5914045259996783,,,,,,,,,,,,,,,,,,2.0,1.0,7.0,2.0,,,,,,,,,17.11985710800218,,,,,,,,,,,,,,,,,17.111183924003853,17.209610717000032,18.00303050399816,17.993790295004146,17.994559509999817,18.00303050399816,18.00303050399816,18.602080037999254,b,1.0,0.5914045259996783,,,,,,,,,,,,,,,,,,,,,,,,,,,,,,,,,,,,,,,,sub-212,1,stroop_test,89.47196616472367,
test,red,r,1.0,8.0,2.0,2.0,r,1.0,0.3313136479991954,,,,,,,,,,,,,,,,,,2.0,2.0,8.0,0.0,,,,,,,,,18.61289206299989,,,,,,,,,,,,,,,,,18.602397009002743,19.800283192002095,20.593741848002537,20.584060740002315,20.584676931001013,20.593741848002537,20.593741848002537,20.92790409400186,r,1.0,0.3313136479991954,,,,,,,,,,,,,,,,,,,,,,,,,,,,,,,,,,,,,,,,sub-212,1,stroop_test,89.47196616472367,
test,blue,b,1.0,9.0,0.0,3.0,b,1.0,0.281028438002977,,,,,,,,,,,,,,,,,,3.0,0.0,9.0,2.0,,,,,,,,,20.93687956999929,,,,,,,,,,,,,,,,,20.92820145100268,21.726985180001066,22.519373969997105,22.510651172000507,22.51124044199969,22.519373969997105,22.519373969997105,22.81237911200151,b,1.0,0.281028438002977,,,,,,,,,,,,,,,,,,,,,,,,,,,,,,,,,,,,,,,,sub-212,1,stroop_test,89.47196616472367,
test,red,r,1.0,10.0,1.0,3.0,r,1.0,0.4152738190023228,,,,,,,,,,,,,,,,,,3.0,1.0,10.0,0.0,,,,,,,,,22.822790835998603,,,,,,,,,,,,,,,,,22.812784677997115,22.92740755200066,23.72608785900229,23.71567383900401,23.716284449998057,23.72608785900229,23.72608785900229,24.15185878900229,r,1.0,0.4152738190023228,,,,,,,,,,,,,,,,,,,,,,,,,,,,,,,,,,,,,,,,sub-212,1,stroop_test,89.47196616472367,
test,yellow,g,1.0,11.0,2.0,3.0,g,1.0,0.5247414609984844,,,,,,,,,,,,,,,,,,3.0,2.0,11.0,1.0,,,,,,,,,24.16392078500212,,,,,,,,,,,,,,,,,24.15222853299929,24.50118080699758,25.29625873100304,25.285205756001236,25.28599274800217,25.29625873100304,25.29625873100304,25.828709959998378,g,1.0,0.5247414609984844,,,,,,,,,,,,,,,,,,,,,,,,,,,,,,,,,,,,,,,,sub-212,1,stroop_test,89.47196616472367,
,,,,,,,,,,,,,,,,,,,,,,,,,,,,,,,,,,,,,,,,,,,,,,,,,,,,,,,,,,,,,,,,,,,,25.82887050700083,25.840518598000926,25.840518598000926,27.15728572299849,space,1.3103368660013075,,,,,,,,,,,,,,,,,,,,,,,,,,,,,,,,,sub-212,1,stroop_test,89.47196616472367,
,,,,0.0,0.0,0.0,,,,,blau,yellow,g,0.0,g,1.0,0.6844448949996149,,,,,,,,,,,,,,0.0,0.0,0.0,7.0,,,,,27.179764999003964,,,,,,,,,,,,,,,,,27.16877691300033,27.9501556000032,28.749738546001023,28.73428211500141,,,,,,,,,,,,,,,,28.74086495600204,28.749738546001023,28.749738546001023,29.445224456998403,g,1.0,0.6844448949996149,,29.45089430000371,29.47641684100381,30.45005651000247,,,,,,,,,,,,,,,,,,,,,sub-212,1,stroop_test,89.47196616472367,
,,,,1.0,1.0,0.0,,,,,rot,blue,b,0.0,b,1.0,0.4685173370016855,,,,,,,,,,,,,,0.0,1.0,1.0,2.0,,,,,30.459500801000104,,,,,,,,,,,,,,,,,30.450661490998755,30.793158214997675,31.58856060099788,31.576984227998764,,,,,,,,,,,,,,,,31.58091965100175,31.58856060099788,31.58856060099788,32.061012411002594,b,1.0,0.4685173370016855,,32.06147733800026,32.071688331001496,33.06023900100263,33.067471827998816,,,,,,,,,,,,,,,,,,,,sub-212,1,stroop_test,89.47196616472367,
,,,,2.0,2.0,0.0,,,,,rot,yellow,g,0.0,g,1.0,0.5154573920008261,,,,,,,,,,,,,,0.0,2.0,2.0,3.0,,,,,33.067471827998816,,,,,,,,,,,,,,,,,33.06079130600119,33.85906448300375,34.65148518299975,34.643497014003515,,,,,,,,,,,,,,,,34.64409881699976,34.65148518299975,34.65148518299975,35.169407918001525,g,1.0,0.5154573920008261,,35.16995985500398,35.18090766900423,36.16722329700133,36.17582579800364,,,,,,,,,,,,,,,,,,,,sub-212,1,stroop_test,89.47196616472367,
,,,,3.0,3.0,0.0,,,,,blau,red,r,0.0,r,1.0,0.6561124889994971,,,,,,,,,,,,,,0.0,3.0,3.0,4.0,,,,,36.17582579800364,,,,,,,,,,,,,,,,,36.1676531789999,36.266234280999925,37.062815645003866,37.05066265200003,,,,,,,,,,,,,,,,37.05373824400158,37.062815645003866,37.062815645003866,37.72755759300344,r,1.0,0.6561124889994971,,37.728029953999794,37.73811125299835,38.726571744002285,38.73355607099802,,,,,,,,,,,,,,,,,,,,sub-212,1,stroop_test,89.47196616472367,
,,,,4.0,4.0,0.0,,,,,gelb,blue,b,0.0,b,1.0,0.393050177997793,,,,,,,,,,,,,,0.0,4.0,4.0,9.0,,,,,38.73355607099802,,,,,,,,,,,,,,,,,38.72696818099939,39.92562662000273,40.7205306600008,40.70964409899898,,,,,,,,,,,,,,,,40.71316880600352,40.7205306600008,40.7205306600008,41.1177006900034,b,1.0,0.393050177997793,,41.11817293700005,41.13004942700354,42.11699516200315,42.125744559998566,,,,,,,,,,,,,,,,,,,,sub-212,1,stroop_test,89.47196616472367,
,,,,5.0,5.0,0.0,,,,,gelb,red,r,0.0,g,0.0,0.4020637139983591,,,,,,,,,,,,,,0.0,5.0,5.0,8.0,,,,,42.125744559998566,,,,,,,,,,,,,,,,,42.117519482002535,42.91560578699864,43.71236037500057,43.70101252399763,,,,,,,,,,,,,,,,43.701801597002486,43.71236037500057,43.71236037500057,44.1211215220028,g,0.0,0.4020637139983591,,44.12509195900202,44.13640944100189,45.12589954199939,,,,,,,,,,,,,,,,,,,,,sub-212,1,stroop_test,89.47196616472367,
,,,,6.0,6.0,0.0,,,,,blau,blue,b,1.0,b,1.0,0.5952730440039886,,,,,,,,,,,,,,0.0,6.0,6.0,6.0,,,,,45.13292000599904,,,,,,,,,,,,,,,,,45.12632127699908,45.91664532000141,46.714780278001854,46.70200765399932,,,,,,,,,,,,,,,,46.70596105499863,46.714780278001854,46.714780278001854,47.31538244299736,b,1.0,0.5952730440039886,,47.31813280600181,47.32995376799954,48.31897755499813,,,,,,,,,,,,,,,,,,,,,sub-212,1,stroop_test,89.47196616472367,
,,,,7.0,7.0,0.0,,,,,rot,red,r,1.0,r,1.0,0.3791158029998769,,,,,,,,,,,,,,0.0,7.0,7.0,1.0,,,,,48.342290533997584,,,,,,,,,,,,,,,,,48.31958273000055,49.109144428002764,49.90368729399779,49.89336212500348,,,,,,,,,,,,,,,,49.896125074003066,49.90368729399779,49.90368729399779,50.28615439400164,r,1.0,0.3791158029998769,,50.28667471199879,50.29794388900336,51.28357027099992,51.29229235299863,,,,,,,,,,,,,,,,,,,,sub-212,1,stroop_test,89.47196616472367,
,,,,8.0,8.0,0.0,,,,,gelb,yellow,g,1.0,g,1.0,0.4673599620000459,,,,,,,,,,,,,,0.0,8.0,8.0,11.0,,,,,51.29229235299863,,,,,,,,,,,,,,,,,51.28398798499984,52.08300878199952,52.87941005000175,52.86751087500306,,,,,,,,,,,,,,,,52.87083403800352,52.87941005000175,52.87941005000175,53.35236573000293,g,1.0,0.4673599620000459,,53.35291551899718,53.36387479100085,54.35024929400242,54.35898841100425,,,,,,,,,,,,,,,,,,,,sub-212,1,stroop_test,89.47196616472367,
,,,,9.0,9.0,0.0,,,,,rot,red,r,1.0,r,1.0,0.6460417169946595,,,,,,,,,,,,,,0.0,9.0,9.0,0.0,,,,,54.35898841100425,,,,,,,,,,,,,,,,,54.3505924409983,54.69966074100376,55.50369520499953,55.49277796900424,,,,,,,,,,,,,,,,55.49604858300154,55.50369520499953,55.50369520499953,56.15181668099831,r,1.0,0.6460417169946595,,56.15241649100062,56.163520157002495,57.150064307999855,57.1587487220022,,,,,,,,,,,,,,,,,,,,sub-212,1,stroop_test,89.47196616472367,
,,,,10.0,10.0,0.0,,,,,blau,blue,b,1.0,b,1.0,0.4278309140063356,,,,,,,,,,,,,,0.0,10.0,10.0,5.0,,,,,57.1587487220022,,,,,,,,,,,,,,,,,57.15047926900297,57.248859854997136,58.0457325469979,58.03301943599945,,,,,,,,,,,,,,,,58.03724911300378,58.0457325469979,58.0457325469979,58.47741615700215,b,1.0,0.4278309140063356,,58.47789125300187,58.48816659099976,59.47622611800034,59.48331412100379,,,,,,,,,,,,,,,,,,,,sub-212,1,stroop_test,89.47196616472367,
,,,,11.0,11.0,0.0,,,,,gelb,yellow,g,1.0,g,1.0,0.5963717449994874,,,,,,,,,,,,,,0.0,11.0,11.0,10.0,,,,,59.48331412100379,,,,,,,,,,,,,,,,,59.47664020400407,59.57549469899823,60.37024667600053,60.35946095200052,,,,,,,,,,,,,,,,60.3625363980027,60.37024667600053,60.37024667600053,60.96905321800296,g,1.0,0.5963717449994874,,60.96960271400167,60.98030397699768,61.96715635999863,61.9754513250009,,,,,,,,,,,,,,,,,,,,sub-212,1,stroop_test,89.47196616472367,
,,,,12.0,0.0,1.0,,,,,rot,red,r,1.0,r,1.0,0.4314647020000848,,,,,,,,,,,,,,1.0,0.0,12.0,0.0,,,,,61.9754513250009,,,,,,,,,,,,,,,,,61.96758834300272,62.066017924000334,62.86300273300003,62.85014717900049,,,,,,,,,,,,,,,,62.85327473800135,62.86300273300003,62.86300273300003,63.304067949000455,r,1.0,0.4314647020000848,,63.304813009999634,63.31559258799825,64.30009571499977,64.30885968499933,,,,,,,,,,,,,,,,,,,,sub-212,1,stroop_test,89.47196616472367,
,,,,13.0,1.0,1.0,,,,,gelb,yellow,g,1.0,g,1.0,0.5985588350013131,,,,,,,,,,,,,,1.0,1.0,13.0,11.0,,,,,64.30885968499933,,,,,,,,,,,,,,,,,64.30053555699851,64.64913053099735,65.44611949299724,65.43367200800276,,,,,,,,,,,,,,,,65.43724693100376,65.44611949299724,65.44611949299724,66.05329838499893,g,1.0,0.5985588350013131,,66.05391710399999,66.06495154000004,67.05037085500226,67.05875770399871,,,,,,,,,,,,,,,,,,,,sub-212,1,stroop_test,89.47196616472367,
,,,,14.0,2.0,1.0,,,,,gelb,yellow,g,1.0,g,1.0,0.5488308390049497,,,,,,,,,,,,,,1.0,2.0,14.0,10.0,,,,,67.05875770399871,,,,,,,,,,,,,,,,,67.05078494500049,67.1490340149976,67.94219123700168,67.9333750759979,,,,,,,,,,,,,,,,67.93398552400322,67.94219123700168,67.94219123700168,68.49466681500053,g,1.0,0.5488308390049497,,68.49521358300262,68.50482773999829,69.49294897099753,69.49957757799712,,,,,,,,,,,,,,,,,,,,sub-212,1,stroop_test,89.47196616472367,
,,,,15.0,3.0,1.0,,,,,rot,red,r,1.0,r,1.0,0.58950403000199,,,,,,,,,,,,,,1.0,3.0,15.0,1.0,,,,,69.49957757799712,,,,,,,,,,,,,,,,,69.49336932800361,69.8421446680004,70.63712533200305,70.6261914650022,,,,,,,,,,,,,,,,70.62941456199769,70.63712533200305,70.63712533200305,71.23593506999896,r,1.0,0.58950403000199,,71.23659614499775,71.24828866199823,72.23328461399797,72.24213419599982,,,,,,,,,,,,,,,,,,,,sub-212,1,stroop_test,89.47196616472367,
,,,,16.0,4.0,1.0,,,,,blau,yellow,g,0.0,g,1.0,1.1335391999964486,,,,,,,,,,,,,,1.0,4.0,16.0,7.0,,,,,72.24213419599982,,,,,,,,,,,,,,,,,72.23372460599785,72.58238698499918,73.37890991500171,73.36695695899834,,,,,,,,,,,,,,,,73.37020745799964,73.37890991500171,73.37890991500171,74.51829229499708,g,1.0,1.1335391999964486,,74.51876616600202,74.5290354480021,75.51680765699712,75.52526274500269,,,,,,,,,,,,,,,,,,,,sub-212,1,stroop_test,89.47196616472367,
,,,,17.0,5.0,1.0,,,,,blau,red,r,0.0,r,1.0,0.565347734001989,,,,,,,,,,,,,,1.0,5.0,17.0,4.0,,,,,75.52526274500269,,,,,,,,,,,,,,,,,75.5172201930036,75.86609301999852,76.6585965589984,76.64975960700394,,,,,,,,,,,,,,,,76.65038084499975,76.6585965589984,76.6585965589984,77.22716113999923,r,1.0,0.565347734001989,,77.2276296170021,77.23744417600392,78.22834604100353,78.23666032899928,,,,,,,,,,,,,,,,,,,,sub-212,1,stroop_test,89.47196616472367,
,,,,18.0,6.0,1.0,,,,,gelb,blue,b,0.0,b,1.0,0.714717021000979,,,,,,,,,,,,,,1.0,6.0,18.0,9.0,,,,,78.23666032899928,,,,,,,,,,,,,,,,,78.22885459900135,78.32514474500204,79.12030230199889,79.1091072670024,,,,,,,,,,,,,,,,79.11301251999976,79.12030230199889,79.12030230199889,79.84380542600411,b,1.0,0.714717021000979,,79.84436562799965,79.85386551400006,80.8425245949984,80.84917737299838,,,,,,,,,,,,,,,,,,,,sub-212,1,stroop_test,89.47196616472367,
,,,,19.0,7.0,1.0,,,,,rot,yellow,g,0.0,g,1.0,0.896147468003619,,,,,,,,,,,,,,1.0,7.0,19.0,3.0,,,,,80.84917737299838,,,,,,,,,,,,,,,,,80.84293823299959,81.64161561400397,82.43614311899728,82.42579760600347,,,,,,,,,,,,,,,,82.42871337300312,82.43614311899728,82.43614311899728,83.3350263100001,g,1.0,0.896147468003619,,83.33565826700215,83.34673356600251,84.33286942200357,84.34156068899756,,,,,,,,,,,,,,,,,,,,sub-212,1,stroop_test,89.47196616472367,
,,,,20.0,8.0,1.0,,,,,blau,blue,b,1.0,b,1.0,0.5721113899999182,,,,,,,,,,,,,,1.0,8.0,20.0,5.0,,,,,84.34156068899756,,,,,,,,,,,,,,,,,84.33328313699894,84.43213426000148,85.2287518689991,85.21653755899752,,,,,,,,,,,,,,,,85.21986557199853,85.2287518689991,85.2287518689991,85.81111471499753,b,1.0,0.5721113899999182,,85.81170758100052,85.82151093299763,86.80929270300112,86.81604537900421,,,,,,,,,,,,,,,,,,,,sub-212,1,stroop_test,89.47196616472367,
,,,,21.0,9.0,1.0,,,,,gelb,red,r,0.0,r,1.0,0.7551337639961275,,,,,,,,,,,,,,1.0,9.0,21.0,8.0,,,,,86.81604537900421,,,,,,,,,,,,,,,,,86.8097693009986,86.9082937810017,87.70314574000076,87.69248940599937,,,,,,,,,,,,,,,,87.69565534799767,87.70314574000076,87.70314574000076,88.46113063899975,r,1.0,0.7551337639961275,,88.46181226999761,88.47213313000248,89.4590823910039,89.46571011900232,,,,,,,,,,,,,,,,,,,,sub-212,1,stroop_test,89.47196616472367,
,,,,22.0,10.0,1.0,,,,,blau,blue,b,1.0,b,1.0,0.5713067369943019,,,,,,,,,,,,,,1.0,10.0,22.0,6.0,,,,,89.46571011900232,,,,,,,,,,,,,,,,,89.4594857810007,90.2580442460021,91.05314076899958,91.04248287800146,,,,,,,,,,,,,,,,91.04545374499868,91.05314076899958,91.05314076899958,91.62770653500048,b,1.0,0.5713067369943019,,91.62820767000083,91.63726979999774,92.62591283200165,92.6327174850012,,,,,,,,,,,,,,,,,,,,sub-212,1,stroop_test,89.47196616472367,
,,,,23.0,11.0,1.0,,,,,rot,blue,b,0.0,b,1.0,0.6496461219940102,,,,,,,,,,,,,,1.0,11.0,23.0,2.0,,,,,92.6327174850012,,,,,,,,,,,,,,,,,92.62632517699969,93.42508796499897,94.22116130500216,94.20933428400168,,,,,,,,,,,,,,,,94.21319883000253,94.22116130500216,94.22116130500216,94.87696183499791,b,1.0,0.6496461219940102,,94.87743605099968,94.887098539999,95.87599990000308,95.8858033889992,,,,,,,,,,,,,,,,,,,,sub-212,1,stroop_test,89.47196616472367,
,,,,,,,,,,,,,,,,,,,,,,,,,,,,,,,,,,,,,,,,,,,,,,,,,,,,,,,,,,,,,,,,,,,,,,,,,,,,,,,,,,,,,,,95.87619034999808,95.8858033889992,95.8858033889992,98.06637181599945,space,2.172723639007017,,,,,,,,,,,,,,sub-212,1,stroop_test,89.47196616472367,
,,,,0.0,0.0,0.0,,,,,,,,,,,,,rot,red,r,1.0,r,1.0,0.5501479219965404,,,,,,,,,,0.0,0.0,0.0,0.0,98.08338652500242,,,,,,,,,,,,,,,,,98.07471950099716,98.41512354400038,99.21265375999792,99.19956664100027,,,,,,,,,,,,,,,,,,,,,,,,,,,,,,,,,,,99.20381342100154,99.21265375999792,99.21265375999792,99.767602730004,r,1.0,0.5501479219965404,,,,,,sub-212,1,stroop_test,89.47196616472367,
,,,,1.0,1.0,0.0,,,,,,,,,,,,,rot,blue,b,0.0,b,1.0,0.5150664030006737,,,,,,,,,,0.0,1.0,1.0,2.0,99.77820960900137,,,,,,,,,,,,,,,,,99.76794284099742,100.11449981600164,100.90913175300376,100.89970307100155,,,,,,,,,,,,,,,,,,,,,,,,,,,,,,,,,,,100.90032736300054,100.90913175300376,100.90913175300376,101.4264339930014,b,1.0,0.5150664030006737,,,,,,sub-212,1,stroop_test,89.47196616472367,
,,,,2.0,2.0,0.0,,,,,,,,,,,,,gelb,blue,b,0.0,b,1.0,0.5957540929957759,,,,,,,,,,0.0,2.0,2.0,9.0,101.43505178600026,,,,,,,,,,,,,,,,,101.42678308999892,102.6247137149985,103.42056213499744,103.40909140500298,,,,,,,,,,,,,,,,,,,,,,,,,,,,,,,,,,,103.41286022499844,103.42056213499744,103.42056213499744,104.02934381399972,b,1.0,0.5957540929957759,,,,,,sub-212,1,stroop_test,89.47196616472367,
,,,,3.0,3.0,0.0,,,,,,,,,,,,,blau,blue,b,1.0,b,1.0,0.6235073749994626,,,,,,,,,,0.0,3.0,3.0,6.0,104.04143200399994,,,,,,,,,,,,,,,,,104.02964935600176,104.12497568200342,104.92116012900078,104.90920018900216,,,,,,,,,,,,,,,,,,,,,,,,,,,,,,,,,,,104.91298686200024,104.92116012900078,104.92116012900078,105.55151344300248,b,1.0,0.6235073749994626,,,,,,sub-212,1,stroop_test,89.47196616472367,
,,,,4.0,4.0,0.0,,,,,,,,,,,,,gelb,red,r,0.0,r,1.0,0.5035794030045508,,,,,,,,,,0.0,4.0,4.0,8.0,105.56262061400048,,,,,,,,,,,,,,,,,105.55185777899896,105.6489276630018,106.44559778200346,106.43260261799878,,,,,,,,,,,,,,,,,,,,,,,,,,,,,,,,,,,106.43568136799875,106.44559778200346,106.44559778200346,106.95176824000372,r,1.0,0.5035794030045508,,,,,,sub-212,1,stroop_test,89.47196616472367,
,,,,5.0,5.0,0.0,,,,,,,,,,,,,blau,blue,b,1.0,b,1.0,0.5192701220003073,,,,,,,,,,0.0,5.0,5.0,5.0,106.96266508400004,,,,,,,,,,,,,,,,,106.9521727399988,108.14832166900304,108.9454377410002,108.933332366003,,,,,,,,,,,,,,,,,,,,,,,,,,,,,,,,,,,108.93659245099845,108.9454377410002,108.9454377410002,109.4673939150016,b,1.0,0.5192701220003073,,,,,,sub-212,1,stroop_test,89.47196616472367,
,,,,6.0,6.0,0.0,,,,,,,,,,,,,blau,red,r,0.0,r,1.0,0.5867252890020609,,,,,,,,,,0.0,6.0,6.0,4.0,109.4784531789992,,,,,,,,,,,,,,,,,109.4677967969983,110.66540660899771,111.459066479998,111.44925385699752,,,,,,,,,,,,,,,,,,,,,,,,,,,,,,,,,,,111.44976379100262,111.459066479998,111.459066479998,112.04931467799906,r,1.0,0.5867252890020609,,,,,,sub-212,1,stroop_test,89.47196616472367,
,,,,7.0,7.0,0.0,,,,,,,,,,,,,blau,yellow,g,0.0,g,1.0,0.5194207649983582,,,,,,,,,,0.0,7.0,7.0,7.0,112.0569067260003,,,,,,,,,,,,,,,,,112.04957709500012,112.84748130699882,113.64179448100184,113.63263537699822,,,,,,,,,,,,,,,,,,,,,,,,,,,,,,,,,,,113.63324582100176,113.64179448100184,113.64179448100184,114.16809888999704,g,1.0,0.5194207649983582,,,,,,sub-212,1,stroop_test,89.47196616472367,
,,,,8.0,8.0,0.0,,,,,,,,,,,,,rot,red,r,1.0,r,1.0,0.5690307499971823,,,,,,,,,,0.0,8.0,8.0,1.0,114.1791482109984,,,,,,,,,,,,,,,,,114.16845837100118,114.51529475700228,115.31331191299978,115.29975015699893,,,,,,,,,,,,,,,,,,,,,,,,,,,,,,,,,,,115.3040902089997,115.31331191299978,115.31331191299978,115.88493456399738,r,1.0,0.5690307499971823,,,,,,sub-212,1,stroop_test,89.47196616472367,
,,,,9.0,9.0,0.0,,,,,,,,,,,,,gelb,yellow,g,1.0,g,1.0,0.5248164030053886,,,,,,,,,,0.0,9.0,9.0,11.0,115.89587514899904,,,,,,,,,,,,,,,,,115.88528493200285,117.08162969000114,117.87846975799766,117.86604635899856,,,,,,,,,,,,,,,,,,,,,,,,,,,,,,,,,,,117.86890217300244,117.87846975799766,117.87846975799766,118.40988249600196,g,1.0,0.5248164030053886,,,,,,sub-212,1,stroop_test,89.47196616472367,
,,,,10.0,10.0,0.0,,,,,,,,,,,,,gelb,yellow,g,1.0,g,1.0,0.4723273319978034,,,,,,,,,,0.0,10.0,10.0,10.0,118.41940305699973,,,,,,,,,,,,,,,,,118.4102404639998,119.20809770000052,120.00026973299828,119.99206024500018,,,,,,,,,,,,,,,,,,,,,,,,,,,,,,,,,,,119.99270954199892,120.00026973299828,120.00026973299828,120.47680928499904,g,1.0,0.4723273319978034,,,,,,sub-212,1,stroop_test,89.47196616472367,
,,,,11.0,11.0,0.0,,,,,,,,,,,,,rot,yellow,g,0.0,g,1.0,0.5655877440003678,,,,,,,,,,0.0,11.0,11.0,3.0,120.48564996800268,,,,,,,,,,,,,,,,,120.47721798300336,120.82446242900188,121.61900495999726,121.6086284310004,,,,,,,,,,,,,,,,,,,,,,,,,,,,,,,,,,,121.61160113900404,121.61900495999726,121.61900495999726,122.19312521399844,g,1.0,0.5655877440003678,,,,,,sub-212,1,stroop_test,89.47196616472367,
,,,,12.0,0.0,1.0,,,,,,,,,,,,,rot,red,r,1.0,r,1.0,0.5801703059987631,,,,,,,,,,1.0,0.0,12.0,1.0,122.201879870001,,,,,,,,,,,,,,,,,122.19346082000266,122.54134597800294,123.33356343599736,123.32557506999729,,,,,,,,,,,,,,,,,,,,,,,,,,,,,,,,,,,123.3261381830016,123.33356343599736,123.33356343599736,123.91770139599976,r,1.0,0.5801703059987631,,,,,,sub-212,1,stroop_test,89.47196616472367,
,,,,13.0,1.0,1.0,,,,,,,,,,,,,rot,red,r,1.0,r,1.0,0.4998885910026729,,,,,,,,,,1.0,1.0,13.0,0.0,123.92880387399782,,,,,,,,,,,,,,,,,123.91804397800296,125.11504780300312,125.9082487190026,125.89955448699766,,,,,,,,,,,,,,,,,,,,,,,,,,,,,,,,,,,125.90019347499764,125.9082487190026,125.9082487190026,126.41073199299716,r,1.0,0.4998885910026729,,,,,,sub-212,1,stroop_test,89.47196616472367,
,,,,14.0,2.0,1.0,,,,,,,,,,,,,blau,red,r,0.0,r,1.0,0.5486441679968266,,,,,,,,,,1.0,2.0,14.0,4.0,126.4209933710008,,,,,,,,,,,,,,,,,126.41108132299996,126.75794591600425,127.5526978659982,127.542091041003,,,,,,,,,,,,,,,,,,,,,,,,,,,,,,,,,,,127.5450619330004,127.5526978659982,127.5526978659982,128.10905388800165,r,1.0,0.5486441679968266,,,,,,sub-212,1,stroop_test,89.47196616472367,
,,,,15.0,3.0,1.0,,,,,,,,,,,,,gelb,red,r,0.0,r,1.0,0.5297255129989935,,,,,,,,,,1.0,3.0,15.0,8.0,128.11734649300342,,,,,,,,,,,,,,,,,128.10932510400016,128.20790468699852,129.00364920299762,128.99200170500262,,,,,,,,,,,,,,,,,,,,,,,,,,,,,,,,,,,128.9956330979985,129.00364920299762,129.00364920299762,129.5475251559983,r,1.0,0.5297255129989935,,,,,,sub-212,1,stroop_test,89.47196616472367,
,,,,16.0,4.0,1.0,,,,,,,,,,,,,gelb,yellow,g,1.0,g,1.0,0.5080612189995009,,,,,,,,,,1.0,4.0,16.0,11.0,129.5577575569987,,,,,,,,,,,,,,,,,129.54805633700016,129.64120764200197,130.43387747400266,130.42544140200334,,,,,,,,,,,,,,,,,,,,,,,,,,,,,,,,,,,130.4260462279999,130.43387747400266,130.43387747400266,130.9440541360018,g,1.0,0.5080612189995009,,,,,,sub-212,1,stroop_test,89.47196616472367,
,,,,17.0,5.0,1.0,,,,,,,,,,,,,gelb,blue,b,0.0,b,1.0,0.4436522050018538,,,,,,,,,,1.0,5.0,17.0,9.0,130.95314445599797,,,,,,,,,,,,,,,,,130.9444077529988,131.04118343700247,131.8338135169979,131.82529780599725,,,,,,,,,,,,,,,,,,,,,,,,,,,,,,,,,,,131.8258895359977,131.8338135169979,131.8338135169979,132.284101862002,b,1.0,0.4436522050018538,,,,,,sub-212,1,stroop_test,89.47196616472367,
,,,,18.0,6.0,1.0,,,,,,,,,,,,,blau,blue,b,1.0,b,1.0,0.5195015520002926,,,,,,,,,,1.0,6.0,18.0,6.0,132.29490901600366,,,,,,,,,,,,,,,,,132.2844390340033,132.63131116200384,133.42838865199883,133.41635800099905,,,,,,,,,,,,,,,,,,,,,,,,,,,,,,,,,,,133.41974774900154,133.42838865199883,133.42838865199883,133.9502967169974,b,1.0,0.5195015520002926,,,,,,sub-212,1,stroop_test,89.47196616472367,
,,,,19.0,7.0,1.0,,,,,,,,,,,,,rot,blue,b,0.0,b,1.0,0.4477785189956194,,,,,,,,,,1.0,7.0,19.0,2.0,133.96157153900276,,,,,,,,,,,,,,,,,133.95064394800283,134.74830075899808,135.5459372289988,135.5327013970018,,,,,,,,,,,,,,,,,,,,,,,,,,,,,,,,,,,135.53704626500257,135.5459372289988,135.5459372289988,136.00124283100013,b,1.0,0.4477785189956194,,,,,,sub-212,1,stroop_test,89.47196616472367,
,,,,20.0,8.0,1.0,,,,,,,,,,,,,rot,yellow,g,0.0,g,1.0,0.6665218179987278,,,,,,,,,,1.0,8.0,20.0,3.0,136.01156317999994,,,,,,,,,,,,,,,,,136.00158579699928,136.79827520500112,137.60717142200156,137.58282492199942,,,,,,,,,,,,,,,,,,,,,,,,,,,,,,,,,,,137.58353826500388,137.60717142200156,137.60717142200156,138.27569391499856,g,1.0,0.6665218179987278,,,,,,sub-212,1,stroop_test,89.47196616472367,
,,,,21.0,9.0,1.0,,,,,,,,,,,,,blau,blue,b,1.0,b,1.0,0.6370820689990069,,,,,,,,,,1.0,9.0,21.0,5.0,138.28435364500183,,,,,,,,,,,,,,,,,138.276044541999,138.62408381899877,139.41838711900346,139.40817596400302,,,,,,,,,,,,,,,,,,,,,,,,,,,,,,,,,,,139.41111219100276,139.41838711900346,139.41838711900346,140.05920760599838,b,1.0,0.6370820689990069,,,,,,sub-212,1,stroop_test,89.47196616472367,
,,,,22.0,10.0,1.0,,,,,,,,,,,,,blau,yellow,g,0.0,g,1.0,0.5234993159974692,,,,,,,,,,1.0,10.0,22.0,7.0,140.06781949900324,,,,,,,,,,,,,,,,,140.05954478900094,141.25733426499937,142.04930364200118,142.04160619300092,,,,,,,,,,,,,,,,,,,,,,,,,,,,,,,,,,,142.04220139400422,142.04930364200118,142.04930364200118,142.57606900900282,g,1.0,0.5234993159974692,,,,,,sub-212,1,stroop_test,89.47196616472367,
,,,,23.0,11.0,1.0,,,,,,,,,,,,,gelb,yellow,g,1.0,g,1.0,0.3939950229978421,,,,,,,,,,1.0,11.0,23.0,10.0,142.58467770399875,,,,,,,,,,,,,,,,,142.57646521700372,143.3741968329996,144.1687244440036,144.15806055199937,,,,,,,,,,,,,,,,,,,,,,,,,,,,,,,,,,,144.16130128999794,144.1687244440036,144.1687244440036,144.56685689200094,g,1.0,0.3939950229978421,,,,,,sub-212,1,stroop_test,89.47196616472367,
,,,,24.0,0.0,2.0,,,,,,,,,,,,,blau,blue,b,1.0,b,1.0,0.4865437640037271,,,,,,,,,,2.0,0.0,24.0,5.0,144.5775174349983,,,,,,,,,,,,,,,,,144.56720120100363,145.36414324700308,146.16148164200422,146.1486727340016,,,,,,,,,,,,,,,,,,,,,,,,,,,,,,,,,,,146.1517979249984,146.16148164200422,146.16148164200422,146.6505679969996,b,1.0,0.4865437640037271,,,,,,sub-212,1,stroop_test,89.47196616472367,
,,,,25.0,1.0,2.0,,,,,,,,,,,,,rot,blue,b,0.0,b,1.0,0.6458360749966232,,,,,,,,,,2.0,1.0,25.0,2.0,146.66128247899906,,,,,,,,,,,,,,,,,146.65093415100273,146.99795189699944,147.7948966440017,147.78239002099872,,,,,,,,,,,,,,,,,,,,,,,,,,,,,,,,,,,147.78595837399916,147.7948966440017,147.7948966440017,148.4432610330041,b,1.0,0.6458360749966232,,,,,,sub-212,1,stroop_test,89.47196616472367,
,,,,26.0,2.0,2.0,,,,,,,,,,,,,gelb,blue,b,0.0,b,1.0,0.3741790400017635,,,,,,,,,,2.0,2.0,26.0,9.0,148.4523698109988,,,,,,,,,,,,,,,,,148.44365606099743,148.79096492299868,149.58568291600386,149.57505155700346,,,,,,,,,,,,,,,,,,,,,,,,,,,,,,,,,,,149.5779369619995,149.58568291600386,149.58568291600386,149.96786412000074,b,1.0,0.3741790400017635,,,,,,sub-212,1,stroop_test,89.47196616472367,
,,,,27.0,3.0,2.0,,,,,,,,,,,,,rot,yellow,g,0.0,g,1.0,1.2043967740028163,,,,,,,,,,2.0,3.0,27.0,3.0,149.97866128500027,,,,,,,,,,,,,,,,,149.96820077399752,150.31394436299888,151.11096401899704,151.0992336069976,,,,,,,,,,,,,,,,,,,,,,,,,,,,,,,,,,,151.1017400290002,151.11096401899704,151.11096401899704,152.31824100499944,g,1.0,1.2043967740028163,,,,,,sub-212,1,stroop_test,89.47196616472367,
,,,,28.0,4.0,2.0,,,,,,,,,,,,,gelb,red,r,0.0,r,1.0,0.5947337519974099,,,,,,,,,,2.0,4.0,28.0,8.0,152.3289510609975,,,,,,,,,,,,,,,,,152.3187187040021,153.5147978629975,154.31125448599778,154.29891761900217,,,,,,,,,,,,,,,,,,,,,,,,,,,,,,,,,,,154.3024104369979,154.31125448599778,154.31125448599778,154.90967045500292,r,1.0,0.5947337519974099,,,,,,sub-212,1,stroop_test,89.47196616472367,
,,,,29.0,5.0,2.0,,,,,,,,,,,,,rot,red,r,1.0,r,1.0,0.4379115379997529,,,,,,,,,,2.0,5.0,29.0,0.0,154.91847963100008,,,,,,,,,,,,,,,,,154.91001099900313,155.25771037999948,156.05388251200202,156.04208980900148,,,,,,,,,,,,,,,,,,,,,,,,,,,,,,,,,,,156.04565476899734,156.05388251200202,156.05388251200202,156.50085940999998,r,1.0,0.4379115379997529,,,,,,sub-212,1,stroop_test,89.47196616472367,
,,,,30.0,6.0,2.0,,,,,,,,,,,,,gelb,yellow,g,1.0,g,1.0,0.5774697630040464,,,,,,,,,,2.0,6.0,30.0,11.0,156.5117335899995,,,,,,,,,,,,,,,,,156.50126039399763,157.69786577000195,158.4946337240035,158.48236713700317,,,,,,,,,,,,,,,,,,,,,,,,,,,,,,,,,,,158.48543253500247,158.4946337240035,158.4946337240035,159.07585929200286,g,1.0,0.5774697630040464,,,,,,sub-212,1,stroop_test,89.47196616472367,
,,,,31.0,7.0,2.0,,,,,,,,,,,,,gelb,yellow,g,1.0,g,1.0,0.4199937180019333,,,,,,,,,,2.0,7.0,31.0,10.0,159.08477452700026,,,,,,,,,,,,,,,,,159.07626357299887,160.27463574300054,161.0671492620022,161.0585068090004,,,,,,,,,,,,,,,,,,,,,,,,,,,,,,,,,,,161.05910714600031,161.0671492620022,161.0671492620022,161.50985760700132,g,1.0,0.4199937180019333,,,,,,sub-212,1,stroop_test,89.47196616472367,
,,,,32.0,8.0,2.0,,,,,,,,,,,,,rot,red,r,1.0,r,1.0,0.5223427949968027,,,,,,,,,,2.0,8.0,32.0,1.0,161.52517030700255,,,,,,,,,,,,,,,,,161.51036697100062,161.85770014899754,162.65264623999974,162.6416594379989,,,,,,,,,,,,,,,,,,,,,,,,,,,,,,,,,,,162.6445531060017,162.65264623999974,162.65264623999974,163.18444191000162,r,1.0,0.5223427949968027,,,,,,sub-212,1,stroop_test,89.47196616472367,
,,,,33.0,9.0,2.0,,,,,,,,,,,,,blau,blue,b,1.0,b,1.0,0.5060459890009952,,,,,,,,,,2.0,9.0,33.0,6.0,163.1956577960009,,,,,,,,,,,,,,,,,163.18492153900297,163.2814750289981,164.07838803999766,164.06571137800347,,,,,,,,,,,,,,,,,,,,,,,,,,,,,,,,,,,164.06926864499837,164.07838803999766,164.07838803999766,164.59340022600372,b,1.0,0.5060459890009952,,,,,,sub-212,1,stroop_test,89.47196616472367,
,,,,34.0,10.0,2.0,,,,,,,,,,,,,blau,yellow,g,0.0,g,1.0,0.5720896080019884,,,,,,,,,,2.0,10.0,34.0,7.0,164.60253594799724,,,,,,,,,,,,,,,,,164.59373957900243,165.79108631599956,166.58324400700076,166.57497519499884,,,,,,,,,,,,,,,,,,,,,,,,,,,,,,,,,,,166.57560004699917,166.58324400700076,166.58324400700076,167.15915124100138,g,1.0,0.5720896080019884,,,,,,sub-212,1,stroop_test,89.47196616472367,
,,,,35.0,11.0,2.0,,,,,,,,,,,,,blau,red,r,0.0,r,1.0,0.5395741070024087,,,,,,,,,,2.0,11.0,35.0,4.0,167.1687781110013,,,,,,,,,,,,,,,,,167.15948496999772,167.9573633320033,168.75029959600215,168.74185375899833,,,,,,,,,,,,,,,,,,,,,,,,,,,,,,,,,,,168.74245998499828,168.75029959600215,168.75029959600215,169.2948858450036,r,1.0,0.5395741070024087,,,,,,sub-212,1,stroop_test,89.47196616472367,
,,,,36.0,0.0,3.0,,,,,,,,,,,,,gelb,red,r,0.0,r,1.0,0.5593370000060531,,,,,,,,,,3.0,0.0,36.0,8.0,169.30567035199783,,,,,,,,,,,,,,,,,169.29522427600023,169.3917228529972,170.1876676480024,170.17508431799797,,,,,,,,,,,,,,,,,,,,,,,,,,,,,,,,,,,170.17953465600294,170.1876676480024,170.1876676480024,170.7508895889987,r,1.0,0.5593370000060531,,,,,,sub-212,1,stroop_test,89.47196616472367,
,,,,37.0,1.0,3.0,,,,,,,,,,,,,rot,blue,b,0.0,b,1.0,0.5092164160014363,,,,,,,,,,3.0,1.0,37.0,2.0,170.76185349399748,,,,,,,,,,,,,,,,,170.75122848700266,171.94755044700287,172.74480697500258,172.73189055900002,,,,,,,,,,,,,,,,,,,,,,,,,,,,,,,,,,,172.73489547499776,172.74480697500258,172.74480697500258,173.25974692300224,b,1.0,0.5092164160014363,,,,,,sub-212,1,stroop_test,89.47196616472367,
,,,,38.0,2.0,3.0,,,,,,,,,,,,,gelb,yellow,g,1.0,g,1.0,0.4996741779978038,,,,,,,,,,3.0,2.0,38.0,10.0,173.26825548300258,,,,,,,,,,,,,,,,,173.260144357002,174.4573403530012,175.25021203399956,175.2410194719996,,,,,,,,,,,,,,,,,,,,,,,,,,,,,,,,,,,175.2427919030015,175.25021203399956,175.25021203399956,175.75868651400378,g,1.0,0.4996741779978038,,,,,,sub-212,1,stroop_test,89.47196616472367,
,,,,39.0,3.0,3.0,,,,,,,,,,,,,blau,yellow,g,0.0,g,1.0,0.6252564809983596,,,,,,,,,,3.0,3.0,39.0,7.0,175.7672515000013,,,,,,,,,,,,,,,,,175.7590234599993,176.10683830599737,176.9016212600036,176.89091286100302,,,,,,,,,,,,,,,,,,,,,,,,,,,,,,,,,,,176.89394449500105,176.9016212600036,176.9016212600036,177.5338875860034,g,1.0,0.6252564809983596,,,,,,sub-212,1,stroop_test,89.47196616472367,
,,,,40.0,4.0,3.0,,,,,,,,,,,,,gelb,blue,b,0.0,b,1.0,0.6658685809961753,,,,,,,,,,3.0,4.0,40.0,9.0,177.54481894100172,,,,,,,,,,,,,,,,,177.53422466800112,177.8806816830038,178.6781236610041,178.66520646199933,,,,,,,,,,,,,,,,,,,,,,,,,,,,,,,,,,,178.6684373600001,178.6781236610041,178.6781236610041,179.350792489,b,1.0,0.6658685809961753,,,,,,sub-212,1,stroop_test,89.47196616472367,
,,,,41.0,5.0,3.0,,,,,,,,,,,,,blau,blue,b,1.0,b,1.0,0.6479769610014046,,,,,,,,,,3.0,5.0,41.0,5.0,179.36151696099842,,,,,,,,,,,,,,,,,179.35120545599784,179.69753966999997,180.4942198360004,180.48197153399812,,,,,,,,,,,,,,,,,,,,,,,,,,,,,,,,,,,180.48532571899705,180.4942198360004,180.4942198360004,181.1503675970016,b,1.0,0.6479769610014046,,,,,,sub-212,1,stroop_test,89.47196616472367,
,,,,42.0,6.0,3.0,,,,,,,,,,,,,gelb,yellow,g,1.0,g,1.0,0.5774024199999985,,,,,,,,,,3.0,6.0,42.0,11.0,181.1613751909972,,,,,,,,,,,,,,,,,181.15077901699988,181.94753156299703,182.7445861230008,182.7316544869973,,,,,,,,,,,,,,,,,,,,,,,,,,,,,,,,,,,182.73470473100315,182.7445861230008,182.7445861230008,183.32596644399743,g,1.0,0.5774024199999985,,,,,,sub-212,1,stroop_test,89.47196616472367,
,,,,43.0,7.0,3.0,,,,,,,,,,,,,blau,red,r,0.0,r,1.0,0.711774597002659,,,,,,,,,,3.0,7.0,43.0,4.0,183.33490328599876,,,,,,,,,,,,,,,,,183.32630710599915,183.42388765000211,184.2202201780019,184.20797944899823,,,,,,,,,,,,,,,,,,,,,,,,,,,,,,,,,,,184.212311518997,184.2202201780019,184.2202201780019,184.9426365160034,r,1.0,0.711774597002659,,,,,,sub-212,1,stroop_test,89.47196616472367,
,,,,44.0,8.0,3.0,,,,,,,,,,,,,rot,red,r,1.0,r,1.0,0.5021941399973002,,,,,,,,,,3.0,8.0,44.0,1.0,184.9511793810016,,,,,,,,,,,,,,,,,184.94302781199804,185.2907495920008,186.08641832500143,186.0747786089996,,,,,,,,,,,,,,,,,,,,,,,,,,,,,,,,,,,186.07836716699967,186.08641832500143,186.08641832500143,186.59238986999844,r,1.0,0.5021941399973002,,,,,,sub-212,1,stroop_test,89.47196616472367,
,,,,45.0,9.0,3.0,,,,,,,,,,,,,blau,blue,b,1.0,b,1.0,0.5423642969981302,,,,,,,,,,3.0,9.0,45.0,6.0,186.60131739699864,,,,,,,,,,,,,,,,,186.5927269169988,187.39062285699765,188.1861311850007,188.17472208599796,,,,,,,,,,,,,,,,,,,,,,,,,,,,,,,,,,,188.17818499900025,188.1861311850007,188.1861311850007,188.7341901820037,b,1.0,0.5423642969981302,,,,,,sub-212,1,stroop_test,89.47196616472367,
,,,,46.0,10.0,3.0,,,,,,,,,,,,,rot,yellow,g,0.0,g,1.0,0.7672976690009818,,,,,,,,,,3.0,10.0,46.0,3.0,188.74514321699823,,,,,,,,,,,,,,,,,188.73457632899957,189.53129920799984,190.32753822499944,190.3157203360024,,,,,,,,,,,,,,,,,,,,,,,,,,,,,,,,,,,190.31871850600143,190.32753822499944,190.32753822499944,191.10020340600025,g,1.0,0.7672976690009818,,,,,,sub-212,1,stroop_test,89.47196616472367,
,,,,47.0,11.0,3.0,,,,,,,,,,,,,rot,red,r,1.0,r,1.0,0.4138061720004771,,,,,,,,,,3.0,11.0,47.0,0.0,191.11061154500203,,,,,,,,,,,,,,,,,191.1005072219996,191.19737983900268,191.990978971,191.98129111099843,,,,,,,,,,,,,,,,,,,,,,,,,,,,,,,,,,,191.98194614900424,191.990978971,191.990978971,192.40857040799887,r,1.0,0.4138061720004771,,,,,,sub-212,1,stroop_test,89.47196616472367,
,,,,48.0,0.0,4.0,,,,,,,,,,,,,rot,blue,b,0.0,b,1.0,0.5561063650020515,,,,,,,,,,4.0,0.0,48.0,2.0,192.41795467300108,,,,,,,,,,,,,,,,,192.4089127519983,193.20697366799868,193.9988272890041,193.99080509399937,,,,,,,,,,,,,,,,,,,,,,,,,,,,,,,,,,,193.99141901399707,193.9988272890041,193.9988272890041,194.55901336100212,b,1.0,0.5561063650020515,,,,,,sub-212,1,stroop_test,89.47196616472367,
,,,,49.0,1.0,4.0,,,,,,,,,,,,,rot,red,r,1.0,r,1.0,0.5736097219996736,,,,,,,,,,4.0,1.0,49.0,0.0,194.5685469750024,,,,,,,,,,,,,,,,,194.5593500850009,195.75717373599764,196.54992035600296,196.5412709320008,,,,,,,,,,,,,,,,,,,,,,,,,,,,,,,,,,,196.5418830760027,196.54992035600296,196.54992035600296,197.1270729509997,r,1.0,0.5736097219996736,,,,,,sub-212,1,stroop_test,89.47196616472367,
,,,,50.0,2.0,4.0,,,,,,,,,,,,,rot,yellow,g,0.0,g,1.0,0.934797335001349,,,,,,,,,,4.0,2.0,50.0,3.0,197.13920631600195,,,,,,,,,,,,,,,,,197.1274179780012,197.22385418900376,198.0167518099988,198.00802994400144,,,,,,,,,,,,,,,,,,,,,,,,,,,,,,,,,,,198.0086373630038,198.0167518099988,198.0167518099988,198.95956869600195,g,1.0,0.934797335001349,,,,,,sub-212,1,stroop_test,89.47196616472367,
,,,,51.0,3.0,4.0,,,,,,,,,,,,,blau,yellow,g,0.0,g,1.0,0.611333962995559,,,,,,,,,,4.0,3.0,51.0,7.0,198.9746605629989,,,,,,,,,,,,,,,,,198.96005531500123,199.058440629,199.86104508000423,199.84827736300213,,,,,,,,,,,,,,,,,,,,,,,,,,,,,,,,,,,199.85137551299704,199.86104508000423,199.86104508000423,200.4764073379993,g,1.0,0.611333962995559,,,,,,sub-212,1,stroop_test,89.47196616472367,
,,,,52.0,4.0,4.0,,,,,,,,,,,,,blau,blue,b,1.0,b,1.0,0.4481232110047131,,,,,,,,,,4.0,4.0,52.0,6.0,200.4859480849991,,,,,,,,,,,,,,,,,200.4767962650003,201.27377438399708,202.06622191300264,202.05798809100088,,,,,,,,,,,,,,,,,,,,,,,,,,,,,,,,,,,202.05857555200052,202.06622191300264,202.06622191300264,202.5194711590011,b,1.0,0.4481232110047131,,,,,,sub-212,1,stroop_test,89.47196616472367,
,,,,53.0,5.0,4.0,,,,,,,,,,,,,blau,red,r,0.0,r,1.0,0.6361990200020955,,,,,,,,,,4.0,5.0,53.0,4.0,202.5307265310039,,,,,,,,,,,,,,,,,202.51983540200308,203.7143726869981,204.50675081000367,204.49780559499777,,,,,,,,,,,,,,,,,,,,,,,,,,,,,,,,,,,204.4982694440041,204.50675081000367,204.50675081000367,205.14815337400069,r,1.0,0.6361990200020955,,,,,,sub-212,1,stroop_test,89.47196616472367,
,,,,54.0,6.0,4.0,,,,,,,,,,,,,gelb,blue,b,0.0,b,1.0,0.7565203160047531,,,,,,,,,,4.0,6.0,54.0,9.0,205.15657967900188,,,,,,,,,,,,,,,,,205.14841099500336,205.9462764580021,206.7440761320031,206.731023913002,,,,,,,,,,,,,,,,,,,,,,,,,,,,,,,,,,,206.7345344100031,206.7440761320031,206.7440761320031,207.5080171849986,b,1.0,0.7565203160047531,,,,,,sub-212,1,stroop_test,89.47196616472367,
,,,,55.0,7.0,4.0,,,,,,,,,,,,,gelb,red,r,0.0,r,1.0,0.714497080000001,,,,,,,,,,4.0,7.0,55.0,8.0,207.5169844470001,,,,,,,,,,,,,,,,,207.50831590300368,208.3067636060005,209.0993039370005,209.0909295360034,,,,,,,,,,,,,,,,,,,,,,,,,,,,,,,,,,,209.0915374670003,209.0993039370005,209.0993039370005,209.816270344003,r,1.0,0.714497080000001,,,,,,sub-212,1,stroop_test,89.47196616472367,
,,,,56.0,8.0,4.0,,,,,,,,,,,,,blau,blue,b,1.0,b,1.0,0.54128331499669,,,,,,,,,,4.0,8.0,56.0,5.0,209.8275407160036,,,,,,,,,,,,,,,,,209.81661315300155,210.16381193800044,210.96054400999856,210.94808570500027,,,,,,,,,,,,,,,,,,,,,,,,,,,,,,,,,,,210.95165960599843,210.96054400999856,210.96054400999856,211.50925489800284,b,1.0,0.54128331499669,,,,,,sub-212,1,stroop_test,89.47196616472367,
,,,,57.0,9.0,4.0,,,,,,,,,,,,,gelb,yellow,g,1.0,g,1.0,0.6706595250070677,,,,,,,,,,4.0,9.0,57.0,10.0,211.5182209909981,,,,,,,,,,,,,,,,,211.50959009100188,211.60688472499896,212.40155132899963,212.39085254300156,,,,,,,,,,,,,,,,,,,,,,,,,,,,,,,,,,,212.3938312410028,212.40155132899963,212.40155132899963,213.0763512490012,g,1.0,0.6706595250070677,,,,,,sub-212,1,stroop_test,89.47196616472367,
,,,,58.0,10.0,4.0,,,,,,,,,,,,,rot,red,r,1.0,r,1.0,0.4832174929979373,,,,,,,,,,4.0,10.0,58.0,1.0,213.0853991740005,,,,,,,,,,,,,,,,,213.0766892410029,213.17363808899967,213.9687028949993,213.9576624170004,,,,,,,,,,,,,,,,,,,,,,,,,,,,,,,,,,,213.96087820699904,213.9687028949993,213.9687028949993,214.46033166399863,r,1.0,0.4832174929979373,,,,,,sub-212,1,stroop_test,89.47196616472367,
,,,,59.0,11.0,4.0,,,,,,,,,,,,,gelb,yellow,g,1.0,g,1.0,0.6698090939971735,,,,,,,,,,4.0,11.0,59.0,11.0,214.46984372699808,,,,,,,,,,,,,,,,,214.46072142699995,214.55699600400112,215.35253335499877,215.34098876899952,,,,,,,,,,,,,,,,,,,,,,,,,,,,,,,,,,,215.3444429079973,215.35253335499877,215.35253335499877,216.02612236500136,g,1.0,0.6698090939971735,,,,,,sub-212,1,stroop_test,89.47196616472367,
,,,,60.0,0.0,5.0,,,,,,,,,,,,,blau,yellow,g,0.0,g,1.0,0.7858462380027049,,,,,,,,,,5.0,0.0,60.0,7.0,216.03459665000264,,,,,,,,,,,,,,,,,216.0265292539989,216.123548992,216.91966110400244,216.907934117,,,,,,,,,,,,,,,,,,,,,,,,,,,,,,,,,,,216.9114665570014,216.91966110400244,216.91966110400244,217.7088596239992,g,1.0,0.7858462380027049,,,,,,sub-212,1,stroop_test,89.47196616472367,
,,,,61.0,1.0,5.0,,,,,,,,,,,,,gelb,blue,b,0.0,b,1.0,0.6482920959970215,,,,,,,,,,5.0,1.0,61.0,9.0,217.71879211500345,,,,,,,,,,,,,,,,,217.7092505949986,218.5067126950016,219.30101296200155,219.29038740800024,,,,,,,,,,,,,,,,,,,,,,,,,,,,,,,,,,,219.29354269900068,219.30101296200155,219.30101296200155,219.9582489059976,b,1.0,0.6482920959970215,,,,,,sub-212,1,stroop_test,89.47196616472367,
,,,,62.0,2.0,5.0,,,,,,,,,,,,,blau,red,r,0.0,r,1.0,0.3300888130033854,,,,,,,,,,5.0,2.0,62.0,4.0,219.96760198300035,,,,,,,,,,,,,,,,,219.95865781199973,221.15667359800136,221.9520218250036,221.9407778360037,,,,,,,,,,,,,,,,,,,,,,,,,,,,,,,,,,,221.9444512150003,221.9520218250036,221.9520218250036,222.2958334950017,r,1.0,0.3300888130033854,,,,,,sub-212,1,stroop_test,89.47196616472367,
,,,,63.0,3.0,5.0,,,,,,,,,,,,,blau,blue,b,1.0,b,1.0,0.4067286650024471,,,,,,,,,,5.0,3.0,63.0,5.0,222.306638176,,,,,,,,,,,,,,,,,222.2963216930002,223.48991381900123,224.28269611699943,224.2741040960027,,,,,,,,,,,,,,,,,,,,,,,,,,,,,,,,,,,224.27478017200335,224.28269611699943,224.28269611699943,224.69205430000147,b,1.0,0.4067286650024471,,,,,,sub-212,1,stroop_test,89.47196616472367,
,,,,64.0,4.0,5.0,,,,,,,,,,,,,rot,red,r,1.0,r,1.0,0.5536911470044288,,,,,,,,,,5.0,4.0,64.0,1.0,224.7008635070015,,,,,,,,,,,,,,,,,224.69244308400084,224.7900669860028,225.5863245369983,225.5745174559997,,,,,,,,,,,,,,,,,,,,,,,,,,,,,,,,,,,225.57809356699727,225.5863245369983,225.5863245369983,226.1425089780023,r,1.0,0.5536911470044288,,,,,,sub-212,1,stroop_test,89.47196616472367,
,,,,65.0,5.0,5.0,,,,,,,,,,,,,gelb,yellow,g,1.0,g,1.0,0.5627618069993332,,,,,,,,,,5.0,5.0,65.0,11.0,226.1517639380036,,,,,,,,,,,,,,,,,226.14291668499936,226.2401884200008,227.036016019003,227.02452675800305,,,,,,,,,,,,,,,,,,,,,,,,,,,,,,,,,,,227.0278540770014,227.036016019003,227.036016019003,227.6127459190029,g,1.0,0.5627618069993332,,,,,,sub-212,1,stroop_test,89.47196616472367,
,,,,66.0,6.0,5.0,,,,,,,,,,,,,rot,blue,b,0.0,b,1.0,0.670903673999419,,,,,,,,,,5.0,6.0,66.0,2.0,227.6230121530025,,,,,,,,,,,,,,,,,227.61311329599997,227.95660281599703,228.7505294990042,228.74023594400205,,,,,,,,,,,,,,,,,,,,,,,,,,,,,,,,,,,228.7432506260011,228.7505294990042,228.7505294990042,229.42519934399752,b,1.0,0.670903673999419,,,,,,sub-212,1,stroop_test,89.47196616472367,
,,,,67.0,7.0,5.0,,,,,,,,,,,,,gelb,red,r,0.0,r,1.0,0.5052701720051118,,,,,,,,,,5.0,7.0,67.0,8.0,229.4343156890027,,,,,,,,,,,,,,,,,229.4256211030006,230.6227828359988,231.4170107280006,231.40680698500364,,,,,,,,,,,,,,,,,,,,,,,,,,,,,,,,,,,231.40977950500385,231.4170107280006,231.4170107280006,231.9248004300025,r,1.0,0.5052701720051118,,,,,,sub-212,1,stroop_test,89.47196616472367,
,,,,68.0,8.0,5.0,,,,,,,,,,,,,rot,yellow,g,0.0,g,1.0,0.6388159189955331,,,,,,,,,,5.0,8.0,68.0,3.0,231.9336799550001,,,,,,,,,,,,,,,,,231.9252050310024,232.2727762549985,233.06550236899784,233.05634614700105,,,,,,,,,,,,,,,,,,,,,,,,,,,,,,,,,,,233.05874969100117,233.06550236899784,233.06550236899784,233.707332760001,g,1.0,0.6388159189955331,,,,,,sub-212,1,stroop_test,89.47196616472367,
,,,,69.0,9.0,5.0,,,,,,,,,,,,,blau,blue,b,1.0,b,1.0,0.5325566129977233,,,,,,,,,,5.0,9.0,69.0,6.0,233.71538094199784,,,,,,,,,,,,,,,,,233.70764208699984,234.9057887969975,235.69978327400167,235.68983604099776,,,,,,,,,,,,,,,,,,,,,,,,,,,,,,,,,,,235.69242627600036,235.69978327400167,235.69978327400167,236.24205137199897,b,1.0,0.5325566129977233,,,,,,sub-212,1,stroop_test,89.47196616472367,
,,,,70.0,10.0,5.0,,,,,,,,,,,,,gelb,yellow,g,1.0,g,1.0,0.5532050939946203,,,,,,,,,,5.0,10.0,70.0,10.0,236.25018740499945,,,,,,,,,,,,,,,,,236.24238848299865,237.4395699489978,238.2358244499992,238.22393113999715,,,,,,,,,,,,,,,,,,,,,,,,,,,,,,,,,,,238.2282109529988,238.2358244499992,238.2358244499992,238.791490126001,g,1.0,0.5532050939946203,,,,,,sub-212,1,stroop_test,89.47196616472367,
,,,,71.0,11.0,5.0,,,,,,,,,,,,,rot,red,r,1.0,r,1.0,0.3634515079975244,,,,,,,,,,5.0,11.0,71.0,0.0,238.80095111099945,,,,,,,,,,,,,,,,,238.791829460999,239.58989524099889,240.385644562004,240.37424963800004,,,,,,,,,,,,,,,,,,,,,,,,,,,,,,,,,,,240.37774988899764,240.385644562004,240.385644562004,240.75899159300025,r,1.0,0.3634515079975244,,,,,,sub-212,1,stroop_test,89.47196616472367,
,,,,72.0,0.0,6.0,,,,,,,,,,,,,blau,blue,b,1.0,b,1.0,0.5408742419967894,,,,,,,,,,6.0,0.0,72.0,6.0,240.76822239800092,,,,,,,,,,,,,,,,,240.7593376570003,241.10661252400317,241.9023905439972,241.890781848997,,,,,,,,,,,,,,,,,,,,,,,,,,,,,,,,,,,241.89423573000383,241.9023905439972,241.9023905439972,242.44973269099864,b,1.0,0.5408742419967894,,,,,,sub-212,1,stroop_test,89.47196616472367,
,,,,73.0,1.0,6.0,,,,,,,,,,,,,blau,blue,b,1.0,b,1.0,0.5270290179978474,,,,,,,,,,6.0,1.0,73.0,5.0,242.46096504700108,,,,,,,,,,,,,,,,,242.45012228900305,243.24730715499757,244.04009116999805,244.0314599600024,,,,,,,,,,,,,,,,,,,,,,,,,,,,,,,,,,,244.03207348199797,244.04009116999805,244.04009116999805,244.5744090579974,b,1.0,0.5270290179978474,,,,,,sub-212,1,stroop_test,89.47196616472367,
,,,,74.0,2.0,6.0,,,,,,,,,,,,,rot,blue,b,0.0,r,0.0,0.65393234599469,,,,,,,,,,6.0,2.0,74.0,2.0,244.5830777500014,,,,,,,,,,,,,,,,,244.57475782500117,245.37248273099976,246.1668736520005,246.15655230000263,,,,,,,,,,,,,,,,,,,,,,,,,,,,,,,,,,,246.15955815099733,246.1668736520005,246.1668736520005,246.82461939500357,r,0.0,0.65393234599469,,,,,,sub-212,1,stroop_test,89.47196616472367,
,,,,75.0,3.0,6.0,,,,,,,,,,,,,gelb,yellow,g,1.0,g,1.0,0.7831284970015986,,,,,,,,,,6.0,3.0,75.0,10.0,246.83436942999836,,,,,,,,,,,,,,,,,246.82502119000128,247.6228253549998,248.4173632480015,248.4067732429976,,,,,,,,,,,,,,,,,,,,,,,,,,,,,,,,,,,248.40991006499823,248.4173632480015,248.4173632480015,249.2076003789989,g,1.0,0.7831284970015986,,,,,,sub-212,1,stroop_test,89.47196616472367,
,,,,76.0,4.0,6.0,,,,,,,,,,,,,gelb,red,r,0.0,r,1.0,0.8568635510018794,,,,,,,,,,6.0,4.0,76.0,8.0,249.21609166800044,,,,,,,,,,,,,,,,,249.2079504950016,250.4059748910004,251.1982946770004,251.1899373530032,,,,,,,,,,,,,,,,,,,,,,,,,,,,,,,,,,,251.19057231800247,251.1982946770004,251.1982946770004,252.05772498100123,r,1.0,0.8568635510018794,,,,,,sub-212,1,stroop_test,89.47196616472367,
,,,,77.0,5.0,6.0,,,,,,,,,,,,,gelb,blue,b,0.0,g,0.0,0.6374148469985812,,,,,,,,,,6.0,5.0,77.0,9.0,252.06655264599976,,,,,,,,,,,,,,,,,252.05815342300048,252.856029143004,253.64816299499944,253.64022105599724,,,,,,,,,,,,,,,,,,,,,,,,,,,,,,,,,,,253.6408390619981,253.64816299499944,253.64816299499944,254.2912893390021,g,0.0,0.6374148469985812,,,,,,sub-212,1,stroop_test,89.47196616472367,
,,,,78.0,6.0,6.0,,,,,,,,,,,,,rot,red,r,1.0,r,1.0,0.6241921150067355,,,,,,,,,,6.0,6.0,78.0,0.0,254.29990045500017,,,,,,,,,,,,,,,,,254.29162854199967,254.63941575199715,255.43401570599963,255.423321328999,,,,,,,,,,,,,,,,,,,,,,,,,,,,,,,,,,,255.42649642600009,255.43401570599963,255.43401570599963,256.06655115700414,r,1.0,0.6241921150067355,,,,,,sub-212,1,stroop_test,89.47196616472367,
,,,,79.0,7.0,6.0,,,,,,,,,,,,,rot,red,r,1.0,r,1.0,0.7863674679974793,,,,,,,,,,6.0,7.0,79.0,1.0,256.07655772999715,,,,,,,,,,,,,,,,,256.06695099100034,256.4137321070011,257.2065807830004,257.1975859710001,,,,,,,,,,,,,,,,,,,,,,,,,,,,,,,,,,,257.1982683140013,257.2065807830004,257.2065807830004,257.999568801999,r,1.0,0.7863674679974793,,,,,,sub-212,1,stroop_test,89.47196616472367,
,,,,80.0,8.0,6.0,,,,,,,,,,,,,gelb,yellow,g,1.0,g,1.0,0.6510765629936941,,,,,,,,,,6.0,8.0,80.0,11.0,258.009768306998,,,,,,,,,,,,,,,,,257.9999021650001,258.09674128400366,258.8943562290005,258.8807475650028,,,,,,,,,,,,,,,,,,,,,,,,,,,,,,,,,,,258.8851308680023,258.8943562290005,258.8943562290005,259.5495809380009,g,1.0,0.6510765629936941,,,,,,sub-212,1,stroop_test,89.47196616472367,
,,,,81.0,9.0,6.0,,,,,,,,,,,,,blau,red,r,0.0,r,1.0,0.870503906000522,,,,,,,,,,6.0,9.0,81.0,4.0,259.5597350090029,,,,,,,,,,,,,,,,,259.5499180780025,260.3465033129978,261.14327262499864,261.13135384699854,,,,,,,,,,,,,,,,,,,,,,,,,,,,,,,,,,,261.13454028200067,261.14327262499864,261.14327262499864,262.0168197009989,r,1.0,0.870503906000522,,,,,,sub-212,1,stroop_test,89.47196616472367,
,,,,82.0,10.0,6.0,,,,,,,,,,,,,blau,yellow,g,0.0,g,1.0,1.0980166950030252,,,,,,,,,,6.0,10.0,82.0,7.0,262.0278378990042,,,,,,,,,,,,,,,,,262.0173571490013,262.8132228289978,263.6062941479977,263.5972678129983,,,,,,,,,,,,,,,,,,,,,,,,,,,,,,,,,,,263.5979336680029,263.6062941479977,263.6062941479977,264.7078373179975,g,1.0,1.0980166950030252,,,,,,sub-212,1,stroop_test,89.47196616472367,
,,,,83.0,11.0,6.0,,,,,,,,,,,,,rot,yellow,g,0.0,g,1.0,1.0724741430021822,,,,,,,,,,6.0,11.0,83.0,3.0,264.7164914219975,,,,,,,,,,,,,,,,,264.7081718979971,265.50599400899955,266.3003522959989,266.2899144480034,,,,,,,,,,,,,,,,,,,,,,,,,,,,,,,,,,,266.2929831750007,266.3003522959989,266.3003522959989,267.3753193849989,g,1.0,1.0724741430021822,,,,,,sub-212,1,stroop_test,89.47196616472367,
,,,,84.0,0.0,7.0,,,,,,,,,,,,,rot,yellow,g,0.0,g,1.0,1.092688711003575,,,,,,,,,,7.0,0.0,84.0,3.0,267.38473051800247,,,,,,,,,,,,,,,,,267.37573770100425,267.4728356859996,268.26487557600194,268.25677553399873,,,,,,,,,,,,,,,,,,,,,,,,,,,,,,,,,,,268.2573715510007,268.26487557600194,268.26487557600194,269.3655122909986,g,1.0,1.092688711003575,,,,,,sub-212,1,stroop_test,89.47196616472367,
,,,,85.0,1.0,7.0,,,,,,,,,,,,,blau,yellow,g,0.0,g,1.0,0.648568589000206,,,,,,,,,,7.0,1.0,85.0,7.0,269.37693930900423,,,,,,,,,,,,,,,,,269.3659053340016,270.1629063490036,270.95971270500013,270.9472818560025,,,,,,,,,,,,,,,,,,,,,,,,,,,,,,,,,,,270.95095291500184,270.95971270500013,270.95971270500013,271.6161869060016,g,1.0,0.648568589000206,,,,,,sub-212,1,stroop_test,89.47196616472367,
,,,,86.0,2.0,7.0,,,,,,,,,,,,,gelb,red,r,0.0,r,1.0,0.8297334399976535,,,,,,,,,,7.0,2.0,86.0,8.0,271.6269943619991,,,,,,,,,,,,,,,,,271.61657546900096,272.41314127999794,273.2099382870001,273.1973491699973,,,,,,,,,,,,,,,,,,,,,,,,,,,,,,,,,,,273.2010015670021,273.2099382870001,273.2099382870001,274.04170237400103,r,1.0,0.8297334399976535,,,,,,sub-212,1,stroop_test,89.47196616472367,
,,,,87.0,3.0,7.0,,,,,,,,,,,,,rot,red,r,1.0,r,1.0,0.4904555620014434,,,,,,,,,,7.0,3.0,87.0,1.0,274.05113572799746,,,,,,,,,,,,,,,,,274.04204835699784,274.3892942270031,275.1851935410013,275.1734952620027,,,,,,,,,,,,,,,,,,,,,,,,,,,,,,,,,,,275.17711858000257,275.1851935410013,275.1851935410013,275.6822517920009,r,1.0,0.4904555620014434,,,,,,sub-212,1,stroop_test,89.47196616472367,
,,,,88.0,4.0,7.0,,,,,,,,,,,,,blau,red,r,0.0,r,1.0,0.6014296069988632,,,,,,,,,,7.0,4.0,88.0,4.0,275.6930447420018,,,,,,,,,,,,,,,,,275.68260526000086,275.7794303409973,276.5770729880023,276.5639004449986,,,,,,,,,,,,,,,,,,,,,,,,,,,,,,,,,,,276.56871733799926,276.5770729880023,276.5770729880023,277.1820309320028,r,1.0,0.6014296069988632,,,,,,sub-212,1,stroop_test,89.47196616472367,
,,,,89.0,5.0,7.0,,,,,,,,,,,,,blau,blue,b,1.0,b,1.0,0.7056363629963016,,,,,,,,,,7.0,5.0,89.0,6.0,277.1928223299983,,,,,,,,,,,,,,,,,277.18237948099704,277.2800052410021,278.07268410600227,278.06387081600406,,,,,,,,,,,,,,,,,,,,,,,,,,,,,,,,,,,278.0644748440027,278.07268410600227,278.07268410600227,278.7813578580026,b,1.0,0.7056363629963016,,,,,,sub-212,1,stroop_test,89.47196616472367,
,,,,90.0,6.0,7.0,,,,,,,,,,,,,gelb,yellow,g,1.0,g,1.0,0.8890089039996383,,,,,,,,,,7.0,6.0,90.0,10.0,278.805621477004,,,,,,,,,,,,,,,,,278.7817487830034,278.8791705129988,279.6761285570028,279.6636248119976,,,,,,,,,,,,,,,,,,,,,,,,,,,,,,,,,,,279.66729530600423,279.6761285570028,279.6761285570028,280.5745174499971,g,1.0,0.8890089039996383,,,,,,sub-212,1,stroop_test,89.47196616472367,
,,,,91.0,7.0,7.0,,,,,,,,,,,,,rot,red,r,1.0,r,1.0,0.8193631599933724,,,,,,,,,,7.0,7.0,91.0,0.0,280.5831592739996,,,,,,,,,,,,,,,,,280.574873714002,281.3726630489982,282.16809590400226,282.15687305499887,,,,,,,,,,,,,,,,,,,,,,,,,,,,,,,,,,,282.1600373199981,282.16809590400226,282.16809590400226,282.9913744029982,r,1.0,0.8193631599933724,,,,,,sub-212,1,stroop_test,89.47196616472367,
,,,,92.0,8.0,7.0,,,,,,,,,,,,,gelb,blue,b,0.0,b,1.0,0.7031604900039383,,,,,,,,,,7.0,8.0,92.0,9.0,283.0002179110015,,,,,,,,,,,,,,,,,282.9917110739989,283.78919871400285,284.58430459399824,284.57339105300343,,,,,,,,,,,,,,,,,,,,,,,,,,,,,,,,,,,284.57655814399914,284.58430459399824,284.58430459399824,285.2909527630036,b,1.0,0.7031604900039383,,,,,,sub-212,1,stroop_test,89.47196616472367,
,,,,93.0,9.0,7.0,,,,,,,,,,,,,gelb,yellow,g,1.0,g,1.0,1.0314100100003998,,,,,,,,,,7.0,9.0,93.0,11.0,285.29991568800324,,,,,,,,,,,,,,,,,285.2912933379994,286.48934402399755,287.2816980560019,287.27323897399765,,,,,,,,,,,,,,,,,,,,,,,,,,,,,,,,,,,287.27385658500134,287.2816980560019,287.2816980560019,288.3397770529991,g,1.0,1.0314100100003998,,,,,,sub-212,1,stroop_test,89.47196616472367,
,,,,94.0,10.0,7.0,,,,,,,,,,,,,rot,blue,b,0.0,b,1.0,0.676950768000097,,,,,,,,,,7.0,10.0,94.0,2.0,288.3558286960033,,,,,,,,,,,,,,,,,288.3402946060014,289.12996799199755,289.927068459001,289.91429228599736,,,,,,,,,,,,,,,,,,,,,,,,,,,,,,,,,,,289.9172333930037,289.927068459001,289.927068459001,290.60788668900204,b,1.0,0.676950768000097,,,,,,sub-212,1,stroop_test,89.47196616472367,
,,,,95.0,11.0,7.0,,,,,,,,,,,,,blau,blue,b,1.0,b,1.0,0.4114311919984175,,,,,,,,,,7.0,11.0,95.0,5.0,290.61601714700373,,,,,,,,,,,,,,,,,290.60822532900056,290.955670632,291.75148223499855,291.7398467250023,,,,,,,,,,,,,,,,,,,,,,,,,,,,,,,,,,,291.7434479160001,291.75148223499855,291.75148223499855,292.16554053399886,b,1.0,0.4114311919984175,,,,,,sub-212,1,stroop_test,89.47196616472367,
,,,,96.0,0.0,8.0,,,,,,,,,,,,,gelb,yellow,g,1.0,g,1.0,0.5869056049996288,,,,,,,,,,8.0,0.0,96.0,11.0,292.17674920999707,,,,,,,,,,,,,,,,,292.16594045400416,292.51265593700373,293.3102041489983,293.2971078670016,,,,,,,,,,,,,,,,,,,,,,,,,,,,,,,,,,,293.30145914100285,293.3102041489983,293.3102041489983,293.89963147600065,g,1.0,0.5869056049996288,,,,,,sub-212,1,stroop_test,89.47196616472367,
,,,,97.0,1.0,8.0,,,,,,,,,,,,,rot,red,r,1.0,r,1.0,0.3692540810006903,,,,,,,,,,8.0,1.0,97.0,1.0,293.9102154830034,,,,,,,,,,,,,,,,,293.90003442000307,295.09597728899826,295.89331883400155,295.8806258890036,,,,,,,,,,,,,,,,,,,,,,,,,,,,,,,,,,,295.88421037600347,295.89331883400155,295.89331883400155,296.26530095699854,r,1.0,0.3692540810006903,,,,,,sub-212,1,stroop_test,89.47196616472367,
,,,,98.0,2.0,8.0,,,,,,,,,,,,,rot,blue,b,0.0,b,1.0,0.3947709880012553,,,,,,,,,,8.0,2.0,98.0,2.0,296.2767455240028,,,,,,,,,,,,,,,,,296.26574775300105,297.46230712399847,298.2565892510029,298.24708407500293,,,,,,,,,,,,,,,,,,,,,,,,,,,,,,,,,,,298.24776514300174,298.2565892510029,298.2565892510029,298.6580403920016,b,1.0,0.3947709880012553,,,,,,sub-212,1,stroop_test,89.47196616472367,
,,,,99.0,3.0,8.0,,,,,,,,,,,,,blau,yellow,g,0.0,g,1.0,0.6976315220017568,,,,,,,,,,8.0,3.0,99.0,7.0,298.66593773099885,,,,,,,,,,,,,,,,,298.6583773570019,298.7554813379975,299.55073495700344,299.53959588600264,,,,,,,,,,,,,,,,,,,,,,,,,,,,,,,,,,,299.5431958409972,299.55073495700344,299.55073495700344,300.2583490199977,g,1.0,0.6976315220017568,,,,,,sub-212,1,stroop_test,89.47196616472367,
,,,,100.0,4.0,8.0,,,,,,,,,,,,,rot,red,r,1.0,r,1.0,0.4629049689974636,,,,,,,,,,8.0,4.0,100.0,0.0,300.2672894589996,,,,,,,,,,,,,,,,,300.25873849100026,301.0556326959995,301.85150767600135,301.8399183549991,,,,,,,,,,,,,,,,,,,,,,,,,,,,,,,,,,,301.8435483180001,301.85150767600135,301.85150767600135,302.32411991900153,r,1.0,0.4629049689974636,,,,,,sub-212,1,stroop_test,89.47196616472367,
,,,,101.0,5.0,8.0,,,,,,,,,,,,,blau,blue,b,1.0,b,1.0,0.6375847259987495,,,,,,,,,,8.0,5.0,101.0,6.0,302.3332473890041,,,,,,,,,,,,,,,,,302.32453587200143,302.42243895700085,303.2176511209982,303.2063587649973,,,,,,,,,,,,,,,,,,,,,,,,,,,,,,,,,,,303.20994735600107,303.2176511209982,303.2176511209982,303.857645367003,b,1.0,0.6375847259987495,,,,,,sub-212,1,stroop_test,89.47196616472367,
,,,,102.0,6.0,8.0,,,,,,,,,,,,,gelb,blue,b,0.0,b,1.0,0.4379096639968338,,,,,,,,,,8.0,6.0,102.0,9.0,303.8667381339983,,,,,,,,,,,,,,,,,303.85804390499834,303.9555534559986,304.7518207760004,304.7397516929996,,,,,,,,,,,,,,,,,,,,,,,,,,,,,,,,,,,304.7434183980004,304.7518207760004,304.7518207760004,305.19909895599994,b,1.0,0.4379096639968338,,,,,,sub-212,1,stroop_test,89.47196616472367,
,,,,103.0,7.0,8.0,,,,,,,,,,,,,gelb,red,r,0.0,r,1.0,0.5819141989995842,,,,,,,,,,8.0,7.0,103.0,8.0,305.2103483440005,,,,,,,,,,,,,,,,,305.19957272899774,305.5459928470009,306.338961665002,306.3301493399995,,,,,,,,,,,,,,,,,,,,,,,,,,,,,,,,,,,306.330764514998,306.338961665002,306.338961665002,306.9236046270016,r,1.0,0.5819141989995842,,,,,,sub-212,1,stroop_test,89.47196616472367,
,,,,104.0,8.0,8.0,,,,,,,,,,,,,blau,blue,b,1.0,b,1.0,0.4807303350025904,,,,,,,,,,8.0,8.0,104.0,5.0,306.9328631899989,,,,,,,,,,,,,,,,,306.92394264200266,307.02194233200134,307.8171403360029,307.8059238060014,,,,,,,,,,,,,,,,,,,,,,,,,,,,,,,,,,,307.8095920889973,307.8171403360029,307.8171403360029,308.3069371360034,b,1.0,0.4807303350025904,,,,,,sub-212,1,stroop_test,89.47196616472367,
,,,,105.0,9.0,8.0,,,,,,,,,,,,,gelb,yellow,g,1.0,g,1.0,0.5280748750010389,,,,,,,,,,8.0,9.0,105.0,10.0,308.3158026489982,,,,,,,,,,,,,,,,,308.30732629400154,308.40500320999854,309.1999516010037,309.1896085929984,,,,,,,,,,,,,,,,,,,,,,,,,,,,,,,,,,,309.19253041400225,309.1999516010037,309.1999516010037,309.7324084799984,g,1.0,0.5280748750010389,,,,,,sub-212,1,stroop_test,89.47196616472367,
,,,,106.0,10.0,8.0,,,,,,,,,,,,,blau,red,r,0.0,r,1.0,0.5555786889963201,,,,,,,,,,8.0,10.0,106.0,4.0,309.7427813969989,,,,,,,,,,,,,,,,,309.73280462800176,310.92916485000023,311.7262718769998,311.71315109800344,,,,,,,,,,,,,,,,,,,,,,,,,,,,,,,,,,,311.71624952300044,311.7262718769998,311.7262718769998,312.29046024999843,r,1.0,0.5555786889963201,,,,,,sub-212,1,stroop_test,89.47196616472367,
,,,,107.0,11.0,8.0,,,,,,,,,,,,,rot,yellow,g,0.0,g,1.0,0.4375532769990968,,,,,,,,,,8.0,11.0,107.0,3.0,312.3000896390004,,,,,,,,,,,,,,,,,312.2907936519987,313.0888791010002,313.8840358009984,313.872847329003,,,,,,,,,,,,,,,,,,,,,,,,,,,,,,,,,,,313.87605776899727,313.8840358009984,313.8840358009984,314.3242135219989,g,1.0,0.4375532769990968,,,,,,sub-212,1,stroop_test,89.47196616472367,
,,,,108.0,0.0,9.0,,,,,,,,,,,,,rot,red,r,1.0,r,1.0,0.4706509280003956,,,,,,,,,,9.0,0.0,108.0,0.0,314.33242994800094,,,,,,,,,,,,,,,,,314.3245653990016,315.12183019700024,315.91345184900274,315.9056513320029,,,,,,,,,,,,,,,,,,,,,,,,,,,,,,,,,,,315.90615678500035,315.91345184900274,315.91345184900274,316.3902500059994,r,1.0,0.4706509280003956,,,,,,sub-212,1,stroop_test,89.47196616472367,
,,,,109.0,1.0,9.0,,,,,,,,,,,,,rot,blue,b,0.0,b,1.0,0.5662611020015902,,,,,,,,,,9.0,1.0,109.0,2.0,316.3993627500022,,,,,,,,,,,,,,,,,316.3905882550025,316.48881768299907,317.2814422579977,317.2729347889981,,,,,,,,,,,,,,,,,,,,,,,,,,,,,,,,,,,317.2735260670015,317.2814422579977,317.2814422579977,317.8577467340001,b,1.0,0.5662611020015902,,,,,,sub-212,1,stroop_test,89.47196616472367,
,,,,110.0,2.0,9.0,,,,,,,,,,,,,gelb,red,r,0.0,r,1.0,0.6828889160024119,,,,,,,,,,9.0,2.0,110.0,8.0,317.8675200020007,,,,,,,,,,,,,,,,,317.8581203249996,318.2068817019972,319.00902677600243,318.99628847499844,,,,,,,,,,,,,,,,,,,,,,,,,,,,,,,,,,,318.9994270620009,319.00902677600243,319.00902677600243,319.6983136400013,r,1.0,0.6828889160024119,,,,,,sub-212,1,stroop_test,89.47196616472367,
,,,,111.0,3.0,9.0,,,,,,,,,,,,,rot,red,r,1.0,r,1.0,0.5437183050016756,,,,,,,,,,9.0,3.0,111.0,1.0,319.70903405800345,,,,,,,,,,,,,,,,,319.6986665910008,320.89570493200154,321.69281865299854,321.68019873400044,,,,,,,,,,,,,,,,,,,,,,,,,,,,,,,,,,,321.68310198400286,321.69281865299854,321.69281865299854,322.24034285900416,r,1.0,0.5437183050016756,,,,,,sub-212,1,stroop_test,89.47196616472367,
,,,,112.0,4.0,9.0,,,,,,,,,,,,,rot,yellow,g,0.0,r,0.0,0.5533769460016629,,,,,,,,,,9.0,4.0,112.0,3.0,322.24931249699875,,,,,,,,,,,,,,,,,322.24067898700014,322.3384635679977,323.13088965800125,323.1225980730014,,,,,,,,,,,,,,,,,,,,,,,,,,,,,,,,,,,323.12322999400203,323.13088965800125,323.13088965800125,323.6900184929982,r,0.0,0.5533769460016629,,,,,,sub-212,1,stroop_test,89.47196616472367,
,,,,113.0,5.0,9.0,,,,,,,,,,,,,gelb,blue,b,0.0,b,1.0,0.805133690002549,,,,,,,,,,9.0,5.0,113.0,9.0,323.69869570899755,,,,,,,,,,,,,,,,,323.6903674330024,324.8883574680003,325.6835152249987,325.6725823750021,,,,,,,,,,,,,,,,,,,,,,,,,,,,,,,,,,,325.67621597700054,325.6835152249987,325.6835152249987,326.4914469380019,b,1.0,0.805133690002549,,,,,,sub-212,1,stroop_test,89.47196616472367,
,,,,114.0,6.0,9.0,,,,,,,,,,,,,blau,blue,b,1.0,b,1.0,0.5535069719990133,,,,,,,,,,9.0,6.0,114.0,6.0,326.50108428300155,,,,,,,,,,,,,,,,,326.4919322979986,327.2884316819982,328.0828697440011,328.0723461939997,,,,,,,,,,,,,,,,,,,,,,,,,,,,,,,,,,,328.0754717840028,328.0828697440011,328.0828697440011,328.6403413470034,b,1.0,0.5535069719990133,,,,,,sub-212,1,stroop_test,89.47196616472367,
,,,,115.0,7.0,9.0,,,,,,,,,,,,,blau,yellow,g,0.0,g,1.0,0.4614479379961267,,,,,,,,,,9.0,7.0,115.0,7.0,328.64903143799893,,,,,,,,,,,,,,,,,328.6407119020005,329.8383503820005,330.6312862830018,330.6225811510012,,,,,,,,,,,,,,,,,,,,,,,,,,,,,,,,,,,330.6232304689984,330.6312862830018,330.6312862830018,331.10008469400054,g,1.0,0.4614479379961267,,,,,,sub-212,1,stroop_test,89.47196616472367,
,,,,116.0,8.0,9.0,,,,,,,,,,,,,gelb,yellow,g,1.0,g,1.0,0.4496845339963329,,,,,,,,,,9.0,8.0,116.0,10.0,331.11025856299966,,,,,,,,,,,,,,,,,331.1003945199991,331.4454502820008,332.24210277599923,332.22994323499734,,,,,,,,,,,,,,,,,,,,,,,,,,,,,,,,,,,332.233476266003,332.24210277599923,332.24210277599923,332.70836409500043,g,1.0,0.4496845339963329,,,,,,sub-212,1,stroop_test,89.47196616472367,
,,,,117.0,9.0,9.0,,,,,,,,,,,,,gelb,yellow,g,1.0,g,1.0,0.5067510029984987,,,,,,,,,,9.0,9.0,117.0,11.0,332.7207281500014,,,,,,,,,,,,,,,,,332.7088882050012,333.5054455720019,334.2982454369994,334.2895716299972,,,,,,,,,,,,,,,,,,,,,,,,,,,,,,,,,,,334.290178741001,334.2982454369994,334.2982454369994,334.80739704499865,g,1.0,0.5067510029984987,,,,,,sub-212,1,stroop_test,89.47196616472367,
,,,,118.0,10.0,9.0,,,,,,,,,,,,,blau,blue,b,1.0,b,1.0,0.7426743429969065,,,,,,,,,,9.0,10.0,118.0,5.0,334.8166550820024,,,,,,,,,,,,,,,,,334.8078071799973,334.9053223919982,335.7010805030004,335.6895605239988,,,,,,,,,,,,,,,,,,,,,,,,,,,,,,,,,,,335.6931008829997,335.7010805030004,335.7010805030004,336.448504492997,b,1.0,0.7426743429969065,,,,,,sub-212,1,stroop_test,89.47196616472367,
,,,,119.0,11.0,9.0,,,,,,,,,,,,,blau,red,r,0.0,r,1.0,0.5664741830041748,,,,,,,,,,9.0,11.0,119.0,4.0,336.45975237899984,,,,,,,,,,,,,,,,,336.44889695500024,337.2457353400023,338.0544285729993,338.03031036099856,,,,,,,,,,,,,,,,,,,,,,,,,,,,,,,,,,,338.03100246300164,338.0544285729993,338.0544285729993,338.6235834390027,r,1.0,0.5664741830041748,,,,,,sub-212,1,stroop_test,89.47196616472367,
,,,,,,,,,,,,,,,,,,,,,,,,,,,,,,,,,,,,,,,,,,,,,,,,,,,,,,,,,,,,,,,,,,,,,,,,,,,,,,,,,,,,,,,,,,,,,,,,,,,,,,338.623786629003,338.63403645200015,343.62797850900097,343.62234757900296,sub-212,1,stroop_test,89.47196616472367,
