wordCTK,colorCTK,corrAnsCTK,congruentCTK,thisN,thisTrialN,thisRepN,keyResp_CTK.keys,keyResp_CTK.corr,keyResp_CTK.rt,keyResp_CTK.duration,wordPractice,colorPractice,corrAnsPractice,congruentPractice,respPractice.keys,respPractice.corr,respPractice.rt,respPractice.duration,word,color,corrAns,congruent,keyResp_test_run.keys,keyResp_test_run.corr,keyResp_test_run.rt,keyResp_test_run.duration,trials_CTK.thisRepN,trials_CTK.thisTrialN,trials_CTK.thisN,trials_CTK.thisIndex,trials_practice.thisRepN,trials_practice.thisTrialN,trials_practice.thisN,trials_practice.thisIndex,trials_test.thisRepN,trials_test.thisTrialN,trials_test.thisN,trials_test.thisIndex,thisRow.t,notes,instruction.started,instr_text.started,instr_image.started,instr_resp.started,instruction.stopped,instr_resp.keys,instr_resp.rt,instr_resp.duration,instr_color_to_key.started,instr_ctk.started,resp_ctk.started,instr_color_to_key.stopped,resp_ctk.keys,resp_ctk.rt,resp_ctk.duration,ITI.started,fixcross.started,fixcross.stopped,ITI.stopped,color_to_key_run.started,stimulus_CTK.started,keyResp_CTK.started,color_to_key_run.stopped,trials_CTK.keyResp_CTK.keys,trials_CTK.keyResp_CTK.corr,trials_CTK.keyResp_CTK.rt,trials_CTK.keyResp_CTK.duration,instr_practice.started,instr_practice_text.started,instr_practice_resp.started,instr_practice.stopped,instr_practice_resp.keys,instr_practice_resp.rt,instr_practice_resp.duration,practice_run.started,stimulus_practice.started,respPractice.started,practice_run.stopped,trials_practice.respPractice.keys,trials_practice.respPractice.corr,trials_practice.respPractice.rt,trials_practice.respPractice.duration,feedback.started,textFeedback.started,feedback.stopped,textFeedback.stopped,instr_test.started,instr_test_text.started,instr_test_resp.started,instr_test.stopped,instr_test_resp.keys,instr_test_resp.rt,instr_test_resp.duration,test_run.started,stimulus_test_run.started,keyResp_test_run.started,test_run.stopped,trials_test.keyResp_test_run.keys,trials_test.keyResp_test_run.corr,trials_test.keyResp_test_run.rt,trials_test.keyResp_test_run.duration,goodbye.started,textGoodbye.started,textGoodbye.stopped,goodbye.stopped,participant,session,expName,frameRate,Unnamed: 113
,,,,,,,,,,,,,,,,,,,,,,,,,,,,,,,,,,,,,,,,,0.006146700005047,0.1042595000471919,0.1042595000471919,0.1042595000471919,48.169899100088514,space,47.77661290008109,,,,,,,,,,,,,,,,,,,,,,,,,,,,,,,,,,,,,,,,,,,,,,,,,,,,,,,,,,,sub-237,3,stroop_test,60.06864645440062,
,,,,,,,,,,,,,,,,,,,,,,,,,,,,,,,,,,,,,,,,,,,,,,,,,48.170115799992345,48.183061200077645,48.183061200077645,55.73947430006229,space,7.544938099919818,,,,,,,,,,,,,,,,,,,,,,,,,,,,,,,,,,,,,,,,,,,,,,,,,,,,sub-237,3,stroop_test,60.06864645440062,
test,yellow,g,1.0,0.0,0.0,0.0,g,1.0,3.283684200025164,,,,,,,,,,,,,,,,,,0.0,0.0,0.0,1.0,,,,,,,,,55.78219300007913,,,,,,,,,,,,,,,,,55.77593650005292,56.103079800028354,56.92485010006931,56.88793470000383,56.91479340009391,56.92485010006931,56.92485010006931,60.22198370005936,g,1.0,3.283684200025164,,,,,,,,,,,,,,,,,,,,,,,,,,,,,,,,,,,,,,,,sub-237,3,stroop_test,60.06864645440062,
test,red,r,1.0,1.0,1.0,0.0,r,1.0,0.7088563999859616,,,,,,,,,,,,,,,,,,0.0,1.0,1.0,0.0,,,,,,,,,60.23594080004841,,,,,,,,,,,,,,,,,60.22277100000065,61.035890600061975,61.835599999991246,61.82050750008784,61.82184119999874,61.835599999991246,61.835599999991246,62.55510220001452,r,1.0,0.7088563999859616,,,,,,,,,,,,,,,,,,,,,,,,,,,,,,,,,,,,,,,,sub-237,3,stroop_test,60.06864645440062,
test,blue,b,1.0,2.0,2.0,0.0,b,1.0,0.4048162000253796,,,,,,,,,,,,,,,,,,0.0,2.0,2.0,2.0,,,,,,,,,62.569005500059575,,,,,,,,,,,,,,,,,62.5559346000664,63.36891810002271,64.16871410002932,64.15399790008087,64.155600600061,64.16871410002932,64.16871410002932,64.58817960007582,b,1.0,0.4048162000253796,,,,,,,,,,,,,,,,,,,,,,,,,,,,,,,,,,,,,,,,sub-237,3,stroop_test,60.06864645440062,
test,yellow,g,1.0,3.0,0.0,1.0,g,1.0,0.5766011999221519,,,,,,,,,,,,,,,,,,1.0,0.0,3.0,1.0,,,,,,,,,64.60195610008668,,,,,,,,,,,,,,,,,64.58900899998844,65.80211430008058,66.60176800005138,66.58657550008502,66.58789259998593,66.60176800005138,66.60176800005138,67.18805340002291,g,1.0,0.5766011999221519,,,,,,,,,,,,,,,,,,,,,,,,,,,,,,,,,,,,,,,,sub-237,3,stroop_test,60.06864645440062,
test,red,r,1.0,4.0,1.0,1.0,r,1.0,0.3766840999014675,,,,,,,,,,,,,,,,,,1.0,1.0,4.0,0.0,,,,,,,,,67.20159589999821,,,,,,,,,,,,,,,,,67.18884670000989,68.40157220000401,69.20151400007308,69.18651310005225,69.1880304000806,69.20151400007308,69.20151400007308,69.58754149999004,r,1.0,0.3766840999014675,,,,,,,,,,,,,,,,,,,,,,,,,,,,,,,,,,,,,,,,sub-237,3,stroop_test,60.06864645440062,
test,blue,b,1.0,5.0,2.0,1.0,b,1.0,0.354291700059548,,,,,,,,,,,,,,,,,,1.0,2.0,5.0,2.0,,,,,,,,,69.60154459998012,,,,,,,,,,,,,,,,,69.58840070001315,69.95124450000003,70.75120599998627,70.73602690000553,70.73734770005103,70.75120599998627,70.75120599998627,71.12053780001588,b,1.0,0.354291700059548,,,,,,,,,,,,,,,,,,,,,,,,,,,,,,,,,,,,,,,,sub-237,3,stroop_test,60.06864645440062,
test,red,r,1.0,6.0,0.0,2.0,r,1.0,0.5370158998994157,,,,,,,,,,,,,,,,,,2.0,0.0,6.0,0.0,,,,,,,,,71.13448670005891,,,,,,,,,,,,,,,,,71.12133320001885,71.48449850000907,72.28431770007592,72.2692754000891,72.27059940004256,72.28431770007592,72.28431770007592,72.83719680004288,r,1.0,0.5370158998994157,,,,,,,,,,,,,,,,,,,,,,,,,,,,,,,,,,,,,,,,sub-237,3,stroop_test,60.06864645440062,
test,blue,b,1.0,7.0,1.0,2.0,b,1.0,0.4808212000643834,,,,,,,,,,,,,,,,,,2.0,1.0,7.0,2.0,,,,,,,,,72.85093080007937,,,,,,,,,,,,,,,,,72.83798549999483,74.05080369999632,74.85072970006149,74.8358273000922,74.83728690003045,74.85072970006149,74.85072970006149,75.33721210004296,b,1.0,0.4808212000643834,,,,,,,,,,,,,,,,,,,,,,,,,,,,,,,,,,,,,,,,sub-237,3,stroop_test,60.06864645440062,
test,yellow,g,1.0,8.0,2.0,2.0,g,1.0,0.5290273999562487,,,,,,,,,,,,,,,,,,2.0,2.0,8.0,1.0,,,,,,,,,75.35054900008254,,,,,,,,,,,,,,,,,75.33802890009247,76.55049360007979,77.35034330002964,77.33541729999706,77.33695130003616,77.35034330002964,77.35034330002964,77.88651330000721,g,1.0,0.5290273999562487,,,,,,,,,,,,,,,,,,,,,,,,,,,,,,,,,,,,,,,,sub-237,3,stroop_test,60.06864645440062,
test,blue,b,1.0,9.0,0.0,3.0,b,1.0,0.5339177999412641,,,,,,,,,,,,,,,,,,3.0,0.0,9.0,2.0,,,,,,,,,77.90016820002347,,,,,,,,,,,,,,,,,77.88736520009115,79.10022700007539,79.90002130006906,79.88505350006744,79.88644670008216,79.90002130006906,79.90002130006906,80.4365383000113,b,1.0,0.5339177999412641,,,,,,,,,,,,,,,,,,,,,,,,,,,,,,,,,,,,,,,,sub-237,3,stroop_test,60.06864645440062,
test,red,r,1.0,10.0,1.0,3.0,r,1.0,0.2943742999341339,,,,,,,,,,,,,,,,,,3.0,1.0,10.0,0.0,,,,,,,,,80.45002009999007,,,,,,,,,,,,,,,,,80.43738220003434,81.64998310001101,82.44978190003894,82.43483270006254,82.4362708000699,82.44978190003894,82.44978190003894,82.75265080004465,r,1.0,0.2943742999341339,,,,,,,,,,,,,,,,,,,,,,,,,,,,,,,,,,,,,,,,sub-237,3,stroop_test,60.06864645440062,
test,yellow,g,1.0,11.0,2.0,3.0,g,1.0,0.4695339000318199,,,,,,,,,,,,,,,,,,3.0,2.0,11.0,1.0,,,,,,,,,82.766229400062,,,,,,,,,,,,,,,,,82.75346720009111,83.1162023000652,83.91616170003545,83.9013213000726,83.90284380002413,83.91616170003545,83.91616170003545,84.40255830006208,g,1.0,0.4695339000318199,,,,,,,,,,,,,,,,,,,,,,,,,,,,,,,,,,,,,,,,sub-237,3,stroop_test,60.06864645440062,
,,,,,,,,,,,,,,,,,,,,,,,,,,,,,,,,,,,,,,,,,,,,,,,,,,,,,,,,,,,,,,,,,,,,84.40301110001747,84.41622580005787,84.41622580005787,90.01859160000458,space,5.589321999927051,,,,,,,,,,,,,,,,,,,,,,,,,,,,,,,,,sub-237,3,stroop_test,60.06864645440062,
,,,,0.0,0.0,0.0,,,,,blau,red,r,0.0,b,0.0,0.8900244999676943,,,,,,,,,,,,,,0.0,0.0,0.0,4.0,,,,,90.05261790007353,,,,,,,,,,,,,,,,,90.04657430003863,90.83195590006652,91.64403169997968,91.6167737999931,,,,,,,,,,,,,,,,91.63476130005438,91.64403169997968,91.64403169997968,92.55108530004507,b,0.0,0.8900244999676943,,92.57102180004586,92.57796480006073,93.56526719999964,,,,,,,,,,,,,,,,,,,,,sub-237,3,stroop_test,60.06864645440062,
,,,,1.0,1.0,0.0,,,,,gelb,yellow,g,1.0,g,1.0,0.9681506999768316,,,,,,,,,,,,,,0.0,1.0,1.0,10.0,,,,,93.58155100001022,,,,,,,,,,,,,,,,,93.56605550006498,93.91484870004932,94.72396570001727,94.69986070005687,,,,,,,,,,,,,,,,94.7132262000814,94.72396570001727,94.72396570001727,95.7007129000267,g,1.0,0.9681506999768316,,95.71863590006252,95.73042130004616,96.71501620009076,,,,,,,,,,,,,,,,,,,,,sub-237,3,stroop_test,60.06864645440062,
,,,,2.0,2.0,0.0,,,,,blau,blue,b,1.0,b,1.0,0.8273061999352649,,,,,,,,,,,,,,0.0,2.0,2.0,6.0,,,,,96.73133229999804,,,,,,,,,,,,,,,,,96.71586400002708,96.81454900000244,97.6172672000248,97.59960630000568,,,,,,,,,,,,,,,,97.60834150004666,97.6172672000248,97.6172672000248,98.45061090006492,b,1.0,0.8273061999352649,,98.45202870003412,98.46447130001616,99.44900880008936,99.46401900006458,,,,,,,,,,,,,,,,,,,,sub-237,3,stroop_test,60.06864645440062,
,,,,3.0,3.0,0.0,,,,,rot,blue,b,0.0,r,0.0,0.8926617000252008,,,,,,,,,,,,,,0.0,3.0,3.0,2.0,,,,,99.46401900006458,,,,,,,,,,,,,,,,,99.4497915999964,99.56410489999688,100.37168670003302,100.34884150000288,,,,,,,,,,,,,,,,100.36124150000978,100.37168670003302,100.37168670003302,101.26735830004328,r,0.0,0.8926617000252008,,101.277273899992,101.28839590004644,102.28089050005656,,,,,,,,,,,,,,,,,,,,,sub-237,3,stroop_test,60.06864645440062,
,,,,4.0,4.0,0.0,,,,,gelb,yellow,g,1.0,g,1.0,0.7979247999610379,,,,,,,,,,,,,,0.0,4.0,4.0,11.0,,,,,102.29722090007272,,,,,,,,,,,,,,,,,102.28168490005191,102.63058630004524,103.43437700008508,103.41528539999854,,,,,,,,,,,,,,,,103.42428520007525,103.43437700008508,103.43437700008508,104.24990060005804,g,1.0,0.7979247999610379,,104.26120270008688,104.27155340008903,105.26376360002904,,,,,,,,,,,,,,,,,,,,,sub-237,3,stroop_test,60.06864645440062,
,,,,5.0,5.0,0.0,,,,,gelb,red,r,0.0,r,1.0,0.6483029999071732,,,,,,,,,,,,,,0.0,5.0,5.0,8.0,,,,,105.28018680005334,,,,,,,,,,,,,,,,,105.26460600004066,105.36330540000928,106.16328460001388,106.14867130003404,,,,,,,,,,,,,,,,106.1500731999986,106.16328460001388,106.16328460001388,106.8161984999897,r,1.0,0.6483029999071732,,106.817613500054,106.83001120004336,107.81465630000456,107.82966879999732,,,,,,,,,,,,,,,,,,,,sub-237,3,stroop_test,60.06864645440062,
,,,,6.0,6.0,0.0,,,,,rot,red,r,1.0,r,1.0,0.7042579000117257,,,,,,,,,,,,,,0.0,6.0,6.0,1.0,,,,,107.82966879999732,,,,,,,,,,,,,,,,,107.8154733000556,109.02967760001776,109.83579849998932,109.81477410008664,,,,,,,,,,,,,,,,109.8250542000169,109.83579849998932,109.83579849998932,110.54862120002508,r,1.0,0.7042579000117257,,110.54997520009056,110.56268690002616,111.54761700006202,111.5627510000486,,,,,,,,,,,,,,,,,,,,sub-237,3,stroop_test,60.06864645440062,
,,,,7.0,7.0,0.0,,,,,gelb,blue,b,0.0,b,1.0,0.9609454999445006,,,,,,,,,,,,,,0.0,7.0,7.0,9.0,,,,,111.5627510000486,,,,,,,,,,,,,,,,,111.54837089998182,112.76252880005632,113.56697819998952,113.54718170000706,,,,,,,,,,,,,,,,113.55638080008794,113.56697819998952,113.56697819998952,114.5319566000253,b,1.0,0.9609454999445006,,114.53341030003504,114.5455180000281,115.53026600007432,115.54538570006844,,,,,,,,,,,,,,,,,,,,sub-237,3,stroop_test,60.06864645440062,
,,,,8.0,8.0,0.0,,,,,blau,yellow,g,0.0,g,1.0,0.7408563999924809,,,,,,,,,,,,,,0.0,8.0,8.0,7.0,,,,,115.54538570006844,,,,,,,,,,,,,,,,,115.5310257000383,116.3453342000721,117.14703790005296,117.13014030002525,,,,,,,,,,,,,,,,117.1377789999824,117.14703790005296,117.14703790005296,117.89809899998365,g,1.0,0.7408563999924809,,117.89951450005174,117.91183050000107,118.8966325999936,118.91158509999514,,,,,,,,,,,,,,,,,,,,sub-237,3,stroop_test,60.06864645440062,
,,,,9.0,9.0,0.0,,,,,rot,red,r,1.0,r,1.0,0.7246031000977382,,,,,,,,,,,,,,0.0,9.0,9.0,0.0,,,,,118.91158509999514,,,,,,,,,,,,,,,,,118.8974678000668,119.71158600004856,120.51733220007736,120.49678520008456,,,,,,,,,,,,,,,,120.50638760009316,120.51733220007736,120.51733220007736,121.24760390003212,r,1.0,0.7246031000977382,,121.24898260005284,121.26143100007904,122.24633740005083,122.26126920001116,,,,,,,,,,,,,,,,,,,,sub-237,3,stroop_test,60.06864645440062,
,,,,10.0,10.0,0.0,,,,,rot,yellow,g,0.0,g,1.0,0.8542985999956727,,,,,,,,,,,,,,0.0,10.0,10.0,3.0,,,,,122.26126920001116,,,,,,,,,,,,,,,,,122.24709690001328,122.61113189999014,123.4110750000691,123.39634360000493,,,,,,,,,,,,,,,,123.39788070006762,123.4110750000691,123.4110750000691,124.28023290005513,g,1.0,0.8542985999956727,,124.28166249999776,124.29437020001932,125.2790208000224,125.29407080006786,,,,,,,,,,,,,,,,,,,,sub-237,3,stroop_test,60.06864645440062,
,,,,11.0,11.0,0.0,,,,,blau,blue,b,1.0,b,1.0,0.5864743000129238,,,,,,,,,,,,,,0.0,11.0,11.0,5.0,,,,,125.29407080006786,,,,,,,,,,,,,,,,,125.27980999997816,126.49407290003728,127.29502010007856,127.27871720003895,,,,,,,,,,,,,,,,127.28633999999148,127.29502010007856,127.29502010007856,127.89669640001377,b,1.0,0.5864743000129238,,127.8980815000832,127.9105450999923,128.89524440001696,128.9103292999789,,,,,,,,,,,,,,,,,,,,sub-237,3,stroop_test,60.06864645440062,
,,,,12.0,0.0,1.0,,,,,gelb,blue,b,0.0,b,1.0,1.025484999991022,,,,,,,,,,,,,,1.0,0.0,12.0,9.0,,,,,128.9103292999789,,,,,,,,,,,,,,,,,128.89601440005936,129.71034380001947,130.51482470007613,130.49519300006796,,,,,,,,,,,,,,,,130.50506220001262,130.51482470007613,130.51482470007613,131.5461666000774,b,1.0,1.025484999991022,,131.54756259999704,131.56010040000547,132.54481900006067,132.55981100001372,,,,,,,,,,,,,,,,,,,,sub-237,3,stroop_test,60.06864645440062,
,,,,13.0,1.0,1.0,,,,,rot,yellow,g,0.0,g,1.0,1.057072199997492,,,,,,,,,,,,,,1.0,1.0,13.0,3.0,,,,,132.55981100001372,,,,,,,,,,,,,,,,,132.54564000002574,133.7596658000257,134.56552030006424,134.54517609998584,,,,,,,,,,,,,,,,134.55518939998,134.56552030006424,134.56552030006424,135.6288663999876,g,1.0,1.057072199997492,,135.63028210005723,135.6427975000115,136.6279226000188,136.6425869000377,,,,,,,,,,,,,,,,,,,,sub-237,3,stroop_test,60.06864645440062,
,,,,14.0,2.0,1.0,,,,,rot,red,r,1.0,r,1.0,0.6157934999791905,,,,,,,,,,,,,,1.0,2.0,14.0,0.0,,,,,136.6425869000377,,,,,,,,,,,,,,,,,136.6287215000484,136.99260130000766,137.79260919999797,137.77736000006553,,,,,,,,,,,,,,,,137.778655000031,137.79260919999797,137.79260919999797,138.41030180000234,r,1.0,0.6157934999791905,,138.41088530002162,138.4254352999851,139.4106305000605,139.42553620005492,,,,,,,,,,,,,,,,,,,,sub-237,3,stroop_test,60.06864645440062,
,,,,15.0,3.0,1.0,,,,,gelb,yellow,g,1.0,g,1.0,0.5036298000486568,,,,,,,,,,,,,,1.0,3.0,15.0,11.0,,,,,139.42553620005492,,,,,,,,,,,,,,,,,139.411453000037,140.22551790007856,141.03019459999632,141.01040610007476,,,,,,,,,,,,,,,,141.01957970007788,141.03019459999632,141.03019459999632,141.5447929999791,g,1.0,0.5036298000486568,,141.54609850002453,141.5587200000882,142.54347809997853,142.55858509999234,,,,,,,,,,,,,,,,,,,,sub-237,3,stroop_test,60.06864645440062,
,,,,16.0,4.0,1.0,,,,,gelb,yellow,g,1.0,g,1.0,0.503897299990058,,,,,,,,,,,,,,1.0,4.0,16.0,10.0,,,,,142.55858509999234,,,,,,,,,,,,,,,,,142.54443640005775,142.65863070008345,143.45845420006663,143.4439120000461,,,,,,,,,,,,,,,,143.44541650009342,143.45845420006663,143.45845420006663,143.97817290003877,g,1.0,0.503897299990058,,143.9796137000667,143.9916882000398,144.97654370008968,144.9915464000078,,,,,,,,,,,,,,,,,,,,sub-237,3,stroop_test,60.06864645440062,
,,,,17.0,5.0,1.0,,,,,rot,blue,b,0.0,b,1.0,0.6401383000193164,,,,,,,,,,,,,,1.0,5.0,17.0,2.0,,,,,144.9915464000078,,,,,,,,,,,,,,,,,144.97730800008867,145.3415131000802,146.14496659999713,146.12638140004128,,,,,,,,,,,,,,,,146.13541620003525,146.14496659999713,146.14496659999713,146.79420800006483,b,1.0,0.6401383000193164,,146.79561929998454,146.80802700005006,147.79287370003294,147.8078326000832,,,,,,,,,,,,,,,,,,,,sub-237,3,stroop_test,60.06864645440062,
,,,,18.0,6.0,1.0,,,,,gelb,red,r,0.0,r,1.0,1.057015800033696,,,,,,,,,,,,,,1.0,6.0,18.0,8.0,,,,,147.8078326000832,,,,,,,,,,,,,,,,,147.7937007000437,148.157822499983,148.96206290007103,148.94267280003987,,,,,,,,,,,,,,,,148.95204090001062,148.96206290007103,148.96206290007103,150.02701710001566,r,1.0,1.057015800033696,,150.02839270001277,150.041003499995,151.02568570000585,151.04077770002186,,,,,,,,,,,,,,,,,,,,sub-237,3,stroop_test,60.06864645440062,
,,,,19.0,7.0,1.0,,,,,blau,blue,b,1.0,b,1.0,0.6837193999672309,,,,,,,,,,,,,,1.0,7.0,19.0,5.0,,,,,151.04077770002186,,,,,,,,,,,,,,,,,151.0264508000109,152.24079850001726,153.0444113999838,153.0254905000329,,,,,,,,,,,,,,,,153.03487650002353,153.0444113999838,153.0444113999838,153.74344430002384,b,1.0,0.6837193999672309,,153.74484460009262,153.75712419999763,154.74192579998635,154.7569013000466,,,,,,,,,,,,,,,,,,,,sub-237,3,stroop_test,60.06864645440062,
,,,,20.0,8.0,1.0,,,,,blau,blue,b,1.0,b,1.0,0.6820868999930099,,,,,,,,,,,,,,1.0,8.0,20.0,6.0,,,,,154.7569013000466,,,,,,,,,,,,,,,,,154.74273920000996,155.5568445000099,156.35689679998904,156.3415869000601,,,,,,,,,,,,,,,,156.342856900068,156.35689679998904,156.35689679998904,157.04333560005762,b,1.0,0.6820868999930099,,157.04473940003663,157.05661440000404,158.041490899981,158.0565157000674,,,,,,,,,,,,,,,,,,,,sub-237,3,stroop_test,60.06864645440062,
,,,,21.0,9.0,1.0,,,,,rot,red,r,1.0,r,1.0,0.6972160000586882,,,,,,,,,,,,,,1.0,9.0,21.0,1.0,,,,,158.0565157000674,,,,,,,,,,,,,,,,,158.04231220006477,158.15649169997778,158.96137690008618,158.94126620003954,,,,,,,,,,,,,,,,158.95091960008722,158.96137690008618,158.96137690008618,159.67568300000858,r,1.0,0.6972160000586882,,159.67714180005714,159.68972550006583,160.67458350001834,160.68950129998848,,,,,,,,,,,,,,,,,,,,sub-237,3,stroop_test,60.06864645440062,
,,,,22.0,10.0,1.0,,,,,blau,yellow,g,0.0,b,0.0,0.8248966000974178,,,,,,,,,,,,,,1.0,10.0,22.0,7.0,,,,,160.68950129998848,,,,,,,,,,,,,,,,,160.67538840009365,160.78964020009153,161.59180330007803,161.5747473000083,,,,,,,,,,,,,,,,161.58240710000973,161.59180330007803,161.59180330007803,162.42553500004578,b,0.0,0.8248966000974178,,162.43622780009173,162.4476289000595,163.43956379999872,,,,,,,,,,,,,,,,,,,,,sub-237,3,stroop_test,60.06864645440062,
,,,,23.0,11.0,1.0,,,,,blau,red,r,0.0,r,1.0,1.0091387000866234,,,,,,,,,,,,,,1.0,11.0,23.0,4.0,,,,,163.4560013000155,,,,,,,,,,,,,,,,,163.44034319999628,163.7893174000783,164.5890826000832,164.57423320005182,,,,,,,,,,,,,,,,164.5757807000773,164.5890826000832,164.5890826000832,165.60830550000537,r,1.0,1.0091387000866234,,165.61919070000295,165.63039180007763,166.6225289000431,,,,,,,,,,,,,,,,,,,,,sub-237,3,stroop_test,60.06864645440062,
,,,,,,,,,,,,,,,,,,,,,,,,,,,,,,,,,,,,,,,,,,,,,,,,,,,,,,,,,,,,,,,,,,,,,,,,,,,,,,,,,,,,,,,166.62283850007225,166.63886250008363,166.63886250008363,172.59127410000656,space,5.949701500008814,,,,,,,,,,,,,,sub-237,3,stroop_test,60.06864645440062,
,,,,0.0,0.0,0.0,,,,,,,,,,,,,gelb,yellow,g,1.0,g,1.0,1.00845060008578,,,,,,,,,,0.0,0.0,0.0,10.0,172.62642049998976,,,,,,,,,,,,,,,,,172.6206045000581,172.70461870008148,173.50824780005496,173.4895454000216,,,,,,,,,,,,,,,,,,,,,,,,,,,,,,,,,,,173.49861680006143,173.50824780005496,173.50824780005496,174.52435239998158,g,1.0,1.00845060008578,,,,,,sub-237,3,stroop_test,60.06864645440062,
,,,,1.0,1.0,0.0,,,,,,,,,,,,,blau,yellow,g,0.0,b,0.0,0.696451099938713,,,,,,,,,,0.0,1.0,1.0,7.0,174.53771549998785,,,,,,,,,,,,,,,,,174.52527400001418,174.637817800045,175.4417616000865,175.42282910004724,,,,,,,,,,,,,,,,,,,,,,,,,,,,,,,,,,,175.43212880007923,175.4417616000865,175.4417616000865,176.14077370008454,b,0.0,0.696451099938713,,,,,,sub-237,3,stroop_test,60.06864645440062,
,,,,2.0,2.0,0.0,,,,,,,,,,,,,rot,blue,b,0.0,b,1.0,1.4958083999808878,,,,,,,,,,0.0,2.0,2.0,2.0,176.15413150005045,,,,,,,,,,,,,,,,,176.1416701000417,176.50425670004915,177.30826690001413,177.28923890006263,,,,,,,,,,,,,,,,,,,,,,,,,,,,,,,,,,,177.29793160001282,177.30826690001413,177.30826690001413,178.80687179998495,b,1.0,1.4958083999808878,,,,,,sub-237,3,stroop_test,60.06864645440062,
,,,,3.0,3.0,0.0,,,,,,,,,,,,,rot,red,r,1.0,r,1.0,1.2165929999900982,,,,,,,,,,0.0,3.0,3.0,1.0,178.8204379000235,,,,,,,,,,,,,,,,,178.80779230000917,180.02046999998856,180.82040369999595,180.80528900003992,,,,,,,,,,,,,,,,,,,,,,,,,,,,,,,,,,,180.80662520008627,180.82040369999595,180.82040369999595,182.0399625999853,r,1.0,1.2165929999900982,,,,,,sub-237,3,stroop_test,60.06864645440062,
,,,,4.0,4.0,0.0,,,,,,,,,,,,,gelb,red,r,0.0,r,1.0,0.9721366999438033,,,,,,,,,,0.0,4.0,4.0,8.0,182.0533337000525,,,,,,,,,,,,,,,,,182.04093400004783,182.15358859999105,182.957527599996,182.93837990006432,,,,,,,,,,,,,,,,,,,,,,,,,,,,,,,,,,,182.9475906000007,182.957527599996,182.957527599996,183.9392269999953,r,1.0,0.9721366999438033,,,,,,sub-237,3,stroop_test,60.06864645440062,
,,,,5.0,5.0,0.0,,,,,,,,,,,,,blau,red,r,0.0,b,0.0,0.7087953999871388,,,,,,,,,,0.0,5.0,5.0,4.0,183.9533207000932,,,,,,,,,,,,,,,,,183.94018270005472,184.30309860000847,185.10462080000437,185.08812730002683,,,,,,,,,,,,,,,,,,,,,,,,,,,,,,,,,,,185.0959151000716,185.10462080000437,185.10462080000437,185.82253270002548,b,0.0,0.7087953999871388,,,,,,sub-237,3,stroop_test,60.06864645440062,
,,,,6.0,6.0,0.0,,,,,,,,,,,,,gelb,yellow,g,1.0,g,1.0,0.80757059995085,,,,,,,,,,0.0,6.0,6.0,11.0,185.83631460007743,,,,,,,,,,,,,,,,,185.82349520002023,186.18625600007363,186.9903618000681,186.97102490009277,,,,,,,,,,,,,,,,,,,,,,,,,,,,,,,,,,,186.98017310001887,186.9903618000681,186.9903618000681,187.80570320005063,g,1.0,0.80757059995085,,,,,,sub-237,3,stroop_test,60.06864645440062,
,,,,7.0,7.0,0.0,,,,,,,,,,,,,rot,yellow,g,0.0,g,1.0,1.0993650999153033,,,,,,,,,,0.0,7.0,7.0,3.0,187.8194199000718,,,,,,,,,,,,,,,,,187.8066531000659,188.16926720004997,188.9754155999981,188.95403930009343,,,,,,,,,,,,,,,,,,,,,,,,,,,,,,,,,,,188.96335360000376,188.9754155999981,188.9754155999981,190.0887082000263,g,1.0,1.0993650999153033,,,,,,sub-237,3,stroop_test,60.06864645440062,
,,,,8.0,8.0,0.0,,,,,,,,,,,,,rot,red,r,1.0,r,1.0,0.6839531000005081,,,,,,,,,,0.0,8.0,8.0,0.0,190.1025377000915,,,,,,,,,,,,,,,,,190.08964630006813,190.4523501000367,191.25226480001584,191.23713760008104,,,,,,,,,,,,,,,,,,,,,,,,,,,,,,,,,,,191.23842579999476,191.25226480001584,191.25226480001584,191.93885670008603,r,1.0,0.6839531000005081,,,,,,sub-237,3,stroop_test,60.06864645440062,
,,,,9.0,9.0,0.0,,,,,,,,,,,,,blau,blue,b,1.0,b,1.0,1.019668999942951,,,,,,,,,,0.0,9.0,9.0,5.0,191.9521138999844,,,,,,,,,,,,,,,,,191.93979109998327,193.15206500003117,193.95635740004943,193.93730160000268,,,,,,,,,,,,,,,,,,,,,,,,,,,,,,,,,,,193.94746430008672,193.95635740004943,193.95635740004943,194.9884440000169,b,1.0,1.019668999942951,,,,,,sub-237,3,stroop_test,60.06864645440062,
,,,,10.0,10.0,0.0,,,,,,,,,,,,,gelb,blue,b,0.0,b,1.0,1.1443649999564514,,,,,,,,,,0.0,10.0,10.0,9.0,195.0017684000777,,,,,,,,,,,,,,,,,194.98939730005804,196.20176349999383,197.0050504000392,196.9865280999802,,,,,,,,,,,,,,,,,,,,,,,,,,,,,,,,,,,196.9954508000519,197.0050504000392,197.0050504000392,198.1541722000111,b,1.0,1.1443649999564514,,,,,,sub-237,3,stroop_test,60.06864645440062,
,,,,11.0,11.0,0.0,,,,,,,,,,,,,blau,blue,b,1.0,b,1.0,1.0304716000100598,,,,,,,,,,0.0,11.0,11.0,6.0,198.1680601000553,,,,,,,,,,,,,,,,,198.1551155000925,198.9679623000557,199.77110130002256,199.75310620001983,,,,,,,,,,,,,,,,,,,,,,,,,,,,,,,,,,,199.76191310002469,199.77110130002256,199.77110130002256,200.8043328000931,b,1.0,1.0304716000100598,,,,,,sub-237,3,stroop_test,60.06864645440062,
,,,,12.0,0.0,1.0,,,,,,,,,,,,,blau,blue,b,1.0,b,1.0,0.6097084999782965,,,,,,,,,,1.0,0.0,12.0,6.0,200.81761800008823,,,,,,,,,,,,,,,,,200.8052740000421,202.01758920005523,202.81755520007573,202.8019457000773,,,,,,,,,,,,,,,,,,,,,,,,,,,,,,,,,,,202.8031023000367,202.81755520007573,202.81755520007573,203.435467400006,b,1.0,0.6097084999782965,,,,,,sub-237,3,stroop_test,60.06864645440062,
,,,,13.0,1.0,1.0,,,,,,,,,,,,,rot,yellow,g,0.0,g,1.0,1.2677206000080332,,,,,,,,,,1.0,1.0,13.0,3.0,203.45050520007496,,,,,,,,,,,,,,,,,203.4359927000478,204.6506421000231,205.44996120000724,205.43505620001812,,,,,,,,,,,,,,,,,,,,,,,,,,,,,,,,,,,205.44132430001628,205.44996120000724,205.44996120000724,206.73521499999333,g,1.0,1.2677206000080332,,,,,,sub-237,3,stroop_test,60.06864645440062,
,,,,14.0,2.0,1.0,,,,,,,,,,,,,rot,red,r,1.0,r,1.0,0.997012999956496,,,,,,,,,,1.0,2.0,14.0,0.0,206.7498657000251,,,,,,,,,,,,,,,,,206.73586460005023,207.10025350004435,207.90009090001692,207.88488909997977,,,,,,,,,,,,,,,,,,,,,,,,,,,,,,,,,,,207.8863687000703,207.90009090001692,207.90009090001692,208.90294240007643,r,1.0,0.997012999956496,,,,,,sub-237,3,stroop_test,60.06864645440062,
,,,,15.0,3.0,1.0,,,,,,,,,,,,,rot,red,r,1.0,r,1.0,0.6936858000699431,,,,,,,,,,1.0,3.0,15.0,1.0,208.916705599986,,,,,,,,,,,,,,,,,208.90385880006943,209.71645300008825,210.51650969998445,210.50194029998968,,,,,,,,,,,,,,,,,,,,,,,,,,,,,,,,,,,210.50364170002285,210.51650969998445,210.51650969998445,211.21912999998312,r,1.0,0.6936858000699431,,,,,,sub-237,3,stroop_test,60.06864645440062,
,,,,16.0,4.0,1.0,,,,,,,,,,,,,blau,red,r,0.0,b,0.0,0.7611069999402389,,,,,,,,,,1.0,4.0,16.0,4.0,211.2330390000716,,,,,,,,,,,,,,,,,211.22010400006548,211.5828960000072,212.38729510002304,212.36783710005693,,,,,,,,,,,,,,,,,,,,,,,,,,,,,,,,,,,212.37609919998795,212.38729510002304,212.38729510002304,213.15058670006687,b,0.0,0.7611069999402389,,,,,,sub-237,3,stroop_test,60.06864645440062,
,,,,17.0,5.0,1.0,,,,,,,,,,,,,gelb,red,r,0.0,r,1.0,0.9585462999530135,,,,,,,,,,1.0,5.0,17.0,8.0,213.16554529999848,,,,,,,,,,,,,,,,,213.1510589000536,214.3660372000886,215.1705880999798,215.15081400005147,,,,,,,,,,,,,,,,,,,,,,,,,,,,,,,,,,,215.1604600000428,215.1705880999798,215.1705880999798,216.13618300005328,r,1.0,0.9585462999530135,,,,,,sub-237,3,stroop_test,60.06864645440062,
,,,,18.0,6.0,1.0,,,,,,,,,,,,,gelb,blue,b,0.0,b,1.0,1.2560638999566436,,,,,,,,,,1.0,6.0,18.0,9.0,216.14901410008315,,,,,,,,,,,,,,,,,216.13724439998623,216.49911460001024,217.2988360000309,217.28453810000792,,,,,,,,,,,,,,,,,,,,,,,,,,,,,,,,,,,217.2860106000444,217.2988360000309,217.2988360000309,218.56659860000943,b,1.0,1.2560638999566436,,,,,,sub-237,3,stroop_test,60.06864645440062,
,,,,19.0,7.0,1.0,,,,,,,,,,,,,gelb,yellow,g,1.0,g,1.0,0.8963675999548286,,,,,,,,,,1.0,7.0,19.0,10.0,218.58153440000024,,,,,,,,,,,,,,,,,218.5671167999972,218.9321382000344,219.7316255000187,219.71572580002248,,,,,,,,,,,,,,,,,,,,,,,,,,,,,,,,,,,219.7164421000052,219.7316255000187,219.7316255000187,220.63550259999465,g,1.0,0.8963675999548286,,,,,,sub-237,3,stroop_test,60.06864645440062,
,,,,20.0,8.0,1.0,,,,,,,,,,,,,rot,blue,b,0.0,b,1.0,1.4753612999338657,,,,,,,,,,1.0,8.0,20.0,2.0,220.6484310000669,,,,,,,,,,,,,,,,,220.6364153000759,220.9984866000013,221.80405230005272,221.78360189998057,,,,,,,,,,,,,,,,,,,,,,,,,,,,,,,,,,,221.79373630008195,221.80405230005272,221.80405230005272,223.28459420008585,b,1.0,1.4753612999338657,,,,,,sub-237,3,stroop_test,60.06864645440062,
,,,,21.0,9.0,1.0,,,,,,,,,,,,,blau,yellow,g,0.0,g,1.0,0.7226049000164494,,,,,,,,,,1.0,9.0,21.0,7.0,223.2980095000239,,,,,,,,,,,,,,,,,223.28555750008672,223.64815250004176,224.45022240001708,224.4327555000782,,,,,,,,,,,,,,,,,,,,,,,,,,,,,,,,,,,224.4407506000716,224.45022240001708,224.45022240001708,225.18417370005045,g,1.0,0.7226049000164494,,,,,,sub-237,3,stroop_test,60.06864645440062,
,,,,22.0,10.0,1.0,,,,,,,,,,,,,gelb,yellow,g,1.0,g,1.0,0.8461638999870047,,,,,,,,,,1.0,10.0,22.0,11.0,225.1977804000489,,,,,,,,,,,,,,,,,225.185107300058,226.3977348000044,227.20203960000072,227.18277299997865,,,,,,,,,,,,,,,,,,,,,,,,,,,,,,,,,,,227.19170149997808,227.20203960000072,227.20203960000072,228.05084660009013,g,1.0,0.8461638999870047,,,,,,sub-237,3,stroop_test,60.06864645440062,
,,,,23.0,11.0,1.0,,,,,,,,,,,,,blau,blue,b,1.0,b,1.0,0.7593252999940887,,,,,,,,,,1.0,11.0,23.0,5.0,228.06425589998253,,,,,,,,,,,,,,,,,228.05174910009373,229.26424200006292,230.06640310003425,230.04882949998137,,,,,,,,,,,,,,,,,,,,,,,,,,,,,,,,,,,230.05680480005685,230.06640310003425,230.06640310003425,230.83337970008145,b,1.0,0.7593252999940887,,,,,,sub-237,3,stroop_test,60.06864645440062,
,,,,24.0,0.0,2.0,,,,,,,,,,,,,gelb,yellow,g,1.0,g,1.0,1.0048865999560803,,,,,,,,,,2.0,0.0,24.0,11.0,230.84721610008276,,,,,,,,,,,,,,,,,230.83430170000065,231.19705870002508,232.00090730004013,231.9819561000913,,,,,,,,,,,,,,,,,,,,,,,,,,,,,,,,,,,231.99071889999323,232.00090730004013,232.00090730004013,233.0162946000928,g,1.0,1.0048865999560803,,,,,,sub-237,3,stroop_test,60.06864645440062,
,,,,25.0,1.0,2.0,,,,,,,,,,,,,gelb,yellow,g,1.0,g,1.0,0.6931986000854522,,,,,,,,,,2.0,1.0,25.0,10.0,233.03027440002188,,,,,,,,,,,,,,,,,233.01723150000907,233.13017640006728,233.93013009999413,233.9150348000694,,,,,,,,,,,,,,,,,,,,,,,,,,,,,,,,,,,233.91632499999832,233.93013009999413,233.93013009999413,234.63291170005687,g,1.0,0.6931986000854522,,,,,,sub-237,3,stroop_test,60.06864645440062,
,,,,26.0,2.0,2.0,,,,,,,,,,,,,rot,blue,b,0.0,b,1.0,1.009036700008437,,,,,,,,,,2.0,2.0,26.0,2.0,234.6465620000381,,,,,,,,,,,,,,,,,234.63382820005063,235.4466139000142,236.2513205000432,236.23123080004007,,,,,,,,,,,,,,,,,,,,,,,,,,,,,,,,,,,236.2406011000276,236.2513205000432,236.2513205000432,237.26607870007865,b,1.0,1.009036700008437,,,,,,sub-237,3,stroop_test,60.06864645440062,
,,,,27.0,3.0,2.0,,,,,,,,,,,,,blau,yellow,g,0.0,g,1.0,0.6591059000929818,,,,,,,,,,2.0,3.0,27.0,7.0,237.27955840004145,,,,,,,,,,,,,,,,,237.26703410001937,237.3796167999972,238.18234499997925,238.16449650004503,,,,,,,,,,,,,,,,,,,,,,,,,,,,,,,,,,,238.1730932000792,238.18234499997925,238.18234499997925,238.84917890001088,g,1.0,0.6591059000929818,,,,,,sub-237,3,stroop_test,60.06864645440062,
,,,,28.0,4.0,2.0,,,,,,,,,,,,,blau,blue,b,1.0,b,1.0,0.9431479999329896,,,,,,,,,,2.0,4.0,28.0,6.0,238.8628119000932,,,,,,,,,,,,,,,,,238.8501081999857,239.2128447000869,240.0127767000813,239.9975196000887,,,,,,,,,,,,,,,,,,,,,,,,,,,,,,,,,,,239.99904410005547,240.0127767000813,240.0127767000813,240.9655989999883,b,1.0,0.9431479999329896,,,,,,sub-237,3,stroop_test,60.06864645440062,
,,,,29.0,5.0,2.0,,,,,,,,,,,,,rot,red,r,1.0,r,1.0,0.8920438000932336,,,,,,,,,,2.0,5.0,29.0,1.0,240.9791190000251,,,,,,,,,,,,,,,,,240.96650300000329,241.0793006999884,241.884661899996,241.86400910001248,,,,,,,,,,,,,,,,,,,,,,,,,,,,,,,,,,,241.874519300065,241.884661899996,241.884661899996,242.7817455000477,r,1.0,0.8920438000932336,,,,,,sub-237,3,stroop_test,60.06864645440062,
,,,,30.0,6.0,2.0,,,,,,,,,,,,,blau,red,r,0.0,r,1.0,1.360045300098136,,,,,,,,,,2.0,6.0,30.0,4.0,242.795664699981,,,,,,,,,,,,,,,,,242.78274500009135,243.1456512000877,243.948015699978,243.93025580001995,,,,,,,,,,,,,,,,,,,,,,,,,,,,,,,,,,,243.93807040003597,243.948015699978,243.948015699978,245.31499220000117,r,1.0,1.360045300098136,,,,,,sub-237,3,stroop_test,60.06864645440062,
,,,,31.0,7.0,2.0,,,,,,,,,,,,,rot,yellow,g,0.0,g,1.0,0.8842542000347748,,,,,,,,,,2.0,7.0,31.0,3.0,245.32851850008592,,,,,,,,,,,,,,,,,245.3158945000032,246.52854740002655,247.33298479998484,247.31379170005675,,,,,,,,,,,,,,,,,,,,,,,,,,,,,,,,,,,247.3227942000376,247.33298479998484,247.33298479998484,248.23088080005252,g,1.0,0.8842542000347748,,,,,,sub-237,3,stroop_test,60.06864645440062,
,,,,32.0,8.0,2.0,,,,,,,,,,,,,gelb,blue,b,0.0,r,0.0,0.9982718999963254,,,,,,,,,,2.0,8.0,32.0,9.0,248.24501210008748,,,,,,,,,,,,,,,,,248.2318363999948,248.59503950004,249.3984622000717,249.37952810002025,,,,,,,,,,,,,,,,,,,,,,,,,,,,,,,,,,,249.38874269998632,249.3984622000717,249.3984622000717,250.4142377000535,r,0.0,0.9982718999963254,,,,,,sub-237,3,stroop_test,60.06864645440062,
,,,,33.0,9.0,2.0,,,,,,,,,,,,,blau,blue,b,1.0,b,1.0,0.6914876999799162,,,,,,,,,,2.0,9.0,33.0,5.0,250.4279570999788,,,,,,,,,,,,,,,,,250.4151756000938,251.22797600005288,252.02963700005785,252.0126910000108,,,,,,,,,,,,,,,,,,,,,,,,,,,,,,,,,,,252.020654699998,252.02963700005785,252.02963700005785,252.73080660006963,b,1.0,0.6914876999799162,,,,,,sub-237,3,stroop_test,60.06864645440062,
,,,,34.0,10.0,2.0,,,,,,,,,,,,,rot,red,r,1.0,r,1.0,0.639131199917756,,,,,,,,,,2.0,10.0,34.0,0.0,252.74418450007212,,,,,,,,,,,,,,,,,252.7318211999955,252.84443880000617,253.64830330002587,253.62906340009067,,,,,,,,,,,,,,,,,,,,,,,,,,,,,,,,,,,253.63776950002648,253.64830330002587,253.64830330002587,254.29702759999785,r,1.0,0.639131199917756,,,,,,sub-237,3,stroop_test,60.06864645440062,
,,,,35.0,11.0,2.0,,,,,,,,,,,,,gelb,red,r,0.0,r,1.0,0.9488230000715704,,,,,,,,,,2.0,11.0,35.0,8.0,254.3108035000041,,,,,,,,,,,,,,,,,254.2979234000668,255.51062140008435,256.313751299982,256.2953900999855,,,,,,,,,,,,,,,,,,,,,,,,,,,,,,,,,,,256.30417040002067,256.313751299982,256.313751299982,257.2799274000572,r,1.0,0.9488230000715704,,,,,,sub-237,3,stroop_test,60.06864645440062,
,,,,36.0,0.0,3.0,,,,,,,,,,,,,gelb,yellow,g,1.0,g,1.0,1.3446446999441832,,,,,,,,,,3.0,0.0,36.0,11.0,257.2936417000601,,,,,,,,,,,,,,,,,257.28084450005554,258.09368910000194,258.8934878000291,258.8787206000416,,,,,,,,,,,,,,,,,,,,,,,,,,,,,,,,,,,258.880299200071,258.8934878000291,258.8934878000291,260.24600749998353,g,1.0,1.3446446999441832,,,,,,sub-237,3,stroop_test,60.06864645440062,
,,,,37.0,1.0,3.0,,,,,,,,,,,,,blau,blue,b,1.0,b,1.0,0.6469896999187768,,,,,,,,,,3.0,1.0,37.0,5.0,260.2599855000153,,,,,,,,,,,,,,,,,260.2469248999841,260.609974400024,261.41298250004184,261.3948567000916,,,,,,,,,,,,,,,,,,,,,,,,,,,,,,,,,,,261.4037700000917,261.41298250004184,261.41298250004184,262.0629546000855,b,1.0,0.6469896999187768,,,,,,sub-237,3,stroop_test,60.06864645440062,
,,,,38.0,2.0,3.0,,,,,,,,,,,,,gelb,red,r,0.0,r,1.0,0.9445232000434772,,,,,,,,,,3.0,2.0,38.0,8.0,262.0764202000573,,,,,,,,,,,,,,,,,262.06385740009136,263.2764161999803,264.0802209000103,264.0613650000887,,,,,,,,,,,,,,,,,,,,,,,,,,,,,,,,,,,264.07071550004184,264.0802209000103,264.0802209000103,265.02918830001727,r,1.0,0.9445232000434772,,,,,,sub-237,3,stroop_test,60.06864645440062,
,,,,39.0,3.0,3.0,,,,,,,,,,,,,gelb,yellow,g,1.0,g,1.0,1.2952695999993011,,,,,,,,,,3.0,3.0,39.0,10.0,265.0426974000875,,,,,,,,,,,,,,,,,265.0300984000787,266.2424830000382,267.0424601000268,267.02746190002654,,,,,,,,,,,,,,,,,,,,,,,,,,,,,,,,,,,267.028767400072,267.0424601000268,267.0424601000268,268.34532550000586,g,1.0,1.2952695999993011,,,,,,sub-237,3,stroop_test,60.06864645440062,
,,,,40.0,4.0,3.0,,,,,,,,,,,,,rot,red,r,1.0,r,1.0,1.350234300014563,,,,,,,,,,3.0,4.0,40.0,1.0,268.3588712000055,,,,,,,,,,,,,,,,,268.3462226000848,268.4589391000336,269.2623606000561,269.24369730008766,,,,,,,,,,,,,,,,,,,,,,,,,,,,,,,,,,,269.2526474000188,269.2623606000561,269.2623606000561,270.62803240004,r,1.0,1.350234300014563,,,,,,sub-237,3,stroop_test,60.06864645440062,
,,,,41.0,5.0,3.0,,,,,,,,,,,,,gelb,blue,b,0.0,b,1.0,0.879873999976553,,,,,,,,,,3.0,5.0,41.0,9.0,270.6419111000141,,,,,,,,,,,,,,,,,270.6289841000689,271.4416472000303,272.2463931000093,272.22682209999766,,,,,,,,,,,,,,,,,,,,,,,,,,,,,,,,,,,272.23565400007647,272.2463931000093,272.2463931000093,273.14436939999,b,1.0,0.879873999976553,,,,,,sub-237,3,stroop_test,60.06864645440062,
,,,,42.0,6.0,3.0,,,,,,,,,,,,,rot,blue,b,0.0,b,1.0,0.9606544999405742,,,,,,,,,,3.0,6.0,42.0,2.0,273.15846070006955,,,,,,,,,,,,,,,,,273.14531300007366,273.9582593999803,274.7623472000705,274.7430715999799,,,,,,,,,,,,,,,,,,,,,,,,,,,,,,,,,,,274.7520192000084,274.7623472000705,274.7623472000705,275.7277581000235,b,1.0,0.9606544999405742,,,,,,sub-237,3,stroop_test,60.06864645440062,
,,,,43.0,7.0,3.0,,,,,,,,,,,,,rot,red,r,1.0,r,1.0,0.8531428000424057,,,,,,,,,,3.0,7.0,43.0,0.0,275.74116770003457,,,,,,,,,,,,,,,,,275.7286916000303,276.0913995000301,276.89114590000827,276.87598490004893,,,,,,,,,,,,,,,,,,,,,,,,,,,,,,,,,,,276.87733719998505,276.89114590000827,276.89114590000827,277.76039290009066,r,1.0,0.8531428000424057,,,,,,sub-237,3,stroop_test,60.06864645440062,
,,,,44.0,8.0,3.0,,,,,,,,,,,,,blau,blue,b,1.0,b,1.0,0.622749499976635,,,,,,,,,,3.0,8.0,44.0,6.0,277.77436270006,,,,,,,,,,,,,,,,,277.7613324000268,278.57423230004497,279.37627130001783,279.3591823000461,,,,,,,,,,,,,,,,,,,,,,,,,,,,,,,,,,,279.3672819000203,279.37627130001783,279.37627130001783,280.01023980008904,b,1.0,0.622749499976635,,,,,,sub-237,3,stroop_test,60.06864645440062,
,,,,45.0,9.0,3.0,,,,,,,,,,,,,rot,yellow,g,0.0,g,1.0,1.010596700012684,,,,,,,,,,3.0,9.0,45.0,3.0,280.0241829000879,,,,,,,,,,,,,,,,,280.0111758999992,281.2240246000001,282.0314379000338,282.00889589998405,,,,,,,,,,,,,,,,,,,,,,,,,,,,,,,,,,,282.0217636000598,282.0314379000338,282.0314379000338,283.0597226000391,g,1.0,1.010596700012684,,,,,,sub-237,3,stroop_test,60.06864645440062,
,,,,46.0,10.0,3.0,,,,,,,,,,,,,blau,red,r,0.0,r,1.0,0.9935025000013412,,,,,,,,,,3.0,10.0,46.0,4.0,283.07362540008035,,,,,,,,,,,,,,,,,283.0606800999958,283.87367570004426,284.675144799985,284.65839009999763,,,,,,,,,,,,,,,,,,,,,,,,,,,,,,,,,,,284.6663929000497,284.675144799985,284.675144799985,285.6765690000029,r,1.0,0.9935025000013412,,,,,,sub-237,3,stroop_test,60.06864645440062,
,,,,47.0,11.0,3.0,,,,,,,,,,,,,blau,yellow,g,0.0,g,1.0,1.4577692999737335,,,,,,,,,,3.0,11.0,47.0,7.0,285.69017180008814,,,,,,,,,,,,,,,,,285.67752130003646,285.7901172999991,286.589876400074,286.57487140002195,,,,,,,,,,,,,,,,,,,,,,,,,,,,,,,,,,,286.5762368000578,286.589876400074,286.589876400074,288.0591555000283,g,1.0,1.4577692999737335,,,,,,sub-237,3,stroop_test,60.06864645440062,
,,,,48.0,0.0,4.0,,,,,,,,,,,,,rot,blue,b,0.0,b,1.0,1.1229648999869823,,,,,,,,,,4.0,0.0,48.0,2.0,288.07323600002564,,,,,,,,,,,,,,,,,288.0601075000596,288.4230012000771,289.2273193000583,289.20779850007966,,,,,,,,,,,,,,,,,,,,,,,,,,,,,,,,,,,289.2164128000149,289.2273193000583,289.2273193000583,290.35901760007255,b,1.0,1.1229648999869823,,,,,,sub-237,3,stroop_test,60.06864645440062,
,,,,49.0,1.0,4.0,,,,,,,,,,,,,blau,blue,b,1.0,b,1.0,0.7563236000714824,,,,,,,,,,4.0,1.0,49.0,6.0,290.3728206000524,,,,,,,,,,,,,,,,,290.3599264000077,290.7226550000487,291.52585079998244,291.5080817000708,,,,,,,,,,,,,,,,,,,,,,,,,,,,,,,,,,,291.5163037000457,291.52585079998244,291.52585079998244,292.29245170007925,b,1.0,0.7563236000714824,,,,,,sub-237,3,stroop_test,60.06864645440062,
,,,,50.0,2.0,4.0,,,,,,,,,,,,,blau,yellow,g,0.0,g,1.0,0.8198617999441922,,,,,,,,,,4.0,2.0,50.0,7.0,292.30582400003914,,,,,,,,,,,,,,,,,292.2933880999917,293.1056696000742,293.9057354000397,293.89093950006645,,,,,,,,,,,,,,,,,,,,,,,,,,,,,,,,,,,293.8924940000288,293.9057354000397,293.9057354000397,294.74156620004214,g,1.0,0.8198617999441922,,,,,,sub-237,3,stroop_test,60.06864645440062,
,,,,51.0,3.0,4.0,,,,,,,,,,,,,blau,blue,b,1.0,b,1.0,0.7983771999133751,,,,,,,,,,4.0,3.0,51.0,5.0,294.7556819000747,,,,,,,,,,,,,,,,,294.7425393000012,295.1055833999999,295.90540180006064,295.89024039998185,,,,,,,,,,,,,,,,,,,,,,,,,,,,,,,,,,,295.8915676000761,295.90540180006064,295.90540180006064,296.70843370002694,b,1.0,0.7983771999133751,,,,,,sub-237,3,stroop_test,60.06864645440062,
,,,,52.0,4.0,4.0,,,,,,,,,,,,,rot,red,r,1.0,r,1.0,0.7517481999238953,,,,,,,,,,4.0,4.0,52.0,0.0,296.7219068000559,,,,,,,,,,,,,,,,,296.7093613999896,297.5218307999894,298.3264016000321,298.3065949000884,,,,,,,,,,,,,,,,,,,,,,,,,,,,,,,,,,,298.31566080008633,298.3264016000321,298.3264016000321,299.0914152000332,r,1.0,0.7517481999238953,,,,,,sub-237,3,stroop_test,60.06864645440062,
,,,,53.0,5.0,4.0,,,,,,,,,,,,,gelb,blue,b,0.0,b,1.0,1.9421576999593528,,,,,,,,,,4.0,5.0,53.0,9.0,299.104993200046,,,,,,,,,,,,,,,,,299.0923589000013,300.30500490008853,301.1092923000688,301.0896131000481,,,,,,,,,,,,,,,,,,,,,,,,,,,,,,,,,,,301.09868529997766,301.1092923000688,301.1092923000688,303.0572740000207,b,1.0,1.9421576999593528,,,,,,sub-237,3,stroop_test,60.06864645440062,
,,,,54.0,6.0,4.0,,,,,,,,,,,,,gelb,yellow,g,1.0,g,1.0,0.8345895000966266,,,,,,,,,,4.0,6.0,54.0,10.0,303.07113880000543,,,,,,,,,,,,,,,,,303.0581915000221,303.4210543000372,304.2210239000852,304.2059267000295,,,,,,,,,,,,,,,,,,,,,,,,,,,,,,,,,,,304.2072276000399,304.2210239000852,304.2210239000852,305.07341300009284,g,1.0,0.8345895000966266,,,,,,sub-237,3,stroop_test,60.06864645440062,
,,,,55.0,7.0,4.0,,,,,,,,,,,,,gelb,yellow,g,1.0,g,1.0,0.7807579999789596,,,,,,,,,,4.0,7.0,55.0,11.0,305.0874699000269,,,,,,,,,,,,,,,,,305.0743849000428,305.1874439000385,305.9874388000462,305.97230640007183,,,,,,,,,,,,,,,,,,,,,,,,,,,,,,,,,,,305.97366780007724,305.9874388000462,305.9874388000462,306.77364750008564,g,1.0,0.7807579999789596,,,,,,sub-237,3,stroop_test,60.06864645440062,
,,,,56.0,8.0,4.0,,,,,,,,,,,,,rot,red,r,1.0,r,1.0,0.8731861999258399,,,,,,,,,,4.0,8.0,56.0,1.0,306.7872432000004,,,,,,,,,,,,,,,,,306.77464409999084,306.88720190001186,307.69319260003977,307.6720433000009,,,,,,,,,,,,,,,,,,,,,,,,,,,,,,,,,,,307.68265680002514,307.69319260003977,307.69319260003977,308.57352810003795,r,1.0,0.8731861999258399,,,,,,sub-237,3,stroop_test,60.06864645440062,
,,,,57.0,9.0,4.0,,,,,,,,,,,,,gelb,red,r,0.0,r,1.0,1.638603699975647,,,,,,,,,,4.0,9.0,57.0,8.0,308.586987500079,,,,,,,,,,,,,,,,,308.5744646000676,308.6869926999789,309.4923171000555,309.4717731000856,,,,,,,,,,,,,,,,,,,,,,,,,,,,,,,,,,,309.48135170002934,309.4923171000555,309.4923171000555,311.1399327000836,r,1.0,1.638603699975647,,,,,,sub-237,3,stroop_test,60.06864645440062,
,,,,58.0,10.0,4.0,,,,,,,,,,,,,blau,red,r,0.0,b,0.0,0.7227722000097856,,,,,,,,,,4.0,10.0,58.0,4.0,311.1534465000732,,,,,,,,,,,,,,,,,311.14098240004387,312.35339930001646,313.15348800003994,313.13764750002883,,,,,,,,,,,,,,,,,,,,,,,,,,,,,,,,,,,313.1448824000545,313.15348800003994,313.15348800003994,313.88929090008605,b,0.0,0.7227722000097856,,,,,,sub-237,3,stroop_test,60.06864645440062,
,,,,59.0,11.0,4.0,,,,,,,,,,,,,rot,yellow,g,0.0,r,0.0,0.7162784999236465,,,,,,,,,,4.0,11.0,59.0,3.0,313.90298040001653,,,,,,,,,,,,,,,,,313.8902233000845,314.702871400048,315.5075264000334,315.4877847000025,,,,,,,,,,,,,,,,,,,,,,,,,,,,,,,,,,,315.4969239000929,315.5075264000334,315.5075264000334,316.238738700049,r,0.0,0.7162784999236465,,,,,,sub-237,3,stroop_test,60.06864645440062,
,,,,60.0,0.0,5.0,,,,,,,,,,,,,rot,yellow,g,0.0,g,1.0,0.7844142999965698,,,,,,,,,,5.0,0.0,60.0,3.0,316.25274989998434,,,,,,,,,,,,,,,,,316.23962780006696,317.452668700018,318.2525670999894,318.2373994999798,,,,,,,,,,,,,,,,,,,,,,,,,,,,,,,,,,,318.23871970002074,318.2525670999894,318.2525670999894,319.0552981999936,g,1.0,0.7844142999965698,,,,,,sub-237,3,stroop_test,60.06864645440062,
,,,,61.0,1.0,5.0,,,,,,,,,,,,,rot,red,r,1.0,r,1.0,0.7305556000210345,,,,,,,,,,5.0,1.0,61.0,0.0,319.0691551000345,,,,,,,,,,,,,,,,,319.0562285000924,319.418959200033,320.2189881000668,320.20379210007377,,,,,,,,,,,,,,,,,,,,,,,,,,,,,,,,,,,320.20506399997976,320.2189881000668,320.2189881000668,320.95508500002325,r,1.0,0.7305556000210345,,,,,,sub-237,3,stroop_test,60.06864645440062,
,,,,62.0,2.0,5.0,,,,,,,,,,,,,blau,red,r,0.0,r,1.0,1.410079100052826,,,,,,,,,,5.0,2.0,62.0,4.0,320.9688552999869,,,,,,,,,,,,,,,,,320.95602570008487,321.318908700021,322.1209201000165,322.1035690000281,,,,,,,,,,,,,,,,,,,,,,,,,,,,,,,,,,,322.1119765000185,322.1209201000165,322.1209201000165,323.5383461000165,r,1.0,1.410079100052826,,,,,,sub-237,3,stroop_test,60.06864645440062,
,,,,63.0,3.0,5.0,,,,,,,,,,,,,blau,yellow,g,0.0,g,1.0,0.9553261999972164,,,,,,,,,,5.0,3.0,63.0,7.0,323.5517650999828,,,,,,,,,,,,,,,,,323.5392443999881,324.75181150005665,325.5515659999801,325.536423600046,,,,,,,,,,,,,,,,,,,,,,,,,,,,,,,,,,,325.5377436000854,325.5515659999801,325.5515659999801,326.52082580002025,g,1.0,0.9553261999972164,,,,,,sub-237,3,stroop_test,60.06864645440062,
,,,,64.0,4.0,5.0,,,,,,,,,,,,,gelb,yellow,g,1.0,g,1.0,3.157959999982268,,,,,,,,,,5.0,4.0,64.0,10.0,326.5347950999858,,,,,,,,,,,,,,,,,326.5217736000195,326.8848137999885,327.68919609999284,327.669571400038,,,,,,,,,,,,,,,,,,,,,,,,,,,,,,,,,,,327.67856710008346,327.68919609999284,327.68919609999284,330.8537200000137,g,1.0,3.157959999982268,,,,,,sub-237,3,stroop_test,60.06864645440062,
,,,,65.0,5.0,5.0,,,,,,,,,,,,,gelb,red,r,0.0,r,1.0,0.8659755000844598,,,,,,,,,,5.0,5.0,65.0,8.0,330.8674752999796,,,,,,,,,,,,,,,,,330.8546872000443,331.66754250007216,332.46731209999416,332.4521171000088,,,,,,,,,,,,,,,,,,,,,,,,,,,,,,,,,,,332.45348909997847,332.46731209999416,332.46731209999416,333.3366514000809,r,1.0,0.8659755000844598,,,,,,sub-237,3,stroop_test,60.06864645440062,
,,,,66.0,6.0,5.0,,,,,,,,,,,,,rot,blue,b,0.0,b,1.0,0.5003510999958962,,,,,,,,,,5.0,6.0,66.0,2.0,333.3504739000928,,,,,,,,,,,,,,,,,333.33762220002245,334.1503911000909,334.95579390006606,334.9353228000691,,,,,,,,,,,,,,,,,,,,,,,,,,,,,,,,,,,334.9459405000089,334.95579390006606,334.95579390006606,335.46997010009363,b,1.0,0.5003510999958962,,,,,,sub-237,3,stroop_test,60.06864645440062,
,,,,67.0,7.0,5.0,,,,,,,,,,,,,blau,blue,b,1.0,b,1.0,0.8412694999715313,,,,,,,,,,5.0,7.0,67.0,5.0,335.48357670009136,,,,,,,,,,,,,,,,,335.47091080003884,336.2835904000094,337.08543289999943,337.06829219998326,,,,,,,,,,,,,,,,,,,,,,,,,,,,,,,,,,,337.07644700002857,337.08543289999943,337.08543289999943,337.93623890005983,b,1.0,0.8412694999715313,,,,,,sub-237,3,stroop_test,60.06864645440062,
,,,,68.0,8.0,5.0,,,,,,,,,,,,,rot,red,r,1.0,r,1.0,0.7064122000010684,,,,,,,,,,5.0,8.0,68.0,1.0,337.94990840007085,,,,,,,,,,,,,,,,,337.93718110001646,339.1499151000753,339.9550051999977,339.93492300005164,,,,,,,,,,,,,,,,,,,,,,,,,,,,,,,,,,,339.9448637000751,339.9550051999977,339.9550051999977,340.66923400003,r,1.0,0.7064122000010684,,,,,,sub-237,3,stroop_test,60.06864645440062,
,,,,69.0,9.0,5.0,,,,,,,,,,,,,gelb,yellow,g,1.0,g,1.0,0.7179033000720665,,,,,,,,,,5.0,9.0,69.0,11.0,340.6828734000446,,,,,,,,,,,,,,,,,340.6701441000914,341.8828792000422,342.6870867999969,342.667818200076,,,,,,,,,,,,,,,,,,,,,,,,,,,,,,,,,,,342.67744400002994,342.6870867999969,342.6870867999969,343.4187462000409,g,1.0,0.7179033000720665,,,,,,sub-237,3,stroop_test,60.06864645440062,
,,,,70.0,10.0,5.0,,,,,,,,,,,,,gelb,blue,b,0.0,b,1.0,0.936748499982059,,,,,,,,,,5.0,10.0,70.0,9.0,343.43273880006745,,,,,,,,,,,,,,,,,343.4196976000676,343.53261540003587,344.3325277999975,344.317271100008,,,,,,,,,,,,,,,,,,,,,,,,,,,,,,,,,,,344.3186324000126,344.3325277999975,344.3325277999975,345.284951300011,b,1.0,0.936748499982059,,,,,,sub-237,3,stroop_test,60.06864645440062,
,,,,71.0,11.0,5.0,,,,,,,,,,,,,blau,blue,b,1.0,b,1.0,0.6847236000467092,,,,,,,,,,5.0,11.0,71.0,6.0,345.2990438999841,,,,,,,,,,,,,,,,,345.28586380009074,345.3990554000484,346.20170010009315,346.18370900000446,,,,,,,,,,,,,,,,,,,,,,,,,,,,,,,,,,,346.19243460008875,346.20170010009315,346.20170010009315,346.90159150003456,b,1.0,0.6847236000467092,,,,,,sub-237,3,stroop_test,60.06864645440062,
,,,,72.0,0.0,6.0,,,,,,,,,,,,,gelb,yellow,g,1.0,g,1.0,0.625810099998489,,,,,,,,,,6.0,0.0,72.0,10.0,346.91552210005466,,,,,,,,,,,,,,,,,346.9025496999966,347.265335300006,348.0690626000287,348.049997300026,,,,,,,,,,,,,,,,,,,,,,,,,,,,,,,,,,,348.05907050007954,348.0690626000287,348.0690626000287,348.7015769000864,g,1.0,0.625810099998489,,,,,,sub-237,3,stroop_test,60.06864645440062,
,,,,73.0,1.0,6.0,,,,,,,,,,,,,blau,yellow,g,0.0,b,0.0,0.7244770999532193,,,,,,,,,,6.0,1.0,73.0,7.0,348.71531970007345,,,,,,,,,,,,,,,,,348.7025667000562,348.8154016000917,349.61761760001536,349.6001837999793,,,,,,,,,,,,,,,,,,,,,,,,,,,,,,,,,,,349.6084635000443,349.61761760001536,349.61761760001536,350.3515346000204,b,0.0,0.7244770999532193,,,,,,sub-237,3,stroop_test,60.06864645440062,
,,,,74.0,2.0,6.0,,,,,,,,,,,,,blau,red,r,0.0,r,1.0,0.6355303000891581,,,,,,,,,,6.0,2.0,74.0,4.0,350.36517990008,,,,,,,,,,,,,,,,,350.3524811000097,351.5649427000899,352.3647689000936,352.3495568999788,,,,,,,,,,,,,,,,,,,,,,,,,,,,,,,,,,,352.35086800006684,352.3647689000936,352.3647689000936,353.0174764000112,r,1.0,0.6355303000891581,,,,,,sub-237,3,stroop_test,60.06864645440062,
,,,,75.0,3.0,6.0,,,,,,,,,,,,,blau,blue,b,1.0,b,1.0,0.8629549000179395,,,,,,,,,,6.0,3.0,75.0,5.0,353.0312730000587,,,,,,,,,,,,,,,,,353.01840410009027,353.1313852000749,353.9312166000018,353.9159876999911,,,,,,,,,,,,,,,,,,,,,,,,,,,,,,,,,,,353.91727960004937,353.9312166000018,353.9312166000018,354.8007643000456,b,1.0,0.8629549000179395,,,,,,sub-237,3,stroop_test,60.06864645440062,
,,,,76.0,4.0,6.0,,,,,,,,,,,,,gelb,blue,b,0.0,b,1.0,1.196029599988833,,,,,,,,,,6.0,4.0,76.0,9.0,354.8143815000076,,,,,,,,,,,,,,,,,354.80165899998974,354.91445120004937,355.7205058999825,355.6991943999892,,,,,,,,,,,,,,,,,,,,,,,,,,,,,,,,,,,355.7097886999836,355.7205058999825,355.7205058999825,356.93370689998847,b,1.0,1.196029599988833,,,,,,sub-237,3,stroop_test,60.06864645440062,
,,,,77.0,5.0,6.0,,,,,,,,,,,,,gelb,yellow,g,1.0,g,1.0,1.030865399981849,,,,,,,,,,6.0,5.0,77.0,11.0,356.94734670000616,,,,,,,,,,,,,,,,,356.9346439000219,357.04743839998264,357.8473895000061,357.8321022000164,,,,,,,,,,,,,,,,,,,,,,,,,,,,,,,,,,,357.8335035000928,357.8473895000061,357.8473895000061,358.88386000005994,g,1.0,1.030865399981849,,,,,,sub-237,3,stroop_test,60.06864645440062,
,,,,78.0,6.0,6.0,,,,,,,,,,,,,blau,blue,b,1.0,b,1.0,0.911132900044322,,,,,,,,,,6.0,6.0,78.0,6.0,358.89735149999615,,,,,,,,,,,,,,,,,358.8848013000097,360.09713770006783,360.9005758999847,360.8824004000053,,,,,,,,,,,,,,,,,,,,,,,,,,,,,,,,,,,360.89099179999903,360.9005758999847,360.9005758999847,361.8164308000123,b,1.0,0.911132900044322,,,,,,sub-237,3,stroop_test,60.06864645440062,
,,,,79.0,7.0,6.0,,,,,,,,,,,,,gelb,red,r,0.0,r,1.0,1.1131176999770105,,,,,,,,,,6.0,7.0,79.0,8.0,361.8302924000891,,,,,,,,,,,,,,,,,361.8173461999977,363.03015880007297,363.8345903999871,363.8150316000683,,,,,,,,,,,,,,,,,,,,,,,,,,,,,,,,,,,363.8248646000866,363.8345903999871,363.8345903999871,364.9659544000169,r,1.0,1.1131176999770105,,,,,,sub-237,3,stroop_test,60.06864645440062,
,,,,80.0,8.0,6.0,,,,,,,,,,,,,rot,red,r,1.0,r,1.0,1.7639863999793306,,,,,,,,,,6.0,8.0,80.0,1.0,364.9797208000673,,,,,,,,,,,,,,,,,364.9668955000816,365.3297762000002,366.1342197000049,366.1146810000064,,,,,,,,,,,,,,,,,,,,,,,,,,,,,,,,,,,366.1237046000315,366.1342197000049,366.1342197000049,367.9155030000256,r,1.0,1.7639863999793306,,,,,,sub-237,3,stroop_test,60.06864645440062,
,,,,81.0,9.0,6.0,,,,,,,,,,,,,rot,blue,b,0.0,b,1.0,0.8033221000805497,,,,,,,,,,6.0,9.0,81.0,2.0,367.9293575000484,,,,,,,,,,,,,,,,,367.91650140006095,368.7292427000357,369.529313200037,369.5141264999984,,,,,,,,,,,,,,,,,,,,,,,,,,,,,,,,,,,369.5153948999941,369.529313200037,369.529313200037,370.34864860004745,b,1.0,0.8033221000805497,,,,,,sub-237,3,stroop_test,60.06864645440062,
,,,,82.0,10.0,6.0,,,,,,,,,,,,,rot,yellow,g,0.0,g,1.0,1.347265199990943,,,,,,,,,,6.0,10.0,82.0,3.0,370.3624712000601,,,,,,,,,,,,,,,,,370.3495979000581,371.1624599000206,371.96219350001775,371.9471084000543,,,,,,,,,,,,,,,,,,,,,,,,,,,,,,,,,,,371.9483587000286,371.96219350001775,371.96219350001775,373.3151044000406,g,1.0,1.347265199990943,,,,,,sub-237,3,stroop_test,60.06864645440062,
,,,,83.0,11.0,6.0,,,,,,,,,,,,,rot,red,r,1.0,r,1.0,0.6654170999536291,,,,,,,,,,6.0,11.0,83.0,0.0,373.3286078000674,,,,,,,,,,,,,,,,,373.3160540000536,374.5286971000023,375.32855179999024,375.313656500075,,,,,,,,,,,,,,,,,,,,,,,,,,,,,,,,,,,375.3151556000812,375.32855179999024,375.32855179999024,375.9980154000223,r,1.0,0.6654170999536291,,,,,,sub-237,3,stroop_test,60.06864645440062,
,,,,84.0,0.0,7.0,,,,,,,,,,,,,blau,yellow,g,0.0,g,1.0,1.2242128000361845,,,,,,,,,,7.0,0.0,84.0,7.0,376.0117130000144,,,,,,,,,,,,,,,,,375.9989102000836,377.21162250009365,378.0146763999946,377.9968246000353,,,,,,,,,,,,,,,,,,,,,,,,,,,,,,,,,,,378.0058262000093,378.0146763999946,378.0146763999946,379.2476671000477,g,1.0,1.2242128000361845,,,,,,sub-237,3,stroop_test,60.06864645440062,
,,,,85.0,1.0,7.0,,,,,,,,,,,,,blau,blue,b,1.0,b,1.0,0.6813813999760896,,,,,,,,,,7.0,1.0,85.0,6.0,379.2613143000053,,,,,,,,,,,,,,,,,379.24860040005296,380.06120290001854,380.8611053000204,380.8464442000258,,,,,,,,,,,,,,,,,,,,,,,,,,,,,,,,,,,380.8479646000778,380.8611053000204,380.8611053000204,381.54738090001047,b,1.0,0.6813813999760896,,,,,,sub-237,3,stroop_test,60.06864645440062,
,,,,86.0,2.0,7.0,,,,,,,,,,,,,rot,yellow,g,0.0,g,1.0,1.2426710999570787,,,,,,,,,,7.0,2.0,86.0,3.0,381.5609219000908,,,,,,,,,,,,,,,,,381.54830510006286,381.9110069000162,382.7161745000631,382.6959154000506,,,,,,,,,,,,,,,,,,,,,,,,,,,,,,,,,,,382.7066412999993,382.7161745000631,382.7161745000631,383.9635381000117,g,1.0,1.2426710999570787,,,,,,sub-237,3,stroop_test,60.06864645440062,
,,,,87.0,3.0,7.0,,,,,,,,,,,,,gelb,yellow,g,1.0,g,1.0,1.37512300000526,,,,,,,,,,7.0,3.0,87.0,11.0,383.9773411999922,,,,,,,,,,,,,,,,,383.96452700009104,385.17713840003125,385.9824100000551,385.9624826000072,,,,,,,,,,,,,,,,,,,,,,,,,,,,,,,,,,,385.97268740006257,385.9824100000551,385.9824100000551,387.3634413999971,g,1.0,1.37512300000526,,,,,,sub-237,3,stroop_test,60.06864645440062,
,,,,88.0,4.0,7.0,,,,,,,,,,,,,blau,blue,b,1.0,b,1.0,0.7913194999564439,,,,,,,,,,7.0,4.0,88.0,5.0,387.3768347000005,,,,,,,,,,,,,,,,,387.3643793000374,387.47690570005216,388.2784963999875,388.2617594000185,,,,,,,,,,,,,,,,,,,,,,,,,,,,,,,,,,,388.2696752999909,388.2784963999875,388.2784963999875,389.0794135000324,b,1.0,0.7913194999564439,,,,,,sub-237,3,stroop_test,60.06864645440062,
,,,,89.0,5.0,7.0,,,,,,,,,,,,,gelb,red,r,0.0,r,1.0,0.8913269999902695,,,,,,,,,,7.0,5.0,89.0,8.0,389.09339900000487,,,,,,,,,,,,,,,,,389.0803562999936,390.2931719000917,391.0976001999807,391.0778709000442,,,,,,,,,,,,,,,,,,,,,,,,,,,,,,,,,,,391.0866493000649,391.0976001999807,391.0976001999807,391.9957262000535,r,1.0,0.8913269999902695,,,,,,sub-237,3,stroop_test,60.06864645440062,
,,,,90.0,6.0,7.0,,,,,,,,,,,,,gelb,yellow,g,1.0,g,1.0,0.6986651999177411,,,,,,,,,,7.0,6.0,90.0,10.0,392.0096423000796,,,,,,,,,,,,,,,,,391.9966475000838,393.2097567000892,394.009516500053,393.9945380000863,,,,,,,,,,,,,,,,,,,,,,,,,,,,,,,,,,,393.9960545999929,394.009516500053,394.009516500053,394.7120454000542,g,1.0,0.6986651999177411,,,,,,sub-237,3,stroop_test,60.06864645440062,
,,,,91.0,7.0,7.0,,,,,,,,,,,,,blau,red,r,0.0,r,1.0,1.078494300018065,,,,,,,,,,7.0,7.0,91.0,4.0,394.7260446000146,,,,,,,,,,,,,,,,,394.7129777000519,395.0758187000174,395.877986800042,395.8607042999938,,,,,,,,,,,,,,,,,,,,,,,,,,,,,,,,,,,395.8685574000701,395.877986800042,395.877986800042,396.9617838000413,r,1.0,1.078494300018065,,,,,,sub-237,3,stroop_test,60.06864645440062,
,,,,92.0,8.0,7.0,,,,,,,,,,,,,rot,red,r,1.0,r,1.0,0.5406719000311568,,,,,,,,,,7.0,8.0,92.0,0.0,396.9756179000251,,,,,,,,,,,,,,,,,396.9627216000808,397.7756180000724,398.5803013000405,398.56050430005416,,,,,,,,,,,,,,,,,,,,,,,,,,,,,,,,,,,398.5698478000704,398.5803013000405,398.5803013000405,399.1287875000853,r,1.0,0.5406719000311568,,,,,,sub-237,3,stroop_test,60.06864645440062,
,,,,93.0,9.0,7.0,,,,,,,,,,,,,rot,blue,b,0.0,b,1.0,0.759797599981539,,,,,,,,,,7.0,9.0,93.0,2.0,399.1419165000552,,,,,,,,,,,,,,,,,399.1297294000397,399.4921216000803,400.2920718999813,400.2768555000657,,,,,,,,,,,,,,,,,,,,,,,,,,,,,,,,,,,400.2781607999932,400.2920718999813,400.2920718999813,401.06138890003785,b,1.0,0.759797599981539,,,,,,sub-237,3,stroop_test,60.06864645440062,
,,,,94.0,10.0,7.0,,,,,,,,,,,,,rot,red,r,1.0,r,1.0,0.8549091999884695,,,,,,,,,,7.0,10.0,94.0,1.0,401.0751793000381,,,,,,,,,,,,,,,,,401.0622658000793,401.1750944000669,401.97508010000456,401.9601691000862,,,,,,,,,,,,,,,,,,,,,,,,,,,,,,,,,,,401.9616416000063,401.97508010000456,401.97508010000456,402.844275200041,r,1.0,0.8549091999884695,,,,,,sub-237,3,stroop_test,60.06864645440062,
,,,,95.0,11.0,7.0,,,,,,,,,,,,,gelb,blue,b,0.0,b,1.0,0.6054791000206023,,,,,,,,,,7.0,11.0,95.0,9.0,402.85815940005705,,,,,,,,,,,,,,,,,402.84522620006464,403.20815530000255,404.0138261000393,403.9928850000724,,,,,,,,,,,,,,,,,,,,,,,,,,,,,,,,,,,404.00343470007647,404.0138261000393,404.0138261000393,404.62745570007246,b,1.0,0.6054791000206023,,,,,,sub-237,3,stroop_test,60.06864645440062,
,,,,96.0,0.0,8.0,,,,,,,,,,,,,gelb,red,r,0.0,r,1.0,1.0639132999349383,,,,,,,,,,8.0,0.0,96.0,8.0,404.6413033000426,,,,,,,,,,,,,,,,,404.62837729998864,405.44119530008174,406.24115450005047,406.22597200004384,,,,,,,,,,,,,,,,,,,,,,,,,,,,,,,,,,,406.2272511000047,406.24115450005047,406.24115450005047,407.3106985000195,r,1.0,1.0639132999349383,,,,,,sub-237,3,stroop_test,60.06864645440062,
,,,,97.0,1.0,8.0,,,,,,,,,,,,,rot,yellow,g,0.0,g,1.0,1.1129696000134572,,,,,,,,,,8.0,1.0,97.0,3.0,407.3242478000466,,,,,,,,,,,,,,,,,407.3116332000354,408.12427700008266,408.9288979000412,408.9089592000237,,,,,,,,,,,,,,,,,,,,,,,,,,,,,,,,,,,408.9180839000037,408.9288979000412,408.9288979000412,410.0598713000072,g,1.0,1.1129696000134572,,,,,,sub-237,3,stroop_test,60.06864645440062,
,,,,98.0,2.0,8.0,,,,,,,,,,,,,blau,blue,b,1.0,b,1.0,0.6313822999363765,,,,,,,,,,8.0,2.0,98.0,6.0,410.0740122999996,,,,,,,,,,,,,,,,,410.0607724000001,410.17389740003273,410.9772605000762,410.9587911000708,,,,,,,,,,,,,,,,,,,,,,,,,,,,,,,,,,,410.9669925000053,410.9772605000762,410.9772605000762,411.6263260000851,b,1.0,0.6313822999363765,,,,,,sub-237,3,stroop_test,60.06864645440062,
,,,,99.0,3.0,8.0,,,,,,,,,,,,,gelb,yellow,g,1.0,g,1.0,1.831130099948496,,,,,,,,,,8.0,3.0,99.0,11.0,411.6405091000488,,,,,,,,,,,,,,,,,411.6272732000798,411.7405091000255,414.18005610001273,412.5250775000313,,,,,,,,,,,,,,,,,,,,,,,,,,,,,,,,,,,414.1686567000579,414.18005610001273,414.18005610001273,416.0260931000812,g,1.0,1.831130099948496,,,,,,sub-237,3,stroop_test,60.06864645440062,
,,,,100.0,4.0,8.0,,,,,,,,,,,,,rot,blue,b,0.0,b,1.0,1.251404199982062,,,,,,,,,,8.0,4.0,100.0,2.0,416.0397863000399,,,,,,,,,,,,,,,,,416.02701740001794,416.3897514999844,417.1933599000331,417.17484710004646,,,,,,,,,,,,,,,,,,,,,,,,,,,,,,,,,,,417.1836514000315,417.1933599000331,417.1933599000331,418.4574184999801,b,1.0,1.251404199982062,,,,,,sub-237,3,stroop_test,60.06864645440062,
,,,,101.0,5.0,8.0,,,,,,,,,,,,,rot,red,r,1.0,r,1.0,0.6414651001105085,,,,,,,,,,8.0,5.0,101.0,1.0,418.4725717999973,,,,,,,,,,,,,,,,,418.457940399996,418.5728645999916,419.37284080008976,419.3575985000935,,,,,,,,,,,,,,,,,,,,,,,,,,,,,,,,,,,419.3589308999945,419.37284080008976,419.37284080008976,420.02580569998827,r,1.0,0.6414651001105085,,,,,,sub-237,3,stroop_test,60.06864645440062,
,,,,102.0,6.0,8.0,,,,,,,,,,,,,rot,red,r,1.0,r,1.0,0.7399269000161439,,,,,,,,,,8.0,6.0,102.0,0.0,420.0392270000884,,,,,,,,,,,,,,,,,420.026694500004,420.1392903000815,420.9391344999895,420.9240303999977,,,,,,,,,,,,,,,,,,,,,,,,,,,,,,,,,,,420.92533870006446,420.9391344999895,420.9391344999895,421.69194739998784,r,1.0,0.7399269000161439,,,,,,sub-237,3,stroop_test,60.06864645440062,
,,,,103.0,7.0,8.0,,,,,,,,,,,,,gelb,blue,b,0.0,b,1.0,1.4216614000033587,,,,,,,,,,8.0,7.0,103.0,9.0,421.7057775000576,,,,,,,,,,,,,,,,,421.692878400092,421.8056808999973,422.6096464000875,422.5906127000926,,,,,,,,,,,,,,,,,,,,,,,,,,,,,,,,,,,422.6001324000536,422.6096464000875,422.6096464000875,424.0416405000724,b,1.0,1.4216614000033587,,,,,,sub-237,3,stroop_test,60.06864645440062,
,,,,104.0,8.0,8.0,,,,,,,,,,,,,blau,red,r,0.0,r,1.0,1.0966455000452695,,,,,,,,,,8.0,8.0,104.0,4.0,424.0553530000616,,,,,,,,,,,,,,,,,424.04259070008993,424.8553899000399,425.6582179000834,425.6401409000391,,,,,,,,,,,,,,,,,,,,,,,,,,,,,,,,,,,425.64927950000856,425.6582179000834,425.6582179000834,426.7582979000872,r,1.0,1.0966455000452695,,,,,,sub-237,3,stroop_test,60.06864645440062,
,,,,105.0,9.0,8.0,,,,,,,,,,,,,blau,yellow,g,0.0,g,1.0,1.232879100018181,,,,,,,,,,8.0,9.0,105.0,7.0,426.7718107000692,,,,,,,,,,,,,,,,,426.75923100009095,427.57165669999085,428.371592600015,428.35641060001217,,,,,,,,,,,,,,,,,,,,,,,,,,,,,,,,,,,428.35773200006224,428.371592600015,428.371592600015,429.6079220999964,g,1.0,1.232879100018181,,,,,,sub-237,3,stroop_test,60.06864645440062,
,,,,106.0,10.0,8.0,,,,,,,,,,,,,blau,blue,b,1.0,b,1.0,0.6320186000084504,,,,,,,,,,8.0,10.0,106.0,5.0,429.6214704000158,,,,,,,,,,,,,,,,,429.60884550004266,429.7213935999898,430.52125680004247,430.5062040000921,,,,,,,,,,,,,,,,,,,,,,,,,,,,,,,,,,,430.50759480008855,430.52125680004247,430.52125680004247,431.1573022999801,b,1.0,0.6320186000084504,,,,,,sub-237,3,stroop_test,60.06864645440062,
,,,,107.0,11.0,8.0,,,,,,,,,,,,,gelb,yellow,g,1.0,g,1.0,0.9006868000142276,,,,,,,,,,8.0,11.0,107.0,10.0,431.1712880000705,,,,,,,,,,,,,,,,,431.15822109999135,431.2712183999829,432.0748676999938,432.0559369000839,,,,,,,,,,,,,,,,,,,,,,,,,,,,,,,,,,,432.0651760000037,432.0748676999938,432.0748676999938,432.9903992000036,g,1.0,0.9006868000142276,,,,,,sub-237,3,stroop_test,60.06864645440062,
,,,,108.0,0.0,9.0,,,,,,,,,,,,,gelb,blue,b,0.0,b,1.0,1.3863146998919549,,,,,,,,,,9.0,0.0,108.0,9.0,433.0044751000824,,,,,,,,,,,,,,,,,432.9913504000288,433.3541687000543,434.1543250000104,434.13896330003627,,,,,,,,,,,,,,,,,,,,,,,,,,,,,,,,,,,434.1402429000009,434.1543250000104,434.1543250000104,435.55687900003977,b,1.0,1.3863146998919549,,,,,,sub-237,3,stroop_test,60.06864645440062,
,,,,109.0,1.0,9.0,,,,,,,,,,,,,rot,red,r,1.0,r,1.0,0.7773153999587521,,,,,,,,,,9.0,1.0,109.0,0.0,435.5706474999897,,,,,,,,,,,,,,,,,435.5578008000739,435.9205309000099,436.72364680003375,436.70533929998055,,,,,,,,,,,,,,,,,,,,,,,,,,,,,,,,,,,436.7142555000028,436.72364680003375,436.72364680003375,437.5065823000623,r,1.0,0.7773153999587521,,,,,,sub-237,3,stroop_test,60.06864645440062,
,,,,110.0,2.0,9.0,,,,,,,,,,,,,gelb,yellow,g,1.0,g,1.0,0.655379300005734,,,,,,,,,,9.0,2.0,110.0,10.0,437.5205397000536,,,,,,,,,,,,,,,,,437.50750469998457,438.7203395999968,439.5197485000826,439.5037452999968,,,,,,,,,,,,,,,,,,,,,,,,,,,,,,,,,,,439.5085213000421,439.5197485000826,439.5197485000826,440.1895521000261,g,1.0,0.655379300005734,,,,,,sub-237,3,stroop_test,60.06864645440062,
,,,,111.0,3.0,9.0,,,,,,,,,,,,,rot,red,r,1.0,r,1.0,0.9410639000125228,,,,,,,,,,9.0,3.0,111.0,1.0,440.2033100000117,,,,,,,,,,,,,,,,,440.19058880000375,440.30341599998064,441.1081225000089,441.0883469000692,,,,,,,,,,,,,,,,,,,,,,,,,,,,,,,,,,,441.0983672000002,441.1081225000089,441.1081225000089,442.0568834000733,r,1.0,0.9410639000125228,,,,,,sub-237,3,stroop_test,60.06864645440062,
,,,,112.0,4.0,9.0,,,,,,,,,,,,,rot,blue,b,0.0,b,1.0,1.2835896000033244,,,,,,,,,,9.0,4.0,112.0,2.0,442.069969000062,,,,,,,,,,,,,,,,,442.0579654000466,443.2699803999858,444.0695335000055,444.0550141000422,,,,,,,,,,,,,,,,,,,,,,,,,,,,,,,,,,,444.05649089999497,444.0695335000055,444.0695335000055,445.35658989998046,b,1.0,1.2835896000033244,,,,,,sub-237,3,stroop_test,60.06864645440062,
,,,,113.0,5.0,9.0,,,,,,,,,,,,,blau,yellow,g,0.0,g,1.0,1.4479898000136018,,,,,,,,,,9.0,5.0,113.0,7.0,445.369407900027,,,,,,,,,,,,,,,,,445.3575303000398,446.5693396000424,447.3725122000324,447.3544375000056,,,,,,,,,,,,,,,,,,,,,,,,,,,,,,,,,,,447.363820000086,447.3725122000324,447.3725122000324,448.83804270008113,g,1.0,1.4479898000136018,,,,,,sub-237,3,stroop_test,60.06864645440062,
,,,,114.0,6.0,9.0,,,,,,,,,,,,,blau,red,r,0.0,r,1.0,0.8046262999996543,,,,,,,,,,9.0,6.0,114.0,4.0,448.8523087999784,,,,,,,,,,,,,,,,,448.83897100004833,449.2021220000461,450.0020935999928,449.9875528999837,,,,,,,,,,,,,,,,,,,,,,,,,,,,,,,,,,,449.9891078000656,450.0020935999928,450.0020935999928,450.8215812999988,r,1.0,0.8046262999996543,,,,,,sub-237,3,stroop_test,60.06864645440062,
,,,,115.0,7.0,9.0,,,,,,,,,,,,,blau,blue,b,1.0,b,1.0,0.6685208000708371,,,,,,,,,,9.0,7.0,115.0,5.0,450.8352770000929,,,,,,,,,,,,,,,,,450.8224751000525,450.9353789000306,451.735385100008,451.7202322999947,,,,,,,,,,,,,,,,,,,,,,,,,,,,,,,,,,,451.7223932000343,451.735385100008,451.735385100008,452.4214206000324,b,1.0,0.6685208000708371,,,,,,sub-237,3,stroop_test,60.06864645440062,
,,,,116.0,8.0,9.0,,,,,,,,,,,,,gelb,yellow,g,1.0,g,1.0,0.7223081999691203,,,,,,,,,,9.0,8.0,116.0,11.0,452.43510800006334,,,,,,,,,,,,,,,,,452.4223467999837,452.5352067000931,453.3397614000132,453.31984770006966,,,,,,,,,,,,,,,,,,,,,,,,,,,,,,,,,,,453.32921019999776,453.3397614000132,453.3397614000132,454.0711310000625,g,1.0,0.7223081999691203,,,,,,sub-237,3,stroop_test,60.06864645440062,
,,,,117.0,9.0,9.0,,,,,,,,,,,,,rot,yellow,g,0.0,g,1.0,1.0997640999266878,,,,,,,,,,9.0,9.0,117.0,3.0,454.084802800091,,,,,,,,,,,,,,,,,454.07203749998007,455.2848823000677,456.091306700022,456.0698346000863,,,,,,,,,,,,,,,,,,,,,,,,,,,,,,,,,,,456.0797603999963,456.091306700022,456.091306700022,457.204034000053,g,1.0,1.0997640999266878,,,,,,sub-237,3,stroop_test,60.06864645440062,
,,,,118.0,10.0,9.0,,,,,,,,,,,,,blau,blue,b,1.0,b,1.0,0.5756212000269443,,,,,,,,,,9.0,10.0,118.0,6.0,457.2177322000498,,,,,,,,,,,,,,,,,457.2049499000423,458.41766999999527,459.2198876000475,459.20248400000855,,,,,,,,,,,,,,,,,,,,,,,,,,,,,,,,,,,459.2106996000512,459.2198876000475,459.2198876000475,459.8034682000289,b,1.0,0.5756212000269443,,,,,,sub-237,3,stroop_test,60.06864645440062,
,,,,119.0,11.0,9.0,,,,,,,,,,,,,gelb,red,r,0.0,r,1.0,0.814987999969162,,,,,,,,,,9.0,11.0,119.0,8.0,459.8174166000681,,,,,,,,,,,,,,,,,459.80442529998254,460.1674508000724,460.9725896000164,460.9521713000722,,,,,,,,,,,,,,,,,,,,,,,,,,,,,,,,,,,460.9614228000864,460.9725896000164,460.9725896000164,461.8034655000083,r,1.0,0.814987999969162,,,,,,sub-237,3,stroop_test,60.06864645440062,
,,,,,,,,,,,,,,,,,,,,,,,,,,,,,,,,,,,,,,,,,,,,,,,,,,,,,,,,,,,,,,,,,,,,,,,,,,,,,,,,,,,,,,,,,,,,,,,,,,,,,,461.8039405000163,461.81730240001343,466.8165904000634,466.8015287000453,sub-237,3,stroop_test,60.06864645440062,
