wordCTK,colorCTK,corrAnsCTK,congruentCTK,thisN,thisTrialN,thisRepN,keyResp_CTK.keys,keyResp_CTK.corr,keyResp_CTK.rt,keyResp_CTK.duration,wordPractice,colorPractice,corrAnsPractice,congruentPractice,respPractice.keys,respPractice.corr,respPractice.rt,respPractice.duration,word,color,corrAns,congruent,keyResp_test_run.keys,keyResp_test_run.corr,keyResp_test_run.rt,keyResp_test_run.duration,trials_CTK.thisRepN,trials_CTK.thisTrialN,trials_CTK.thisN,trials_CTK.thisIndex,trials_practice.thisRepN,trials_practice.thisTrialN,trials_practice.thisN,trials_practice.thisIndex,trials_test.thisRepN,trials_test.thisTrialN,trials_test.thisN,trials_test.thisIndex,thisRow.t,notes,instruction.started,instr_text.started,instr_image.started,instr_resp.started,instruction.stopped,instr_resp.keys,instr_resp.rt,instr_resp.duration,instr_color_to_key.started,instr_ctk.started,resp_ctk.started,instr_color_to_key.stopped,resp_ctk.keys,resp_ctk.rt,resp_ctk.duration,ITI.started,fixcross.started,fixcross.stopped,ITI.stopped,color_to_key_run.started,stimulus_CTK.started,keyResp_CTK.started,color_to_key_run.stopped,trials_CTK.keyResp_CTK.keys,trials_CTK.keyResp_CTK.corr,trials_CTK.keyResp_CTK.rt,trials_CTK.keyResp_CTK.duration,instr_practice.started,instr_practice_text.started,instr_practice_resp.started,instr_practice.stopped,instr_practice_resp.keys,instr_practice_resp.rt,instr_practice_resp.duration,practice_run.started,stimulus_practice.started,respPractice.started,practice_run.stopped,trials_practice.respPractice.keys,trials_practice.respPractice.corr,trials_practice.respPractice.rt,trials_practice.respPractice.duration,feedback.started,textFeedback.started,textFeedback.stopped,feedback.stopped,instr_test.started,instr_test_text.started,instr_test_resp.started,instr_test.stopped,instr_test_resp.keys,instr_test_resp.rt,instr_test_resp.duration,test_run.started,stimulus_test_run.started,keyResp_test_run.started,test_run.stopped,trials_test.keyResp_test_run.keys,trials_test.keyResp_test_run.corr,trials_test.keyResp_test_run.rt,trials_test.keyResp_test_run.duration,goodbye.started,textGoodbye.started,textGoodbye.stopped,goodbye.stopped,participant,session,expName,frameRate,Unnamed: 113
,,,,,,,,,,,,,,,,,,,,,,,,,,,,,,,,,,,,,,,,,0.0121233330009999,0.0578405000014754,0.0578405000014754,0.0578405000014754,24.857648416000306,space,24.793111250000948,,,,,,,,,,,,,,,,,,,,,,,,,,,,,,,,,,,,,,,,,,,,,,,,,,,,,,,,,,,sub-178,1,stroop_test,,
,,,,,,,,,,,,,,,,,,,,,,,,,,,,,,,,,,,,,,,,,,,,,,,,,24.857705916001574,24.86453908300064,24.86453908300064,33.2074927499998,space,8.34155416700014,,,,,,,,,,,,,,,,,,,,,,,,,,,,,,,,,,,,,,,,,,,,,,,,,,,,sub-178,1,stroop_test,,
test,blue,b,1.0,0.0,0.0,0.0,r,0.0,6.189833250000447,,,,,,,,,,,,,,,,,,0.0,0.0,0.0,2.0,,,,,,,,,33.22827741600122,,,,,,,,,,,,,,,,,33.224516250000306,34.40879316600149,35.20773950000148,35.20116225000129,35.20492379100142,35.20773950000148,35.20773950000148,41.4019967080003,r,0.0,6.189833250000447,,,,,,,,,,,,,,,,,,,,,,,,,,,,,,,,,,,,,,,,sub-178,1,stroop_test,,
test,yellow,g,1.0,1.0,1.0,0.0,b,0.0,0.8961483749990293,,,,,,,,,,,,,,,,,,0.0,1.0,1.0,1.0,,,,,,,,,41.408076583000366,,,,,,,,,,,,,,,,,41.40235854100138,41.49806175000049,42.28881995800111,42.28448220800056,42.28472658300052,42.28881995800111,42.28881995800111,43.18854516600004,b,0.0,0.8961483749990293,,,,,,,,,,,,,,,,,,,,,,,,,,,,,,,,,,,,,,,,sub-178,1,stroop_test,,
test,red,r,1.0,2.0,2.0,0.0,r,1.0,0.6633486250011629,,,,,,,,,,,,,,,,,,0.0,2.0,2.0,0.0,,,,,,,,,43.202128666000135,,,,,,,,,,,,,,,,,43.18874575000154,43.5365042909998,44.33214158300143,44.32364750000124,44.32393504100037,44.33214158300143,44.33214158300143,45.00203875000079,r,1.0,0.6633486250011629,,,,,,,,,,,,,,,,,,,,,,,,,,,,,,,,,,,,,,,,sub-178,1,stroop_test,,
test,blue,b,1.0,3.0,0.0,1.0,r,0.0,0.7674786249990575,,,,,,,,,,,,,,,,,,1.0,0.0,3.0,2.0,,,,,,,,,45.00821758300117,,,,,,,,,,,,,,,,,45.00230525000006,45.348846375,46.13780525000038,46.13472225000078,46.13489229100014,46.13780525000038,46.13780525000038,46.90767779100133,r,0.0,0.7674786249990575,,,,,,,,,,,,,,,,,,,,,,,,,,,,,,,,,,,,,,,,sub-178,1,stroop_test,,
test,red,r,1.0,4.0,1.0,1.0,r,1.0,2.1383767090010224,,,,,,,,,,,,,,,,,,1.0,1.0,4.0,0.0,,,,,,,,,46.914466207999794,,,,,,,,,,,,,,,,,46.90798404100133,47.00465125000119,47.79887766600041,47.79006933300116,47.79034329100068,47.79887766600041,47.79887766600041,49.94098570800088,r,1.0,2.1383767090010224,,,,,,,,,,,,,,,,,,,,,,,,,,,,,,,,,,,,,,,,sub-178,1,stroop_test,,
test,yellow,g,1.0,5.0,2.0,1.0,g,1.0,1.461048834000394,,,,,,,,,,,,,,,,,,1.0,2.0,5.0,1.0,,,,,,,,,49.947726375001366,,,,,,,,,,,,,,,,,49.941253291000976,50.03888316600023,50.83897129100114,50.83455095800127,50.8348334580005,50.83897129100114,50.83897129100114,52.30168129100093,g,1.0,1.461048834000394,,,,,,,,,,,,,,,,,,,,,,,,,,,,,,,,,,,,,,,,sub-178,1,stroop_test,,
test,yellow,g,1.0,6.0,0.0,2.0,g,1.0,0.5491550830010965,,,,,,,,,,,,,,,,,,2.0,0.0,6.0,1.0,,,,,,,,,52.3076683750005,,,,,,,,,,,,,,,,,52.30194458300139,53.09877487500125,53.88892729100007,53.88458491600068,53.88483100000121,53.88892729100007,53.88892729100007,54.44117437500063,g,1.0,0.5491550830010965,,,,,,,,,,,,,,,,,,,,,,,,,,,,,,,,,,,,,,,,sub-178,1,stroop_test,,
test,blue,b,1.0,7.0,1.0,2.0,b,1.0,0.9792658339993068,,,,,,,,,,,,,,,,,,2.0,1.0,7.0,2.0,,,,,,,,,54.44773500000156,,,,,,,,,,,,,,,,,54.44142766600089,54.788027458000215,55.58212020800056,55.57307112499984,55.573326791,55.58212020800056,55.58212020800056,56.5684244160002,b,1.0,0.9792658339993068,,,,,,,,,,,,,,,,,,,,,,,,,,,,,,,,,,,,,,,,sub-178,1,stroop_test,,
test,red,r,1.0,8.0,2.0,2.0,r,1.0,1.0613365420012997,,,,,,,,,,,,,,,,,,2.0,2.0,8.0,0.0,,,,,,,,,56.5742809580006,,,,,,,,,,,,,,,,,56.56868000000031,57.76527554099994,58.55558587500127,58.55118316600056,58.55146575000072,58.55558587500127,58.55558587500127,59.61848254100005,r,1.0,1.0613365420012997,,,,,,,,,,,,,,,,,,,,,,,,,,,,,,,,,,,,,,,,sub-178,1,stroop_test,,
test,red,r,1.0,9.0,0.0,3.0,r,1.0,0.5551559169998654,,,,,,,,,,,,,,,,,,3.0,0.0,9.0,0.0,,,,,,,,,59.62176875000114,,,,,,,,,,,,,,,,,59.618704125001386,60.81541045800077,61.605459375001374,61.60103237500152,61.60129883300033,61.605459375001374,61.605459375001374,62.16831133300002,r,1.0,0.5551559169998654,,,,,,,,,,,,,,,,,,,,,,,,,,,,,,,,,,,,,,,,sub-178,1,stroop_test,,
test,yellow,g,1.0,10.0,1.0,3.0,g,1.0,0.7612638749997132,,,,,,,,,,,,,,,,,,3.0,1.0,10.0,1.0,,,,,,,,,62.17435112500061,,,,,,,,,,,,,,,,,62.168564041001446,62.965359541,63.75548666600116,63.75114916600069,63.75142304100154,63.75548666600116,63.75548666600116,64.51824716600095,g,1.0,0.7612638749997132,,,,,,,,,,,,,,,,,,,,,,,,,,,,,,,,,,,,,,,,sub-178,1,stroop_test,,
test,blue,b,1.0,11.0,2.0,3.0,b,1.0,0.4954267499997513,,,,,,,,,,,,,,,,,,3.0,2.0,11.0,2.0,,,,,,,,,64.52185679100148,,,,,,,,,,,,,,,,,64.51847749999979,65.31533554100133,66.10520487500071,66.10091862500121,66.10119137500078,66.10520487500071,66.10520487500071,66.60197366600005,b,1.0,0.4954267499997513,,,,,,,,,,,,,,,,,,,,,,,,,,,,,,,,,,,,,,,,sub-178,1,stroop_test,,
,,,,,,,,,,,,,,,,,,,,,,,,,,,,,,,,,,,,,,,,,,,,,,,,,,,,,,,,,,,,,,,,,,,,66.60211041600087,66.60858416600058,66.60858416600058,73.35172279100152,space,6.733588625000266,,,,,,,,,,,,,,,,,,,,,,,,,,,,,,,,,sub-178,1,stroop_test,,
,,,,0.0,0.0,0.0,,,,,blau,blue,b,1.0,b,1.0,0.926564542000051,,,,,,,,,,,,,,0.0,0.0,0.0,5.0,,,,,73.36412379100148,,,,,,,,,,,,,,,,,73.36029387500093,73.69850445800148,74.49166095800138,74.48481604100016,,,,,,,,,,,,,,,,74.4889226660016,74.49166095800138,74.49166095800138,75.42386675000125,b,1.0,0.926564542000051,,75.42789041600008,75.43414395800028,76.43199287500101,76.42335158300011,,,,,,,,,,,,,,,,,,,,sub-178,1,stroop_test,,
,,,,1.0,1.0,0.0,,,,,gelb,yellow,g,1.0,g,1.0,0.7873214999999618,,,,,,,,,,,,,,0.0,1.0,1.0,10.0,,,,,76.43199287500101,,,,,,,,,,,,,,,,,76.42360887500035,76.52113966600155,77.31441412500135,77.30649066600017,,,,,,,,,,,,,,,,77.3084008750011,77.31441412500135,77.31441412500135,78.10706745800053,g,1.0,0.7873214999999618,,78.10729970800094,78.11426637500153,79.10456812499979,79.10094554100033,,,,,,,,,,,,,,,,,,,,sub-178,1,stroop_test,,
,,,,2.0,2.0,0.0,,,,,rot,yellow,g,0.0,g,1.0,0.5252040830000624,,,,,,,,,,,,,,0.0,2.0,2.0,3.0,,,,,79.10456812499979,,,,,,,,,,,,,,,,,79.10120037500019,79.90480066600139,80.69760391599993,80.69022333300018,,,,,,,,,,,,,,,,80.69331700000112,80.69760391599993,80.69760391599993,81.22402841599978,g,1.0,0.5252040830000624,,81.22430133300077,81.23077187499985,82.22143658300047,82.21779241600052,,,,,,,,,,,,,,,,,,,,sub-178,1,stroop_test,,
,,,,3.0,3.0,0.0,,,,,gelb,yellow,g,1.0,g,1.0,0.9883990830003312,,,,,,,,,,,,,,0.0,3.0,3.0,11.0,,,,,82.22143658300047,,,,,,,,,,,,,,,,,82.21803816600004,82.32082608300152,83.11422841600142,83.10671508300038,,,,,,,,,,,,,,,,83.10859379100111,83.11422841600142,83.11422841600142,84.1074161659999,g,1.0,0.9883990830003312,,84.10768783300045,84.1140802910013,85.10474245800106,85.10104429100102,,,,,,,,,,,,,,,,,,,,sub-178,1,stroop_test,,
,,,,4.0,4.0,0.0,,,,,rot,red,r,1.0,r,1.0,1.218292499999734,,,,,,,,,,,,,,0.0,4.0,4.0,1.0,,,,,85.10474245800106,,,,,,,,,,,,,,,,,85.1012922910013,86.30458445800105,87.10460349999994,87.09988191600132,,,,,,,,,,,,,,,,87.10147941600007,87.10460349999994,87.10460349999994,88.32434283300063,r,1.0,1.218292499999734,,88.32460195800013,88.33130987500044,89.32117591600036,89.31751950000034,,,,,,,,,,,,,,,,,,,,sub-178,1,stroop_test,,
,,,,5.0,5.0,0.0,,,,,rot,blue,b,0.0,r,0.0,1.142169124999782,,,,,,,,,,,,,,0.0,5.0,5.0,2.0,,,,,89.32117591600036,,,,,,,,,,,,,,,,,89.31772645800083,89.42079237500002,90.21516345800046,90.20634433300074,,,,,,,,,,,,,,,,90.20659245800016,90.21516345800046,90.21516345800046,91.36871845800124,r,0.0,1.142169124999782,,91.37158916600129,91.376563541,92.37160970800142,92.36780395800088,,,,,,,,,,,,,,,,,,,,sub-178,1,stroop_test,,
,,,,6.0,6.0,0.0,,,,,gelb,red,r,0.0,r,1.0,2.10382991699953,,,,,,,,,,,,,,0.0,6.0,6.0,8.0,,,,,92.37160970800142,,,,,,,,,,,,,,,,,92.36804762500104,92.71519612500016,93.507031000001,93.50085879100152,,,,,,,,,,,,,,,,93.50262279100023,93.507031000001,93.507031000001,95.61810320800032,r,1.0,2.10382991699953,,95.62041791600132,95.6264056250002,96.62113983300152,96.61748425000042,,,,,,,,,,,,,,,,,,,,sub-178,1,stroop_test,,
,,,,7.0,7.0,0.0,,,,,blau,blue,b,1.0,b,1.0,0.7613867909985856,,,,,,,,,,,,,,0.0,7.0,7.0,6.0,,,,,96.62113983300152,,,,,,,,,,,,,,,,,96.61769991600158,97.81424641600096,98.60724100000152,98.60081508300028,,,,,,,,,,,,,,,,98.60287083300136,98.60724100000152,98.60724100000152,99.37393241600148,b,1.0,0.7613867909985856,,99.3741777080013,99.38083554100012,100.37167270800092,100.36803908300136,,,,,,,,,,,,,,,,,,,,sub-178,1,stroop_test,,
,,,,8.0,8.0,0.0,,,,,blau,red,r,0.0,r,1.0,1.591285707998395,,,,,,,,,,,,,,0.0,8.0,8.0,4.0,,,,,100.37167270800092,,,,,,,,,,,,,,,,,100.36829545799992,100.47105279100106,101.26513204100048,101.25648087500122,,,,,,,,,,,,,,,,101.25674404100027,101.26513204100048,101.26513204100048,102.8682060830015,r,1.0,1.591285707998395,,102.86848833300064,102.87493237499984,103.87130683299984,103.86758612500124,,,,,,,,,,,,,,,,,,,,sub-178,1,stroop_test,,
,,,,9.0,9.0,0.0,,,,,blau,yellow,g,0.0,g,1.0,1.7121471250011382,,,,,,,,,,,,,,0.0,9.0,9.0,7.0,,,,,103.87130683299984,,,,,,,,,,,,,,,,,103.86784370799978,105.065327833001,105.85521545800113,105.8508967910002,,,,,,,,,,,,,,,,105.85112358300104,105.85521545800113,105.85521545800113,107.56861079100054,g,1.0,1.7121471250011382,,107.56888716600042,107.57517387500047,108.57105737500024,108.56741375000092,,,,,,,,,,,,,,,,,,,,sub-178,1,stroop_test,,
,,,,10.0,10.0,0.0,,,,,gelb,blue,b,0.0,b,1.0,1.1803427499999088,,,,,,,,,,,,,,0.0,10.0,10.0,9.0,,,,,108.57105737500024,,,,,,,,,,,,,,,,,108.56765908300076,108.66523750000124,109.4569607500016,109.45068120799988,,,,,,,,,,,,,,,,109.45262562500102,109.4569607500016,109.4569607500016,110.64078754100046,b,1.0,1.1803427499999088,,110.64106225000069,110.64735383300103,111.6379272080012,111.63432329100031,,,,,,,,,,,,,,,,,,,,sub-178,1,stroop_test,,
,,,,11.0,11.0,0.0,,,,,rot,red,r,1.0,r,1.0,1.1030754580006032,,,,,,,,,,,,,,0.0,11.0,11.0,0.0,,,,,111.6379272080012,,,,,,,,,,,,,,,,,111.63456800000132,112.83739237500048,113.63078737500108,113.62287425000068,,,,,,,,,,,,,,,,113.62466454100104,113.63078737500108,113.63078737500108,114.7350779160006,r,1.0,1.1030754580006032,,114.73537187500006,114.74171379100152,115.73796754100113,115.73424904100102,,,,,,,,,,,,,,,,,,,,sub-178,1,stroop_test,,
,,,,12.0,0.0,1.0,,,,,rot,yellow,g,0.0,g,1.0,1.3160765409993471,,,,,,,,,,,,,,1.0,0.0,12.0,3.0,,,,,115.73796754100113,,,,,,,,,,,,,,,,,115.73450112499997,116.5318986250004,117.3215918750011,117.31736333300069,,,,,,,,,,,,,,,,117.3176387500007,117.3215918750011,117.3215918750011,118.64056812499985,g,1.0,1.3160765409993471,,118.64086566600054,118.64736825,119.6378773330016,119.63419270800114,,,,,,,,,,,,,,,,,,,,sub-178,1,stroop_test,,
,,,,13.0,1.0,1.0,,,,,rot,red,r,1.0,r,1.0,0.956495125001311,,,,,,,,,,,,,,1.0,1.0,13.0,0.0,,,,,119.6378773330016,,,,,,,,,,,,,,,,,119.63444116600112,120.8376721250006,121.63163483300012,121.62299062500097,,,,,,,,,,,,,,,,121.62326108300113,121.63163483300012,121.63163483300012,122.59052354100096,r,1.0,0.956495125001311,,122.59074812500148,122.59723220800151,123.5878100000009,123.58414875000015,,,,,,,,,,,,,,,,,,,,sub-178,1,stroop_test,,
,,,,14.0,2.0,1.0,,,,,gelb,yellow,g,1.0,g,1.0,1.5807126669988063,,,,,,,,,,,,,,1.0,2.0,14.0,10.0,,,,,123.5878100000009,,,,,,,,,,,,,,,,,123.58440666600109,123.68762050000078,124.48062220800055,124.47306058300092,,,,,,,,,,,,,,,,124.47487583300062,124.48062220800055,124.48062220800055,126.06804687500151,g,1.0,1.5807126669988063,,126.06839554100044,126.0746587499998,127.07122241600156,127.06754979100153,,,,,,,,,,,,,,,,,,,,sub-178,1,stroop_test,,
,,,,15.0,3.0,1.0,,,,,blau,blue,b,1.0,b,1.0,1.54533179200007,,,,,,,,,,,,,,1.0,3.0,15.0,5.0,,,,,127.07122241600156,,,,,,,,,,,,,,,,,127.06779600000118,127.8650886250016,128.65659850000156,128.6504850830006,,,,,,,,,,,,,,,,128.65238133300045,128.65659850000156,128.65659850000156,130.20708579100028,b,1.0,1.54533179200007,,130.20736583300095,130.21386754100058,131.20445975000075,131.20081437500085,,,,,,,,,,,,,,,,,,,,sub-178,1,stroop_test,,
,,,,16.0,4.0,1.0,,,,,gelb,red,r,0.0,g,0.0,1.187759250000454,,,,,,,,,,,,,,1.0,4.0,16.0,8.0,,,,,131.20445975000075,,,,,,,,,,,,,,,,,131.20106416599992,131.55395099999987,132.34723337500145,132.33935250000104,,,,,,,,,,,,,,,,132.34121420800147,132.34723337500145,132.34723337500145,133.54018362500028,g,0.0,1.187759250000454,,133.54202112500025,133.5483436250015,134.53789520800092,134.53413404100138,,,,,,,,,,,,,,,,,,,,sub-178,1,stroop_test,,
,,,,17.0,5.0,1.0,,,,,rot,red,r,1.0,r,1.0,1.093357666000884,,,,,,,,,,,,,,1.0,5.0,17.0,1.0,,,,,134.53789520800092,,,,,,,,,,,,,,,,,134.53439254100158,135.337634083,136.13056929100094,136.1228987909999,,,,,,,,,,,,,,,,136.12481370800015,136.13056929100094,136.13056929100094,137.23455116600053,r,1.0,1.093357666000884,,137.23660449999988,137.24323916600042,138.23781925000003,138.2341678749999,,,,,,,,,,,,,,,,,,,,sub-178,1,stroop_test,,
,,,,18.0,6.0,1.0,,,,,gelb,blue,b,0.0,b,1.0,1.6110098340013792,,,,,,,,,,,,,,1.0,6.0,18.0,9.0,,,,,138.23781925000003,,,,,,,,,,,,,,,,,138.23441812500096,139.03164045800077,139.8229769160007,139.81685466599993,,,,,,,,,,,,,,,,139.81871133300046,139.8229769160007,139.8229769160007,141.44013466600154,b,1.0,1.6110098340013792,,141.44041008300155,141.44710233300066,142.43772887500018,142.43409299999985,,,,,,,,,,,,,,,,,,,,sub-178,1,stroop_test,,
,,,,19.0,7.0,1.0,,,,,gelb,yellow,g,1.0,g,1.0,1.1391512919999514,,,,,,,,,,,,,,1.0,7.0,19.0,11.0,,,,,142.43772887500018,,,,,,,,,,,,,,,,,142.4343458330004,143.23757450000085,144.03176241600158,144.02262262500153,,,,,,,,,,,,,,,,144.0228743750013,144.03176241600158,144.03176241600158,145.17371400000047,g,1.0,1.1391512919999514,,145.1739896250001,145.1805512910014,146.17099370800133,146.16737479100084,,,,,,,,,,,,,,,,,,,,sub-178,1,stroop_test,,
,,,,20.0,8.0,1.0,,,,,blau,blue,b,1.0,b,1.0,0.8088490840000304,,,,,,,,,,,,,,1.0,8.0,20.0,6.0,,,,,146.17099370800133,,,,,,,,,,,,,,,,,146.16762458300036,146.5203994580006,147.31369220800116,147.30631754100068,,,,,,,,,,,,,,,,147.30834425000103,147.31369220800116,147.31369220800116,148.12380762500106,b,1.0,0.8088490840000304,,148.12410158300008,148.13047520800137,149.1207587910012,149.11714100000063,,,,,,,,,,,,,,,,,,,,sub-178,1,stroop_test,,
,,,,21.0,9.0,1.0,,,,,blau,yellow,g,0.0,g,1.0,2.5213755830009177,,,,,,,,,,,,,,1.0,9.0,21.0,7.0,,,,,149.1207587910012,,,,,,,,,,,,,,,,,149.11739129099988,149.22050658300032,150.01467741600027,150.00587791600083,,,,,,,,,,,,,,,,150.00614804100042,150.01467741600027,150.01467741600027,152.54044700000122,g,1.0,2.5213755830009177,,152.5406859579998,152.54712166600075,153.53748166600053,153.5338730830008,,,,,,,,,,,,,,,,,,,,sub-178,1,stroop_test,,
,,,,22.0,10.0,1.0,,,,,rot,blue,b,0.0,b,1.0,1.4047960839998268,,,,,,,,,,,,,,1.0,10.0,22.0,2.0,,,,,153.53748166600053,,,,,,,,,,,,,,,,,153.53410895800153,153.6371009579998,154.43070200000147,154.42222441600097,,,,,,,,,,,,,,,,154.42410112500147,154.43070200000147,154.43070200000147,155.8403021660015,b,1.0,1.4047960839998268,,155.84061183300037,155.8471385410012,156.8375234160012,156.83384500000102,,,,,,,,,,,,,,,,,,,,sub-178,1,stroop_test,,
,,,,23.0,11.0,1.0,,,,,blau,red,r,0.0,r,1.0,1.7035099579989037,,,,,,,,,,,,,,1.0,11.0,23.0,4.0,,,,,156.8375234160012,,,,,,,,,,,,,,,,,156.83409700000084,156.93756662499982,157.73029045800104,157.72318950000044,,,,,,,,,,,,,,,,157.7250615410012,157.73029045800104,157.73029045800104,159.4351407080012,r,1.0,1.7035099579989037,,159.4354044160009,159.44165462500132,160.43802883300123,160.43369425000128,,,,,,,,,,,,,,,,,,,,sub-178,1,stroop_test,,
,,,,,,,,,,,,,,,,,,,,,,,,,,,,,,,,,,,,,,,,,,,,,,,,,,,,,,,,,,,,,,,,,,,,,,,,,,,,,,,,,,,,,,,160.43379829100013,160.43802883300123,160.43802883300123,171.8066391250013,space,11.367484374999547,,,,,,,,,,,,,,sub-178,1,stroop_test,,
,,,,0.0,0.0,0.0,,,,,,,,,,,,,gelb,blue,b,0.0,b,1.0,1.887395124998875,,,,,,,,,,0.0,0.0,0.0,9.0,171.8185230409999,,,,,,,,,,,,,,,,,171.81454445800046,172.60394562500005,173.39739945800102,173.38903291600036,,,,,,,,,,,,,,,,,,,,,,,,,,,,,,,,,,,173.39091529100006,173.39739945800102,173.39739945800102,175.28989133300092,b,1.0,1.887395124998875,,,,,,sub-178,1,stroop_test,,
,,,,1.0,1.0,0.0,,,,,,,,,,,,,gelb,yellow,g,1.0,g,1.0,1.486927709000156,,,,,,,,,,0.0,1.0,1.0,11.0,175.29741354100042,,,,,,,,,,,,,,,,,175.29016300000148,175.63716566600124,176.43154920800043,176.42223995800123,,,,,,,,,,,,,,,,,,,,,,,,,,,,,,,,,,,176.42250745800084,176.43154920800043,176.43154920800043,177.92350016599994,g,1.0,1.486927709000156,,,,,,sub-178,1,stroop_test,,
,,,,2.0,2.0,0.0,,,,,,,,,,,,,rot,yellow,g,0.0,g,1.0,1.2624004170011176,,,,,,,,,,0.0,2.0,2.0,3.0,177.93018020800082,,,,,,,,,,,,,,,,,177.92379366600107,178.27022262500032,179.06383929100048,179.05572050000046,,,,,,,,,,,,,,,,,,,,,,,,,,,,,,,,,,,179.0574030830012,179.06383929100048,179.06383929100048,180.33435129100144,g,1.0,1.2624004170011176,,,,,,sub-178,1,stroop_test,,
,,,,3.0,3.0,0.0,,,,,,,,,,,,,rot,red,r,1.0,r,1.0,2.2713590000003023,,,,,,,,,,0.0,3.0,3.0,1.0,180.3403715830009,,,,,,,,,,,,,,,,,180.33464925000044,180.43134125000145,181.22118050000063,181.2169636250001,,,,,,,,,,,,,,,,,,,,,,,,,,,,,,,,,,,181.2172332500013,181.22118050000063,181.22118050000063,183.501007375,r,1.0,2.2713590000003023,,,,,,sub-178,1,stroop_test,,
,,,,4.0,4.0,0.0,,,,,,,,,,,,,rot,blue,b,0.0,b,1.0,1.2913023749988497,,,,,,,,,,0.0,4.0,4.0,2.0,183.50697808299992,,,,,,,,,,,,,,,,,183.50131195799983,183.8479477500005,184.63811545800127,184.63380675000008,,,,,,,,,,,,,,,,,,,,,,,,,,,,,,,,,,,184.6340650000002,184.63811545800127,184.63811545800127,185.93434675000023,b,1.0,1.2913023749988497,,,,,,sub-178,1,stroop_test,,
,,,,5.0,5.0,0.0,,,,,,,,,,,,,blau,red,r,0.0,b,0.0,0.8875312499985739,,,,,,,,,,0.0,5.0,5.0,4.0,185.9402763750004,,,,,,,,,,,,,,,,,185.9346411250008,187.1314031660004,187.92311845800032,187.9170291660012,,,,,,,,,,,,,,,,,,,,,,,,,,,,,,,,,,,187.91894162500105,187.92311845800032,187.92311845800032,188.81765658299992,b,0.0,0.8875312499985739,,,,,,sub-178,1,stroop_test,,
,,,,6.0,6.0,0.0,,,,,,,,,,,,,blau,blue,b,1.0,b,1.0,1.0401889999993728,,,,,,,,,,0.0,6.0,6.0,5.0,188.82363770800112,,,,,,,,,,,,,,,,,188.817938958,189.164689833,189.95428408299995,189.9500618330003,,,,,,,,,,,,,,,,,,,,,,,,,,,,,,,,,,,189.9503158330008,189.95428408299995,189.95428408299995,191.00100254100107,b,1.0,1.0401889999993728,,,,,,sub-178,1,stroop_test,,
,,,,7.0,7.0,0.0,,,,,,,,,,,,,gelb,yellow,g,1.0,g,1.0,1.1019131250013745,,,,,,,,,,0.0,7.0,7.0,10.0,191.00697141599997,,,,,,,,,,,,,,,,,191.001302875,191.7979725410005,192.5895837500011,192.5835694160014,,,,,,,,,,,,,,,,,,,,,,,,,,,,,,,,,,,192.58546475000003,192.5895837500011,192.5895837500011,193.7006571250004,g,1.0,1.1019131250013745,,,,,,sub-178,1,stroop_test,,
,,,,8.0,8.0,0.0,,,,,,,,,,,,,blau,yellow,g,0.0,g,1.0,1.3620991659990975,,,,,,,,,,0.0,8.0,8.0,7.0,193.70646504100117,,,,,,,,,,,,,,,,,193.7009214580012,193.7977396250008,194.5895953750005,194.58354141600103,,,,,,,,,,,,,,,,,,,,,,,,,,,,,,,,,,,194.58541400000104,194.5895953750005,194.5895953750005,195.95648091600012,g,1.0,1.3620991659990975,,,,,,sub-178,1,stroop_test,,
,,,,9.0,9.0,0.0,,,,,,,,,,,,,blau,blue,b,1.0,b,1.0,1.1905533329991158,,,,,,,,,,0.0,9.0,9.0,6.0,195.96330175000003,,,,,,,,,,,,,,,,,195.9567510830002,196.05355608300124,196.84784891600063,196.83902070800104,,,,,,,,,,,,,,,,,,,,,,,,,,,,,,,,,,,196.8392831660003,196.84784891600063,196.84784891600063,198.0399340000004,b,1.0,1.1905533329991158,,,,,,sub-178,1,stroop_test,,
,,,,10.0,10.0,0.0,,,,,,,,,,,,,gelb,red,r,0.0,r,1.0,1.7656142499999987,,,,,,,,,,0.0,10.0,10.0,8.0,198.04662262500096,,,,,,,,,,,,,,,,,198.0402292910003,198.8373537080006,199.63009425000016,199.6224209160009,,,,,,,,,,,,,,,,,,,,,,,,,,,,,,,,,,,199.6242500000008,199.63009425000016,199.63009425000016,201.40078062500103,r,1.0,1.7656142499999987,,,,,,sub-178,1,stroop_test,,
,,,,11.0,11.0,0.0,,,,,,,,,,,,,rot,red,r,1.0,r,1.0,0.6622624589999759,,,,,,,,,,0.0,11.0,11.0,0.0,201.40670766600124,,,,,,,,,,,,,,,,,201.40104408300067,202.1978925830008,202.98945883300075,202.9832904160012,,,,,,,,,,,,,,,,,,,,,,,,,,,,,,,,,,,202.9851329580015,202.98945883300075,202.98945883300075,203.65650870799985,r,1.0,0.6622624589999759,,,,,,sub-178,1,stroop_test,,
,,,,12.0,0.0,1.0,,,,,,,,,,,,,gelb,yellow,g,1.0,g,1.0,0.9712053750008636,,,,,,,,,,1.0,0.0,12.0,10.0,203.66329154100092,,,,,,,,,,,,,,,,,203.65677454100117,204.85380070800056,205.64673712500007,205.63905225000053,,,,,,,,,,,,,,,,,,,,,,,,,,,,,,,,,,,205.6409162079999,205.64673712500007,205.64673712500007,206.622983958001,g,1.0,0.9712053750008636,,,,,,sub-178,1,stroop_test,,
,,,,13.0,1.0,1.0,,,,,,,,,,,,,blau,blue,b,1.0,b,1.0,0.8940699579998181,,,,,,,,,,1.0,1.0,13.0,6.0,206.6299451660016,,,,,,,,,,,,,,,,,206.6232584999998,206.72017720800068,207.5133697500005,207.5057482910015,,,,,,,,,,,,,,,,,,,,,,,,,,,,,,,,,,,207.5076223750002,207.5133697500005,207.5133697500005,208.41744925000057,b,1.0,0.8940699579998181,,,,,,sub-178,1,stroop_test,,
,,,,14.0,2.0,1.0,,,,,,,,,,,,,gelb,red,r,0.0,r,1.0,1.314142917000936,,,,,,,,,,1.0,2.0,14.0,8.0,208.42336466600136,,,,,,,,,,,,,,,,,208.417744458,209.6144013330013,210.4065407080016,210.40019458300048,,,,,,,,,,,,,,,,,,,,,,,,,,,,,,,,,,,210.40218229099992,210.4065407080016,210.4065407080016,211.7233159160005,r,1.0,1.314142917000936,,,,,,sub-178,1,stroop_test,,
,,,,15.0,3.0,1.0,,,,,,,,,,,,,blau,red,r,0.0,b,0.0,1.3945562499993684,,,,,,,,,,1.0,3.0,15.0,4.0,211.7299258330004,,,,,,,,,,,,,,,,,211.7235823750016,212.07020804100105,212.86347891600053,212.855487416,,,,,,,,,,,,,,,,,,,,,,,,,,,,,,,,,,,212.85728291600023,212.86347891600053,212.86347891600053,214.2675455000008,b,0.0,1.3945562499993684,,,,,,sub-178,1,stroop_test,,
,,,,16.0,4.0,1.0,,,,,,,,,,,,,gelb,yellow,g,1.0,g,1.0,0.962072583999543,,,,,,,,,,1.0,4.0,16.0,11.0,214.2735893750014,,,,,,,,,,,,,,,,,214.2678452910004,215.06457054100065,215.85625016599988,215.8502391250004,,,,,,,,,,,,,,,,,,,,,,,,,,,,,,,,,,,215.8520645410008,215.85625016599988,215.85625016599988,216.82324991600035,g,1.0,0.962072583999543,,,,,,sub-178,1,stroop_test,,
,,,,17.0,5.0,1.0,,,,,,,,,,,,,rot,red,r,1.0,r,1.0,1.173836209000001,,,,,,,,,,1.0,5.0,17.0,0.0,216.8298723330008,,,,,,,,,,,,,,,,,216.82352208300108,217.6202619579999,218.4133116660014,218.4057896250015,,,,,,,,,,,,,,,,,,,,,,,,,,,,,,,,,,,218.40746987500097,218.4133116660014,218.4133116660014,219.58979083300076,r,1.0,1.173836209000001,,,,,,sub-178,1,stroop_test,,
,,,,18.0,6.0,1.0,,,,,,,,,,,,,rot,blue,b,0.0,b,1.0,1.1643471669995051,,,,,,,,,,1.0,6.0,18.0,2.0,219.59654300000147,,,,,,,,,,,,,,,,,219.5900787500013,220.3866560410006,221.18088445800092,221.1720534160013,,,,,,,,,,,,,,,,,,,,,,,,,,,,,,,,,,,221.1723153330004,221.18088445800092,221.18088445800092,222.3506223330005,b,1.0,1.1643471669995051,,,,,,sub-178,1,stroop_test,,
,,,,19.0,7.0,1.0,,,,,,,,,,,,,rot,yellow,g,0.0,g,1.0,1.3286324580003566,,,,,,,,,,1.0,7.0,19.0,3.0,222.3564636250012,,,,,,,,,,,,,,,,,222.35089879100087,222.44769862500107,223.23777900000096,223.2334718750008,,,,,,,,,,,,,,,,,,,,,,,,,,,,,,,,,,,223.2337387080006,223.23777900000096,223.23777900000096,224.5676680000015,g,1.0,1.3286324580003566,,,,,,sub-178,1,stroop_test,,
,,,,20.0,8.0,1.0,,,,,,,,,,,,,gelb,blue,b,0.0,b,1.0,1.155682832999446,,,,,,,,,,1.0,8.0,20.0,9.0,224.57352729100057,,,,,,,,,,,,,,,,,224.56796558300084,225.36429608300023,226.1563459580011,226.15024237500077,,,,,,,,,,,,,,,,,,,,,,,,,,,,,,,,,,,226.1521468330011,226.1563459580011,226.1563459580011,227.31705599999987,b,1.0,1.155682832999446,,,,,,sub-178,1,stroop_test,,
,,,,21.0,9.0,1.0,,,,,,,,,,,,,blau,yellow,g,0.0,g,1.0,2.2787355839991505,,,,,,,,,,1.0,9.0,21.0,7.0,227.3219174160004,,,,,,,,,,,,,,,,,227.31732470800125,228.11424112500023,228.90609745800063,228.89985850000085,,,,,,,,,,,,,,,,,,,,,,,,,,,,,,,,,,,228.9017458750004,228.90609745800063,228.90609745800063,231.18939775000035,g,1.0,2.2787355839991505,,,,,,sub-178,1,stroop_test,,
,,,,22.0,10.0,1.0,,,,,,,,,,,,,blau,blue,b,1.0,b,1.0,0.8948856669994711,,,,,,,,,,1.0,10.0,22.0,5.0,231.19647712500048,,,,,,,,,,,,,,,,,231.18968675,232.3865858330009,233.18076425000072,233.17219775000007,,,,,,,,,,,,,,,,,,,,,,,,,,,,,,,,,,,233.17245762499988,233.18076425000072,233.18076425000072,234.0841978750013,b,1.0,0.8948856669994711,,,,,,sub-178,1,stroop_test,,
,,,,23.0,11.0,1.0,,,,,,,,,,,,,rot,red,r,1.0,r,1.0,0.9930303749988524,,,,,,,,,,1.0,11.0,23.0,1.0,234.09011920800003,,,,,,,,,,,,,,,,,234.0844917080012,234.88084162500127,235.673014375001,235.6669042909998,,,,,,,,,,,,,,,,,,,,,,,,,,,,,,,,,,,235.6687190829998,235.673014375001,235.673014375001,236.66741991600065,r,1.0,0.9930303749988524,,,,,,sub-178,1,stroop_test,,
,,,,24.0,0.0,2.0,,,,,,,,,,,,,rot,red,r,1.0,r,1.0,0.6133206249996874,,,,,,,,,,2.0,0.0,24.0,0.0,236.6735628330007,,,,,,,,,,,,,,,,,236.66771366600003,236.76431700000103,237.5541890000004,237.54986658300004,,,,,,,,,,,,,,,,,,,,,,,,,,,,,,,,,,,237.55014587500045,237.5541890000004,237.5541890000004,238.1731079580004,r,1.0,0.6133206249996874,,,,,,sub-178,1,stroop_test,,
,,,,25.0,1.0,2.0,,,,,,,,,,,,,blau,blue,b,1.0,b,1.0,0.8278838329988503,,,,,,,,,,2.0,1.0,25.0,6.0,238.17976595800064,,,,,,,,,,,,,,,,,238.1733810000005,238.5203280000005,239.3130044580012,239.3055304999998,,,,,,,,,,,,,,,,,,,,,,,,,,,,,,,,,,,239.3076125000007,239.3130044580012,239.3130044580012,240.148398583,b,1.0,0.8278838329988503,,,,,,sub-178,1,stroop_test,,
,,,,26.0,2.0,2.0,,,,,,,,,,,,,rot,blue,b,0.0,b,1.0,1.4232127499999478,,,,,,,,,,2.0,2.0,26.0,2.0,240.15195175000008,,,,,,,,,,,,,,,,,240.14855220800015,241.33709725000156,242.12978991599996,242.122128291001,,,,,,,,,,,,,,,,,,,,,,,,,,,,,,,,,,,242.12397283300012,242.12978991599996,242.12978991599996,243.55649962500135,b,1.0,1.4232127499999478,,,,,,sub-178,1,stroop_test,,
,,,,27.0,3.0,2.0,,,,,,,,,,,,,blau,yellow,g,0.0,g,1.0,1.407288291000441,,,,,,,,,,2.0,3.0,27.0,7.0,243.56304241600083,,,,,,,,,,,,,,,,,243.55678025000088,243.90338608300044,244.69657525,244.68871612500152,,,,,,,,,,,,,,,,,,,,,,,,,,,,,,,,,,,244.69059675000065,244.69657525,244.69657525,246.10647770800097,g,1.0,1.407288291000441,,,,,,sub-178,1,stroop_test,,
,,,,28.0,4.0,2.0,,,,,,,,,,,,,gelb,blue,b,0.0,b,1.0,1.7636215830007131,,,,,,,,,,2.0,4.0,28.0,9.0,246.1130404579999,,,,,,,,,,,,,,,,,246.1067490410005,247.3033940410005,248.0963427080005,248.0891040410006,,,,,,,,,,,,,,,,,,,,,,,,,,,,,,,,,,,248.09098266600083,248.0963427080005,248.0963427080005,249.86720454100032,b,1.0,1.7636215830007131,,,,,,sub-178,1,stroop_test,,
,,,,29.0,5.0,2.0,,,,,,,,,,,,,rot,red,r,1.0,r,1.0,0.9766184159998376,,,,,,,,,,2.0,5.0,29.0,1.0,249.87309325000024,,,,,,,,,,,,,,,,,249.86747516600008,251.06406691600023,251.85602095800093,251.84977362500103,,,,,,,,,,,,,,,,,,,,,,,,,,,,,,,,,,,251.851601458,251.85602095800093,251.85602095800093,252.833926583,r,1.0,0.9766184159998376,,,,,,sub-178,1,stroop_test,,
,,,,30.0,6.0,2.0,,,,,,,,,,,,,gelb,yellow,g,1.0,g,1.0,1.1499554999991233,,,,,,,,,,2.0,6.0,30.0,10.0,252.83993341600035,,,,,,,,,,,,,,,,,252.8342240410002,254.03096829100105,254.82242041600148,254.8163563750004,,,,,,,,,,,,,,,,,,,,,,,,,,,,,,,,,,,254.81815320799976,254.82242041600148,254.82242041600148,255.9837887499998,g,1.0,1.1499554999991233,,,,,,sub-178,1,stroop_test,,
,,,,31.0,7.0,2.0,,,,,,,,,,,,,blau,blue,b,1.0,b,1.0,0.8962902500006749,,,,,,,,,,2.0,7.0,31.0,5.0,255.98975754100135,,,,,,,,,,,,,,,,,255.9840610830015,256.33087383300153,257.1225821250009,257.1164652080006,,,,,,,,,,,,,,,,,,,,,,,,,,,,,,,,,,,257.1183339580002,257.1225821250009,257.1225821250009,258.02268150000054,b,1.0,0.8962902500006749,,,,,,sub-178,1,stroop_test,,
,,,,32.0,8.0,2.0,,,,,,,,,,,,,gelb,red,r,0.0,r,1.0,1.0873690829994302,,,,,,,,,,2.0,8.0,32.0,8.0,258.029730708,,,,,,,,,,,,,,,,,258.02294608300144,258.3697959580004,259.1631158750006,259.1553098330005,,,,,,,,,,,,,,,,,,,,,,,,,,,,,,,,,,,259.1571850830005,259.1631158750006,259.1631158750006,260.2557242080002,r,1.0,1.0873690829994302,,,,,,sub-178,1,stroop_test,,
,,,,33.0,9.0,2.0,,,,,,,,,,,,,rot,yellow,g,0.0,g,1.0,2.3051712500000576,,,,,,,,,,2.0,9.0,33.0,3.0,260.2629583329999,,,,,,,,,,,,,,,,,260.2559950000013,260.35305233300096,261.1461953329999,261.13881025000046,,,,,,,,,,,,,,,,,,,,,,,,,,,,,,,,,,,261.1406672910016,261.1461953329999,261.1461953329999,263.4556499999999,g,1.0,2.3051712500000576,,,,,,sub-178,1,stroop_test,,
,,,,34.0,10.0,2.0,,,,,,,,,,,,,blau,red,r,0.0,r,1.0,2.006375375000061,,,,,,,,,,2.0,10.0,34.0,4.0,263.46288458300114,,,,,,,,,,,,,,,,,263.4559230000013,264.2532986660008,265.0464305410005,265.0385042910002,,,,,,,,,,,,,,,,,,,,,,,,,,,,,,,,,,,265.0405202910006,265.0464305410005,265.0464305410005,267.0555405410014,r,1.0,2.006375375000061,,,,,,sub-178,1,stroop_test,,
,,,,35.0,11.0,2.0,,,,,,,,,,,,,gelb,yellow,g,1.0,g,1.0,1.265516875000685,,,,,,,,,,2.0,11.0,35.0,11.0,267.06291204100125,,,,,,,,,,,,,,,,,267.0558331250013,268.25297950000095,269.0461977499999,269.0386178330009,,,,,,,,,,,,,,,,,,,,,,,,,,,,,,,,,,,269.0404987910006,269.0461977499999,269.0461977499999,270.3167777910003,g,1.0,1.265516875000685,,,,,,sub-178,1,stroop_test,,
,,,,36.0,0.0,3.0,,,,,,,,,,,,,blau,blue,b,1.0,b,1.0,1.378775000001042,,,,,,,,,,3.0,0.0,36.0,5.0,270.32268345800003,,,,,,,,,,,,,,,,,270.3170535830013,271.51386154100146,272.3060426660013,272.2998421660013,,,,,,,,,,,,,,,,,,,,,,,,,,,,,,,,,,,272.3017283750014,272.3060426660013,272.3060426660013,273.68911450000087,b,1.0,1.378775000001042,,,,,,sub-178,1,stroop_test,,
,,,,37.0,1.0,3.0,,,,,,,,,,,,,gelb,red,r,0.0,r,1.0,1.1053957500007527,,,,,,,,,,3.0,1.0,37.0,8.0,273.6964807910008,,,,,,,,,,,,,,,,,273.68939316600154,274.8862907500006,275.67955804099984,275.6719150830013,,,,,,,,,,,,,,,,,,,,,,,,,,,,,,,,,,,275.67394745800084,275.67955804099984,275.67955804099984,276.7895185000016,r,1.0,1.1053957500007527,,,,,,sub-178,1,stroop_test,,
,,,,38.0,2.0,3.0,,,,,,,,,,,,,rot,red,r,1.0,r,1.0,1.1211891250004555,,,,,,,,,,3.0,2.0,38.0,1.0,276.79610916599995,,,,,,,,,,,,,,,,,276.7898012080004,277.98628658300004,278.7795717500012,278.771898291001,,,,,,,,,,,,,,,,,,,,,,,,,,,,,,,,,,,278.7737267500015,278.7795717500012,278.7795717500012,279.9060995,r,1.0,1.1211891250004555,,,,,,sub-178,1,stroop_test,,
,,,,39.0,3.0,3.0,,,,,,,,,,,,,gelb,yellow,g,1.0,g,1.0,0.9458673339995584,,,,,,,,,,3.0,3.0,39.0,10.0,279.9128419160006,,,,,,,,,,,,,,,,,279.9063612500013,281.10311666600137,281.8961126250015,281.8889199580008,,,,,,,,,,,,,,,,,,,,,,,,,,,,,,,,,,,281.89082083300127,281.8961126250015,281.8961126250015,282.85004783300064,g,1.0,0.9458673339995584,,,,,,sub-178,1,stroop_test,,
,,,,40.0,4.0,3.0,,,,,,,,,,,,,rot,yellow,g,0.0,g,1.0,1.7142200830003276,,,,,,,,,,3.0,4.0,40.0,3.0,282.85598016600125,,,,,,,,,,,,,,,,,282.85032570800104,284.04717795800025,284.83903983300115,284.832752833001,,,,,,,,,,,,,,,,,,,,,,,,,,,,,,,,,,,284.83466575000057,284.83903983300115,284.83903983300115,286.55539891599983,g,1.0,1.7142200830003276,,,,,,sub-178,1,stroop_test,,
,,,,41.0,5.0,3.0,,,,,,,,,,,,,blau,blue,b,1.0,b,1.0,0.990772166998795,,,,,,,,,,3.0,5.0,41.0,6.0,286.56280516600054,,,,,,,,,,,,,,,,,286.5556848330016,287.35246433300017,288.14609658300105,288.138563333001,,,,,,,,,,,,,,,,,,,,,,,,,,,,,,,,,,,288.1404467500015,288.14609658300105,288.14609658300105,289.13956837500155,b,1.0,0.990772166998795,,,,,,sub-178,1,stroop_test,,
,,,,42.0,6.0,3.0,,,,,,,,,,,,,rot,red,r,1.0,r,1.0,0.926041124999756,,,,,,,,,,3.0,6.0,42.0,0.0,289.1460765830016,,,,,,,,,,,,,,,,,289.13985958300145,289.9365789580006,290.7293737079999,290.72213904100136,,,,,,,,,,,,,,,,,,,,,,,,,,,,,,,,,,,290.7240417910016,290.7293737079999,290.7293737079999,291.6665179580013,r,1.0,0.926041124999756,,,,,,sub-178,1,stroop_test,,
,,,,43.0,7.0,3.0,,,,,,,,,,,,,gelb,yellow,g,1.0,g,1.0,0.9276800000006916,,,,,,,,,,3.0,7.0,43.0,11.0,291.6723857910001,,,,,,,,,,,,,,,,,291.66677812499984,292.01387808300024,292.8058531250008,292.79972525000085,,,,,,,,,,,,,,,,,,,,,,,,,,,,,,,,,,,292.8015727080001,292.8058531250008,292.8058531250008,293.7391836660008,g,1.0,0.9276800000006916,,,,,,sub-178,1,stroop_test,,
,,,,44.0,8.0,3.0,,,,,,,,,,,,,blau,yellow,g,0.0,g,1.0,1.524972582999908,,,,,,,,,,3.0,8.0,44.0,7.0,293.74601929100027,,,,,,,,,,,,,,,,,293.739450250001,294.53639595800087,295.329470875,295.3216098330013,,,,,,,,,,,,,,,,,,,,,,,,,,,,,,,,,,,295.3234699580007,295.329470875,295.329470875,296.85596591600006,g,1.0,1.524972582999908,,,,,,sub-178,1,stroop_test,,
,,,,45.0,9.0,3.0,,,,,,,,,,,,,gelb,blue,b,0.0,b,1.0,1.672628166999857,,,,,,,,,,3.0,9.0,45.0,9.0,296.86278975000096,,,,,,,,,,,,,,,,,296.8562273330008,297.2031247499999,297.9960394580012,297.9883914580005,,,,,,,,,,,,,,,,,,,,,,,,,,,,,,,,,,,297.9902832080006,297.9960394580012,297.9960394580012,299.67313600000125,b,1.0,1.672628166999857,,,,,,sub-178,1,stroop_test,,
,,,,46.0,10.0,3.0,,,,,,,,,,,,,blau,red,r,0.0,r,1.0,2.171151665999787,,,,,,,,,,3.0,10.0,46.0,4.0,299.6793348750016,,,,,,,,,,,,,,,,,299.6734077910005,300.4696760000006,301.26261049999994,301.2549480409998,,,,,,,,,,,,,,,,,,,,,,,,,,,,,,,,,,,301.2568248330008,301.26261049999994,301.26261049999994,303.4392762910011,r,1.0,2.171151665999787,,,,,,sub-178,1,stroop_test,,
,,,,47.0,11.0,3.0,,,,,,,,,,,,,rot,blue,b,0.0,b,1.0,1.6556198750004114,,,,,,,,,,3.0,11.0,47.0,2.0,303.4459474160012,,,,,,,,,,,,,,,,,303.4395585830007,304.2365528750015,305.02933454100094,305.0216921250012,,,,,,,,,,,,,,,,,,,,,,,,,,,,,,,,,,,305.0235360410006,305.02933454100094,305.02933454100094,306.6891489160007,b,1.0,1.6556198750004114,,,,,,sub-178,1,stroop_test,,
,,,,48.0,0.0,4.0,,,,,,,,,,,,,blau,blue,b,1.0,b,1.0,0.5662261249999574,,,,,,,,,,4.0,0.0,48.0,6.0,306.69594487500035,,,,,,,,,,,,,,,,,306.6894235,307.0361824160009,307.82933245800086,307.82179008300045,,,,,,,,,,,,,,,,,,,,,,,,,,,,,,,,,,,307.8236222080013,307.82933245800086,307.82933245800086,308.4000672500006,b,1.0,0.5662261249999574,,,,,,sub-178,1,stroop_test,,
,,,,49.0,1.0,4.0,,,,,,,,,,,,,rot,blue,b,0.0,b,1.0,1.1039493749995015,,,,,,,,,,4.0,1.0,49.0,2.0,308.4060449160006,,,,,,,,,,,,,,,,,308.4003511250012,309.59699833300147,310.38887887500096,310.3827007500004,,,,,,,,,,,,,,,,,,,,,,,,,,,,,,,,,,,310.384506583001,310.38887887500096,310.38887887500096,311.49999412500074,b,1.0,1.1039493749995015,,,,,,sub-178,1,stroop_test,,
,,,,50.0,2.0,4.0,,,,,,,,,,,,,rot,red,r,1.0,r,1.0,1.0789412920003087,,,,,,,,,,4.0,2.0,50.0,0.0,311.5058397080011,,,,,,,,,,,,,,,,,311.50026108300153,311.5970434160008,312.3870323330011,312.3826846660013,,,,,,,,,,,,,,,,,,,,,,,,,,,,,,,,,,,312.38294550000137,312.3870323330011,312.3870323330011,313.4672969580006,r,1.0,1.0789412920003087,,,,,,sub-178,1,stroop_test,,
,,,,51.0,3.0,4.0,,,,,,,,,,,,,rot,yellow,g,0.0,g,1.0,0.9073182079991966,,,,,,,,,,4.0,3.0,51.0,3.0,313.4730750409999,,,,,,,,,,,,,,,,,313.4675889580012,313.8136674160014,314.60359362500094,314.59926379100034,,,,,,,,,,,,,,,,,,,,,,,,,,,,,,,,,,,314.5995315830005,314.60359362500094,314.60359362500094,315.5166059160001,g,1.0,0.9073182079991966,,,,,,sub-178,1,stroop_test,,
,,,,52.0,4.0,4.0,,,,,,,,,,,,,gelb,blue,b,0.0,b,1.0,0.898569666000185,,,,,,,,,,4.0,4.0,52.0,9.0,315.52248970800065,,,,,,,,,,,,,,,,,315.5168942910004,316.3136781660014,317.1056129160006,317.09943337500044,,,,,,,,,,,,,,,,,,,,,,,,,,,,,,,,,,,317.10133212500114,317.1056129160006,317.1056129160006,318.0055604580011,b,1.0,0.898569666000185,,,,,,sub-178,1,stroop_test,,
,,,,53.0,5.0,4.0,,,,,,,,,,,,,gelb,yellow,g,1.0,g,1.0,0.9521528750010476,,,,,,,,,,4.0,5.0,53.0,10.0,318.0125204579999,,,,,,,,,,,,,,,,,318.005824666001,319.2028867910012,319.99705741600155,319.9881021660003,,,,,,,,,,,,,,,,,,,,,,,,,,,,,,,,,,,319.9883818750004,319.99705741600155,319.99705741600155,320.9582487910011,g,1.0,0.9521528750010476,,,,,,sub-178,1,stroop_test,,
,,,,54.0,6.0,4.0,,,,,,,,,,,,,blau,red,r,0.0,r,1.0,0.3872729579998122,,,,,,,,,,4.0,6.0,54.0,4.0,320.9624125830014,,,,,,,,,,,,,,,,,320.9585001659998,321.7526450000005,322.54589129099986,322.53830504100006,,,,,,,,,,,,,,,,,,,,,,,,,,,,,,,,,,,322.5402139580001,322.54589129099986,322.54589129099986,322.9387632500002,r,1.0,0.3872729579998122,,,,,,sub-178,1,stroop_test,,
,,,,55.0,7.0,4.0,,,,,,,,,,,,,gelb,yellow,g,1.0,g,1.0,0.6660570839994762,,,,,,,,,,4.0,7.0,55.0,11.0,322.9459248330004,,,,,,,,,,,,,,,,,322.9390240410012,323.7360280000012,324.52918370800035,324.52145350000137,,,,,,,,,,,,,,,,,,,,,,,,,,,,,,,,,,,324.5233014580008,324.52918370800035,324.52918370800035,325.1997797910008,g,1.0,0.6660570839994762,,,,,,sub-178,1,stroop_test,,
,,,,56.0,8.0,4.0,,,,,,,,,,,,,gelb,red,r,0.0,r,1.0,1.3172064999998838,,,,,,,,,,4.0,8.0,56.0,8.0,325.2055799160007,,,,,,,,,,,,,,,,,325.2000390410012,325.9968092500003,326.7870885829998,326.7826979580004,,,,,,,,,,,,,,,,,,,,,,,,,,,,,,,,,,,326.782977375,326.7870885829998,326.7870885829998,328.105506291,r,1.0,1.3172064999998838,,,,,,sub-178,1,stroop_test,,
,,,,57.0,9.0,4.0,,,,,,,,,,,,,blau,blue,b,1.0,b,1.0,0.5755111670005135,,,,,,,,,,4.0,9.0,57.0,5.0,328.112520916,,,,,,,,,,,,,,,,,328.10577637500137,328.4530320829999,329.2459558750015,329.23821708300056,,,,,,,,,,,,,,,,,,,,,,,,,,,,,,,,,,,329.2400162080012,329.2459558750015,329.2459558750015,329.8226344579998,b,1.0,0.5755111670005135,,,,,,sub-178,1,stroop_test,,
,,,,58.0,10.0,4.0,,,,,,,,,,,,,blau,yellow,g,0.0,g,1.0,0.7882795419991453,,,,,,,,,,4.0,10.0,58.0,7.0,329.8291065000012,,,,,,,,,,,,,,,,,329.82289591600056,329.9189344160004,330.71352504100105,330.70439791600074,,,,,,,,,,,,,,,,,,,,,,,,,,,,,,,,,,,330.7045993749998,330.71352504100105,330.71352504100105,331.5058430830013,g,1.0,0.7882795419991453,,,,,,sub-178,1,stroop_test,,
,,,,59.0,11.0,4.0,,,,,,,,,,,,,rot,red,r,1.0,r,1.0,0.4218174159996124,,,,,,,,,,4.0,11.0,59.0,1.0,331.5124749580009,,,,,,,,,,,,,,,,,331.5061172500009,332.30256137500146,333.09584633300074,333.08791833299983,,,,,,,,,,,,,,,,,,,,,,,,,,,,,,,,,,,333.0897753750014,333.09584633300074,333.09584633300074,333.52262275000066,r,1.0,0.4218174159996124,,,,,,sub-178,1,stroop_test,,
,,,,60.0,0.0,5.0,,,,,,,,,,,,,rot,red,r,1.0,r,1.0,0.641036291999626,,,,,,,,,,5.0,0.0,60.0,0.0,333.5290945000015,,,,,,,,,,,,,,,,,333.522882583,333.86928533300124,334.6634636660001,334.6546757080014,,,,,,,,,,,,,,,,,,,,,,,,,,,,,,,,,,,334.65495725000073,334.6634636660001,334.6634636660001,335.3153196250005,r,1.0,0.641036291999626,,,,,,sub-178,1,stroop_test,,
,,,,61.0,1.0,5.0,,,,,,,,,,,,,blau,blue,b,1.0,b,1.0,0.8487314579997474,,,,,,,,,,5.0,1.0,61.0,6.0,335.3183420000005,,,,,,,,,,,,,,,,,335.3155470000001,335.413474125,336.2052538750013,336.1991000830003,,,,,,,,,,,,,,,,,,,,,,,,,,,,,,,,,,,336.2009721660015,336.2052538750013,336.2052538750013,337.0552024580011,b,1.0,0.8487314579997474,,,,,,sub-178,1,stroop_test,,
,,,,62.0,2.0,5.0,,,,,,,,,,,,,blau,blue,b,1.0,b,1.0,0.5573287919996801,,,,,,,,,,5.0,2.0,62.0,5.0,337.06242462500086,,,,,,,,,,,,,,,,,337.05545604100007,337.4027627080013,338.1969477080001,338.1880925000005,,,,,,,,,,,,,,,,,,,,,,,,,,,,,,,,,,,338.1883266250006,338.1969477080001,338.1969477080001,338.7554532080012,b,1.0,0.5573287919996801,,,,,,sub-178,1,stroop_test,,
,,,,63.0,3.0,5.0,,,,,,,,,,,,,gelb,blue,b,0.0,b,1.0,1.20456891700087,,,,,,,,,,5.0,3.0,63.0,9.0,338.7624076250013,,,,,,,,,,,,,,,,,338.7557423750004,339.5527747080014,340.3460212080008,340.33817616600027,,,,,,,,,,,,,,,,,,,,,,,,,,,,,,,,,,,340.33996887500143,340.3460212080008,340.3460212080008,341.5550350000012,b,1.0,1.20456891700087,,,,,,sub-178,1,stroop_test,,
,,,,64.0,4.0,5.0,,,,,,,,,,,,,blau,red,r,0.0,r,1.0,1.689175249999607,,,,,,,,,,5.0,4.0,64.0,4.0,341.56257133300096,,,,,,,,,,,,,,,,,341.55529733300136,341.65235095800017,342.4458700410014,342.4377427500003,,,,,,,,,,,,,,,,,,,,,,,,,,,,,,,,,,,342.43978904100004,342.4458700410014,342.4458700410014,344.13888029100053,r,1.0,1.689175249999607,,,,,,sub-178,1,stroop_test,,
,,,,65.0,5.0,5.0,,,,,,,,,,,,,gelb,yellow,g,1.0,g,1.0,1.6718137499992736,,,,,,,,,,5.0,5.0,65.0,10.0,344.1456499579999,,,,,,,,,,,,,,,,,344.13916849999987,344.4862057500013,345.2790651250016,345.2718165410006,,,,,,,,,,,,,,,,,,,,,,,,,,,,,,,,,,,345.2736687080014,345.2790651250016,345.2790651250016,346.9554657500012,g,1.0,1.6718137499992736,,,,,,sub-178,1,stroop_test,,
,,,,66.0,6.0,5.0,,,,,,,,,,,,,gelb,yellow,g,1.0,g,1.0,0.6793494590001501,,,,,,,,,,5.0,6.0,66.0,11.0,346.9623234160008,,,,,,,,,,,,,,,,,346.95574354100063,347.3025867080014,348.0969276249998,348.0879436660016,,,,,,,,,,,,,,,,,,,,,,,,,,,,,,,,,,,348.0882248750004,348.0969276249998,348.0969276249998,348.78309575000094,g,1.0,0.6793494590001501,,,,,,sub-178,1,stroop_test,,
,,,,67.0,7.0,5.0,,,,,,,,,,,,,gelb,red,r,0.0,r,1.0,1.3558138749995123,,,,,,,,,,5.0,7.0,67.0,8.0,348.78885362500114,,,,,,,,,,,,,,,,,348.7833816250004,348.880023791,349.6701453750011,349.66584775000047,,,,,,,,,,,,,,,,,,,,,,,,,,,,,,,,,,,349.6661191660005,349.6701453750011,349.6701453750011,351.03310062499986,r,1.0,1.3558138749995123,,,,,,sub-178,1,stroop_test,,
,,,,68.0,8.0,5.0,,,,,,,,,,,,,rot,blue,b,0.0,b,1.0,1.3126355000003969,,,,,,,,,,5.0,8.0,68.0,2.0,351.03906775,,,,,,,,,,,,,,,,,351.033393791,351.37995333300023,352.17210120800155,352.16593729099986,,,,,,,,,,,,,,,,,,,,,,,,,,,,,,,,,,,352.16778379100106,352.17210120800155,352.17210120800155,353.4889518330001,b,1.0,1.3126355000003969,,,,,,sub-178,1,stroop_test,,
,,,,69.0,9.0,5.0,,,,,,,,,,,,,rot,yellow,g,0.0,g,1.0,1.7850620000008348,,,,,,,,,,5.0,9.0,69.0,3.0,353.4956172910006,,,,,,,,,,,,,,,,,353.48924333300056,353.5856279159998,354.3800235409999,354.3716497910009,,,,,,,,,,,,,,,,,,,,,,,,,,,,,,,,,,,354.371880875,354.3800235409999,354.3800235409999,356.1663606660004,g,1.0,1.7850620000008348,,,,,,sub-178,1,stroop_test,,
,,,,70.0,10.0,5.0,,,,,,,,,,,,,rot,red,r,1.0,r,1.0,0.5397131250010716,,,,,,,,,,5.0,10.0,70.0,1.0,356.1722485410009,,,,,,,,,,,,,,,,,356.1666545830012,356.51336850000007,357.3032323330008,357.29900191600063,,,,,,,,,,,,,,,,,,,,,,,,,,,,,,,,,,,357.29926800000067,357.3032323330008,357.3032323330008,357.8497435830013,r,1.0,0.5397131250010716,,,,,,sub-178,1,stroop_test,,
,,,,71.0,11.0,5.0,,,,,,,,,,,,,blau,yellow,g,0.0,g,1.0,0.5336014580007031,,,,,,,,,,5.0,11.0,71.0,7.0,357.8554698750013,,,,,,,,,,,,,,,,,357.8500262910002,357.9467882080007,358.7383924580008,358.7323574580005,,,,,,,,,,,,,,,,,,,,,,,,,,,,,,,,,,,358.73423108300085,358.7383924580008,358.7383924580008,359.28304766600013,g,1.0,0.5336014580007031,,,,,,sub-178,1,stroop_test,,
,,,,72.0,0.0,6.0,,,,,,,,,,,,,blau,red,r,0.0,r,1.0,0.6795663329994568,,,,,,,,,,6.0,0.0,72.0,4.0,359.28891945800024,,,,,,,,,,,,,,,,,359.28332387500086,360.47993041600057,361.2702389580009,361.2658658330001,,,,,,,,,,,,,,,,,,,,,,,,,,,,,,,,,,,361.2661387500011,361.2702389580009,361.2702389580009,361.9550589580013,r,1.0,0.6795663329994568,,,,,,sub-178,1,stroop_test,,
,,,,73.0,1.0,6.0,,,,,,,,,,,,,gelb,yellow,g,1.0,g,1.0,0.696282083999904,,,,,,,,,,6.0,1.0,73.0,11.0,361.9622982910005,,,,,,,,,,,,,,,,,361.9553366250002,362.7523110410002,363.54562112500025,363.5379804160002,,,,,,,,,,,,,,,,,,,,,,,,,,,,,,,,,,,363.53984325000056,363.54562112500025,363.54562112500025,364.24942895800086,g,1.0,0.696282083999904,,,,,,sub-178,1,stroop_test,,
,,,,74.0,2.0,6.0,,,,,,,,,,,,,blau,yellow,g,0.0,g,1.0,0.5520177500002319,,,,,,,,,,6.0,2.0,74.0,7.0,364.255256208,,,,,,,,,,,,,,,,,364.249689708,364.34651929100073,365.1390824999999,365.13267650000125,,,,,,,,,,,,,,,,,,,,,,,,,,,,,,,,,,,365.134696041001,365.1390824999999,365.1390824999999,365.6996696660008,g,1.0,0.5520177500002319,,,,,,sub-178,1,stroop_test,,
,,,,75.0,3.0,6.0,,,,,,,,,,,,,rot,red,r,1.0,r,1.0,0.754765874999066,,,,,,,,,,6.0,3.0,75.0,1.0,365.70568862500113,,,,,,,,,,,,,,,,,365.6999755410016,366.89658512500137,367.688628625001,367.6824290000004,,,,,,,,,,,,,,,,,,,,,,,,,,,,,,,,,,,367.6842904160003,367.688628625001,367.688628625001,368.4497407910003,r,1.0,0.754765874999066,,,,,,sub-178,1,stroop_test,,
,,,,76.0,4.0,6.0,,,,,,,,,,,,,rot,yellow,g,0.0,g,1.0,1.5809578749995126,,,,,,,,,,6.0,4.0,76.0,3.0,368.4556922500015,,,,,,,,,,,,,,,,,368.450003291,369.6466242080005,370.436807,370.4325189160008,,,,,,,,,,,,,,,,,,,,,,,,,,,,,,,,,,,370.4327895000006,370.436807,370.436807,372.0221033750004,g,1.0,1.5809578749995126,,,,,,sub-178,1,stroop_test,,
,,,,77.0,5.0,6.0,,,,,,,,,,,,,blau,blue,b,1.0,b,1.0,0.5486603749995993,,,,,,,,,,6.0,5.0,77.0,5.0,372.02880804100096,,,,,,,,,,,,,,,,,372.0223710830014,372.36893045800025,373.1623055,373.154586916,,,,,,,,,,,,,,,,,,,,,,,,,,,,,,,,,,,373.156456666,373.1623055,373.1623055,373.7160387910008,b,1.0,0.5486603749995993,,,,,,sub-178,1,stroop_test,,
,,,,78.0,6.0,6.0,,,,,,,,,,,,,gelb,red,r,0.0,r,1.0,1.0071828330001154,,,,,,,,,,6.0,6.0,78.0,8.0,373.7219025000013,,,,,,,,,,,,,,,,,373.716298708001,374.0631425830016,374.854802666001,374.8487625830003,,,,,,,,,,,,,,,,,,,,,,,,,,,,,,,,,,,374.85054995800056,374.854802666001,374.854802666001,375.8662191250005,r,1.0,1.0071828330001154,,,,,,sub-178,1,stroop_test,,
,,,,79.0,7.0,6.0,,,,,,,,,,,,,rot,blue,b,0.0,b,1.0,0.9847157910007808,,,,,,,,,,6.0,7.0,79.0,2.0,375.8722542080013,,,,,,,,,,,,,,,,,375.86650375000136,375.9633985830005,376.75508920799984,376.748863416,,,,,,,,,,,,,,,,,,,,,,,,,,,,,,,,,,,376.75067566600046,376.75508920799984,376.75508920799984,377.7495199580008,b,1.0,0.9847157910007808,,,,,,sub-178,1,stroop_test,,
,,,,80.0,8.0,6.0,,,,,,,,,,,,,gelb,yellow,g,1.0,g,1.0,0.3890758750003442,,,,,,,,,,6.0,8.0,80.0,10.0,377.7548650410008,,,,,,,,,,,,,,,,,377.7497822910009,378.5464393330003,379.3386181250007,379.33244416600064,,,,,,,,,,,,,,,,,,,,,,,,,,,,,,,,,,,379.3343149580014,379.3386181250007,379.3386181250007,379.7324833750008,g,1.0,0.3890758750003442,,,,,,sub-178,1,stroop_test,,
,,,,81.0,9.0,6.0,,,,,,,,,,,,,rot,red,r,1.0,r,1.0,0.5611329999992449,,,,,,,,,,6.0,9.0,81.0,0.0,379.7378841660011,,,,,,,,,,,,,,,,,379.7327341250002,379.830054,380.6217286250012,380.6155075410006,,,,,,,,,,,,,,,,,,,,,,,,,,,,,,,,,,,380.61732229100016,380.6217286250012,380.6217286250012,381.1882238750004,r,1.0,0.5611329999992449,,,,,,sub-178,1,stroop_test,,
,,,,82.0,10.0,6.0,,,,,,,,,,,,,blau,blue,b,1.0,b,1.0,0.6027096670004539,,,,,,,,,,6.0,10.0,82.0,6.0,381.1953651250005,,,,,,,,,,,,,,,,,381.1884807080005,382.3860285830015,383.1790943750002,383.1709210410008,,,,,,,,,,,,,,,,,,,,,,,,,,,,,,,,,,,383.1727687500006,383.1790943750002,383.1790943750002,383.7831325410007,b,1.0,0.6027096670004539,,,,,,sub-178,1,stroop_test,,
,,,,83.0,11.0,6.0,,,,,,,,,,,,,gelb,blue,b,0.0,b,1.0,0.8990288749992033,,,,,,,,,,6.0,11.0,83.0,9.0,383.7889215000014,,,,,,,,,,,,,,,,,383.783395583001,383.8798338329998,384.67187575000025,384.6656637080014,,,,,,,,,,,,,,,,,,,,,,,,,,,,,,,,,,,384.667618458001,384.67187575000025,384.67187575000025,385.5720847500015,b,1.0,0.8990288749992033,,,,,,sub-178,1,stroop_test,,
,,,,84.0,0.0,7.0,,,,,,,,,,,,,gelb,red,r,0.0,r,1.0,1.0260650000000169,,,,,,,,,,7.0,0.0,84.0,8.0,385.57867712500047,,,,,,,,,,,,,,,,,385.5723456659998,386.7689743330011,387.5631488750005,387.5542725410014,,,,,,,,,,,,,,,,,,,,,,,,,,,,,,,,,,,387.5545315830004,387.5631488750005,387.5631488750005,388.5995255830003,r,1.0,1.0260650000000169,,,,,,sub-178,1,stroop_test,,
,,,,85.0,1.0,7.0,,,,,,,,,,,,,gelb,yellow,g,1.0,g,1.0,1.4221531250004773,,,,,,,,,,7.0,1.0,85.0,11.0,388.604897833,,,,,,,,,,,,,,,,,388.5997891660009,389.796522875,390.5865879580015,390.5821635000011,,,,,,,,,,,,,,,,,,,,,,,,,,,,,,,,,,,390.58242775000144,390.5865879580015,390.5865879580015,392.0161630000002,g,1.0,1.4221531250004773,,,,,,sub-178,1,stroop_test,,
,,,,86.0,2.0,7.0,,,,,,,,,,,,,blau,blue,b,1.0,b,1.0,0.5764195840001776,,,,,,,,,,7.0,2.0,86.0,6.0,392.0220992909999,,,,,,,,,,,,,,,,,392.0164499580005,392.8131174580012,393.6052309160005,393.59906716600017,,,,,,,,,,,,,,,,,,,,,,,,,,,,,,,,,,,393.600939291,393.6052309160005,393.6052309160005,394.1828969160015,b,1.0,0.5764195840001776,,,,,,sub-178,1,stroop_test,,
,,,,87.0,3.0,7.0,,,,,,,,,,,,,rot,red,r,1.0,r,1.0,0.5660873340002581,,,,,,,,,,7.0,3.0,87.0,0.0,394.1888082080004,,,,,,,,,,,,,,,,,394.18319479100137,394.5299235000002,395.321901958001,395.3154062080012,,,,,,,,,,,,,,,,,,,,,,,,,,,,,,,,,,,395.31759050000073,395.321901958001,395.321901958001,395.8994871250016,r,1.0,0.5660873340002581,,,,,,sub-178,1,stroop_test,,
,,,,88.0,4.0,7.0,,,,,,,,,,,,,blau,yellow,g,0.0,g,1.0,0.7535620420003397,,,,,,,,,,7.0,4.0,88.0,7.0,395.9053302910015,,,,,,,,,,,,,,,,,395.8997534999999,396.6963824579998,397.4884669160001,397.4821445409998,,,,,,,,,,,,,,,,,,,,,,,,,,,,,,,,,,,397.4841855000013,397.4884669160001,397.4884669160001,398.2494097079998,g,1.0,0.7535620420003397,,,,,,sub-178,1,stroop_test,,
,,,,89.0,5.0,7.0,,,,,,,,,,,,,gelb,yellow,g,1.0,g,1.0,0.5777083329994639,,,,,,,,,,7.0,5.0,89.0,10.0,398.2553282500012,,,,,,,,,,,,,,,,,398.2496922500013,398.3462791250004,399.13821420800014,399.1322764160013,,,,,,,,,,,,,,,,,,,,,,,,,,,,,,,,,,,399.1340476660007,399.13821420800014,399.13821420800014,399.7214923749998,g,1.0,0.5777083329994639,,,,,,sub-178,1,stroop_test,,
,,,,90.0,6.0,7.0,,,,,,,,,,,,,rot,blue,b,0.0,b,1.0,2.0361464159996103,,,,,,,,,,7.0,6.0,90.0,2.0,399.7287241660015,,,,,,,,,,,,,,,,,399.721748291,400.91878316600014,401.7120868330003,401.704391583,,,,,,,,,,,,,,,,,,,,,,,,,,,,,,,,,,,401.7062425410004,401.7120868330003,401.7120868330003,403.7494067910011,b,1.0,2.0361464159996103,,,,,,sub-178,1,stroop_test,,
,,,,91.0,7.0,7.0,,,,,,,,,,,,,rot,yellow,g,0.0,g,1.0,1.9841492909999945,,,,,,,,,,7.0,7.0,91.0,3.0,403.754671916,,,,,,,,,,,,,,,,,403.7496823750007,404.9463905829998,405.7364522080006,405.7322055000004,,,,,,,,,,,,,,,,,,,,,,,,,,,,,,,,,,,405.7324448330001,405.7364522080006,405.7364522080006,407.7218554160008,g,1.0,1.9841492909999945,,,,,,sub-178,1,stroop_test,,
,,,,92.0,8.0,7.0,,,,,,,,,,,,,gelb,blue,b,0.0,b,1.0,2.240681000001132,,,,,,,,,,7.0,8.0,92.0,9.0,407.72853004100034,,,,,,,,,,,,,,,,,407.7221490000011,408.0692715410005,408.8618593330011,408.8543077080012,,,,,,,,,,,,,,,,,,,,,,,,,,,,,,,,,,,408.8563626660016,408.8618593330011,408.8618593330011,411.1050731250016,b,1.0,2.240681000001132,,,,,,sub-178,1,stroop_test,,
,,,,93.0,9.0,7.0,,,,,,,,,,,,,blau,blue,b,1.0,b,1.0,0.7250702499986801,,,,,,,,,,7.0,9.0,93.0,5.0,411.1118758330013,,,,,,,,,,,,,,,,,411.10536079099984,411.4518432910008,412.24551212500046,412.2377203330016,,,,,,,,,,,,,,,,,,,,,,,,,,,,,,,,,,,412.2394111250014,412.24551212500046,412.24551212500046,412.9717335000005,b,1.0,0.7250702499986801,,,,,,sub-178,1,stroop_test,,
,,,,94.0,10.0,7.0,,,,,,,,,,,,,rot,red,r,1.0,r,1.0,1.057304040999952,,,,,,,,,,7.0,10.0,94.0,1.0,412.9785378329998,,,,,,,,,,,,,,,,,412.9720000000016,413.7688440000002,414.5622355410014,414.554014333,,,,,,,,,,,,,,,,,,,,,,,,,,,,,,,,,,,414.5558029160002,414.5622355410014,414.5622355410014,415.6216414160008,r,1.0,1.057304040999952,,,,,,sub-178,1,stroop_test,,
,,,,95.0,11.0,7.0,,,,,,,,,,,,,blau,red,r,0.0,r,1.0,0.5638368330000958,,,,,,,,,,7.0,11.0,95.0,4.0,415.6287239580015,,,,,,,,,,,,,,,,,415.6219154580013,415.96913462500015,416.7620162500007,416.7541495410005,,,,,,,,,,,,,,,,,,,,,,,,,,,,,,,,,,,416.75601220800127,416.7620162500007,416.7620162500007,417.33265250000113,r,1.0,0.5638368330000958,,,,,,sub-178,1,stroop_test,,
,,,,96.0,0.0,8.0,,,,,,,,,,,,,rot,blue,b,0.0,b,1.0,0.7929138749987032,,,,,,,,,,8.0,0.0,96.0,2.0,417.33807587500087,,,,,,,,,,,,,,,,,417.3329197910007,417.6795938330015,418.4717272080016,418.4654019999998,,,,,,,,,,,,,,,,,,,,,,,,,,,,,,,,,,,418.4672410830008,418.4717272080016,418.4717272080016,419.26619175000087,b,1.0,0.7929138749987032,,,,,,sub-178,1,stroop_test,,
,,,,97.0,1.0,8.0,,,,,,,,,,,,,blau,red,r,0.0,r,1.0,2.9453892089986766,,,,,,,,,,8.0,1.0,97.0,4.0,419.2720444580009,,,,,,,,,,,,,,,,,419.2664719580007,420.0630182910008,420.8548962500008,420.8487291250003,,,,,,,,,,,,,,,,,,,,,,,,,,,,,,,,,,,420.8505872080004,420.8548962500008,420.8548962500008,423.8050216250013,r,1.0,2.9453892089986766,,,,,,sub-178,1,stroop_test,,
,,,,98.0,2.0,8.0,,,,,,,,,,,,,blau,yellow,g,0.0,g,1.0,0.8220119580000755,,,,,,,,,,8.0,2.0,98.0,7.0,423.8117981250016,,,,,,,,,,,,,,,,,423.8053340000006,423.9021027079998,424.6964265410006,424.68741654100086,,,,,,,,,,,,,,,,,,,,,,,,,,,,,,,,,,,424.6876829580015,424.6964265410006,424.6964265410006,425.5219128330009,g,1.0,0.8220119580000755,,,,,,sub-178,1,stroop_test,,
,,,,99.0,3.0,8.0,,,,,,,,,,,,,blau,blue,b,1.0,b,1.0,0.5749185419990681,,,,,,,,,,8.0,3.0,99.0,5.0,425.5284400000001,,,,,,,,,,,,,,,,,425.5221853750008,426.3191887910016,427.1127297910007,427.1043011250004,,,,,,,,,,,,,,,,,,,,,,,,,,,,,,,,,,,427.1045629159999,427.1127297910007,427.1127297910007,427.6974886250009,b,1.0,0.5749185419990681,,,,,,sub-178,1,stroop_test,,
,,,,100.0,4.0,8.0,,,,,,,,,,,,,gelb,yellow,g,1.0,g,1.0,0.8762968330011063,,,,,,,,,,8.0,4.0,100.0,11.0,427.70118541600095,,,,,,,,,,,,,,,,,427.6977595410008,427.7964588330015,428.58821533300033,428.5818814160011,,,,,,,,,,,,,,,,,,,,,,,,,,,,,,,,,,,428.5839302080003,428.58821533300033,428.58821533300033,429.4660566660005,g,1.0,0.8762968330011063,,,,,,sub-178,1,stroop_test,,
,,,,101.0,5.0,8.0,,,,,,,,,,,,,gelb,red,r,0.0,r,1.0,0.5969209169998066,,,,,,,,,,8.0,5.0,101.0,8.0,429.4718434160004,,,,,,,,,,,,,,,,,429.4663072500007,430.2629914160007,431.0526442500013,431.04842245800137,,,,,,,,,,,,,,,,,,,,,,,,,,,,,,,,,,,431.04867083300087,431.0526442500013,431.0526442500013,431.6549440830004,r,1.0,0.5969209169998066,,,,,,sub-178,1,stroop_test,,
,,,,102.0,6.0,8.0,,,,,,,,,,,,,gelb,blue,b,0.0,b,1.0,0.8726595419993828,,,,,,,,,,8.0,6.0,102.0,9.0,431.66171745800057,,,,,,,,,,,,,,,,,431.6552071660008,432.4518810410009,433.2462002500015,433.237446041001,,,,,,,,,,,,,,,,,,,,,,,,,,,,,,,,,,,433.2377206660003,433.2462002500015,433.2462002500015,434.1215201660016,b,1.0,0.8726595419993828,,,,,,sub-178,1,stroop_test,,
,,,,103.0,7.0,8.0,,,,,,,,,,,,,blau,blue,b,1.0,b,1.0,0.5892220829991857,,,,,,,,,,8.0,7.0,103.0,6.0,434.1283190000013,,,,,,,,,,,,,,,,,434.1218088330006,435.3184742909998,436.1117541250005,436.1041359160008,,,,,,,,,,,,,,,,,,,,,,,,,,,,,,,,,,,436.1062072500008,436.1117541250005,436.1117541250005,436.7049838750008,b,1.0,0.5892220829991857,,,,,,sub-178,1,stroop_test,,
,,,,104.0,8.0,8.0,,,,,,,,,,,,,gelb,yellow,g,1.0,g,1.0,2.130182833001527,,,,,,,,,,8.0,8.0,104.0,10.0,436.711695041,,,,,,,,,,,,,,,,,436.7052508750003,436.8019775829998,437.595027333,437.5872751250008,,,,,,,,,,,,,,,,,,,,,,,,,,,,,,,,,,,437.58935429099984,437.595027333,437.595027333,439.732654458001,g,1.0,2.130182833001527,,,,,,sub-178,1,stroop_test,,
,,,,105.0,9.0,8.0,,,,,,,,,,,,,rot,red,r,1.0,r,1.0,0.8427969590011344,,,,,,,,,,8.0,9.0,105.0,1.0,439.7384667080005,,,,,,,,,,,,,,,,,439.7329195000002,440.5296161660008,441.3213467500009,441.315030791,,,,,,,,,,,,,,,,,,,,,,,,,,,,,,,,,,,441.3170419160015,441.3213467500009,441.3213467500009,442.1657208329998,r,1.0,0.8427969590011344,,,,,,sub-178,1,stroop_test,,
,,,,106.0,10.0,8.0,,,,,,,,,,,,,rot,yellow,g,0.0,g,1.0,1.2138181250011255,,,,,,,,,,8.0,10.0,106.0,3.0,442.1717362079999,,,,,,,,,,,,,,,,,442.1660113329999,442.9628270829999,443.752880375001,443.74852104100137,,,,,,,,,,,,,,,,,,,,,,,,,,,,,,,,,,,443.7487949160004,443.752880375001,443.752880375001,444.9716511660008,g,1.0,1.2138181250011255,,,,,,sub-178,1,stroop_test,,
,,,,107.0,11.0,8.0,,,,,,,,,,,,,rot,red,r,1.0,r,1.0,0.7679915410008107,,,,,,,,,,8.0,11.0,107.0,0.0,444.97831195800063,,,,,,,,,,,,,,,,,444.971920041,445.0686275410008,445.8629725830015,445.8539243750001,,,,,,,,,,,,,,,,,,,,,,,,,,,,,,,,,,,445.8542038330015,445.8629725830015,445.8629725830015,446.6326166250001,r,1.0,0.7679915410008107,,,,,,sub-178,1,stroop_test,,
,,,,108.0,0.0,9.0,,,,,,,,,,,,,rot,yellow,g,0.0,g,1.0,0.5010882500009757,,,,,,,,,,9.0,0.0,108.0,3.0,446.6387940410005,,,,,,,,,,,,,,,,,446.63291266600027,446.9794005410004,447.76947395800016,447.76522754100006,,,,,,,,,,,,,,,,,,,,,,,,,,,,,,,,,,,447.7654362500016,447.76947395800016,447.76947395800016,448.2716197910013,g,1.0,0.5010882500009757,,,,,,sub-178,1,stroop_test,,
,,,,109.0,1.0,9.0,,,,,,,,,,,,,gelb,yellow,g,1.0,g,1.0,0.7216218749999825,,,,,,,,,,9.0,1.0,109.0,11.0,448.2783015410005,,,,,,,,,,,,,,,,,448.2718807910005,449.467617458,450.26171887500095,450.253922625001,,,,,,,,,,,,,,,,,,,,,,,,,,,,,,,,,,,450.2557744160004,450.26171887500095,450.26171887500095,450.9882940830012,g,1.0,0.7216218749999825,,,,,,sub-178,1,stroop_test,,
,,,,110.0,2.0,9.0,,,,,,,,,,,,,gelb,blue,b,0.0,b,1.0,0.7225243749999208,,,,,,,,,,9.0,2.0,110.0,9.0,450.9949486250007,,,,,,,,,,,,,,,,,450.9885529160001,451.08506020800087,451.87934058300016,451.8708500000012,,,,,,,,,,,,,,,,,,,,,,,,,,,,,,,,,,,451.8711206250009,451.87934058300016,451.87934058300016,452.6047177500004,b,1.0,0.7225243749999208,,,,,,sub-178,1,stroop_test,,
,,,,111.0,3.0,9.0,,,,,,,,,,,,,blau,red,r,0.0,r,1.0,1.5696563749988854,,,,,,,,,,9.0,3.0,111.0,4.0,452.6115765000013,,,,,,,,,,,,,,,,,452.6049840000014,453.4017221660015,454.1948997079999,454.1871100000008,,,,,,,,,,,,,,,,,,,,,,,,,,,,,,,,,,,454.1891849580006,454.1948997079999,454.1948997079999,455.76581825,r,1.0,1.5696563749988854,,,,,,sub-178,1,stroop_test,,
,,,,112.0,4.0,9.0,,,,,,,,,,,,,rot,red,r,1.0,r,1.0,0.6425810000000638,,,,,,,,,,9.0,4.0,112.0,1.0,455.771727333,,,,,,,,,,,,,,,,,455.7660966660005,456.5627087080011,457.3545830830008,457.3483236250013,,,,,,,,,,,,,,,,,,,,,,,,,,,,,,,,,,,457.3501821660011,457.3545830830008,457.3545830830008,457.9990307500011,r,1.0,0.6425810000000638,,,,,,sub-178,1,stroop_test,,
,,,,113.0,5.0,9.0,,,,,,,,,,,,,gelb,red,r,0.0,r,1.0,1.036298375000115,,,,,,,,,,9.0,5.0,113.0,8.0,458.0050368749999,,,,,,,,,,,,,,,,,457.9993215410013,459.1959368330008,459.9876593330009,459.9815675410009,,,,,,,,,,,,,,,,,,,,,,,,,,,,,,,,,,,459.9833971250009,459.9876593330009,459.9876593330009,461.0322399160013,r,1.0,1.036298375000115,,,,,,sub-178,1,stroop_test,,
,,,,114.0,6.0,9.0,,,,,,,,,,,,,blau,blue,b,1.0,b,1.0,0.8991378339997027,,,,,,,,,,9.0,6.0,114.0,5.0,461.0382505409998,,,,,,,,,,,,,,,,,461.0325255000007,461.8294625409999,462.6212162500015,462.61503925000034,,,,,,,,,,,,,,,,,,,,,,,,,,,,,,,,,,,462.6169199579999,462.6212162500015,462.6212162500015,463.5215347080011,b,1.0,0.8991378339997027,,,,,,sub-178,1,stroop_test,,
,,,,115.0,7.0,9.0,,,,,,,,,,,,,gelb,yellow,g,1.0,g,1.0,0.7970299999997223,,,,,,,,,,9.0,7.0,115.0,10.0,463.5281373750004,,,,,,,,,,,,,,,,,463.5218024580008,464.31846595800016,465.1115602910013,465.103940125,,,,,,,,,,,,,,,,,,,,,,,,,,,,,,,,,,,465.10582225000144,465.1115602910013,465.1115602910013,465.9156222500005,g,1.0,0.7970299999997223,,,,,,sub-178,1,stroop_test,,
,,,,116.0,8.0,9.0,,,,,,,,,,,,,rot,blue,b,0.0,b,1.0,1.514978125000198,,,,,,,,,,9.0,8.0,116.0,2.0,465.9214695830015,,,,,,,,,,,,,,,,,465.9158920830014,467.1124340410006,467.9050728750008,467.8984798750007,,,,,,,,,,,,,,,,,,,,,,,,,,,,,,,,,,,467.9006764580008,467.9050728750008,467.9050728750008,469.4221394160013,b,1.0,1.514978125000198,,,,,,sub-178,1,stroop_test,,
,,,,117.0,9.0,9.0,,,,,,,,,,,,,blau,blue,b,1.0,b,1.0,0.4933752910001203,,,,,,,,,,9.0,9.0,117.0,6.0,469.4282317080015,,,,,,,,,,,,,,,,,469.4224114580011,470.61857654100095,471.4114544160002,471.4040227080004,,,,,,,,,,,,,,,,,,,,,,,,,,,,,,,,,,,471.4058234160002,471.4114544160002,471.4114544160002,471.9155933330003,b,1.0,0.4933752910001203,,,,,,sub-178,1,stroop_test,,
,,,,118.0,10.0,9.0,,,,,,,,,,,,,blau,yellow,g,0.0,g,1.0,0.8661731669999426,,,,,,,,,,9.0,10.0,118.0,7.0,471.9215424160011,,,,,,,,,,,,,,,,,471.91587320800136,473.11240729100064,473.9024469579999,473.898167583,,,,,,,,,,,,,,,,,,,,,,,,,,,,,,,,,,,473.8984282500005,473.9024469579999,473.9024469579999,474.771694250001,g,1.0,0.8661731669999426,,,,,,sub-178,1,stroop_test,,
,,,,119.0,11.0,9.0,,,,,,,,,,,,,rot,red,r,1.0,r,1.0,0.6581832089996169,,,,,,,,,,9.0,11.0,119.0,0.0,474.7780855000001,,,,,,,,,,,,,,,,,474.77199112500057,474.86840183300046,475.66142716600007,475.65375525000127,,,,,,,,,,,,,,,,,,,,,,,,,,,,,,,,,,,475.65562616600073,475.66142716600007,475.66142716600007,476.320658875,r,1.0,0.6581832089996169,,,,,,sub-178,1,stroop_test,,
,,,,,,,,,,,,,,,,,,,,,,,,,,,,,,,,,,,,,,,,,,,,,,,,,,,,,,,,,,,,,,,,,,,,,,,,,,,,,,,,,,,,,,,,,,,,,,,,,,,,,,476.320784083,476.3287194160002,481.3183211659998,481.3151715000004,sub-178,1,stroop_test,,
