wordCTK,colorCTK,corrAnsCTK,congruentCTK,thisN,thisTrialN,thisRepN,keyResp_CTK.keys,keyResp_CTK.corr,keyResp_CTK.rt,keyResp_CTK.duration,wordPractice,colorPractice,corrAnsPractice,congruentPractice,respPractice.keys,respPractice.corr,respPractice.rt,respPractice.duration,word,color,corrAns,congruent,keyResp_test_run.keys,keyResp_test_run.corr,keyResp_test_run.rt,keyResp_test_run.duration,trials_CTK.thisRepN,trials_CTK.thisTrialN,trials_CTK.thisN,trials_CTK.thisIndex,trials_practice.thisRepN,trials_practice.thisTrialN,trials_practice.thisN,trials_practice.thisIndex,trials_test.thisRepN,trials_test.thisTrialN,trials_test.thisN,trials_test.thisIndex,thisRow.t,notes,instruction.started,instr_text.started,instr_image.started,instr_resp.started,instruction.stopped,instr_resp.keys,instr_resp.rt,instr_resp.duration,instr_color_to_key.started,instr_ctk.started,resp_ctk.started,instr_color_to_key.stopped,resp_ctk.keys,resp_ctk.rt,resp_ctk.duration,ITI.started,fixcross.started,fixcross.stopped,ITI.stopped,color_to_key_run.started,stimulus_CTK.started,keyResp_CTK.started,color_to_key_run.stopped,trials_CTK.keyResp_CTK.keys,trials_CTK.keyResp_CTK.corr,trials_CTK.keyResp_CTK.rt,trials_CTK.keyResp_CTK.duration,instr_practice.started,instr_practice_text.started,instr_practice_resp.started,instr_practice.stopped,instr_practice_resp.keys,instr_practice_resp.rt,instr_practice_resp.duration,practice_run.started,stimulus_practice.started,respPractice.started,practice_run.stopped,trials_practice.respPractice.keys,trials_practice.respPractice.corr,trials_practice.respPractice.rt,trials_practice.respPractice.duration,feedback.started,textFeedback.started,feedback.stopped,textFeedback.stopped,instr_test.started,instr_test_text.started,instr_test_resp.started,instr_test.stopped,instr_test_resp.keys,instr_test_resp.rt,instr_test_resp.duration,test_run.started,stimulus_test_run.started,keyResp_test_run.started,test_run.stopped,trials_test.keyResp_test_run.keys,trials_test.keyResp_test_run.corr,trials_test.keyResp_test_run.rt,trials_test.keyResp_test_run.duration,goodbye.started,textGoodbye.started,textGoodbye.stopped,goodbye.stopped,participant,session,expName,frameRate,Unnamed: 113
,,,,,,,,,,,,,,,,,,,,,,,,,,,,,,,,,,,,,,,,,0.0025600000008125,0.0407792000005429,0.0407792000005429,0.0407792000005429,29.459713600001123,space,29.408068400000047,,,,,,,,,,,,,,,,,,,,,,,,,,,,,,,,,,,,,,,,,,,,,,,,,,,,,,,,,,,sub-086,1,stroop_test,60.02001067173808,
,,,,,,,,,,,,,,,,,,,,,,,,,,,,,,,,,,,,,,,,,,,,,,,,,29.459877200000847,29.46960960000069,29.46960960000069,32.699189599999954,space,3.216387599999507,,,,,,,,,,,,,,,,,,,,,,,,,,,,,,,,,,,,,,,,,,,,,,,,,,,,sub-086,1,stroop_test,60.02001067173808,
test,red,r,1.0,0.0,0.0,0.0,r,1.0,1.0912617000012688,,,,,,,,,,,,,,,,,,0.0,0.0,0.0,0.0,,,,,,,,,32.7264879000013,,,,,,,,,,,,,,,,,32.72299420000127,32.8146269000008,33.61411220000082,33.59778570000162,33.603311900000335,33.61411220000082,33.61411220000082,34.715535600000294,r,1.0,1.0912617000012688,,,,,,,,,,,,,,,,,,,,,,,,,,,,,,,,,,,,,,,,sub-086,1,stroop_test,60.02001067173808,
test,yellow,g,1.0,1.0,1.0,0.0,b,0.0,1.1534867999998824,,,,,,,,,,,,,,,,,,0.0,1.0,1.0,1.0,,,,,,,,,34.731084900000496,,,,,,,,,,,,,,,,,34.716529600000285,35.08112919999985,35.88067320000118,35.86469639999996,35.86658090000128,35.88067320000118,35.88067320000118,37.04842800000006,b,0.0,1.1534867999998824,,,,,,,,,,,,,,,,,,,,,,,,,,,,,,,,,,,,,,,,sub-086,1,stroop_test,60.02001067173808,
test,blue,b,1.0,2.0,2.0,0.0,b,1.0,1.5498826000002737,,,,,,,,,,,,,,,,,,0.0,2.0,2.0,2.0,,,,,,,,,37.063865400001305,,,,,,,,,,,,,,,,,37.04929980000088,37.864001500000086,38.66401770000084,38.64801600000101,38.64949920000072,38.66401770000084,38.66401770000084,40.23124920000009,b,1.0,1.5498826000002737,,,,,,,,,,,,,,,,,,,,,,,,,,,,,,,,,,,,,,,,sub-086,1,stroop_test,60.02001067173808,
test,blue,b,1.0,3.0,0.0,1.0,b,1.0,1.1549142000003485,,,,,,,,,,,,,,,,,,1.0,0.0,3.0,2.0,,,,,,,,,40.24705570000151,,,,,,,,,,,,,,,,,40.2321361000013,41.44613470000149,42.24592860000121,42.22943590000068,42.22976220000055,42.24592860000121,42.24592860000121,43.41429260000041,b,1.0,1.1549142000003485,,,,,,,,,,,,,,,,,,,,,,,,,,,,,,,,,,,,,,,,sub-086,1,stroop_test,60.02001067173808,
test,yellow,g,1.0,4.0,1.0,1.0,g,1.0,1.4457531999996718,,,,,,,,,,,,,,,,,,1.0,1.0,4.0,1.0,,,,,,,,,43.42949880000015,,,,,,,,,,,,,,,,,43.41532090000146,44.62898150000001,45.42955830000028,45.41381560000082,45.41529990000163,45.42955830000028,45.42955830000028,46.880205200001,g,1.0,1.4457531999996718,,,,,,,,,,,,,,,,,,,,,,,,,,,,,,,,,,,,,,,,sub-086,1,stroop_test,60.02001067173808,
test,red,r,1.0,5.0,2.0,1.0,r,1.0,0.9609314000008452,,,,,,,,,,,,,,,,,,1.0,2.0,5.0,0.0,,,,,,,,,46.89622750000126,,,,,,,,,,,,,,,,,46.88104310000017,47.69586040000104,48.49597930000164,48.479714400000375,48.48091510000086,48.49597930000164,48.49597930000164,49.46323630000006,r,1.0,0.9609314000008452,,,,,,,,,,,,,,,,,,,,,,,,,,,,,,,,,,,,,,,,sub-086,1,stroop_test,60.02001067173808,
test,yellow,g,1.0,6.0,0.0,2.0,g,1.0,2.264707399999679,,,,,,,,,,,,,,,,,,2.0,0.0,6.0,1.0,,,,,,,,,49.47904710000148,,,,,,,,,,,,,,,,,49.4640253000016,50.66249490000155,51.462337100001605,51.44637110000076,51.44791990000158,51.462337100001605,51.462337100001605,53.72952400000031,g,1.0,2.264707399999679,,,,,,,,,,,,,,,,,,,,,,,,,,,,,,,,,,,,,,,,sub-086,1,stroop_test,60.02001067173808,
test,blue,b,1.0,7.0,1.0,2.0,b,1.0,1.3706122999992658,,,,,,,,,,,,,,,,,,2.0,1.0,7.0,2.0,,,,,,,,,53.74523190000036,,,,,,,,,,,,,,,,,53.730400100001134,54.94416730000012,55.74409000000014,55.72805950000111,55.72947580000073,55.74409000000014,55.74409000000014,57.128304100000605,b,1.0,1.3706122999992658,,,,,,,,,,,,,,,,,,,,,,,,,,,,,,,,,,,,,,,,sub-086,1,stroop_test,60.02001067173808,
test,red,r,1.0,8.0,2.0,2.0,r,1.0,0.7879738000010548,,,,,,,,,,,,,,,,,,2.0,2.0,8.0,0.0,,,,,,,,,57.14383690000068,,,,,,,,,,,,,,,,,57.129229100000885,57.94385479999983,58.74385000000075,58.72772260000056,58.72908760000064,58.74385000000075,58.74385000000075,59.54490350000015,r,1.0,0.7879738000010548,,,,,,,,,,,,,,,,,,,,,,,,,,,,,,,,,,,,,,,,sub-086,1,stroop_test,60.02001067173808,
test,blue,b,1.0,9.0,0.0,3.0,b,1.0,1.2910596000001533,,,,,,,,,,,,,,,,,,3.0,0.0,9.0,2.0,,,,,,,,,59.56045480000103,,,,,,,,,,,,,,,,,59.54579670000021,60.36063930000091,61.16049980000025,61.14428709999993,61.14550800000143,61.16049980000025,61.16049980000025,62.461748499999885,b,1.0,1.2910596000001533,,,,,,,,,,,,,,,,,,,,,,,,,,,,,,,,,,,,,,,,sub-086,1,stroop_test,60.02001067173808,
test,red,r,1.0,10.0,1.0,3.0,r,1.0,0.9485370000002148,,,,,,,,,,,,,,,,,,3.0,1.0,10.0,0.0,,,,,,,,,62.477393799999845,,,,,,,,,,,,,,,,,62.46264020000126,63.27752220000002,64.07742320000034,64.06151970000064,64.06295630000022,64.07742320000034,64.07742320000034,65.02823440000066,r,1.0,0.9485370000002148,,,,,,,,,,,,,,,,,,,,,,,,,,,,,,,,,,,,,,,,sub-086,1,stroop_test,60.02001067173808,
test,yellow,g,1.0,11.0,2.0,3.0,g,1.0,0.7705206999999064,,,,,,,,,,,,,,,,,,3.0,2.0,11.0,1.0,,,,,,,,,65.0439105000005,,,,,,,,,,,,,,,,,65.02912130000004,65.39388210000106,66.1937811000007,66.17781330000071,66.17924560000029,66.1937811000007,66.1937811000007,66.9779892000006,g,1.0,0.7705206999999064,,,,,,,,,,,,,,,,,,,,,,,,,,,,,,,,,,,,,,,,sub-086,1,stroop_test,60.02001067173808,
,,,,,,,,,,,,,,,,,,,,,,,,,,,,,,,,,,,,,,,,,,,,,,,,,,,,,,,,,,,,,,,,,,,,66.97839680000106,66.9938856000008,66.9938856000008,68.97783140000138,space,1.9741642999997568,,,,,,,,,,,,,,,,,,,,,,,,,,,,,,,,,sub-086,1,stroop_test,60.02001067173808,
,,,,0.0,0.0,0.0,,,,,blau,yellow,g,0.0,g,1.0,1.4255539999994653,,,,,,,,,,,,,,0.0,0.0,0.0,7.0,,,,,69.00438290000056,,,,,,,,,,,,,,,,,69.00062910000088,69.09342360000119,69.90354579999985,69.87711000000127,,,,,,,,,,,,,,,,69.89625040000101,69.90354579999985,69.90354579999985,71.34271550000085,g,1.0,1.4255539999994653,,71.35173759999998,71.35885420000159,72.34338380000008,,,,,,,,,,,,,,,,,,,,,sub-086,1,stroop_test,60.02001067173808,
,,,,1.0,1.0,0.0,,,,,gelb,yellow,g,1.0,g,1.0,0.8484217999994144,,,,,,,,,,,,,,0.0,1.0,1.0,10.0,,,,,72.35968560000038,,,,,,,,,,,,,,,,,72.34431170000062,73.1427676000003,73.9421026,73.92589070000031,,,,,,,,,,,,,,,,73.93182119999983,73.9421026,73.9421026,74.7921495999999,g,1.0,0.8484217999994144,,74.79248499999994,74.80838120000044,75.79219230000126,75.8086714000001,,,,,,,,,,,,,,,,,,,,sub-086,1,stroop_test,60.02001067173808,
,,,,2.0,2.0,0.0,,,,,rot,blue,b,0.0,b,1.0,2.1715229000001277,,,,,,,,,,,,,,0.0,2.0,2.0,2.0,,,,,75.8086714000001,,,,,,,,,,,,,,,,,75.79250000000138,76.59245770000052,77.39155490000121,77.37534440000127,,,,,,,,,,,,,,,,77.38345290000143,77.39155490000121,77.39155490000121,79.57628360000126,b,1.0,2.1715229000001277,,79.57782870000119,79.59215040000163,80.57604480000009,80.59130230000119,,,,,,,,,,,,,,,,,,,,sub-086,1,stroop_test,60.02001067173808,
,,,,3.0,3.0,0.0,,,,,rot,yellow,g,0.0,g,1.0,0.9952071999996406,,,,,,,,,,,,,,0.0,3.0,3.0,3.0,,,,,80.59130230000119,,,,,,,,,,,,,,,,,80.57711740000013,80.69186919999993,81.4918662,81.47585190000063,,,,,,,,,,,,,,,,81.47732610000094,81.4918662,81.4918662,82.49257840000064,g,1.0,0.9952071999996406,,82.4940725000015,82.50846319999982,83.49205950000032,83.50817000000097,,,,,,,,,,,,,,,,,,,,sub-086,1,stroop_test,60.02001067173808,
,,,,4.0,4.0,0.0,,,,,blau,blue,b,1.0,b,1.0,1.0685638000013569,,,,,,,,,,,,,,0.0,4.0,4.0,5.0,,,,,83.50817000000097,,,,,,,,,,,,,,,,,83.49296210000102,84.70787270000073,85.50774450000063,85.49202090000108,,,,,,,,,,,,,,,,85.50110720000157,85.50774450000063,85.50774450000063,86.59194879999995,b,1.0,1.0685638000013569,,86.59347080000043,86.60774930000116,87.59135580000111,87.60758239999996,,,,,,,,,,,,,,,,,,,,sub-086,1,stroop_test,60.02001067173808,
,,,,5.0,5.0,0.0,,,,,gelb,red,r,0.0,r,1.0,0.8876316000005318,,,,,,,,,,,,,,0.0,5.0,5.0,8.0,,,,,87.60758239999996,,,,,,,,,,,,,,,,,87.59218690000125,87.7077233,88.50754340000094,88.49142230000143,,,,,,,,,,,,,,,,88.50026489999982,88.50754340000094,88.50754340000094,89.40849640000124,r,1.0,0.8876316000005318,,89.41005420000147,89.42406360000132,90.40810620000047,90.42401130000144,,,,,,,,,,,,,,,,,,,,sub-086,1,stroop_test,60.02001067173808,
,,,,6.0,6.0,0.0,,,,,gelb,yellow,g,1.0,b,0.0,0.7424566999998206,,,,,,,,,,,,,,0.0,6.0,6.0,11.0,,,,,90.42401130000144,,,,,,,,,,,,,,,,,90.4089795,91.22396020000087,92.02358810000078,92.0078263000014,,,,,,,,,,,,,,,,92.0093882000001,92.02358810000078,92.02358810000078,92.77467340000112,b,0.0,0.7424566999998206,,92.7877722000012,92.79462220000096,93.79051840000102,,,,,,,,,,,,,,,,,,,,,sub-086,1,stroop_test,60.02001067173808,
,,,,7.0,7.0,0.0,,,,,gelb,blue,b,0.0,b,1.0,1.7474251999992705,,,,,,,,,,,,,,0.0,7.0,7.0,9.0,,,,,93.80679090000012,,,,,,,,,,,,,,,,,93.79142370000044,94.5899227000009,95.3900990000002,95.37407119999988,,,,,,,,,,,,,,,,95.37547240000094,95.3900990000002,95.3900990000002,97.1402031000016,b,1.0,1.7474251999992705,,97.15050680000058,97.15906490000089,98.15674620000028,,,,,,,,,,,,,,,,,,,,,sub-086,1,stroop_test,60.02001067173808,
,,,,8.0,8.0,0.0,,,,,blau,red,r,0.0,r,1.0,1.2310304999991786,,,,,,,,,,,,,,0.0,8.0,8.0,4.0,,,,,98.17268070000137,,,,,,,,,,,,,,,,,98.15763640000114,99.3394242000013,100.1393480000006,100.12346140000044,,,,,,,,,,,,,,,,100.13360240000112,100.1393480000006,100.1393480000006,101.373326500001,r,1.0,1.2310304999991786,,101.37481240000125,101.38892790000136,102.37313540000105,102.38913880000108,,,,,,,,,,,,,,,,,,,,sub-086,1,stroop_test,60.02001067173808,
,,,,9.0,9.0,0.0,,,,,rot,red,r,1.0,r,1.0,1.101726700000654,,,,,,,,,,,,,,0.0,9.0,9.0,1.0,,,,,102.38913880000108,,,,,,,,,,,,,,,,,102.37402400000065,103.57237390000046,104.37148020000132,104.35504430000036,,,,,,,,,,,,,,,,104.35847100000136,104.37148020000132,104.37148020000132,105.48992580000048,r,1.0,1.101726700000654,,105.49149260000011,105.50553310000032,106.48917980000078,106.5051125000009,,,,,,,,,,,,,,,,,,,,sub-086,1,stroop_test,60.02001067173808,
,,,,10.0,10.0,0.0,,,,,blau,blue,b,1.0,b,1.0,2.3765395999998877,,,,,,,,,,,,,,0.0,10.0,10.0,6.0,,,,,106.5051125000009,,,,,,,,,,,,,,,,,106.48994720000157,107.30421940000087,108.10421670000142,108.08766340000147,,,,,,,,,,,,,,,,108.08994260000144,108.10421670000142,108.10421670000142,110.48761970000125,b,1.0,2.3765395999998877,,110.4881605999999,110.50395190000016,111.48847080000088,,,,,,,,,,,,,,,,,,,,,sub-086,1,stroop_test,60.02001067173808,
,,,,11.0,11.0,0.0,,,,,rot,red,r,1.0,r,1.0,1.274772500000836,,,,,,,,,,,,,,0.0,11.0,11.0,0.0,,,,,111.50469590000102,,,,,,,,,,,,,,,,,111.48937070000102,111.83779450000112,112.6402147000008,112.62188109999988,,,,,,,,,,,,,,,,112.63208920000034,112.6402147000008,112.6402147000008,113.92195960000026,r,1.0,1.274772500000836,,113.9234346000012,113.93738800000028,114.92139970000062,114.93732360000104,,,,,,,,,,,,,,,,,,,,sub-086,1,stroop_test,60.02001067173808,
,,,,12.0,0.0,1.0,,,,,gelb,red,r,0.0,r,1.0,1.1038275999999314,,,,,,,,,,,,,,1.0,0.0,12.0,8.0,,,,,114.93732360000104,,,,,,,,,,,,,,,,,114.92222110000148,115.03755590000036,115.8403382000015,115.8214252000016,,,,,,,,,,,,,,,,115.83340790000148,115.8403382000015,115.8403382000015,116.954968,r,1.0,1.1038275999999314,,116.95668280000064,116.97026650000043,117.95437050000146,117.97046420000152,,,,,,,,,,,,,,,,,,,,sub-086,1,stroop_test,60.02001067173808,
,,,,13.0,1.0,1.0,,,,,rot,red,r,1.0,r,1.0,0.7365554000007251,,,,,,,,,,,,,,1.0,1.0,13.0,1.0,,,,,117.97046420000152,,,,,,,,,,,,,,,,,117.95518240000092,118.32045690000086,119.1203228000013,119.10413830000108,,,,,,,,,,,,,,,,119.11276330000146,119.1203228000013,119.1203228000013,119.87124220000078,r,1.0,0.7365554000007251,,119.87273559999994,119.88675370000055,120.87084880000111,120.8867665000016,,,,,,,,,,,,,,,,,,,,sub-086,1,stroop_test,60.02001067173808,
,,,,14.0,2.0,1.0,,,,,blau,blue,b,1.0,b,1.0,0.6834326999996847,,,,,,,,,,,,,,1.0,2.0,14.0,6.0,,,,,120.8867665000016,,,,,,,,,,,,,,,,,120.8717032000004,122.08665760000076,122.88810490000104,122.87054890000036,,,,,,,,,,,,,,,,122.88116059999992,122.88810490000104,122.88810490000104,123.58731179999997,b,1.0,0.6834326999996847,,123.5888102000008,123.60321790000124,124.58700910000152,124.60296630000084,,,,,,,,,,,,,,,,,,,,sub-086,1,stroop_test,60.02001067173808,
,,,,15.0,3.0,1.0,,,,,blau,red,r,0.0,r,1.0,1.880770100000518,,,,,,,,,,,,,,1.0,3.0,15.0,4.0,,,,,124.60296630000084,,,,,,,,,,,,,,,,,124.58787450000092,125.80271360000006,126.60274860000028,126.5864997000008,,,,,,,,,,,,,,,,126.58769160000156,126.60274860000028,126.60274860000028,128.48620760000085,r,1.0,1.880770100000518,,128.4875308999999,128.50215410000055,129.4864589000008,129.50238490000083,,,,,,,,,,,,,,,,,,,,sub-086,1,stroop_test,60.02001067173808,
,,,,16.0,4.0,1.0,,,,,rot,red,r,1.0,r,1.0,0.8635516000013013,,,,,,,,,,,,,,1.0,4.0,16.0,0.0,,,,,129.50238490000083,,,,,,,,,,,,,,,,,129.4872851,130.28550600000017,131.08691940000062,131.06945910000104,,,,,,,,,,,,,,,,131.0797719000002,131.08691940000062,131.08691940000062,131.95292870000048,r,1.0,0.8635516000013013,,131.95444040000075,131.96874639999987,132.95240490000106,132.96838380000008,,,,,,,,,,,,,,,,,,,,sub-086,1,stroop_test,60.02001067173808,
,,,,17.0,5.0,1.0,,,,,gelb,yellow,g,1.0,r,0.0,0.352110800000446,,,,,,,,,,,,,,1.0,5.0,17.0,10.0,,,,,132.96838380000008,,,,,,,,,,,,,,,,,132.95337010000003,133.3185310000008,134.11939350000102,134.10256840000147,,,,,,,,,,,,,,,,134.11253990000114,134.11939350000102,134.11939350000102,134.48574820000067,r,0.0,0.352110800000446,,134.5002013000012,134.50698250000096,135.50214720000076,,,,,,,,,,,,,,,,,,,,,sub-086,1,stroop_test,60.02001067173808,
,,,,18.0,6.0,1.0,,,,,rot,blue,b,0.0,b,1.0,1.9514736999990416,,,,,,,,,,,,,,1.0,6.0,18.0,2.0,,,,,135.51823839999997,,,,,,,,,,,,,,,,,135.50317390000055,135.60129790000065,136.40344900000127,136.38549680000142,,,,,,,,,,,,,,,,136.39581429999998,136.40344900000127,136.40344900000127,138.36867520000123,b,1.0,1.9514736999990416,,138.37821820000136,138.38486730000113,139.36819860000105,139.3840379000012,,,,,,,,,,,,,,,,,,,,sub-086,1,stroop_test,60.02001067173808,
,,,,19.0,7.0,1.0,,,,,blau,yellow,g,0.0,g,1.0,1.959671000000526,,,,,,,,,,,,,,1.0,7.0,19.0,7.0,,,,,139.3840379000012,,,,,,,,,,,,,,,,,139.3689301000013,139.48442630000136,140.28345130000162,140.26713830000153,,,,,,,,,,,,,,,,140.27028530000098,140.28345130000162,140.28345130000162,142.25183110000037,g,1.0,1.959671000000526,,142.25333460000002,142.26742640000157,143.26648080000086,,,,,,,,,,,,,,,,,,,,,sub-086,1,stroop_test,60.02001067173808,
,,,,20.0,8.0,1.0,,,,,rot,yellow,g,0.0,g,1.0,1.707362999999532,,,,,,,,,,,,,,1.0,8.0,20.0,3.0,,,,,143.282893900001,,,,,,,,,,,,,,,,,143.26692120000007,143.6164669000009,144.41891829999986,144.4008726000011,,,,,,,,,,,,,,,,144.41088070000114,144.41891829999986,144.41891829999986,146.1345491000011,g,1.0,1.707362999999532,,146.13604850000047,146.15003650000108,147.13415130000067,147.14949669999987,,,,,,,,,,,,,,,,,,,,sub-086,1,stroop_test,60.02001067173808,
,,,,21.0,9.0,1.0,,,,,gelb,yellow,g,1.0,g,1.0,1.0431691000012506,,,,,,,,,,,,,,1.0,9.0,21.0,11.0,,,,,147.14949669999987,,,,,,,,,,,,,,,,,147.13506340000094,147.95001050000064,148.7495469000005,148.73292850000144,,,,,,,,,,,,,,,,148.73757860000114,148.7495469000005,148.7495469000005,149.80072400000063,g,1.0,1.0431691000012506,,149.8022247000008,149.8164583000016,150.80035820000012,150.8162898999999,,,,,,,,,,,,,,,,,,,,sub-086,1,stroop_test,60.02001067173808,
,,,,22.0,10.0,1.0,,,,,blau,blue,b,1.0,b,1.0,1.1884207000002789,,,,,,,,,,,,,,1.0,10.0,22.0,5.0,,,,,150.8162898999999,,,,,,,,,,,,,,,,,150.80130129999998,150.91593210000065,151.7146272000009,151.69899090000035,,,,,,,,,,,,,,,,151.7077943000004,151.7146272000009,151.7146272000009,152.91585720000148,b,1.0,1.1884207000002789,,152.9173623000006,152.93164290000095,153.91543319999982,153.93166400000155,,,,,,,,,,,,,,,,,,,,sub-086,1,stroop_test,60.02001067173808,
,,,,23.0,11.0,1.0,,,,,gelb,blue,b,0.0,b,1.0,2.264650699999038,,,,,,,,,,,,,,1.0,11.0,23.0,9.0,,,,,153.93166400000155,,,,,,,,,,,,,,,,,153.9162995000006,154.28164170000127,155.08317530000022,155.06558300000142,,,,,,,,,,,,,,,,155.07690189999994,155.08317530000022,155.08317530000022,157.34883960000116,b,1.0,2.264650699999038,,157.35012930000084,157.36474989999988,158.3491068000003,158.3651129000009,,,,,,,,,,,,,,,,,,,,sub-086,1,stroop_test,60.02001067173808,
,,,,,,,,,,,,,,,,,,,,,,,,,,,,,,,,,,,,,,,,,,,,,,,,,,,,,,,,,,,,,,,,,,,,,,,,,,,,,,,,,,,,,,,158.34945049999988,158.3651129000009,158.3651129000009,159.8826751000015,space,1.514993700000559,,,,,,,,,,,,,,sub-086,1,stroop_test,60.02001067173808,
,,,,0.0,0.0,0.0,,,,,,,,,,,,,blau,yellow,g,0.0,g,1.0,1.7163679000004777,,,,,,,,,,0.0,0.0,0.0,7.0,159.91137190000154,,,,,,,,,,,,,,,,,159.90748930000154,159.99822390000008,160.79801450000014,160.7815255000005,,,,,,,,,,,,,,,,,,,,,,,,,,,,,,,,,,,160.78657360000034,160.79801450000014,160.79801450000014,162.51543980000133,g,1.0,1.7163679000004777,,,,,,sub-086,1,stroop_test,60.02001067173808,
,,,,1.0,1.0,0.0,,,,,,,,,,,,,gelb,yellow,g,1.0,g,1.0,0.9903410999995684,,,,,,,,,,0.0,1.0,1.0,10.0,162.53134300000056,,,,,,,,,,,,,,,,,162.51649560000078,163.73095150000154,164.53247069999998,164.51521330000105,,,,,,,,,,,,,,,,,,,,,,,,,,,,,,,,,,,164.52549460000046,164.53247069999998,164.53247069999998,165.5320023000004,g,1.0,0.9903410999995684,,,,,,sub-086,1,stroop_test,60.02001067173808,
,,,,2.0,2.0,0.0,,,,,,,,,,,,,rot,yellow,g,0.0,r,0.0,0.8689008000001195,,,,,,,,,,0.0,2.0,2.0,3.0,165.5474000000013,,,,,,,,,,,,,,,,,165.53299830000103,166.7474766000014,167.5485632,167.53148690000123,,,,,,,,,,,,,,,,,,,,,,,,,,,,,,,,,,,167.54176600000028,167.5485632,167.5485632,168.43168400000104,r,0.0,0.8689008000001195,,,,,,sub-086,1,stroop_test,60.02001067173808,
,,,,3.0,3.0,0.0,,,,,,,,,,,,,rot,blue,b,0.0,b,1.0,1.2353531999997358,,,,,,,,,,0.0,3.0,3.0,2.0,168.44711840000127,,,,,,,,,,,,,,,,,168.43273670000053,168.5471419000005,169.34725980000076,169.3312543000011,,,,,,,,,,,,,,,,,,,,,,,,,,,,,,,,,,,169.33262150000155,169.34725980000076,169.34725980000076,170.59722540000075,b,1.0,1.2353531999997358,,,,,,sub-086,1,stroop_test,60.02001067173808,
,,,,4.0,4.0,0.0,,,,,,,,,,,,,blau,red,r,0.0,b,0.0,2.044366699999955,,,,,,,,,,0.0,4.0,4.0,4.0,170.61342640000112,,,,,,,,,,,,,,,,,170.59767000000102,170.69717149999997,171.49662020000142,171.48068850000163,,,,,,,,,,,,,,,,,,,,,,,,,,,,,,,,,,,171.48839279999993,171.49662020000142,171.49662020000142,173.54598570000053,b,0.0,2.044366699999955,,,,,,sub-086,1,stroop_test,60.02001067173808,
,,,,5.0,5.0,0.0,,,,,,,,,,,,,gelb,yellow,g,1.0,g,1.0,0.9697295999994822,,,,,,,,,,0.0,5.0,5.0,11.0,173.56234940000104,,,,,,,,,,,,,,,,,173.5462167000005,174.74564650000138,175.5480208000008,175.53037750000112,,,,,,,,,,,,,,,,,,,,,,,,,,,,,,,,,,,175.5410083000006,175.5480208000008,175.5480208000008,176.52903510000033,g,1.0,0.9697295999994822,,,,,,sub-086,1,stroop_test,60.02001067173808,
,,,,6.0,6.0,0.0,,,,,,,,,,,,,blau,blue,b,1.0,b,1.0,1.5784435000005033,,,,,,,,,,0.0,6.0,6.0,6.0,176.54539220000152,,,,,,,,,,,,,,,,,176.52928190000057,176.6291635000016,177.4293033000013,177.41343640000014,,,,,,,,,,,,,,,,,,,,,,,,,,,,,,,,,,,177.42095470000095,177.4293033000013,177.4293033000013,179.01371350000045,b,1.0,1.5784435000005033,,,,,,sub-086,1,stroop_test,60.02001067173808,
,,,,7.0,7.0,0.0,,,,,,,,,,,,,gelb,red,r,0.0,r,1.0,0.97897120000016,,,,,,,,,,0.0,7.0,7.0,8.0,179.0292470000004,,,,,,,,,,,,,,,,,179.01510150000104,180.22910520000005,181.0296511000015,181.01340260000143,,,,,,,,,,,,,,,,,,,,,,,,,,,,,,,,,,,181.02337720000105,181.0296511000015,181.0296511000015,182.0131035000013,r,1.0,0.97897120000016,,,,,,sub-086,1,stroop_test,60.02001067173808,
,,,,8.0,8.0,0.0,,,,,,,,,,,,,blau,blue,b,1.0,b,1.0,2.101434500000323,,,,,,,,,,0.0,8.0,8.0,5.0,182.02857040000163,,,,,,,,,,,,,,,,,182.0141897000012,182.12895070000013,182.92831000000115,182.9131148000015,,,,,,,,,,,,,,,,,,,,,,,,,,,,,,,,,,,182.92070800000147,182.92831000000115,182.92831000000115,185.04595060000065,b,1.0,2.101434500000323,,,,,,sub-086,1,stroop_test,60.02001067173808,
,,,,9.0,9.0,0.0,,,,,,,,,,,,,rot,red,r,1.0,r,1.0,1.0339241000001491,,,,,,,,,,0.0,9.0,9.0,1.0,185.0618984000012,,,,,,,,,,,,,,,,,185.0469653,186.26183219999984,187.06441500000076,187.04566690000135,,,,,,,,,,,,,,,,,,,,,,,,,,,,,,,,,,,187.0567503000002,187.06441500000076,187.06441500000076,188.1110727000014,r,1.0,1.0339241000001491,,,,,,sub-086,1,stroop_test,60.02001067173808,
,,,,10.0,10.0,0.0,,,,,,,,,,,,,rot,red,r,1.0,r,1.0,0.7748701999989862,,,,,,,,,,0.0,10.0,10.0,0.0,188.1274504000012,,,,,,,,,,,,,,,,,188.1113277000004,188.91084580000097,189.71132690000013,189.69515020000108,,,,,,,,,,,,,,,,,,,,,,,,,,,,,,,,,,,189.69665859999984,189.71132690000013,189.71132690000013,190.49483310000144,r,1.0,0.7748701999989862,,,,,,sub-086,1,stroop_test,60.02001067173808,
,,,,11.0,11.0,0.0,,,,,,,,,,,,,gelb,blue,b,0.0,b,1.0,1.5651020999994216,,,,,,,,,,0.0,11.0,11.0,9.0,190.51065990000097,,,,,,,,,,,,,,,,,190.49563370000035,190.84414210000068,191.64417120000144,191.6284334000011,,,,,,,,,,,,,,,,,,,,,,,,,,,,,,,,,,,191.63830060000143,191.64417120000144,191.64417120000144,193.2116756000014,b,1.0,1.5651020999994216,,,,,,sub-086,1,stroop_test,60.02001067173808,
,,,,12.0,0.0,1.0,,,,,,,,,,,,,gelb,blue,b,0.0,b,1.0,0.8726655000009487,,,,,,,,,,1.0,0.0,12.0,9.0,193.2272756000002,,,,,,,,,,,,,,,,,193.21278280000115,194.42736070000137,195.2268907000016,195.2110008,,,,,,,,,,,,,,,,,,,,,,,,,,,,,,,,,,,195.21221620000145,195.2268907000016,195.2268907000016,196.11150460000133,b,1.0,0.8726655000009487,,,,,,sub-086,1,stroop_test,60.02001067173808,
,,,,13.0,1.0,1.0,,,,,,,,,,,,,rot,blue,b,0.0,b,1.0,1.0190985999997793,,,,,,,,,,1.0,1.0,13.0,2.0,196.1266773000007,,,,,,,,,,,,,,,,,196.1125433000016,196.22691339999983,197.0289453000005,197.01086100000063,,,,,,,,,,,,,,,,,,,,,,,,,,,,,,,,,,,197.02246670000025,197.0289453000005,197.0289453000005,198.06074570000052,b,1.0,1.0190985999997793,,,,,,sub-086,1,stroop_test,60.02001067173808,
,,,,14.0,2.0,1.0,,,,,,,,,,,,,blau,blue,b,1.0,b,1.0,0.848216099999263,,,,,,,,,,1.0,2.0,14.0,6.0,198.07675290000043,,,,,,,,,,,,,,,,,198.0615349,198.15976180000143,198.96046980000028,198.94414600000164,,,,,,,,,,,,,,,,,,,,,,,,,,,,,,,,,,,198.95306680000067,198.96046980000028,198.96046980000028,199.81094930000108,b,1.0,0.848216099999263,,,,,,sub-086,1,stroop_test,60.02001067173808,
,,,,15.0,3.0,1.0,,,,,,,,,,,,,blau,yellow,g,0.0,g,1.0,2.275105400000029,,,,,,,,,,1.0,3.0,15.0,7.0,199.82642640000088,,,,,,,,,,,,,,,,,199.8119867000005,200.17662800000107,200.9765647000004,200.96057130000008,,,,,,,,,,,,,,,,,,,,,,,,,,,,,,,,,,,200.9621948000004,200.9765647000004,200.9765647000004,203.2599968000013,g,1.0,2.275105400000029,,,,,,sub-086,1,stroop_test,60.02001067173808,
,,,,16.0,4.0,1.0,,,,,,,,,,,,,rot,yellow,g,0.0,g,1.0,1.2707394999997632,,,,,,,,,,1.0,4.0,16.0,3.0,203.2758001000002,,,,,,,,,,,,,,,,,203.26087650000045,203.37541930000043,204.17541020000132,204.15885880000133,,,,,,,,,,,,,,,,,,,,,,,,,,,,,,,,,,,204.1625530000001,204.17541020000132,204.17541020000132,205.46027640000105,g,1.0,1.2707394999997632,,,,,,sub-086,1,stroop_test,60.02001067173808,
,,,,17.0,5.0,1.0,,,,,,,,,,,,,gelb,yellow,g,1.0,g,1.0,1.0872608999998192,,,,,,,,,,1.0,5.0,17.0,10.0,205.4756963,,,,,,,,,,,,,,,,,205.46139920000127,205.57579780000012,206.3789889,206.35986860000048,,,,,,,,,,,,,,,,,,,,,,,,,,,,,,,,,,,206.3701688000001,206.3789889,206.3789889,207.47669620000124,g,1.0,1.0872608999998192,,,,,,sub-086,1,stroop_test,60.02001067173808,
,,,,18.0,6.0,1.0,,,,,,,,,,,,,gelb,red,r,0.0,r,1.0,0.9401699999998528,,,,,,,,,,1.0,6.0,18.0,8.0,207.49235469999985,,,,,,,,,,,,,,,,,207.4777251000014,207.84232470000097,208.6417489000014,208.62571540000133,,,,,,,,,,,,,,,,,,,,,,,,,,,,,,,,,,,208.6268981000012,208.6417489000014,208.6417489000014,209.59281080000076,r,1.0,0.9401699999998528,,,,,,sub-086,1,stroop_test,60.02001067173808,
,,,,19.0,7.0,1.0,,,,,,,,,,,,,rot,red,r,1.0,r,1.0,1.5000958000000535,,,,,,,,,,1.0,7.0,19.0,0.0,209.6086374000006,,,,,,,,,,,,,,,,,209.5938332000005,210.80847960000028,211.6102709000006,211.59224410000024,,,,,,,,,,,,,,,,,,,,,,,,,,,,,,,,,,,211.60255180000055,211.6102709000006,211.6102709000006,213.1257370000003,r,1.0,1.5000958000000535,,,,,,sub-086,1,stroop_test,60.02001067173808,
,,,,20.0,8.0,1.0,,,,,,,,,,,,,blau,blue,b,1.0,b,1.0,0.9322241000008944,,,,,,,,,,1.0,8.0,20.0,5.0,213.1413110000012,,,,,,,,,,,,,,,,,213.1267690000004,213.49147110000013,214.2910345,214.27539940000133,,,,,,,,,,,,,,,,,,,,,,,,,,,,,,,,,,,214.28341100000037,214.2910345,214.2910345,215.22548700000152,b,1.0,0.9322241000008944,,,,,,sub-086,1,stroop_test,60.02001067173808,
,,,,21.0,9.0,1.0,,,,,,,,,,,,,blau,red,r,0.0,r,1.0,1.4895823000006203,,,,,,,,,,1.0,9.0,21.0,4.0,215.24120260000015,,,,,,,,,,,,,,,,,215.2265092000016,216.44122849999985,217.2412444000001,217.2251666000011,,,,,,,,,,,,,,,,,,,,,,,,,,,,,,,,,,,217.2267189000013,217.2412444000001,217.2412444000001,218.74152230000072,r,1.0,1.4895823000006203,,,,,,sub-086,1,stroop_test,60.02001067173808,
,,,,22.0,10.0,1.0,,,,,,,,,,,,,gelb,yellow,g,1.0,g,1.0,1.943623299999672,,,,,,,,,,1.0,10.0,22.0,11.0,218.75744360000132,,,,,,,,,,,,,,,,,218.74238790000163,218.8406627000004,219.64411400000063,219.62486080000053,,,,,,,,,,,,,,,,,,,,,,,,,,,,,,,,,,,219.6365052000001,219.64411400000063,219.64411400000063,221.59161790000144,g,1.0,1.943623299999672,,,,,,sub-086,1,stroop_test,60.02001067173808,
,,,,23.0,11.0,1.0,,,,,,,,,,,,,rot,red,r,1.0,r,1.0,0.8478672000001097,,,,,,,,,,1.0,11.0,23.0,1.0,221.6071606000005,,,,,,,,,,,,,,,,,221.59263530000132,221.70682880000092,222.5086285000016,222.49116870000037,,,,,,,,,,,,,,,,,,,,,,,,,,,,,,,,,,,222.50222040000156,222.5086285000016,222.5086285000016,223.3574625000001,r,1.0,0.8478672000001097,,,,,,sub-086,1,stroop_test,60.02001067173808,
,,,,24.0,0.0,2.0,,,,,,,,,,,,,blau,yellow,g,0.0,g,1.0,1.6478323000010278,,,,,,,,,,2.0,0.0,24.0,7.0,223.3732727000006,,,,,,,,,,,,,,,,,223.3583750000016,224.57322170000043,225.37296200000128,225.3572221000013,,,,,,,,,,,,,,,,,,,,,,,,,,,,,,,,,,,225.3650822,225.37296200000128,225.37296200000128,227.0237451000012,g,1.0,1.6478323000010278,,,,,,sub-086,1,stroop_test,60.02001067173808,
,,,,25.0,1.0,2.0,,,,,,,,,,,,,gelb,yellow,g,1.0,g,1.0,1.0282710999999836,,,,,,,,,,2.0,1.0,25.0,11.0,227.0397111000002,,,,,,,,,,,,,,,,,227.02475180000147,227.1231968000011,227.9245465000004,227.90713700000012,,,,,,,,,,,,,,,,,,,,,,,,,,,,,,,,,,,227.91718110000147,227.9245465000004,227.9245465000004,228.95691369999983,g,1.0,1.0282710999999836,,,,,,sub-086,1,stroop_test,60.02001067173808,
,,,,26.0,2.0,2.0,,,,,,,,,,,,,rot,red,r,1.0,r,1.0,1.1855058000001009,,,,,,,,,,2.0,2.0,26.0,0.0,228.97281720000137,,,,,,,,,,,,,,,,,228.95796530000007,229.77227230000065,230.5746861000007,230.5567694000001,,,,,,,,,,,,,,,,,,,,,,,,,,,,,,,,,,,230.56702530000075,230.5746861000007,230.5746861000007,231.7740858000016,r,1.0,1.1855058000001009,,,,,,sub-086,1,stroop_test,60.02001067173808,
,,,,27.0,3.0,2.0,,,,,,,,,,,,,gelb,red,r,0.0,r,1.0,0.5814073999990796,,,,,,,,,,2.0,3.0,27.0,8.0,231.78923990000112,,,,,,,,,,,,,,,,,231.7752556000014,231.8888678000003,232.6922842000004,232.67316070000012,,,,,,,,,,,,,,,,,,,,,,,,,,,,,,,,,,,232.6835500000016,232.6922842000004,232.6922842000004,233.28986600000096,r,1.0,0.5814073999990796,,,,,,sub-086,1,stroop_test,60.02001067173808,
,,,,28.0,4.0,2.0,,,,,,,,,,,,,rot,blue,b,0.0,b,1.0,1.2704178000003594,,,,,,,,,,2.0,4.0,28.0,2.0,233.30557990000125,,,,,,,,,,,,,,,,,233.2909499000016,234.5053914,235.30655190000107,235.2895296000006,,,,,,,,,,,,,,,,,,,,,,,,,,,,,,,,,,,235.30060960000085,235.30655190000107,235.30655190000107,236.5892746000009,b,1.0,1.2704178000003594,,,,,,sub-086,1,stroop_test,60.02001067173808,
,,,,29.0,5.0,2.0,,,,,,,,,,,,,rot,red,r,1.0,r,1.0,0.6322566000017105,,,,,,,,,,2.0,5.0,29.0,1.0,236.60531130000163,,,,,,,,,,,,,,,,,236.59018250000008,237.4046187000004,238.20510020000077,238.1891320000013,,,,,,,,,,,,,,,,,,,,,,,,,,,,,,,,,,,238.19066470000143,238.20510020000077,238.20510020000077,238.8390068000008,r,1.0,0.6322566000017105,,,,,,sub-086,1,stroop_test,60.02001067173808,
,,,,30.0,6.0,2.0,,,,,,,,,,,,,gelb,blue,b,0.0,b,1.0,3.910400000000664,,,,,,,,,,2.0,6.0,30.0,9.0,238.8548610000016,,,,,,,,,,,,,,,,,238.83991760000023,239.1880441000012,239.98807300000044,239.97212480000053,,,,,,,,,,,,,,,,,,,,,,,,,,,,,,,,,,,239.9820438000006,239.98807300000044,239.98807300000044,243.9053058000009,b,1.0,3.910400000000664,,,,,,sub-086,1,stroop_test,60.02001067173808,
,,,,31.0,7.0,2.0,,,,,,,,,,,,,blau,blue,b,1.0,b,1.0,1.311381600000459,,,,,,,,,,2.0,7.0,31.0,5.0,243.9210350000012,,,,,,,,,,,,,,,,,243.90636650000124,244.27008770000063,245.0707188000015,245.0542432000002,,,,,,,,,,,,,,,,,,,,,,,,,,,,,,,,,,,245.0592854000006,245.0707188000015,245.0707188000015,246.38572449999992,b,1.0,1.311381600000459,,,,,,sub-086,1,stroop_test,60.02001067173808,
,,,,32.0,8.0,2.0,,,,,,,,,,,,,blau,blue,b,1.0,b,1.0,0.8814612999995006,,,,,,,,,,2.0,8.0,32.0,6.0,246.40215010000065,,,,,,,,,,,,,,,,,246.38597570000093,247.58615810000083,248.38560240000152,248.36941910000127,,,,,,,,,,,,,,,,,,,,,,,,,,,,,,,,,,,248.3701850000016,248.38560240000152,248.38560240000152,249.26899670000057,b,1.0,0.8814612999995006,,,,,,sub-086,1,stroop_test,60.02001067173808,
,,,,33.0,9.0,2.0,,,,,,,,,,,,,gelb,yellow,g,1.0,g,1.0,1.6121251000004122,,,,,,,,,,2.0,9.0,33.0,10.0,249.28531300000031,,,,,,,,,,,,,,,,,249.269364400001,249.61898650000148,250.42006159999983,250.40300970000132,,,,,,,,,,,,,,,,,,,,,,,,,,,,,,,,,,,250.41304219999984,250.42006159999983,250.42006159999983,252.03642910000053,g,1.0,1.6121251000004122,,,,,,sub-086,1,stroop_test,60.02001067173808,
,,,,34.0,10.0,2.0,,,,,,,,,,,,,blau,red,r,0.0,r,1.0,1.0821852999997643,,,,,,,,,,2.0,10.0,34.0,4.0,252.05200130000048,,,,,,,,,,,,,,,,,252.03745260000144,253.2355877000009,254.037746,254.01986810000017,,,,,,,,,,,,,,,,,,,,,,,,,,,,,,,,,,,254.0301370000016,254.037746,254.037746,255.1363631000004,r,1.0,1.0821852999997643,,,,,,sub-086,1,stroop_test,60.02001067173808,
,,,,35.0,11.0,2.0,,,,,,,,,,,,,rot,yellow,g,0.0,g,1.0,2.0563306999993074,,,,,,,,,,2.0,11.0,35.0,3.0,255.15233120000084,,,,,,,,,,,,,,,,,255.137280500001,255.2522187000013,256.0517826000014,256.0360225000004,,,,,,,,,,,,,,,,,,,,,,,,,,,,,,,,,,,256.0448991000012,256.0517826000014,256.0517826000014,258.1199241000013,g,1.0,2.0563306999993074,,,,,,sub-086,1,stroop_test,60.02001067173808,
,,,,36.0,0.0,3.0,,,,,,,,,,,,,blau,blue,b,1.0,b,1.0,0.8746979999996256,,,,,,,,,,3.0,0.0,36.0,6.0,258.13583370000015,,,,,,,,,,,,,,,,,258.1208056000014,258.93572210000093,259.7378339000006,259.71946240000034,,,,,,,,,,,,,,,,,,,,,,,,,,,,,,,,,,,259.73009900000034,259.7378339000006,259.7378339000006,260.6198166000013,b,1.0,0.8746979999996256,,,,,,sub-086,1,stroop_test,60.02001067173808,
,,,,37.0,1.0,3.0,,,,,,,,,,,,,blau,blue,b,1.0,b,1.0,0.6041783000000578,,,,,,,,,,3.0,1.0,37.0,5.0,260.63536190000013,,,,,,,,,,,,,,,,,260.62085090000073,260.73540070000126,261.53500350000104,261.51876880000054,,,,,,,,,,,,,,,,,,,,,,,,,,,,,,,,,,,261.5199919000006,261.53500350000104,261.53500350000104,262.1528947000006,b,1.0,0.6041783000000578,,,,,,sub-086,1,stroop_test,60.02001067173808,
,,,,38.0,2.0,3.0,,,,,,,,,,,,,rot,blue,b,0.0,r,0.0,0.7262273999986064,,,,,,,,,,3.0,2.0,38.0,2.0,262.1686038000007,,,,,,,,,,,,,,,,,262.1539159000004,263.3684226000005,264.1687507000006,264.1523702000013,,,,,,,,,,,,,,,,,,,,,,,,,,,,,,,,,,,264.1627475000005,264.1687507000006,264.1687507000006,264.90255960000104,r,0.0,0.7262273999986064,,,,,,sub-086,1,stroop_test,60.02001067173808,
,,,,39.0,3.0,3.0,,,,,,,,,,,,,gelb,yellow,g,1.0,g,1.0,0.9464269000000058,,,,,,,,,,3.0,3.0,39.0,11.0,264.9183356000012,,,,,,,,,,,,,,,,,264.9035817000004,266.1182004000002,266.9193392000016,266.9020451000015,,,,,,,,,,,,,,,,,,,,,,,,,,,,,,,,,,,266.91325210000105,266.9193392000016,266.9193392000016,267.868673500001,g,1.0,0.9464269000000058,,,,,,sub-086,1,stroop_test,60.02001067173808,
,,,,40.0,4.0,3.0,,,,,,,,,,,,,rot,yellow,g,0.0,g,1.0,0.8862849000015558,,,,,,,,,,3.0,4.0,40.0,3.0,267.88459350000085,,,,,,,,,,,,,,,,,267.86974420000115,268.2178891000003,269.0189977000009,269.00146610000047,,,,,,,,,,,,,,,,,,,,,,,,,,,,,,,,,,,269.0115421000009,269.0189977000009,269.0189977000009,269.91848949999985,g,1.0,0.8862849000015558,,,,,,sub-086,1,stroop_test,60.02001067173808,
,,,,41.0,5.0,3.0,,,,,,,,,,,,,rot,red,r,1.0,r,1.0,1.634536300000036,,,,,,,,,,3.0,5.0,41.0,0.0,269.9340157000006,,,,,,,,,,,,,,,,,269.9195210000016,270.03429810000125,270.83425570000145,270.81796420000137,,,,,,,,,,,,,,,,,,,,,,,,,,,,,,,,,,,270.81937970000035,270.83425570000145,270.83425570000145,272.48473320000085,r,1.0,1.634536300000036,,,,,,sub-086,1,stroop_test,60.02001067173808,
,,,,42.0,6.0,3.0,,,,,,,,,,,,,blau,red,r,0.0,r,1.0,1.7926115999998729,,,,,,,,,,3.0,6.0,42.0,4.0,272.5004673000003,,,,,,,,,,,,,,,,,272.48573730000135,273.70047970000087,274.50137280000126,274.4844675000004,,,,,,,,,,,,,,,,,,,,,,,,,,,,,,,,,,,274.4941587000012,274.50137280000126,274.50137280000126,276.3012262000011,r,1.0,1.7926115999998729,,,,,,sub-086,1,stroop_test,60.02001067173808,
,,,,43.0,7.0,3.0,,,,,,,,,,,,,gelb,red,r,0.0,b,0.0,1.082441700000345,,,,,,,,,,3.0,7.0,43.0,8.0,276.31668960000025,,,,,,,,,,,,,,,,,276.3022567000007,277.11678700000084,277.91593680000005,277.89972240000134,,,,,,,,,,,,,,,,,,,,,,,,,,,,,,,,,,,277.90436260000024,277.91593680000005,277.91593680000005,278.9992112,b,0.0,1.082441700000345,,,,,,sub-086,1,stroop_test,60.02001067173808,
,,,,44.0,8.0,3.0,,,,,,,,,,,,,gelb,blue,b,0.0,b,1.0,2.052983300000051,,,,,,,,,,3.0,8.0,44.0,9.0,279.01551160000054,,,,,,,,,,,,,,,,,278.9994473000006,280.1996403000012,280.9989850000002,280.98235980000027,,,,,,,,,,,,,,,,,,,,,,,,,,,,,,,,,,,280.9828505000005,280.9989850000002,280.9989850000002,283.06700980000096,b,1.0,2.052983300000051,,,,,,sub-086,1,stroop_test,60.02001067173808,
,,,,45.0,9.0,3.0,,,,,,,,,,,,,rot,red,r,1.0,r,1.0,1.023745999998937,,,,,,,,,,3.0,9.0,45.0,1.0,283.082417900001,,,,,,,,,,,,,,,,,283.0682198000013,283.18259750000107,283.9856086,283.9665811000013,,,,,,,,,,,,,,,,,,,,,,,,,,,,,,,,,,,283.9792447,283.9856086,283.9856086,285.01667240000097,r,1.0,1.023745999998937,,,,,,sub-086,1,stroop_test,60.02001067173808,
,,,,46.0,10.0,3.0,,,,,,,,,,,,,gelb,yellow,g,1.0,g,1.0,2.53126390000034,,,,,,,,,,3.0,10.0,46.0,10.0,285.03218630000083,,,,,,,,,,,,,,,,,285.0177110000004,285.81590980000146,286.6156926000004,286.5995658000011,,,,,,,,,,,,,,,,,,,,,,,,,,,,,,,,,,,286.6094881000008,286.6156926000004,286.6156926000004,289.1492923000005,g,1.0,2.53126390000034,,,,,,sub-086,1,stroop_test,60.02001067173808,
,,,,47.0,11.0,3.0,,,,,,,,,,,,,blau,yellow,g,0.0,b,0.0,0.91906519999975,,,,,,,,,,3.0,11.0,47.0,7.0,289.16492350000044,,,,,,,,,,,,,,,,,289.1503072000014,289.9649150000005,290.76515180000024,290.7490409000002,,,,,,,,,,,,,,,,,,,,,,,,,,,,,,,,,,,290.75832190000074,290.76515180000024,290.76515180000024,291.69906380000066,b,0.0,0.91906519999975,,,,,,sub-086,1,stroop_test,60.02001067173808,
,,,,48.0,0.0,4.0,,,,,,,,,,,,,gelb,blue,b,0.0,b,1.0,1.1980875000008382,,,,,,,,,,4.0,0.0,48.0,9.0,291.7147498000013,,,,,,,,,,,,,,,,,291.7001033000015,291.81467650000013,292.6142036000001,292.5985894000005,,,,,,,,,,,,,,,,,,,,,,,,,,,,,,,,,,,292.6073724000016,292.6142036000001,292.6142036000001,293.8153161000009,b,1.0,1.1980875000008382,,,,,,sub-086,1,stroop_test,60.02001067173808,
,,,,49.0,1.0,4.0,,,,,,,,,,,,,gelb,red,r,0.0,r,1.0,1.0116949999992355,,,,,,,,,,4.0,1.0,49.0,8.0,293.8310496000013,,,,,,,,,,,,,,,,,293.8163277000004,295.0311844000007,295.8309343000001,295.8145758999999,,,,,,,,,,,,,,,,,,,,,,,,,,,,,,,,,,,295.8157736000012,295.8309343000001,295.8309343000001,296.8484475000005,r,1.0,1.0116949999992355,,,,,,sub-086,1,stroop_test,60.02001067173808,
,,,,50.0,2.0,4.0,,,,,,,,,,,,,blau,red,r,0.0,r,1.0,1.0348668999995423,,,,,,,,,,4.0,2.0,50.0,4.0,296.86398400000144,,,,,,,,,,,,,,,,,296.8494913000013,298.0638510000008,298.863392700001,298.8481453000004,,,,,,,,,,,,,,,,,,,,,,,,,,,,,,,,,,,298.85706590000154,298.863392700001,298.863392700001,299.9145643000011,r,1.0,1.0348668999995423,,,,,,sub-086,1,stroop_test,60.02001067173808,
,,,,51.0,3.0,4.0,,,,,,,,,,,,,rot,yellow,g,0.0,g,1.0,1.0759519999992335,,,,,,,,,,4.0,3.0,51.0,3.0,299.9302404000009,,,,,,,,,,,,,,,,,299.91556740000124,300.7304156000009,301.53311040000153,301.5143596000016,,,,,,,,,,,,,,,,,,,,,,,,,,,,,,,,,,,301.52564950000124,301.53311040000153,301.53311040000153,302.6141932000009,g,1.0,1.0759519999992335,,,,,,sub-086,1,stroop_test,60.02001067173808,
,,,,52.0,4.0,4.0,,,,,,,,,,,,,blau,blue,b,1.0,b,1.0,0.6721354999990581,,,,,,,,,,4.0,4.0,52.0,6.0,302.6300718000002,,,,,,,,,,,,,,,,,302.61521429999993,303.4298299000002,304.2306606000002,304.21398650000083,,,,,,,,,,,,,,,,,,,,,,,,,,,,,,,,,,,304.2244740000005,304.2306606000002,304.2306606000002,304.91420130000006,b,1.0,0.6721354999990581,,,,,,sub-086,1,stroop_test,60.02001067173808,
,,,,53.0,5.0,4.0,,,,,,,,,,,,,rot,blue,b,0.0,b,1.0,1.505594000000201,,,,,,,,,,4.0,5.0,53.0,2.0,304.9296209000004,,,,,,,,,,,,,,,,,304.9152122000014,305.27981910000017,306.08114860000023,306.0637887000012,,,,,,,,,,,,,,,,,,,,,,,,,,,,,,,,,,,306.074000300001,306.08114860000023,306.08114860000023,307.59658780000063,b,1.0,1.505594000000201,,,,,,sub-086,1,stroop_test,60.02001067173808,
,,,,54.0,6.0,4.0,,,,,,,,,,,,,gelb,yellow,g,1.0,g,1.0,2.142453099999329,,,,,,,,,,4.0,6.0,54.0,11.0,307.6126864000016,,,,,,,,,,,,,,,,,307.5972918000007,307.94619630000125,308.7459669,308.73007450000114,,,,,,,,,,,,,,,,,,,,,,,,,,,,,,,,,,,308.73987860000125,308.7459669,308.7459669,310.89544510000087,g,1.0,2.142453099999329,,,,,,sub-086,1,stroop_test,60.02001067173808,
,,,,55.0,7.0,4.0,,,,,,,,,,,,,gelb,yellow,g,1.0,g,1.0,0.6200429999989865,,,,,,,,,,4.0,7.0,55.0,10.0,310.91155530000106,,,,,,,,,,,,,,,,,310.8958366000006,311.24490140000125,312.0446841000012,312.0283225000003,,,,,,,,,,,,,,,,,,,,,,,,,,,,,,,,,,,312.0286279000011,312.0446841000012,312.0446841000012,312.6781879000009,g,1.0,0.6200429999989865,,,,,,sub-086,1,stroop_test,60.02001067173808,
,,,,56.0,8.0,4.0,,,,,,,,,,,,,rot,red,r,1.0,r,1.0,0.7989034999991418,,,,,,,,,,4.0,8.0,56.0,1.0,312.6946336000001,,,,,,,,,,,,,,,,,312.6784125000013,313.0284909000002,313.82892920000086,313.81216640000093,,,,,,,,,,,,,,,,,,,,,,,,,,,,,,,,,,,313.8209164,313.82892920000086,313.82892920000086,314.62931560000106,r,1.0,0.7989034999991418,,,,,,sub-086,1,stroop_test,60.02001067173808,
,,,,57.0,9.0,4.0,,,,,,,,,,,,,blau,yellow,g,0.0,g,1.0,1.637487500000134,,,,,,,,,,4.0,9.0,57.0,7.0,314.6452406000008,,,,,,,,,,,,,,,,,314.63021030000164,314.7285785000004,315.5287141000008,315.5125349000009,,,,,,,,,,,,,,,,,,,,,,,,,,,,,,,,,,,315.5213651000013,315.5287141000008,315.5287141000008,317.1794344000009,g,1.0,1.637487500000134,,,,,,sub-086,1,stroop_test,60.02001067173808,
,,,,58.0,10.0,4.0,,,,,,,,,,,,,blau,blue,b,1.0,b,1.0,0.8738016999996034,,,,,,,,,,4.0,10.0,58.0,5.0,317.1947286000013,,,,,,,,,,,,,,,,,317.1804133000005,317.54454179999993,318.34474990000126,318.32857550000153,,,,,,,,,,,,,,,,,,,,,,,,,,,,,,,,,,,318.3300371000005,318.34474990000126,318.34474990000126,319.22876540000107,b,1.0,0.8738016999996034,,,,,,sub-086,1,stroop_test,60.02001067173808,
,,,,59.0,11.0,4.0,,,,,,,,,,,,,rot,red,r,1.0,r,1.0,0.7081584999996267,,,,,,,,,,4.0,11.0,59.0,0.0,319.24460460000046,,,,,,,,,,,,,,,,,319.2297744000007,320.44442320000053,321.2462262000008,321.22852280000006,,,,,,,,,,,,,,,,,,,,,,,,,,,,,,,,,,,321.23898440000085,321.2462262000008,321.2462262000008,321.9615855000011,r,1.0,0.7081584999996267,,,,,,sub-086,1,stroop_test,60.02001067173808,
,,,,60.0,0.0,5.0,,,,,,,,,,,,,gelb,blue,b,0.0,b,1.0,1.6533366000003298,,,,,,,,,,5.0,0.0,60.0,9.0,321.9776453000013,,,,,,,,,,,,,,,,,321.9624735000016,322.76092580000113,323.5610503000007,323.5449485000008,,,,,,,,,,,,,,,,,,,,,,,,,,,,,,,,,,,323.5548335000003,323.5610503000007,323.5610503000007,325.2282561000011,b,1.0,1.6533366000003298,,,,,,sub-086,1,stroop_test,60.02001067173808,
,,,,61.0,1.0,5.0,,,,,,,,,,,,,rot,red,r,1.0,r,1.0,0.9733550000000832,,,,,,,,,,5.0,1.0,61.0,0.0,325.2436009000012,,,,,,,,,,,,,,,,,325.22929920000024,325.5939088000014,326.39644469999985,326.37762160000057,,,,,,,,,,,,,,,,,,,,,,,,,,,,,,,,,,,326.3882265000011,326.39644469999985,326.39644469999985,327.3778705000004,r,1.0,0.9733550000000832,,,,,,sub-086,1,stroop_test,60.02001067173808,
,,,,62.0,2.0,5.0,,,,,,,,,,,,,rot,yellow,g,0.0,g,1.0,1.4899652999993125,,,,,,,,,,5.0,2.0,62.0,3.0,327.39341700000114,,,,,,,,,,,,,,,,,327.3789528000016,327.7436232,328.54351430000133,328.5274509999999,,,,,,,,,,,,,,,,,,,,,,,,,,,,,,,,,,,328.52885920000153,328.54351430000133,328.54351430000133,330.0429490000006,g,1.0,1.4899652999993125,,,,,,sub-086,1,stroop_test,60.02001067173808,
,,,,63.0,3.0,5.0,,,,,,,,,,,,,gelb,yellow,g,1.0,g,1.0,0.997105599999486,,,,,,,,,,5.0,3.0,63.0,11.0,330.0593947000016,,,,,,,,,,,,,,,,,330.0432209999999,330.843136200001,331.64225630000146,331.62605500000063,,,,,,,,,,,,,,,,,,,,,,,,,,,,,,,,,,,331.63061800000105,331.64225630000146,331.64225630000146,332.6437167000004,g,1.0,0.997105599999486,,,,,,sub-086,1,stroop_test,60.02001067173808,
,,,,64.0,4.0,5.0,,,,,,,,,,,,,rot,red,r,1.0,r,1.0,1.3200795000011567,,,,,,,,,,5.0,4.0,64.0,1.0,332.65936220000003,,,,,,,,,,,,,,,,,332.64476450000075,333.4594635000012,334.25904420000006,334.24255710000034,,,,,,,,,,,,,,,,,,,,,,,,,,,,,,,,,,,334.2462888000009,334.25904420000006,334.25904420000006,335.59354600000006,r,1.0,1.3200795000011567,,,,,,sub-086,1,stroop_test,60.02001067173808,
,,,,65.0,5.0,5.0,,,,,,,,,,,,,rot,blue,b,0.0,b,1.0,1.1676645999996254,,,,,,,,,,5.0,5.0,65.0,2.0,335.6091836000014,,,,,,,,,,,,,,,,,335.59459010000137,335.7092663000003,336.5092521000006,336.4929763,,,,,,,,,,,,,,,,,,,,,,,,,,,,,,,,,,,336.4941525000013,336.5092521000006,336.5092521000006,337.6917333000001,b,1.0,1.1676645999996254,,,,,,sub-086,1,stroop_test,60.02001067173808,
,,,,66.0,6.0,5.0,,,,,,,,,,,,,blau,blue,b,1.0,b,1.0,0.7983763000011095,,,,,,,,,,5.0,6.0,66.0,6.0,337.7082964000001,,,,,,,,,,,,,,,,,337.6919341000012,338.4919409000013,339.2916183000016,339.2759055000006,,,,,,,,,,,,,,,,,,,,,,,,,,,,,,,,,,,339.283536500001,339.2916183000016,339.2916183000016,340.09292710000045,b,1.0,0.7983763000011095,,,,,,sub-086,1,stroop_test,60.02001067173808,
,,,,67.0,7.0,5.0,,,,,,,,,,,,,gelb,red,r,0.0,r,1.0,1.6568194999999832,,,,,,,,,,5.0,7.0,67.0,8.0,340.1077523000004,,,,,,,,,,,,,,,,,340.0939494000013,340.4586618000012,341.2746556000002,341.25782830000026,,,,,,,,,,,,,,,,,,,,,,,,,,,,,,,,,,,341.2620327000004,341.2746556000002,341.2746556000002,342.94114340000124,r,1.0,1.6568194999999832,,,,,,sub-086,1,stroop_test,60.02001067173808,
,,,,68.0,8.0,5.0,,,,,,,,,,,,,blau,red,r,0.0,r,1.0,0.9732216000011248,,,,,,,,,,5.0,8.0,68.0,4.0,342.9567743000007,,,,,,,,,,,,,,,,,342.9420227999999,343.7403634000002,344.5396325000001,344.52333680000083,,,,,,,,,,,,,,,,,,,,,,,,,,,,,,,,,,,344.5267677000011,344.5396325000001,344.5396325000001,345.52321120000124,r,1.0,0.9732216000011248,,,,,,sub-086,1,stroop_test,60.02001067173808,
,,,,69.0,9.0,5.0,,,,,,,,,,,,,blau,blue,b,1.0,b,1.0,0.8725991999999678,,,,,,,,,,5.0,9.0,69.0,5.0,345.53946090000136,,,,,,,,,,,,,,,,,345.5235605000016,345.8732764000015,346.6734129000015,346.6572433000001,,,,,,,,,,,,,,,,,,,,,,,,,,,,,,,,,,,346.65845290000107,346.6734129000015,346.6734129000015,347.5567144000015,b,1.0,0.8725991999999678,,,,,,sub-086,1,stroop_test,60.02001067173808,
,,,,70.0,10.0,5.0,,,,,,,,,,,,,gelb,yellow,g,1.0,g,1.0,0.9989581000008912,,,,,,,,,,5.0,10.0,70.0,10.0,347.5728564000001,,,,,,,,,,,,,,,,,347.5572205000008,347.6560978000016,348.4576659000013,348.4408770000009,,,,,,,,,,,,,,,,,,,,,,,,,,,,,,,,,,,348.45085500000096,348.4576659000013,348.4576659000013,349.45811370000047,g,1.0,0.9989581000008912,,,,,,sub-086,1,stroop_test,60.02001067173808,
,,,,71.0,11.0,5.0,,,,,,,,,,,,,blau,yellow,g,0.0,g,1.0,1.249280900001395,,,,,,,,,,5.0,11.0,71.0,7.0,349.4736698000015,,,,,,,,,,,,,,,,,349.4591584000009,349.5738683,350.3736290000016,350.3580460000012,,,,,,,,,,,,,,,,,,,,,,,,,,,,,,,,,,,350.3666559000012,350.3736290000016,350.3736290000016,351.62445970000044,g,1.0,1.249280900001395,,,,,,sub-086,1,stroop_test,60.02001067173808,
,,,,72.0,0.0,6.0,,,,,,,,,,,,,blau,blue,b,1.0,b,1.0,1.3271571999994194,,,,,,,,,,6.0,0.0,72.0,6.0,351.6401816000016,,,,,,,,,,,,,,,,,351.6253389000012,352.8235904000012,353.62368140000035,353.60719100000097,,,,,,,,,,,,,,,,,,,,,,,,,,,,,,,,,,,353.6081996000012,353.62368140000035,353.62368140000035,354.9578192000008,b,1.0,1.3271571999994194,,,,,,sub-086,1,stroop_test,60.02001067173808,
,,,,73.0,1.0,6.0,,,,,,,,,,,,,blau,red,r,0.0,r,1.0,0.9362012000001414,,,,,,,,,,6.0,1.0,73.0,4.0,354.9732547000003,,,,,,,,,,,,,,,,,354.9588421000008,355.7732518000012,356.5731790000009,356.55726700000014,,,,,,,,,,,,,,,,,,,,,,,,,,,,,,,,,,,356.5587232000016,356.5731790000009,356.5731790000009,357.52384560000064,r,1.0,0.9362012000001414,,,,,,sub-086,1,stroop_test,60.02001067173808,
,,,,74.0,2.0,6.0,,,,,,,,,,,,,rot,red,r,1.0,r,1.0,0.7289487999987614,,,,,,,,,,6.0,2.0,74.0,0.0,357.53970710000067,,,,,,,,,,,,,,,,,357.5248846000013,358.3230424000012,359.1235217000012,359.10648760000004,,,,,,,,,,,,,,,,,,,,,,,,,,,,,,,,,,,359.1153744000003,359.1235217000012,359.1235217000012,359.8567512000009,r,1.0,0.7289487999987614,,,,,,sub-086,1,stroop_test,60.02001067173808,
,,,,75.0,3.0,6.0,,,,,,,,,,,,,gelb,blue,b,0.0,b,1.0,0.6904190000004746,,,,,,,,,,6.0,3.0,75.0,9.0,359.87245880000046,,,,,,,,,,,,,,,,,359.8577608000014,361.05603770000016,361.85579210000105,361.8393773000007,,,,,,,,,,,,,,,,,,,,,,,,,,,,,,,,,,,361.845797,361.85579210000105,361.85579210000105,362.5567867000009,b,1.0,0.6904190000004746,,,,,,sub-086,1,stroop_test,60.02001067173808,
,,,,76.0,4.0,6.0,,,,,,,,,,,,,rot,yellow,g,0.0,g,1.0,1.2893354999996518,,,,,,,,,,6.0,4.0,76.0,3.0,362.5722842000014,,,,,,,,,,,,,,,,,362.55783070000143,363.37241730000096,364.17624500000056,364.1563149000012,,,,,,,,,,,,,,,,,,,,,,,,,,,,,,,,,,,364.1698869000011,364.17624500000056,364.17624500000056,365.47263740000017,g,1.0,1.2893354999996518,,,,,,sub-086,1,stroop_test,60.02001067173808,
,,,,77.0,5.0,6.0,,,,,,,,,,,,,rot,red,r,1.0,r,1.0,0.8922673000015493,,,,,,,,,,6.0,5.0,77.0,1.0,365.4885173000002,,,,,,,,,,,,,,,,,365.473685500001,366.6886374000005,367.4884903000002,367.47253100000125,,,,,,,,,,,,,,,,,,,,,,,,,,,,,,,,,,,367.4742015000011,367.4884903000002,367.4884903000002,368.3893941000006,r,1.0,0.8922673000015493,,,,,,sub-086,1,stroop_test,60.02001067173808,
,,,,78.0,6.0,6.0,,,,,,,,,,,,,gelb,yellow,g,1.0,g,1.0,1.0112690000005389,,,,,,,,,,6.0,6.0,78.0,11.0,368.4050414000012,,,,,,,,,,,,,,,,,368.3904698000006,369.2051122000012,370.0064887000008,369.98863320000055,,,,,,,,,,,,,,,,,,,,,,,,,,,,,,,,,,,369.99877000000015,370.0064887000008,370.0064887000008,371.0222058,g,1.0,1.0112690000005389,,,,,,sub-086,1,stroop_test,60.02001067173808,
,,,,79.0,7.0,6.0,,,,,,,,,,,,,blau,blue,b,1.0,b,1.0,0.7692341000001761,,,,,,,,,,6.0,7.0,79.0,5.0,371.0380502000007,,,,,,,,,,,,,,,,,371.0232304000001,371.1381151000005,371.9377746999999,371.92182820000016,,,,,,,,,,,,,,,,,,,,,,,,,,,,,,,,,,,371.9302369000016,371.9377746999999,371.9377746999999,372.7220434999999,b,1.0,0.7692341000001761,,,,,,sub-086,1,stroop_test,60.02001067173808,
,,,,80.0,8.0,6.0,,,,,,,,,,,,,gelb,yellow,g,1.0,g,1.0,1.0988923999993858,,,,,,,,,,6.0,8.0,80.0,10.0,372.7377139,,,,,,,,,,,,,,,,,372.7230721000015,373.9376195000005,374.7382140999998,374.7216528000008,,,,,,,,,,,,,,,,,,,,,,,,,,,,,,,,,,,374.7317638000004,374.7382140999998,374.7382140999998,375.85375080000085,g,1.0,1.0988923999993858,,,,,,sub-086,1,stroop_test,60.02001067173808,
,,,,81.0,9.0,6.0,,,,,,,,,,,,,rot,blue,b,0.0,r,0.0,0.9909217000003993,,,,,,,,,,6.0,9.0,81.0,2.0,375.87011730000086,,,,,,,,,,,,,,,,,375.854041300001,377.0531242000016,377.8530072000012,377.8364870000005,,,,,,,,,,,,,,,,,,,,,,,,,,,,,,,,,,,377.8386825000016,377.8530072000012,377.8530072000012,378.8537180000003,r,0.0,0.9909217000003993,,,,,,sub-086,1,stroop_test,60.02001067173808,
,,,,82.0,10.0,6.0,,,,,,,,,,,,,gelb,red,r,0.0,g,0.0,0.8480928999997559,,,,,,,,,,6.0,10.0,82.0,8.0,378.86994010000126,,,,,,,,,,,,,,,,,378.8541486000013,378.9537641000006,379.7539601000008,379.7371253000001,,,,,,,,,,,,,,,,,,,,,,,,,,,,,,,,,,,379.74620890000006,379.7539601000008,379.7539601000008,380.6044772000005,g,0.0,0.8480928999997559,,,,,,sub-086,1,stroop_test,60.02001067173808,
,,,,83.0,11.0,6.0,,,,,,,,,,,,,blau,yellow,g,0.0,g,1.0,2.7191597999990336,,,,,,,,,,6.0,11.0,83.0,7.0,380.61978679999993,,,,,,,,,,,,,,,,,380.6053570000004,381.8202749000011,382.61981190000006,382.6036236,,,,,,,,,,,,,,,,,,,,,,,,,,,,,,,,,,,382.61268440000094,382.61981190000006,382.61981190000006,385.3536312000015,g,1.0,2.7191597999990336,,,,,,sub-086,1,stroop_test,60.02001067173808,
,,,,84.0,0.0,7.0,,,,,,,,,,,,,rot,yellow,g,0.0,g,1.0,1.071235500001421,,,,,,,,,,7.0,0.0,84.0,3.0,385.369420500001,,,,,,,,,,,,,,,,,385.35453120000057,385.7195153000012,386.5190282000003,386.50321950000034,,,,,,,,,,,,,,,,,,,,,,,,,,,,,,,,,,,386.51215720000073,386.5190282000003,386.5190282000003,387.6035484000004,g,1.0,1.071235500001421,,,,,,sub-086,1,stroop_test,60.02001067173808,
,,,,85.0,1.0,7.0,,,,,,,,,,,,,rot,blue,b,0.0,b,1.0,1.208364199999778,,,,,,,,,,7.0,1.0,85.0,2.0,387.6190875000011,,,,,,,,,,,,,,,,,387.6045382000011,388.4188766000007,389.21909920000144,389.2030964000005,,,,,,,,,,,,,,,,,,,,,,,,,,,,,,,,,,,389.20450690000143,389.21909920000144,389.21909920000144,390.43655020000006,b,1.0,1.208364199999778,,,,,,sub-086,1,stroop_test,60.02001067173808,
,,,,86.0,2.0,7.0,,,,,,,,,,,,,gelb,yellow,g,1.0,g,1.0,1.5139687000009872,,,,,,,,,,7.0,2.0,86.0,11.0,390.4519626000001,,,,,,,,,,,,,,,,,390.43755190000047,390.8022322000015,391.60165570000026,391.58586970000033,,,,,,,,,,,,,,,,,,,,,,,,,,,,,,,,,,,391.5939352000005,391.60165570000026,391.60165570000026,393.1192371000016,g,1.0,1.5139687000009872,,,,,,sub-086,1,stroop_test,60.02001067173808,
,,,,87.0,3.0,7.0,,,,,,,,,,,,,blau,blue,b,1.0,b,1.0,1.0419278999997914,,,,,,,,,,7.0,3.0,87.0,6.0,393.1349901000012,,,,,,,,,,,,,,,,,393.1202686000015,393.2183732000012,394.01819220000107,394.0023793,,,,,,,,,,,,,,,,,,,,,,,,,,,,,,,,,,,394.012228900001,394.01819220000107,394.01819220000107,395.0693259,b,1.0,1.0419278999997914,,,,,,sub-086,1,stroop_test,60.02001067173808,
,,,,88.0,4.0,7.0,,,,,,,,,,,,,gelb,red,r,0.0,r,1.0,3.5923410000013973,,,,,,,,,,7.0,4.0,88.0,8.0,395.0849827000002,,,,,,,,,,,,,,,,,395.0703915000013,395.8849141999999,396.68725000000086,396.668744300001,,,,,,,,,,,,,,,,,,,,,,,,,,,,,,,,,,,396.6791491000004,396.68725000000086,396.68725000000086,400.2851774999999,r,1.0,3.5923410000013973,,,,,,sub-086,1,stroop_test,60.02001067173808,
,,,,89.0,5.0,7.0,,,,,,,,,,,,,blau,red,r,0.0,r,1.0,1.3378835000003164,,,,,,,,,,7.0,5.0,89.0,4.0,400.3007398000009,,,,,,,,,,,,,,,,,400.28626950000034,400.6510274000011,401.451868600001,401.4349112,,,,,,,,,,,,,,,,,,,,,,,,,,,,,,,,,,,401.4439456,401.451868600001,401.451868600001,402.8017216000008,r,1.0,1.3378835000003164,,,,,,sub-086,1,stroop_test,60.02001067173808,
,,,,90.0,6.0,7.0,,,,,,,,,,,,,rot,red,r,1.0,r,1.0,0.9462082000009104,,,,,,,,,,7.0,6.0,90.0,0.0,402.8170731000009,,,,,,,,,,,,,,,,,402.8027275000004,402.9170758,403.7195742000004,403.70084510000015,,,,,,,,,,,,,,,,,,,,,,,,,,,,,,,,,,,403.71227850000105,403.7195742000004,403.7195742000004,404.66812690000006,r,1.0,0.9462082000009104,,,,,,sub-086,1,stroop_test,60.02001067173808,
,,,,91.0,7.0,7.0,,,,,,,,,,,,,rot,red,r,1.0,r,1.0,0.5206331000008504,,,,,,,,,,7.0,7.0,91.0,1.0,404.683765400001,,,,,,,,,,,,,,,,,404.6691543000016,405.8834866000016,406.6835288000002,406.6674414000008,,,,,,,,,,,,,,,,,,,,,,,,,,,,,,,,,,,406.6688526000016,406.6835288000002,406.6835288000002,407.2171522000008,r,1.0,0.5206331000008504,,,,,,sub-086,1,stroop_test,60.02001067173808,
,,,,92.0,8.0,7.0,,,,,,,,,,,,,blau,blue,b,1.0,b,1.0,1.130813899999339,,,,,,,,,,7.0,8.0,92.0,5.0,407.2329763000016,,,,,,,,,,,,,,,,,407.2180941000006,408.4163279000004,409.2176274000012,409.20052940000096,,,,,,,,,,,,,,,,,,,,,,,,,,,,,,,,,,,409.2100063000016,409.2176274000012,409.2176274000012,410.3493107000013,b,1.0,1.130813899999339,,,,,,sub-086,1,stroop_test,60.02001067173808,
,,,,93.0,9.0,7.0,,,,,,,,,,,,,blau,yellow,g,0.0,g,1.0,0.6215883999993821,,,,,,,,,,7.0,9.0,93.0,7.0,410.3655067,,,,,,,,,,,,,,,,,410.34969790000105,410.6987101000013,411.4985809000009,411.4820740000014,,,,,,,,,,,,,,,,,,,,,,,,,,,,,,,,,,,411.4824245,411.4985809000009,411.4985809000009,412.1336443,g,1.0,0.6215883999993821,,,,,,sub-086,1,stroop_test,60.02001067173808,
,,,,94.0,10.0,7.0,,,,,,,,,,,,,gelb,blue,b,0.0,b,1.0,0.5562551000002713,,,,,,,,,,7.0,10.0,94.0,9.0,412.14884730000085,,,,,,,,,,,,,,,,,412.1346914000005,412.2494807000003,413.0650424000014,413.0487522000003,,,,,,,,,,,,,,,,,,,,,,,,,,,,,,,,,,,413.0532845000016,413.0650424000014,413.0650424000014,413.6333050000012,b,1.0,0.5562551000002713,,,,,,sub-086,1,stroop_test,60.02001067173808,
,,,,95.0,11.0,7.0,,,,,,,,,,,,,gelb,yellow,g,1.0,g,1.0,0.4542308000000048,,,,,,,,,,7.0,11.0,95.0,10.0,413.6490982000014,,,,,,,,,,,,,,,,,413.6341990000001,413.9992082000008,414.79876030000014,414.7829305000014,,,,,,,,,,,,,,,,,,,,,,,,,,,,,,,,,,,414.78413,414.79876030000014,414.79876030000014,415.26658060000045,g,1.0,0.4542308000000048,,,,,,sub-086,1,stroop_test,60.02001067173808,
,,,,96.0,0.0,8.0,,,,,,,,,,,,,rot,red,r,1.0,r,1.0,0.7841867999995884,,,,,,,,,,8.0,0.0,96.0,0.0,415.2824052000015,,,,,,,,,,,,,,,,,415.2675546999999,416.08218640000086,416.8828516000012,416.8660221000009,,,,,,,,,,,,,,,,,,,,,,,,,,,,,,,,,,,416.8751725000002,416.8828516000012,416.8828516000012,417.6825993000002,r,1.0,0.7841867999995884,,,,,,sub-086,1,stroop_test,60.02001067173808,
,,,,97.0,1.0,8.0,,,,,,,,,,,,,gelb,yellow,g,1.0,g,1.0,0.9030110999992758,,,,,,,,,,8.0,1.0,97.0,11.0,417.698519900001,,,,,,,,,,,,,,,,,417.6834863000004,418.0316808000007,418.833224,418.8160060000009,,,,,,,,,,,,,,,,,,,,,,,,,,,,,,,,,,,418.82716059999984,418.833224,418.833224,419.7494663000016,g,1.0,0.9030110999992758,,,,,,sub-086,1,stroop_test,60.02001067173808,
,,,,98.0,2.0,8.0,,,,,,,,,,,,,gelb,blue,b,0.0,b,1.0,1.1244822999997268,,,,,,,,,,8.0,2.0,98.0,9.0,419.7651346000002,,,,,,,,,,,,,,,,,419.7506252000003,419.86514440000064,420.6649461000016,420.6486089000009,,,,,,,,,,,,,,,,,,,,,,,,,,,,,,,,,,,420.6498416000013,420.6649461000016,420.6649461000016,421.7988812000003,b,1.0,1.1244822999997268,,,,,,sub-086,1,stroop_test,60.02001067173808,
,,,,99.0,3.0,8.0,,,,,,,,,,,,,blau,blue,b,1.0,b,1.0,0.7195283000000927,,,,,,,,,,8.0,3.0,99.0,5.0,421.8147772000011,,,,,,,,,,,,,,,,,421.7999137000006,421.8982294000016,422.6995638000008,422.6821851000004,,,,,,,,,,,,,,,,,,,,,,,,,,,,,,,,,,,422.6914886000013,422.6995638000008,422.6995638000008,423.4323135000013,b,1.0,0.7195283000000927,,,,,,sub-086,1,stroop_test,60.02001067173808,
,,,,100.0,4.0,8.0,,,,,,,,,,,,,rot,red,r,1.0,r,1.0,1.1248147000005702,,,,,,,,,,8.0,4.0,100.0,1.0,423.4478433000004,,,,,,,,,,,,,,,,,423.4333598000012,423.54788400000143,424.3522294000013,424.3319713000001,,,,,,,,,,,,,,,,,,,,,,,,,,,,,,,,,,,424.3446378000008,424.3522294000013,424.3522294000013,425.48196540000026,r,1.0,1.1248147000005702,,,,,,sub-086,1,stroop_test,60.02001067173808,
,,,,101.0,5.0,8.0,,,,,,,,,,,,,rot,blue,b,0.0,b,1.0,1.0099007999997411,,,,,,,,,,8.0,5.0,101.0,2.0,425.4977611000013,,,,,,,,,,,,,,,,,425.482985300001,426.29766890000064,427.0971536000016,427.0811513000008,,,,,,,,,,,,,,,,,,,,,,,,,,,,,,,,,,,427.0819075,427.0971536000016,427.0971536000016,428.1150750000015,b,1.0,1.0099007999997411,,,,,,sub-086,1,stroop_test,60.02001067173808,
,,,,102.0,6.0,8.0,,,,,,,,,,,,,gelb,red,r,0.0,r,1.0,1.289567399999214,,,,,,,,,,8.0,6.0,102.0,8.0,428.13073630000144,,,,,,,,,,,,,,,,,428.1160823000009,428.2307417000011,429.03212540000095,429.0143039000013,,,,,,,,,,,,,,,,,,,,,,,,,,,,,,,,,,,429.0244734000007,429.03212540000095,429.03212540000095,430.3314364000016,r,1.0,1.289567399999214,,,,,,sub-086,1,stroop_test,60.02001067173808,
,,,,103.0,7.0,8.0,,,,,,,,,,,,,blau,blue,b,1.0,b,1.0,0.6859093000002758,,,,,,,,,,8.0,7.0,103.0,6.0,430.34685270000045,,,,,,,,,,,,,,,,,430.33246940000026,430.69711240000106,431.49653820000094,431.4807609,,,,,,,,,,,,,,,,,,,,,,,,,,,,,,,,,,,431.48842460000014,431.49653820000094,431.49653820000094,432.1977778,b,1.0,0.6859093000002758,,,,,,sub-086,1,stroop_test,60.02001067173808,
,,,,104.0,8.0,8.0,,,,,,,,,,,,,gelb,yellow,g,1.0,g,1.0,0.738972899998771,,,,,,,,,,8.0,8.0,104.0,10.0,432.2132458000015,,,,,,,,,,,,,,,,,432.1987911000015,432.5624649000001,433.36277340000015,433.3472509000003,,,,,,,,,,,,,,,,,,,,,,,,,,,,,,,,,,,433.3563434000007,433.36277340000015,433.36277340000015,434.1143540000012,g,1.0,0.738972899998771,,,,,,sub-086,1,stroop_test,60.02001067173808,
,,,,105.0,9.0,8.0,,,,,,,,,,,,,rot,yellow,g,0.0,g,1.0,0.9251774000003934,,,,,,,,,,8.0,9.0,105.0,3.0,434.1296882000006,,,,,,,,,,,,,,,,,434.11541000000034,434.22998670000015,435.0452924000001,435.0294330000015,,,,,,,,,,,,,,,,,,,,,,,,,,,,,,,,,,,435.0399190000008,435.0452924000001,435.0452924000001,435.97950820000005,g,1.0,0.9251774000003934,,,,,,sub-086,1,stroop_test,60.02001067173808,
,,,,106.0,10.0,8.0,,,,,,,,,,,,,blau,red,r,0.0,r,1.0,1.105473900001016,,,,,,,,,,8.0,10.0,106.0,4.0,435.9952817000012,,,,,,,,,,,,,,,,,435.9804917000001,437.19533779999983,437.9952389999999,437.9793021000005,,,,,,,,,,,,,,,,,,,,,,,,,,,,,,,,,,,437.9888337000011,437.9952389999999,437.9952389999999,439.11221149999983,r,1.0,1.105473900001016,,,,,,sub-086,1,stroop_test,60.02001067173808,
,,,,107.0,11.0,8.0,,,,,,,,,,,,,blau,yellow,g,0.0,g,1.0,1.412137500001336,,,,,,,,,,8.0,11.0,107.0,7.0,439.1282670000001,,,,,,,,,,,,,,,,,439.1131028,440.3273377000005,441.1280907,441.1120451000006,,,,,,,,,,,,,,,,,,,,,,,,,,,,,,,,,,,441.1133144000014,441.1280907,441.1280907,442.5451086000012,g,1.0,1.412137500001336,,,,,,sub-086,1,stroop_test,60.02001067173808,
,,,,108.0,0.0,9.0,,,,,,,,,,,,,gelb,red,r,0.0,r,1.0,1.3801207999986218,,,,,,,,,,9.0,0.0,108.0,8.0,442.5608995000002,,,,,,,,,,,,,,,,,442.5460636000007,442.894357000001,443.6940552000015,443.6774430000005,,,,,,,,,,,,,,,,,,,,,,,,,,,,,,,,,,,443.68038220000017,443.6940552000015,443.6940552000015,445.0790252000006,r,1.0,1.3801207999986218,,,,,,sub-086,1,stroop_test,60.02001067173808,
,,,,109.0,1.0,9.0,,,,,,,,,,,,,blau,yellow,g,0.0,b,0.0,1.8740140999998405,,,,,,,,,,9.0,1.0,109.0,7.0,445.0948097,,,,,,,,,,,,,,,,,445.0800530000015,445.17800910000005,445.9773773000016,445.9608344000008,,,,,,,,,,,,,,,,,,,,,,,,,,,,,,,,,,,445.9626478000009,445.9773773000016,445.9773773000016,447.862298,b,0.0,1.8740140999998405,,,,,,sub-086,1,stroop_test,60.02001067173808,
,,,,110.0,2.0,9.0,,,,,,,,,,,,,rot,red,r,1.0,r,1.0,1.0443140999996103,,,,,,,,,,9.0,2.0,110.0,1.0,447.8779711000007,,,,,,,,,,,,,,,,,447.8634706000012,448.2282004000008,449.0279805000009,449.0119155000011,,,,,,,,,,,,,,,,,,,,,,,,,,,,,,,,,,,449.02176599999984,449.0279805000009,449.0279805000009,450.0786255000002,r,1.0,1.0443140999996103,,,,,,sub-086,1,stroop_test,60.02001067173808,
,,,,111.0,3.0,9.0,,,,,,,,,,,,,rot,red,r,1.0,r,1.0,0.881330700000035,,,,,,,,,,9.0,3.0,111.0,0.0,450.09409940000114,,,,,,,,,,,,,,,,,450.07961050000085,450.1778674000016,450.97745700000087,450.961553000001,,,,,,,,,,,,,,,,,,,,,,,,,,,,,,,,,,,450.9627711000012,450.97745700000087,450.97745700000087,451.8617405000005,r,1.0,0.881330700000035,,,,,,sub-086,1,stroop_test,60.02001067173808,
,,,,112.0,4.0,9.0,,,,,,,,,,,,,rot,yellow,g,0.0,g,1.0,1.1355220999994344,,,,,,,,,,9.0,4.0,112.0,3.0,451.8776891000016,,,,,,,,,,,,,,,,,451.8627488000002,451.9774031000016,452.7773842000006,452.7614948999999,,,,,,,,,,,,,,,,,,,,,,,,,,,,,,,,,,,452.7629579000004,452.7773842000006,452.7773842000006,453.9283200000009,g,1.0,1.1355220999994344,,,,,,sub-086,1,stroop_test,60.02001067173808,
,,,,113.0,5.0,9.0,,,,,,,,,,,,,gelb,yellow,g,1.0,g,1.0,0.8288224999996601,,,,,,,,,,9.0,5.0,113.0,10.0,453.94404140000006,,,,,,,,,,,,,,,,,453.9294172000009,455.1434844000014,455.9452947000009,455.9277698000005,,,,,,,,,,,,,,,,,,,,,,,,,,,,,,,,,,,455.9384289000009,455.9452947000009,455.9452947000009,456.7777459000008,g,1.0,0.8288224999996601,,,,,,sub-086,1,stroop_test,60.02001067173808,
,,,,114.0,6.0,9.0,,,,,,,,,,,,,blau,blue,b,1.0,b,1.0,0.8479638999997405,,,,,,,,,,9.0,6.0,114.0,5.0,456.7936948000006,,,,,,,,,,,,,,,,,456.778801800001,456.8940164000014,457.6934065000005,457.6775501000011,,,,,,,,,,,,,,,,,,,,,,,,,,,,,,,,,,,457.68687350000073,457.6934065000005,457.6934065000005,458.5442395000009,b,1.0,0.8479638999997405,,,,,,sub-086,1,stroop_test,60.02001067173808,
,,,,115.0,7.0,9.0,,,,,,,,,,,,,blau,blue,b,1.0,b,1.0,0.6232270000000426,,,,,,,,,,9.0,7.0,115.0,6.0,458.5599643000005,,,,,,,,,,,,,,,,,458.5452744000013,459.3599521000015,460.1594342000008,460.1438199000004,,,,,,,,,,,,,,,,,,,,,,,,,,,,,,,,,,,460.14516790000016,460.1594342000008,460.1594342000008,460.7942442000003,b,1.0,0.6232270000000426,,,,,,sub-086,1,stroop_test,60.02001067173808,
,,,,116.0,8.0,9.0,,,,,,,,,,,,,gelb,yellow,g,1.0,g,1.0,0.5146428999996715,,,,,,,,,,9.0,8.0,116.0,11.0,460.8099215000002,,,,,,,,,,,,,,,,,460.7952547000005,462.0098744000006,462.81252850000055,462.7936481000015,,,,,,,,,,,,,,,,,,,,,,,,,,,,,,,,,,,462.8040170000004,462.81252850000055,462.81252850000055,463.34332220000033,g,1.0,0.5146428999996715,,,,,,sub-086,1,stroop_test,60.02001067173808,
,,,,117.0,9.0,9.0,,,,,,,,,,,,,gelb,blue,b,0.0,b,1.0,1.2822818999993617,,,,,,,,,,9.0,9.0,117.0,9.0,463.3591426000002,,,,,,,,,,,,,,,,,463.3442427000009,463.4429826000014,464.2423930000005,464.22671360000095,,,,,,,,,,,,,,,,,,,,,,,,,,,,,,,,,,,464.2281276000013,464.2423930000005,464.2423930000005,465.5270904000008,b,1.0,1.2822818999993617,,,,,,sub-086,1,stroop_test,60.02001067173808,
,,,,118.0,10.0,9.0,,,,,,,,,,,,,rot,blue,b,0.0,b,1.0,1.2259639000003515,,,,,,,,,,9.0,10.0,118.0,2.0,465.5427471000002,,,,,,,,,,,,,,,,,465.5280793000002,466.74244050000016,467.54547170000114,467.5263062000013,,,,,,,,,,,,,,,,,,,,,,,,,,,,,,,,,,,467.5380173000012,467.54547170000114,467.54547170000114,468.7764473000007,b,1.0,1.2259639000003515,,,,,,sub-086,1,stroop_test,60.02001067173808,
,,,,119.0,11.0,9.0,,,,,,,,,,,,,blau,red,r,0.0,b,0.0,0.865404000000126,,,,,,,,,,9.0,11.0,119.0,4.0,468.7919740000016,,,,,,,,,,,,,,,,,468.7774967000005,469.9920395000008,470.7917350000007,470.7752697000015,,,,,,,,,,,,,,,,,,,,,,,,,,,,,,,,,,,470.78315810000095,470.7917350000007,470.7917350000007,471.65938300000016,b,0.0,0.865404000000126,,,,,,sub-086,1,stroop_test,60.02001067173808,
,,,,,,,,,,,,,,,,,,,,,,,,,,,,,,,,,,,,,,,,,,,,,,,,,,,,,,,,,,,,,,,,,,,,,,,,,,,,,,,,,,,,,,,,,,,,,,,,,,,,,,471.6599077999999,471.6747059000008,476.6735998000004,476.6572651000006,sub-086,1,stroop_test,60.02001067173808,
