wordCTK,colorCTK,corrAnsCTK,congruentCTK,thisN,thisTrialN,thisRepN,keyResp_CTK.keys,keyResp_CTK.corr,keyResp_CTK.rt,keyResp_CTK.duration,wordPractice,colorPractice,corrAnsPractice,congruentPractice,respPractice.keys,respPractice.corr,respPractice.rt,respPractice.duration,word,color,corrAns,congruent,keyResp_test_run.keys,keyResp_test_run.corr,keyResp_test_run.rt,keyResp_test_run.duration,trials_CTK.thisRepN,trials_CTK.thisTrialN,trials_CTK.thisN,trials_CTK.thisIndex,trials_practice.thisRepN,trials_practice.thisTrialN,trials_practice.thisN,trials_practice.thisIndex,trials_test.thisRepN,trials_test.thisTrialN,trials_test.thisN,trials_test.thisIndex,thisRow.t,notes,instruction.started,instr_text.started,instr_image.started,instr_resp.started,instruction.stopped,instr_resp.keys,instr_resp.rt,instr_resp.duration,instr_color_to_key.started,instr_ctk.started,resp_ctk.started,instr_color_to_key.stopped,resp_ctk.keys,resp_ctk.rt,resp_ctk.duration,ITI.started,fixcross.started,fixcross.stopped,ITI.stopped,color_to_key_run.started,stimulus_CTK.started,keyResp_CTK.started,color_to_key_run.stopped,trials_CTK.keyResp_CTK.keys,trials_CTK.keyResp_CTK.corr,trials_CTK.keyResp_CTK.rt,trials_CTK.keyResp_CTK.duration,instr_practice.started,instr_practice_text.started,instr_practice_resp.started,instr_practice.stopped,instr_practice_resp.keys,instr_practice_resp.rt,instr_practice_resp.duration,practice_run.started,stimulus_practice.started,respPractice.started,practice_run.stopped,trials_practice.respPractice.keys,trials_practice.respPractice.corr,trials_practice.respPractice.rt,trials_practice.respPractice.duration,feedback.started,textFeedback.started,feedback.stopped,textFeedback.stopped,instr_test.started,instr_test_text.started,instr_test_resp.started,instr_test.stopped,instr_test_resp.keys,instr_test_resp.rt,instr_test_resp.duration,test_run.started,stimulus_test_run.started,keyResp_test_run.started,test_run.stopped,trials_test.keyResp_test_run.keys,trials_test.keyResp_test_run.corr,trials_test.keyResp_test_run.rt,trials_test.keyResp_test_run.duration,goodbye.started,textGoodbye.started,participant,session,expName,frameRate,Unnamed: 111
,,,,,,,,,,,,,,,,,,,,,,,,,,,,,,,,,,,,,,,,,0.0034721000047284,0.0279573000007076,0.0279573000007076,0.0279573000007076,8.441577900004631,space,8.317982599997777,,,,,,,,,,,,,,,,,,,,,,,,,,,,,,,,,,,,,,,,,,,,,,,,,,,,,,,,,sub-017,1.0,stroop_test,60.60326918255608,
,,,,,,,,,,,,,,,,,,,,,,,,,,,,,,,,,,,,,,,,,,,,,,,,,8.441626300002099,8.448122500005411,8.448122500005411,9.77594720000343,space,1.3144799000001512,,,,,,,,,,,,,,,,,,,,,,,,,,,,,,,,,,,,,,,,,,,,,,,,,,sub-017,1.0,stroop_test,60.60326918255608,
test,yellow,g,1.0,0.0,0.0,0.0,g,1.0,3.70241829999577,,,,,,,,,,,,,,,,,,0.0,0.0,0.0,1.0,,,,,,,,,9.821708399998895,,,,,,,,,,,,,,,,,9.817096899998432,10.141062800001237,10.940443800005596,10.92531980000058,10.93268679999892,10.940443800005596,10.940443800005596,14.658708300004946,g,1.0,3.70241829999577,,,,,,,,,,,,,,,,,,,,,,,,,,,,,,,,,,,,,,sub-017,1.0,stroop_test,60.60326918255608,
test,red,r,1.0,1.0,1.0,0.0,r,1.0,0.7075122000023839,,,,,,,,,,,,,,,,,,0.0,1.0,1.0,0.0,,,,,,,,,14.67147290000139,,,,,,,,,,,,,,,,,14.659280799998667,15.471087700003409,16.270592799999577,16.255448100004287,16.256057300000975,16.270592799999577,16.270592799999577,16.98893360000511,r,1.0,0.7075122000023839,,,,,,,,,,,,,,,,,,,,,,,,,,,,,,,,,,,,,,sub-017,1.0,stroop_test,60.60326918255608,
test,blue,b,1.0,2.0,2.0,0.0,b,1.0,0.5102950999935274,,,,,,,,,,,,,,,,,,0.0,2.0,2.0,2.0,,,,,,,,,17.00355340000533,,,,,,,,,,,,,,,,,16.989290199999232,17.8032691000044,18.602840200001083,18.587835300000734,18.58910430000105,18.602840200001083,18.602840200001083,19.121030100002827,b,1.0,0.5102950999935274,,,,,,,,,,,,,,,,,,,,,,,,,,,,,,,,,,,,,,sub-017,1.0,stroop_test,60.60326918255608,
test,yellow,g,1.0,3.0,0.0,1.0,g,1.0,1.0085593999974662,,,,,,,,,,,,,,,,,,1.0,0.0,3.0,1.0,,,,,,,,,19.135597100001178,,,,,,,,,,,,,,,,,19.12158730000374,19.93518480000057,20.734617599999183,20.719435999999405,20.72086390000186,20.734617599999183,20.734617599999183,21.75201560000278,g,1.0,1.0085593999974662,,,,,,,,,,,,,,,,,,,,,,,,,,,,,,,,,,,,,,sub-017,1.0,stroop_test,60.60326918255608,
test,red,r,1.0,4.0,1.0,1.0,r,1.0,0.4270984000031603,,,,,,,,,,,,,,,,,,1.0,1.0,4.0,0.0,,,,,,,,,21.766824500002254,,,,,,,,,,,,,,,,,21.752308200004336,21.866906000002928,22.666622500000813,22.6512148000038,22.652542200004973,22.666622500000813,22.666622500000813,23.101781700002903,r,1.0,0.4270984000031603,,,,,,,,,,,,,,,,,,,,,,,,,,,,,,,,,,,,,,sub-017,1.0,stroop_test,60.60326918255608,
test,blue,b,1.0,5.0,2.0,1.0,b,1.0,0.7026989000005415,,,,,,,,,,,,,,,,,,1.0,2.0,5.0,2.0,,,,,,,,,23.116159700002758,,,,,,,,,,,,,,,,,23.102207100004307,23.91573330000392,24.71504999999888,24.699851100005617,24.70041889999993,24.71504999999888,24.71504999999888,25.432938800004194,b,1.0,0.7026989000005415,,,,,,,,,,,,,,,,,,,,,,,,,,,,,,,,,,,,,,sub-017,1.0,stroop_test,60.60326918255608,
test,blue,b,1.0,6.0,0.0,2.0,b,1.0,0.5321315999972285,,,,,,,,,,,,,,,,,,2.0,0.0,6.0,2.0,,,,,,,,,25.447851000004448,,,,,,,,,,,,,,,,,25.433248100001947,26.647310300002573,27.44680150000204,27.43247410000185,27.433688100005384,27.44680150000204,27.44680150000204,27.983527800002776,b,1.0,0.5321315999972285,,,,,,,,,,,,,,,,,,,,,,,,,,,,,,,,,,,,,,sub-017,1.0,stroop_test,60.60326918255608,
test,yellow,g,1.0,7.0,1.0,2.0,g,1.0,0.6464264000023832,,,,,,,,,,,,,,,,,,2.0,1.0,7.0,1.0,,,,,,,,,27.99646480000229,,,,,,,,,,,,,,,,,27.984051999999792,28.096567200002028,28.896031700001917,28.88013100000535,28.88064139999915,28.896031700001917,28.896031700001917,29.54767150000407,g,1.0,0.6464264000023832,,,,,,,,,,,,,,,,,,,,,,,,,,,,,,,,,,,,,,sub-017,1.0,stroop_test,60.60326918255608,
test,red,r,1.0,8.0,2.0,2.0,r,1.0,0.4707055000035325,,,,,,,,,,,,,,,,,,2.0,2.0,8.0,0.0,,,,,,,,,29.56201300000248,,,,,,,,,,,,,,,,,29.548072600002342,29.911765199998623,30.711433000004035,30.69646300000022,30.697090400004527,30.711433000004035,30.711433000004035,31.19787090000318,r,1.0,0.4707055000035325,,,,,,,,,,,,,,,,,,,,,,,,,,,,,,,,,,,,,,sub-017,1.0,stroop_test,60.60326918255608,
test,red,r,1.0,9.0,0.0,3.0,r,1.0,0.4425048999983119,,,,,,,,,,,,,,,,,,3.0,0.0,9.0,0.0,,,,,,,,,31.21081730000151,,,,,,,,,,,,,,,,,31.19875920000049,32.41034909999871,33.209621400004835,33.1940659000029,33.1953427000044,33.209621400004835,33.209621400004835,33.66122059999907,r,1.0,0.4425048999983119,,,,,,,,,,,,,,,,,,,,,,,,,,,,,,,,,,,,,,sub-017,1.0,stroop_test,60.60326918255608,
test,blue,b,1.0,10.0,1.0,3.0,b,1.0,0.5852558000042336,,,,,,,,,,,,,,,,,,3.0,1.0,10.0,2.0,,,,,,,,,33.67616350000026,,,,,,,,,,,,,,,,,33.66159480000351,34.02611610000167,34.82572220000293,34.810417900000175,34.81091210000159,34.82572220000293,34.82572220000293,35.429174500000954,b,1.0,0.5852558000042336,,,,,,,,,,,,,,,,,,,,,,,,,,,,,,,,,,,,,,sub-017,1.0,stroop_test,60.60326918255608,
test,yellow,g,1.0,11.0,2.0,3.0,g,1.0,2.1146062000043457,,,,,,,,,,,,,,,,,,3.0,2.0,11.0,1.0,,,,,,,,,35.442002200004936,,,,,,,,,,,,,,,,,35.4296800000011,36.64094200000545,37.44081160000496,37.42568830000528,37.42636810000113,37.44081160000496,37.44081160000496,39.558028999999806,g,1.0,2.1146062000043457,,,,,,,,,,,,,,,,,,,,,,,,,,,,,,,,,,,,,,sub-017,1.0,stroop_test,60.60326918255608,
,,,,,,,,,,,,,,,,,,,,,,,,,,,,,,,,,,,,,,,,,,,,,,,,,,,,,,,,,,,,,,,,,,,,39.55819999999949,39.57248439999967,39.57248439999967,41.323123100002704,space,1.742353199995705,,,,,,,,,,,,,,,,,,,,,,,,,,,,,,,sub-017,1.0,stroop_test,60.60326918255608,
,,,,0.0,0.0,0.0,,,,,gelb,blue,b,0.0,b,1.0,0.8826374999989639,,,,,,,,,,,,,,0.0,0.0,0.0,9.0,,,,,41.33785680000437,,,,,,,,,,,,,,,,,41.3311704000007,42.537352800005465,43.33651120000286,43.32141080000292,,,,,,,,,,,,,,,,43.32684380000137,43.33651120000286,43.33651120000286,44.223566100001335,b,1.0,0.8826374999989639,,44.23399830000562,44.23880199999985,45.23593280000205,,,,,,,,,,,,,,,,,,,sub-017,1.0,stroop_test,60.60326918255608,
,,,,1.0,1.0,0.0,,,,,rot,red,r,1.0,r,1.0,0.4961192999980994,,,,,,,,,,,,,,0.0,1.0,1.0,0.0,,,,,45.25218170000153,,,,,,,,,,,,,,,,,45.23646849999932,46.43470890000026,47.23429030000261,47.21897800000443,,,,,,,,,,,,,,,,47.22430140000506,47.23429030000261,47.23429030000261,47.73709320000489,r,1.0,0.4961192999980994,,47.737680800004455,47.75047579999955,48.73457739999867,48.75017110000044,,,,,,,,,,,,,,,,,,sub-017,1.0,stroop_test,60.60326918255608,
,,,,2.0,2.0,0.0,,,,,blau,red,r,0.0,r,1.0,0.4201556999978493,,,,,,,,,,,,,,0.0,2.0,2.0,4.0,,,,,48.75017110000044,,,,,,,,,,,,,,,,,48.734879399999045,49.549328500004776,50.3487094000011,50.33385610000551,,,,,,,,,,,,,,,,50.34274600000208,50.3487094000011,50.3487094000011,50.78419360000407,r,1.0,0.4201556999978493,,50.784793400001945,50.79856320000545,51.782502599999134,51.79798580000352,,,,,,,,,,,,,,,,,,sub-017,1.0,stroop_test,60.60326918255608,
,,,,3.0,3.0,0.0,,,,,blau,blue,b,1.0,b,1.0,0.5340813000002527,,,,,,,,,,,,,,0.0,3.0,3.0,5.0,,,,,51.79798580000352,,,,,,,,,,,,,,,,,51.78315510000539,52.14776540000457,52.94767330000468,52.932630100003735,,,,,,,,,,,,,,,,52.93361659999937,52.94767330000468,52.94767330000468,53.5008736000018,b,1.0,0.5340813000002527,,53.502095000003465,53.513806300004944,54.49857820000034,54.51292960000137,,,,,,,,,,,,,,,,,,sub-017,1.0,stroop_test,60.60326918255608,
,,,,4.0,4.0,0.0,,,,,gelb,red,r,0.0,r,1.0,0.5616273999985424,,,,,,,,,,,,,,0.0,4.0,4.0,8.0,,,,,54.51292960000137,,,,,,,,,,,,,,,,,54.49949059999926,54.862865100003546,55.66232090000267,55.64660670000012,,,,,,,,,,,,,,,,55.64959960000124,55.66232090000267,55.66232090000267,56.23043730000063,r,1.0,0.5616273999985424,,56.23110820000147,56.24524830000155,57.22948539999925,57.24459950000164,,,,,,,,,,,,,,,,,,sub-017,1.0,stroop_test,60.60326918255608,
,,,,5.0,5.0,0.0,,,,,gelb,yellow,g,1.0,g,1.0,0.6426139999966836,,,,,,,,,,,,,,0.0,5.0,5.0,11.0,,,,,57.24459950000164,,,,,,,,,,,,,,,,,57.22982400000183,58.043956100002106,58.843677700002445,58.8286528000026,,,,,,,,,,,,,,,,58.82925719999912,58.843677700002445,58.843677700002445,59.49438620000001,g,1.0,0.6426139999966836,,59.49484669999947,59.509647300001234,60.4929661999995,60.50920659999974,,,,,,,,,,,,,,,,,,sub-017,1.0,stroop_test,60.60326918255608,
,,,,6.0,6.0,0.0,,,,,rot,yellow,g,0.0,g,1.0,0.6657122999968124,,,,,,,,,,,,,,0.0,6.0,6.0,3.0,,,,,60.50920659999974,,,,,,,,,,,,,,,,,60.49321990000317,60.858657500000845,61.658373900005245,61.64474340000015,,,,,,,,,,,,,,,,61.64910710000549,61.658373900005245,61.658373900005245,62.32749870000407,g,1.0,0.6657122999968124,,62.32798760000151,62.341264200003934,63.32547129999875,63.34071530000074,,,,,,,,,,,,,,,,,,sub-017,1.0,stroop_test,60.60326918255608,
,,,,7.0,7.0,0.0,,,,,blau,blue,b,1.0,b,1.0,0.4924187999931746,,,,,,,,,,,,,,0.0,7.0,7.0,6.0,,,,,63.34071530000074,,,,,,,,,,,,,,,,,63.32586100000481,63.690636899998935,64.49005860000034,64.47492559999955,,,,,,,,,,,,,,,,64.4804593000008,64.49005860000034,64.49005860000034,64.99208229999931,b,1.0,0.4924187999931746,,64.99268139999913,65.00621500000125,65.99132500000269,66.00569440000254,,,,,,,,,,,,,,,,,,sub-017,1.0,stroop_test,60.60326918255608,
,,,,8.0,8.0,0.0,,,,,rot,blue,b,0.0,b,1.0,0.4972650999989128,,,,,,,,,,,,,,0.0,8.0,8.0,2.0,,,,,66.00569440000254,,,,,,,,,,,,,,,,,65.99219689999882,66.80559010000434,67.60466960000485,67.58941500000219,,,,,,,,,,,,,,,,67.59301200000482,67.60466960000485,67.60466960000485,68.10699290000048,b,1.0,0.4972650999989128,,68.10750990000088,68.12094369999977,69.1055841999987,69.12033720000181,,,,,,,,,,,,,,,,,,sub-017,1.0,stroop_test,60.60326918255608,
,,,,9.0,9.0,0.0,,,,,blau,yellow,g,0.0,g,1.0,0.7096232999974745,,,,,,,,,,,,,,0.0,9.0,9.0,7.0,,,,,69.12033720000181,,,,,,,,,,,,,,,,,69.10614540000097,69.91969870000321,70.7198628000042,70.70359230000031,,,,,,,,,,,,,,,,70.70583500000066,70.7198628000042,70.7198628000042,71.43685109999933,g,1.0,0.7096232999974745,,71.4373268000054,71.45213360000344,72.43636920000426,72.451332800003,,,,,,,,,,,,,,,,,,sub-017,1.0,stroop_test,60.60326918255608,
,,,,10.0,10.0,0.0,,,,,rot,red,r,1.0,r,1.0,0.513311499998963,,,,,,,,,,,,,,0.0,10.0,10.0,1.0,,,,,72.451332800003,,,,,,,,,,,,,,,,,72.43675220000296,73.6509017999997,74.45027700000355,74.43493010000384,,,,,,,,,,,,,,,,74.43846660000418,74.45027700000355,74.45027700000355,74.96805000000313,r,1.0,0.513311499998963,,74.96856750000006,74.9832322000002,75.9673580000017,75.98260200000368,,,,,,,,,,,,,,,,,,sub-017,1.0,stroop_test,60.60326918255608,
,,,,11.0,11.0,0.0,,,,,gelb,yellow,g,1.0,g,1.0,0.5730117999992217,,,,,,,,,,,,,,0.0,11.0,11.0,10.0,,,,,75.98260200000368,,,,,,,,,,,,,,,,,75.96767869999894,76.78201139999874,77.58160969999881,77.56709180000325,,,,,,,,,,,,,,,,77.57290379999904,77.58160969999881,77.58160969999881,78.16584390000207,g,1.0,0.5730117999992217,,78.16648089999944,78.18119899999874,79.165588200005,79.18068109999876,,,,,,,,,,,,,,,,,,sub-017,1.0,stroop_test,60.60326918255608,
,,,,12.0,0.0,1.0,,,,,gelb,yellow,g,1.0,g,1.0,0.5643767999936244,,,,,,,,,,,,,,1.0,0.0,12.0,11.0,,,,,79.18068109999876,,,,,,,,,,,,,,,,,79.16627470000094,79.53050340000482,80.3302954000028,80.31386710000515,,,,,,,,,,,,,,,,80.31419620000088,80.3302954000028,80.3302954000028,80.89808320000157,g,1.0,0.5643767999936244,,80.89872430000105,80.91270960000111,81.89765030000126,81.91298900000402,,,,,,,,,,,,,,,,,,sub-017,1.0,stroop_test,60.60326918255608,
,,,,13.0,1.0,1.0,,,,,rot,red,r,1.0,r,1.0,0.4920759000015096,,,,,,,,,,,,,,1.0,1.0,13.0,1.0,,,,,81.91298900000402,,,,,,,,,,,,,,,,,81.89828960000159,82.71169980000559,83.51111400000082,83.49572510000144,,,,,,,,,,,,,,,,83.4991244000048,83.51111400000082,83.51111400000082,84.01225749999867,r,1.0,0.4920759000015096,,84.01276460000372,84.02758860000176,85.012392800003,85.0272008000029,,,,,,,,,,,,,,,,,,sub-017,1.0,stroop_test,60.60326918255608,
,,,,14.0,2.0,1.0,,,,,gelb,blue,b,0.0,b,1.0,0.5793862999998964,,,,,,,,,,,,,,1.0,2.0,14.0,9.0,,,,,85.0272008000029,,,,,,,,,,,,,,,,,85.01290600000357,86.22608310000214,87.02545810000447,87.0096166000003,,,,,,,,,,,,,,,,87.01182580000022,87.02545810000447,87.02545810000447,87.61032790000172,b,1.0,0.5793862999998964,,87.61094779999985,87.62528310000198,88.60972949999996,88.62452340000164,,,,,,,,,,,,,,,,,,sub-017,1.0,stroop_test,60.60326918255608,
,,,,15.0,3.0,1.0,,,,,gelb,yellow,g,1.0,g,1.0,0.5763059999953839,,,,,,,,,,,,,,1.0,3.0,15.0,10.0,,,,,88.62452340000164,,,,,,,,,,,,,,,,,88.6100551999989,88.72447539999848,89.52410500000406,89.5089611000003,,,,,,,,,,,,,,,,89.5095236000052,89.52410500000406,89.52410500000406,90.1089243000024,g,1.0,0.5763059999953839,,90.10948560000544,90.12378210000315,91.10782499999914,91.12315750000562,,,,,,,,,,,,,,,,,,sub-017,1.0,stroop_test,60.60326918255608,
,,,,16.0,4.0,1.0,,,,,blau,blue,b,1.0,b,1.0,0.5508279999994556,,,,,,,,,,,,,,1.0,4.0,16.0,5.0,,,,,91.12315750000562,,,,,,,,,,,,,,,,,91.10848760000226,92.32217479999964,93.12153910000052,93.10589930000424,,,,,,,,,,,,,,,,93.11144390000118,93.12153910000052,93.12153910000052,93.68948380000074,b,1.0,0.5508279999994556,,93.68993920000504,93.70469289999892,94.68876580000506,94.70402760000434,,,,,,,,,,,,,,,,,,sub-017,1.0,stroop_test,60.60326918255608,
,,,,17.0,5.0,1.0,,,,,blau,red,r,0.0,r,1.0,1.0823490000038871,,,,,,,,,,,,,,1.0,5.0,17.0,4.0,,,,,94.70402760000434,,,,,,,,,,,,,,,,,94.68907990000298,95.90348510000332,96.70302690000244,96.6874689000033,,,,,,,,,,,,,,,,96.68807680000464,96.70302690000244,96.70302690000244,97.79000500000257,r,1.0,1.0823490000038871,,97.79083840000384,97.80250299999898,98.78647650000494,98.80152639999868,,,,,,,,,,,,,,,,,,sub-017,1.0,stroop_test,60.60326918255608,
,,,,18.0,6.0,1.0,,,,,gelb,red,r,0.0,r,1.0,0.7934414999981527,,,,,,,,,,,,,,1.0,6.0,18.0,8.0,,,,,98.80152639999868,,,,,,,,,,,,,,,,,98.78681510000024,100.00097290000122,100.80021190000116,100.78461570000218,,,,,,,,,,,,,,,,100.78708349999944,100.80021190000116,100.80021190000116,101.60156770000322,r,1.0,0.7934414999981527,,101.6020198000042,101.61617380000098,102.6014731000032,102.61581920000026,,,,,,,,,,,,,,,,,,sub-017,1.0,stroop_test,60.60326918255608,
,,,,19.0,7.0,1.0,,,,,blau,blue,b,1.0,b,1.0,1.7149203000008129,,,,,,,,,,,,,,1.0,7.0,19.0,6.0,,,,,102.61581920000026,,,,,,,,,,,,,,,,,102.60189290000562,103.4151458999986,104.21466180000424,104.19921060000344,,,,,,,,,,,,,,,,104.20319510000265,104.21466180000424,104.21466180000424,105.93321850000213,b,1.0,1.7149203000008129,,105.93382170000405,105.94716940000217,106.93245279999974,106.94641590000538,,,,,,,,,,,,,,,,,,sub-017,1.0,stroop_test,60.60326918255608,
,,,,20.0,8.0,1.0,,,,,rot,yellow,g,0.0,g,1.0,0.9488146000003326,,,,,,,,,,,,,,1.0,8.0,20.0,3.0,,,,,106.94641590000538,,,,,,,,,,,,,,,,,106.93319809999956,107.0464448000057,107.8456118000031,107.83116220000376,,,,,,,,,,,,,,,,107.83921750000444,107.8456118000031,107.8456118000031,108.79706029999944,g,1.0,0.9488146000003326,,108.79755229999864,108.81164770000032,109.79601090000506,109.81122410000536,,,,,,,,,,,,,,,,,,sub-017,1.0,stroop_test,60.60326918255608,
,,,,21.0,9.0,1.0,,,,,blau,yellow,g,0.0,g,1.0,1.021945100001176,,,,,,,,,,,,,,1.0,9.0,21.0,7.0,,,,,109.81122410000536,,,,,,,,,,,,,,,,,109.7964362999992,110.61058459999911,111.40998910000052,111.39442170000255,,,,,,,,,,,,,,,,111.40202950000094,111.40998910000052,111.40998910000052,112.44590769999922,g,1.0,1.021945100001176,,112.44709610000427,112.45960620000552,113.4442498999997,113.458867500005,,,,,,,,,,,,,,,,,,sub-017,1.0,stroop_test,60.60326918255608,
,,,,22.0,10.0,1.0,,,,,rot,blue,b,0.0,b,1.0,0.8268048999962048,,,,,,,,,,,,,,1.0,10.0,22.0,2.0,,,,,113.458867500005,,,,,,,,,,,,,,,,,113.4450652000014,113.55875970000488,114.35810060000222,114.34483349999935,,,,,,,,,,,,,,,,114.35117800000444,114.35810060000222,114.35810060000222,115.19480490000568,b,1.0,0.8268048999962048,,115.19549380000537,115.20774930000334,116.1930816000022,116.20702829999937,,,,,,,,,,,,,,,,,,sub-017,1.0,stroop_test,60.60326918255608,
,,,,23.0,11.0,1.0,,,,,rot,red,r,1.0,r,1.0,0.5928796000007424,,,,,,,,,,,,,,1.0,11.0,23.0,0.0,,,,,116.20702829999937,,,,,,,,,,,,,,,,,116.19388840000464,117.0066233000034,117.80594959999873,117.79076830000122,,,,,,,,,,,,,,,,117.79135859999953,117.80594959999873,117.80594959999873,118.40751789999922,r,1.0,0.5928796000007424,,118.40811380000378,118.42238530000031,119.40707480000128,119.42169619999912,,,,,,,,,,,,,,,,,,sub-017,1.0,stroop_test,60.60326918255608,
,,,,,,,,,,,,,,,,,,,,,,,,,,,,,,,,,,,,,,,,,,,,,,,,,,,,,,,,,,,,,,,,,,,,,,,,,,,,,,,,,,,,,,,119.40730050000276,119.42169619999912,119.42169619999912,121.73852780000016,space,2.302465499997197,,,,,,,,,,,,sub-017,1.0,stroop_test,60.60326918255608,
,,,,0.0,0.0,0.0,,,,,,,,,,,,,gelb,red,r,0.0,r,1.0,0.5079362000033143,,,,,,,,,,0.0,0.0,0.0,8.0,121.7534203000032,,,,,,,,,,,,,,,,,121.74798849999934,122.95292310000514,123.75245010000071,123.73754760000156,,,,,,,,,,,,,,,,,,,,,,,,,,,,,,,,,,,123.74091269999916,123.75245010000071,123.75245010000071,124.2711086000054,r,1.0,0.5079362000033143,,,,sub-017,1.0,stroop_test,60.60326918255608,
,,,,1.0,1.0,0.0,,,,,,,,,,,,,gelb,yellow,g,1.0,g,1.0,1.2744917000018177,,,,,,,,,,0.0,1.0,1.0,11.0,124.28552160000254,,,,,,,,,,,,,,,,,124.27151520000189,125.48464719999902,126.28443410000182,126.26853660000052,,,,,,,,,,,,,,,,,,,,,,,,,,,,,,,,,,,126.26983850000396,126.28443410000182,126.28443410000182,127.57075750000512,g,1.0,1.2744917000018177,,,,sub-017,1.0,stroop_test,60.60326918255608,
,,,,2.0,2.0,0.0,,,,,,,,,,,,,rot,red,r,1.0,r,1.0,0.7567605999938678,,,,,,,,,,0.0,2.0,2.0,1.0,127.58324030000222,,,,,,,,,,,,,,,,,127.57144160000462,128.78279260000272,129.5818991999986,129.5667706000022,,,,,,,,,,,,,,,,,,,,,,,,,,,,,,,,,,,129.57323510000424,129.5818991999986,129.5818991999986,130.34896039999876,r,1.0,0.7567605999938678,,,,sub-017,1.0,stroop_test,60.60326918255608,
,,,,3.0,3.0,0.0,,,,,,,,,,,,,blau,blue,b,1.0,b,1.0,0.650228700003936,,,,,,,,,,0.0,3.0,3.0,6.0,130.36445990000357,,,,,,,,,,,,,,,,,130.34921659999964,131.16420720000315,131.96375660000194,131.94831220000196,,,,,,,,,,,,,,,,,,,,,,,,,,,,,,,,,,,131.95140309999988,131.96375660000194,131.96375660000194,132.61797659999866,b,1.0,0.650228700003936,,,,sub-017,1.0,stroop_test,60.60326918255608,
,,,,4.0,4.0,0.0,,,,,,,,,,,,,blau,yellow,g,0.0,g,1.0,0.8684480000010808,,,,,,,,,,0.0,4.0,4.0,7.0,132.6300775999989,,,,,,,,,,,,,,,,,132.6185820000028,132.97997450000548,133.77937100000418,133.76480509999965,,,,,,,,,,,,,,,,,,,,,,,,,,,,,,,,,,,133.76559819999966,133.77937100000418,133.77937100000418,134.6652030000041,g,1.0,0.8684480000010808,,,,sub-017,1.0,stroop_test,60.60326918255608,
,,,,5.0,5.0,0.0,,,,,,,,,,,,,gelb,yellow,g,1.0,g,1.0,0.6359178000057,,,,,,,,,,0.0,5.0,5.0,10.0,134.6787586999999,,,,,,,,,,,,,,,,,134.6659035000048,135.02871289999894,135.82804110000143,135.81248820000474,,,,,,,,,,,,,,,,,,,,,,,,,,,,,,,,,,,135.81631210000342,135.82804110000143,135.82804110000143,136.48108440000215,g,1.0,0.6359178000057,,,,sub-017,1.0,stroop_test,60.60326918255608,
,,,,6.0,6.0,0.0,,,,,,,,,,,,,blau,red,r,0.0,r,1.0,1.6961596999972244,,,,,,,,,,0.0,6.0,6.0,4.0,136.49413320000167,,,,,,,,,,,,,,,,,136.48181979999936,137.29363790000207,138.0930398000055,138.0790061000007,,,,,,,,,,,,,,,,,,,,,,,,,,,,,,,,,,,138.08606539999892,138.0930398000055,138.0930398000055,139.79355360000045,r,1.0,1.6961596999972244,,,,sub-017,1.0,stroop_test,60.60326918255608,
,,,,7.0,7.0,0.0,,,,,,,,,,,,,rot,red,r,1.0,r,1.0,0.5154009000034421,,,,,,,,,,0.0,7.0,7.0,0.0,139.80873879999854,,,,,,,,,,,,,,,,,139.7938976000005,139.90892980000353,140.70820020000247,140.69312490000448,,,,,,,,,,,,,,,,,,,,,,,,,,,,,,,,,,,140.69712440000148,140.70820020000247,140.70820020000247,141.22790930000338,r,1.0,0.5154009000034421,,,,sub-017,1.0,stroop_test,60.60326918255608,
,,,,8.0,8.0,0.0,,,,,,,,,,,,,gelb,blue,b,0.0,b,1.0,0.7775220999974408,,,,,,,,,,0.0,8.0,8.0,9.0,141.2413080000042,,,,,,,,,,,,,,,,,141.2285195000004,141.3411716000046,142.140641900005,142.12703390000388,,,,,,,,,,,,,,,,,,,,,,,,,,,,,,,,,,,142.13108490000013,142.140641900005,142.140641900005,142.92626830000518,b,1.0,0.7775220999974408,,,,sub-017,1.0,stroop_test,60.60326918255608,
,,,,9.0,9.0,0.0,,,,,,,,,,,,,rot,yellow,g,0.0,g,1.0,0.7713930000027176,,,,,,,,,,0.0,9.0,9.0,3.0,142.94018650000362,,,,,,,,,,,,,,,,,142.92693700000382,144.13952430000063,144.93862210000225,144.92324550000194,,,,,,,,,,,,,,,,,,,,,,,,,,,,,,,,,,,144.92651570000453,144.93862210000225,144.93862210000225,145.72389820000535,g,1.0,0.7713930000027176,,,,sub-017,1.0,stroop_test,60.60326918255608,
,,,,10.0,10.0,0.0,,,,,,,,,,,,,blau,blue,b,1.0,b,1.0,0.5018323000040255,,,,,,,,,,0.0,10.0,10.0,5.0,145.7381355000034,,,,,,,,,,,,,,,,,145.7242941000004,145.8382322000034,146.6377044000037,146.62263160000293,,,,,,,,,,,,,,,,,,,,,,,,,,,,,,,,,,,146.6270485999994,146.6377044000037,146.6377044000037,147.15679130000353,b,1.0,0.5018323000040255,,,,sub-017,1.0,stroop_test,60.60326918255608,
,,,,11.0,11.0,0.0,,,,,,,,,,,,,rot,blue,b,0.0,b,1.0,0.3956764999966253,,,,,,,,,,0.0,11.0,11.0,2.0,147.17101040000125,,,,,,,,,,,,,,,,,147.15716110000358,147.5206907000029,148.3201876000021,148.30556069999875,,,,,,,,,,,,,,,,,,,,,,,,,,,,,,,,,,,148.30931129999954,148.3201876000021,148.3201876000021,148.7219929999992,b,1.0,0.3956764999966253,,,,sub-017,1.0,stroop_test,60.60326918255608,
,,,,12.0,0.0,1.0,,,,,,,,,,,,,blau,yellow,g,0.0,g,1.0,0.5839873000004445,,,,,,,,,,1.0,0.0,12.0,7.0,148.7361746000024,,,,,,,,,,,,,,,,,148.7224047999989,149.08628170000156,149.88569619999907,149.8706880000027,,,,,,,,,,,,,,,,,,,,,,,,,,,,,,,,,,,149.87829179999972,149.88569619999907,149.88569619999907,150.48644780000177,g,1.0,0.5839873000004445,,,,sub-017,1.0,stroop_test,60.60326918255608,
,,,,13.0,1.0,1.0,,,,,,,,,,,,,rot,red,r,1.0,r,1.0,0.4266963000045507,,,,,,,,,,1.0,1.0,13.0,1.0,150.50195550000353,,,,,,,,,,,,,,,,,150.48678160000418,150.85214120000455,151.65125290000287,151.63586210000358,,,,,,,,,,,,,,,,,,,,,,,,,,,,,,,,,,,151.639242199999,151.65125290000287,151.65125290000287,152.08671870000398,r,1.0,0.4266963000045507,,,,sub-017,1.0,stroop_test,60.60326918255608,
,,,,14.0,2.0,1.0,,,,,,,,,,,,,rot,blue,b,0.0,b,1.0,0.6879985999985365,,,,,,,,,,1.0,2.0,14.0,2.0,152.1011870000002,,,,,,,,,,,,,,,,,152.08707880000293,153.3004088000016,154.0997858000046,154.08479600000285,,,,,,,,,,,,,,,,,,,,,,,,,,,,,,,,,,,154.0856156000009,154.0997858000046,154.0997858000046,154.8017914000011,b,1.0,0.6879985999985365,,,,sub-017,1.0,stroop_test,60.60326918255608,
,,,,15.0,3.0,1.0,,,,,,,,,,,,,gelb,blue,b,0.0,b,1.0,0.4879055999990669,,,,,,,,,,1.0,3.0,15.0,9.0,154.8158809000015,,,,,,,,,,,,,,,,,154.80212670000037,155.16597470000124,155.9651692000043,155.9509102000011,,,,,,,,,,,,,,,,,,,,,,,,,,,,,,,,,,,155.95662240000092,155.9651692000043,155.9651692000043,156.46867660000134,b,1.0,0.4879055999990669,,,,sub-017,1.0,stroop_test,60.60326918255608,
,,,,16.0,4.0,1.0,,,,,,,,,,,,,rot,red,r,1.0,r,1.0,0.3574405999970622,,,,,,,,,,1.0,4.0,16.0,0.0,156.4815224000049,,,,,,,,,,,,,,,,,156.4694651000027,157.2812550000017,158.08037410000543,158.06531779999932,,,,,,,,,,,,,,,,,,,,,,,,,,,,,,,,,,,158.06926750000275,158.08037410000543,158.08037410000543,158.44957989999966,r,1.0,0.3574405999970622,,,,sub-017,1.0,stroop_test,60.60326918255608,
,,,,17.0,5.0,1.0,,,,,,,,,,,,,blau,blue,b,1.0,b,1.0,0.5293288000029861,,,,,,,,,,1.0,5.0,17.0,5.0,158.46367270000337,,,,,,,,,,,,,,,,,158.45023040000524,158.8137790000037,159.61297710000508,159.59795920000033,,,,,,,,,,,,,,,,,,,,,,,,,,,,,,,,,,,159.60210960000404,159.61297710000508,159.61297710000508,160.1491165000043,b,1.0,0.5293288000029861,,,,sub-017,1.0,stroop_test,60.60326918255608,
,,,,18.0,6.0,1.0,,,,,,,,,,,,,gelb,yellow,g,1.0,g,1.0,0.5734335000015562,,,,,,,,,,1.0,6.0,18.0,10.0,160.16257459999906,,,,,,,,,,,,,,,,,160.14963290000014,160.51208260000567,161.3118730999995,161.29678879999847,,,,,,,,,,,,,,,,,,,,,,,,,,,,,,,,,,,161.3032985000027,161.3118730999995,161.3118730999995,161.89739800000098,g,1.0,0.5734335000015562,,,,sub-017,1.0,stroop_test,60.60326918255608,
,,,,19.0,7.0,1.0,,,,,,,,,,,,,rot,yellow,g,0.0,g,1.0,1.0606103999962215,,,,,,,,,,1.0,7.0,19.0,3.0,161.9115426999997,,,,,,,,,,,,,,,,,161.8978786000007,163.11075290000008,163.91004900000553,163.89441030000307,,,,,,,,,,,,,,,,,,,,,,,,,,,,,,,,,,,163.8980894999986,163.91004900000553,163.91004900000553,164.97802239999874,g,1.0,1.0606103999962215,,,,sub-017,1.0,stroop_test,60.60326918255608,
,,,,20.0,8.0,1.0,,,,,,,,,,,,,gelb,yellow,g,1.0,g,1.0,0.5602560999977868,,,,,,,,,,1.0,8.0,20.0,11.0,164.9929362000039,,,,,,,,,,,,,,,,,164.97836739999912,165.0927489000023,165.89211220000288,165.87653729999874,,,,,,,,,,,,,,,,,,,,,,,,,,,,,,,,,,,165.8791652,165.89211220000288,165.89211220000288,166.46081360000244,g,1.0,0.5602560999977868,,,,sub-017,1.0,stroop_test,60.60326918255608,
,,,,21.0,9.0,1.0,,,,,,,,,,,,,gelb,red,r,0.0,r,1.0,0.5104103999983636,,,,,,,,,,1.0,9.0,21.0,8.0,166.4750295000049,,,,,,,,,,,,,,,,,166.46139050000056,166.82472170000256,167.62415060000058,167.60973250000097,,,,,,,,,,,,,,,,,,,,,,,,,,,,,,,,,,,167.61040930000308,167.62415060000058,167.62415060000058,168.1421455000018,r,1.0,0.5104103999983636,,,,sub-017,1.0,stroop_test,60.60326918255608,
,,,,22.0,10.0,1.0,,,,,,,,,,,,,blau,red,r,0.0,r,1.0,0.4852401000025566,,,,,,,,,,1.0,10.0,22.0,4.0,168.157360600002,,,,,,,,,,,,,,,,,168.1424449000042,168.95686160000332,169.75633599999856,169.7411307000002,,,,,,,,,,,,,,,,,,,,,,,,,,,,,,,,,,,169.744537999999,169.75633599999856,169.75633599999856,170.25806490000105,r,1.0,0.4852401000025566,,,,sub-017,1.0,stroop_test,60.60326918255608,
,,,,23.0,11.0,1.0,,,,,,,,,,,,,blau,blue,b,1.0,b,1.0,0.5767030999995768,,,,,,,,,,1.0,11.0,23.0,6.0,170.2727006999994,,,,,,,,,,,,,,,,,170.2584499000004,170.62258750000183,171.42209220000225,171.40739530000428,,,,,,,,,,,,,,,,,,,,,,,,,,,,,,,,,,,171.40836290000152,171.42209220000225,171.42209220000225,172.00766609999846,b,1.0,0.5767030999995768,,,,sub-017,1.0,stroop_test,60.60326918255608,
,,,,24.0,0.0,2.0,,,,,,,,,,,,,blau,blue,b,1.0,b,1.0,0.4744053999966127,,,,,,,,,,2.0,0.0,24.0,5.0,172.0216287000003,,,,,,,,,,,,,,,,,172.00814769999852,172.82134130000486,173.62061119999998,173.6052037000045,,,,,,,,,,,,,,,,,,,,,,,,,,,,,,,,,,,173.60577550000016,173.62061119999998,173.62061119999998,174.10568900000362,b,1.0,0.4744053999966127,,,,sub-017,1.0,stroop_test,60.60326918255608,
,,,,25.0,1.0,2.0,,,,,,,,,,,,,blau,blue,b,1.0,b,1.0,0.3506789999955799,,,,,,,,,,2.0,1.0,25.0,6.0,174.1201957000012,,,,,,,,,,,,,,,,,174.10613230000308,174.46996420000505,175.2698543000006,175.2543183000016,,,,,,,,,,,,,,,,,,,,,,,,,,,,,,,,,,,175.2553418000025,175.2698543000006,175.2698543000006,175.6375685000021,b,1.0,0.3506789999955799,,,,sub-017,1.0,stroop_test,60.60326918255608,
,,,,26.0,2.0,2.0,,,,,,,,,,,,,gelb,red,r,0.0,r,1.0,1.491229999999632,,,,,,,,,,2.0,2.0,26.0,8.0,175.65258090000134,,,,,,,,,,,,,,,,,175.6378804000051,176.85186460000114,177.65146280000044,177.6363532000032,,,,,,,,,,,,,,,,,,,,,,,,,,,,,,,,,,,177.63984410000558,177.65146280000044,177.65146280000044,179.15236469999945,r,1.0,1.491229999999632,,,,sub-017,1.0,stroop_test,60.60326918255608,
,,,,27.0,3.0,2.0,,,,,,,,,,,,,blau,yellow,g,0.0,g,1.0,1.4539134000006015,,,,,,,,,,2.0,3.0,27.0,7.0,179.16696490000322,,,,,,,,,,,,,,,,,179.15278870000475,179.9667413999996,180.765922700004,180.75145460000203,,,,,,,,,,,,,,,,,,,,,,,,,,,,,,,,,,,180.7566580000057,180.765922700004,180.765922700004,182.2338097000029,g,1.0,1.4539134000006015,,,,sub-017,1.0,stroop_test,60.60326918255608,
,,,,28.0,4.0,2.0,,,,,,,,,,,,,rot,yellow,g,0.0,g,1.0,0.604036199998518,,,,,,,,,,2.0,4.0,28.0,3.0,182.24890060000325,,,,,,,,,,,,,,,,,182.23418620000305,183.44780960000207,184.2472620000044,184.2318788000048,,,,,,,,,,,,,,,,,,,,,,,,,,,,,,,,,,,184.23898960000224,184.2472620000044,184.2472620000044,184.86491170000227,g,1.0,0.604036199998518,,,,sub-017,1.0,stroop_test,60.60326918255608,
,,,,29.0,5.0,2.0,,,,,,,,,,,,,gelb,yellow,g,1.0,g,1.0,0.4601934999955119,,,,,,,,,,2.0,5.0,29.0,10.0,184.8801534000013,,,,,,,,,,,,,,,,,184.86526589999997,185.67949690000387,186.47934420000087,186.4642748000042,,,,,,,,,,,,,,,,,,,,,,,,,,,,,,,,,,,186.4691068000029,186.47934420000087,186.47934420000087,186.9479108000014,g,1.0,0.4601934999955119,,,,sub-017,1.0,stroop_test,60.60326918255608,
,,,,30.0,6.0,2.0,,,,,,,,,,,,,rot,red,r,1.0,r,1.0,0.5103458000012324,,,,,,,,,,2.0,6.0,30.0,1.0,186.962002500004,,,,,,,,,,,,,,,,,186.9483021000051,187.7618158000041,188.5610718000025,188.5464015000034,,,,,,,,,,,,,,,,,,,,,,,,,,,,,,,,,,,188.5506108000045,188.5610718000025,188.5610718000025,189.07911590000003,r,1.0,0.5103458000012324,,,,sub-017,1.0,stroop_test,60.60326918255608,
,,,,31.0,7.0,2.0,,,,,,,,,,,,,blau,red,r,0.0,r,1.0,0.3422611999994842,,,,,,,,,,2.0,7.0,31.0,4.0,189.09453620000568,,,,,,,,,,,,,,,,,189.079492900004,189.89429029999883,190.69317600000068,190.6787862000056,,,,,,,,,,,,,,,,,,,,,,,,,,,,,,,,,,,190.68385410000337,190.69317600000068,190.69317600000068,191.0452785000016,r,1.0,0.3422611999994842,,,,sub-017,1.0,stroop_test,60.60326918255608,
,,,,32.0,8.0,2.0,,,,,,,,,,,,,rot,blue,b,0.0,b,1.0,0.5357269999949494,,,,,,,,,,2.0,8.0,32.0,2.0,191.05970160000288,,,,,,,,,,,,,,,,,191.0456747999997,191.15962710000167,191.9590548999986,191.94366150000133,,,,,,,,,,,,,,,,,,,,,,,,,,,,,,,,,,,191.94849850000173,191.9590548999986,191.9590548999986,192.51033860000464,b,1.0,0.5357269999949494,,,,sub-017,1.0,stroop_test,60.60326918255608,
,,,,33.0,9.0,2.0,,,,,,,,,,,,,gelb,blue,b,0.0,b,1.0,0.4723554000011063,,,,,,,,,,2.0,9.0,33.0,9.0,192.52587250000212,,,,,,,,,,,,,,,,,192.5109369000056,193.32528340000133,194.1243506000028,194.1103121999986,,,,,,,,,,,,,,,,,,,,,,,,,,,,,,,,,,,194.1160653000043,194.1243506000028,194.1243506000028,194.61009259999992,b,1.0,0.4723554000011063,,,,sub-017,1.0,stroop_test,60.60326918255608,
,,,,34.0,10.0,2.0,,,,,,,,,,,,,gelb,yellow,g,1.0,g,1.0,0.4681770999959553,,,,,,,,,,2.0,10.0,34.0,11.0,194.6240431000042,,,,,,,,,,,,,,,,,194.6108298000036,194.7242458000037,195.52344599999924,195.50849749999907,,,,,,,,,,,,,,,,,,,,,,,,,,,,,,,,,,,195.5092087000012,195.52344599999924,195.52344599999924,196.00800829999932,g,1.0,0.4681770999959553,,,,sub-017,1.0,stroop_test,60.60326918255608,
,,,,35.0,11.0,2.0,,,,,,,,,,,,,rot,red,r,1.0,r,1.0,0.4436997000011615,,,,,,,,,,2.0,11.0,35.0,0.0,196.0233608000053,,,,,,,,,,,,,,,,,196.00836260000503,196.1235161000004,196.9224945000024,196.90799379999956,,,,,,,,,,,,,,,,,,,,,,,,,,,,,,,,,,,196.91223750000063,196.9224945000024,196.9224945000024,197.37453660000028,r,1.0,0.4436997000011615,,,,sub-017,1.0,stroop_test,60.60326918255608,
,,,,36.0,0.0,3.0,,,,,,,,,,,,,blau,red,r,0.0,r,1.0,0.4593746000027749,,,,,,,,,,3.0,0.0,36.0,4.0,197.38890710000123,,,,,,,,,,,,,,,,,197.374891200001,197.738566,198.5379591000019,198.52353340000263,,,,,,,,,,,,,,,,,,,,,,,,,,,,,,,,,,,198.52886570000555,198.5379591000019,198.5379591000019,199.00560950000363,r,1.0,0.4593746000027749,,,,sub-017,1.0,stroop_test,60.60326918255608,
,,,,37.0,1.0,3.0,,,,,,,,,,,,,gelb,yellow,g,1.0,g,1.0,0.551034800002526,,,,,,,,,,3.0,1.0,37.0,11.0,199.02087230000325,,,,,,,,,,,,,,,,,199.00591500000155,199.82052630000544,200.62041820000013,200.60481870000515,,,,,,,,,,,,,,,,,,,,,,,,,,,,,,,,,,,200.60790160000036,200.62041820000013,200.62041820000013,201.18812840000464,g,1.0,0.551034800002526,,,,sub-017,1.0,stroop_test,60.60326918255608,
,,,,38.0,2.0,3.0,,,,,,,,,,,,,blau,yellow,g,0.0,g,1.0,0.5778751999969245,,,,,,,,,,3.0,2.0,38.0,7.0,201.2028347000014,,,,,,,,,,,,,,,,,201.1883729000037,202.00250170000072,202.8019733000037,202.78784050000104,,,,,,,,,,,,,,,,,,,,,,,,,,,,,,,,,,,202.79340439999945,202.8019733000037,202.8019733000037,203.38668600000528,g,1.0,0.5778751999969245,,,,sub-017,1.0,stroop_test,60.60326918255608,
,,,,39.0,3.0,3.0,,,,,,,,,,,,,rot,blue,b,0.0,b,1.0,0.6655807999995886,,,,,,,,,,3.0,3.0,39.0,2.0,203.40152350000423,,,,,,,,,,,,,,,,,203.3870415999991,204.6009782000037,205.40027120000013,205.3852249000047,,,,,,,,,,,,,,,,,,,,,,,,,,,,,,,,,,,205.38949169999975,205.40027120000013,205.40027120000013,206.0692285000041,b,1.0,0.6655807999995886,,,,sub-017,1.0,stroop_test,60.60326918255608,
,,,,40.0,4.0,3.0,,,,,,,,,,,,,blau,blue,b,1.0,b,1.0,0.7138097000060952,,,,,,,,,,3.0,4.0,40.0,6.0,206.08329320000485,,,,,,,,,,,,,,,,,206.06965160000252,206.88296170000103,207.6821828000029,207.66754500000388,,,,,,,,,,,,,,,,,,,,,,,,,,,,,,,,,,,207.6707852000036,207.6821828000029,207.6821828000029,208.4006653000033,b,1.0,0.7138097000060952,,,,sub-017,1.0,stroop_test,60.60326918255608,
,,,,41.0,5.0,3.0,,,,,,,,,,,,,gelb,yellow,g,1.0,g,1.0,0.5007633999994141,,,,,,,,,,3.0,5.0,41.0,10.0,208.4152248000028,,,,,,,,,,,,,,,,,208.4011377999996,209.61454490000324,210.4140317999991,210.3994653000045,,,,,,,,,,,,,,,,,,,,,,,,,,,,,,,,,,,210.4032348000037,210.4140317999991,210.4140317999991,210.93139350000277,g,1.0,0.5007633999994141,,,,sub-017,1.0,stroop_test,60.60326918255608,
,,,,42.0,6.0,3.0,,,,,,,,,,,,,blau,blue,b,1.0,b,1.0,0.5484101999973063,,,,,,,,,,3.0,6.0,42.0,5.0,210.9465696000043,,,,,,,,,,,,,,,,,210.93165350000345,212.1461744000044,212.94543870000047,212.930385700005,,,,,,,,,,,,,,,,,,,,,,,,,,,,,,,,,,,212.9333712000007,212.94543870000047,212.94543870000047,213.49868060000156,b,1.0,0.5484101999973063,,,,sub-017,1.0,stroop_test,60.60326918255608,
,,,,43.0,7.0,3.0,,,,,,,,,,,,,rot,red,r,1.0,r,1.0,0.4729747000019415,,,,,,,,,,3.0,7.0,43.0,1.0,213.51219459999996,,,,,,,,,,,,,,,,,213.4991104000001,214.711140899999,215.51072570000545,215.49562249999872,,,,,,,,,,,,,,,,,,,,,,,,,,,,,,,,,,,215.500703800004,215.51072570000545,215.51072570000545,215.9952380000032,r,1.0,0.4729747000019415,,,,sub-017,1.0,stroop_test,60.60326918255608,
,,,,44.0,8.0,3.0,,,,,,,,,,,,,rot,yellow,g,0.0,g,1.0,1.0051199000008637,,,,,,,,,,3.0,8.0,44.0,3.0,216.0102126000056,,,,,,,,,,,,,,,,,215.9955364999987,216.3602666000006,217.15977950000524,217.1456732000006,,,,,,,,,,,,,,,,,,,,,,,,,,,,,,,,,,,217.14673839999887,217.15977950000524,217.15977950000524,218.17894140000132,g,1.0,1.0051199000008637,,,,sub-017,1.0,stroop_test,60.60326918255608,
,,,,45.0,9.0,3.0,,,,,,,,,,,,,rot,red,r,1.0,r,1.0,0.4752026000060141,,,,,,,,,,3.0,9.0,45.0,0.0,218.1924891000017,,,,,,,,,,,,,,,,,218.1792620999986,219.39160610000545,220.19111720000365,220.1767117000054,,,,,,,,,,,,,,,,,,,,,,,,,,,,,,,,,,,220.17757900000288,220.19111720000365,220.19111720000365,220.6760562000054,r,1.0,0.4752026000060141,,,,sub-017,1.0,stroop_test,60.60326918255608,
,,,,46.0,10.0,3.0,,,,,,,,,,,,,gelb,blue,b,0.0,b,1.0,0.4967451999982586,,,,,,,,,,3.0,10.0,46.0,9.0,220.69080550000217,,,,,,,,,,,,,,,,,220.67641820000424,221.889863700002,222.6895508000016,222.6736317000032,,,,,,,,,,,,,,,,,,,,,,,,,,,,,,,,,,,222.6782454999993,222.6895508000016,222.6895508000016,223.1927655000036,b,1.0,0.4967451999982586,,,,sub-017,1.0,stroop_test,60.60326918255608,
,,,,47.0,11.0,3.0,,,,,,,,,,,,,gelb,red,r,0.0,r,1.0,0.4738352999993367,,,,,,,,,,3.0,11.0,47.0,8.0,223.2059511000043,,,,,,,,,,,,,,,,,223.1935655000052,224.40525680000428,225.2043749000004,225.1891323000018,,,,,,,,,,,,,,,,,,,,,,,,,,,,,,,,,,,225.18972500000385,225.2043749000004,225.2043749000004,225.69028110000363,r,1.0,0.4738352999993367,,,,sub-017,1.0,stroop_test,60.60326918255608,
,,,,48.0,0.0,4.0,,,,,,,,,,,,,blau,blue,b,1.0,b,1.0,0.5297359000032884,,,,,,,,,,4.0,0.0,48.0,6.0,225.70447850000343,,,,,,,,,,,,,,,,,225.6908231000052,226.90391300000192,227.7028705000048,227.68848860000435,,,,,,,,,,,,,,,,,,,,,,,,,,,,,,,,,,,227.6944991000055,227.7028705000048,227.7028705000048,228.23795640000023,b,1.0,0.5297359000032884,,,,sub-017,1.0,stroop_test,60.60326918255608,
,,,,49.0,1.0,4.0,,,,,,,,,,,,,rot,yellow,g,0.0,g,1.0,0.94020509999973,,,,,,,,,,4.0,1.0,49.0,3.0,228.25253109999903,,,,,,,,,,,,,,,,,228.23857580000185,228.60241880000103,229.40194750000228,229.3864306000032,,,,,,,,,,,,,,,,,,,,,,,,,,,,,,,,,,,229.3904820000025,229.40194750000228,229.40194750000228,230.3529759000012,g,1.0,0.94020509999973,,,,sub-017,1.0,stroop_test,60.60326918255608,
,,,,50.0,2.0,4.0,,,,,,,,,,,,,rot,red,r,1.0,r,1.0,0.5015155000000959,,,,,,,,,,4.0,2.0,50.0,1.0,230.36805520000053,,,,,,,,,,,,,,,,,230.3533208000008,230.71796729999917,231.517194,231.5025797999988,,,,,,,,,,,,,,,,,,,,,,,,,,,,,,,,,,,231.5034089000037,231.517194,231.517194,232.03486749999863,r,1.0,0.5015155000000959,,,,sub-017,1.0,stroop_test,60.60326918255608,
,,,,51.0,3.0,4.0,,,,,,,,,,,,,blau,yellow,g,0.0,g,1.0,0.8986353000000236,,,,,,,,,,4.0,3.0,51.0,7.0,232.05022420000023,,,,,,,,,,,,,,,,,232.03515229999903,233.2494347000029,234.04904660000463,234.0335247000039,,,,,,,,,,,,,,,,,,,,,,,,,,,,,,,,,,,234.03686939999895,234.04904660000463,234.04904660000463,234.95122880000417,g,1.0,0.8986353000000236,,,,sub-017,1.0,stroop_test,60.60326918255608,
,,,,52.0,4.0,4.0,,,,,,,,,,,,,gelb,yellow,g,1.0,g,1.0,0.5212538999985554,,,,,,,,,,4.0,4.0,52.0,11.0,234.9649907999992,,,,,,,,,,,,,,,,,234.95160790000227,235.3150373000026,236.114250300001,236.09962470000028,,,,,,,,,,,,,,,,,,,,,,,,,,,,,,,,,,,236.10565040000077,236.114250300001,236.114250300001,236.64970670000184,g,1.0,0.5212538999985554,,,,sub-017,1.0,stroop_test,60.60326918255608,
,,,,53.0,5.0,4.0,,,,,,,,,,,,,blau,red,r,0.0,r,1.0,0.7636745999989216,,,,,,,,,,4.0,5.0,53.0,4.0,236.6638261000044,,,,,,,,,,,,,,,,,236.65007129999867,236.7640386999992,237.56334960000092,237.5485942000014,,,,,,,,,,,,,,,,,,,,,,,,,,,,,,,,,,,237.553705600003,237.56334960000092,237.56334960000092,238.33100450000347,r,1.0,0.7636745999989216,,,,sub-017,1.0,stroop_test,60.60326918255608,
,,,,54.0,6.0,4.0,,,,,,,,,,,,,gelb,yellow,g,1.0,g,1.0,0.708100599993486,,,,,,,,,,4.0,6.0,54.0,10.0,238.345945699999,,,,,,,,,,,,,,,,,238.33134250000148,238.4462000999993,239.24556290000328,239.23004239999864,,,,,,,,,,,,,,,,,,,,,,,,,,,,,,,,,,,239.2342284000042,239.24556290000328,239.24556290000328,239.96442870000465,g,1.0,0.708100599993486,,,,sub-017,1.0,stroop_test,60.60326918255608,
,,,,55.0,7.0,4.0,,,,,,,,,,,,,gelb,red,r,0.0,r,1.0,1.0587904999993043,,,,,,,,,,4.0,7.0,55.0,8.0,239.97834780000267,,,,,,,,,,,,,,,,,239.96480370000063,240.07844090000435,240.87796499999968,240.8628177999999,,,,,,,,,,,,,,,,,,,,,,,,,,,,,,,,,,,240.86355860000185,240.87796499999968,240.87796499999968,241.94607710000128,r,1.0,1.0587904999993043,,,,sub-017,1.0,stroop_test,60.60326918255608,
,,,,56.0,8.0,4.0,,,,,,,,,,,,,gelb,blue,b,0.0,b,1.0,0.6002660000012838,,,,,,,,,,4.0,8.0,56.0,9.0,241.9604382000034,,,,,,,,,,,,,,,,,241.9465195000012,242.310255000004,243.1098662000004,243.09454600000024,,,,,,,,,,,,,,,,,,,,,,,,,,,,,,,,,,,243.09510710000177,243.1098662000004,243.1098662000004,243.71270840000216,b,1.0,0.6002660000012838,,,,sub-017,1.0,stroop_test,60.60326918255608,
,,,,57.0,9.0,4.0,,,,,,,,,,,,,blau,blue,b,1.0,b,1.0,0.6615964000011445,,,,,,,,,,4.0,9.0,57.0,5.0,243.72601510000092,,,,,,,,,,,,,,,,,243.71312330000364,244.52563160000136,245.32503800000268,245.3099940000029,,,,,,,,,,,,,,,,,,,,,,,,,,,,,,,,,,,245.3156544000012,245.32503800000268,245.32503800000268,245.99370550000455,b,1.0,0.6615964000011445,,,,sub-017,1.0,stroop_test,60.60326918255608,
,,,,58.0,10.0,4.0,,,,,,,,,,,,,rot,red,r,1.0,r,1.0,0.3867780999935348,,,,,,,,,,4.0,10.0,58.0,0.0,246.00779960000364,,,,,,,,,,,,,,,,,245.99407169999904,246.8074874000013,247.6069040000002,247.59174260000145,,,,,,,,,,,,,,,,,,,,,,,,,,,,,,,,,,,247.5976776000025,247.6069040000002,247.6069040000002,248.00950300000116,r,1.0,0.3867780999935348,,,,sub-017,1.0,stroop_test,60.60326918255608,
,,,,59.0,11.0,4.0,,,,,,,,,,,,,rot,blue,b,0.0,b,1.0,0.8975324000057299,,,,,,,,,,4.0,11.0,59.0,2.0,248.0236139000044,,,,,,,,,,,,,,,,,248.0100697000016,249.22244019999928,250.0220988000001,250.0065997999991,,,,,,,,,,,,,,,,,,,,,,,,,,,,,,,,,,,250.0073842000056,250.0220988000001,250.0220988000001,250.9240462000016,b,1.0,0.8975324000057299,,,,sub-017,1.0,stroop_test,60.60326918255608,
,,,,60.0,0.0,5.0,,,,,,,,,,,,,rot,yellow,g,0.0,g,1.0,1.142023500004143,,,,,,,,,,5.0,0.0,60.0,3.0,250.93816670000524,,,,,,,,,,,,,,,,,250.92441520000284,251.0381611000048,251.8378212000025,251.82264420000135,,,,,,,,,,,,,,,,,,,,,,,,,,,,,,,,,,,251.82329920000484,251.8378212000025,251.8378212000025,252.99016790000317,g,1.0,1.142023500004143,,,,sub-017,1.0,stroop_test,60.60326918255608,
,,,,61.0,1.0,5.0,,,,,,,,,,,,,gelb,yellow,g,1.0,g,1.0,0.8622206000000006,,,,,,,,,,5.0,1.0,61.0,10.0,253.00389030000224,,,,,,,,,,,,,,,,,252.9907679000025,254.20279799999844,255.0027689999988,254.98835749999853,,,,,,,,,,,,,,,,,,,,,,,,,,,,,,,,,,,254.9934469,255.0027689999988,255.0027689999988,255.8714113000024,g,1.0,0.8622206000000006,,,,sub-017,1.0,stroop_test,60.60326918255608,
,,,,62.0,2.0,5.0,,,,,,,,,,,,,blau,blue,b,1.0,b,1.0,0.8755466000002343,,,,,,,,,,5.0,2.0,62.0,6.0,255.8854777000015,,,,,,,,,,,,,,,,,255.8720911000055,255.98512029999983,256.78441770000063,256.77058560000296,,,,,,,,,,,,,,,,,,,,,,,,,,,,,,,,,,,256.7751965999996,256.78441770000063,256.78441770000063,257.6697026000038,b,1.0,0.8755466000002343,,,,sub-017,1.0,stroop_test,60.60326918255608,
,,,,63.0,3.0,5.0,,,,,,,,,,,,,gelb,blue,b,0.0,b,1.0,0.47729039999831,,,,,,,,,,5.0,3.0,63.0,9.0,257.68392719999974,,,,,,,,,,,,,,,,,257.6700945000048,258.4834689999989,259.2829015000025,259.26741030000267,,,,,,,,,,,,,,,,,,,,,,,,,,,,,,,,,,,259.27112870000565,259.2829015000025,259.2829015000025,259.7682488999999,b,1.0,0.47729039999831,,,,sub-017,1.0,stroop_test,60.60326918255608,
,,,,64.0,4.0,5.0,,,,,,,,,,,,,rot,red,r,1.0,r,1.0,0.4911797000022488,,,,,,,,,,5.0,4.0,64.0,0.0,259.78257770000346,,,,,,,,,,,,,,,,,259.76897409999947,260.13238750000164,260.9319112000012,260.916778400002,,,,,,,,,,,,,,,,,,,,,,,,,,,,,,,,,,,260.9215247000029,260.9319112000012,260.9319112000012,261.4345523000011,r,1.0,0.4911797000022488,,,,sub-017,1.0,stroop_test,60.60326918255608,
,,,,65.0,5.0,5.0,,,,,,,,,,,,,blau,blue,b,1.0,b,1.0,2.321167099995364,,,,,,,,,,5.0,5.0,65.0,5.0,261.448129299999,,,,,,,,,,,,,,,,,261.4350598000019,261.54859650000435,262.36425990000134,262.34969249999995,,,,,,,,,,,,,,,,,,,,,,,,,,,,,,,,,,,262.3536752,262.36425990000134,262.36425990000134,264.6977179000023,b,1.0,2.321167099995364,,,,sub-017,1.0,stroop_test,60.60326918255608,
,,,,66.0,6.0,5.0,,,,,,,,,,,,,blau,yellow,g,0.0,g,1.0,0.6583505000016885,,,,,,,,,,5.0,6.0,66.0,7.0,264.7128517000019,,,,,,,,,,,,,,,,,264.69801559999905,265.0627550999998,265.8621067999993,265.8465928000005,,,,,,,,,,,,,,,,,,,,,,,,,,,,,,,,,,,265.84728420000465,265.8621067999993,265.8621067999993,266.53132780000306,g,1.0,0.6583505000016885,,,,sub-017,1.0,stroop_test,60.60326918255608,
,,,,67.0,7.0,5.0,,,,,,,,,,,,,rot,blue,b,0.0,b,1.0,1.0678980000011506,,,,,,,,,,5.0,7.0,67.0,2.0,266.5449207000056,,,,,,,,,,,,,,,,,266.53192860000127,267.7444575000045,268.5435063000041,268.5292993000039,,,,,,,,,,,,,,,,,,,,,,,,,,,,,,,,,,,268.5362232000043,268.5435063000041,268.5435063000041,269.62784939999983,b,1.0,1.0678980000011506,,,,sub-017,1.0,stroop_test,60.60326918255608,
,,,,68.0,8.0,5.0,,,,,,,,,,,,,gelb,yellow,g,1.0,g,1.0,0.8546169999972335,,,,,,,,,,5.0,8.0,68.0,11.0,269.64312020000216,,,,,,,,,,,,,,,,,269.62818269999843,270.4427848999985,271.2421564000033,271.22631480000564,,,,,,,,,,,,,,,,,,,,,,,,,,,,,,,,,,,271.23107940000045,271.2421564000033,271.2421564000033,272.11014490000525,g,1.0,0.8546169999972335,,,,sub-017,1.0,stroop_test,60.60326918255608,
,,,,69.0,9.0,5.0,,,,,,,,,,,,,blau,red,r,0.0,r,1.0,1.2674270999996224,,,,,,,,,,5.0,9.0,69.0,4.0,272.1250562999994,,,,,,,,,,,,,,,,,272.11051790000056,272.47452930000145,273.2739185000028,273.2603502999991,,,,,,,,,,,,,,,,,,,,,,,,,,,,,,,,,,,273.265848300005,273.2739185000028,273.2739185000028,274.5588080000016,r,1.0,1.2674270999996224,,,,sub-017,1.0,stroop_test,60.60326918255608,
,,,,70.0,10.0,5.0,,,,,,,,,,,,,gelb,red,r,0.0,r,1.0,0.555553999998665,,,,,,,,,,5.0,10.0,70.0,8.0,274.57336170000053,,,,,,,,,,,,,,,,,274.55928400000266,274.6731844000024,275.4724295000051,275.456632100002,,,,,,,,,,,,,,,,,,,,,,,,,,,,,,,,,,,275.459580200004,275.4724295000051,275.4724295000051,276.0396484000012,r,1.0,0.555553999998665,,,,sub-017,1.0,stroop_test,60.60326918255608,
,,,,71.0,11.0,5.0,,,,,,,,,,,,,rot,red,r,1.0,r,1.0,0.5318876999954227,,,,,,,,,,5.0,11.0,71.0,1.0,276.0551899999992,,,,,,,,,,,,,,,,,276.0399020000041,276.85494050000125,277.65443800000503,277.63940880000155,,,,,,,,,,,,,,,,,,,,,,,,,,,,,,,,,,,277.642657299999,277.65443800000503,277.65443800000503,278.19217840000056,r,1.0,0.5318876999954227,,,,sub-017,1.0,stroop_test,60.60326918255608,
,,,,72.0,0.0,6.0,,,,,,,,,,,,,rot,red,r,1.0,r,1.0,0.3693477999986498,,,,,,,,,,6.0,0.0,72.0,1.0,278.2040127,,,,,,,,,,,,,,,,,278.1929061000046,278.5537884000005,279.3533475000004,279.3395473000055,,,,,,,,,,,,,,,,,,,,,,,,,,,,,,,,,,,279.34122860000207,279.3533475000004,279.3533475000004,279.7401133000021,r,1.0,0.3693477999986498,,,,sub-017,1.0,stroop_test,60.60326918255608,
,,,,73.0,1.0,6.0,,,,,,,,,,,,,blau,yellow,g,0.0,g,1.0,0.7047405000048457,,,,,,,,,,6.0,1.0,73.0,7.0,279.7533403999987,,,,,,,,,,,,,,,,,279.7405538000021,279.8532028000045,280.6526671000029,280.6368137000027,,,,,,,,,,,,,,,,,,,,,,,,,,,,,,,,,,,280.6403492000027,280.6526671000029,280.6526671000029,281.370794800001,g,1.0,0.7047405000048457,,,,sub-017,1.0,stroop_test,60.60326918255608,
,,,,74.0,2.0,6.0,,,,,,,,,,,,,gelb,blue,b,0.0,r,0.0,1.1382864999977755,,,,,,,,,,6.0,2.0,74.0,9.0,281.3856526000018,,,,,,,,,,,,,,,,,281.37111130000267,282.58498300000065,283.38435060000484,283.368951299999,,,,,,,,,,,,,,,,,,,,,,,,,,,,,,,,,,,283.3720562000017,283.38435060000484,283.38435060000484,284.5355609000035,r,0.0,1.1382864999977755,,,,sub-017,1.0,stroop_test,60.60326918255608,
,,,,75.0,3.0,6.0,,,,,,,,,,,,,blau,blue,b,1.0,b,1.0,0.7769207999954233,,,,,,,,,,6.0,3.0,75.0,6.0,284.5501494999989,,,,,,,,,,,,,,,,,284.53600279999955,284.6500415000046,285.44926770000166,285.4350062000012,,,,,,,,,,,,,,,,,,,,,,,,,,,,,,,,,,,285.4390138000017,285.44926770000166,285.44926770000166,286.23523730000306,b,1.0,0.7769207999954233,,,,sub-017,1.0,stroop_test,60.60326918255608,
,,,,76.0,4.0,6.0,,,,,,,,,,,,,rot,red,r,1.0,r,1.0,0.4778805999958422,,,,,,,,,,6.0,4.0,76.0,0.0,286.2491119000042,,,,,,,,,,,,,,,,,286.2357906000034,287.44827010000154,288.24793460000365,288.23386400000163,,,,,,,,,,,,,,,,,,,,,,,,,,,,,,,,,,,288.23915520000446,288.24793460000365,288.24793460000365,288.733819400004,r,1.0,0.4778805999958422,,,,sub-017,1.0,stroop_test,60.60326918255608,
,,,,77.0,5.0,6.0,,,,,,,,,,,,,rot,blue,b,0.0,b,1.0,1.009226000001945,,,,,,,,,,6.0,5.0,77.0,2.0,288.7476256000009,,,,,,,,,,,,,,,,,288.7343839000023,289.94703460000164,290.7462248000011,290.7325359000024,,,,,,,,,,,,,,,,,,,,,,,,,,,,,,,,,,,290.7330867000055,290.7462248000011,290.7462248000011,291.76430529999925,b,1.0,1.009226000001945,,,,sub-017,1.0,stroop_test,60.60326918255608,
,,,,78.0,6.0,6.0,,,,,,,,,,,,,blau,red,r,0.0,r,1.0,0.9307858000029228,,,,,,,,,,6.0,6.0,78.0,4.0,291.7789594999995,,,,,,,,,,,,,,,,,291.7646817999994,292.9781318000023,293.778161000002,293.76448840000376,,,,,,,,,,,,,,,,,,,,,,,,,,,,,,,,,,,293.7704801,293.778161000002,293.778161000002,294.7127939999991,r,1.0,0.9307858000029228,,,,sub-017,1.0,stroop_test,60.60326918255608,
,,,,79.0,7.0,6.0,,,,,,,,,,,,,gelb,yellow,g,1.0,g,1.0,0.6564101000039955,,,,,,,,,,6.0,7.0,79.0,11.0,294.7273485000041,,,,,,,,,,,,,,,,,294.7131980000049,294.82695629999944,295.6264644000039,295.6116356999992,,,,,,,,,,,,,,,,,,,,,,,,,,,,,,,,,,,295.6147125999996,295.6264644000039,295.6264644000039,296.2950893000016,g,1.0,0.6564101000039955,,,,sub-017,1.0,stroop_test,60.60326918255608,
,,,,80.0,8.0,6.0,,,,,,,,,,,,,blau,blue,b,1.0,b,1.0,0.4995701000007102,,,,,,,,,,6.0,8.0,80.0,5.0,296.3095512,,,,,,,,,,,,,,,,,296.29556910000247,297.5086544000005,298.3101416999998,298.29295880000427,,,,,,,,,,,,,,,,,,,,,,,,,,,,,,,,,,,298.30080910000106,298.3101416999998,298.3101416999998,298.825998100001,b,1.0,0.4995701000007102,,,,sub-017,1.0,stroop_test,60.60326918255608,
,,,,81.0,9.0,6.0,,,,,,,,,,,,,gelb,red,r,0.0,r,1.0,0.5513991000043461,,,,,,,,,,6.0,9.0,81.0,8.0,298.84088200000406,,,,,,,,,,,,,,,,,298.82632100000046,299.64045550000446,300.4401319000026,300.42499410000164,,,,,,,,,,,,,,,,,,,,,,,,,,,,,,,,,,,300.4281063000017,300.4401319000026,300.4401319000026,301.0091365000044,r,1.0,0.5513991000043461,,,,sub-017,1.0,stroop_test,60.60326918255608,
,,,,82.0,10.0,6.0,,,,,,,,,,,,,gelb,yellow,g,1.0,g,1.0,1.673525599995628,,,,,,,,,,6.0,10.0,82.0,10.0,301.0231984999991,,,,,,,,,,,,,,,,,301.0100034999996,301.8228362000009,302.6219640000054,302.60652370000025,,,,,,,,,,,,,,,,,,,,,,,,,,,,,,,,,,,302.6070899000042,302.6219640000054,302.6219640000054,304.30731430000014,g,1.0,1.673525599995628,,,,sub-017,1.0,stroop_test,60.60326918255608,
,,,,83.0,11.0,6.0,,,,,,,,,,,,,rot,yellow,g,0.0,g,1.0,0.5335799999957089,,,,,,,,,,6.0,11.0,83.0,3.0,304.32114680000086,,,,,,,,,,,,,,,,,304.30779630000325,304.4213797000048,305.2370108000032,305.2224225000027,,,,,,,,,,,,,,,,,,,,,,,,,,,,,,,,,,,305.2282297999991,305.2370108000032,305.2370108000032,305.7748342999985,g,1.0,0.5335799999957089,,,,sub-017,1.0,stroop_test,60.60326918255608,
,,,,84.0,0.0,7.0,,,,,,,,,,,,,rot,blue,b,0.0,b,1.0,0.768366899996181,,,,,,,,,,7.0,0.0,84.0,2.0,305.786617800004,,,,,,,,,,,,,,,,,305.7756909000018,306.5861714999992,307.3859140999993,307.3705259999988,,,,,,,,,,,,,,,,,,,,,,,,,,,,,,,,,,,307.3710759000023,307.3859140999993,307.3859140999993,308.1699720000033,b,1.0,0.768366899996181,,,,sub-017,1.0,stroop_test,60.60326918255608,
,,,,85.0,1.0,7.0,,,,,,,,,,,,,gelb,red,r,0.0,r,1.0,0.6893955000050482,,,,,,,,,,7.0,1.0,85.0,8.0,308.1850670999993,,,,,,,,,,,,,,,,,308.170291800001,309.38449680000485,310.1838754000055,310.16903920000186,,,,,,,,,,,,,,,,,,,,,,,,,,,,,,,,,,,310.1726062000016,310.1838754000055,310.1838754000055,310.8852718000053,r,1.0,0.6893955000050482,,,,sub-017,1.0,stroop_test,60.60326918255608,
,,,,86.0,2.0,7.0,,,,,,,,,,,,,blau,yellow,g,0.0,g,1.0,0.7085651000015787,,,,,,,,,,7.0,2.0,86.0,7.0,310.9001533000046,,,,,,,,,,,,,,,,,310.8856449000013,311.250257700005,312.04933520000486,312.03463829999964,,,,,,,,,,,,,,,,,,,,,,,,,,,,,,,,,,,312.0413561000023,312.04933520000486,312.04933520000486,312.7681500000035,g,1.0,0.7085651000015787,,,,sub-017,1.0,stroop_test,60.60326918255608,
,,,,87.0,3.0,7.0,,,,,,,,,,,,,gelb,yellow,g,1.0,g,1.0,0.5085381000026246,,,,,,,,,,7.0,3.0,87.0,10.0,312.78240509999887,,,,,,,,,,,,,,,,,312.76866110000265,313.58165870000084,314.3811031000005,314.36617280000064,,,,,,,,,,,,,,,,,,,,,,,,,,,,,,,,,,,314.37260719999904,314.3811031000005,314.3811031000005,314.8992159000045,g,1.0,0.5085381000026246,,,,sub-017,1.0,stroop_test,60.60326918255608,
,,,,88.0,4.0,7.0,,,,,,,,,,,,,rot,red,r,1.0,r,1.0,0.4924446000004536,,,,,,,,,,7.0,4.0,88.0,1.0,314.91400540000177,,,,,,,,,,,,,,,,,314.8995150000046,316.11386910000147,316.91298500000266,316.89816290000454,,,,,,,,,,,,,,,,,,,,,,,,,,,,,,,,,,,316.90534019999905,316.91298500000266,316.91298500000266,317.41503190000367,r,1.0,0.4924446000004536,,,,sub-017,1.0,stroop_test,60.60326918255608,
,,,,89.0,5.0,7.0,,,,,,,,,,,,,rot,red,r,1.0,r,1.0,0.4996372000023257,,,,,,,,,,7.0,5.0,89.0,0.0,317.4291890000022,,,,,,,,,,,,,,,,,317.415448300002,317.7790690000038,318.57861350000167,318.5639358000044,,,,,,,,,,,,,,,,,,,,,,,,,,,,,,,,,,,318.5649187000017,318.57861350000167,318.57861350000167,319.0826210000014,r,1.0,0.4996372000023257,,,,sub-017,1.0,stroop_test,60.60326918255608,
,,,,90.0,6.0,7.0,,,,,,,,,,,,,blau,blue,b,1.0,b,1.0,0.5432111999980407,,,,,,,,,,7.0,6.0,90.0,6.0,319.09497450000345,,,,,,,,,,,,,,,,,319.0831440000038,319.8944625000004,320.69368670000404,320.6791127000033,,,,,,,,,,,,,,,,,,,,,,,,,,,,,,,,,,,320.6868056000021,320.69368670000404,320.69368670000404,321.24506620000466,b,1.0,0.5432111999980407,,,,sub-017,1.0,stroop_test,60.60326918255608,
,,,,91.0,7.0,7.0,,,,,,,,,,,,,gelb,blue,b,0.0,b,1.0,0.5622452000025078,,,,,,,,,,7.0,7.0,91.0,9.0,321.26019610000367,,,,,,,,,,,,,,,,,321.2454178000044,321.6103068000011,322.4093237999987,322.39464820000285,,,,,,,,,,,,,,,,,,,,,,,,,,,,,,,,,,,322.39765170000464,322.4093237999987,322.4093237999987,322.9782655000017,b,1.0,0.5622452000025078,,,,sub-017,1.0,stroop_test,60.60326918255608,
,,,,92.0,8.0,7.0,,,,,,,,,,,,,gelb,yellow,g,1.0,g,1.0,0.7629006999995909,,,,,,,,,,7.0,8.0,92.0,11.0,322.9923902000009,,,,,,,,,,,,,,,,,322.9786363000021,323.7921328000011,324.5916619000054,324.5765014999997,,,,,,,,,,,,,,,,,,,,,,,,,,,,,,,,,,,324.57743080000364,324.5916619000054,324.5916619000054,325.36015430000407,g,1.0,0.7629006999995909,,,,sub-017,1.0,stroop_test,60.60326918255608,
,,,,93.0,9.0,7.0,,,,,,,,,,,,,rot,yellow,g,0.0,g,1.0,0.4820936000032816,,,,,,,,,,7.0,9.0,93.0,3.0,325.3743128999995,,,,,,,,,,,,,,,,,325.3610514000029,325.4739622000052,326.273763600002,326.259429800004,,,,,,,,,,,,,,,,,,,,,,,,,,,,,,,,,,,326.26251400000183,326.273763600002,326.273763600002,326.75918790000287,g,1.0,0.4820936000032816,,,,sub-017,1.0,stroop_test,60.60326918255608,
,,,,94.0,10.0,7.0,,,,,,,,,,,,,blau,red,r,0.0,r,1.0,1.2088162000000011,,,,,,,,,,7.0,10.0,94.0,4.0,326.77310579999903,,,,,,,,,,,,,,,,,326.75950820000435,327.1233901000014,327.9224794000038,327.90901130000566,,,,,,,,,,,,,,,,,,,,,,,,,,,,,,,,,,,327.9142871000004,327.9224794000038,327.9224794000038,329.140830700002,r,1.0,1.2088162000000011,,,,sub-017,1.0,stroop_test,60.60326918255608,
,,,,95.0,11.0,7.0,,,,,,,,,,,,,blau,blue,b,1.0,b,1.0,0.6522688000040944,,,,,,,,,,7.0,11.0,95.0,5.0,329.15578720000485,,,,,,,,,,,,,,,,,329.1412640999988,329.25541940000403,330.0548966999995,330.04005580000376,,,,,,,,,,,,,,,,,,,,,,,,,,,,,,,,,,,330.0409516,330.0548966999995,330.0548966999995,330.7232695999992,b,1.0,0.6522688000040944,,,,sub-017,1.0,stroop_test,60.60326918255608,
,,,,96.0,0.0,8.0,,,,,,,,,,,,,blau,red,r,0.0,r,1.0,0.764574899993022,,,,,,,,,,8.0,0.0,96.0,4.0,330.7377559000015,,,,,,,,,,,,,,,,,330.72372120000364,330.83778890000394,331.63727579999977,331.6214334000033,,,,,,,,,,,,,,,,,,,,,,,,,,,,,,,,,,,331.622209000001,331.63727579999977,331.63727579999977,332.40629730000364,r,1.0,0.764574899993022,,,,sub-017,1.0,stroop_test,60.60326918255608,
,,,,97.0,1.0,8.0,,,,,,,,,,,,,gelb,yellow,g,1.0,g,1.0,0.6381700999991153,,,,,,,,,,8.0,1.0,97.0,11.0,332.4196766000023,,,,,,,,,,,,,,,,,332.4070963000049,332.76933550000103,333.56904770000256,333.5543359000003,,,,,,,,,,,,,,,,,,,,,,,,,,,,,,,,,,,333.557149799999,333.56904770000256,333.56904770000256,334.2208406999998,g,1.0,0.6381700999991153,,,,sub-017,1.0,stroop_test,60.60326918255608,
,,,,98.0,2.0,8.0,,,,,,,,,,,,,gelb,blue,b,0.0,b,1.0,0.6925162999978056,,,,,,,,,,8.0,2.0,98.0,9.0,334.2351650000055,,,,,,,,,,,,,,,,,334.2217757000035,334.58544860000256,335.3844690000042,335.36925310000515,,,,,,,,,,,,,,,,,,,,,,,,,,,,,,,,,,,335.3697600000014,335.3844690000042,335.3844690000042,336.0878392000013,b,1.0,0.6925162999978056,,,,sub-017,1.0,stroop_test,60.60326918255608,
,,,,99.0,3.0,8.0,,,,,,,,,,,,,rot,red,r,1.0,r,1.0,0.4197467999983928,,,,,,,,,,8.0,3.0,99.0,1.0,336.10117750000063,,,,,,,,,,,,,,,,,336.08858310000505,336.450863500002,337.24993579999864,337.2339581000051,,,,,,,,,,,,,,,,,,,,,,,,,,,,,,,,,,,337.23656380000466,337.24993579999864,337.24993579999864,337.6854951999994,r,1.0,0.4197467999983928,,,,sub-017,1.0,stroop_test,60.60326918255608,
,,,,100.0,4.0,8.0,,,,,,,,,,,,,gelb,yellow,g,1.0,g,1.0,0.5058938000001945,,,,,,,,,,8.0,4.0,100.0,10.0,337.6995919000037,,,,,,,,,,,,,,,,,337.6858567000017,338.0497516000032,338.8490795000034,338.8347821999996,,,,,,,,,,,,,,,,,,,,,,,,,,,,,,,,,,,338.83980420000444,338.8490795000034,338.8490795000034,339.3674888000023,g,1.0,0.5058938000001945,,,,sub-017,1.0,stroop_test,60.60326918255608,
,,,,101.0,5.0,8.0,,,,,,,,,,,,,blau,blue,b,1.0,b,1.0,0.4615950000006705,,,,,,,,,,8.0,5.0,101.0,6.0,339.38209140000254,,,,,,,,,,,,,,,,,339.3678351999988,339.7318794000021,340.5313571000006,340.51599870000064,,,,,,,,,,,,,,,,,,,,,,,,,,,,,,,,,,,340.5221917000017,340.5313571000006,340.5313571000006,341.0007115000044,b,1.0,0.4615950000006705,,,,sub-017,1.0,stroop_test,60.60326918255608,
,,,,102.0,6.0,8.0,,,,,,,,,,,,,blau,yellow,g,0.0,g,1.0,0.5707870999976876,,,,,,,,,,8.0,6.0,102.0,7.0,341.014339500005,,,,,,,,,,,,,,,,,341.00110600000335,341.8135874,342.6137067000018,342.59847450000234,,,,,,,,,,,,,,,,,,,,,,,,,,,,,,,,,,,342.5997934000043,342.6137067000018,342.6137067000018,343.19755129999976,g,1.0,0.5707870999976876,,,,sub-017,1.0,stroop_test,60.60326918255608,
,,,,103.0,7.0,8.0,,,,,,,,,,,,,blau,blue,b,1.0,b,1.0,0.7114622000008239,,,,,,,,,,8.0,7.0,103.0,5.0,343.2126419000051,,,,,,,,,,,,,,,,,343.19783350000216,344.01246920000267,344.81205140000384,344.7966858,,,,,,,,,,,,,,,,,,,,,,,,,,,,,,,,,,,344.79726590000064,344.81205140000384,344.81205140000384,345.5299350999994,b,1.0,0.7114622000008239,,,,sub-017,1.0,stroop_test,60.60326918255608,
,,,,104.0,8.0,8.0,,,,,,,,,,,,,rot,red,r,1.0,r,1.0,0.4746102999997674,,,,,,,,,,8.0,8.0,104.0,0.0,345.5447727999999,,,,,,,,,,,,,,,,,345.53023500000563,345.6453091000003,346.4607133000027,346.4461558000039,,,,,,,,,,,,,,,,,,,,,,,,,,,,,,,,,,,346.4492192000034,346.4607133000027,346.4607133000027,346.9463872999986,r,1.0,0.4746102999997674,,,,sub-017,1.0,stroop_test,60.60326918255608,
,,,,105.0,9.0,8.0,,,,,,,,,,,,,gelb,red,r,0.0,r,1.0,0.6085024000058183,,,,,,,,,,8.0,9.0,105.0,8.0,346.96047009999893,,,,,,,,,,,,,,,,,346.94681480000145,347.76006359999883,348.5592967000048,348.5452192000012,,,,,,,,,,,,,,,,,,,,,,,,,,,,,,,,,,,348.55133780000324,348.5592967000048,348.5592967000048,349.17956720000075,r,1.0,0.6085024000058183,,,,sub-017,1.0,stroop_test,60.60326918255608,
,,,,106.0,10.0,8.0,,,,,,,,,,,,,rot,yellow,g,0.0,g,1.0,0.7152329000018653,,,,,,,,,,8.0,10.0,106.0,3.0,349.19245729999966,,,,,,,,,,,,,,,,,349.1800734999997,349.29237280000234,350.0920371000029,350.0767388000022,,,,,,,,,,,,,,,,,,,,,,,,,,,,,,,,,,,350.0821169000046,350.0920371000029,350.0920371000029,350.81202390000544,g,1.0,0.7152329000018653,,,,sub-017,1.0,stroop_test,60.60326918255608,
,,,,107.0,11.0,8.0,,,,,,,,,,,,,rot,blue,b,0.0,b,1.0,0.4703468999941833,,,,,,,,,,8.0,11.0,107.0,2.0,350.8248196999993,,,,,,,,,,,,,,,,,350.8124080999987,351.6242216000028,352.4236549999987,352.4086475000004,,,,,,,,,,,,,,,,,,,,,,,,,,,,,,,,,,,352.40935660000105,352.4236549999987,352.4236549999987,352.9102236000035,b,1.0,0.4703468999941833,,,,sub-017,1.0,stroop_test,60.60326918255608,
,,,,108.0,0.0,9.0,,,,,,,,,,,,,rot,red,r,1.0,r,1.0,0.5487226999975974,,,,,,,,,,9.0,0.0,108.0,1.0,352.9234901000018,,,,,,,,,,,,,,,,,352.9106596000056,353.72324780000054,354.5223555000048,354.5077825000044,,,,,,,,,,,,,,,,,,,,,,,,,,,,,,,,,,,354.50864020000154,354.5223555000048,354.5223555000048,355.0748778999987,r,1.0,0.5487226999975974,,,,sub-017,1.0,stroop_test,60.60326918255608,
,,,,109.0,1.0,9.0,,,,,,,,,,,,,blau,blue,b,1.0,b,1.0,0.5072036999990814,,,,,,,,,,9.0,1.0,109.0,5.0,355.0887298000016,,,,,,,,,,,,,,,,,355.0752893000026,355.1887784999999,355.98816810000426,355.9727542000037,,,,,,,,,,,,,,,,,,,,,,,,,,,,,,,,,,,355.9758922000037,355.98816810000426,355.98816810000426,356.50665149999986,b,1.0,0.5072036999990814,,,,sub-017,1.0,stroop_test,60.60326918255608,
,,,,110.0,2.0,9.0,,,,,,,,,,,,,rot,red,r,1.0,r,1.0,0.4362736000039149,,,,,,,,,,9.0,2.0,110.0,0.0,356.5211746999994,,,,,,,,,,,,,,,,,356.5071242000049,357.7207770000023,358.5367035000017,358.5221687000012,,,,,,,,,,,,,,,,,,,,,,,,,,,,,,,,,,,358.52571629999875,358.5367035000017,358.5367035000017,358.9877229000049,r,1.0,0.4362736000039149,,,,sub-017,1.0,stroop_test,60.60326918255608,
,,,,111.0,3.0,9.0,,,,,,,,,,,,,gelb,blue,b,0.0,g,0.0,0.7919718000048306,,,,,,,,,,9.0,3.0,111.0,9.0,359.0029414000019,,,,,,,,,,,,,,,,,358.9880785999994,359.3526888000051,360.15192560000287,360.13618860000133,,,,,,,,,,,,,,,,,,,,,,,,,,,,,,,,,,,360.1414373000007,360.15192560000287,360.15192560000287,360.9540129000016,g,0.0,0.7919718000048306,,,,sub-017,1.0,stroop_test,60.60326918255608,
,,,,112.0,4.0,9.0,,,,,,,,,,,,,gelb,red,r,0.0,r,1.0,0.4938619000022299,,,,,,,,,,9.0,4.0,112.0,8.0,360.96835320000537,,,,,,,,,,,,,,,,,360.9543654000008,361.76787070000137,362.5672679999989,362.5516974999992,,,,,,,,,,,,,,,,,,,,,,,,,,,,,,,,,,,362.552219600002,362.5672679999989,362.5672679999989,363.06855760000326,r,1.0,0.4938619000022299,,,,sub-017,1.0,stroop_test,60.60326918255608,
,,,,113.0,5.0,9.0,,,,,,,,,,,,,rot,blue,b,0.0,b,1.0,0.748685899998236,,,,,,,,,,9.0,5.0,113.0,2.0,363.08369030000176,,,,,,,,,,,,,,,,,363.0689516000057,363.4336268000043,364.2330618999986,364.2178942000028,,,,,,,,,,,,,,,,,,,,,,,,,,,,,,,,,,,364.2250518000001,364.2330618999986,364.2330618999986,364.98546799999895,b,1.0,0.748685899998236,,,,sub-017,1.0,stroop_test,60.60326918255608,
,,,,114.0,6.0,9.0,,,,,,,,,,,,,blau,red,r,0.0,r,1.0,0.4353360000022803,,,,,,,,,,9.0,6.0,114.0,4.0,364.99909820000175,,,,,,,,,,,,,,,,,364.9858578999993,365.3488461000016,366.14836070000456,366.1334694000034,,,,,,,,,,,,,,,,,,,,,,,,,,,,,,,,,,,366.1394193000015,366.14836070000456,366.14836070000456,366.5998773000029,r,1.0,0.4353360000022803,,,,sub-017,1.0,stroop_test,60.60326918255608,
,,,,115.0,7.0,9.0,,,,,,,,,,,,,gelb,yellow,g,1.0,g,1.0,0.4740351999935228,,,,,,,,,,9.0,7.0,115.0,10.0,366.6146331000055,,,,,,,,,,,,,,,,,366.600188000004,367.4141921000046,368.2136010000031,368.1978289000035,,,,,,,,,,,,,,,,,,,,,,,,,,,,,,,,,,,368.2002585000009,368.2136010000031,368.2136010000031,368.6985889999996,g,1.0,0.4740351999935228,,,,sub-017,1.0,stroop_test,60.60326918255608,
,,,,116.0,8.0,9.0,,,,,,,,,,,,,blau,yellow,g,0.0,g,1.0,0.5705167999985861,,,,,,,,,,9.0,8.0,116.0,7.0,368.7134540000043,,,,,,,,,,,,,,,,,368.6989917000028,368.813845100005,369.6128930999985,369.5977869999988,,,,,,,,,,,,,,,,,,,,,,,,,,,,,,,,,,,369.6009334000046,369.6128930999985,369.6128930999985,370.1993616000036,g,1.0,0.5705167999985861,,,,sub-017,1.0,stroop_test,60.60326918255608,
,,,,117.0,9.0,9.0,,,,,,,,,,,,,gelb,yellow,g,1.0,g,1.0,0.3879282999987481,,,,,,,,,,9.0,9.0,117.0,11.0,370.21253190000425,,,,,,,,,,,,,,,,,370.19996820000233,371.0119160000031,371.8114002000002,371.7957133000018,,,,,,,,,,,,,,,,,,,,,,,,,,,,,,,,,,,371.80102940000506,371.8114002000002,371.8114002000002,372.2140314999997,g,1.0,0.3879282999987481,,,,sub-017,1.0,stroop_test,60.60326918255608,
,,,,118.0,10.0,9.0,,,,,,,,,,,,,rot,yellow,g,0.0,g,1.0,0.4536729999963427,,,,,,,,,,9.0,10.0,118.0,3.0,372.22785360000125,,,,,,,,,,,,,,,,,372.21440209999855,372.3276482000001,373.1273157000032,373.1120821000004,,,,,,,,,,,,,,,,,,,,,,,,,,,,,,,,,,,373.1159336000055,373.1273157000032,373.1273157000032,373.5965046999991,g,1.0,0.4536729999963427,,,,sub-017,1.0,stroop_test,60.60326918255608,
,,,,119.0,11.0,9.0,,,,,,,,,,,,,blau,blue,b,1.0,b,1.0,1.2316871999937575,,,,,,,,,,9.0,11.0,119.0,6.0,373.6103398999985,,,,,,,,,,,,,,,,,373.59722090000287,373.9601375999992,374.75956320000114,374.7446492000017,,,,,,,,,,,,,,,,,,,,,,,,,,,,,,,,,,,374.7508087000024,374.75956320000114,374.75956320000114,375.9952570000023,b,1.0,1.2316871999937575,,,,sub-017,1.0,stroop_test,60.60326918255608,
,,,,,,,,,,,,,,,,,,,,,,,,,,,,,,,,,,,,,,,,,,,,,,,,,,,,,,,,,,,,,,,,,,,,,,,,,,,,,,,,,,,,,,,,,,,,,,,,,,,,,,375.9954695999986,376.0088237000018,sub-017,,,,
