wordCTK,colorCTK,corrAnsCTK,congruentCTK,thisN,thisTrialN,thisRepN,keyResp_CTK.keys,keyResp_CTK.corr,keyResp_CTK.rt,keyResp_CTK.duration,wordPractice,colorPractice,corrAnsPractice,congruentPractice,respPractice.keys,respPractice.corr,respPractice.rt,respPractice.duration,word,color,corrAns,congruent,keyResp_test_run.keys,keyResp_test_run.corr,keyResp_test_run.rt,keyResp_test_run.duration,trials_CTK.thisRepN,trials_CTK.thisTrialN,trials_CTK.thisN,trials_CTK.thisIndex,trials_practice.thisRepN,trials_practice.thisTrialN,trials_practice.thisN,trials_practice.thisIndex,trials_test.thisRepN,trials_test.thisTrialN,trials_test.thisN,trials_test.thisIndex,thisRow.t,notes,instruction.started,instr_text.started,instr_image.started,instr_resp.started,instruction.stopped,instr_resp.keys,instr_resp.rt,instr_resp.duration,instr_color_to_key.started,instr_ctk.started,resp_ctk.started,instr_color_to_key.stopped,resp_ctk.keys,resp_ctk.rt,resp_ctk.duration,ITI.started,fixcross.started,fixcross.stopped,ITI.stopped,color_to_key_run.started,stimulus_CTK.started,keyResp_CTK.started,color_to_key_run.stopped,trials_CTK.keyResp_CTK.keys,trials_CTK.keyResp_CTK.corr,trials_CTK.keyResp_CTK.rt,trials_CTK.keyResp_CTK.duration,instr_practice.started,instr_practice_text.started,instr_practice_resp.started,instr_practice.stopped,instr_practice_resp.keys,instr_practice_resp.rt,instr_practice_resp.duration,practice_run.started,stimulus_practice.started,respPractice.started,practice_run.stopped,trials_practice.respPractice.keys,trials_practice.respPractice.corr,trials_practice.respPractice.rt,trials_practice.respPractice.duration,feedback.started,textFeedback.started,feedback.stopped,textFeedback.stopped,instr_test.started,instr_test_text.started,instr_test_resp.started,instr_test.stopped,instr_test_resp.keys,instr_test_resp.rt,instr_test_resp.duration,test_run.started,stimulus_test_run.started,keyResp_test_run.started,test_run.stopped,trials_test.keyResp_test_run.keys,trials_test.keyResp_test_run.corr,trials_test.keyResp_test_run.rt,trials_test.keyResp_test_run.duration,goodbye.started,textGoodbye.started,textGoodbye.stopped,goodbye.stopped,participant,session,expName,frameRate,Unnamed: 113
,,,,,,,,,,,,,,,,,,,,,,,,,,,,,,,,,,,,,,,,,0.0194793329997082,0.0248341669998808,0.0248341669998808,0.0248341669998808,8.864602457999808,space,8.813846583000213,,,,,,,,,,,,,,,,,,,,,,,,,,,,,,,,,,,,,,,,,,,,,,,,,,,,,,,,,,,sub-022,2,stroop_test,,
,,,,,,,,,,,,,,,,,,,,,,,,,,,,,,,,,,,,,,,,,,,,,,,,,8.864664791999985,8.87527799999998,8.87527799999998,14.20732395799996,space,5.325916000000234,,,,,,,,,,,,,,,,,,,,,,,,,,,,,,,,,,,,,,,,,,,,,,,,,,,,sub-022,2,stroop_test,,
test,yellow,g,1.0,0.0,0.0,0.0,g,1.0,2.2154156669998883,,,,,,,,,,,,,,,,,,0.0,0.0,0.0,1.0,,,,,,,,,14.22382829199978,,,,,,,,,,,,,,,,,14.218850207999822,15.003869707999913,15.79625920799981,15.79000245799989,15.793086166999728,15.79625920799981,15.79625920799981,18.013456749999932,g,1.0,2.2154156669998883,,,,,,,,,,,,,,,,,,,,,,,,,,,,,,,,,,,,,,,,sub-022,2,stroop_test,,
test,blue,b,1.0,1.0,1.0,0.0,b,1.0,1.618707749999885,,,,,,,,,,,,,,,,,,0.0,1.0,1.0,2.0,,,,,,,,,18.02033083300012,,,,,,,,,,,,,,,,,18.013694416999897,18.11029770799996,18.904129332999677,18.89509929199994,18.89532112500001,18.904129332999677,18.904129332999677,20.52410962499971,b,1.0,1.618707749999885,,,,,,,,,,,,,,,,,,,,,,,,,,,,,,,,,,,,,,,,sub-022,2,stroop_test,,
test,red,r,1.0,2.0,2.0,0.0,r,1.0,0.8818827919999421,,,,,,,,,,,,,,,,,,0.0,2.0,2.0,0.0,,,,,,,,,20.52781545800008,,,,,,,,,,,,,,,,,20.52432358299984,21.720573499999773,22.51101724999989,22.506772958000056,22.507008957999915,22.51101724999989,22.51101724999989,23.39702279199992,r,1.0,0.8818827919999421,,,,,,,,,,,,,,,,,,,,,,,,,,,,,,,,,,,,,,,,sub-022,2,stroop_test,,
test,yellow,g,1.0,3.0,0.0,1.0,g,1.0,1.1450771250001708,,,,,,,,,,,,,,,,,,1.0,0.0,3.0,1.0,,,,,,,,,23.403919750000117,,,,,,,,,,,,,,,,,23.397240207999857,23.49384012499968,24.28797200000008,24.279264082999816,24.27951337500008,24.28797200000008,24.28797200000008,25.44104312499985,g,1.0,1.1450771250001708,,,,,,,,,,,,,,,,,,,,,,,,,,,,,,,,,,,,,,,,sub-022,2,stroop_test,,
test,blue,b,1.0,4.0,1.0,1.0,b,1.0,1.1694244160003109,,,,,,,,,,,,,,,,,,1.0,1.0,4.0,2.0,,,,,,,,,25.44687124999973,,,,,,,,,,,,,,,,,25.44126800000004,25.538041957999667,26.32818912499988,26.32376820799982,26.32401291699989,26.32818912499988,26.32818912499988,27.507410416999846,b,1.0,1.1694244160003109,,,,,,,,,,,,,,,,,,,,,,,,,,,,,,,,,,,,,,,,sub-022,2,stroop_test,,
test,red,r,1.0,5.0,2.0,1.0,r,1.0,0.9632554169998002,,,,,,,,,,,,,,,,,,1.0,2.0,5.0,0.0,,,,,,,,,27.513211916999808,,,,,,,,,,,,,,,,,27.507621457999903,27.85476833299981,28.645011749999867,28.640528874999745,28.64076287499984,28.645011749999867,28.645011749999867,29.613003916999787,r,1.0,0.9632554169998002,,,,,,,,,,,,,,,,,,,,,,,,,,,,,,,,,,,,,,,,sub-022,2,stroop_test,,
test,yellow,g,1.0,6.0,0.0,2.0,g,1.0,0.4027147499996317,,,,,,,,,,,,,,,,,,2.0,0.0,6.0,1.0,,,,,,,,,29.62076787499973,,,,,,,,,,,,,,,,,29.61321029200008,29.71003437499985,30.50489674999972,30.4961276250001,30.49633845800008,30.50489674999972,30.50489674999972,30.912947667000022,g,1.0,0.4027147499996317,,,,,,,,,,,,,,,,,,,,,,,,,,,,,,,,,,,,,,,,sub-022,2,stroop_test,,
test,red,r,1.0,7.0,1.0,2.0,r,1.0,0.5504905409998173,,,,,,,,,,,,,,,,,,2.0,1.0,7.0,0.0,,,,,,,,,30.920904291999705,,,,,,,,,,,,,,,,,30.91319583299992,31.260951416999887,32.05977974999996,32.05614345799995,32.05631737499971,32.05977974999996,32.05977974999996,32.61339170800011,r,1.0,0.5504905409998173,,,,,,,,,,,,,,,,,,,,,,,,,,,,,,,,,,,,,,,,sub-022,2,stroop_test,,
test,blue,b,1.0,8.0,2.0,2.0,b,1.0,0.4188672079999378,,,,,,,,,,,,,,,,,,2.0,2.0,8.0,2.0,,,,,,,,,32.62103024999988,,,,,,,,,,,,,,,,,32.61361299999999,33.41121699999985,34.20483612499993,34.19666841699973,34.19689441699984,34.20483612499993,34.20483612499993,34.63026354199974,b,1.0,0.4188672079999378,,,,,,,,,,,,,,,,,,,,,,,,,,,,,,,,,,,,,,,,sub-022,2,stroop_test,,
test,red,r,1.0,9.0,0.0,3.0,r,1.0,0.6719772500000545,,,,,,,,,,,,,,,,,,3.0,0.0,9.0,0.0,,,,,,,,,34.6376020419998,,,,,,,,,,,,,,,,,34.63047887499988,34.728270249999696,35.528770458000054,35.52416716700009,35.524385833,35.528770458000054,35.528770458000054,36.20801791699978,r,1.0,0.6719772500000545,,,,,,,,,,,,,,,,,,,,,,,,,,,,,,,,,,,,,,,,sub-022,2,stroop_test,,
test,blue,b,1.0,10.0,1.0,3.0,b,1.0,0.7208242079996126,,,,,,,,,,,,,,,,,,3.0,1.0,10.0,2.0,,,,,,,,,36.21393949999992,,,,,,,,,,,,,,,,,36.20825887499996,37.40505120799981,38.19536579199985,38.19081383299999,38.191066082999896,38.19536579199985,38.19536579199985,38.92491745799998,b,1.0,0.7208242079996126,,,,,,,,,,,,,,,,,,,,,,,,,,,,,,,,,,,,,,,,sub-022,2,stroop_test,,
test,yellow,g,1.0,11.0,2.0,3.0,g,1.0,0.5586428750002597,,,,,,,,,,,,,,,,,,3.0,2.0,11.0,1.0,,,,,,,,,38.93077858300012,,,,,,,,,,,,,,,,,38.92517270799999,39.271847333000096,40.06201800000008,40.05759279199992,40.05779866700004,40.06201800000008,40.06201800000008,40.62465787499968,g,1.0,0.5586428750002597,,,,,,,,,,,,,,,,,,,,,,,,,,,,,,,,,,,,,,,,sub-022,2,stroop_test,,
,,,,,,,,,,,,,,,,,,,,,,,,,,,,,,,,,,,,,,,,,,,,,,,,,,,,,,,,,,,,,,,,,,,,40.62478254200005,40.63121891699984,40.63121891699984,43.31401112499998,space,2.679688250000254,,,,,,,,,,,,,,,,,,,,,,,,,,,,,,,,,sub-022,2,stroop_test,,
,,,,0.0,0.0,0.0,,,,,gelb,red,r,0.0,r,1.0,0.4574625829995966,,,,,,,,,,,,,,0.0,0.0,0.0,8.0,,,,,43.32597179200002,,,,,,,,,,,,,,,,,43.3212638330001,44.51120595800012,45.30503233299987,45.29628045799973,,,,,,,,,,,,,,,,45.299001417,45.30503233299987,45.30503233299987,45.76396804199976,r,1.0,0.4574625829995966,,45.767196541999965,45.78895883299992,46.774101083000005,,,,,,,,,,,,,,,,,,,,,sub-022,2,stroop_test,,
,,,,1.0,1.0,0.0,,,,,gelb,blue,b,0.0,b,1.0,0.9143567500000244,,,,,,,,,,,,,,0.0,1.0,1.0,9.0,,,,,46.77768949999973,,,,,,,,,,,,,,,,,46.774313583000094,47.56186741700003,48.35554724999975,48.3477010419997,,,,,,,,,,,,,,,,48.34794366699998,48.35554724999975,48.35554724999975,49.27488074999974,b,1.0,0.9143567500000244,,49.27513170800012,49.28146245800008,50.27466299999969,50.27861312499999,,,,,,,,,,,,,,,,,,,,sub-022,2,stroop_test,,
,,,,2.0,2.0,0.0,,,,,blau,blue,b,1.0,b,1.0,0.5596098750002056,,,,,,,,,,,,,,0.0,2.0,2.0,5.0,,,,,50.27861312499999,,,,,,,,,,,,,,,,,50.27495408300001,51.07228058300007,51.86435566699993,51.858158167000056,,,,,,,,,,,,,,,,51.86104445799992,51.86435566699993,51.86435566699993,52.43042358299999,b,1.0,0.5596098750002056,,52.430686499999865,52.438530957999774,53.42462941699978,53.42861649999986,,,,,,,,,,,,,,,,,,,,sub-022,2,stroop_test,,
,,,,3.0,3.0,0.0,,,,,gelb,yellow,g,1.0,g,1.0,0.498867834000066,,,,,,,,,,,,,,0.0,3.0,3.0,10.0,,,,,53.42861649999986,,,,,,,,,,,,,,,,,53.42488029199967,53.528725416999805,54.32170199999973,54.31384708299993,,,,,,,,,,,,,,,,54.31571691699992,54.32170199999973,54.32170199999973,54.82517329199982,g,1.0,0.498867834000066,,54.82539633299984,54.83179666699971,55.82470841699978,55.82832841699974,,,,,,,,,,,,,,,,,,,,sub-022,2,stroop_test,,
,,,,4.0,4.0,0.0,,,,,gelb,yellow,g,1.0,g,1.0,0.5221297500002038,,,,,,,,,,,,,,0.0,4.0,4.0,11.0,,,,,55.82832841699974,,,,,,,,,,,,,,,,,55.82491766699968,57.022622791999765,57.8126646249998,57.80806287499991,,,,,,,,,,,,,,,,57.808310667000114,57.8126646249998,57.8126646249998,58.34216687499975,g,1.0,0.5221297500002038,,58.342433166999854,58.34886904199993,59.34181420799996,59.3455449170001,,,,,,,,,,,,,,,,,,,,sub-022,2,stroop_test,,
,,,,5.0,5.0,0.0,,,,,blau,yellow,g,0.0,g,1.0,0.5445993749999616,,,,,,,,,,,,,,0.0,5.0,5.0,7.0,,,,,59.3455449170001,,,,,,,,,,,,,,,,,59.342054082999766,60.13929462499982,60.931078499999785,60.9249367919997,,,,,,,,,,,,,,,,60.92662424999981,60.931078499999785,60.931078499999785,61.48101841700009,g,1.0,0.5445993749999616,,61.48127858299995,61.48855429200012,62.47499837499981,62.4788156249997,,,,,,,,,,,,,,,,,,,,sub-022,2,stroop_test,,
,,,,6.0,6.0,0.0,,,,,rot,blue,b,0.0,b,1.0,0.7422586249999767,,,,,,,,,,,,,,0.0,6.0,6.0,2.0,,,,,62.4788156249997,,,,,,,,,,,,,,,,,62.47520183300003,63.2789277920001,64.072308583,64.06409670799985,,,,,,,,,,,,,,,,64.06662495799992,64.072308583,64.072308583,64.82568774999982,b,1.0,0.7422586249999767,,64.82594599999993,64.83232041700012,65.82509708299995,65.82875445799982,,,,,,,,,,,,,,,,,,,,sub-022,2,stroop_test,,
,,,,7.0,7.0,0.0,,,,,rot,red,r,1.0,r,1.0,0.3504469170002267,,,,,,,,,,,,,,0.0,7.0,7.0,0.0,,,,,65.82875445799982,,,,,,,,,,,,,,,,,65.82532345799973,65.92285537499993,66.71330441700002,66.70870320799986,,,,,,,,,,,,,,,,66.7089121250001,66.71330441700002,66.71330441700002,67.06502395799998,r,1.0,0.3504469170002267,,67.0652762499999,67.07213983299971,68.05762712499973,68.06130033299996,,,,,,,,,,,,,,,,,,,,sub-022,2,stroop_test,,
,,,,8.0,8.0,0.0,,,,,blau,red,r,0.0,r,1.0,0.5238161249999393,,,,,,,,,,,,,,0.0,8.0,8.0,4.0,,,,,68.06130033299996,,,,,,,,,,,,,,,,,68.05776933299967,68.86201649999975,69.65554824999981,69.64809908300003,,,,,,,,,,,,,,,,69.65003954199983,69.65554824999981,69.65554824999981,70.18204154199975,r,1.0,0.5238161249999393,,70.18233204199987,70.18922008299978,71.17516120799974,71.17915116699987,,,,,,,,,,,,,,,,,,,,sub-022,2,stroop_test,,
,,,,9.0,9.0,0.0,,,,,rot,red,r,1.0,r,1.0,0.4408724580002854,,,,,,,,,,,,,,0.0,9.0,9.0,1.0,,,,,71.17915116699987,,,,,,,,,,,,,,,,,71.17542545800006,71.97891625000011,72.77234700000008,72.76444645799984,,,,,,,,,,,,,,,,72.76627362499994,72.77234700000008,72.77234700000008,73.21445191699968,r,1.0,0.4408724580002854,,73.21472808299995,73.22257808299992,74.20881095799996,74.21252887499986,,,,,,,,,,,,,,,,,,,,sub-022,2,stroop_test,,
,,,,10.0,10.0,0.0,,,,,rot,yellow,g,0.0,g,1.0,1.0780160419999447,,,,,,,,,,,,,,0.0,10.0,10.0,3.0,,,,,74.21252887499986,,,,,,,,,,,,,,,,,74.20903275,75.01283250000006,75.80649549999998,75.7978203749999,,,,,,,,,,,,,,,,75.7980551669998,75.80649549999998,75.80649549999998,76.89271537500008,g,1.0,1.0780160419999447,,76.89298125000005,76.8992065829998,77.89214566700002,77.89629216699996,,,,,,,,,,,,,,,,,,,,sub-022,2,stroop_test,,
,,,,11.0,11.0,0.0,,,,,blau,blue,b,1.0,b,1.0,0.4500096249998933,,,,,,,,,,,,,,0.0,11.0,11.0,6.0,,,,,77.89629216699996,,,,,,,,,,,,,,,,,77.89236312499997,79.09007808299975,79.88140204199999,79.87538441700008,,,,,,,,,,,,,,,,79.87706987499996,79.88140204199999,79.88140204199999,80.34283724999977,b,1.0,0.4500096249998933,,80.34309174999999,80.34970420799982,81.34239712499993,81.34638937499994,,,,,,,,,,,,,,,,,,,,sub-022,2,stroop_test,,
,,,,12.0,0.0,1.0,,,,,blau,yellow,g,0.0,g,1.0,0.7757736670000668,,,,,,,,,,,,,,1.0,0.0,12.0,7.0,,,,,81.34638937499994,,,,,,,,,,,,,,,,,81.34265158299968,82.54013266699985,83.32922800000006,83.32515049999984,,,,,,,,,,,,,,,,83.32534208299967,83.32922800000006,83.32922800000006,84.10957104199997,g,1.0,0.7757736670000668,,84.10980254199967,84.11604224999974,85.10906762500008,85.1128315420001,,,,,,,,,,,,,,,,,,,,sub-022,2,stroop_test,,
,,,,13.0,1.0,1.0,,,,,gelb,red,r,0.0,r,1.0,0.6375903749999452,,,,,,,,,,,,,,1.0,1.0,13.0,8.0,,,,,85.1128315420001,,,,,,,,,,,,,,,,,85.10928045799983,85.2063633329999,85.99890499999992,85.99250249999977,,,,,,,,,,,,,,,,85.99419175000003,85.99890499999992,85.99890499999992,86.64291908299992,r,1.0,0.6375903749999452,,86.64316666700006,86.64910624999993,87.64251995799987,87.64647470799991,,,,,,,,,,,,,,,,,,,,sub-022,2,stroop_test,,
,,,,14.0,2.0,1.0,,,,,rot,yellow,g,0.0,g,1.0,0.4189302919999136,,,,,,,,,,,,,,1.0,2.0,14.0,3.0,,,,,87.64647470799991,,,,,,,,,,,,,,,,,87.6427518749997,88.84038458299983,89.63208304199998,89.62587741700008,,,,,,,,,,,,,,,,89.62752945800003,89.63208304199998,89.63208304199998,90.05973395799992,g,1.0,0.4189302919999136,,90.05998037499967,90.06575058299995,91.05922441699975,91.06310549999988,,,,,,,,,,,,,,,,,,,,sub-022,2,stroop_test,,
,,,,15.0,3.0,1.0,,,,,gelb,yellow,g,1.0,g,1.0,0.5933121250000113,,,,,,,,,,,,,,1.0,3.0,15.0,11.0,,,,,91.06310549999988,,,,,,,,,,,,,,,,,91.05944179199967,91.85716299999967,92.64949649999971,92.64296108300005,,,,,,,,,,,,,,,,92.64494145799972,92.64949649999971,92.64949649999971,93.24869112499982,g,1.0,0.5933121250000113,,93.24894979200008,93.25643883299972,94.24301329199989,94.24668295799984,,,,,,,,,,,,,,,,,,,,sub-022,2,stroop_test,,
,,,,16.0,4.0,1.0,,,,,rot,red,r,1.0,r,1.0,0.7627737920001891,,,,,,,,,,,,,,1.0,4.0,16.0,0.0,,,,,94.24668295799984,,,,,,,,,,,,,,,,,94.2432462920001,94.59630266699968,95.390385917,95.38118566699995,,,,,,,,,,,,,,,,95.38231374999988,95.390385917,95.390385917,96.16050391699991,r,1.0,0.7627737920001891,,96.16078637500004,96.16700620799976,97.159656542,97.16364916699968,,,,,,,,,,,,,,,,,,,,sub-022,2,stroop_test,,
,,,,17.0,5.0,1.0,,,,,blau,blue,b,1.0,b,1.0,0.4873286249999182,,,,,,,,,,,,,,1.0,5.0,17.0,6.0,,,,,97.16364916699968,,,,,,,,,,,,,,,,,97.15988391700012,97.95737341699989,98.74969329199983,98.74326870799996,,,,,,,,,,,,,,,,98.7450951249998,98.74969329199983,98.74969329199983,99.24356791699984,b,1.0,0.4873286249999182,,99.24383662499986,99.24998495799991,100.24293558299996,100.246589375,,,,,,,,,,,,,,,,,,,,sub-022,2,stroop_test,,
,,,,18.0,6.0,1.0,,,,,gelb,blue,b,0.0,b,1.0,0.5266946659999121,,,,,,,,,,,,,,1.0,6.0,18.0,9.0,,,,,100.246589375,,,,,,,,,,,,,,,,,100.24314445799972,100.59077520799974,101.38262216699968,101.37649299999975,,,,,,,,,,,,,,,,101.37821754199967,101.38262216699968,101.38262216699968,101.9162218749998,b,1.0,0.5266946659999121,,101.91648575,101.92337908299989,102.90982004199986,102.91342779199977,,,,,,,,,,,,,,,,,,,,sub-022,2,stroop_test,,
,,,,19.0,7.0,1.0,,,,,gelb,yellow,g,1.0,g,1.0,0.8214798330000121,,,,,,,,,,,,,,1.0,7.0,19.0,10.0,,,,,102.91342779199977,,,,,,,,,,,,,,,,,102.91005229199982,104.1130670829998,104.90734045799992,104.89863420799976,,,,,,,,,,,,,,,,104.89886729199998,104.90734045799992,104.90734045799992,105.73272387499992,g,1.0,0.8214798330000121,,105.73300124999967,105.74027804199976,106.72674366699994,106.73069833299996,,,,,,,,,,,,,,,,,,,,sub-022,2,stroop_test,,
,,,,20.0,8.0,1.0,,,,,blau,blue,b,1.0,b,1.0,0.5563558329999978,,,,,,,,,,,,,,1.0,8.0,20.0,5.0,,,,,106.73069833299996,,,,,,,,,,,,,,,,,106.7269671250001,107.080332042,107.87370800000008,107.86610637500009,,,,,,,,,,,,,,,,107.86782908299983,107.87370800000008,107.87370800000008,108.43314037499977,b,1.0,0.5563558329999978,,108.433411083,108.44039729199994,109.4267649579997,109.43073812500006,,,,,,,,,,,,,,,,,,,,sub-022,2,stroop_test,,
,,,,21.0,9.0,1.0,,,,,rot,red,r,1.0,r,1.0,0.3261784169999373,,,,,,,,,,,,,,1.0,9.0,21.0,1.0,,,,,109.43073812500006,,,,,,,,,,,,,,,,,109.42701699999998,110.23008124999978,111.02379133299974,111.01572258299984,,,,,,,,,,,,,,,,111.01762629199992,111.02379133299974,111.02379133299974,111.36073791699982,r,1.0,0.3261784169999373,,111.36098841700004,111.36690320799973,112.36016066699996,112.36385966699982,,,,,,,,,,,,,,,,,,,,sub-022,2,stroop_test,,
,,,,22.0,10.0,1.0,,,,,blau,red,r,0.0,r,1.0,0.5430754169997272,,,,,,,,,,,,,,1.0,10.0,22.0,4.0,,,,,112.36385966699982,,,,,,,,,,,,,,,,,112.36039391699978,113.157868625,113.9502454579997,113.94359124999984,,,,,,,,,,,,,,,,113.9455067079998,113.9502454579997,113.9502454579997,114.49478199999976,r,1.0,0.5430754169997272,,114.49503395800002,114.50128816699998,115.49361195799976,115.49741233299984,,,,,,,,,,,,,,,,,,,,sub-022,2,stroop_test,,
,,,,23.0,11.0,1.0,,,,,rot,blue,b,0.0,b,1.0,0.8595568750001803,,,,,,,,,,,,,,1.0,11.0,23.0,2.0,,,,,115.49741233299984,,,,,,,,,,,,,,,,,115.49382133299969,115.84135933299967,116.63296245799984,116.62679920799974,,,,,,,,,,,,,,,,116.62843783299968,116.63296245799984,116.63296245799984,117.49431787499998,b,1.0,0.8595568750001803,,117.49456704199974,117.50022120799986,118.4937588329999,118.49838066699976,,,,,,,,,,,,,,,,,,,,sub-022,2,stroop_test,,
,,,,,,,,,,,,,,,,,,,,,,,,,,,,,,,,,,,,,,,,,,,,,,,,,,,,,,,,,,,,,,,,,,,,,,,,,,,,,,,,,,,,,,,118.49384874999988,118.49838066699976,118.49838066699976,131.98421295799972,space,13.48082075000002,,,,,,,,,,,,,,sub-022,2,stroop_test,,
,,,,0.0,0.0,0.0,,,,,,,,,,,,,gelb,red,r,0.0,r,1.0,0.4761844580002616,,,,,,,,,,0.0,0.0,0.0,8.0,131.99765045799995,,,,,,,,,,,,,,,,,131.99279724999997,132.0801684170001,132.87460108300002,132.8665514999998,,,,,,,,,,,,,,,,,,,,,,,,,,,,,,,,,,,132.86825354199982,132.87460108300002,132.87460108300002,133.36172145799992,r,1.0,0.4761844580002616,,,,,,sub-022,2,stroop_test,,
,,,,1.0,1.0,0.0,,,,,,,,,,,,,blau,blue,b,1.0,b,1.0,0.5096571250001034,,,,,,,,,,0.0,1.0,1.0,5.0,133.3676412079999,,,,,,,,,,,,,,,,,133.36199374999978,133.7086906669997,134.50117150000003,134.49464695799998,,,,,,,,,,,,,,,,,,,,,,,,,,,,,,,,,,,134.4965367079999,134.50117150000003,134.50117150000003,135.012152667,b,1.0,0.5096571250001034,,,,,,sub-022,2,stroop_test,,
,,,,2.0,2.0,0.0,,,,,,,,,,,,,rot,red,r,1.0,r,1.0,0.5736191249998228,,,,,,,,,,0.0,2.0,2.0,1.0,135.01597379199984,,,,,,,,,,,,,,,,,135.01242091699987,135.3585426669997,136.1507927499997,136.14431845799982,,,,,,,,,,,,,,,,,,,,,,,,,,,,,,,,,,,136.1459945419997,136.1507927499997,136.1507927499997,136.72832254200011,r,1.0,0.5736191249998228,,,,,,sub-022,2,stroop_test,,
,,,,3.0,3.0,0.0,,,,,,,,,,,,,rot,red,r,1.0,r,1.0,0.5996284169996215,,,,,,,,,,0.0,3.0,3.0,0.0,136.7339300829999,,,,,,,,,,,,,,,,,136.728568,136.82543079199968,137.61516033299995,137.61087870799977,,,,,,,,,,,,,,,,,,,,,,,,,,,,,,,,,,,137.611115833,137.61516033299995,137.61516033299995,138.21767858299972,r,1.0,0.5996284169996215,,,,,,sub-022,2,stroop_test,,
,,,,4.0,4.0,0.0,,,,,,,,,,,,,gelb,yellow,g,1.0,g,1.0,1.239723208000214,,,,,,,,,,0.0,4.0,4.0,11.0,138.22478383299995,,,,,,,,,,,,,,,,,138.2179752080001,138.5649968329999,139.3581335419999,139.3500423329997,,,,,,,,,,,,,,,,,,,,,,,,,,,,,,,,,,,139.3522268749998,139.3581335419999,139.3581335419999,140.60094745800006,g,1.0,1.239723208000214,,,,,,sub-022,2,stroop_test,,
,,,,5.0,5.0,0.0,,,,,,,,,,,,,rot,blue,b,0.0,r,0.0,0.6076237920001404,,,,,,,,,,0.0,5.0,5.0,2.0,140.6082073749999,,,,,,,,,,,,,,,,,140.60122737499978,141.39850070800003,142.19158208299996,142.18367870800012,,,,,,,,,,,,,,,,,,,,,,,,,,,,,,,,,,,142.18549304199996,142.19158208299996,142.19158208299996,142.80152695800007,r,0.0,0.6076237920001404,,,,,,sub-022,2,stroop_test,,
,,,,6.0,6.0,0.0,,,,,,,,,,,,,gelb,blue,b,0.0,b,1.0,0.7690599160000602,,,,,,,,,,0.0,6.0,6.0,9.0,142.80825029199968,,,,,,,,,,,,,,,,,142.80181237499983,143.99849020800002,144.79213600000003,144.78327666699988,,,,,,,,,,,,,,,,,,,,,,,,,,,,,,,,,,,144.784974875,144.79213600000003,144.79213600000003,145.56259141700002,b,1.0,0.7690599160000602,,,,,,sub-022,2,stroop_test,,
,,,,7.0,7.0,0.0,,,,,,,,,,,,,rot,yellow,g,0.0,g,1.0,1.1031437920000826,,,,,,,,,,0.0,7.0,7.0,3.0,145.5663409169997,,,,,,,,,,,,,,,,,145.5628422079999,145.9087263749998,146.7013105000001,146.6948695000001,,,,,,,,,,,,,,,,,,,,,,,,,,,,,,,,,,,146.69669933299974,146.7013105000001,146.7013105000001,147.812325333,g,1.0,1.1031437920000826,,,,,,sub-022,2,stroop_test,,
,,,,8.0,8.0,0.0,,,,,,,,,,,,,blau,blue,b,1.0,b,1.0,1.2035822500001814,,,,,,,,,,0.0,8.0,8.0,6.0,147.81824645799998,,,,,,,,,,,,,,,,,147.81259962500008,148.60919466699988,149.40105779199985,149.39481116699972,,,,,,,,,,,,,,,,,,,,,,,,,,,,,,,,,,,149.39649612499989,149.40105779199985,149.40105779199985,150.6119262080001,b,1.0,1.2035822500001814,,,,,,sub-022,2,stroop_test,,
,,,,9.0,9.0,0.0,,,,,,,,,,,,,blau,red,r,0.0,r,1.0,0.7688229169998522,,,,,,,,,,0.0,9.0,9.0,4.0,150.617895375,,,,,,,,,,,,,,,,,150.61216562499976,150.70931279199976,151.49966412499998,151.4951300419998,,,,,,,,,,,,,,,,,,,,,,,,,,,,,,,,,,,151.49533712499988,151.49966412499998,151.49966412499998,152.279362667,r,1.0,0.7688229169998522,,,,,,sub-022,2,stroop_test,,
,,,,10.0,10.0,0.0,,,,,,,,,,,,,blau,yellow,g,0.0,g,1.0,0.3463813339999433,,,,,,,,,,0.0,10.0,10.0,7.0,152.28537874999984,,,,,,,,,,,,,,,,,152.27965454200012,153.47616829199978,154.26617987500003,154.26171595799997,,,,,,,,,,,,,,,,,,,,,,,,,,,,,,,,,,,154.2619371669998,154.26617987500003,154.26617987500003,154.61804320800002,g,1.0,0.3463813339999433,,,,,,sub-022,2,stroop_test,,
,,,,11.0,11.0,0.0,,,,,,,,,,,,,gelb,yellow,g,1.0,r,0.0,0.4813143339997623,,,,,,,,,,0.0,11.0,11.0,10.0,154.6253969999998,,,,,,,,,,,,,,,,,154.61831645799975,154.71617179199984,155.51836462499978,155.51189566699986,,,,,,,,,,,,,,,,,,,,,,,,,,,,,,,,,,,155.51379162500007,155.51836462499978,155.51836462499978,156.00098337500003,r,0.0,0.4813143339997623,,,,,,sub-022,2,stroop_test,,
,,,,12.0,0.0,1.0,,,,,,,,,,,,,rot,red,r,1.0,r,1.0,0.5399983749998682,,,,,,,,,,1.0,0.0,12.0,0.0,156.00883420799985,,,,,,,,,,,,,,,,,156.00122199999987,156.34836679199998,157.1426134169997,157.13339370799986,,,,,,,,,,,,,,,,,,,,,,,,,,,,,,,,,,,157.1350447079999,157.1426134169997,157.1426134169997,157.68473812499997,r,1.0,0.5399983749998682,,,,,,sub-022,2,stroop_test,,
,,,,13.0,1.0,1.0,,,,,,,,,,,,,gelb,yellow,g,1.0,g,1.0,0.4434656250000444,,,,,,,,,,1.0,1.0,13.0,10.0,157.69216574999973,,,,,,,,,,,,,,,,,157.68499062499995,158.0306465829999,158.82548529199994,158.8174856669998,,,,,,,,,,,,,,,,,,,,,,,,,,,,,,,,,,,158.81938487499974,158.82548529199994,158.82548529199994,159.27948258300012,g,1.0,0.4434656250000444,,,,,,sub-022,2,stroop_test,,
,,,,14.0,2.0,1.0,,,,,,,,,,,,,gelb,blue,b,0.0,b,1.0,0.6537937499997497,,,,,,,,,,1.0,2.0,14.0,9.0,159.2854454999997,,,,,,,,,,,,,,,,,159.279718625,160.07635866700002,160.86654520799993,160.86192295799992,,,,,,,,,,,,,,,,,,,,,,,,,,,,,,,,,,,160.86216558299975,160.86654520799993,160.86654520799993,161.5295014999997,b,1.0,0.6537937499997497,,,,,,sub-022,2,stroop_test,,
,,,,15.0,3.0,1.0,,,,,,,,,,,,,blau,red,r,0.0,r,1.0,0.5001459170002818,,,,,,,,,,1.0,3.0,15.0,4.0,161.53545462500006,,,,,,,,,,,,,,,,,161.52977091699995,161.8763704170001,162.66851662499994,162.662005958,,,,,,,,,,,,,,,,,,,,,,,,,,,,,,,,,,,162.66387512499978,162.66851662499994,162.66851662499994,163.17937674999985,r,1.0,0.5001459170002818,,,,,,sub-022,2,stroop_test,,
,,,,16.0,4.0,1.0,,,,,,,,,,,,,blau,yellow,g,0.0,g,1.0,0.6132624589999978,,,,,,,,,,1.0,4.0,16.0,7.0,163.18516783299992,,,,,,,,,,,,,,,,,163.179613667,164.37648366699975,165.16699795799968,165.1623485,,,,,,,,,,,,,,,,,,,,,,,,,,,,,,,,,,,165.1626229579997,165.16699795799968,165.16699795799968,165.7853692919998,g,1.0,0.6132624589999978,,,,,,sub-022,2,stroop_test,,
,,,,17.0,5.0,1.0,,,,,,,,,,,,,rot,red,r,1.0,r,1.0,0.6399414999996225,,,,,,,,,,1.0,5.0,17.0,1.0,165.79242616700003,,,,,,,,,,,,,,,,,165.78567720799992,166.98248029199976,167.7759147920001,167.76773745799983,,,,,,,,,,,,,,,,,,,,,,,,,,,,,,,,,,,167.7695723329998,167.7759147920001,167.7759147920001,168.4188342919997,r,1.0,0.6399414999996225,,,,,,sub-022,2,stroop_test,,
,,,,18.0,6.0,1.0,,,,,,,,,,,,,gelb,red,r,0.0,r,1.0,0.7649860830001671,,,,,,,,,,1.0,6.0,18.0,8.0,168.4258800829998,,,,,,,,,,,,,,,,,168.41912116699996,168.7657670829999,169.55922062499985,169.5511912080001,,,,,,,,,,,,,,,,,,,,,,,,,,,,,,,,,,,169.55290349999996,169.55922062499985,169.55922062499985,170.32969729199976,r,1.0,0.7649860830001671,,,,,,sub-022,2,stroop_test,,
,,,,19.0,7.0,1.0,,,,,,,,,,,,,blau,blue,b,1.0,b,1.0,0.5648011669995867,,,,,,,,,,1.0,7.0,19.0,6.0,170.33524454200003,,,,,,,,,,,,,,,,,170.32993762499973,170.6765772079998,171.46913320799968,171.46260579199998,,,,,,,,,,,,,,,,,,,,,,,,,,,,,,,,,,,171.46447895799977,171.46913320799968,171.46913320799968,172.03531941699976,b,1.0,0.5648011669995867,,,,,,sub-022,2,stroop_test,,
,,,,20.0,8.0,1.0,,,,,,,,,,,,,gelb,yellow,g,1.0,g,1.0,0.7188174580001032,,,,,,,,,,1.0,8.0,20.0,11.0,172.0427086249997,,,,,,,,,,,,,,,,,172.0355615829999,172.13254574999974,172.92605683300008,172.91795000000002,,,,,,,,,,,,,,,,,,,,,,,,,,,,,,,,,,,172.9196378749998,172.92605683300008,172.92605683300008,173.6463144999998,g,1.0,0.7188174580001032,,,,,,sub-022,2,stroop_test,,
,,,,21.0,9.0,1.0,,,,,,,,,,,,,rot,blue,b,0.0,b,1.0,0.7046367089997148,,,,,,,,,,1.0,9.0,21.0,2.0,173.65206258299986,,,,,,,,,,,,,,,,,173.64656591699986,174.84336062500006,175.63598595799976,175.62936220799975,,,,,,,,,,,,,,,,,,,,,,,,,,,,,,,,,,,175.63110499999993,175.63598595799976,175.63598595799976,176.34623783300003,b,1.0,0.7046367089997148,,,,,,sub-022,2,stroop_test,,
,,,,22.0,10.0,1.0,,,,,,,,,,,,,rot,yellow,g,0.0,g,1.0,0.6383002920001672,,,,,,,,,,1.0,10.0,22.0,3.0,176.35225416699996,,,,,,,,,,,,,,,,,176.3464798750001,176.69345862499995,177.4832847499997,177.47904387500012,,,,,,,,,,,,,,,,,,,,,,,,,,,,,,,,,,,177.47926733299985,177.4832847499997,177.4832847499997,178.13001212499967,g,1.0,0.6383002920001672,,,,,,sub-022,2,stroop_test,,
,,,,23.0,11.0,1.0,,,,,,,,,,,,,blau,blue,b,1.0,b,1.0,0.6021059999998215,,,,,,,,,,1.0,11.0,23.0,5.0,178.13586024999995,,,,,,,,,,,,,,,,,178.1303039999998,178.22697141699973,179.01886070799992,179.01242416700006,,,,,,,,,,,,,,,,,,,,,,,,,,,,,,,,,,,179.01430337500005,179.01886070799992,179.01886070799992,179.62970737499973,b,1.0,0.6021059999998215,,,,,,sub-022,2,stroop_test,,
,,,,24.0,0.0,2.0,,,,,,,,,,,,,gelb,yellow,g,1.0,g,1.0,0.6969028749999779,,,,,,,,,,2.0,0.0,24.0,11.0,179.63564316699967,,,,,,,,,,,,,,,,,179.629944625,179.7270933750001,180.5191796250001,180.5125469999998,,,,,,,,,,,,,,,,,,,,,,,,,,,,,,,,,,,180.51461462499992,180.5191796250001,180.5191796250001,181.21907299999972,g,1.0,0.6969028749999779,,,,,,sub-022,2,stroop_test,,
,,,,25.0,1.0,2.0,,,,,,,,,,,,,blau,blue,b,1.0,b,1.0,0.7953544160000092,,,,,,,,,,2.0,1.0,25.0,5.0,181.2263053329998,,,,,,,,,,,,,,,,,181.219347708,181.56634674999987,182.3596910000001,182.35171629199976,,,,,,,,,,,,,,,,,,,,,,,,,,,,,,,,,,,182.3535537499997,182.3596910000001,182.3596910000001,183.16316499999996,b,1.0,0.7953544160000092,,,,,,sub-022,2,stroop_test,,
,,,,26.0,2.0,2.0,,,,,,,,,,,,,blau,yellow,g,0.0,g,1.0,1.1029191249999712,,,,,,,,,,2.0,2.0,26.0,7.0,183.16916508299985,,,,,,,,,,,,,,,,,183.16340441700004,184.36043820799975,185.15144579199975,185.1466363330001,,,,,,,,,,,,,,,,,,,,,,,,,,,,,,,,,,,185.1469051250001,185.15144579199975,185.15144579199975,186.263782042,g,1.0,1.1029191249999712,,,,,,sub-022,2,stroop_test,,
,,,,27.0,3.0,2.0,,,,,,,,,,,,,gelb,yellow,g,1.0,g,1.0,0.4499177080001573,,,,,,,,,,2.0,3.0,27.0,10.0,186.269815917,,,,,,,,,,,,,,,,,186.26407333299997,187.4604689580001,188.2524979169998,188.24617741699967,,,,,,,,,,,,,,,,,,,,,,,,,,,,,,,,,,,188.24790558299992,188.2524979169998,188.2524979169998,188.71360191699975,g,1.0,0.4499177080001573,,,,,,sub-022,2,stroop_test,,
,,,,28.0,4.0,2.0,,,,,,,,,,,,,rot,yellow,g,0.0,g,1.0,0.4984632079999755,,,,,,,,,,2.0,4.0,28.0,3.0,188.7194492919998,,,,,,,,,,,,,,,,,188.7138594170001,189.06053629200005,189.8527442919999,189.8463873749997,,,,,,,,,,,,,,,,,,,,,,,,,,,,,,,,,,,189.8480623749997,189.8527442919999,189.8527442919999,190.35275091699987,g,1.0,0.4984632079999755,,,,,,sub-022,2,stroop_test,,
,,,,29.0,5.0,2.0,,,,,,,,,,,,,rot,red,r,1.0,r,1.0,0.4213639999998122,,,,,,,,,,2.0,5.0,29.0,1.0,190.36061729199992,,,,,,,,,,,,,,,,,190.3529894170001,190.69997245800005,191.4939892919997,191.48554883299997,,,,,,,,,,,,,,,,,,,,,,,,,,,,,,,,,,,191.4857669580001,191.4939892919997,191.4939892919997,191.919052833,r,1.0,0.4213639999998122,,,,,,sub-022,2,stroop_test,,
,,,,30.0,6.0,2.0,,,,,,,,,,,,,gelb,red,r,0.0,r,1.0,0.685868708000271,,,,,,,,,,2.0,6.0,30.0,8.0,191.92681433300004,,,,,,,,,,,,,,,,,191.91933441699985,192.71676424999987,193.51011587499988,193.5023659579997,,,,,,,,,,,,,,,,,,,,,,,,,,,,,,,,,,,193.50419304199977,193.51011587499988,193.51011587499988,194.1972753330001,r,1.0,0.685868708000271,,,,,,sub-022,2,stroop_test,,
,,,,31.0,7.0,2.0,,,,,,,,,,,,,rot,blue,b,0.0,b,1.0,0.4285019579997424,,,,,,,,,,2.0,7.0,31.0,2.0,194.2010104169999,,,,,,,,,,,,,,,,,194.19753258299988,194.99415599999972,195.78604795799995,195.77981362499983,,,,,,,,,,,,,,,,,,,,,,,,,,,,,,,,,,,195.7814868749997,195.78604795799995,195.78604795799995,196.2183851249997,b,1.0,0.4285019579997424,,,,,,sub-022,2,stroop_test,,
,,,,32.0,8.0,2.0,,,,,,,,,,,,,blau,blue,b,1.0,b,1.0,0.6355749580002339,,,,,,,,,,2.0,8.0,32.0,6.0,196.2271274579998,,,,,,,,,,,,,,,,,196.21858574999987,196.31558483299975,197.11031912499996,197.10230912499992,,,,,,,,,,,,,,,,,,,,,,,,,,,,,,,,,,,197.10397749999996,197.11031912499996,197.11031912499996,197.74724829199977,b,1.0,0.6355749580002339,,,,,,sub-022,2,stroop_test,,
,,,,33.0,9.0,2.0,,,,,,,,,,,,,rot,red,r,1.0,r,1.0,0.5987429169999814,,,,,,,,,,2.0,9.0,33.0,0.0,197.752898708,,,,,,,,,,,,,,,,,197.74750883299976,198.9444082079999,199.73627358299973,199.72986679199997,,,,,,,,,,,,,,,,,,,,,,,,,,,,,,,,,,,199.731703292,199.73627358299973,199.73627358299973,200.3362858749997,r,1.0,0.5987429169999814,,,,,,sub-022,2,stroop_test,,
,,,,34.0,10.0,2.0,,,,,,,,,,,,,gelb,blue,b,0.0,b,1.0,0.8586908750003204,,,,,,,,,,2.0,10.0,34.0,9.0,200.3437464579997,,,,,,,,,,,,,,,,,200.336524458,201.5341361249998,202.327126958,202.3188259999997,,,,,,,,,,,,,,,,,,,,,,,,,,,,,,,,,,,202.320872583,202.327126958,202.327126958,203.1968593329998,b,1.0,0.8586908750003204,,,,,,sub-022,2,stroop_test,,
,,,,35.0,11.0,2.0,,,,,,,,,,,,,blau,red,r,0.0,r,1.0,0.5455141659999754,,,,,,,,,,2.0,11.0,35.0,4.0,203.20276054199985,,,,,,,,,,,,,,,,,203.19713541700003,204.3945489580001,205.18486395799985,205.17949125,,,,,,,,,,,,,,,,,,,,,,,,,,,,,,,,,,,205.18082583299972,205.18486395799985,205.18486395799985,205.7365836670001,r,1.0,0.5455141659999754,,,,,,sub-022,2,stroop_test,,
,,,,36.0,0.0,3.0,,,,,,,,,,,,,rot,blue,b,0.0,b,1.0,0.7289615839999897,,,,,,,,,,3.0,0.0,36.0,2.0,205.743914958,,,,,,,,,,,,,,,,,205.73686479199975,205.83361849999983,206.63422079199967,206.629197792,,,,,,,,,,,,,,,,,,,,,,,,,,,,,,,,,,,206.63027570799977,206.63422079199967,206.63422079199967,207.3644798749997,b,1.0,0.7289615839999897,,,,,,sub-022,2,stroop_test,,
,,,,37.0,1.0,3.0,,,,,,,,,,,,,gelb,red,r,0.0,r,1.0,0.7369726660003835,,,,,,,,,,3.0,1.0,37.0,8.0,207.3681648329998,,,,,,,,,,,,,,,,,207.3647269580001,208.16134599999987,208.95365929199988,208.947082833,,,,,,,,,,,,,,,,,,,,,,,,,,,,,,,,,,,208.948936667,208.95365929199988,208.95365929199988,209.69797808299973,r,1.0,0.7369726660003835,,,,,,sub-022,2,stroop_test,,
,,,,38.0,2.0,3.0,,,,,,,,,,,,,blau,yellow,g,0.0,g,1.0,0.4293378340003073,,,,,,,,,,3.0,2.0,38.0,7.0,209.7038904169999,,,,,,,,,,,,,,,,,209.6982456669998,210.04463820799992,210.83696470799987,210.83047262499983,,,,,,,,,,,,,,,,,,,,,,,,,,,,,,,,,,,210.8323392919997,210.83696470799987,210.83696470799987,211.2700164580001,g,1.0,0.4293378340003073,,,,,,sub-022,2,stroop_test,,
,,,,39.0,3.0,3.0,,,,,,,,,,,,,blau,blue,b,1.0,b,1.0,0.3540912089997619,,,,,,,,,,3.0,3.0,39.0,5.0,211.2774922919998,,,,,,,,,,,,,,,,,211.2702493329998,211.6172857500001,212.411592208,212.40312004199995,,,,,,,,,,,,,,,,,,,,,,,,,,,,,,,,,,,212.4033475829997,212.411592208,212.411592208,212.77057058299988,b,1.0,0.3540912089997619,,,,,,sub-022,2,stroop_test,,
,,,,40.0,4.0,3.0,,,,,,,,,,,,,blau,blue,b,1.0,b,1.0,0.5525005829999827,,,,,,,,,,3.0,4.0,40.0,6.0,212.7775000419997,,,,,,,,,,,,,,,,,212.77083091699976,213.9675085419999,214.761561583,214.75291012499972,,,,,,,,,,,,,,,,,,,,,,,,,,,,,,,,,,,214.75314095799968,214.761561583,214.761561583,215.32040341699985,b,1.0,0.5525005829999827,,,,,,sub-022,2,stroop_test,,
,,,,41.0,5.0,3.0,,,,,,,,,,,,,rot,red,r,1.0,r,1.0,0.5782687089999854,,,,,,,,,,3.0,5.0,41.0,0.0,215.3276585829999,,,,,,,,,,,,,,,,,215.320680583,216.1179689579999,216.9178855,216.9130278749999,,,,,,,,,,,,,,,,,,,,,,,,,,,,,,,,,,,216.91410879199972,216.9178855,216.9178855,217.49782862499976,r,1.0,0.5782687089999854,,,,,,sub-022,2,stroop_test,,
,,,,42.0,6.0,3.0,,,,,,,,,,,,,rot,yellow,g,0.0,g,1.0,0.7445840830000634,,,,,,,,,,3.0,6.0,42.0,3.0,217.50352350000003,,,,,,,,,,,,,,,,,217.49807129200008,217.5948478749997,218.3852024580001,218.38066229199967,,,,,,,,,,,,,,,,,,,,,,,,,,,,,,,,,,,218.3808641249998,218.3852024580001,218.3852024580001,219.1314438750001,g,1.0,0.7445840830000634,,,,,,sub-022,2,stroop_test,,
,,,,43.0,7.0,3.0,,,,,,,,,,,,,gelb,yellow,g,1.0,g,1.0,0.553552542000034,,,,,,,,,,3.0,7.0,43.0,11.0,219.13521758299976,,,,,,,,,,,,,,,,,219.13170408299996,220.32844887500005,221.12085266699975,221.11427679200008,,,,,,,,,,,,,,,,,,,,,,,,,,,,,,,,,,,221.116323708,221.12085266699975,221.12085266699975,221.68166995799996,g,1.0,0.553552542000034,,,,,,sub-022,2,stroop_test,,
,,,,44.0,8.0,3.0,,,,,,,,,,,,,rot,red,r,1.0,r,1.0,0.4948920830001952,,,,,,,,,,3.0,8.0,44.0,1.0,221.68735966699975,,,,,,,,,,,,,,,,,221.68192199999976,222.0285543750001,222.82068704199992,222.8142026669998,,,,,,,,,,,,,,,,,,,,,,,,,,,,,,,,,,,222.8160262920001,222.82068704199992,222.82068704199992,223.3204202500001,r,1.0,0.4948920830001952,,,,,,sub-022,2,stroop_test,,
,,,,45.0,9.0,3.0,,,,,,,,,,,,,gelb,yellow,g,1.0,g,1.0,0.504516749999766,,,,,,,,,,3.0,9.0,45.0,10.0,223.32793708300005,,,,,,,,,,,,,,,,,223.32069766699988,224.51817491699967,225.3116822500001,225.30290912500004,,,,,,,,,,,,,,,,,,,,,,,,,,,,,,,,,,,225.30459724999992,225.3116822500001,225.3116822500001,225.8208770000001,g,1.0,0.504516749999766,,,,,,sub-022,2,stroop_test,,
,,,,46.0,10.0,3.0,,,,,,,,,,,,,blau,red,r,0.0,r,1.0,0.5225209999998697,,,,,,,,,,3.0,10.0,46.0,4.0,225.82794925000007,,,,,,,,,,,,,,,,,225.8211459169997,227.0167442500001,227.8113799580001,227.8035647920001,,,,,,,,,,,,,,,,,,,,,,,,,,,,,,,,,,,227.80546133300004,227.8113799580001,227.8113799580001,228.337979292,r,1.0,0.5225209999998697,,,,,,sub-022,2,stroop_test,,
,,,,47.0,11.0,3.0,,,,,,,,,,,,,gelb,blue,b,0.0,b,1.0,0.4578092500000821,,,,,,,,,,3.0,11.0,47.0,9.0,228.3446926669999,,,,,,,,,,,,,,,,,228.338249167,229.5349491249999,230.32820595799967,230.3202187920001,,,,,,,,,,,,,,,,,,,,,,,,,,,,,,,,,,,230.3218819579997,230.32820595799967,230.32820595799967,230.78727574999996,b,1.0,0.4578092500000821,,,,,,sub-022,2,stroop_test,,
,,,,48.0,0.0,4.0,,,,,,,,,,,,,gelb,yellow,g,1.0,g,1.0,0.6468703330001517,,,,,,,,,,4.0,0.0,48.0,11.0,230.79554270800008,,,,,,,,,,,,,,,,,230.7875140420001,231.134500958,231.92858529199972,231.920248208,,,,,,,,,,,,,,,,,,,,,,,,,,,,,,,,,,,231.9204881669998,231.92858529199972,231.92858529199972,232.58184112499976,g,1.0,0.6468703330001517,,,,,,sub-022,2,stroop_test,,
,,,,49.0,1.0,4.0,,,,,,,,,,,,,blau,blue,b,1.0,b,1.0,0.4903984170000512,,,,,,,,,,4.0,1.0,49.0,5.0,232.58759062499985,,,,,,,,,,,,,,,,,232.58209462500008,232.92870504199985,233.721100625,233.7147822500001,,,,,,,,,,,,,,,,,,,,,,,,,,,,,,,,,,,233.716486583,233.721100625,233.721100625,234.21504074999984,b,1.0,0.4903984170000512,,,,,,sub-022,2,stroop_test,,
,,,,50.0,2.0,4.0,,,,,,,,,,,,,blau,blue,b,1.0,b,1.0,0.4983617090001644,,,,,,,,,,4.0,2.0,50.0,6.0,234.218716375,,,,,,,,,,,,,,,,,234.2152768329997,234.31222887500007,235.1020562079998,235.0978246669997,,,,,,,,,,,,,,,,,,,,,,,,,,,,,,,,,,,235.09805129200004,235.1020562079998,235.1020562079998,235.6043662080001,b,1.0,0.4983617090001644,,,,,,sub-022,2,stroop_test,,
,,,,51.0,3.0,4.0,,,,,,,,,,,,,gelb,yellow,g,1.0,g,1.0,0.6289371249999931,,,,,,,,,,4.0,3.0,51.0,10.0,235.61167162499987,,,,,,,,,,,,,,,,,235.60461020799997,235.70141791700007,236.4953839169998,236.48676087500007,,,,,,,,,,,,,,,,,,,,,,,,,,,,,,,,,,,236.4883381249997,236.4953839169998,236.4953839169998,237.1323212919997,g,1.0,0.6289371249999931,,,,,,sub-022,2,stroop_test,,
,,,,52.0,4.0,4.0,,,,,,,,,,,,,rot,yellow,g,0.0,g,1.0,0.4894404589999794,,,,,,,,,,4.0,4.0,52.0,3.0,237.13830474999983,,,,,,,,,,,,,,,,,237.13258433300007,237.47859683299976,238.27199037499983,238.26492895799996,,,,,,,,,,,,,,,,,,,,,,,,,,,,,,,,,,,238.26721020800005,238.27199037499983,238.27199037499983,238.765612792,g,1.0,0.4894404589999794,,,,,,sub-022,2,stroop_test,,
,,,,53.0,5.0,4.0,,,,,,,,,,,,,gelb,blue,b,0.0,b,1.0,0.6031941659998665,,,,,,,,,,4.0,5.0,53.0,9.0,238.7713239579998,,,,,,,,,,,,,,,,,238.7658579579997,238.86249237499987,239.6547017919997,239.64814566699988,,,,,,,,,,,,,,,,,,,,,,,,,,,,,,,,,,,239.650050833,239.6547017919997,239.6547017919997,240.265380458,b,1.0,0.6031941659998665,,,,,,sub-022,2,stroop_test,,
,,,,54.0,6.0,4.0,,,,,,,,,,,,,gelb,red,r,0.0,r,1.0,0.3540187500002503,,,,,,,,,,4.0,6.0,54.0,8.0,240.2712442080001,,,,,,,,,,,,,,,,,240.2656269169997,240.612487333,241.4027740419997,241.39819266699988,,,,,,,,,,,,,,,,,,,,,,,,,,,,,,,,,,,241.3984029999997,241.4027740419997,241.4027740419997,241.76568470799972,r,1.0,0.3540187500002503,,,,,,sub-022,2,stroop_test,,
,,,,55.0,7.0,4.0,,,,,,,,,,,,,rot,blue,b,0.0,b,1.0,1.126435833999949,,,,,,,,,,4.0,7.0,55.0,2.0,241.77146579200007,,,,,,,,,,,,,,,,,241.76596974999984,241.86260433300004,242.65489075000005,242.6484154169998,,,,,,,,,,,,,,,,,,,,,,,,,,,,,,,,,,,242.65028774999973,242.65489075000005,242.65489075000005,243.7826190830001,b,1.0,1.126435833999949,,,,,,sub-022,2,stroop_test,,
,,,,56.0,8.0,4.0,,,,,,,,,,,,,rot,red,r,1.0,r,1.0,0.595412708999902,,,,,,,,,,4.0,8.0,56.0,0.0,243.78631054199968,,,,,,,,,,,,,,,,,243.7828583749997,244.57935837500008,245.36963287499972,245.3650607919999,,,,,,,,,,,,,,,,,,,,,,,,,,,,,,,,,,,245.36532074999968,245.36963287499972,245.36963287499972,245.97069837499976,r,1.0,0.595412708999902,,,,,,sub-022,2,stroop_test,,
,,,,57.0,9.0,4.0,,,,,,,,,,,,,blau,yellow,g,0.0,g,1.0,0.7613905829998657,,,,,,,,,,4.0,9.0,57.0,7.0,245.9787737080001,,,,,,,,,,,,,,,,,245.97096974999977,247.16913487500003,247.96929099999988,247.9642037499998,,,,,,,,,,,,,,,,,,,,,,,,,,,,,,,,,,,247.965480458,247.96929099999988,247.96929099999988,248.73264095800005,g,1.0,0.7613905829998657,,,,,,sub-022,2,stroop_test,,
,,,,58.0,10.0,4.0,,,,,,,,,,,,,blau,red,r,0.0,r,1.0,0.636811458000011,,,,,,,,,,4.0,10.0,58.0,4.0,248.738853417,,,,,,,,,,,,,,,,,248.7329048749998,249.07955516699985,249.87020270799985,249.86555899999985,,,,,,,,,,,,,,,,,,,,,,,,,,,,,,,,,,,249.8658030419997,249.87020270799985,249.87020270799985,250.51568854199968,r,1.0,0.636811458000011,,,,,,sub-022,2,stroop_test,,
,,,,59.0,11.0,4.0,,,,,,,,,,,,,rot,red,r,1.0,r,1.0,0.609888540999691,,,,,,,,,,4.0,11.0,59.0,1.0,250.52157412499992,,,,,,,,,,,,,,,,,250.5159212919998,251.7129759999998,252.50504675,252.4985775,,,,,,,,,,,,,,,,,,,,,,,,,,,,,,,,,,,252.50046429199983,252.50504675,252.50504675,253.1162333749999,r,1.0,0.609888540999691,,,,,,sub-022,2,stroop_test,,
,,,,60.0,0.0,5.0,,,,,,,,,,,,,gelb,red,r,0.0,r,1.0,0.4715547920000063,,,,,,,,,,5.0,0.0,60.0,8.0,253.11998004199995,,,,,,,,,,,,,,,,,253.11646970799984,253.2131095,254.005229375,253.99859454199984,,,,,,,,,,,,,,,,,,,,,,,,,,,,,,,,,,,254.000682417,254.005229375,254.005229375,254.482435292,r,1.0,0.4715547920000063,,,,,,sub-022,2,stroop_test,,
,,,,61.0,1.0,5.0,,,,,,,,,,,,,rot,yellow,g,0.0,g,1.0,0.626282749999973,,,,,,,,,,5.0,1.0,61.0,3.0,254.4884228749997,,,,,,,,,,,,,,,,,254.482718792,255.279474083,256.07183175,256.06564079200007,,,,,,,,,,,,,,,,,,,,,,,,,,,,,,,,,,,256.06729641699985,256.07183175,256.07183175,256.6994022079998,g,1.0,0.626282749999973,,,,,,sub-022,2,stroop_test,,
,,,,62.0,2.0,5.0,,,,,,,,,,,,,gelb,yellow,g,1.0,g,1.0,0.5959462089999761,,,,,,,,,,5.0,2.0,62.0,10.0,256.70309604199974,,,,,,,,,,,,,,,,,256.6996402079999,257.4964762499999,258.2887075829999,258.28214041699994,,,,,,,,,,,,,,,,,,,,,,,,,,,,,,,,,,,258.28403716699995,258.2887075829999,258.2887075829999,258.88871908300007,g,1.0,0.5959462089999761,,,,,,sub-022,2,stroop_test,,
,,,,63.0,3.0,5.0,,,,,,,,,,,,,blau,red,r,0.0,r,1.0,0.5762028750000354,,,,,,,,,,5.0,3.0,63.0,4.0,258.8958362499998,,,,,,,,,,,,,,,,,258.8889824170001,260.0857469580001,260.8792807499999,260.87103124999976,,,,,,,,,,,,,,,,,,,,,,,,,,,,,,,,,,,260.872725833,260.8792807499999,260.8792807499999,261.466650542,r,1.0,0.5762028750000354,,,,,,sub-022,2,stroop_test,,
,,,,64.0,4.0,5.0,,,,,,,,,,,,,rot,red,r,1.0,r,1.0,0.4531929999998283,,,,,,,,,,5.0,4.0,64.0,0.0,261.472598542,,,,,,,,,,,,,,,,,261.4669373329998,261.81339337500003,262.605067167,262.59881641699985,,,,,,,,,,,,,,,,,,,,,,,,,,,,,,,,,,,262.60045579200005,262.605067167,262.605067167,263.0663169579998,r,1.0,0.4531929999998283,,,,,,sub-022,2,stroop_test,,
,,,,65.0,5.0,5.0,,,,,,,,,,,,,blau,blue,b,1.0,b,1.0,0.4783058749999327,,,,,,,,,,5.0,5.0,65.0,6.0,263.0723091249997,,,,,,,,,,,,,,,,,263.0665599169997,263.8634203329998,264.655219708,264.6490282919999,,,,,,,,,,,,,,,,,,,,,,,,,,,,,,,,,,,264.6507127499999,264.655219708,264.655219708,265.1382642919998,b,1.0,0.4783058749999327,,,,,,sub-022,2,stroop_test,,
,,,,66.0,6.0,5.0,,,,,,,,,,,,,blau,blue,b,1.0,b,1.0,0.3525170420002723,,,,,,,,,,5.0,6.0,66.0,5.0,265.1463614169997,,,,,,,,,,,,,,,,,265.1384869169997,266.3360722919997,267.1302086669998,267.1215232499999,,,,,,,,,,,,,,,,,,,,,,,,,,,,,,,,,,,267.1217607499998,267.1302086669998,267.1302086669998,267.4887641669998,b,1.0,0.3525170420002723,,,,,,sub-022,2,stroop_test,,
,,,,67.0,7.0,5.0,,,,,,,,,,,,,gelb,blue,b,0.0,b,1.0,0.4027464170003441,,,,,,,,,,5.0,7.0,67.0,9.0,267.4962081670001,,,,,,,,,,,,,,,,,267.4889968329999,268.68657533299984,269.47958845799985,269.4713003749998,,,,,,,,,,,,,,,,,,,,,,,,,,,,,,,,,,,269.473021667,269.47958845799985,269.47958845799985,269.8835846249999,b,1.0,0.4027464170003441,,,,,,sub-022,2,stroop_test,,
,,,,68.0,8.0,5.0,,,,,,,,,,,,,rot,blue,b,0.0,b,1.0,0.398374166999929,,,,,,,,,,5.0,8.0,68.0,2.0,269.887278792,,,,,,,,,,,,,,,,,269.883822583,269.9804060829997,270.7721282919997,270.765878833,,,,,,,,,,,,,,,,,,,,,,,,,,,,,,,,,,,270.76751116700007,270.7721282919997,270.7721282919997,271.1722152919997,b,1.0,0.398374166999929,,,,,,sub-022,2,stroop_test,,
,,,,69.0,9.0,5.0,,,,,,,,,,,,,gelb,yellow,g,1.0,g,1.0,0.5524805000000015,,,,,,,,,,5.0,9.0,69.0,11.0,271.17965616699985,,,,,,,,,,,,,,,,,271.172492833,271.51987337499986,272.31305812499977,272.3047402919997,,,,,,,,,,,,,,,,,,,,,,,,,,,,,,,,,,,272.30644600000005,272.31305812499977,272.31305812499977,272.86683745799974,g,1.0,0.5524805000000015,,,,,,sub-022,2,stroop_test,,
,,,,70.0,10.0,5.0,,,,,,,,,,,,,rot,red,r,1.0,r,1.0,0.6906144999998105,,,,,,,,,,5.0,10.0,70.0,1.0,272.87053558299976,,,,,,,,,,,,,,,,,272.86708308299967,272.9635895419997,273.7556017080001,273.7493052499999,,,,,,,,,,,,,,,,,,,,,,,,,,,,,,,,,,,273.75094758299974,273.7556017080001,273.7556017080001,274.45003129199995,r,1.0,0.6906144999998105,,,,,,sub-022,2,stroop_test,,
,,,,71.0,11.0,5.0,,,,,,,,,,,,,blau,yellow,g,0.0,g,1.0,0.6575440840001647,,,,,,,,,,5.0,11.0,71.0,7.0,274.45567220799967,,,,,,,,,,,,,,,,,274.4502689579999,275.24687783299987,276.039333875,276.03287554200006,,,,,,,,,,,,,,,,,,,,,,,,,,,,,,,,,,,276.0347365829998,276.039333875,276.039333875,276.7001407079997,g,1.0,0.6575440840001647,,,,,,sub-022,2,stroop_test,,
,,,,72.0,0.0,6.0,,,,,,,,,,,,,gelb,red,r,0.0,r,1.0,1.1554625839999062,,,,,,,,,,6.0,0.0,72.0,8.0,276.7057853749998,,,,,,,,,,,,,,,,,276.70037754199984,277.497403417,278.2894219169998,278.2830409170001,,,,,,,,,,,,,,,,,,,,,,,,,,,,,,,,,,,278.284715625,278.2894219169998,278.2894219169998,279.4506809999998,r,1.0,1.1554625839999062,,,,,,sub-022,2,stroop_test,,
,,,,73.0,1.0,6.0,,,,,,,,,,,,,gelb,yellow,g,1.0,g,1.0,0.747201541999857,,,,,,,,,,6.0,1.0,73.0,10.0,279.45662479199973,,,,,,,,,,,,,,,,,279.4509210829997,279.79735737500005,280.5874698749999,280.5828497919997,,,,,,,,,,,,,,,,,,,,,,,,,,,,,,,,,,,280.5830730829998,280.5874698749999,280.5874698749999,281.3395063749999,g,1.0,0.747201541999857,,,,,,sub-022,2,stroop_test,,
,,,,74.0,2.0,6.0,,,,,,,,,,,,,rot,blue,b,0.0,b,1.0,0.5618675840000833,,,,,,,,,,6.0,2.0,74.0,2.0,281.3466558330001,,,,,,,,,,,,,,,,,281.33973724999987,282.1369667079998,282.93007720800006,282.92225312499977,,,,,,,,,,,,,,,,,,,,,,,,,,,,,,,,,,,282.92389916699995,282.93007720800006,282.93007720800006,283.50050833299974,b,1.0,0.5618675840000833,,,,,,sub-022,2,stroop_test,,
,,,,75.0,3.0,6.0,,,,,,,,,,,,,rot,red,r,1.0,r,1.0,0.4738847499997973,,,,,,,,,,6.0,3.0,75.0,0.0,283.50645241699976,,,,,,,,,,,,,,,,,283.500737333,284.697500708,285.487632417,285.4831059170001,,,,,,,,,,,,,,,,,,,,,,,,,,,,,,,,,,,285.48336579199986,285.487632417,285.487632417,285.96668150000005,r,1.0,0.4738847499997973,,,,,,sub-022,2,stroop_test,,
,,,,76.0,4.0,6.0,,,,,,,,,,,,,rot,red,r,1.0,r,1.0,0.5192408749999231,,,,,,,,,,6.0,4.0,76.0,1.0,285.97255587499967,,,,,,,,,,,,,,,,,285.96697770799983,287.1642311249998,287.9541771250001,287.9498664580001,,,,,,,,,,,,,,,,,,,,,,,,,,,,,,,,,,,287.95011212500003,287.9541771250001,287.9541771250001,288.4839465,r,1.0,0.5192408749999231,,,,,,sub-022,2,stroop_test,,
,,,,77.0,5.0,6.0,,,,,,,,,,,,,blau,blue,b,1.0,b,1.0,0.5051871669998036,,,,,,,,,,6.0,5.0,77.0,6.0,288.4899062499999,,,,,,,,,,,,,,,,,288.48421120800003,289.68104908299983,290.47301312499985,290.46664862499983,,,,,,,,,,,,,,,,,,,,,,,,,,,,,,,,,,,290.46836266699984,290.47301312499985,290.47301312499985,290.98389095799985,b,1.0,0.5051871669998036,,,,,,sub-022,2,stroop_test,,
,,,,78.0,6.0,6.0,,,,,,,,,,,,,blau,red,r,0.0,r,1.0,0.4991410840002572,,,,,,,,,,6.0,6.0,78.0,4.0,290.989859583,,,,,,,,,,,,,,,,,290.9841297079997,291.33122212499984,292.1213729169999,292.1167082500001,,,,,,,,,,,,,,,,,,,,,,,,,,,,,,,,,,,292.116973917,292.1213729169999,292.1213729169999,292.62314608299994,r,1.0,0.4991410840002572,,,,,,sub-022,2,stroop_test,,
,,,,79.0,7.0,6.0,,,,,,,,,,,,,blau,blue,b,1.0,b,1.0,0.8751332080000793,,,,,,,,,,6.0,7.0,79.0,5.0,292.6304678749998,,,,,,,,,,,,,,,,,292.6234157079998,293.82066099999975,294.61446687499983,294.605789833,,,,,,,,,,,,,,,,,,,,,,,,,,,,,,,,,,,294.606018042,294.61446687499983,294.61446687499983,295.500867625,b,1.0,0.8751332080000793,,,,,,sub-022,2,stroop_test,,
,,,,80.0,8.0,6.0,,,,,,,,,,,,,gelb,blue,b,0.0,b,1.0,0.5348042919999898,,,,,,,,,,6.0,8.0,80.0,9.0,295.5067960419997,,,,,,,,,,,,,,,,,295.50113724999983,296.2979069580001,297.0897814169998,297.083348917,,,,,,,,,,,,,,,,,,,,,,,,,,,,,,,,,,,297.0850809579997,297.0897814169998,297.0897814169998,297.6339587919997,b,1.0,0.5348042919999898,,,,,,sub-022,2,stroop_test,,
,,,,81.0,9.0,6.0,,,,,,,,,,,,,rot,yellow,g,0.0,g,1.0,0.6994061670002338,,,,,,,,,,6.0,9.0,81.0,3.0,297.6396135,,,,,,,,,,,,,,,,,297.63420237499986,297.98118049999994,298.7735010829997,298.767153667,,,,,,,,,,,,,,,,,,,,,,,,,,,,,,,,,,,298.7688721669997,298.7735010829997,298.7735010829997,299.4743101670001,g,1.0,0.6994061670002338,,,,,,sub-022,2,stroop_test,,
,,,,82.0,10.0,6.0,,,,,,,,,,,,,gelb,yellow,g,1.0,g,1.0,0.47051112500003,,,,,,,,,,6.0,10.0,82.0,11.0,299.48063349999984,,,,,,,,,,,,,,,,,299.47455387499986,299.57028120799987,300.36416604199985,300.35488933299985,,,,,,,,,,,,,,,,,,,,,,,,,,,,,,,,,,,300.356317583,300.36416604199985,300.36416604199985,300.8399570829997,g,1.0,0.47051112500003,,,,,,sub-022,2,stroop_test,,
,,,,83.0,11.0,6.0,,,,,,,,,,,,,blau,yellow,g,0.0,g,1.0,0.5148980000003576,,,,,,,,,,6.0,11.0,83.0,7.0,300.8473583750001,,,,,,,,,,,,,,,,,300.84024016700005,301.6376850829997,302.4307789999998,302.42290012500007,,,,,,,,,,,,,,,,,,,,,,,,,,,,,,,,,,,302.42460270799984,302.4307789999998,302.4307789999998,302.9510324170001,g,1.0,0.5148980000003576,,,,,,sub-022,2,stroop_test,,
,,,,84.0,0.0,7.0,,,,,,,,,,,,,gelb,yellow,g,1.0,g,1.0,0.3867095830000835,,,,,,,,,,7.0,0.0,84.0,11.0,302.9569610829999,,,,,,,,,,,,,,,,,302.9512730829997,303.29818208300003,304.090180958,304.08377504200007,,,,,,,,,,,,,,,,,,,,,,,,,,,,,,,,,,,304.08560054200007,304.090180958,304.090180958,304.48461391699993,g,1.0,0.3867095830000835,,,,,,sub-022,2,stroop_test,,
,,,,85.0,1.0,7.0,,,,,,,,,,,,,gelb,blue,b,0.0,b,1.0,0.5824707500000841,,,,,,,,,,7.0,1.0,85.0,9.0,304.490515125,,,,,,,,,,,,,,,,,304.48484845799976,305.681410833,306.47149716700005,306.46723570799986,,,,,,,,,,,,,,,,,,,,,,,,,,,,,,,,,,,306.467453708,306.47149716700005,306.47149716700005,307.0567921669999,b,1.0,0.5824707500000841,,,,,,sub-022,2,stroop_test,,
,,,,86.0,2.0,7.0,,,,,,,,,,,,,blau,red,r,0.0,r,1.0,0.625890833000085,,,,,,,,,,7.0,2.0,86.0,4.0,307.0642549999998,,,,,,,,,,,,,,,,,307.0570787500001,307.40418016700005,308.1976736249999,308.18939012500005,,,,,,,,,,,,,,,,,,,,,,,,,,,,,,,,,,,308.191238208,308.1976736249999,308.1976736249999,308.82489020799994,r,1.0,0.625890833000085,,,,,,sub-022,2,stroop_test,,
,,,,87.0,3.0,7.0,,,,,,,,,,,,,rot,blue,b,0.0,b,1.0,1.1399548750000577,,,,,,,,,,7.0,3.0,87.0,2.0,308.83106829200005,,,,,,,,,,,,,,,,,308.82512641699986,309.1700967080001,309.964362833,309.9569141249999,,,,,,,,,,,,,,,,,,,,,,,,,,,,,,,,,,,309.9587495420001,309.964362833,309.964362833,311.10716462499977,b,1.0,1.1399548750000577,,,,,,sub-022,2,stroop_test,,
,,,,88.0,4.0,7.0,,,,,,,,,,,,,blau,yellow,g,0.0,g,1.0,0.7119936250001047,,,,,,,,,,7.0,4.0,88.0,7.0,311.1143956669998,,,,,,,,,,,,,,,,,311.10740720800004,311.9045343329999,312.6977994169997,312.6895976669998,,,,,,,,,,,,,,,,,,,,,,,,,,,,,,,,,,,312.69130291700003,312.6977994169997,312.6977994169997,313.4181564999999,g,1.0,0.7119936250001047,,,,,,sub-022,2,stroop_test,,
,,,,89.0,5.0,7.0,,,,,,,,,,,,,blau,blue,b,1.0,g,0.0,0.4462547919997632,,,,,,,,,,7.0,5.0,89.0,6.0,313.4241205829999,,,,,,,,,,,,,,,,,313.41842158300005,313.5152589999998,314.3053329579998,314.300859083,,,,,,,,,,,,,,,,,,,,,,,,,,,,,,,,,,,314.30108091700004,314.3053329579998,314.3053329579998,314.75672858300004,g,0.0,0.4462547919997632,,,,,,sub-022,2,stroop_test,,
,,,,90.0,6.0,7.0,,,,,,,,,,,,,rot,yellow,g,0.0,g,1.0,0.9031527499996628,,,,,,,,,,7.0,6.0,90.0,3.0,314.76454958299973,,,,,,,,,,,,,,,,,314.7569934170001,314.8540929579999,315.64790970800004,315.6396863330001,,,,,,,,,,,,,,,,,,,,,,,,,,,,,,,,,,,315.6413648329999,315.64790970800004,315.64790970800004,316.55733837499974,g,1.0,0.9031527499996628,,,,,,sub-022,2,stroop_test,,
,,,,91.0,7.0,7.0,,,,,,,,,,,,,blau,blue,b,1.0,b,1.0,0.6791120839998257,,,,,,,,,,7.0,7.0,91.0,5.0,316.56464270800006,,,,,,,,,,,,,,,,,316.55761379199976,317.35483287499983,318.148063958,318.13983466699983,,,,,,,,,,,,,,,,,,,,,,,,,,,,,,,,,,,318.1417167079999,318.148063958,318.148063958,318.8352628329999,b,1.0,0.6791120839998257,,,,,,sub-022,2,stroop_test,,
,,,,92.0,8.0,7.0,,,,,,,,,,,,,rot,red,r,1.0,r,1.0,0.492471999999907,,,,,,,,,,7.0,8.0,92.0,1.0,318.841192375,,,,,,,,,,,,,,,,,318.83552658300005,319.1821204170001,319.97420062499987,319.96761312499984,,,,,,,,,,,,,,,,,,,,,,,,,,,,,,,,,,,319.9694989999998,319.97420062499987,319.97420062499987,320.4682539579999,r,1.0,0.492471999999907,,,,,,sub-022,2,stroop_test,,
,,,,93.0,9.0,7.0,,,,,,,,,,,,,gelb,yellow,g,1.0,g,1.0,0.4428187499997875,,,,,,,,,,7.0,9.0,93.0,10.0,320.4720028329998,,,,,,,,,,,,,,,,,320.4684902079998,320.565498208,321.3575177499997,321.35107500000004,,,,,,,,,,,,,,,,,,,,,,,,,,,,,,,,,,,321.3529384169997,321.3575177499997,321.3575177499997,321.8014885419998,g,1.0,0.4428187499997875,,,,,,sub-022,2,stroop_test,,
,,,,94.0,10.0,7.0,,,,,,,,,,,,,gelb,red,r,0.0,r,1.0,0.6719962920001308,,,,,,,,,,7.0,10.0,94.0,8.0,321.8051801249999,,,,,,,,,,,,,,,,,321.80173158299976,322.14876237499993,322.9387993329997,322.93428970800005,,,,,,,,,,,,,,,,,,,,,,,,,,,,,,,,,,,322.9345158329997,322.9387993329997,322.9387993329997,323.618549375,r,1.0,0.6719962920001308,,,,,,sub-022,2,stroop_test,,
,,,,95.0,11.0,7.0,,,,,,,,,,,,,rot,red,r,1.0,r,1.0,0.4788075419996858,,,,,,,,,,7.0,11.0,95.0,0.0,323.62440370800005,,,,,,,,,,,,,,,,,323.6188280829997,324.8156617499999,325.60726875,325.6011087080001,,,,,,,,,,,,,,,,,,,,,,,,,,,,,,,,,,,325.6027399579998,325.60726875,325.60726875,326.09164224999995,r,1.0,0.4788075419996858,,,,,,sub-022,2,stroop_test,,
,,,,96.0,0.0,8.0,,,,,,,,,,,,,gelb,blue,b,0.0,b,1.0,0.9408307909998256,,,,,,,,,,8.0,0.0,96.0,9.0,326.0982759579997,,,,,,,,,,,,,,,,,326.0919141249997,327.288304792,328.08169904199985,328.0737032920001,,,,,,,,,,,,,,,,,,,,,,,,,,,,,,,,,,,328.07599325,328.08169904199985,328.08169904199985,329.0243035829999,b,1.0,0.9408307909998256,,,,,,sub-022,2,stroop_test,,
,,,,97.0,1.0,8.0,,,,,,,,,,,,,rot,blue,b,0.0,b,1.0,0.4714380830000664,,,,,,,,,,8.0,1.0,97.0,2.0,329.0317799579998,,,,,,,,,,,,,,,,,329.0245399999999,329.12127599999985,329.915227,329.90636908299984,,,,,,,,,,,,,,,,,,,,,,,,,,,,,,,,,,,329.9081773749999,329.915227,329.915227,330.39070087499977,b,1.0,0.4714380830000664,,,,,,sub-022,2,stroop_test,,
,,,,98.0,2.0,8.0,,,,,,,,,,,,,blau,red,r,0.0,r,1.0,0.6700830419999875,,,,,,,,,,8.0,2.0,98.0,4.0,330.39845212499995,,,,,,,,,,,,,,,,,330.390978333,331.1889787079999,331.9818316249998,331.9737810829997,,,,,,,,,,,,,,,,,,,,,,,,,,,,,,,,,,,331.9756444999998,331.9818316249998,331.9818316249998,332.6578907499997,r,1.0,0.6700830419999875,,,,,,sub-022,2,stroop_test,,
,,,,99.0,3.0,8.0,,,,,,,,,,,,,blau,blue,b,1.0,b,1.0,0.5790153749999263,,,,,,,,,,8.0,3.0,99.0,6.0,332.665165375,,,,,,,,,,,,,,,,,332.6581603750001,333.4552913749999,334.2491870829999,334.24099049999995,,,,,,,,,,,,,,,,,,,,,,,,,,,,,,,,,,,334.24122725000007,334.2491870829999,334.2491870829999,334.83579391700005,b,1.0,0.5790153749999263,,,,,,sub-022,2,stroop_test,,
,,,,100.0,4.0,8.0,,,,,,,,,,,,,gelb,yellow,g,1.0,g,1.0,0.5375568330000533,,,,,,,,,,8.0,4.0,100.0,10.0,334.8416547920001,,,,,,,,,,,,,,,,,334.8360725829998,335.1822955829998,335.974591792,335.9682304580001,,,,,,,,,,,,,,,,,,,,,,,,,,,,,,,,,,,335.969942917,335.974591792,335.974591792,336.5188831249998,g,1.0,0.5375568330000533,,,,,,sub-022,2,stroop_test,,
,,,,101.0,5.0,8.0,,,,,,,,,,,,,rot,red,r,1.0,r,1.0,0.4486520000000382,,,,,,,,,,8.0,5.0,101.0,0.0,336.5248190829998,,,,,,,,,,,,,,,,,336.51912345799974,336.6159889999999,337.40810491699995,337.40171199999986,,,,,,,,,,,,,,,,,,,,,,,,,,,,,,,,,,,337.40337958300006,337.40810491699995,337.40810491699995,337.8679926669997,r,1.0,0.4486520000000382,,,,,,sub-022,2,stroop_test,,
,,,,102.0,6.0,8.0,,,,,,,,,,,,,rot,red,r,1.0,r,1.0,0.4183506250001301,,,,,,,,,,8.0,6.0,102.0,1.0,337.872822583,,,,,,,,,,,,,,,,,337.8681584579999,337.9655983749999,338.7559730419998,338.7517069579999,,,,,,,,,,,,,,,,,,,,,,,,,,,,,,,,,,,338.751946417,338.7559730419998,338.7559730419998,339.185514542,r,1.0,0.4183506250001301,,,,,,sub-022,2,stroop_test,,
,,,,103.0,7.0,8.0,,,,,,,,,,,,,gelb,yellow,g,1.0,g,1.0,0.7348777920001339,,,,,,,,,,8.0,7.0,103.0,11.0,339.19134941699986,,,,,,,,,,,,,,,,,339.185791333,340.38280941699986,341.17495737499985,341.1686159169999,,,,,,,,,,,,,,,,,,,,,,,,,,,,,,,,,,,341.1703399170001,341.17495737499985,341.17495737499985,341.91932199999974,g,1.0,0.7348777920001339,,,,,,sub-022,2,stroop_test,,
,,,,104.0,8.0,8.0,,,,,,,,,,,,,blau,yellow,g,0.0,g,1.0,0.5703851670000404,,,,,,,,,,8.0,8.0,104.0,7.0,341.9253749999998,,,,,,,,,,,,,,,,,341.9195871669999,342.7161269170001,343.5086206249998,343.5022040829999,,,,,,,,,,,,,,,,,,,,,,,,,,,,,,,,,,,343.5040422080001,343.5086206249998,343.5086206249998,344.0865032500001,g,1.0,0.5703851670000404,,,,,,sub-022,2,stroop_test,,
,,,,105.0,9.0,8.0,,,,,,,,,,,,,gelb,red,r,0.0,r,1.0,0.6141902079998545,,,,,,,,,,8.0,9.0,105.0,8.0,344.09250429199983,,,,,,,,,,,,,,,,,344.086775583,344.43298749999985,345.2246784999997,345.2181445420001,,,,,,,,,,,,,,,,,,,,,,,,,,,,,,,,,,,345.22003941699995,345.2246784999997,345.2246784999997,345.84192737500007,r,1.0,0.6141902079998545,,,,,,sub-022,2,stroop_test,,
,,,,106.0,10.0,8.0,,,,,,,,,,,,,blau,blue,b,1.0,b,1.0,0.5748041250003553,,,,,,,,,,8.0,10.0,106.0,5.0,345.84902962499973,,,,,,,,,,,,,,,,,345.8422032499998,346.6389684169999,347.432396875,347.42464712499986,,,,,,,,,,,,,,,,,,,,,,,,,,,,,,,,,,,347.426532167,347.432396875,347.432396875,348.00865662499973,b,1.0,0.5748041250003553,,,,,,sub-022,2,stroop_test,,
,,,,107.0,11.0,8.0,,,,,,,,,,,,,rot,yellow,g,0.0,g,1.0,0.8550914170000397,,,,,,,,,,8.0,11.0,107.0,3.0,348.01574070800007,,,,,,,,,,,,,,,,,348.0088891669998,348.3563425829998,349.1491505419999,349.1410730829998,,,,,,,,,,,,,,,,,,,,,,,,,,,,,,,,,,,349.1427557080001,349.1491505419999,349.1491505419999,350.008351042,g,1.0,0.8550914170000397,,,,,,sub-022,2,stroop_test,,
,,,,108.0,0.0,9.0,,,,,,,,,,,,,gelb,yellow,g,1.0,g,1.0,0.4960670000000391,,,,,,,,,,9.0,0.0,108.0,11.0,350.0158073329999,,,,,,,,,,,,,,,,,350.0086242919997,350.80579741699967,351.59925891700004,351.5911040830001,,,,,,,,,,,,,,,,,,,,,,,,,,,,,,,,,,,351.5929431249997,351.59925891700004,351.59925891700004,352.1031558330001,g,1.0,0.4960670000000391,,,,,,sub-022,2,stroop_test,,
,,,,109.0,1.0,9.0,,,,,,,,,,,,,blau,blue,b,1.0,b,1.0,0.542910459000268,,,,,,,,,,9.0,1.0,109.0,5.0,352.1092100420001,,,,,,,,,,,,,,,,,352.1034331669998,352.4498699999999,353.241883917,353.2356360419999,,,,,,,,,,,,,,,,,,,,,,,,,,,,,,,,,,,353.23731466699974,353.241883917,353.241883917,353.7863723749997,b,1.0,0.542910459000268,,,,,,sub-022,2,stroop_test,,
,,,,110.0,2.0,9.0,,,,,,,,,,,,,blau,yellow,g,0.0,g,1.0,1.0406645419998313,,,,,,,,,,9.0,2.0,110.0,7.0,353.7901324579998,,,,,,,,,,,,,,,,,353.7866171669998,354.5834101249998,355.37401675,355.3693237079997,,,,,,,,,,,,,,,,,,,,,,,,,,,,,,,,,,,355.369566333,355.37401675,355.37401675,356.419701458,g,1.0,1.0406645419998313,,,,,,sub-022,2,stroop_test,,
,,,,111.0,3.0,9.0,,,,,,,,,,,,,gelb,yellow,g,1.0,g,1.0,0.4797207920000801,,,,,,,,,,9.0,3.0,111.0,10.0,356.425676333,,,,,,,,,,,,,,,,,356.41997025,357.2168307920001,358.0094059580001,358.00279599999976,,,,,,,,,,,,,,,,,,,,,,,,,,,,,,,,,,,358.0047890000001,358.0094059580001,358.0094059580001,358.4919265829999,g,1.0,0.4797207920000801,,,,,,sub-022,2,stroop_test,,
,,,,112.0,4.0,9.0,,,,,,,,,,,,,rot,blue,b,0.0,b,1.0,0.7186505829999987,,,,,,,,,,9.0,4.0,112.0,2.0,358.4994522500001,,,,,,,,,,,,,,,,,358.492160667,359.6898570829999,360.4828864169999,360.4745672919999,,,,,,,,,,,,,,,,,,,,,,,,,,,,,,,,,,,360.476316667,360.4828864169999,360.4828864169999,361.2031306670001,b,1.0,0.7186505829999987,,,,,,sub-022,2,stroop_test,,
,,,,113.0,5.0,9.0,,,,,,,,,,,,,rot,red,r,1.0,r,1.0,0.439258792000146,,,,,,,,,,9.0,5.0,113.0,0.0,361.2087028329997,,,,,,,,,,,,,,,,,361.20336966700006,361.55031866699983,362.3408246250001,362.3362710829997,,,,,,,,,,,,,,,,,,,,,,,,,,,,,,,,,,,362.33649516700007,362.3408246250001,362.3408246250001,362.7864791249999,r,1.0,0.439258792000146,,,,,,sub-022,2,stroop_test,,
,,,,114.0,6.0,9.0,,,,,,,,,,,,,gelb,blue,b,0.0,b,1.0,0.7563734170003045,,,,,,,,,,9.0,6.0,114.0,9.0,362.7923218329997,,,,,,,,,,,,,,,,,362.78674683300005,363.1337734169997,363.9234623749999,363.91820125,,,,,,,,,,,,,,,,,,,,,,,,,,,,,,,,,,,363.919600917,363.9234623749999,363.9234623749999,364.6864311669997,b,1.0,0.7563734170003045,,,,,,sub-022,2,stroop_test,,
,,,,115.0,7.0,9.0,,,,,,,,,,,,,blau,blue,b,1.0,b,1.0,0.6393977080001605,,,,,,,,,,9.0,7.0,115.0,6.0,364.6924766249999,,,,,,,,,,,,,,,,,364.686694083,365.483649667,366.2757985419999,366.2694757079999,,,,,,,,,,,,,,,,,,,,,,,,,,,,,,,,,,,366.27125129199976,366.2757985419999,366.2757985419999,366.9199908749997,b,1.0,0.6393977080001605,,,,,,sub-022,2,stroop_test,,
,,,,116.0,8.0,9.0,,,,,,,,,,,,,gelb,red,r,0.0,r,1.0,0.6598184580002453,,,,,,,,,,9.0,8.0,116.0,8.0,366.9260475420001,,,,,,,,,,,,,,,,,366.9202676669997,367.71700529200007,368.509403042,368.502940542,,,,,,,,,,,,,,,,,,,,,,,,,,,,,,,,,,,368.5046767919998,368.509403042,368.509403042,369.17051850000007,r,1.0,0.6598184580002453,,,,,,sub-022,2,stroop_test,,
,,,,117.0,9.0,9.0,,,,,,,,,,,,,rot,yellow,g,0.0,g,1.0,0.6733126250001078,,,,,,,,,,9.0,9.0,117.0,3.0,369.174259167,,,,,,,,,,,,,,,,,369.1707563330001,369.5172682499997,370.308949708,370.30277849999993,,,,,,,,,,,,,,,,,,,,,,,,,,,,,,,,,,,370.3043992499997,370.308949708,370.308949708,370.986345542,g,1.0,0.6733126250001078,,,,,,sub-022,2,stroop_test,,
,,,,118.0,10.0,9.0,,,,,,,,,,,,,blau,red,r,0.0,r,1.0,1.1422224590000951,,,,,,,,,,9.0,10.0,118.0,4.0,370.9916431669999,,,,,,,,,,,,,,,,,370.98658662499975,371.7838522500001,372.5767067080001,372.5700388749997,,,,,,,,,,,,,,,,,,,,,,,,,,,,,,,,,,,372.5719560419998,372.5767067080001,372.5767067080001,373.7204622499999,r,1.0,1.1422224590000951,,,,,,sub-022,2,stroop_test,,
,,,,119.0,11.0,9.0,,,,,,,,,,,,,rot,red,r,1.0,r,1.0,0.4525909170001796,,,,,,,,,,9.0,11.0,119.0,1.0,373.7242542079998,,,,,,,,,,,,,,,,,373.7207009999997,373.8173127079999,374.6093537920001,374.6031579579999,,,,,,,,,,,,,,,,,,,,,,,,,,,,,,,,,,,374.604814417,374.6093537920001,374.6093537920001,375.0698630419997,r,1.0,0.4525909170001796,,,,,,sub-022,2,stroop_test,,
,,,,,,,,,,,,,,,,,,,,,,,,,,,,,,,,,,,,,,,,,,,,,,,,,,,,,,,,,,,,,,,,,,,,,,,,,,,,,,,,,,,,,,,,,,,,,,,,,,,,,,375.06997554200007,375.0760638329998,380.0730089169997,380.069819375,sub-022,2,stroop_test,,
