wordCTK,colorCTK,corrAnsCTK,congruentCTK,thisN,thisTrialN,thisRepN,keyResp_CTK.keys,keyResp_CTK.corr,keyResp_CTK.rt,keyResp_CTK.duration,wordPractice,colorPractice,corrAnsPractice,congruentPractice,respPractice.keys,respPractice.corr,respPractice.rt,respPractice.duration,word,color,corrAns,congruent,keyResp_test_run.keys,keyResp_test_run.corr,keyResp_test_run.rt,keyResp_test_run.duration,trials_CTK.thisRepN,trials_CTK.thisTrialN,trials_CTK.thisN,trials_CTK.thisIndex,trials_practice.thisRepN,trials_practice.thisTrialN,trials_practice.thisN,trials_practice.thisIndex,trials_test.thisRepN,trials_test.thisTrialN,trials_test.thisN,trials_test.thisIndex,thisRow.t,notes,instruction.started,instr_text.started,instr_image.started,instr_resp.started,instruction.stopped,instr_resp.keys,instr_resp.rt,instr_resp.duration,instr_color_to_key.started,instr_ctk.started,resp_ctk.started,instr_color_to_key.stopped,resp_ctk.keys,resp_ctk.rt,resp_ctk.duration,ITI.started,fixcross.started,fixcross.stopped,ITI.stopped,color_to_key_run.started,stimulus_CTK.started,keyResp_CTK.started,color_to_key_run.stopped,trials_CTK.keyResp_CTK.keys,trials_CTK.keyResp_CTK.corr,trials_CTK.keyResp_CTK.rt,trials_CTK.keyResp_CTK.duration,instr_practice.started,instr_practice_text.started,instr_practice_resp.started,instr_practice.stopped,instr_practice_resp.keys,instr_practice_resp.rt,instr_practice_resp.duration,practice_run.started,stimulus_practice.started,respPractice.started,practice_run.stopped,trials_practice.respPractice.keys,trials_practice.respPractice.corr,trials_practice.respPractice.rt,trials_practice.respPractice.duration,feedback.started,textFeedback.started,feedback.stopped,textFeedback.stopped,instr_test.started,instr_test_text.started,instr_test_resp.started,instr_test.stopped,instr_test_resp.keys,instr_test_resp.rt,instr_test_resp.duration,test_run.started,stimulus_test_run.started,keyResp_test_run.started,test_run.stopped,trials_test.keyResp_test_run.keys,trials_test.keyResp_test_run.corr,trials_test.keyResp_test_run.rt,trials_test.keyResp_test_run.duration,goodbye.started,textGoodbye.started,textGoodbye.stopped,goodbye.stopped,participant,session,expName,frameRate,Unnamed: 113
,,,,,,,,,,,,,,,,,,,,,,,,,,,,,,,,,,,,,,,,,0.008910750002542,0.0231964170015999,0.0231964170015999,0.0231964170015999,48.904355375001614,space,48.83916012499685,,,,,,,,,,,,,,,,,,,,,,,,,,,,,,,,,,,,,,,,,,,,,,,,,,,,,,,,,,,sub-196,1,stroop_test,,
,,,,,,,,,,,,,,,,,,,,,,,,,,,,,,,,,,,,,,,,,,,,,,,,,48.90449654200347,48.933911375002936,48.933911375002936,56.8303856249986,space,7.892704290999973,,,,,,,,,,,,,,,,,,,,,,,,,,,,,,,,,,,,,,,,,,,,,,,,,,,,sub-196,1,stroop_test,,
test,red,r,1.0,0.0,0.0,0.0,r,1.0,0.8613542079983745,,,,,,,,,,,,,,,,,,0.0,0.0,0.0,0.0,,,,,,,,,56.86865270900307,,,,,,,,,,,,,,,,,56.85269895900274,56.93211395900289,57.73789629199746,57.723735500003386,57.73161654199794,57.73789629199746,57.73789629199746,58.60845220900228,r,1.0,0.8613542079983745,,,,,,,,,,,,,,,,,,,,,,,,,,,,,,,,,,,,,,,,sub-196,1,stroop_test,,
test,yellow,g,1.0,1.0,1.0,0.0,g,1.0,1.327984458002902,,,,,,,,,,,,,,,,,,0.0,1.0,1.0,1.0,,,,,,,,,58.61785137499828,,,,,,,,,,,,,,,,,58.609014916997694,58.70656183399842,59.49712166700192,59.49050887500198,59.49113512499753,59.49712166700192,59.49712166700192,60.83028795899736,g,1.0,1.327984458002902,,,,,,,,,,,,,,,,,,,,,,,,,,,,,,,,,,,,,,,,sub-196,1,stroop_test,,
test,blue,b,1.0,2.0,2.0,0.0,b,1.0,1.097801875002915,,,,,,,,,,,,,,,,,,0.0,2.0,2.0,2.0,,,,,,,,,60.839554709004005,,,,,,,,,,,,,,,,,60.83078154199757,61.17902437500016,61.97314154200285,61.96263341700251,61.963210041998536,61.97314154200285,61.97314154200285,63.07502716700401,b,1.0,1.097801875002915,,,,,,,,,,,,,,,,,,,,,,,,,,,,,,,,,,,,,,,,sub-196,1,stroop_test,,
test,red,r,1.0,3.0,0.0,1.0,r,1.0,0.6435959579976043,,,,,,,,,,,,,,,,,,1.0,0.0,3.0,0.0,,,,,,,,,63.084560041999794,,,,,,,,,,,,,,,,,63.07553587500297,63.87323958399793,64.66470995899726,64.65731770900311,64.65804429200216,64.66470995899726,64.66470995899726,65.31362391699804,r,1.0,0.6435959579976043,,,,,,,,,,,,,,,,,,,,,,,,,,,,,,,,,,,,,,,,sub-196,1,stroop_test,,
test,blue,b,1.0,4.0,1.0,1.0,b,1.0,0.7958039999939501,,,,,,,,,,,,,,,,,,1.0,1.0,4.0,2.0,,,,,,,,,65.32199129200308,,,,,,,,,,,,,,,,,65.31405950000044,65.41153891700378,66.20648245899793,66.19607858399831,66.1966783750031,66.20648245899793,66.20648245899793,67.00887641699956,b,1.0,0.7958039999939501,,,,,,,,,,,,,,,,,,,,,,,,,,,,,,,,,,,,,,,,sub-196,1,stroop_test,,
test,yellow,g,1.0,5.0,2.0,1.0,g,1.0,3.826361166997231,,,,,,,,,,,,,,,,,,1.0,2.0,5.0,1.0,,,,,,,,,67.02002920900122,,,,,,,,,,,,,,,,,67.00956254199991,67.35662020900054,68.14781187500193,68.14069304199802,68.14146199999959,68.14781187500193,68.14781187500193,71.98846833399875,g,1.0,3.826361166997231,,,,,,,,,,,,,,,,,,,,,,,,,,,,,,,,,,,,,,,,sub-196,1,stroop_test,,
test,red,r,1.0,6.0,0.0,2.0,r,1.0,1.055890208001074,,,,,,,,,,,,,,,,,,2.0,0.0,6.0,0.0,,,,,,,,,71.99291804200038,,,,,,,,,,,,,,,,,71.98901175000356,72.07816916699812,72.87255537499732,72.8627124170016,72.86386737500288,72.87255537499732,72.87255537499732,73.93065975000354,r,1.0,1.055890208001074,,,,,,,,,,,,,,,,,,,,,,,,,,,,,,,,,,,,,,,,sub-196,1,stroop_test,,
test,yellow,g,1.0,7.0,1.0,2.0,g,1.0,0.8110253749982803,,,,,,,,,,,,,,,,,,2.0,1.0,7.0,1.0,,,,,,,,,73.9417059999978,,,,,,,,,,,,,,,,,73.93121224999777,75.12840162499924,75.92301729199971,75.91204783399735,75.91262783399725,75.92301729199971,75.92301729199971,76.74159866700211,g,1.0,0.8110253749982803,,,,,,,,,,,,,,,,,,,,,,,,,,,,,,,,,,,,,,,,sub-196,1,stroop_test,,
test,blue,b,1.0,8.0,2.0,2.0,b,1.0,0.8838055839951267,,,,,,,,,,,,,,,,,,2.0,2.0,8.0,2.0,,,,,,,,,76.7522033339992,,,,,,,,,,,,,,,,,76.74211604199809,77.53971470900433,78.33122366700263,78.32397816699813,78.3249211250004,78.33122366700263,78.33122366700263,79.2253617919996,b,1.0,0.8838055839951267,,,,,,,,,,,,,,,,,,,,,,,,,,,,,,,,,,,,,,,,sub-196,1,stroop_test,,
test,red,r,1.0,9.0,0.0,3.0,r,1.0,1.0515979170013452,,,,,,,,,,,,,,,,,,3.0,0.0,9.0,0.0,,,,,,,,,79.23622520900244,,,,,,,,,,,,,,,,,79.22605016700254,79.57342366700323,80.36377945900313,80.35712216699903,80.35771095900418,80.36377945900313,80.36377945900313,81.42493458399986,r,1.0,1.0515979170013452,,,,,,,,,,,,,,,,,,,,,,,,,,,,,,,,,,,,,,,,sub-196,1,stroop_test,,
test,yellow,g,1.0,10.0,1.0,3.0,g,1.0,0.9173460409947438,,,,,,,,,,,,,,,,,,3.0,1.0,10.0,1.0,,,,,,,,,81.43549495899788,,,,,,,,,,,,,,,,,81.42545945900201,82.22279695900215,83.01456000000326,83.00710495900421,83.00791770900105,83.01456000000326,83.01456000000326,83.94184400000086,g,1.0,0.9173460409947438,,,,,,,,,,,,,,,,,,,,,,,,,,,,,,,,,,,,,,,,sub-196,1,stroop_test,,
test,blue,b,1.0,11.0,2.0,3.0,b,1.0,0.8484445419962867,,,,,,,,,,,,,,,,,,3.0,2.0,11.0,2.0,,,,,,,,,83.9525040419976,,,,,,,,,,,,,,,,,83.9424432090018,84.73960054200143,85.53107062500203,85.52382516700163,85.52461458399921,85.53107062500203,85.53107062500203,86.39078616700135,b,1.0,0.8484445419962867,,,,,,,,,,,,,,,,,,,,,,,,,,,,,,,,,,,,,,,,sub-196,1,stroop_test,,
,,,,,,,,,,,,,,,,,,,,,,,,,,,,,,,,,,,,,,,,,,,,,,,,,,,,,,,,,,,,,,,,,,,,86.3909752920008,86.39764691700111,86.39764691700111,90.77495099999942,space,4.369706874997064,,,,,,,,,,,,,,,,,,,,,,,,,,,,,,,,,sub-196,1,stroop_test,,
,,,,0.0,0.0,0.0,,,,,blau,blue,b,1.0,b,1.0,0.8118602909962647,,,,,,,,,,,,,,0.0,0.0,0.0,6.0,,,,,90.79684966700006,,,,,,,,,,,,,,,,,90.79010966700298,90.87334058400302,91.67181958400032,91.6573142920024,,,,,,,,,,,,,,,,91.66531562500312,91.67181958400032,91.67181958400032,92.49182879200087,b,1.0,0.8118602909962647,,92.50055854200036,92.50935970900171,93.49473787500028,,,,,,,,,,,,,,,,,,,,,sub-196,1,stroop_test,,
,,,,1.0,1.0,0.0,,,,,gelb,yellow,g,1.0,g,1.0,1.1673222910030745,,,,,,,,,,,,,,0.0,1.0,1.0,11.0,,,,,93.50632470900018,,,,,,,,,,,,,,,,,93.49522974999854,94.28985187500076,95.08568129200285,95.07372054200096,,,,,,,,,,,,,,,,95.07914595900364,95.08568129200285,95.08568129200285,96.258206874998,g,1.0,1.1673222910030745,,96.2589952089984,96.26835250000296,97.2570275840044,97.26201866700283,,,,,,,,,,,,,,,,,,,,sub-196,1,stroop_test,,
,,,,2.0,2.0,0.0,,,,,gelb,blue,b,0.0,b,1.0,1.259579958001268,,,,,,,,,,,,,,0.0,2.0,2.0,9.0,,,,,97.26201866700283,,,,,,,,,,,,,,,,,97.25749137499952,97.35666758399748,98.147921374999,98.14075583399972,,,,,,,,,,,,,,,,98.14149075000024,98.147921374999,98.147921374999,99.4174588340029,b,1.0,1.259579958001268,,99.4181846249994,99.424959709002,100.41247041700262,100.42274049999833,,,,,,,,,,,,,,,,,,,,sub-196,1,stroop_test,,
,,,,3.0,3.0,0.0,,,,,gelb,red,r,0.0,r,1.0,1.277013042003091,,,,,,,,,,,,,,0.0,3.0,3.0,8.0,,,,,100.42274049999833,,,,,,,,,,,,,,,,,100.41287949999968,100.76302450000368,101.5640774170024,101.55700845899992,,,,,,,,,,,,,,,,101.5576065839996,101.5640774170024,101.5640774170024,102.85254412500215,r,1.0,1.277013042003091,,102.85326254199754,102.85885329200391,103.8458646670042,103.85628091700346,,,,,,,,,,,,,,,,,,,,sub-196,1,stroop_test,,
,,,,4.0,4.0,0.0,,,,,rot,red,r,1.0,r,1.0,1.392859250001493,,,,,,,,,,,,,,0.0,4.0,4.0,0.0,,,,,103.85628091700346,,,,,,,,,,,,,,,,,103.84629866699834,104.64576754200245,105.45355004200246,105.44063887499942,,,,,,,,,,,,,,,,105.44673895899903,105.45355004200246,105.45355004200246,106.8577257500001,r,1.0,1.392859250001493,,106.85835691700048,106.86422987499829,107.85697249999794,107.8619597920042,,,,,,,,,,,,,,,,,,,,sub-196,1,stroop_test,,
,,,,5.0,5.0,0.0,,,,,blau,red,r,0.0,r,1.0,0.6555492080005934,,,,,,,,,,,,,,0.0,5.0,5.0,4.0,,,,,107.8619597920042,,,,,,,,,,,,,,,,,107.85747045899916,108.65625141700002,109.45147875000112,109.44021508400328,,,,,,,,,,,,,,,,109.44498108400148,109.45147875000112,109.45147875000112,110.12077891700028,r,1.0,0.6555492080005934,,110.1213393750004,110.12695033400088,111.11222116700084,111.122833292,,,,,,,,,,,,,,,,,,,,sub-196,1,stroop_test,,
,,,,6.0,6.0,0.0,,,,,rot,blue,b,0.0,b,1.0,0.798568250000244,,,,,,,,,,,,,,0.0,6.0,6.0,2.0,,,,,111.122833292,,,,,,,,,,,,,,,,,111.11263545900148,112.31183716699888,113.10861937500158,113.09676579199731,,,,,,,,,,,,,,,,113.10067574999994,113.10861937500158,113.10861937500158,113.91909720900004,b,1.0,0.798568250000244,,113.91978733400174,113.92532812499849,114.91231775000053,114.92282050000358,,,,,,,,,,,,,,,,,,,,sub-196,1,stroop_test,,
,,,,7.0,7.0,0.0,,,,,rot,red,r,1.0,r,1.0,1.226770540997677,,,,,,,,,,,,,,0.0,7.0,7.0,1.0,,,,,114.92282050000358,,,,,,,,,,,,,,,,,114.91271679200143,116.11272795900004,116.9141848750005,116.90695929199865,,,,,,,,,,,,,,,,116.90774424999836,116.9141848750005,116.9141848750005,118.15238095899986,r,1.0,1.226770540997677,,118.15300754200145,118.1584742920022,119.14571033399989,119.1564817920007,,,,,,,,,,,,,,,,,,,,sub-196,1,stroop_test,,
,,,,8.0,8.0,0.0,,,,,blau,blue,b,1.0,b,1.0,0.8751600830000825,,,,,,,,,,,,,,0.0,8.0,8.0,5.0,,,,,119.1564817920007,,,,,,,,,,,,,,,,,119.14614212499872,119.49462725000194,120.28935700000147,120.2791742920017,,,,,,,,,,,,,,,,120.28292233400134,120.28935700000147,120.28935700000147,121.17471008400024,b,1.0,0.8751600830000825,,121.17547979200026,121.18682212500426,122.1738113340034,122.17890879200422,,,,,,,,,,,,,,,,,,,,sub-196,1,stroop_test,,
,,,,9.0,9.0,0.0,,,,,rot,yellow,g,0.0,g,1.0,0.8682801670001936,,,,,,,,,,,,,,0.0,9.0,9.0,3.0,,,,,122.17890879200422,,,,,,,,,,,,,,,,,122.17438679200131,122.97278200000436,123.77210033399751,123.75698745900443,,,,,,,,,,,,,,,,123.76553054199758,123.77210033399751,123.77210033399751,124.6537789590002,g,1.0,0.8682801670001936,,124.65431512500072,124.65853900000366,125.64544537499752,125.65612187499936,,,,,,,,,,,,,,,,,,,,sub-196,1,stroop_test,,
,,,,10.0,10.0,0.0,,,,,gelb,yellow,g,1.0,g,1.0,0.6486628330021631,,,,,,,,,,,,,,0.0,10.0,10.0,10.0,,,,,125.65612187499936,,,,,,,,,,,,,,,,,125.64586266699916,126.44493420900108,127.23833633399772,127.22852187500392,,,,,,,,,,,,,,,,127.23210295900208,127.23833633399772,127.23833633399772,127.89262825000333,g,1.0,0.6486628330021631,,127.89357970900164,127.9051839169988,128.89018162499997,128.89476887499768,,,,,,,,,,,,,,,,,,,,sub-196,1,stroop_test,,
,,,,11.0,11.0,0.0,,,,,blau,yellow,g,0.0,g,1.0,0.7564432090002811,,,,,,,,,,,,,,0.0,11.0,11.0,7.0,,,,,128.89476887499768,,,,,,,,,,,,,,,,,128.89063112500298,129.23947208400205,130.03391079200082,130.02344745900336,,,,,,,,,,,,,,,,130.02731774999847,130.03391079200082,130.03391079200082,130.8014788750006,g,1.0,0.7564432090002811,,130.8021568339973,130.80839733400353,131.79583758400258,131.80605479200312,,,,,,,,,,,,,,,,,,,,sub-196,1,stroop_test,,
,,,,12.0,0.0,1.0,,,,,rot,yellow,g,0.0,g,1.0,0.3452058750044671,,,,,,,,,,,,,,1.0,0.0,12.0,3.0,,,,,131.80605479200312,,,,,,,,,,,,,,,,,131.7962827090014,132.99528645900136,133.78869570900133,133.77849066699855,,,,,,,,,,,,,,,,133.78206083400437,133.78869570900133,133.78869570900133,134.1415309590011,g,1.0,0.3452058750044671,,134.14235058399936,134.1538520000031,135.1403882500017,135.14523091699812,,,,,,,,,,,,,,,,,,,,sub-196,1,stroop_test,,
,,,,13.0,1.0,1.0,,,,,gelb,yellow,g,1.0,g,1.0,0.4166584170015994,,,,,,,,,,,,,,1.0,1.0,13.0,11.0,,,,,135.14523091699812,,,,,,,,,,,,,,,,,135.1409480000002,135.48946958399756,136.28460162500414,136.2736656670022,,,,,,,,,,,,,,,,136.27801479199843,136.28460162500414,136.28460162500414,136.70788270900084,g,1.0,0.4166584170015994,,136.7086204169973,136.72016758400423,137.7068542499983,137.71186316700187,,,,,,,,,,,,,,,,,,,,sub-196,1,stroop_test,,
,,,,14.0,2.0,1.0,,,,,gelb,yellow,g,1.0,g,1.0,0.3374880409974139,,,,,,,,,,,,,,1.0,2.0,14.0,10.0,,,,,137.71186316700187,,,,,,,,,,,,,,,,,137.70742800000153,137.806244667001,138.5977102090037,138.59021491699968,,,,,,,,,,,,,,,,138.59099616700405,138.5977102090037,138.5977102090037,138.94148508400394,g,1.0,0.3374880409974139,,138.94229041699873,138.95361683399824,139.94023929200193,139.94551295899873,,,,,,,,,,,,,,,,,,,,sub-196,1,stroop_test,,
,,,,15.0,3.0,1.0,,,,,rot,red,r,1.0,r,1.0,0.5610044580025715,,,,,,,,,,,,,,1.0,3.0,15.0,1.0,,,,,139.94551295899873,,,,,,,,,,,,,,,,,139.94079983400297,141.13947237499815,141.93168491699907,141.92298212499736,,,,,,,,,,,,,,,,141.92660908400285,141.93168491699907,141.93168491699907,142.49628558399854,r,1.0,0.5610044580025715,,142.49704591699992,142.5079745000039,143.49568241700035,143.5066527500021,,,,,,,,,,,,,,,,,,,,sub-196,1,stroop_test,,
,,,,16.0,4.0,1.0,,,,,gelb,red,r,0.0,r,1.0,0.4104064170023775,,,,,,,,,,,,,,1.0,4.0,16.0,8.0,,,,,143.5066527500021,,,,,,,,,,,,,,,,,143.49610725000093,143.84535183400294,144.64124012499815,144.62883920899912,,,,,,,,,,,,,,,,144.63392058399768,144.64124012499815,144.64124012499815,145.05828887499956,r,1.0,0.4104064170023775,,145.05928133400448,145.07010224999976,146.05670095900132,146.0613204170004,,,,,,,,,,,,,,,,,,,,sub-196,1,stroop_test,,
,,,,17.0,5.0,1.0,,,,,gelb,blue,b,0.0,b,1.0,0.6110548750002636,,,,,,,,,,,,,,1.0,5.0,17.0,9.0,,,,,146.0613204170004,,,,,,,,,,,,,,,,,146.0571317089998,146.4060102500007,147.19656366699928,147.18973625000217,,,,,,,,,,,,,,,,147.1903615839983,147.19656366699928,147.19656366699928,147.8186878339984,b,1.0,0.6110548750002636,,147.81934595900384,147.82516033400316,148.81154279199836,148.82258649999858,,,,,,,,,,,,,,,,,,,,sub-196,1,stroop_test,,
,,,,18.0,6.0,1.0,,,,,rot,blue,b,0.0,b,1.0,0.5868180420002318,,,,,,,,,,,,,,1.0,6.0,18.0,2.0,,,,,148.82258649999858,,,,,,,,,,,,,,,,,148.81195587500406,149.16088737500104,149.9549389590029,149.94431025000085,,,,,,,,,,,,,,,,149.9479680000004,149.9549389590029,149.9549389590029,150.5464914999975,b,1.0,0.5868180420002318,,150.5472958340033,150.5583360840028,151.5443535000013,151.55600229200354,,,,,,,,,,,,,,,,,,,,sub-196,1,stroop_test,,
,,,,19.0,7.0,1.0,,,,,rot,red,r,1.0,r,1.0,0.5937624999933178,,,,,,,,,,,,,,1.0,7.0,19.0,0.0,,,,,151.55600229200354,,,,,,,,,,,,,,,,,151.54476112499833,152.74622420900414,153.54674345900276,153.54013729200233,,,,,,,,,,,,,,,,153.54077995900298,153.54674345900276,153.54674345900276,154.1523987920009,r,1.0,0.5937624999933178,,154.1532156250032,154.15873829200427,155.14557575000072,155.15594375000364,,,,,,,,,,,,,,,,,,,,sub-196,1,stroop_test,,
,,,,20.0,8.0,1.0,,,,,blau,blue,b,1.0,b,1.0,0.8209012919978704,,,,,,,,,,,,,,1.0,8.0,20.0,5.0,,,,,155.15594375000364,,,,,,,,,,,,,,,,,155.14599050000106,156.3449737089977,157.1560757499974,157.12894483400305,,,,,,,,,,,,,,,,157.13285745900066,157.1560757499974,157.1560757499974,157.98009154199826,b,1.0,0.8209012919978704,,157.98083512500307,157.9914239589998,158.9789309589978,158.98935999999958,,,,,,,,,,,,,,,,,,,,sub-196,1,stroop_test,,
,,,,21.0,9.0,1.0,,,,,blau,red,r,0.0,r,1.0,0.9683765419977136,,,,,,,,,,,,,,1.0,9.0,21.0,4.0,,,,,158.98935999999958,,,,,,,,,,,,,,,,,158.97934666700166,160.17817374999868,160.97255474999838,160.961834583999,,,,,,,,,,,,,,,,160.9624000420008,160.97255474999838,160.97255474999838,161.95180075000098,r,1.0,0.9683765419977136,,161.95249479199992,161.95863716700114,162.94515187499928,162.9558876250012,,,,,,,,,,,,,,,,,,,,sub-196,1,stroop_test,,
,,,,22.0,10.0,1.0,,,,,blau,blue,b,1.0,b,1.0,0.5368773330046679,,,,,,,,,,,,,,1.0,10.0,22.0,6.0,,,,,162.9558876250012,,,,,,,,,,,,,,,,,162.94556304199796,163.04494825000438,163.83923275000416,163.82881083399843,,,,,,,,,,,,,,,,163.82938545900106,163.83923275000416,163.83923275000416,164.37976720900042,b,1.0,0.5368773330046679,,164.38053387500258,164.39134616700176,165.37788691699825,165.38916391700332,,,,,,,,,,,,,,,,,,,,sub-196,1,stroop_test,,
,,,,23.0,11.0,1.0,,,,,blau,yellow,g,0.0,g,1.0,0.4181135420003556,,,,,,,,,,,,,,1.0,11.0,23.0,7.0,,,,,165.38916391700332,,,,,,,,,,,,,,,,,165.3782962500045,165.47909412500303,166.27246008400107,166.26209045900032,,,,,,,,,,,,,,,,166.262681375003,166.27246008400107,166.27246008400107,166.70091204200435,g,1.0,0.4181135420003556,,166.70155779200286,166.70797158400092,167.69545729200036,167.70584608399804,,,,,,,,,,,,,,,,,,,,sub-196,1,stroop_test,,
,,,,,,,,,,,,,,,,,,,,,,,,,,,,,,,,,,,,,,,,,,,,,,,,,,,,,,,,,,,,,,,,,,,,,,,,,,,,,,,,,,,,,,,167.6956322920014,167.70584608399804,167.70584608399804,176.32441179200396,space,8.607339875001344,,,,,,,,,,,,,,sub-196,1,stroop_test,,
,,,,0.0,0.0,0.0,,,,,,,,,,,,,blau,yellow,g,0.0,g,1.0,0.7746979579969775,,,,,,,,,,0.0,0.0,0.0,7.0,176.34843133400136,,,,,,,,,,,,,,,,,176.34188020900183,176.42288637500317,177.21823237500212,177.20658312500018,,,,,,,,,,,,,,,,,,,,,,,,,,,,,,,,,,,177.21117533399956,177.21823237500212,177.21823237500212,177.99657695899805,g,1.0,0.7746979579969775,,,,,,sub-196,1,stroop_test,,
,,,,1.0,1.0,0.0,,,,,,,,,,,,,gelb,yellow,g,1.0,g,1.0,0.4567976670005009,,,,,,,,,,0.0,1.0,1.0,11.0,178.00561749999906,,,,,,,,,,,,,,,,,177.99714883400156,178.79469187500217,179.58860833400104,179.5785184999986,,,,,,,,,,,,,,,,,,,,,,,,,,,,,,,,,,,179.58221337500436,179.58860833400104,179.58860833400104,180.05664054200315,g,1.0,0.4567976670005009,,,,,,sub-196,1,stroop_test,,
,,,,2.0,2.0,0.0,,,,,,,,,,,,,blau,red,r,0.0,r,1.0,0.6603884170035599,,,,,,,,,,0.0,2.0,2.0,4.0,180.06173245899845,,,,,,,,,,,,,,,,,180.0571494169999,181.24502166700404,182.0386557919992,182.02847620900135,,,,,,,,,,,,,,,,,,,,,,,,,,,,,,,,,,,182.03223291700124,182.0386557919992,182.0386557919992,182.70804491700252,r,1.0,0.6603884170035599,,,,,,sub-196,1,stroop_test,,
,,,,3.0,3.0,0.0,,,,,,,,,,,,,rot,red,r,1.0,r,1.0,0.3954059999960009,,,,,,,,,,0.0,3.0,3.0,1.0,182.71755479199783,,,,,,,,,,,,,,,,,182.70867558399917,182.80578212500404,183.60042995899855,183.58985483399735,,,,,,,,,,,,,,,,,,,,,,,,,,,,,,,,,,,183.59369962500205,183.60042995899855,183.60042995899855,184.0080028750017,r,1.0,0.3954059999960009,,,,,,sub-196,1,stroop_test,,
,,,,4.0,4.0,0.0,,,,,,,,,,,,,rot,blue,b,0.0,b,1.0,0.5109422079985961,,,,,,,,,,0.0,4.0,4.0,2.0,184.01591804200143,,,,,,,,,,,,,,,,,184.0086489169989,184.3556700420013,185.14675158399768,185.14007100000163,,,,,,,,,,,,,,,,,,,,,,,,,,,,,,,,,,,185.14068358400252,185.14675158399768,185.14675158399768,185.66322312500412,b,1.0,0.5109422079985961,,,,,,sub-196,1,stroop_test,,
,,,,5.0,5.0,0.0,,,,,,,,,,,,,gelb,red,r,0.0,r,1.0,0.939776790997712,,,,,,,,,,0.0,5.0,5.0,8.0,185.6717757919978,,,,,,,,,,,,,,,,,185.66380041700177,186.46142958400011,187.25553500000387,187.24540133400296,,,,,,,,,,,,,,,,,,,,,,,,,,,,,,,,,,,187.2491204590042,187.25553500000387,187.25553500000387,188.19759024999803,r,1.0,0.939776790997712,,,,,,sub-196,1,stroop_test,,
,,,,6.0,6.0,0.0,,,,,,,,,,,,,blau,blue,b,1.0,b,1.0,1.069210958004987,,,,,,,,,,0.0,6.0,6.0,5.0,188.2223682920012,,,,,,,,,,,,,,,,,188.1983178340015,188.2950189589974,189.08861400000023,189.07845258399905,,,,,,,,,,,,,,,,,,,,,,,,,,,,,,,,,,,189.08218375000436,189.08861400000023,189.08861400000023,190.163552500002,b,1.0,1.069210958004987,,,,,,sub-196,1,stroop_test,,
,,,,7.0,7.0,0.0,,,,,,,,,,,,,blau,blue,b,1.0,b,1.0,0.5281324999959907,,,,,,,,,,0.0,7.0,7.0,6.0,190.17229179199785,,,,,,,,,,,,,,,,,190.1641102920039,190.5118377500039,191.30561591700095,191.2958844169989,,,,,,,,,,,,,,,,,,,,,,,,,,,,,,,,,,,191.29644499999995,191.30561591700095,191.30561591700095,191.84132025000144,b,1.0,0.5281324999959907,,,,,,sub-196,1,stroop_test,,
,,,,8.0,8.0,0.0,,,,,,,,,,,,,rot,red,r,1.0,r,1.0,0.8345296250045067,,,,,,,,,,0.0,8.0,8.0,0.0,191.8502824169991,,,,,,,,,,,,,,,,,191.84197741700336,192.6391620420036,193.4349399589992,193.42308912500448,,,,,,,,,,,,,,,,,,,,,,,,,,,,,,,,,,,193.42814337500025,193.4349399589992,193.4349399589992,194.2744522089997,r,1.0,0.8345296250045067,,,,,,sub-196,1,stroop_test,,
,,,,9.0,9.0,0.0,,,,,,,,,,,,,rot,yellow,g,0.0,g,1.0,0.8094009999986156,,,,,,,,,,0.0,9.0,9.0,3.0,194.283323292002,,,,,,,,,,,,,,,,,194.275114666998,195.472721709004,196.263685083999,196.25655183399795,,,,,,,,,,,,,,,,,,,,,,,,,,,,,,,,,,,196.25732566700023,196.263685083999,196.263685083999,197.08409120899887,g,1.0,0.8094009999986156,,,,,,sub-196,1,stroop_test,,
,,,,10.0,10.0,0.0,,,,,,,,,,,,,gelb,yellow,g,1.0,g,1.0,0.5319278339957236,,,,,,,,,,0.0,10.0,10.0,10.0,197.08779175000384,,,,,,,,,,,,,,,,,197.0844497500002,197.17727116699825,197.9718270000012,197.96182558400324,,,,,,,,,,,,,,,,,,,,,,,,,,,,,,,,,,,197.96561829200076,197.9718270000012,197.9718270000012,198.5082582500036,g,1.0,0.5319278339957236,,,,,,sub-196,1,stroop_test,,
,,,,11.0,11.0,0.0,,,,,,,,,,,,,gelb,blue,b,0.0,b,1.0,0.6105356670013862,,,,,,,,,,0.0,11.0,11.0,9.0,198.51742112499775,,,,,,,,,,,,,,,,,198.50894220900227,199.3056372499996,200.096680667004,200.0898669169983,,,,,,,,,,,,,,,,,,,,,,,,,,,,,,,,,,,200.09062379199892,200.096680667004,200.096680667004,200.7183041250028,b,1.0,0.6105356670013862,,,,,,sub-196,1,stroop_test,,
,,,,12.0,0.0,1.0,,,,,,,,,,,,,rot,red,r,1.0,r,1.0,1.094283667000127,,,,,,,,,,1.0,0.0,12.0,0.0,200.7244949590022,,,,,,,,,,,,,,,,,200.7189039590012,201.06147924999823,201.8551130420019,201.84473591700225,,,,,,,,,,,,,,,,,,,,,,,,,,,,,,,,,,,201.8483797090012,201.8551130420019,201.8551130420019,202.9575906250029,r,1.0,1.094283667000127,,,,,,sub-196,1,stroop_test,,
,,,,13.0,1.0,1.0,,,,,,,,,,,,,gelb,blue,b,0.0,g,0.0,1.2728531250031665,,,,,,,,,,1.0,1.0,13.0,9.0,202.96677083399845,,,,,,,,,,,,,,,,,202.9581903340004,203.75569920900307,204.55036012500204,204.5396582090034,,,,,,,,,,,,,,,,,,,,,,,,,,,,,,,,,,,204.54379650000192,204.55036012500204,204.55036012500204,205.83576187500148,g,0.0,1.2728531250031665,,,,,,sub-196,1,stroop_test,,
,,,,14.0,2.0,1.0,,,,,,,,,,,,,gelb,yellow,g,1.0,g,1.0,0.9737120409990894,,,,,,,,,,1.0,2.0,14.0,11.0,205.84073100000387,,,,,,,,,,,,,,,,,205.83616537500347,207.02799637499996,207.8223290840033,207.81171566699777,,,,,,,,,,,,,,,,,,,,,,,,,,,,,,,,,,,207.81228745900444,207.8223290840033,207.8223290840033,208.80650174999755,g,1.0,0.9737120409990894,,,,,,sub-196,1,stroop_test,,
,,,,15.0,3.0,1.0,,,,,,,,,,,,,gelb,yellow,g,1.0,g,1.0,1.09162404199742,,,,,,,,,,1.0,3.0,15.0,10.0,208.81139058400004,,,,,,,,,,,,,,,,,208.80698575000133,208.8952852500006,209.69813033399987,209.69015604200104,,,,,,,,,,,,,,,,,,,,,,,,,,,,,,,,,,,209.69115645899728,209.69813033399987,209.69813033399987,210.80157512499864,g,1.0,1.09162404199742,,,,,,sub-196,1,stroop_test,,
,,,,16.0,4.0,1.0,,,,,,,,,,,,,blau,blue,b,1.0,b,1.0,0.846316957999079,,,,,,,,,,1.0,4.0,16.0,6.0,210.82233350000024,,,,,,,,,,,,,,,,,210.8020233339994,211.59457166700304,212.38816045899875,212.37799754200387,,,,,,,,,,,,,,,,,,,,,,,,,,,,,,,,,,,212.38169666699832,212.38816045899875,212.38816045899875,213.24119050000445,b,1.0,0.846316957999079,,,,,,sub-196,1,stroop_test,,
,,,,17.0,5.0,1.0,,,,,,,,,,,,,blau,red,r,0.0,r,1.0,0.9704023749945918,,,,,,,,,,1.0,5.0,17.0,4.0,213.2508995419994,,,,,,,,,,,,,,,,,213.24187966700265,214.03894712500187,214.8295722920011,214.8228799170029,,,,,,,,,,,,,,,,,,,,,,,,,,,,,,,,,,,214.82350491700345,214.8295722920011,214.8295722920011,215.8077433340004,r,1.0,0.9704023749945918,,,,,,sub-196,1,stroop_test,,
,,,,18.0,6.0,1.0,,,,,,,,,,,,,blau,yellow,g,0.0,g,1.0,0.953451999994286,,,,,,,,,,1.0,6.0,18.0,7.0,215.81714470899897,,,,,,,,,,,,,,,,,215.8083480839996,216.15562604200383,216.9467249590016,216.9397795420009,,,,,,,,,,,,,,,,,,,,,,,,,,,,,,,,,,,216.94054312499796,216.9467249590016,216.9467249590016,217.9076459999997,g,1.0,0.953451999994286,,,,,,sub-196,1,stroop_test,,
,,,,19.0,7.0,1.0,,,,,,,,,,,,,rot,blue,b,0.0,b,1.0,0.9210370410000904,,,,,,,,,,1.0,7.0,19.0,2.0,217.91698400000317,,,,,,,,,,,,,,,,,217.9082395419973,219.1055945420012,219.90256245899943,219.88980083400384,,,,,,,,,,,,,,,,,,,,,,,,,,,,,,,,,,,219.89572666700408,219.90256245899943,219.90256245899943,220.8344076249996,b,1.0,0.9210370410000904,,,,,,sub-196,1,stroop_test,,
,,,,20.0,8.0,1.0,,,,,,,,,,,,,blau,blue,b,1.0,b,1.0,0.6521373750001658,,,,,,,,,,1.0,8.0,20.0,5.0,220.8556472920027,,,,,,,,,,,,,,,,,220.83492225000373,220.92793800000072,221.72158350000245,221.71164649999992,,,,,,,,,,,,,,,,,,,,,,,,,,,,,,,,,,,221.71533975000057,221.72158350000245,221.72158350000245,222.38483633400028,b,1.0,0.6521373750001658,,,,,,sub-196,1,stroop_test,,
,,,,21.0,9.0,1.0,,,,,,,,,,,,,gelb,red,r,0.0,r,1.0,1.5177346670025145,,,,,,,,,,1.0,9.0,21.0,8.0,222.39088958399952,,,,,,,,,,,,,,,,,222.38539512499847,223.57786791700343,224.3892228339973,224.36230237500425,,,,,,,,,,,,,,,,,,,,,,,,,,,,,,,,,,,224.36610174999805,224.3892228339973,224.3892228339973,225.9191484999974,r,1.0,1.5177346670025145,,,,,,sub-196,1,stroop_test,,
,,,,22.0,10.0,1.0,,,,,,,,,,,,,rot,red,r,1.0,r,1.0,1.043899500000407,,,,,,,,,,1.0,10.0,22.0,1.0,225.9243174170042,,,,,,,,,,,,,,,,,225.9197935839984,226.26124333400367,227.0553483749973,227.0448802500032,,,,,,,,,,,,,,,,,,,,,,,,,,,,,,,,,,,227.0485360000021,227.0553483749973,227.0553483749973,228.10762675000296,r,1.0,1.043899500000407,,,,,,sub-196,1,stroop_test,,
,,,,23.0,11.0,1.0,,,,,,,,,,,,,rot,yellow,g,0.0,g,1.0,0.7637386249989504,,,,,,,,,,1.0,11.0,23.0,3.0,228.1184924170011,,,,,,,,,,,,,,,,,228.1082363750029,229.30558012500117,230.09760200000164,230.08998650000285,,,,,,,,,,,,,,,,,,,,,,,,,,,,,,,,,,,230.09103545900143,230.09760200000164,230.09760200000164,230.86414774999864,g,1.0,0.7637386249989504,,,,,,sub-196,1,stroop_test,,
,,,,24.0,0.0,2.0,,,,,,,,,,,,,gelb,red,r,0.0,g,0.0,0.9438735829971848,,,,,,,,,,2.0,0.0,24.0,8.0,230.8746489589976,,,,,,,,,,,,,,,,,230.8648125839973,232.06121416699895,232.86762529199768,232.856410417,,,,,,,,,,,,,,,,,,,,,,,,,,,,,,,,,,,232.86101987500297,232.86762529199768,232.86762529199768,233.8138053750008,g,0.0,0.9438735829971848,,,,,,sub-196,1,stroop_test,,
,,,,25.0,1.0,2.0,,,,,,,,,,,,,blau,yellow,g,0.0,b,0.0,1.024003416998312,,,,,,,,,,2.0,1.0,25.0,7.0,233.82461691700155,,,,,,,,,,,,,,,,,233.8143694169994,234.6132184590024,235.4165277499997,235.40616250000312,,,,,,,,,,,,,,,,,,,,,,,,,,,,,,,,,,,235.40995804200065,235.4165277499997,235.4165277499997,236.4462123749981,b,0.0,1.024003416998312,,,,,,sub-196,1,stroop_test,,
,,,,26.0,2.0,2.0,,,,,,,,,,,,,rot,yellow,g,0.0,g,1.0,0.8549256660044193,,,,,,,,,,2.0,2.0,26.0,3.0,236.45747395900253,,,,,,,,,,,,,,,,,236.44677808399865,236.794315334002,237.5883109589995,237.57797674999887,,,,,,,,,,,,,,,,,,,,,,,,,,,,,,,,,,,237.58164920900165,237.5883109589995,237.5883109589995,238.44607237500168,g,1.0,0.8549256660044193,,,,,,sub-196,1,stroop_test,,
,,,,27.0,3.0,2.0,,,,,,,,,,,,,gelb,yellow,g,1.0,g,1.0,0.7347659160004696,,,,,,,,,,2.0,3.0,27.0,10.0,238.45767224999872,,,,,,,,,,,,,,,,,238.44675712499884,238.7945501249997,239.6055180839976,239.5777194589973,,,,,,,,,,,,,,,,,,,,,,,,,,,,,,,,,,,239.5825958339992,239.6055180839976,239.6055180839976,240.3519300000044,g,1.0,0.7347659160004696,,,,,,sub-196,1,stroop_test,,
,,,,28.0,4.0,2.0,,,,,,,,,,,,,blau,blue,b,1.0,b,1.0,1.2849899580032798,,,,,,,,,,2.0,4.0,28.0,5.0,240.35743695899876,,,,,,,,,,,,,,,,,240.35243833399727,241.5428138749994,242.3381433340037,242.32796291699924,,,,,,,,,,,,,,,,,,,,,,,,,,,,,,,,,,,242.3317837499999,242.3381433340037,242.3381433340037,243.6350808749994,b,1.0,1.2849899580032798,,,,,,sub-196,1,stroop_test,,
,,,,29.0,5.0,2.0,,,,,,,,,,,,,blau,red,r,0.0,r,1.0,0.8187712090002606,,,,,,,,,,2.0,5.0,29.0,4.0,243.6406768750021,,,,,,,,,,,,,,,,,243.63560850000067,244.82771366700035,245.62206029200024,245.61168049999836,,,,,,,,,,,,,,,,,,,,,,,,,,,,,,,,,,,245.61225966700292,245.62206029200024,245.62206029200024,246.446775000004,r,1.0,0.8187712090002606,,,,,,sub-196,1,stroop_test,,
,,,,30.0,6.0,2.0,,,,,,,,,,,,,rot,blue,b,0.0,b,1.0,1.1220030409967876,,,,,,,,,,2.0,6.0,30.0,2.0,246.45753404199783,,,,,,,,,,,,,,,,,246.44745174999844,247.6458020420032,248.45149775000027,248.43972741700415,,,,,,,,,,,,,,,,,,,,,,,,,,,,,,,,,,,248.44459383399956,248.45149775000027,248.45149775000027,249.58549474999745,b,1.0,1.1220030409967876,,,,,,sub-196,1,stroop_test,,
,,,,31.0,7.0,2.0,,,,,,,,,,,,,rot,red,r,1.0,r,1.0,1.036608291993616,,,,,,,,,,2.0,7.0,31.0,1.0,249.5910169589988,,,,,,,,,,,,,,,,,249.5860179169977,249.67618212500383,250.4719855420044,250.46121004199813,,,,,,,,,,,,,,,,,,,,,,,,,,,,,,,,,,,250.46180983399967,250.4719855420044,250.4719855420044,251.51245487500276,r,1.0,1.036608291993616,,,,,,sub-196,1,stroop_test,,
,,,,32.0,8.0,2.0,,,,,,,,,,,,,gelb,blue,b,0.0,b,1.0,1.061075332996552,,,,,,,,,,2.0,8.0,32.0,9.0,251.5208719590009,,,,,,,,,,,,,,,,,251.51297850000265,252.3108621249994,253.10488162500403,253.09472062499844,,,,,,,,,,,,,,,,,,,,,,,,,,,,,,,,,,,253.09838258400123,253.10488162500403,253.10488162500403,254.1740072090033,b,1.0,1.061075332996552,,,,,,sub-196,1,stroop_test,,
,,,,33.0,9.0,2.0,,,,,,,,,,,,,blau,blue,b,1.0,b,1.0,0.7885784999962198,,,,,,,,,,2.0,9.0,33.0,6.0,254.1832022919989,,,,,,,,,,,,,,,,,254.1746747500001,255.37209679200168,256.167544584001,256.1564256670026,,,,,,,,,,,,,,,,,,,,,,,,,,,,,,,,,,,256.1608025000023,256.167544584001,256.167544584001,256.9670397919981,b,1.0,0.7885784999962198,,,,,,sub-196,1,stroop_test,,
,,,,34.0,10.0,2.0,,,,,,,,,,,,,rot,red,r,1.0,r,1.0,0.9518894579960032,,,,,,,,,,2.0,10.0,34.0,0.0,256.97067091699864,,,,,,,,,,,,,,,,,256.9674129999985,257.0604429590021,257.8545091670021,257.843870292003,,,,,,,,,,,,,,,,,,,,,,,,,,,,,,,,,,,257.84744625000167,257.8545091670021,257.8545091670021,258.8179927090023,r,1.0,0.9518894579960032,,,,,,sub-196,1,stroop_test,,
,,,,35.0,11.0,2.0,,,,,,,,,,,,,gelb,yellow,g,1.0,g,1.0,0.7946205000043847,,,,,,,,,,2.0,11.0,35.0,11.0,258.8387812919973,,,,,,,,,,,,,,,,,258.81841979199817,260.01115070900414,260.8183916670023,260.80612079200364,,,,,,,,,,,,,,,,,,,,,,,,,,,,,,,,,,,260.81152825000026,260.8183916670023,260.8183916670023,261.6240314590032,g,1.0,0.7946205000043847,,,,,,sub-196,1,stroop_test,,
,,,,36.0,0.0,3.0,,,,,,,,,,,,,gelb,blue,b,0.0,b,1.0,0.9212340000012772,,,,,,,,,,3.0,0.0,36.0,9.0,261.6338820000019,,,,,,,,,,,,,,,,,261.6246470000042,262.8220027089992,263.6126446670023,263.6060906249986,,,,,,,,,,,,,,,,,,,,,,,,,,,,,,,,,,,263.6067147089998,263.6126446670023,263.6126446670023,264.54085925000254,b,1.0,0.9212340000012772,,,,,,sub-196,1,stroop_test,,
,,,,37.0,1.0,3.0,,,,,,,,,,,,,blau,blue,b,1.0,b,1.0,1.2999805840008776,,,,,,,,,,3.0,1.0,37.0,5.0,264.550763291998,,,,,,,,,,,,,,,,,264.54157545899943,265.7388862500011,266.53406754200114,266.52281970900367,,,,,,,,,,,,,,,,,,,,,,,,,,,,,,,,,,,266.5274294589981,266.53406754200114,266.53406754200114,267.8409127499981,b,1.0,1.2999805840008776,,,,,,sub-196,1,stroop_test,,
,,,,38.0,2.0,3.0,,,,,,,,,,,,,gelb,yellow,g,1.0,g,1.0,1.040068207999866,,,,,,,,,,3.0,2.0,38.0,11.0,267.85109291700064,,,,,,,,,,,,,,,,,267.8416577919997,268.1886655420021,268.9841000419983,268.9732102499984,,,,,,,,,,,,,,,,,,,,,,,,,,,,,,,,,,,268.9776513750039,268.9841000419983,268.9841000419983,270.02970687500056,g,1.0,1.040068207999866,,,,,,sub-196,1,stroop_test,,
,,,,39.0,3.0,3.0,,,,,,,,,,,,,gelb,red,r,0.0,r,1.0,1.184230082995782,,,,,,,,,,3.0,3.0,39.0,8.0,270.0406063749979,,,,,,,,,,,,,,,,,270.0303263750029,270.82529720899765,271.6219608340034,271.6116229590043,,,,,,,,,,,,,,,,,,,,,,,,,,,,,,,,,,,271.612198625,271.6219608340034,271.6219608340034,272.8193522090005,r,1.0,1.184230082995782,,,,,,sub-196,1,stroop_test,,
,,,,40.0,4.0,3.0,,,,,,,,,,,,,blau,red,r,0.0,r,1.0,0.952178792002087,,,,,,,,,,3.0,4.0,40.0,4.0,272.823851125002,,,,,,,,,,,,,,,,,272.81986866700026,272.9099357919986,273.7040870839992,273.69380237500445,,,,,,,,,,,,,,,,,,,,,,,,,,,,,,,,,,,273.6975849169976,273.7040870839992,273.7040870839992,274.66981074999785,r,1.0,0.952178792002087,,,,,,sub-196,1,stroop_test,,
,,,,41.0,5.0,3.0,,,,,,,,,,,,,blau,blue,b,1.0,b,1.0,0.8103822089979076,,,,,,,,,,3.0,5.0,41.0,6.0,274.6735156249997,,,,,,,,,,,,,,,,,274.6702269590023,275.86121537500003,276.6551976249975,276.6446216250042,,,,,,,,,,,,,,,,,,,,,,,,,,,,,,,,,,,276.6451852500031,276.6551976249975,276.6551976249975,277.473876959004,b,1.0,0.8103822089979076,,,,,,sub-196,1,stroop_test,,
,,,,42.0,6.0,3.0,,,,,,,,,,,,,blau,yellow,g,0.0,g,1.0,1.010161625003093,,,,,,,,,,3.0,6.0,42.0,7.0,277.484222375002,,,,,,,,,,,,,,,,,277.4744605840024,278.6722911670004,279.46258274999855,279.4559249169979,,,,,,,,,,,,,,,,,,,,,,,,,,,,,,,,,,,279.4565550420011,279.46258274999855,279.46258274999855,280.4858047919988,g,1.0,1.010161625003093,,,,,,sub-196,1,stroop_test,,
,,,,43.0,7.0,3.0,,,,,,,,,,,,,rot,yellow,g,0.0,g,1.0,1.2144311249940074,,,,,,,,,,3.0,7.0,43.0,3.0,280.4898804170007,,,,,,,,,,,,,,,,,280.4862473750036,281.6776054170041,282.4718110000031,282.4614691250026,,,,,,,,,,,,,,,,,,,,,,,,,,,,,,,,,,,282.4650865000003,282.4718110000031,282.4718110000031,283.69074037500104,g,1.0,1.2144311249940074,,,,,,sub-196,1,stroop_test,,
,,,,44.0,8.0,3.0,,,,,,,,,,,,,rot,blue,b,0.0,b,1.0,1.3867549170026905,,,,,,,,,,3.0,8.0,44.0,2.0,283.7012177920042,,,,,,,,,,,,,,,,,283.691413917004,284.88884074999805,285.67935695900087,285.67253204200097,,,,,,,,,,,,,,,,,,,,,,,,,,,,,,,,,,,285.67316795900115,285.67935695900087,285.67935695900087,287.0742772090016,b,1.0,1.3867549170026905,,,,,,sub-196,1,stroop_test,,
,,,,45.0,9.0,3.0,,,,,,,,,,,,,gelb,yellow,g,1.0,g,1.0,0.9790047499991488,,,,,,,,,,3.0,9.0,45.0,10.0,287.0847473340036,,,,,,,,,,,,,,,,,287.07504725000035,287.17187604200444,287.9666153750004,287.95585749999736,,,,,,,,,,,,,,,,,,,,,,,,,,,,,,,,,,,287.960105416998,287.9666153750004,287.9666153750004,288.95668108400423,g,1.0,0.9790047499991488,,,,,,sub-196,1,stroop_test,,
,,,,46.0,10.0,3.0,,,,,,,,,,,,,rot,red,r,1.0,r,1.0,0.5923917500040261,,,,,,,,,,3.0,10.0,46.0,0.0,288.9616175839983,,,,,,,,,,,,,,,,,288.9571841249999,289.7555348750029,290.5509572919982,290.5394111249989,,,,,,,,,,,,,,,,,,,,,,,,,,,,,,,,,,,290.5443306250017,290.5509572919982,290.5509572919982,291.14648883399786,r,1.0,0.5923917500040261,,,,,,sub-196,1,stroop_test,,
,,,,47.0,11.0,3.0,,,,,,,,,,,,,rot,red,r,1.0,r,1.0,0.5814883339990047,,,,,,,,,,3.0,11.0,47.0,1.0,291.15692087500065,,,,,,,,,,,,,,,,,291.1470499999996,292.3442446670015,293.1386590000038,293.12797795900406,,,,,,,,,,,,,,,,,,,,,,,,,,,,,,,,,,,293.1285551250039,293.1386590000038,293.1386590000038,293.7240200419983,r,1.0,0.5814883339990047,,,,,,sub-196,1,stroop_test,,
,,,,48.0,0.0,4.0,,,,,,,,,,,,,blau,blue,b,1.0,b,1.0,0.9143727499977105,,,,,,,,,,4.0,0.0,48.0,5.0,293.7344054999994,,,,,,,,,,,,,,,,,293.7246737919995,294.0720493339977,294.8674300420025,294.85618629200326,,,,,,,,,,,,,,,,,,,,,,,,,,,,,,,,,,,294.8609167500035,294.8674300420025,294.8674300420025,295.79067437499907,b,1.0,0.9143727499977105,,,,,,sub-196,1,stroop_test,,
,,,,49.0,1.0,4.0,,,,,,,,,,,,,gelb,yellow,g,1.0,g,1.0,0.4049369580025086,,,,,,,,,,4.0,1.0,49.0,11.0,295.8012815000038,,,,,,,,,,,,,,,,,295.7913563340044,295.88869154200074,296.684007459,296.6728907500001,,,,,,,,,,,,,,,,,,,,,,,,,,,,,,,,,,,296.6775802089978,296.684007459,296.684007459,297.0917574589985,g,1.0,0.4049369580025086,,,,,,sub-196,1,stroop_test,,
,,,,50.0,2.0,4.0,,,,,,,,,,,,,rot,red,r,1.0,r,1.0,0.7271012919954956,,,,,,,,,,4.0,2.0,50.0,0.0,297.1021959589998,,,,,,,,,,,,,,,,,297.0925514999981,298.28885616700427,299.08421108400216,299.0730456669989,,,,,,,,,,,,,,,,,,,,,,,,,,,,,,,,,,,299.0775218339986,299.08421108400216,299.08421108400216,299.8227185420037,r,1.0,0.7271012919954956,,,,,,sub-196,1,stroop_test,,
,,,,51.0,3.0,4.0,,,,,,,,,,,,,rot,red,r,1.0,r,1.0,0.4859584160003578,,,,,,,,,,4.0,3.0,51.0,1.0,299.82762766700034,,,,,,,,,,,,,,,,,299.823245874999,300.161926959001,300.96317875000386,300.95616687500296,,,,,,,,,,,,,,,,,,,,,,,,,,,,,,,,,,,300.9569220839985,300.96317875000386,300.96317875000386,301.4571363340001,r,1.0,0.4859584160003578,,,,,,sub-196,1,stroop_test,,
,,,,52.0,4.0,4.0,,,,,,,,,,,,,gelb,red,r,0.0,b,0.0,0.8215562499972293,,,,,,,,,,4.0,4.0,52.0,8.0,301.4676264169975,,,,,,,,,,,,,,,,,301.4577499169973,302.6554450839976,303.4508177919997,303.43940866699995,,,,,,,,,,,,,,,,,,,,,,,,,,,,,,,,,,,303.44419587500306,303.4508177919997,303.4508177919997,304.27502249999816,b,0.0,0.8215562499972293,,,,,,sub-196,1,stroop_test,,
,,,,53.0,5.0,4.0,,,,,,,,,,,,,gelb,yellow,g,1.0,g,1.0,0.8554448750001029,,,,,,,,,,4.0,5.0,53.0,10.0,304.2856594170007,,,,,,,,,,,,,,,,,304.27585479200206,304.37205008399906,305.1627712089976,305.1562495840044,,,,,,,,,,,,,,,,,,,,,,,,,,,,,,,,,,,305.1568791250029,305.1627712089976,305.1627712089976,306.0238682920026,g,1.0,0.8554448750001029,,,,,,sub-196,1,stroop_test,,
,,,,54.0,6.0,4.0,,,,,,,,,,,,,rot,blue,b,0.0,b,1.0,1.8120627499956756,,,,,,,,,,4.0,6.0,54.0,2.0,306.03257612499874,,,,,,,,,,,,,,,,,306.0244928750035,307.2217601250013,308.0173822500001,308.00594412499777,,,,,,,,,,,,,,,,,,,,,,,,,,,,,,,,,,,308.0104130000036,308.0173822500001,308.0173822500001,309.8404207499989,b,1.0,1.8120627499956756,,,,,,sub-196,1,stroop_test,,
,,,,55.0,7.0,4.0,,,,,,,,,,,,,blau,blue,b,1.0,b,1.0,0.4310973340034252,,,,,,,,,,4.0,7.0,55.0,6.0,309.850156667002,,,,,,,,,,,,,,,,,309.84105441700376,311.0383487920044,311.83508104200155,311.822672250004,,,,,,,,,,,,,,,,,,,,,,,,,,,,,,,,,,,311.82864308400167,311.83508104200155,311.83508104200155,312.27419612499943,b,1.0,0.4310973340034252,,,,,,sub-196,1,stroop_test,,
,,,,56.0,8.0,4.0,,,,,,,,,,,,,rot,yellow,g,0.0,g,1.0,1.023113666997233,,,,,,,,,,4.0,8.0,56.0,3.0,312.2845191669985,,,,,,,,,,,,,,,,,312.2749270839995,313.4716386250002,314.266695792001,314.2559049170013,,,,,,,,,,,,,,,,,,,,,,,,,,,,,,,,,,,314.2597266669982,314.266695792001,314.266695792001,315.3014913750012,g,1.0,1.023113666997233,,,,,,sub-196,1,stroop_test,,
,,,,57.0,9.0,4.0,,,,,,,,,,,,,blau,yellow,g,0.0,g,1.0,1.0263387079976385,,,,,,,,,,4.0,9.0,57.0,7.0,315.3071148340023,,,,,,,,,,,,,,,,,315.30200983399845,316.0944599170034,316.8878125839983,316.8776693750042,,,,,,,,,,,,,,,,,,,,,,,,,,,,,,,,,,,316.8814855000019,316.8878125839983,316.8878125839983,317.9241647500021,g,1.0,1.0263387079976385,,,,,,sub-196,1,stroop_test,,
,,,,58.0,10.0,4.0,,,,,,,,,,,,,blau,red,r,0.0,r,1.0,2.0553189999991446,,,,,,,,,,4.0,10.0,58.0,4.0,317.934252250001,,,,,,,,,,,,,,,,,317.9249362089977,318.72175525000057,319.5128546670021,319.50589887500246,,,,,,,,,,,,,,,,,,,,,,,,,,,,,,,,,,,319.5066877920035,319.5128546670021,319.5128546670021,321.5736496250029,r,1.0,2.0553189999991446,,,,,,sub-196,1,stroop_test,,
,,,,59.0,11.0,4.0,,,,,,,,,,,,,gelb,blue,b,0.0,b,1.0,0.9318912090020604,,,,,,,,,,4.0,11.0,59.0,9.0,321.58407866700145,,,,,,,,,,,,,,,,,321.57430620900413,322.3716910000003,323.167111625,323.1559410839982,,,,,,,,,,,,,,,,,,,,,,,,,,,,,,,,,,,323.160575959002,323.167111625,323.167111625,324.1071272920017,b,1.0,0.9318912090020604,,,,,,sub-196,1,stroop_test,,
,,,,60.0,0.0,5.0,,,,,,,,,,,,,gelb,yellow,g,1.0,b,0.0,1.0402792500026408,,,,,,,,,,5.0,0.0,60.0,10.0,324.1167055839978,,,,,,,,,,,,,,,,,324.1077609999993,324.20492270900286,324.9956989589991,324.988969500002,,,,,,,,,,,,,,,,,,,,,,,,,,,,,,,,,,,324.98961966700153,324.9956989589991,324.9956989589991,326.0402186670035,b,0.0,1.0402792500026408,,,,,,sub-196,1,stroop_test,,
,,,,61.0,1.0,5.0,,,,,,,,,,,,,gelb,red,r,0.0,r,1.0,1.0545046249972074,,,,,,,,,,5.0,1.0,61.0,8.0,326.05017404200044,,,,,,,,,,,,,,,,,326.04081029199733,327.238432750004,328.0293291249982,328.0225285839988,,,,,,,,,,,,,,,,,,,,,,,,,,,,,,,,,,,328.0232501249993,328.0293291249982,328.0293291249982,329.09044145900407,r,1.0,1.0545046249972074,,,,,,sub-196,1,stroop_test,,
,,,,62.0,2.0,5.0,,,,,,,,,,,,,rot,red,r,1.0,r,1.0,0.5289821250044042,,,,,,,,,,5.0,2.0,62.0,1.0,329.1006007920005,,,,,,,,,,,,,,,,,329.0911127090003,330.2883921250032,331.0837794170002,331.072471917003,,,,,,,,,,,,,,,,,,,,,,,,,,,,,,,,,,,331.0767649170011,331.0837794170002,331.0837794170002,331.62364637500286,r,1.0,0.5289821250044042,,,,,,sub-196,1,stroop_test,,
,,,,63.0,3.0,5.0,,,,,,,,,,,,,rot,yellow,g,0.0,g,1.0,1.2270485830013058,,,,,,,,,,5.0,3.0,63.0,3.0,331.63279599999805,,,,,,,,,,,,,,,,,331.6242159590038,332.821755500001,333.6125702920035,333.6057681250022,,,,,,,,,,,,,,,,,,,,,,,,,,,,,,,,,,,333.6064318339995,333.6125702920035,333.6125702920035,334.8497431249998,g,1.0,1.2270485830013058,,,,,,sub-196,1,stroop_test,,
,,,,64.0,4.0,5.0,,,,,,,,,,,,,blau,red,r,0.0,r,1.0,1.202371832994686,,,,,,,,,,5.0,4.0,64.0,4.0,334.85444304200064,,,,,,,,,,,,,,,,,334.85026683400065,334.9429273749993,335.737217959002,335.7268022920034,,,,,,,,,,,,,,,,,,,,,,,,,,,,,,,,,,,335.73050845900434,335.737217959002,335.737217959002,336.95046645899856,r,1.0,1.202371832994686,,,,,,sub-196,1,stroop_test,,
,,,,65.0,5.0,5.0,,,,,,,,,,,,,blau,blue,b,1.0,b,1.0,0.7051717089998419,,,,,,,,,,5.0,5.0,65.0,5.0,336.9717877919975,,,,,,,,,,,,,,,,,336.95097550000355,337.0441822499997,337.8382441249996,337.8275989169997,,,,,,,,,,,,,,,,,,,,,,,,,,,,,,,,,,,337.8281728340007,337.8382441249996,337.8382441249996,338.54630058399925,b,1.0,0.7051717089998419,,,,,,sub-196,1,stroop_test,,
,,,,66.0,6.0,5.0,,,,,,,,,,,,,gelb,yellow,g,1.0,g,1.0,0.9759000830017612,,,,,,,,,,5.0,6.0,66.0,11.0,338.5567291670013,,,,,,,,,,,,,,,,,338.54683104200376,338.8938475000032,339.7049680839991,339.6773495840025,,,,,,,,,,,,,,,,,,,,,,,,,,,,,,,,,,,339.6822056250021,339.7049680839991,339.7049680839991,340.690597959001,g,1.0,0.9759000830017612,,,,,,sub-196,1,stroop_test,,
,,,,67.0,7.0,5.0,,,,,,,,,,,,,blau,blue,b,1.0,b,1.0,1.2476160840014927,,,,,,,,,,5.0,7.0,67.0,6.0,340.70046916700085,,,,,,,,,,,,,,,,,340.69135025000287,341.4882070840031,342.2831470000019,342.2723036669995,,,,,,,,,,,,,,,,,,,,,,,,,,,,,,,,,,,342.276516209,342.2831470000019,342.2831470000019,343.54057108399866,b,1.0,1.2476160840014927,,,,,,sub-196,1,stroop_test,,
,,,,68.0,8.0,5.0,,,,,,,,,,,,,rot,red,r,1.0,r,1.0,1.0358082500024466,,,,,,,,,,5.0,8.0,68.0,0.0,343.55039562500315,,,,,,,,,,,,,,,,,343.54129595900304,344.3381635839978,345.1337757090005,345.1225253340017,,,,,,,,,,,,,,,,,,,,,,,,,,,,,,,,,,,345.12706445900403,345.1337757090005,345.1337757090005,346.17359870899963,r,1.0,1.0358082500024466,,,,,,sub-196,1,stroop_test,,
,,,,69.0,9.0,5.0,,,,,,,,,,,,,blau,yellow,g,0.0,g,1.0,0.9506217090020072,,,,,,,,,,5.0,9.0,69.0,7.0,346.18295041700185,,,,,,,,,,,,,,,,,346.1742689169987,346.27196374999767,347.0675554170012,347.0558565419997,,,,,,,,,,,,,,,,,,,,,,,,,,,,,,,,,,,347.0605595840025,347.0675554170012,347.0675554170012,348.02387825000187,g,1.0,0.9506217090020072,,,,,,sub-196,1,stroop_test,,
,,,,70.0,10.0,5.0,,,,,,,,,,,,,rot,blue,b,0.0,b,1.0,0.8338297499940381,,,,,,,,,,5.0,10.0,70.0,2.0,348.0335970419983,,,,,,,,,,,,,,,,,348.0246695419992,348.1215013340043,348.91502516699984,348.9059907499977,,,,,,,,,,,,,,,,,,,,,,,,,,,,,,,,,,,348.9095919590036,348.91502516699984,348.91502516699984,349.7569800420024,b,1.0,0.8338297499940381,,,,,,sub-196,1,stroop_test,,
,,,,71.0,11.0,5.0,,,,,,,,,,,,,gelb,blue,b,0.0,b,1.0,0.7729755840045982,,,,,,,,,,5.0,11.0,71.0,9.0,349.7679325420031,,,,,,,,,,,,,,,,,349.7576469170017,350.95481049999944,351.7508647499999,351.73955466700136,,,,,,,,,,,,,,,,,,,,,,,,,,,,,,,,,,,351.74419325000054,351.7508647499999,351.7508647499999,352.5287465420042,b,1.0,0.7729755840045982,,,,,,sub-196,1,stroop_test,,
,,,,72.0,0.0,6.0,,,,,,,,,,,,,blau,yellow,g,0.0,g,1.0,1.4442311669990886,,,,,,,,,,6.0,0.0,72.0,7.0,352.54016287500417,,,,,,,,,,,,,,,,,352.5293194170008,353.7278075420036,354.5209291249994,354.5109365000026,,,,,,,,,,,,,,,,,,,,,,,,,,,,,,,,,,,354.51467666700046,354.5209291249994,354.5209291249994,355.973470334,g,1.0,1.4442311669990886,,,,,,sub-196,1,stroop_test,,
,,,,73.0,1.0,6.0,,,,,,,,,,,,,blau,blue,b,1.0,b,1.0,0.8600387499973294,,,,,,,,,,6.0,1.0,73.0,6.0,355.9840469589981,,,,,,,,,,,,,,,,,355.97410595900146,357.1714653750023,357.9628827089982,357.9557675420001,,,,,,,,,,,,,,,,,,,,,,,,,,,,,,,,,,,357.9565235420014,357.9628827089982,357.9628827089982,358.83435779200227,b,1.0,0.8600387499973294,,,,,,sub-196,1,stroop_test,,
,,,,74.0,2.0,6.0,,,,,,,,,,,,,gelb,red,r,0.0,r,1.0,1.0061270000005609,,,,,,,,,,6.0,2.0,74.0,8.0,358.8398419170044,,,,,,,,,,,,,,,,,358.8348439590045,359.6274352920009,360.42341745900194,360.411185625002,,,,,,,,,,,,,,,,,,,,,,,,,,,,,,,,,,,360.4161112500005,360.42341745900194,360.42341745900194,361.44008141700033,r,1.0,1.0061270000005609,,,,,,sub-196,1,stroop_test,,
,,,,75.0,3.0,6.0,,,,,,,,,,,,,blau,blue,b,1.0,b,1.0,0.7856635830030427,,,,,,,,,,6.0,3.0,75.0,5.0,361.4507566250031,,,,,,,,,,,,,,,,,361.4407894169999,362.2381373340031,363.0335665419989,363.022211042,,,,,,,,,,,,,,,,,,,,,,,,,,,,,,,,,,,363.0267855839993,363.0335665419989,363.0335665419989,363.823711875004,b,1.0,0.7856635830030427,,,,,,sub-196,1,stroop_test,,
,,,,76.0,4.0,6.0,,,,,,,,,,,,,rot,red,r,1.0,r,1.0,0.7941695420013275,,,,,,,,,,6.0,4.0,76.0,0.0,363.83423016699817,,,,,,,,,,,,,,,,,363.8243812500005,363.9213985419992,364.7169342499983,364.7057345420035,,,,,,,,,,,,,,,,,,,,,,,,,,,,,,,,,,,364.710133917004,364.7169342499983,364.7169342499983,365.5242602090002,r,1.0,0.7941695420013275,,,,,,sub-196,1,stroop_test,,
,,,,77.0,5.0,6.0,,,,,,,,,,,,,rot,blue,b,0.0,b,1.0,0.7186989580004592,,,,,,,,,,6.0,5.0,77.0,2.0,365.5383640840009,,,,,,,,,,,,,,,,,365.5246235000013,366.7214097920005,367.5129319999978,367.5055265839983,,,,,,,,,,,,,,,,,,,,,,,,,,,,,,,,,,,367.50630437499785,367.5129319999978,367.5129319999978,368.2401059589975,b,1.0,0.7186989580004592,,,,,,sub-196,1,stroop_test,,
,,,,78.0,6.0,6.0,,,,,,,,,,,,,rot,red,r,1.0,r,1.0,1.002536333995522,,,,,,,,,,6.0,6.0,78.0,1.0,368.24995604200376,,,,,,,,,,,,,,,,,368.2406473750016,368.3379847090037,369.1295377499992,369.1223296250028,,,,,,,,,,,,,,,,,,,,,,,,,,,,,,,,,,,369.12311270899954,369.1295377499992,369.1295377499992,370.1402109170013,r,1.0,1.002536333995522,,,,,,sub-196,1,stroop_test,,
,,,,79.0,7.0,6.0,,,,,,,,,,,,,rot,yellow,g,0.0,g,1.0,1.111342958000023,,,,,,,,,,6.0,7.0,79.0,3.0,370.1503213340038,,,,,,,,,,,,,,,,,370.1408340420021,370.93820954200055,371.72910341699753,371.722218834002,,,,,,,,,,,,,,,,,,,,,,,,,,,,,,,,,,,371.7230183749998,371.72910341699753,371.72910341699753,372.84620641700167,g,1.0,1.111342958000023,,,,,,sub-196,1,stroop_test,,
,,,,80.0,8.0,6.0,,,,,,,,,,,,,gelb,yellow,g,1.0,g,1.0,0.634154542000033,,,,,,,,,,6.0,8.0,80.0,10.0,372.8565430000017,,,,,,,,,,,,,,,,,372.8467447919975,372.9430302920009,373.75479666700267,373.72795829200186,,,,,,,,,,,,,,,,,,,,,,,,,,,,,,,,,,,373.7316631249996,373.75479666700267,373.75479666700267,374.3997777090044,g,1.0,0.634154542000033,,,,,,sub-196,1,stroop_test,,
,,,,81.0,9.0,6.0,,,,,,,,,,,,,gelb,blue,b,0.0,b,1.0,0.8972831659993972,,,,,,,,,,6.0,9.0,81.0,9.0,374.4215505840039,,,,,,,,,,,,,,,,,374.4002648750029,375.5926350419977,376.3880057499992,376.3766967920019,,,,,,,,,,,,,,,,,,,,,,,,,,,,,,,,,,,376.377429250002,376.3880057499992,376.3880057499992,377.29047762499977,b,1.0,0.8972831659993972,,,,,,sub-196,1,stroop_test,,
,,,,82.0,10.0,6.0,,,,,,,,,,,,,gelb,yellow,g,1.0,g,1.0,0.7059803330048453,,,,,,,,,,6.0,10.0,82.0,11.0,377.30128500000137,,,,,,,,,,,,,,,,,377.2913778340008,377.63817683399975,378.4287794999982,378.422069166998,,,,,,,,,,,,,,,,,,,,,,,,,,,,,,,,,,,378.42270508399815,378.4287794999982,378.4287794999982,379.1404898750043,g,1.0,0.7059803330048453,,,,,,sub-196,1,stroop_test,,
,,,,83.0,11.0,6.0,,,,,,,,,,,,,blau,red,r,0.0,r,1.0,1.1585918339987984,,,,,,,,,,6.0,11.0,83.0,4.0,379.1505698750043,,,,,,,,,,,,,,,,,379.1413376249984,380.3381315000006,381.1328504170015,381.1220917500032,,,,,,,,,,,,,,,,,,,,,,,,,,,,,,,,,,,381.12623358400015,381.1328504170015,381.1328504170015,382.2957020419999,r,1.0,1.1585918339987984,,,,,,sub-196,1,stroop_test,,
,,,,84.0,0.0,7.0,,,,,,,,,,,,,gelb,red,r,0.0,r,1.0,0.678732708998723,,,,,,,,,,7.0,0.0,84.0,8.0,382.3067548750041,,,,,,,,,,,,,,,,,382.2962588750015,382.39344758399966,383.1877350420036,383.1775422920037,,,,,,,,,,,,,,,,,,,,,,,,,,,,,,,,,,,383.1813515000031,383.1877350420036,383.1877350420036,383.8732143340021,r,1.0,0.678732708998723,,,,,,sub-196,1,stroop_test,,
,,,,85.0,1.0,7.0,,,,,,,,,,,,,blau,red,r,0.0,r,1.0,0.8459819159979816,,,,,,,,,,7.0,1.0,85.0,4.0,383.88339920900034,,,,,,,,,,,,,,,,,383.8737899589978,385.0712107920044,385.87034400000266,385.8552752500036,,,,,,,,,,,,,,,,,,,,,,,,,,,,,,,,,,,385.86432904200046,385.87034400000266,385.87034400000266,386.7235198749986,r,1.0,0.8459819159979816,,,,,,sub-196,1,stroop_test,,
,,,,86.0,2.0,7.0,,,,,,,,,,,,,rot,yellow,g,0.0,b,0.0,0.7632179579959484,,,,,,,,,,7.0,2.0,86.0,3.0,386.734034000001,,,,,,,,,,,,,,,,,386.7242423339994,386.8211808339984,387.6172135419984,387.6054741249973,,,,,,,,,,,,,,,,,,,,,,,,,,,,,,,,,,,387.6100742499984,387.6172135419984,387.6172135419984,388.38995329200407,b,0.0,0.7632179579959484,,,,,,sub-196,1,stroop_test,,
,,,,87.0,3.0,7.0,,,,,,,,,,,,,gelb,yellow,g,1.0,g,1.0,0.950119375003851,,,,,,,,,,7.0,3.0,87.0,10.0,388.400284000003,,,,,,,,,,,,,,,,,388.39062608400127,388.7379364169974,389.5330788749998,389.5221810000003,,,,,,,,,,,,,,,,,,,,,,,,,,,,,,,,,,,389.5264539170021,389.5330788749998,389.5330788749998,390.4904639590022,g,1.0,0.950119375003851,,,,,,sub-196,1,stroop_test,,
,,,,88.0,4.0,7.0,,,,,,,,,,,,,blau,blue,b,1.0,b,1.0,0.8893315829991479,,,,,,,,,,7.0,4.0,88.0,5.0,390.5005491249976,,,,,,,,,,,,,,,,,390.49121000000014,391.28786329200375,392.0834703340006,392.0722970420029,,,,,,,,,,,,,,,,,,,,,,,,,,,,,,,,,,,392.07685091700114,392.0834703340006,392.0834703340006,392.98359150000033,b,1.0,0.8893315829991479,,,,,,sub-196,1,stroop_test,,
,,,,89.0,5.0,7.0,,,,,,,,,,,,,gelb,blue,b,0.0,b,1.0,0.5342385829935665,,,,,,,,,,7.0,5.0,89.0,9.0,393.00484570900153,,,,,,,,,,,,,,,,,392.9840686250027,393.3281878339985,394.1334289170045,394.1221359170013,,,,,,,,,,,,,,,,,,,,,,,,,,,,,,,,,,,394.1266162920001,394.1334289170045,394.1334289170045,394.6735562090034,b,1.0,0.5342385829935665,,,,,,sub-196,1,stroop_test,,
,,,,90.0,6.0,7.0,,,,,,,,,,,,,gelb,yellow,g,1.0,g,1.0,1.134958207992895,,,,,,,,,,7.0,6.0,90.0,11.0,394.6827685419994,,,,,,,,,,,,,,,,,394.6742377499977,395.47145454199926,396.26206158399873,396.2553036669997,,,,,,,,,,,,,,,,,,,,,,,,,,,,,,,,,,,396.25594162500056,396.26206158399873,396.26206158399873,397.4070220840004,g,1.0,1.134958207992895,,,,,,sub-196,1,stroop_test,,
,,,,91.0,7.0,7.0,,,,,,,,,,,,,blau,blue,b,1.0,b,1.0,0.8469545839980128,,,,,,,,,,7.0,7.0,91.0,6.0,397.4171033750026,,,,,,,,,,,,,,,,,397.4077681670024,397.5045087090039,398.2991186250001,398.2883560420014,,,,,,,,,,,,,,,,,,,,,,,,,,,,,,,,,,,398.2924447499972,398.2991186250001,398.2991186250001,399.1570347090019,b,1.0,0.8469545839980128,,,,,,sub-196,1,stroop_test,,
,,,,92.0,8.0,7.0,,,,,,,,,,,,,blau,yellow,g,0.0,g,1.0,0.3842974579965812,,,,,,,,,,7.0,8.0,92.0,7.0,399.1672281670035,,,,,,,,,,,,,,,,,399.1578580839996,399.95508458399854,400.7455736249976,400.73863666700345,,,,,,,,,,,,,,,,,,,,,,,,,,,,,,,,,,,400.7392581669992,400.7455736249976,400.7455736249976,401.1397895839982,g,1.0,0.3842974579965812,,,,,,sub-196,1,stroop_test,,
,,,,93.0,9.0,7.0,,,,,,,,,,,,,rot,red,r,1.0,r,1.0,0.7603233750051004,,,,,,,,,,7.0,9.0,93.0,0.0,401.1496019999977,,,,,,,,,,,,,,,,,401.1403850839997,402.3379677499979,403.1356340839993,403.1223149170037,,,,,,,,,,,,,,,,,,,,,,,,,,,,,,,,,,,403.1287914589993,403.1356340839993,403.1356340839993,403.9066009590024,r,1.0,0.7603233750051004,,,,,,sub-196,1,stroop_test,,
,,,,94.0,10.0,7.0,,,,,,,,,,,,,rot,red,r,1.0,r,1.0,0.4897464999958174,,,,,,,,,,7.0,10.0,94.0,1.0,403.9166392499974,,,,,,,,,,,,,,,,,403.9071751250012,404.2544771250032,405.0453364589994,405.038596792001,,,,,,,,,,,,,,,,,,,,,,,,,,,,,,,,,,,405.0392252500024,405.0453364589994,405.0453364589994,405.5398974999989,r,1.0,0.4897464999958174,,,,,,sub-196,1,stroop_test,,
,,,,95.0,11.0,7.0,,,,,,,,,,,,,rot,blue,b,0.0,b,1.0,1.1615552910006954,,,,,,,,,,7.0,11.0,95.0,2.0,405.5500277500032,,,,,,,,,,,,,,,,,405.5405584170003,405.8878050420026,406.67844666699966,406.6718325839975,,,,,,,,,,,,,,,,,,,,,,,,,,,,,,,,,,,406.6724613749975,406.67844666699966,406.67844666699966,407.8456214170001,b,1.0,1.1615552910006954,,,,,,sub-196,1,stroop_test,,
,,,,96.0,0.0,8.0,,,,,,,,,,,,,gelb,red,r,0.0,r,1.0,1.2271608330047457,,,,,,,,,,8.0,0.0,96.0,8.0,407.8566138340029,,,,,,,,,,,,,,,,,407.8461839590018,407.9438195839976,408.7373791249993,408.72703916700266,,,,,,,,,,,,,,,,,,,,,,,,,,,,,,,,,,,408.7307765419973,408.7373791249993,408.7373791249993,409.9737327920011,r,1.0,1.2271608330047457,,,,,,sub-196,1,stroop_test,,
,,,,97.0,1.0,8.0,,,,,,,,,,,,,rot,red,r,1.0,r,1.0,0.3411137919974862,,,,,,,,,,8.0,1.0,97.0,1.0,409.9840845840008,,,,,,,,,,,,,,,,,409.97450279199984,410.3211670419987,411.11656804200175,411.1053486250021,,,,,,,,,,,,,,,,,,,,,,,,,,,,,,,,,,,411.1097969170005,411.11656804200175,411.11656804200175,411.4615370419997,r,1.0,0.3411137919974862,,,,,,sub-196,1,stroop_test,,
,,,,98.0,2.0,8.0,,,,,,,,,,,,,rot,yellow,g,0.0,g,1.0,1.0603227079991484,,,,,,,,,,8.0,2.0,98.0,3.0,411.4878352919986,,,,,,,,,,,,,,,,,411.46211991699965,411.5601692499986,412.3544827090009,412.3442416250036,,,,,,,,,,,,,,,,,,,,,,,,,,,,,,,,,,,412.3448418339976,412.3544827090009,412.3544827090009,413.4240169589975,g,1.0,1.0603227079991484,,,,,,sub-196,1,stroop_test,,
,,,,99.0,3.0,8.0,,,,,,,,,,,,,blau,blue,b,1.0,b,1.0,0.7086097499995958,,,,,,,,,,8.0,3.0,99.0,5.0,413.4345276250024,,,,,,,,,,,,,,,,,413.4248250419987,414.6211383749978,415.4163712919981,415.4053764589989,,,,,,,,,,,,,,,,,,,,,,,,,,,,,,,,,,,415.4098245839996,415.4163712919981,415.4163712919981,416.1290589170021,b,1.0,0.7086097499995958,,,,,,sub-196,1,stroop_test,,
,,,,100.0,4.0,8.0,,,,,,,,,,,,,blau,blue,b,1.0,b,1.0,0.4101884590054396,,,,,,,,,,8.0,4.0,100.0,6.0,416.1398022499998,,,,,,,,,,,,,,,,,416.1296341249981,417.3280164169992,418.128579917,418.1217332090018,,,,,,,,,,,,,,,,,,,,,,,,,,,,,,,,,,,418.122480334001,418.128579917,418.128579917,418.54493637500127,b,1.0,0.4101884590054396,,,,,,sub-196,1,stroop_test,,
,,,,101.0,5.0,8.0,,,,,,,,,,,,,blau,yellow,g,0.0,g,1.0,1.6950447500057635,,,,,,,,,,8.0,5.0,101.0,7.0,418.5711599589995,,,,,,,,,,,,,,,,,418.5455826670004,419.3432626249996,420.1377195000023,420.1274554170013,,,,,,,,,,,,,,,,,,,,,,,,,,,,,,,,,,,420.1280277920014,420.1377195000023,420.1377195000023,421.8403337920026,g,1.0,1.6950447500057635,,,,,,sub-196,1,stroop_test,,
,,,,102.0,6.0,8.0,,,,,,,,,,,,,gelb,blue,b,0.0,b,1.0,1.0730781669990392,,,,,,,,,,8.0,6.0,102.0,9.0,421.8504233749991,,,,,,,,,,,,,,,,,421.841148749998,422.1877111249996,422.98212454200257,422.9718125420041,,,,,,,,,,,,,,,,,,,,,,,,,,,,,,,,,,,422.9756390839975,422.98212454200257,422.98212454200257,424.067279750001,b,1.0,1.0730781669990392,,,,,,sub-196,1,stroop_test,,
,,,,103.0,7.0,8.0,,,,,,,,,,,,,gelb,yellow,g,1.0,g,1.0,0.8751146659997175,,,,,,,,,,8.0,7.0,103.0,10.0,424.07251045900193,,,,,,,,,,,,,,,,,424.06771587500407,424.1608251670041,424.9542046670031,424.94383104200097,,,,,,,,,,,,,,,,,,,,,,,,,,,,,,,,,,,424.9444172090007,424.9542046670031,424.9542046670031,425.8396431670044,g,1.0,0.8751146659997175,,,,,,sub-196,1,stroop_test,,
,,,,104.0,8.0,8.0,,,,,,,,,,,,,gelb,yellow,g,1.0,g,1.0,0.5011125419987366,,,,,,,,,,8.0,8.0,104.0,11.0,425.8497231670044,,,,,,,,,,,,,,,,,425.8402507089995,426.1878345419973,426.9791553340037,426.9721264590044,,,,,,,,,,,,,,,,,,,,,,,,,,,,,,,,,,,426.972921917004,426.9791553340037,426.9791553340037,427.48967979200097,g,1.0,0.5011125419987366,,,,,,sub-196,1,stroop_test,,
,,,,105.0,9.0,8.0,,,,,,,,,,,,,blau,red,r,0.0,r,1.0,1.3215420420019657,,,,,,,,,,8.0,9.0,105.0,4.0,427.4997786250024,,,,,,,,,,,,,,,,,427.4902496670038,427.83786412500194,428.63505162500223,428.6220701249986,,,,,,,,,,,,,,,,,,,,,,,,,,,,,,,,,,,428.6283719589992,428.63505162500223,428.63505162500223,429.9626547919979,r,1.0,1.3215420420019657,,,,,,sub-196,1,stroop_test,,
,,,,106.0,10.0,8.0,,,,,,,,,,,,,rot,red,r,1.0,r,1.0,0.867925375001505,,,,,,,,,,8.0,10.0,106.0,0.0,429.97334758400393,,,,,,,,,,,,,,,,,429.96323466700414,431.1604586250032,431.9540534589978,431.9436377500024,,,,,,,,,,,,,,,,,,,,,,,,,,,,,,,,,,,431.9472662920016,431.9540534589978,431.9540534589978,432.8328327499985,r,1.0,0.867925375001505,,,,,,sub-196,1,stroop_test,,
,,,,107.0,11.0,8.0,,,,,,,,,,,,,rot,blue,b,0.0,b,1.0,0.7462890840033651,,,,,,,,,,8.0,11.0,107.0,2.0,432.8376064589975,,,,,,,,,,,,,,,,,432.833360167002,433.1775103340042,433.978478750003,433.9717135000028,,,,,,,,,,,,,,,,,,,,,,,,,,,,,,,,,,,433.9723460419991,433.978478750003,433.978478750003,434.7287638339985,b,1.0,0.7462890840033651,,,,,,sub-196,1,stroop_test,,
,,,,108.0,0.0,9.0,,,,,,,,,,,,,gelb,yellow,g,1.0,g,1.0,0.901304374994652,,,,,,,,,,9.0,0.0,108.0,11.0,434.75448916700407,,,,,,,,,,,,,,,,,434.72933162499976,435.92660745899775,436.72041308400367,436.71042883399787,,,,,,,,,,,,,,,,,,,,,,,,,,,,,,,,,,,436.7141916250039,436.72041308400367,436.72041308400367,437.6343926249974,g,1.0,0.901304374994652,,,,,,sub-196,1,stroop_test,,
,,,,109.0,1.0,9.0,,,,,,,,,,,,,rot,yellow,g,0.0,g,1.0,1.0275824170021224,,,,,,,,,,9.0,1.0,109.0,3.0,437.63937841699953,,,,,,,,,,,,,,,,,437.6348070000022,437.9766458340018,438.7708743340045,438.7607072500032,,,,,,,,,,,,,,,,,,,,,,,,,,,,,,,,,,,438.7642950419977,438.7708743340045,438.7708743340045,439.806295209004,g,1.0,1.0275824170021224,,,,,,sub-196,1,stroop_test,,
,,,,110.0,2.0,9.0,,,,,,,,,,,,,blau,yellow,g,0.0,g,1.0,0.9062688749982044,,,,,,,,,,9.0,2.0,110.0,7.0,439.8166343749981,,,,,,,,,,,,,,,,,439.8069110420038,441.00448020899785,441.7998332499992,441.788568750002,,,,,,,,,,,,,,,,,,,,,,,,,,,,,,,,,,,441.7932351670024,441.7998332499992,441.7998332499992,442.71126429200376,g,1.0,0.9062688749982044,,,,,,sub-196,1,stroop_test,,
,,,,111.0,3.0,9.0,,,,,,,,,,,,,rot,blue,b,0.0,b,1.0,0.9299367920029908,,,,,,,,,,9.0,3.0,111.0,2.0,442.71975345900137,,,,,,,,,,,,,,,,,442.711743042004,443.0600114170011,443.8657679590033,443.8550315840039,,,,,,,,,,,,,,,,,,,,,,,,,,,,,,,,,,,443.8588934590007,443.8657679590033,443.8657679590033,444.8065523749974,b,1.0,0.9299367920029908,,,,,,sub-196,1,stroop_test,,
,,,,112.0,4.0,9.0,,,,,,,,,,,,,rot,red,r,1.0,r,1.0,1.0605989159957971,,,,,,,,,,9.0,4.0,112.0,0.0,444.8157893340031,,,,,,,,,,,,,,,,,444.8071897089976,445.6043040000004,446.3948474999997,446.3882622500023,,,,,,,,,,,,,,,,,,,,,,,,,,,,,,,,,,,446.3888945840008,446.3948474999997,446.3948474999997,447.4677359589987,r,1.0,1.0605989159957971,,,,,,sub-196,1,stroop_test,,
,,,,113.0,5.0,9.0,,,,,,,,,,,,,blau,blue,b,1.0,b,1.0,0.7582094580066041,,,,,,,,,,9.0,5.0,113.0,6.0,447.4731334590033,,,,,,,,,,,,,,,,,447.4681842920036,447.8092885840015,448.6061987089997,448.5934489170031,,,,,,,,,,,,,,,,,,,,,,,,,,,,,,,,,,,448.598827709,448.6061987089997,448.6061987089997,449.37290529200254,b,1.0,0.7582094580066041,,,,,,sub-196,1,stroop_test,,
,,,,114.0,6.0,9.0,,,,,,,,,,,,,gelb,yellow,g,1.0,g,1.0,0.8392839579973952,,,,,,,,,,9.0,6.0,114.0,10.0,449.3823865419981,,,,,,,,,,,,,,,,,449.3734910839994,450.1710193750041,450.9663203340024,450.9551472919993,,,,,,,,,,,,,,,,,,,,,,,,,,,,,,,,,,,450.9596186249983,450.9663203340024,450.9663203340024,451.8165505420038,g,1.0,0.8392839579973952,,,,,,sub-196,1,stroop_test,,
,,,,115.0,7.0,9.0,,,,,,,,,,,,,blau,blue,b,1.0,b,1.0,0.6891862499978743,,,,,,,,,,9.0,7.0,115.0,5.0,451.8375403750033,,,,,,,,,,,,,,,,,451.817085333998,452.1600287500041,452.9539310420005,452.943850417003,,,,,,,,,,,,,,,,,,,,,,,,,,,,,,,,,,,452.9475378339994,452.9539310420005,452.9539310420005,453.6451649590017,b,1.0,0.6891862499978743,,,,,,sub-196,1,stroop_test,,
,,,,116.0,8.0,9.0,,,,,,,,,,,,,gelb,red,r,0.0,r,1.0,1.1721474580044742,,,,,,,,,,9.0,8.0,116.0,8.0,453.6709249999985,,,,,,,,,,,,,,,,,453.6458145420038,454.4431595420028,455.2372533750022,455.2268953340026,,,,,,,,,,,,,,,,,,,,,,,,,,,,,,,,,,,455.2306458340026,455.2372533750022,455.2372533750022,456.4116576250017,r,1.0,1.1721474580044742,,,,,,sub-196,1,stroop_test,,
,,,,117.0,9.0,9.0,,,,,,,,,,,,,gelb,blue,b,0.0,b,1.0,1.000977417003014,,,,,,,,,,9.0,9.0,117.0,9.0,456.43756520900206,,,,,,,,,,,,,,,,,456.4123075419993,457.20990200000233,458.004205792,457.9932174170026,,,,,,,,,,,,,,,,,,,,,,,,,,,,,,,,,,,457.9937752089973,458.004205792,458.004205792,459.0153030420042,b,1.0,1.000977417003014,,,,,,sub-196,1,stroop_test,,
,,,,118.0,10.0,9.0,,,,,,,,,,,,,rot,red,r,1.0,r,1.0,1.0617874169984134,,,,,,,,,,9.0,10.0,118.0,1.0,459.0198919590039,,,,,,,,,,,,,,,,,459.0157691670029,459.8099075420032,460.6035174589997,460.5931376669978,,,,,,,,,,,,,,,,,,,,,,,,,,,,,,,,,,,460.596874709001,460.6035174589997,460.6035174589997,461.67297162499744,r,1.0,1.0617874169984134,,,,,,sub-196,1,stroop_test,,
,,,,119.0,11.0,9.0,,,,,,,,,,,,,blau,red,r,0.0,r,1.0,0.548433666001074,,,,,,,,,,9.0,11.0,119.0,4.0,461.6824614590005,,,,,,,,,,,,,,,,,461.6735905419992,462.0207230419983,462.816888334004,462.8053622919979,,,,,,,,,,,,,,,,,,,,,,,,,,,,,,,,,,,462.8101260420008,462.816888334004,462.816888334004,463.3729707500024,r,1.0,0.548433666001074,,,,,,sub-196,1,stroop_test,,
,,,,,,,,,,,,,,,,,,,,,,,,,,,,,,,,,,,,,,,,,,,,,,,,,,,,,,,,,,,,,,,,,,,,,,,,,,,,,,,,,,,,,,,,,,,,,,,,,,,,,,463.373296167003,463.3862745000006,468.37620695900114,468.3721133750005,sub-196,1,stroop_test,,
