wordCTK,colorCTK,corrAnsCTK,congruentCTK,thisN,thisTrialN,thisRepN,keyResp_CTK.keys,keyResp_CTK.corr,keyResp_CTK.rt,keyResp_CTK.duration,wordPractice,colorPractice,corrAnsPractice,congruentPractice,respPractice.keys,respPractice.corr,respPractice.rt,respPractice.duration,word,color,corrAns,congruent,keyResp_test_run.keys,keyResp_test_run.corr,keyResp_test_run.rt,keyResp_test_run.duration,trials_CTK.thisRepN,trials_CTK.thisTrialN,trials_CTK.thisN,trials_CTK.thisIndex,trials_practice.thisRepN,trials_practice.thisTrialN,trials_practice.thisN,trials_practice.thisIndex,trials_test.thisRepN,trials_test.thisTrialN,trials_test.thisN,trials_test.thisIndex,thisRow.t,notes,instruction.started,instr_text.started,instr_image.started,instr_resp.started,instruction.stopped,instr_resp.keys,instr_resp.rt,instr_resp.duration,instr_color_to_key.started,instr_ctk.started,resp_ctk.started,instr_color_to_key.stopped,resp_ctk.keys,resp_ctk.rt,resp_ctk.duration,ITI.started,fixcross.started,fixcross.stopped,ITI.stopped,color_to_key_run.started,stimulus_CTK.started,keyResp_CTK.started,color_to_key_run.stopped,trials_CTK.keyResp_CTK.keys,trials_CTK.keyResp_CTK.corr,trials_CTK.keyResp_CTK.rt,trials_CTK.keyResp_CTK.duration,instr_practice.started,instr_practice_text.started,instr_practice_resp.started,instr_practice.stopped,instr_practice_resp.keys,instr_practice_resp.rt,instr_practice_resp.duration,practice_run.started,stimulus_practice.started,respPractice.started,practice_run.stopped,trials_practice.respPractice.keys,trials_practice.respPractice.corr,trials_practice.respPractice.rt,trials_practice.respPractice.duration,feedback.started,textFeedback.started,feedback.stopped,textFeedback.stopped,instr_test.started,instr_test_text.started,instr_test_resp.started,instr_test.stopped,instr_test_resp.keys,instr_test_resp.rt,instr_test_resp.duration,test_run.started,stimulus_test_run.started,keyResp_test_run.started,test_run.stopped,trials_test.keyResp_test_run.keys,trials_test.keyResp_test_run.corr,trials_test.keyResp_test_run.rt,trials_test.keyResp_test_run.duration,goodbye.started,textGoodbye.started,textGoodbye.stopped,goodbye.stopped,participant,session,expName,frameRate,Unnamed: 113
,,,,,,,,,,,,,,,,,,,,,,,,,,,,,,,,,,,,,,,,,0.0067455829999971,0.0374529999999992,0.0374529999999992,0.0374529999999992,1.5486105829999983,space,1.4810929159999944,,,,,,,,,,,,,,,,,,,,,,,,,,,,,,,,,,,,,,,,,,,,,,,,,,,,,,,,,,,sub-111,1,stroop_test,,
,,,,,,,,,,,,,,,,,,,,,,,,,,,,,,,,,,,,,,,,,,,,,,,,,1.548678625000008,1.5627772919999927,1.5627772919999927,4.836116957999991,space,3.2639578749999885,,,,,,,,,,,,,,,,,,,,,,,,,,,,,,,,,,,,,,,,,,,,,,,,,,,,sub-111,1,stroop_test,,
test,yellow,g,1.0,0.0,0.0,0.0,g,1.0,0.971191083000008,,,,,,,,,,,,,,,,,,0.0,0.0,0.0,1.0,,,,,,,,,4.869314833000004,,,,,,,,,,,,,,,,,4.853855250000009,5.639857500000005,6.4413385000000005,6.425530374999994,6.432592707999987,6.4413385000000005,6.4413385000000005,7.419647416999993,g,1.0,0.971191083000008,,,,,,,,,,,,,,,,,,,,,,,,,,,,,,,,,,,,,,,,sub-111,1,stroop_test,,
test,red,r,1.0,1.0,1.0,0.0,r,1.0,0.4755650840000101,,,,,,,,,,,,,,,,,,0.0,1.0,1.0,0.0,,,,,,,,,7.430197625000005,,,,,,,,,,,,,,,,,7.420201875000004,7.767584666999994,8.560962708000005,8.551849083000008,8.552857166999985,8.560962708000005,8.560962708000005,9.043879457999992,r,1.0,0.4755650840000101,,,,,,,,,,,,,,,,,,,,,,,,,,,,,,,,,,,,,,,,sub-111,1,stroop_test,,
test,blue,b,1.0,2.0,2.0,0.0,b,1.0,0.3576255419999938,,,,,,,,,,,,,,,,,,0.0,2.0,2.0,2.0,,,,,,,,,9.055022124999994,,,,,,,,,,,,,,,,,9.044419500000004,9.140985166999997,9.932828124999986,9.924312166999982,9.924963916999983,9.932828124999986,9.932828124999986,10.293760542,b,1.0,0.3576255419999938,,,,,,,,,,,,,,,,,,,,,,,,,,,,,,,,,,,,,,,,sub-111,1,stroop_test,,
test,blue,b,1.0,3.0,0.0,1.0,b,1.0,0.5497115839999935,,,,,,,,,,,,,,,,,,1.0,0.0,3.0,2.0,,,,,,,,,10.303802916999985,,,,,,,,,,,,,,,,,10.294305124999994,10.641004917000004,11.451287000000008,11.435934500000002,11.436483750000008,11.451287000000008,11.451287000000008,12.003744082999988,b,1.0,0.5497115839999935,,,,,,,,,,,,,,,,,,,,,,,,,,,,,,,,,,,,,,,,sub-111,1,stroop_test,,
test,red,r,1.0,4.0,1.0,1.0,r,1.0,0.6126742920000083,,,,,,,,,,,,,,,,,,1.0,1.0,4.0,0.0,,,,,,,,,12.014295707999992,,,,,,,,,,,,,,,,,12.004278916999992,12.803919624999992,13.600709292000005,13.59175587499999,13.592353833000004,13.600709292000005,13.600709292000005,14.220768458000007,r,1.0,0.6126742920000083,,,,,,,,,,,,,,,,,,,,,,,,,,,,,,,,,,,,,,,,sub-111,1,stroop_test,,
test,yellow,g,1.0,5.0,2.0,1.0,g,1.0,0.4331582079999805,,,,,,,,,,,,,,,,,,1.0,2.0,5.0,1.0,,,,,,,,,14.233623792000005,,,,,,,,,,,,,,,,,14.221348707999994,15.43479875,16.234455792000006,16.218620249999987,16.21930175,16.234455792000006,16.234455792000006,16.670441917000005,g,1.0,0.4331582079999805,,,,,,,,,,,,,,,,,,,,,,,,,,,,,,,,,,,,,,,,sub-111,1,stroop_test,,
test,red,r,1.0,6.0,0.0,2.0,r,1.0,0.7385654999999929,,,,,,,,,,,,,,,,,,2.0,0.0,6.0,0.0,,,,,,,,,16.680997708000007,,,,,,,,,,,,,,,,,16.671025249999985,16.784572124999983,17.575987499999997,17.568063542000004,17.56866258299999,17.575987499999997,17.575987499999997,18.319266457999987,r,1.0,0.7385654999999929,,,,,,,,,,,,,,,,,,,,,,,,,,,,,,,,,,,,,,,,sub-111,1,stroop_test,,
test,yellow,g,1.0,7.0,1.0,2.0,g,1.0,0.3910705419999942,,,,,,,,,,,,,,,,,,2.0,1.0,7.0,1.0,,,,,,,,,18.32912300000001,,,,,,,,,,,,,,,,,18.319794124999987,19.117529708000006,19.909855582999995,19.901371667000006,19.90202975,19.909855582999995,19.909855582999995,20.303926292,g,1.0,0.3910705419999942,,,,,,,,,,,,,,,,,,,,,,,,,,,,,,,,,,,,,,,,sub-111,1,stroop_test,,
test,blue,b,1.0,8.0,2.0,2.0,b,1.0,0.3125963339999771,,,,,,,,,,,,,,,,,,2.0,2.0,8.0,2.0,,,,,,,,,20.314429416999985,,,,,,,,,,,,,,,,,20.304478292,21.500768499999992,22.293436292,22.284925542,22.28579708300001,22.293436292,22.293436292,22.609312542,b,1.0,0.3125963339999771,,,,,,,,,,,,,,,,,,,,,,,,,,,,,,,,,,,,,,,,sub-111,1,stroop_test,,
test,yellow,g,1.0,9.0,0.0,3.0,g,1.0,0.8514644999999916,,,,,,,,,,,,,,,,,,3.0,0.0,9.0,1.0,,,,,,,,,22.619873499999983,,,,,,,,,,,,,,,,,22.609817832999997,23.80804008300001,24.59953412499999,24.5911285,24.591703333,24.59953412499999,24.59953412499999,25.45397970799999,g,1.0,0.8514644999999916,,,,,,,,,,,,,,,,,,,,,,,,,,,,,,,,,,,,,,,,sub-111,1,stroop_test,,
test,red,r,1.0,10.0,1.0,3.0,r,1.0,0.561413540999979,,,,,,,,,,,,,,,,,,3.0,1.0,10.0,0.0,,,,,,,,,25.464426833000005,,,,,,,,,,,,,,,,,25.454505832999985,26.250773332999984,27.04238429200001,27.034501167,27.035179457999988,27.04238429200001,27.04238429200001,27.60821016699998,r,1.0,0.561413540999979,,,,,,,,,,,,,,,,,,,,,,,,,,,,,,,,,,,,,,,,sub-111,1,stroop_test,,
test,blue,b,1.0,11.0,2.0,3.0,b,1.0,0.4409057499999846,,,,,,,,,,,,,,,,,,3.0,2.0,11.0,2.0,,,,,,,,,27.617058958,,,,,,,,,,,,,,,,,27.608563250000003,28.408037250000007,29.200175124999987,29.191354458000006,29.19201883299999,29.200175124999987,29.200175124999987,29.652832875,b,1.0,0.4409057499999846,,,,,,,,,,,,,,,,,,,,,,,,,,,,,,,,,,,,,,,,sub-111,1,stroop_test,,
,,,,,,,,,,,,,,,,,,,,,,,,,,,,,,,,,,,,,,,,,,,,,,,,,,,,,,,,,,,,,,,,,,,,29.653097541999983,29.664670124999983,29.664670124999983,30.318087582999997,space,0.6484122920000175,,,,,,,,,,,,,,,,,,,,,,,,,,,,,,,,,sub-111,1,stroop_test,,
,,,,0.0,0.0,0.0,,,,,blau,yellow,g,0.0,b,0.0,1.2219906249999894,,,,,,,,,,,,,,0.0,0.0,0.0,7.0,,,,,30.337447,,,,,,,,,,,,,,,,,30.330141374999982,30.657253583,31.456875792000005,31.441288249999985,,,,,,,,,,,,,,,,31.448609707999992,31.456875792000005,31.456875792000005,32.686226417,b,0.0,1.2219906249999894,,32.693763875,32.70528912500001,33.690901792000005,,,,,,,,,,,,,,,,,,,,,sub-111,1,stroop_test,,
,,,,1.0,1.0,0.0,,,,,gelb,red,r,0.0,g,0.0,0.838145499999996,,,,,,,,,,,,,,0.0,1.0,1.0,8.0,,,,,33.700654292,,,,,,,,,,,,,,,,,33.691318542000005,34.48416574999999,35.281947041999985,35.268337833000004,,,,,,,,,,,,,,,,35.27411466699999,35.281947041999985,35.281947041999985,36.12659408299999,g,0.0,0.838145499999996,,36.12739754199998,36.138812333,37.12462920799999,37.133291542,,,,,,,,,,,,,,,,,,,,sub-111,1,stroop_test,,
,,,,2.0,2.0,0.0,,,,,rot,red,r,1.0,r,1.0,0.9619591249999928,,,,,,,,,,,,,,0.0,2.0,2.0,0.0,,,,,37.133291542,,,,,,,,,,,,,,,,,37.12509883300001,37.224263500000006,38.02259699999999,38.00705045800001,,,,,,,,,,,,,,,,38.01274624999999,38.02259699999999,38.02259699999999,38.997234542,r,1.0,0.9619591249999928,,39.00252516699999,39.009618416999984,40.000642667,,,,,,,,,,,,,,,,,,,,,sub-111,1,stroop_test,,
,,,,3.0,3.0,0.0,,,,,gelb,yellow,g,1.0,g,1.0,0.5755501670000172,,,,,,,,,,,,,,0.0,3.0,3.0,11.0,,,,,40.00683824999999,,,,,,,,,,,,,,,,,40.001077125,40.09035904199999,40.88559454200001,40.87411524999999,,,,,,,,,,,,,,,,40.877597417,40.88559454200001,40.88559454200001,41.46910987499999,g,1.0,0.5755501670000172,,41.46996654200001,41.481567042,42.467970125,42.47425554200001,,,,,,,,,,,,,,,,,,,,sub-111,1,stroop_test,,
,,,,4.0,4.0,0.0,,,,,blau,blue,b,1.0,b,1.0,0.6106476670000234,,,,,,,,,,,,,,0.0,4.0,4.0,5.0,,,,,42.47425554200001,,,,,,,,,,,,,,,,,42.468471292,42.81719795800001,43.613848958000005,43.60147437500001,,,,,,,,,,,,,,,,43.606253625,43.613848958000005,43.613848958000005,44.23627258299999,b,1.0,0.6106476670000234,,44.237099917,44.249135083,45.23459483299999,45.241068208,,,,,,,,,,,,,,,,,,,,sub-111,1,stroop_test,,
,,,,5.0,5.0,0.0,,,,,rot,yellow,g,0.0,g,1.0,1.3849512920000109,,,,,,,,,,,,,,0.0,5.0,5.0,3.0,,,,,45.241068208,,,,,,,,,,,,,,,,,45.235084917,46.03388525,46.832669667000005,46.817799167,,,,,,,,,,,,,,,,46.821612875,46.832669667000005,46.832669667000005,48.22062533299999,g,1.0,1.3849512920000109,,48.22140166700001,48.23264420799998,49.218056042,49.224855125000005,,,,,,,,,,,,,,,,,,,,sub-111,1,stroop_test,,
,,,,6.0,6.0,0.0,,,,,gelb,blue,b,0.0,r,0.0,0.7368846249999876,,,,,,,,,,,,,,0.0,6.0,6.0,9.0,,,,,49.224855125000005,,,,,,,,,,,,,,,,,49.218739624999984,50.01720666699998,50.813750167,50.801417042,,,,,,,,,,,,,,,,50.80607325,50.813750167,50.813750167,51.55358666699999,r,0.0,0.7368846249999876,,51.557918833,51.569627792000006,52.557477000000006,,,,,,,,,,,,,,,,,,,,,sub-111,1,stroop_test,,
,,,,7.0,7.0,0.0,,,,,blau,red,r,0.0,b,0.0,0.7047335420000138,,,,,,,,,,,,,,0.0,7.0,7.0,4.0,,,,,52.56721274999998,,,,,,,,,,,,,,,,,52.557817833,53.35056349999999,54.14656433299999,54.134823708,,,,,,,,,,,,,,,,54.139045332999984,54.14656433299999,54.14656433299999,54.85495441699999,b,0.0,0.7047335420000138,,54.85575212500001,54.867800292,55.85152879199998,55.85832654199999,,,,,,,,,,,,,,,,,,,,sub-111,1,stroop_test,,
,,,,8.0,8.0,0.0,,,,,gelb,yellow,g,1.0,g,1.0,0.7503170409999882,,,,,,,,,,,,,,0.0,8.0,8.0,10.0,,,,,55.85832654199999,,,,,,,,,,,,,,,,,55.85219237499999,57.05064662499999,57.84626591699998,57.83453012499999,,,,,,,,,,,,,,,,57.83861108299999,57.84626591699998,57.84626591699998,58.602501666999984,g,1.0,0.7503170409999882,,58.606634542,58.618116375,59.60117979199998,59.607345208,,,,,,,,,,,,,,,,,,,,sub-111,1,stroop_test,,
,,,,9.0,9.0,0.0,,,,,rot,blue,b,0.0,b,1.0,1.90835895799998,,,,,,,,,,,,,,0.0,9.0,9.0,2.0,,,,,59.607345208,,,,,,,,,,,,,,,,,59.601658042,59.950711708,60.752130333,60.73500737500001,,,,,,,,,,,,,,,,60.74052437500001,60.752130333,60.752130333,62.66934325,b,1.0,1.90835895799998,,62.67014708299999,62.681424792,63.66810641699999,63.675117583,,,,,,,,,,,,,,,,,,,,sub-111,1,stroop_test,,
,,,,10.0,10.0,0.0,,,,,blau,blue,b,1.0,b,1.0,0.4951676249999934,,,,,,,,,,,,,,0.0,10.0,10.0,6.0,,,,,63.675117583,,,,,,,,,,,,,,,,,63.66878075,64.46710308299998,65.26189762499999,65.251256208,,,,,,,,,,,,,,,,65.25423891700001,65.26189762499999,65.26189762499999,65.760117958,b,1.0,0.4951676249999934,,65.760887083,65.772538542,66.75716291699999,66.767167667,,,,,,,,,,,,,,,,,,,,sub-111,1,stroop_test,,
,,,,11.0,11.0,0.0,,,,,rot,red,r,1.0,r,1.0,0.8295722910000052,,,,,,,,,,,,,,0.0,11.0,11.0,1.0,,,,,66.767167667,,,,,,,,,,,,,,,,,66.75753266699999,66.857710542,67.654831083,67.641275208,,,,,,,,,,,,,,,,67.6450485,67.654831083,67.654831083,68.48764933300001,r,1.0,0.8295722910000052,,68.48851558300001,68.500501375,69.484583625,69.49137999999999,,,,,,,,,,,,,,,,,,,,sub-111,1,stroop_test,,
,,,,12.0,0.0,1.0,,,,,rot,red,r,1.0,r,1.0,0.9637634169999956,,,,,,,,,,,,,,1.0,0.0,12.0,1.0,,,,,69.49137999999999,,,,,,,,,,,,,,,,,69.485263083,70.68388504199999,71.4761805,71.46781716699999,,,,,,,,,,,,,,,,71.46852304199999,71.4761805,71.4761805,72.44312820799999,r,1.0,0.9637634169999956,,72.4438915,72.45540491700001,73.44045750000001,73.450463875,,,,,,,,,,,,,,,,,,,,sub-111,1,stroop_test,,
,,,,13.0,1.0,1.0,,,,,blau,yellow,g,0.0,b,0.0,0.6219134579999945,,,,,,,,,,,,,,1.0,1.0,13.0,7.0,,,,,73.450463875,,,,,,,,,,,,,,,,,73.44105375000001,73.79013858299999,74.58584679199998,74.57436625,,,,,,,,,,,,,,,,74.57774187499999,74.58584679199998,74.58584679199998,75.21056204199999,b,0.0,0.6219134579999945,,75.21489970799999,75.22698583299999,76.217293625,,,,,,,,,,,,,,,,,,,,,sub-111,1,stroop_test,,
,,,,14.0,2.0,1.0,,,,,rot,red,r,1.0,r,1.0,0.7312792080000179,,,,,,,,,,,,,,1.0,2.0,14.0,0.0,,,,,76.22409475,,,,,,,,,,,,,,,,,76.217869458,76.557507458,77.354377583,77.341003333,,,,,,,,,,,,,,,,77.34477933299999,77.354377583,77.354377583,78.092515125,r,1.0,0.7312792080000179,,78.09674454199998,78.108535792,79.100667125,,,,,,,,,,,,,,,,,,,,,sub-111,1,stroop_test,,
,,,,15.0,3.0,1.0,,,,,gelb,yellow,g,1.0,g,1.0,0.7050340000000119,,,,,,,,,,,,,,1.0,3.0,15.0,11.0,,,,,79.10767150000001,,,,,,,,,,,,,,,,,79.1012365,79.440784958,80.23642345799999,80.224036125,,,,,,,,,,,,,,,,80.22880541699999,80.23642345799999,80.23642345799999,80.94438633299998,g,1.0,0.7050340000000119,,80.945181792,80.95689233299998,81.941077167,81.950395292,,,,,,,,,,,,,,,,,,,,sub-111,1,stroop_test,,
,,,,16.0,4.0,1.0,,,,,gelb,blue,b,0.0,b,1.0,1.3058758340000054,,,,,,,,,,,,,,1.0,4.0,16.0,9.0,,,,,81.950395292,,,,,,,,,,,,,,,,,81.94146708299999,82.739927292,83.532531,83.52411362499998,,,,,,,,,,,,,,,,83.52478625,83.532531,83.532531,84.84245770799998,b,1.0,1.3058758340000054,,84.84326283299998,84.8550625,85.84007424999999,85.85050129199999,,,,,,,,,,,,,,,,,,,,sub-111,1,stroop_test,,
,,,,17.0,5.0,1.0,,,,,rot,blue,b,0.0,b,1.0,1.0123760829999924,,,,,,,,,,,,,,1.0,5.0,17.0,2.0,,,,,85.85050129199999,,,,,,,,,,,,,,,,,85.84045154199998,85.940784458,86.738429042,86.72472662499999,,,,,,,,,,,,,,,,86.728569875,86.738429042,86.738429042,87.753901875,b,1.0,1.0123760829999924,,87.754713708,87.76656458299999,88.75126474999999,88.75770004199998,,,,,,,,,,,,,,,,,,,,sub-111,1,stroop_test,,
,,,,18.0,6.0,1.0,,,,,blau,blue,b,1.0,b,1.0,0.5346884999999872,,,,,,,,,,,,,,1.0,6.0,18.0,5.0,,,,,88.75770004199998,,,,,,,,,,,,,,,,,88.75185274999998,89.550320833,90.345542042,90.334160042,,,,,,,,,,,,,,,,90.338216042,90.345542042,90.345542042,90.886086667,b,1.0,0.5346884999999872,,90.886883667,90.898176417,91.88467216700002,91.891553833,,,,,,,,,,,,,,,,,,,,sub-111,1,stroop_test,,
,,,,19.0,7.0,1.0,,,,,blau,blue,b,1.0,b,1.0,0.5243741250000085,,,,,,,,,,,,,,1.0,7.0,19.0,6.0,,,,,91.891553833,,,,,,,,,,,,,,,,,91.885368917,93.08351699999996,93.87652150000002,93.86789349999998,,,,,,,,,,,,,,,,93.8688485,93.87652150000002,93.87652150000002,94.404536833,b,1.0,0.5243741250000085,,94.40537608300002,94.41713533299998,95.40093524999996,95.40725387499998,,,,,,,,,,,,,,,,,,,,sub-111,1,stroop_test,,
,,,,20.0,8.0,1.0,,,,,gelb,yellow,g,1.0,g,1.0,1.1375743749999856,,,,,,,,,,,,,,1.0,8.0,20.0,10.0,,,,,95.40725387499998,,,,,,,,,,,,,,,,,95.40140250000002,96.200330625,96.99612858299996,96.98447933299995,,,,,,,,,,,,,,,,96.98873112500002,96.99612858299996,96.99612858299996,98.13658616700002,g,1.0,1.1375743749999856,,98.137351417,98.149144417,99.13415470799998,99.140318208,,,,,,,,,,,,,,,,,,,,sub-111,1,stroop_test,,
,,,,21.0,9.0,1.0,,,,,rot,yellow,g,0.0,g,1.0,0.7079407089999563,,,,,,,,,,,,,,1.0,9.0,21.0,3.0,,,,,99.140318208,,,,,,,,,,,,,,,,,99.13462820799998,99.23364099999998,100.033054375,100.017847583,,,,,,,,,,,,,,,,100.021990167,100.033054375,100.033054375,100.753441625,g,1.0,0.7079407089999563,,100.754347167,100.76628783299998,101.750815833,101.757454042,,,,,,,,,,,,,,,,,,,,sub-111,1,stroop_test,,
,,,,22.0,10.0,1.0,,,,,gelb,red,r,0.0,r,1.0,0.5778472920000013,,,,,,,,,,,,,,1.0,10.0,22.0,8.0,,,,,101.757454042,,,,,,,,,,,,,,,,,101.751241208,102.55037079200002,103.34534104199996,103.33407566699998,,,,,,,,,,,,,,,,103.33785675,103.34534104199996,103.34534104199996,103.926615583,r,1.0,0.5778472920000013,,103.92740824999998,103.938782667,104.92432487499995,104.933534833,,,,,,,,,,,,,,,,,,,,sub-111,1,stroop_test,,
,,,,23.0,11.0,1.0,,,,,blau,red,r,0.0,r,1.0,0.5534027080000214,,,,,,,,,,,,,,1.0,11.0,23.0,4.0,,,,,104.933534833,,,,,,,,,,,,,,,,,104.924807333,105.724170958,106.51949991700002,106.507526333,,,,,,,,,,,,,,,,106.512190042,106.51949991700002,106.51949991700002,107.07551916699998,r,1.0,0.5534027080000214,,107.07634729199998,107.087225542,108.073391667,108.082493958,,,,,,,,,,,,,,,,,,,,sub-111,1,stroop_test,,
,,,,,,,,,,,,,,,,,,,,,,,,,,,,,,,,,,,,,,,,,,,,,,,,,,,,,,,,,,,,,,,,,,,,,,,,,,,,,,,,,,,,,,,108.07359087499998,108.082493958,108.082493958,109.317813458,space,1.2258674580000388,,,,,,,,,,,,,,sub-111,1,stroop_test,,
,,,,0.0,0.0,0.0,,,,,,,,,,,,,blau,blue,b,1.0,b,1.0,0.3261218749999557,,,,,,,,,,0.0,0.0,0.0,5.0,109.334544,,,,,,,,,,,,,,,,,109.32636075,110.10733062499996,110.912915958,110.90101016699998,,,,,,,,,,,,,,,,,,,,,,,,,,,,,,,,,,,110.90547625,110.912915958,110.912915958,111.242038417,b,1.0,0.3261218749999557,,,,,,sub-111,1,stroop_test,,
,,,,1.0,1.0,0.0,,,,,,,,,,,,,blau,yellow,g,0.0,b,0.0,0.5727242920000322,,,,,,,,,,0.0,1.0,1.0,7.0,111.25278383300002,,,,,,,,,,,,,,,,,111.242584292,112.03998679199998,112.832453042,112.824208042,,,,,,,,,,,,,,,,,,,,,,,,,,,,,,,,,,,112.824830083,112.832453042,112.832453042,113.40912741699998,b,0.0,0.5727242920000322,,,,,,sub-111,1,stroop_test,,
,,,,2.0,2.0,0.0,,,,,,,,,,,,,gelb,blue,b,0.0,g,0.0,0.7873987499999657,,,,,,,,,,0.0,2.0,2.0,9.0,113.41951291700002,,,,,,,,,,,,,,,,,113.409729625,113.75735300000002,114.551635292,114.540411792,,,,,,,,,,,,,,,,,,,,,,,,,,,,,,,,,,,114.543692917,114.551635292,114.551635292,115.34235041699998,g,0.0,0.7873987499999657,,,,,,sub-111,1,stroop_test,,
,,,,3.0,3.0,0.0,,,,,,,,,,,,,blau,red,r,0.0,b,0.0,0.6146793749999802,,,,,,,,,,0.0,3.0,3.0,4.0,115.35284591699995,,,,,,,,,,,,,,,,,115.34292425,116.14060037500002,116.9359055,116.92408408299995,,,,,,,,,,,,,,,,,,,,,,,,,,,,,,,,,,,116.92784379199998,116.9359055,116.9359055,117.554362625,b,0.0,0.6146793749999802,,,,,,sub-111,1,stroop_test,,
,,,,4.0,4.0,0.0,,,,,,,,,,,,,gelb,yellow,g,1.0,g,1.0,0.71083950000002,,,,,,,,,,0.0,4.0,4.0,11.0,117.56493625000002,,,,,,,,,,,,,,,,,117.55504154199996,118.35017595800002,119.14562675000002,119.13405341700002,,,,,,,,,,,,,,,,,,,,,,,,,,,,,,,,,,,119.13806795800002,119.14562675000002,119.14562675000002,119.85906395799998,g,1.0,0.71083950000002,,,,,,sub-111,1,stroop_test,,
,,,,5.0,5.0,0.0,,,,,,,,,,,,,rot,red,r,1.0,r,1.0,0.5070668329999535,,,,,,,,,,0.0,5.0,5.0,0.0,119.87068545799995,,,,,,,,,,,,,,,,,119.85963525,119.956475625,120.754035,120.74086291700002,,,,,,,,,,,,,,,,,,,,,,,,,,,,,,,,,,,120.744581375,120.754035,120.754035,121.270006417,r,1.0,0.5070668329999535,,,,,,sub-111,1,stroop_test,,
,,,,6.0,6.0,0.0,,,,,,,,,,,,,rot,red,r,1.0,r,1.0,0.7022298750000004,,,,,,,,,,0.0,6.0,6.0,1.0,121.28080341700002,,,,,,,,,,,,,,,,,121.27066391699998,122.466716958,123.260111833,123.25112470800002,,,,,,,,,,,,,,,,,,,,,,,,,,,,,,,,,,,123.252117042,123.260111833,123.260111833,123.9687695,r,1.0,0.7022298750000004,,,,,,sub-111,1,stroop_test,,
,,,,7.0,7.0,0.0,,,,,,,,,,,,,gelb,red,r,0.0,r,1.0,1.0768681669999864,,,,,,,,,,0.0,7.0,7.0,8.0,123.97894491699998,,,,,,,,,,,,,,,,,123.96931999999998,124.316701917,125.113041125,125.10095712499998,,,,,,,,,,,,,,,,,,,,,,,,,,,,,,,,,,,125.105534542,125.113041125,125.113041125,126.193252625,r,1.0,1.0768681669999864,,,,,,sub-111,1,stroop_test,,
,,,,8.0,8.0,0.0,,,,,,,,,,,,,blau,blue,b,1.0,b,1.0,0.5136277919999657,,,,,,,,,,0.0,8.0,8.0,6.0,126.20411841700002,,,,,,,,,,,,,,,,,126.19382791700002,127.38999491700002,128.186312375,128.174515333,,,,,,,,,,,,,,,,,,,,,,,,,,,,,,,,,,,128.17842520800002,128.186312375,128.186312375,128.702736458,b,1.0,0.5136277919999657,,,,,,sub-111,1,stroop_test,,
,,,,9.0,9.0,0.0,,,,,,,,,,,,,rot,yellow,g,0.0,r,0.0,0.9737257499999714,,,,,,,,,,0.0,9.0,9.0,3.0,128.716922458,,,,,,,,,,,,,,,,,128.70334049999997,128.80017316699997,129.59921300000002,129.584373792,,,,,,,,,,,,,,,,,,,,,,,,,,,,,,,,,,,129.589045875,129.59921300000002,129.59921300000002,130.576054042,r,0.0,0.9737257499999714,,,,,,sub-111,1,stroop_test,,
,,,,10.0,10.0,0.0,,,,,,,,,,,,,rot,blue,b,0.0,b,1.0,0.5050809580000077,,,,,,,,,,0.0,10.0,10.0,2.0,130.58604070799998,,,,,,,,,,,,,,,,,130.576613,131.374013875,132.16562112499997,132.157522792,,,,,,,,,,,,,,,,,,,,,,,,,,,,,,,,,,,132.157982833,132.16562112499997,132.16562112499997,132.67592841700002,b,1.0,0.5050809580000077,,,,,,sub-111,1,stroop_test,,
,,,,11.0,11.0,0.0,,,,,,,,,,,,,gelb,yellow,g,1.0,g,1.0,1.1106367499999692,,,,,,,,,,0.0,11.0,11.0,10.0,132.68624141700002,,,,,,,,,,,,,,,,,132.6765185,133.023130417,133.81854279200002,133.80726800000002,,,,,,,,,,,,,,,,,,,,,,,,,,,,,,,,,,,133.810585833,133.81854279200002,133.81854279200002,134.93603374999998,g,1.0,1.1106367499999692,,,,,,sub-111,1,stroop_test,,
,,,,12.0,0.0,1.0,,,,,,,,,,,,,rot,red,r,1.0,r,1.0,0.9225406660000316,,,,,,,,,,1.0,0.0,12.0,0.0,134.94636991699997,,,,,,,,,,,,,,,,,134.936595,135.033456167,135.832779458,135.817671792,,,,,,,,,,,,,,,,,,,,,,,,,,,,,,,,,,,135.82180308300002,135.832779458,135.832779458,136.75904870800002,r,1.0,0.9225406660000316,,,,,,sub-111,1,stroop_test,,
,,,,13.0,1.0,1.0,,,,,,,,,,,,,blau,yellow,g,0.0,g,1.0,0.9552769590000024,,,,,,,,,,1.0,1.0,13.0,7.0,136.769280375,,,,,,,,,,,,,,,,,136.75964529200002,137.557152792,138.352393,138.34075154200002,,,,,,,,,,,,,,,,,,,,,,,,,,,,,,,,,,,138.34449004200002,138.352393,138.352393,139.320358458,g,1.0,0.9552769590000024,,,,,,sub-111,1,stroop_test,,
,,,,14.0,2.0,1.0,,,,,,,,,,,,,gelb,blue,b,0.0,b,1.0,0.7057760829999893,,,,,,,,,,1.0,2.0,14.0,9.0,139.333123167,,,,,,,,,,,,,,,,,139.320761958,139.66693604199995,140.46404579199998,140.451112417,,,,,,,,,,,,,,,,,,,,,,,,,,,,,,,,,,,140.45663120799998,140.46404579199998,140.46404579199998,141.173582083,b,1.0,0.7057760829999893,,,,,,sub-111,1,stroop_test,,
,,,,15.0,3.0,1.0,,,,,,,,,,,,,blau,red,r,0.0,b,0.0,1.3868099160000045,,,,,,,,,,1.0,3.0,15.0,4.0,141.1995915,,,,,,,,,,,,,,,,,141.174151833,141.51678637499998,142.31279462499998,142.30099775000002,,,,,,,,,,,,,,,,,,,,,,,,,,,,,,,,,,,142.305218417,142.31279462499998,142.31279462499998,143.70251558299998,b,0.0,1.3868099160000045,,,,,,sub-111,1,stroop_test,,
,,,,16.0,4.0,1.0,,,,,,,,,,,,,rot,yellow,g,0.0,r,0.0,0.7618353749999756,,,,,,,,,,1.0,4.0,16.0,3.0,143.71298608299998,,,,,,,,,,,,,,,,,143.703092583,144.90004412500002,145.70006958300002,145.68433887499998,,,,,,,,,,,,,,,,,,,,,,,,,,,,,,,,,,,145.688732458,145.70006958300002,145.70006958300002,146.46875875,r,0.0,0.7618353749999756,,,,,,sub-111,1,stroop_test,,
,,,,17.0,5.0,1.0,,,,,,,,,,,,,gelb,red,r,0.0,r,1.0,0.8931205000000091,,,,,,,,,,1.0,5.0,17.0,8.0,146.479456083,,,,,,,,,,,,,,,,,146.46932516700002,147.26685924999998,148.06342208299998,148.05103537499997,,,,,,,,,,,,,,,,,,,,,,,,,,,,,,,,,,,148.05585066700002,148.06342208299998,148.06342208299998,148.95915391699998,r,1.0,0.8931205000000091,,,,,,sub-111,1,stroop_test,,
,,,,18.0,6.0,1.0,,,,,,,,,,,,,rot,blue,b,0.0,b,1.0,0.6396482089999722,,,,,,,,,,1.0,6.0,18.0,2.0,148.9692635,,,,,,,,,,,,,,,,,148.959714417,150.157352042,150.965106167,150.950740333,,,,,,,,,,,,,,,,,,,,,,,,,,,,,,,,,,,150.955046417,150.965106167,150.965106167,151.60808691699998,b,1.0,0.6396482089999722,,,,,,sub-111,1,stroop_test,,
,,,,19.0,7.0,1.0,,,,,,,,,,,,,gelb,yellow,g,1.0,g,1.0,0.8311759589999497,,,,,,,,,,1.0,7.0,19.0,10.0,151.61891770799997,,,,,,,,,,,,,,,,,151.60865270800002,151.95642841699998,152.752553042,152.74067454200002,,,,,,,,,,,,,,,,,,,,,,,,,,,,,,,,,,,152.744455958,152.752553042,152.752553042,153.587284458,g,1.0,0.8311759589999497,,,,,,sub-111,1,stroop_test,,
,,,,20.0,8.0,1.0,,,,,,,,,,,,,gelb,yellow,g,1.0,g,1.0,0.5432058750000124,,,,,,,,,,1.0,8.0,20.0,11.0,153.597764583,,,,,,,,,,,,,,,,,153.587906083,153.683375167,154.476168208,154.46739104199995,,,,,,,,,,,,,,,,,,,,,,,,,,,,,,,,,,,154.468285542,154.476168208,154.476168208,155.02489033299997,g,1.0,0.5432058750000124,,,,,,sub-111,1,stroop_test,,
,,,,21.0,9.0,1.0,,,,,,,,,,,,,blau,blue,b,1.0,b,1.0,0.5258112500000038,,,,,,,,,,1.0,9.0,21.0,5.0,155.035796125,,,,,,,,,,,,,,,,,155.02545750000002,155.822829458,156.6189475,156.60718958299998,,,,,,,,,,,,,,,,,,,,,,,,,,,,,,,,,,,156.61063408299998,156.6189475,156.6189475,157.15210587500002,b,1.0,0.5258112500000038,,,,,,sub-111,1,stroop_test,,
,,,,22.0,10.0,1.0,,,,,,,,,,,,,blau,blue,b,1.0,b,1.0,0.5210983339999871,,,,,,,,,,1.0,10.0,22.0,6.0,157.16245016699995,,,,,,,,,,,,,,,,,157.152691458,157.950137417,158.74156983299997,158.73388024999997,,,,,,,,,,,,,,,,,,,,,,,,,,,,,,,,,,,158.734578,158.74156983299997,158.74156983299997,159.268535917,b,1.0,0.5210983339999871,,,,,,sub-111,1,stroop_test,,
,,,,23.0,11.0,1.0,,,,,,,,,,,,,rot,red,r,1.0,r,1.0,0.6277913330000047,,,,,,,,,,1.0,11.0,23.0,1.0,159.278900625,,,,,,,,,,,,,,,,,159.26910554199998,160.466613708,161.268218167,161.250734292,,,,,,,,,,,,,,,,,,,,,,,,,,,,,,,,,,,161.25737570799998,161.268218167,161.268218167,161.90222329199997,r,1.0,0.6277913330000047,,,,,,sub-111,1,stroop_test,,
,,,,24.0,0.0,2.0,,,,,,,,,,,,,blau,yellow,g,0.0,b,0.0,0.6216269580000358,,,,,,,,,,2.0,0.0,24.0,7.0,161.91286000000002,,,,,,,,,,,,,,,,,161.902854208,162.24980262499997,163.04520050000002,163.0339715,,,,,,,,,,,,,,,,,,,,,,,,,,,,,,,,,,,163.037762917,163.04520050000002,163.04520050000002,163.6700305,b,0.0,0.6216269580000358,,,,,,sub-111,1,stroop_test,,
,,,,25.0,1.0,2.0,,,,,,,,,,,,,blau,red,r,0.0,r,1.0,1.2862027500000297,,,,,,,,,,2.0,1.0,25.0,4.0,163.68055687499998,,,,,,,,,,,,,,,,,163.67060012500002,164.46664383299998,165.259040125,165.25051820800002,,,,,,,,,,,,,,,,,,,,,,,,,,,,,,,,,,,165.25119058299998,165.259040125,165.259040125,166.552175583,r,1.0,1.2862027500000297,,,,,,sub-111,1,stroop_test,,
,,,,26.0,2.0,2.0,,,,,,,,,,,,,rot,red,r,1.0,b,0.0,0.1349024579999991,,,,,,,,,,2.0,2.0,26.0,0.0,166.562610792,,,,,,,,,,,,,,,,,166.55274116700002,167.74985637499998,168.54893687499998,168.533863042,,,,,,,,,,,,,,,,,,,,,,,,,,,,,,,,,,,168.537844625,168.54893687499998,168.54893687499998,168.6871345,b,0.0,0.1349024579999991,,,,,,sub-111,1,stroop_test,,
,,,,27.0,3.0,2.0,,,,,,,,,,,,,blau,blue,b,1.0,b,1.0,0.6704587909999873,,,,,,,,,,2.0,3.0,27.0,6.0,168.69778537500002,,,,,,,,,,,,,,,,,168.687801542,169.03327724999997,169.83216058300002,169.81868758299998,,,,,,,,,,,,,,,,,,,,,,,,,,,,,,,,,,,169.82240104200002,169.83216058300002,169.83216058300002,170.5086725,b,1.0,0.6704587909999873,,,,,,sub-111,1,stroop_test,,
,,,,28.0,4.0,2.0,,,,,,,,,,,,,gelb,blue,b,0.0,b,1.0,0.5938700000000381,,,,,,,,,,2.0,4.0,28.0,9.0,170.51920825000002,,,,,,,,,,,,,,,,,170.509235542,170.8562905,171.65234525,171.64054775,,,,,,,,,,,,,,,,,,,,,,,,,,,,,,,,,,,171.644371042,171.65234525,171.65234525,172.25319083300002,b,1.0,0.5938700000000381,,,,,,sub-111,1,stroop_test,,
,,,,29.0,5.0,2.0,,,,,,,,,,,,,gelb,yellow,g,1.0,g,1.0,0.3006453340000234,,,,,,,,,,2.0,5.0,29.0,11.0,172.2635945,,,,,,,,,,,,,,,,,172.25386387499998,172.60007724999997,173.39191833299998,173.383477583,,,,,,,,,,,,,,,,,,,,,,,,,,,,,,,,,,,173.384395417,173.39191833299998,173.39191833299998,173.70052754199995,g,1.0,0.3006453340000234,,,,,,sub-111,1,stroop_test,,
,,,,30.0,6.0,2.0,,,,,,,,,,,,,rot,red,r,1.0,r,1.0,0.4132281249999892,,,,,,,,,,2.0,6.0,30.0,1.0,173.71090875,,,,,,,,,,,,,,,,,173.70108699999997,173.790225083,174.58800841699997,174.57430516699998,,,,,,,,,,,,,,,,,,,,,,,,,,,,,,,,,,,174.57810320800002,174.58800841699997,174.58800841699997,175.00912633299998,r,1.0,0.4132281249999892,,,,,,sub-111,1,stroop_test,,
,,,,31.0,7.0,2.0,,,,,,,,,,,,,blau,blue,b,1.0,b,1.0,0.37475462499998,,,,,,,,,,2.0,7.0,31.0,5.0,175.01922408299998,,,,,,,,,,,,,,,,,175.00968362499998,175.806968208,176.60289391700002,176.591024625,,,,,,,,,,,,,,,,,,,,,,,,,,,,,,,,,,,176.595584708,176.60289391700002,176.60289391700002,176.985550917,b,1.0,0.37475462499998,,,,,,sub-111,1,stroop_test,,
,,,,32.0,8.0,2.0,,,,,,,,,,,,,rot,yellow,g,0.0,r,0.0,0.6791635000000156,,,,,,,,,,2.0,8.0,32.0,3.0,176.99595449999998,,,,,,,,,,,,,,,,,176.98611475,177.333082542,178.13259295799998,178.117169167,,,,,,,,,,,,,,,,,,,,,,,,,,,,,,,,,,,178.12119674999997,178.13259295799998,178.13259295799998,178.81876566699998,r,0.0,0.6791635000000156,,,,,,sub-111,1,stroop_test,,
,,,,33.0,9.0,2.0,,,,,,,,,,,,,gelb,yellow,g,1.0,g,1.0,0.5553939579999678,,,,,,,,,,2.0,9.0,33.0,10.0,178.82889008299998,,,,,,,,,,,,,,,,,178.819362625,179.616621,180.412780875,180.40065,,,,,,,,,,,,,,,,,,,,,,,,,,,,,,,,,,,180.405325125,180.412780875,180.412780875,180.974453,g,1.0,0.5553939579999678,,,,,,sub-111,1,stroop_test,,
,,,,34.0,10.0,2.0,,,,,,,,,,,,,gelb,red,r,0.0,r,1.0,0.5177974160000076,,,,,,,,,,2.0,10.0,34.0,8.0,180.985476208,,,,,,,,,,,,,,,,,180.975016125,181.323614208,182.115758083,182.10718325,,,,,,,,,,,,,,,,,,,,,,,,,,,,,,,,,,,182.107892792,182.115758083,182.115758083,182.637095833,r,1.0,0.5177974160000076,,,,,,sub-111,1,stroop_test,,
,,,,35.0,11.0,2.0,,,,,,,,,,,,,rot,blue,b,0.0,b,1.0,0.3178641250000282,,,,,,,,,,2.0,11.0,35.0,2.0,182.647651458,,,,,,,,,,,,,,,,,182.637676083,183.833186458,184.63210325,184.6169955,,,,,,,,,,,,,,,,,,,,,,,,,,,,,,,,,,,184.620947917,184.63210325,184.63210325,184.9527165,b,1.0,0.3178641250000282,,,,,,sub-111,1,stroop_test,,
,,,,36.0,0.0,3.0,,,,,,,,,,,,,gelb,blue,b,0.0,b,1.0,0.5744286670000065,,,,,,,,,,3.0,0.0,36.0,9.0,184.962892583,,,,,,,,,,,,,,,,,184.953293167,185.299828,186.096131333,186.08400175,,,,,,,,,,,,,,,,,,,,,,,,,,,,,,,,,,,186.088648292,186.096131333,186.096131333,186.673196208,b,1.0,0.5744286670000065,,,,,,sub-111,1,stroop_test,,
,,,,37.0,1.0,3.0,,,,,,,,,,,,,rot,red,r,1.0,r,1.0,0.6019857079999724,,,,,,,,,,3.0,1.0,37.0,0.0,186.699341167,,,,,,,,,,,,,,,,,186.673766917,186.76553575,187.565303375,187.550647625,,,,,,,,,,,,,,,,,,,,,,,,,,,,,,,,,,,187.55442525,187.565303375,187.565303375,188.180789417,r,1.0,0.6019857079999724,,,,,,sub-111,1,stroop_test,,
,,,,38.0,2.0,3.0,,,,,,,,,,,,,rot,yellow,g,0.0,g,1.0,0.7441307920000213,,,,,,,,,,3.0,2.0,38.0,3.0,188.186623042,,,,,,,,,,,,,,,,,188.181207917,188.522285833,189.316164958,189.307336458,,,,,,,,,,,,,,,,,,,,,,,,,,,,,,,,,,,189.308007333,189.316164958,189.316164958,190.068378958,g,1.0,0.7441307920000213,,,,,,sub-111,1,stroop_test,,
,,,,39.0,3.0,3.0,,,,,,,,,,,,,blau,blue,b,1.0,b,1.0,0.5160007499999892,,,,,,,,,,3.0,3.0,39.0,6.0,190.07874375,,,,,,,,,,,,,,,,,190.068945833,190.165023167,190.963174708,190.95042175,,,,,,,,,,,,,,,,,,,,,,,,,,,,,,,,,,,190.955470292,190.963174708,190.963174708,191.486638167,b,1.0,0.5160007499999892,,,,,,sub-111,1,stroop_test,,
,,,,40.0,4.0,3.0,,,,,,,,,,,,,blau,red,r,0.0,b,0.0,0.2578871249999679,,,,,,,,,,3.0,4.0,40.0,4.0,191.497177333,,,,,,,,,,,,,,,,,191.487222,192.283149917,193.075293083,193.066936542,,,,,,,,,,,,,,,,,,,,,,,,,,,,,,,,,,,193.067824,193.075293083,193.075293083,193.335785625,b,0.0,0.2578871249999679,,,,,,sub-111,1,stroop_test,,
,,,,41.0,5.0,3.0,,,,,,,,,,,,,gelb,red,r,0.0,g,0.0,0.2949927500000058,,,,,,,,,,3.0,5.0,41.0,8.0,193.346042417,,,,,,,,,,,,,,,,,193.336352208,194.533272917,195.327915667,195.316886667,,,,,,,,,,,,,,,,,,,,,,,,,,,,,,,,,,,195.320172708,195.327915667,195.327915667,195.625632,g,0.0,0.2949927500000058,,,,,,sub-111,1,stroop_test,,
,,,,42.0,6.0,3.0,,,,,,,,,,,,,gelb,yellow,g,1.0,g,1.0,0.6689841670000192,,,,,,,,,,3.0,6.0,42.0,10.0,195.6356605,,,,,,,,,,,,,,,,,195.62619275,196.82356175,197.615289542,197.606898292,,,,,,,,,,,,,,,,,,,,,,,,,,,,,,,,,,,197.607456708,197.615289542,197.615289542,198.291694625,g,1.0,0.6689841670000192,,,,,,sub-111,1,stroop_test,,
,,,,43.0,7.0,3.0,,,,,,,,,,,,,blau,blue,b,1.0,b,1.0,0.5771751670000071,,,,,,,,,,3.0,7.0,43.0,5.0,198.302407042,,,,,,,,,,,,,,,,,198.292298125,198.389611292,199.185547542,199.173855875,,,,,,,,,,,,,,,,,,,,,,,,,,,,,,,,,,,199.177672542,199.185547542,199.185547542,199.766557708,b,1.0,0.5771751670000071,,,,,,sub-111,1,stroop_test,,
,,,,44.0,8.0,3.0,,,,,,,,,,,,,rot,red,r,1.0,r,1.0,0.6234866249999982,,,,,,,,,,3.0,8.0,44.0,1.0,199.776735458,,,,,,,,,,,,,,,,,199.76713525,200.556597,201.35421825,201.340422917,,,,,,,,,,,,,,,,,,,,,,,,,,,,,,,,,,,201.344412,201.35421825,201.35421825,201.985454125,r,1.0,0.6234866249999982,,,,,,sub-111,1,stroop_test,,
,,,,45.0,9.0,3.0,,,,,,,,,,,,,rot,blue,b,0.0,b,1.0,0.5410836249999988,,,,,,,,,,3.0,9.0,45.0,2.0,201.996357542,,,,,,,,,,,,,,,,,201.986099375,203.182921417,203.975405625,203.96686675,,,,,,,,,,,,,,,,,,,,,,,,,,,,,,,,,,,203.967562833,203.975405625,203.975405625,204.5196685,b,1.0,0.5410836249999988,,,,,,sub-111,1,stroop_test,,
,,,,46.0,10.0,3.0,,,,,,,,,,,,,blau,yellow,g,0.0,g,1.0,0.5432518749999531,,,,,,,,,,3.0,10.0,46.0,7.0,204.530135542,,,,,,,,,,,,,,,,,204.52023775,205.715783167,206.512236417,206.50054275,,,,,,,,,,,,,,,,,,,,,,,,,,,,,,,,,,,206.504760708,206.512236417,206.512236417,207.057615917,g,1.0,0.5432518749999531,,,,,,sub-111,1,stroop_test,,
,,,,47.0,11.0,3.0,,,,,,,,,,,,,gelb,yellow,g,1.0,g,1.0,0.6230494999999792,,,,,,,,,,3.0,11.0,47.0,11.0,207.082590708,,,,,,,,,,,,,,,,,207.058162708,207.407141625,208.211575958,208.200377042,,,,,,,,,,,,,,,,,,,,,,,,,,,,,,,,,,,208.203890542,208.211575958,208.211575958,208.842516417,g,1.0,0.6230494999999792,,,,,,sub-111,1,stroop_test,,
,,,,48.0,0.0,4.0,,,,,,,,,,,,,rot,yellow,g,0.0,g,1.0,0.6173772079999935,,,,,,,,,,4.0,0.0,48.0,3.0,208.866291958,,,,,,,,,,,,,,,,,208.8430915,208.939312958,209.736836458,209.72289925,,,,,,,,,,,,,,,,,,,,,,,,,,,,,,,,,,,209.726709458,209.736836458,209.736836458,210.358083833,g,1.0,0.6173772079999935,,,,,,sub-111,1,stroop_test,,
,,,,49.0,1.0,4.0,,,,,,,,,,,,,blau,red,r,0.0,b,0.0,0.974920666999992,,,,,,,,,,4.0,1.0,49.0,4.0,210.368583125,,,,,,,,,,,,,,,,,210.358643208,211.557054167,212.350193083,212.340319375,,,,,,,,,,,,,,,,,,,,,,,,,,,,,,,,,,,212.343053208,212.350193083,212.350193083,213.333688042,b,0.0,0.974920666999992,,,,,,sub-111,1,stroop_test,,
,,,,50.0,2.0,4.0,,,,,,,,,,,,,gelb,yellow,g,1.0,r,0.0,0.6035836249999988,,,,,,,,,,4.0,2.0,50.0,10.0,213.344284167,,,,,,,,,,,,,,,,,213.334238708,213.425096792,214.22981,214.217460292,,,,,,,,,,,,,,,,,,,,,,,,,,,,,,,,,,,214.221725792,214.22981,214.22981,214.836749417,r,0.0,0.6035836249999988,,,,,,sub-111,1,stroop_test,,
,,,,51.0,3.0,4.0,,,,,,,,,,,,,gelb,red,r,0.0,r,1.0,0.8909015419999946,,,,,,,,,,4.0,3.0,51.0,8.0,214.847582042,,,,,,,,,,,,,,,,,214.837369292,215.182110458,215.975348167,215.966976125,,,,,,,,,,,,,,,,,,,,,,,,,,,,,,,,,,,215.967790167,215.975348167,215.975348167,216.8703985,r,1.0,0.8909015419999946,,,,,,sub-111,1,stroop_test,,
,,,,52.0,4.0,4.0,,,,,,,,,,,,,rot,red,r,1.0,g,0.0,0.4547182089999637,,,,,,,,,,4.0,4.0,52.0,1.0,216.881464958,,,,,,,,,,,,,,,,,216.871006917,217.216520125,218.016128917,218.000627625,,,,,,,,,,,,,,,,,,,,,,,,,,,,,,,,,,,218.0049495,218.016128917,218.016128917,218.474379375,g,0.0,0.4547182089999637,,,,,,sub-111,1,stroop_test,,
,,,,53.0,5.0,4.0,,,,,,,,,,,,,blau,blue,b,1.0,r,0.0,0.4193255000000135,,,,,,,,,,4.0,5.0,53.0,5.0,218.485434583,,,,,,,,,,,,,,,,,218.474965,218.574661208,219.376355292,219.367035083,,,,,,,,,,,,,,,,,,,,,,,,,,,,,,,,,,,219.370174083,219.376355292,219.376355292,219.8020795,r,0.0,0.4193255000000135,,,,,,sub-111,1,stroop_test,,
,,,,54.0,6.0,4.0,,,,,,,,,,,,,blau,blue,b,1.0,b,1.0,0.3447723329999803,,,,,,,,,,4.0,6.0,54.0,6.0,219.811116417,,,,,,,,,,,,,,,,,219.802610667,220.149809875,220.941061917,220.933487,,,,,,,,,,,,,,,,,,,,,,,,,,,,,,,,,,,220.93405975,220.941061917,220.941061917,221.292426875,b,1.0,0.3447723329999803,,,,,,sub-111,1,stroop_test,,
,,,,55.0,7.0,4.0,,,,,,,,,,,,,gelb,yellow,g,1.0,g,1.0,0.5464907909999965,,,,,,,,,,4.0,7.0,55.0,11.0,221.302239667,,,,,,,,,,,,,,,,,221.292991625,222.090177708,222.895296125,222.883821583,,,,,,,,,,,,,,,,,,,,,,,,,,,,,,,,,,,222.88744625,222.895296125,222.895296125,223.451882292,g,1.0,0.5464907909999965,,,,,,sub-111,1,stroop_test,,
,,,,56.0,8.0,4.0,,,,,,,,,,,,,rot,blue,b,0.0,b,1.0,1.3069010420000495,,,,,,,,,,4.0,8.0,56.0,2.0,223.462406917,,,,,,,,,,,,,,,,,223.452469875,223.799588625,224.598335458,224.583524625,,,,,,,,,,,,,,,,,,,,,,,,,,,,,,,,,,,224.587376375,224.598335458,224.598335458,225.909323708,b,1.0,1.3069010420000495,,,,,,sub-111,1,stroop_test,,
,,,,57.0,9.0,4.0,,,,,,,,,,,,,rot,red,r,1.0,g,0.0,0.650101124999992,,,,,,,,,,4.0,9.0,57.0,0.0,225.91947375,,,,,,,,,,,,,,,,,225.909888042,226.256043125,227.0498385,227.040274917,,,,,,,,,,,,,,,,,,,,,,,,,,,,,,,,,,,227.04092025,227.0498385,227.0498385,227.703740625,g,0.0,0.650101124999992,,,,,,sub-111,1,stroop_test,,
,,,,58.0,10.0,4.0,,,,,,,,,,,,,blau,yellow,g,0.0,r,0.0,0.4965144169999576,,,,,,,,,,4.0,10.0,58.0,7.0,227.714627333,,,,,,,,,,,,,,,,,227.704394125,227.799501333,228.599685,228.583890625,,,,,,,,,,,,,,,,,,,,,,,,,,,,,,,,,,,228.587298792,228.599685,228.599685,229.101084458,r,0.0,0.4965144169999576,,,,,,sub-111,1,stroop_test,,
,,,,59.0,11.0,4.0,,,,,,,,,,,,,gelb,blue,b,0.0,g,0.0,0.3048334160000081,,,,,,,,,,4.0,11.0,59.0,9.0,229.1121455,,,,,,,,,,,,,,,,,229.10167625,230.299623208,231.095292583,231.08344625,,,,,,,,,,,,,,,,,,,,,,,,,,,,,,,,,,,231.087674833,231.095292583,231.095292583,231.4133295,g,0.0,0.3048334160000081,,,,,,sub-111,1,stroop_test,,
,,,,60.0,0.0,5.0,,,,,,,,,,,,,rot,red,r,1.0,b,0.0,0.3973352909999903,,,,,,,,,,5.0,0.0,60.0,0.0,231.419514,,,,,,,,,,,,,,,,,231.413998708,232.206645625,233.003773708,232.990240208,,,,,,,,,,,,,,,,,,,,,,,,,,,,,,,,,,,232.994040417,233.003773708,233.003773708,233.408816833,b,0.0,0.3973352909999903,,,,,,sub-111,1,stroop_test,,
,,,,61.0,1.0,5.0,,,,,,,,,,,,,gelb,yellow,g,1.0,g,1.0,0.7502279999999928,,,,,,,,,,5.0,1.0,61.0,10.0,233.418712167,,,,,,,,,,,,,,,,,233.409378125,233.506649917,234.301411917,234.289776625,,,,,,,,,,,,,,,,,,,,,,,,,,,,,,,,,,,234.293531333,234.301411917,234.301411917,235.059048167,g,1.0,0.7502279999999928,,,,,,sub-111,1,stroop_test,,
,,,,62.0,2.0,5.0,,,,,,,,,,,,,rot,blue,b,0.0,b,1.0,1.1925457920000326,,,,,,,,,,5.0,2.0,62.0,2.0,235.069292542,,,,,,,,,,,,,,,,,235.059607667,235.856634083,236.660797375,236.649848708,,,,,,,,,,,,,,,,,,,,,,,,,,,,,,,,,,,236.652277167,236.660797375,236.660797375,237.857334583,b,1.0,1.1925457920000326,,,,,,sub-111,1,stroop_test,,
,,,,63.0,3.0,5.0,,,,,,,,,,,,,rot,yellow,g,0.0,r,0.0,1.2997227500000008,,,,,,,,,,5.0,3.0,63.0,3.0,237.867741375,,,,,,,,,,,,,,,,,237.857899583,238.657036042,239.449623083,239.440407708,,,,,,,,,,,,,,,,,,,,,,,,,,,,,,,,,,,239.441028708,239.449623083,239.449623083,240.752318625,r,0.0,1.2997227500000008,,,,,,sub-111,1,stroop_test,,
,,,,64.0,4.0,5.0,,,,,,,,,,,,,gelb,blue,b,0.0,g,0.0,1.142495832999998,,,,,,,,,,5.0,4.0,64.0,9.0,240.762753,,,,,,,,,,,,,,,,,240.752897167,241.549437375,242.34570675,242.333637042,,,,,,,,,,,,,,,,,,,,,,,,,,,,,,,,,,,242.338030958,242.34570675,242.34570675,243.491946667,g,0.0,1.142495832999998,,,,,,sub-111,1,stroop_test,,
,,,,65.0,5.0,5.0,,,,,,,,,,,,,gelb,red,r,0.0,r,1.0,1.074834874999965,,,,,,,,,,5.0,5.0,65.0,8.0,243.502076917,,,,,,,,,,,,,,,,,243.492509292,243.839696833,244.641620583,244.633481583,,,,,,,,,,,,,,,,,,,,,,,,,,,,,,,,,,,244.634143042,244.641620583,244.641620583,245.719828625,r,1.0,1.074834874999965,,,,,,sub-111,1,stroop_test,,
,,,,66.0,6.0,5.0,,,,,,,,,,,,,blau,blue,b,1.0,b,1.0,0.7426312499999881,,,,,,,,,,5.0,6.0,66.0,6.0,245.730224208,,,,,,,,,,,,,,,,,245.720406,245.816166375,246.612535958,246.600096875,,,,,,,,,,,,,,,,,,,,,,,,,,,,,,,,,,,246.605370875,246.612535958,246.612535958,247.358858792,b,1.0,0.7426312499999881,,,,,,sub-111,1,stroop_test,,
,,,,67.0,7.0,5.0,,,,,,,,,,,,,rot,red,r,1.0,r,1.0,0.9305766669999684,,,,,,,,,,5.0,7.0,67.0,1.0,247.369142083,,,,,,,,,,,,,,,,,247.359412958,247.456469708,248.2536885,248.240195833,,,,,,,,,,,,,,,,,,,,,,,,,,,,,,,,,,,248.244055375,248.2536885,248.2536885,249.1920055,r,1.0,0.9305766669999684,,,,,,sub-111,1,stroop_test,,
,,,,68.0,8.0,5.0,,,,,,,,,,,,,blau,yellow,g,0.0,g,1.0,0.5897279160000153,,,,,,,,,,5.0,8.0,68.0,7.0,249.202105292,,,,,,,,,,,,,,,,,249.192558042,249.989656667,250.784706083,250.773633833,,,,,,,,,,,,,,,,,,,,,,,,,,,,,,,,,,,250.777166167,250.784706083,250.784706083,251.384732333,g,1.0,0.5897279160000153,,,,,,sub-111,1,stroop_test,,
,,,,69.0,9.0,5.0,,,,,,,,,,,,,gelb,yellow,g,1.0,b,0.0,0.0164264590000016,,,,,,,,,,5.0,9.0,69.0,11.0,251.395034958,,,,,,,,,,,,,,,,,251.385380583,252.582730125,253.382558333,253.367518333,,,,,,,,,,,,,,,,,,,,,,,,,,,,,,,,,,,253.370707583,253.382558333,253.382558333,253.401227208,b,0.0,0.0164264590000016,,,,,,sub-111,1,stroop_test,,
,,,,70.0,10.0,5.0,,,,,,,,,,,,,blau,blue,b,1.0,b,1.0,4.027990791999969,,,,,,,,,,5.0,10.0,70.0,5.0,253.410418917,,,,,,,,,,,,,,,,,253.401747958,253.516817708,254.310769125,254.300514917,,,,,,,,,,,,,,,,,,,,,,,,,,,,,,,,,,,254.30408075,254.310769125,254.310769125,258.352350083,b,1.0,4.027990791999969,,,,,,sub-111,1,stroop_test,,
,,,,71.0,11.0,5.0,,,,,,,,,,,,,blau,red,r,0.0,g,0.0,1.5303747080000107,,,,,,,,,,5.0,11.0,71.0,4.0,258.365987208,,,,,,,,,,,,,,,,,258.352907125,259.149468375,259.94226125,259.933535417,,,,,,,,,,,,,,,,,,,,,,,,,,,,,,,,,,,259.934439375,259.94226125,259.94226125,261.4753055,g,0.0,1.5303747080000107,,,,,,sub-111,1,stroop_test,,
,,,,72.0,0.0,6.0,,,,,,,,,,,,,gelb,blue,b,0.0,b,1.0,1.222572166999953,,,,,,,,,,6.0,0.0,72.0,9.0,261.485278708,,,,,,,,,,,,,,,,,261.475870208,262.67221575,263.468328042,263.456696167,,,,,,,,,,,,,,,,,,,,,,,,,,,,,,,,,,,263.460407917,263.468328042,263.468328042,264.701280417,b,1.0,1.222572166999953,,,,,,sub-111,1,stroop_test,,
,,,,73.0,1.0,6.0,,,,,,,,,,,,,rot,blue,b,0.0,b,1.0,0.9501134170000114,,,,,,,,,,6.0,1.0,73.0,2.0,264.711554042,,,,,,,,,,,,,,,,,264.701828125,265.499477708,266.298833083,266.283428208,,,,,,,,,,,,,,,,,,,,,,,,,,,,,,,,,,,266.287749375,266.298833083,266.298833083,267.251667333,b,1.0,0.9501134170000114,,,,,,sub-111,1,stroop_test,,
,,,,74.0,2.0,6.0,,,,,,,,,,,,,gelb,yellow,g,1.0,g,1.0,1.3190215830000511,,,,,,,,,,6.0,2.0,74.0,10.0,267.261987542,,,,,,,,,,,,,,,,,267.252291958,268.449180167,269.250615792,269.234564708,,,,,,,,,,,,,,,,,,,,,,,,,,,,,,,,,,,269.239096292,269.250615792,269.250615792,270.57462875,g,1.0,1.3190215830000511,,,,,,sub-111,1,stroop_test,,
,,,,75.0,3.0,6.0,,,,,,,,,,,,,gelb,yellow,g,1.0,b,0.0,1.4637112909999814,,,,,,,,,,6.0,3.0,75.0,11.0,270.585095292,,,,,,,,,,,,,,,,,270.575201542,270.672382375,271.465275042,271.45682675,,,,,,,,,,,,,,,,,,,,,,,,,,,,,,,,,,,271.457551625,271.465275042,271.465275042,272.93578925,b,0.0,1.4637112909999814,,,,,,sub-111,1,stroop_test,,
,,,,76.0,4.0,6.0,,,,,,,,,,,,,blau,yellow,g,0.0,b,0.0,3.640899999999988,,,,,,,,,,6.0,4.0,76.0,7.0,272.946353208,,,,,,,,,,,,,,,,,272.936449375,273.282689917,274.078908042,274.066791417,,,,,,,,,,,,,,,,,,,,,,,,,,,,,,,,,,,274.071209792,274.078908042,274.078908042,277.724295958,b,0.0,3.640899999999988,,,,,,sub-111,1,stroop_test,,
,,,,77.0,5.0,6.0,,,,,,,,,,,,,rot,red,r,1.0,g,0.0,4.442243667000014,,,,,,,,,,6.0,5.0,77.0,1.0,277.7350965,,,,,,,,,,,,,,,,,277.724853,278.523010833,279.332083083,279.316837667,,,,,,,,,,,,,,,,,,,,,,,,,,,,,,,,,,,279.321198625,279.332083083,279.332083083,283.784658917,g,0.0,4.442243667000014,,,,,,sub-111,1,stroop_test,,
,,,,78.0,6.0,6.0,,,,,,,,,,,,,rot,yellow,g,0.0,b,0.0,2.943306457999995,,,,,,,,,,6.0,6.0,78.0,3.0,283.795027042,,,,,,,,,,,,,,,,,283.785251958,284.132552083,284.925145458,284.916728208,,,,,,,,,,,,,,,,,,,,,,,,,,,,,,,,,,,284.917649,284.925145458,284.925145458,287.874654,b,0.0,2.943306457999995,,,,,,sub-111,1,stroop_test,,
,,,,79.0,7.0,6.0,,,,,,,,,,,,,rot,red,r,1.0,b,0.0,1.9589490000000185,,,,,,,,,,6.0,7.0,79.0,0.0,287.885032458,,,,,,,,,,,,,,,,,287.875211,287.972738083,288.7645815,288.756304042,,,,,,,,,,,,,,,,,,,,,,,,,,,,,,,,,,,288.756961,288.7645815,288.7645815,290.734674708,b,0.0,1.9589490000000185,,,,,,sub-111,1,stroop_test,,
,,,,80.0,8.0,6.0,,,,,,,,,,,,,blau,blue,b,1.0,b,1.0,0.6777348329999882,,,,,,,,,,6.0,8.0,80.0,6.0,290.745399875,,,,,,,,,,,,,,,,,290.735238958,291.932576792,292.728749833,292.716623875,,,,,,,,,,,,,,,,,,,,,,,,,,,,,,,,,,,292.721188417,292.728749833,292.728749833,293.418763833,b,1.0,0.6777348329999882,,,,,,sub-111,1,stroop_test,,
,,,,81.0,9.0,6.0,,,,,,,,,,,,,blau,blue,b,1.0,b,1.0,0.6810770419999699,,,,,,,,,,6.0,9.0,81.0,5.0,293.429309417,,,,,,,,,,,,,,,,,293.41940325,293.765968833,294.55893725,294.550320083,,,,,,,,,,,,,,,,,,,,,,,,,,,,,,,,,,,294.551240792,294.55893725,294.55893725,295.25184075,b,1.0,0.6810770419999699,,,,,,sub-111,1,stroop_test,,
,,,,82.0,10.0,6.0,,,,,,,,,,,,,blau,red,r,0.0,r,1.0,1.0789946660000282,,,,,,,,,,6.0,10.0,82.0,4.0,295.262244542,,,,,,,,,,,,,,,,,295.252497375,296.449104167,297.241627125,297.233188292,,,,,,,,,,,,,,,,,,,,,,,,,,,,,,,,,,,297.234082583,297.241627125,297.241627125,298.323244542,r,1.0,1.0789946660000282,,,,,,sub-111,1,stroop_test,,
,,,,83.0,11.0,6.0,,,,,,,,,,,,,gelb,red,r,0.0,r,1.0,0.8978456250000022,,,,,,,,,,6.0,11.0,83.0,8.0,298.33400175,,,,,,,,,,,,,,,,,298.323798542,299.122930917,299.918065875,299.906114958,,,,,,,,,,,,,,,,,,,,,,,,,,,,,,,,,,,299.909989167,299.918065875,299.918065875,300.819535958,r,1.0,0.8978456250000022,,,,,,sub-111,1,stroop_test,,
,,,,84.0,0.0,7.0,,,,,,,,,,,,,rot,blue,b,0.0,b,1.0,0.9458664580000118,,,,,,,,,,7.0,0.0,84.0,2.0,300.830824375,,,,,,,,,,,,,,,,,300.8202405,300.915669542,301.715168708,301.700130417,,,,,,,,,,,,,,,,,,,,,,,,,,,,,,,,,,,301.703406042,301.715168708,301.715168708,302.667523208,b,1.0,0.9458664580000118,,,,,,sub-111,1,stroop_test,,
,,,,85.0,1.0,7.0,,,,,,,,,,,,,blau,yellow,g,0.0,g,1.0,1.205004249999945,,,,,,,,,,7.0,1.0,85.0,7.0,302.678087667,,,,,,,,,,,,,,,,,302.668167208,302.765768,303.56173425,303.549607208,,,,,,,,,,,,,,,,,,,,,,,,,,,,,,,,,,,303.554368,303.56173425,303.56173425,304.780713417,g,1.0,1.205004249999945,,,,,,sub-111,1,stroop_test,,
,,,,86.0,2.0,7.0,,,,,,,,,,,,,blau,red,r,0.0,r,1.0,0.5415950410000505,,,,,,,,,,7.0,2.0,86.0,4.0,304.786308542,,,,,,,,,,,,,,,,,304.781057542,305.972636333,306.774546833,306.766305708,,,,,,,,,,,,,,,,,,,,,,,,,,,,,,,,,,,306.766930875,306.774546833,306.774546833,307.31971875,r,1.0,0.5415950410000505,,,,,,sub-111,1,stroop_test,,
,,,,87.0,3.0,7.0,,,,,,,,,,,,,rot,red,r,1.0,b,0.0,0.1285238330000311,,,,,,,,,,7.0,3.0,87.0,0.0,307.330059083,,,,,,,,,,,,,,,,,307.320285042,308.515883458,309.315248958,309.299873875,,,,,,,,,,,,,,,,,,,,,,,,,,,,,,,,,,,309.304178458,309.315248958,309.315248958,309.451202875,b,0.0,0.1285238330000311,,,,,,sub-111,1,stroop_test,,
,,,,88.0,4.0,7.0,,,,,,,,,,,,,gelb,yellow,g,1.0,g,1.0,0.6534423749999974,,,,,,,,,,7.0,4.0,88.0,11.0,309.461471167,,,,,,,,,,,,,,,,,309.4517555,309.799033417,310.595321792,310.583190708,,,,,,,,,,,,,,,,,,,,,,,,,,,,,,,,,,,310.587793333,310.595321792,310.595321792,311.251567625,g,1.0,0.6534423749999974,,,,,,sub-111,1,stroop_test,,
,,,,89.0,5.0,7.0,,,,,,,,,,,,,blau,blue,b,1.0,b,1.0,0.482274249999989,,,,,,,,,,7.0,5.0,89.0,6.0,311.262037083,,,,,,,,,,,,,,,,,311.252134708,312.44916625,313.244186083,313.232942583,,,,,,,,,,,,,,,,,,,,,,,,,,,,,,,,,,,313.236708708,313.244186083,313.244186083,313.734451167,b,1.0,0.482274249999989,,,,,,sub-111,1,stroop_test,,
,,,,90.0,6.0,7.0,,,,,,,,,,,,,rot,red,r,1.0,r,1.0,0.650703999999962,,,,,,,,,,7.0,6.0,90.0,1.0,313.744751125,,,,,,,,,,,,,,,,,313.73504675,314.082330042,314.881942667,314.866688792,,,,,,,,,,,,,,,,,,,,,,,,,,,,,,,,,,,314.870954,314.881942667,314.881942667,315.535941667,r,1.0,0.650703999999962,,,,,,sub-111,1,stroop_test,,
,,,,91.0,7.0,7.0,,,,,,,,,,,,,gelb,yellow,g,1.0,b,0.0,0.2588230419999604,,,,,,,,,,7.0,7.0,91.0,10.0,315.546104667,,,,,,,,,,,,,,,,,315.5365015,316.332362917,317.127463125,317.116220125,,,,,,,,,,,,,,,,,,,,,,,,,,,,,,,,,,,317.119788542,317.127463125,317.127463125,317.391255542,b,0.0,0.2588230419999604,,,,,,sub-111,1,stroop_test,,
,,,,92.0,8.0,7.0,,,,,,,,,,,,,gelb,red,r,0.0,r,1.0,0.713099083999964,,,,,,,,,,7.0,8.0,92.0,8.0,317.40163975,,,,,,,,,,,,,,,,,317.391816667,317.48886875,318.28137975,318.273030792,,,,,,,,,,,,,,,,,,,,,,,,,,,,,,,,,,,318.273693083,318.28137975,318.28137975,319.001136333,r,1.0,0.713099083999964,,,,,,sub-111,1,stroop_test,,
,,,,93.0,9.0,7.0,,,,,,,,,,,,,blau,blue,b,1.0,g,0.0,0.0598464999999919,,,,,,,,,,7.0,9.0,93.0,5.0,319.011316625,,,,,,,,,,,,,,,,,319.001713292,319.798905958,320.595879458,320.583005958,,,,,,,,,,,,,,,,,,,,,,,,,,,,,,,,,,,320.5884235,320.595879458,320.595879458,320.667623875,g,0.0,0.0598464999999919,,,,,,sub-111,1,stroop_test,,
,,,,94.0,10.0,7.0,,,,,,,,,,,,,rot,yellow,g,0.0,b,0.0,0.8562200829999824,,,,,,,,,,7.0,10.0,94.0,3.0,320.678146375,,,,,,,,,,,,,,,,,320.668182375,320.765731333,321.565154417,321.549792958,,,,,,,,,,,,,,,,,,,,,,,,,,,,,,,,,,,321.554119375,321.565154417,321.565154417,322.424620875,b,0.0,0.8562200829999824,,,,,,sub-111,1,stroop_test,,
,,,,95.0,11.0,7.0,,,,,,,,,,,,,gelb,blue,b,0.0,r,0.0,0.206028999999944,,,,,,,,,,7.0,11.0,95.0,9.0,322.434872375,,,,,,,,,,,,,,,,,322.425188,323.22301725,324.027631042,324.016093792,,,,,,,,,,,,,,,,,,,,,,,,,,,,,,,,,,,324.020156875,324.027631042,324.027631042,324.241547292,r,0.0,0.206028999999944,,,,,,sub-111,1,stroop_test,,
,,,,96.0,0.0,8.0,,,,,,,,,,,,,rot,yellow,g,0.0,b,0.0,1.0041372910000064,,,,,,,,,,8.0,0.0,96.0,3.0,324.251696625,,,,,,,,,,,,,,,,,324.242116375,324.339500167,325.135717167,325.122586792,,,,,,,,,,,,,,,,,,,,,,,,,,,,,,,,,,,325.126017542,325.135717167,325.135717167,326.151465083,b,0.0,1.0041372910000064,,,,,,sub-111,1,stroop_test,,
,,,,97.0,1.0,8.0,,,,,,,,,,,,,gelb,red,r,0.0,g,0.0,4.018831458000022,,,,,,,,,,8.0,1.0,97.0,8.0,326.161843667,,,,,,,,,,,,,,,,,326.152020042,327.34894725,328.150192,328.13443825,,,,,,,,,,,,,,,,,,,,,,,,,,,,,,,,,,,328.138489125,328.150192,328.150192,332.174498583,g,0.0,4.018831458000022,,,,,,sub-111,1,stroop_test,,
,,,,98.0,2.0,8.0,,,,,,,,,,,,,gelb,yellow,g,1.0,b,0.0,1.1743478340000024,,,,,,,,,,8.0,2.0,98.0,11.0,332.184910333,,,,,,,,,,,,,,,,,332.175067292,333.372592958,334.165242208,334.155892917,,,,,,,,,,,,,,,,,,,,,,,,,,,,,,,,,,,334.15680375,334.165242208,334.165242208,335.342661875,b,0.0,1.1743478340000024,,,,,,sub-111,1,stroop_test,,
,,,,99.0,3.0,8.0,,,,,,,,,,,,,blau,blue,b,1.0,b,1.0,1.707385875,,,,,,,,,,8.0,3.0,99.0,5.0,335.353397458,,,,,,,,,,,,,,,,,335.343270708,336.139329333,336.934430375,336.922984958,,,,,,,,,,,,,,,,,,,,,,,,,,,,,,,,,,,336.926556083,336.934430375,336.934430375,338.650793333,b,1.0,1.707385875,,,,,,sub-111,1,stroop_test,,
,,,,100.0,4.0,8.0,,,,,,,,,,,,,blau,red,r,0.0,r,1.0,0.919076667000013,,,,,,,,,,8.0,4.0,100.0,4.0,338.660991292,,,,,,,,,,,,,,,,,338.651368208,338.748994417,339.540707042,339.532457583,,,,,,,,,,,,,,,,,,,,,,,,,,,,,,,,,,,339.533150125,339.540707042,339.540707042,340.468333375,r,1.0,0.919076667000013,,,,,,sub-111,1,stroop_test,,
,,,,101.0,5.0,8.0,,,,,,,,,,,,,gelb,yellow,g,1.0,b,0.0,8.425088500000015,,,,,,,,,,8.0,5.0,101.0,10.0,340.478912125,,,,,,,,,,,,,,,,,340.468981042,340.565498333,341.362551292,341.349665625,,,,,,,,,,,,,,,,,,,,,,,,,,,,,,,,,,,341.35483625,341.362551292,341.362551292,349.79096374999995,b,0.0,8.425088500000015,,,,,,sub-111,1,stroop_test,,
,,,,102.0,6.0,8.0,,,,,,,,,,,,,rot,red,r,1.0,b,0.0,1.4484857920000422,,,,,,,,,,8.0,6.0,102.0,0.0,349.801271083,,,,,,,,,,,,,,,,,349.79152225,350.588476958,351.385695792,351.372578708,,,,,,,,,,,,,,,,,,,,,,,,,,,,,,,,,,,351.376108875,351.385695792,351.385695792,352.840338417,b,0.0,1.4484857920000422,,,,,,sub-111,1,stroop_test,,
,,,,103.0,7.0,8.0,,,,,,,,,,,,,blau,yellow,g,0.0,g,1.0,1.4106541670000752,,,,,,,,,,8.0,7.0,103.0,7.0,352.851274667,,,,,,,,,,,,,,,,,352.840877625,352.938666958,353.733978,353.72261825,,,,,,,,,,,,,,,,,,,,,,,,,,,,,,,,,,,353.725826083,353.733978,353.733978,355.15212162499995,g,1.0,1.4106541670000752,,,,,,sub-111,1,stroop_test,,
,,,,104.0,8.0,8.0,,,,,,,,,,,,,rot,blue,b,0.0,b,1.0,0.603840499999933,,,,,,,,,,8.0,8.0,104.0,2.0,355.162613458,,,,,,,,,,,,,,,,,355.152773958,355.248748375,356.04831645800004,356.033003333,,,,,,,,,,,,,,,,,,,,,,,,,,,,,,,,,,,356.03729554200004,356.04831645800004,356.04831645800004,356.65826274999995,b,1.0,0.603840499999933,,,,,,sub-111,1,stroop_test,,
,,,,105.0,9.0,8.0,,,,,,,,,,,,,rot,red,r,1.0,r,1.0,0.5936053749999246,,,,,,,,,,8.0,9.0,105.0,1.0,356.6684015,,,,,,,,,,,,,,,,,356.65885004200004,356.755714958,357.547444292,357.53889404200004,,,,,,,,,,,,,,,,,,,,,,,,,,,,,,,,,,,357.53956075,357.547444292,357.547444292,358.15080225,r,1.0,0.5936053749999246,,,,,,sub-111,1,stroop_test,,
,,,,106.0,10.0,8.0,,,,,,,,,,,,,blau,blue,b,1.0,b,1.0,0.1880850000000009,,,,,,,,,,8.0,10.0,106.0,6.0,358.161096083,,,,,,,,,,,,,,,,,358.151368792,359.34873100000004,360.14428654200003,360.13261920800005,,,,,,,,,,,,,,,,,,,,,,,,,,,,,,,,,,,360.13668700000005,360.14428654200003,360.14428654200003,360.335136875,b,1.0,0.1880850000000009,,,,,,sub-111,1,stroop_test,,
,,,,107.0,11.0,8.0,,,,,,,,,,,,,gelb,blue,b,0.0,b,1.0,0.5601437920000762,,,,,,,,,,8.0,11.0,107.0,9.0,360.345466292,,,,,,,,,,,,,,,,,360.335694875,361.532259792,362.327723417,362.316033375,,,,,,,,,,,,,,,,,,,,,,,,,,,,,,,,,,,362.32025275,362.327723417,362.327723417,362.891346667,b,1.0,0.5601437920000762,,,,,,sub-111,1,stroop_test,,
,,,,108.0,0.0,9.0,,,,,,,,,,,,,blau,blue,b,1.0,b,1.0,1.0268556659999604,,,,,,,,,,9.0,0.0,108.0,5.0,362.90120525,,,,,,,,,,,,,,,,,362.891907583,363.689106917,364.484358458,364.47291725,,,,,,,,,,,,,,,,,,,,,,,,,,,,,,,,,,,364.476501417,364.484358458,364.484358458,365.517419208,b,1.0,1.0268556659999604,,,,,,sub-111,1,stroop_test,,
,,,,109.0,1.0,9.0,,,,,,,,,,,,,rot,red,r,1.0,r,1.0,0.4498722079999879,,,,,,,,,,9.0,1.0,109.0,1.0,365.527561542,,,,,,,,,,,,,,,,,365.517983458,366.714616583,367.51576175,367.499526333,,,,,,,,,,,,,,,,,,,,,,,,,,,,,,,,,,,367.505137083,367.51576175,367.51576175,367.968788333,r,1.0,0.4498722079999879,,,,,,sub-111,1,stroop_test,,
,,,,110.0,2.0,9.0,,,,,,,,,,,,,blau,blue,b,1.0,g,0.0,1.3982727500000465,,,,,,,,,,9.0,2.0,110.0,6.0,367.979211833,,,,,,,,,,,,,,,,,367.969349625,368.065309083,368.861017125,368.849122667,,,,,,,,,,,,,,,,,,,,,,,,,,,,,,,,,,,368.853649875,368.861017125,368.861017125,370.268377708,g,0.0,1.3982727500000465,,,,,,sub-111,1,stroop_test,,
,,,,111.0,3.0,9.0,,,,,,,,,,,,,gelb,yellow,g,1.0,g,1.0,0.5616397500000403,,,,,,,,,,9.0,3.0,111.0,10.0,370.278795917,,,,,,,,,,,,,,,,,370.26909025,370.6153485,371.410543917,371.399175417,,,,,,,,,,,,,,,,,,,,,,,,,,,,,,,,,,,371.402949167,371.410543917,371.410543917,371.974764708,g,1.0,0.5616397500000403,,,,,,sub-111,1,stroop_test,,
,,,,112.0,4.0,9.0,,,,,,,,,,,,,blau,yellow,g,0.0,g,1.0,1.3696939169999496,,,,,,,,,,9.0,4.0,112.0,7.0,371.984477167,,,,,,,,,,,,,,,,,371.97533187500005,372.0723055,372.8672652080001,372.85613425,,,,,,,,,,,,,,,,,,,,,,,,,,,,,,,,,,,372.859335417,372.8672652080001,372.8672652080001,374.24051475,g,1.0,1.3696939169999496,,,,,,sub-111,1,stroop_test,,
,,,,113.0,5.0,9.0,,,,,,,,,,,,,blau,red,r,0.0,r,1.0,0.0074136660000476,,,,,,,,,,9.0,5.0,113.0,4.0,374.25120825,,,,,,,,,,,,,,,,,374.241041417,375.43827475,376.231193125,376.2227776250001,,,,,,,,,,,,,,,,,,,,,,,,,,,,,,,,,,,376.2233743750001,376.231193125,376.231193125,376.241209708,r,1.0,0.0074136660000476,,,,,,sub-111,1,stroop_test,,
,,,,114.0,6.0,9.0,,,,,,,,,,,,,gelb,blue,b,0.0,b,1.0,0.9371404170000232,,,,,,,,,,9.0,6.0,114.0,9.0,376.251222875,,,,,,,,,,,,,,,,,376.241760667,376.338275667,377.134371917,377.122524833,,,,,,,,,,,,,,,,,,,,,,,,,,,,,,,,,,,377.1263745,377.134371917,377.134371917,378.074231583,b,1.0,0.9371404170000232,,,,,,sub-111,1,stroop_test,,
,,,,115.0,7.0,9.0,,,,,,,,,,,,,rot,blue,b,0.0,b,1.0,0.2100119999998924,,,,,,,,,,9.0,7.0,115.0,2.0,378.084383583,,,,,,,,,,,,,,,,,378.074783542,378.871632167,379.669048542,379.655356292,,,,,,,,,,,,,,,,,,,,,,,,,,,,,,,,,,,379.659032333,379.669048542,379.669048542,379.883543292,b,1.0,0.2100119999998924,,,,,,sub-111,1,stroop_test,,
,,,,116.0,8.0,9.0,,,,,,,,,,,,,gelb,yellow,g,1.0,r,0.0,0.6532866669999748,,,,,,,,,,9.0,8.0,116.0,11.0,379.893993375,,,,,,,,,,,,,,,,,379.884185917,379.981911,380.778475625,380.766195583,,,,,,,,,,,,,,,,,,,,,,,,,,,,,,,,,,,380.770849083,380.778475625,380.778475625,381.435033875,r,0.0,0.6532866669999748,,,,,,sub-111,1,stroop_test,,
,,,,117.0,9.0,9.0,,,,,,,,,,,,,rot,red,r,1.0,b,0.0,0.5240125829999442,,,,,,,,,,9.0,9.0,117.0,0.0,381.445514833,,,,,,,,,,,,,,,,,381.435595292,381.781929333,382.582444208,382.5660447080001,,,,,,,,,,,,,,,,,,,,,,,,,,,,,,,,,,,382.571462667,382.582444208,382.582444208,383.117417625,b,0.0,0.5240125829999442,,,,,,sub-111,1,stroop_test,,
,,,,118.0,10.0,9.0,,,,,,,,,,,,,rot,yellow,g,0.0,g,1.0,0.4128329160000703,,,,,,,,,,9.0,10.0,118.0,3.0,383.127797458,,,,,,,,,,,,,,,,,383.117978708,384.315346542,385.108465958,385.099542042,,,,,,,,,,,,,,,,,,,,,,,,,,,,,,,,,,,385.100461375,385.108465958,385.108465958,385.524256125,g,1.0,0.4128329160000703,,,,,,sub-111,1,stroop_test,,
,,,,119.0,11.0,9.0,,,,,,,,,,,,,gelb,red,r,0.0,b,0.0,0.5513211659999797,,,,,,,,,,9.0,11.0,119.0,8.0,385.5345606670001,,,,,,,,,,,,,,,,,385.52481725,385.872623042,386.667230125,386.655742625,,,,,,,,,,,,,,,,,,,,,,,,,,,,,,,,,,,386.659477417,386.667230125,386.667230125,387.22404025,b,0.0,0.5513211659999797,,,,,,sub-111,1,stroop_test,,
,,,,,,,,,,,,,,,,,,,,,,,,,,,,,,,,,,,,,,,,,,,,,,,,,,,,,,,,,,,,,,,,,,,,,,,,,,,,,,,,,,,,,,,,,,,,,,,,,,,,,,387.224333417,387.236373333,392.231999042,392.222645375,sub-111,1,stroop_test,,
