wordCTK,colorCTK,corrAnsCTK,congruentCTK,thisN,thisTrialN,thisRepN,keyResp_CTK.keys,keyResp_CTK.corr,keyResp_CTK.rt,keyResp_CTK.duration,wordPractice,colorPractice,corrAnsPractice,congruentPractice,respPractice.keys,respPractice.corr,respPractice.rt,respPractice.duration,word,color,corrAns,congruent,keyResp_test_run.keys,keyResp_test_run.corr,keyResp_test_run.rt,keyResp_test_run.duration,trials_CTK.thisRepN,trials_CTK.thisTrialN,trials_CTK.thisN,trials_CTK.thisIndex,trials_practice.thisRepN,trials_practice.thisTrialN,trials_practice.thisN,trials_practice.thisIndex,trials_test.thisRepN,trials_test.thisTrialN,trials_test.thisN,trials_test.thisIndex,thisRow.t,notes,instruction.started,instr_text.started,instr_image.started,instr_resp.started,instruction.stopped,instr_resp.keys,instr_resp.rt,instr_resp.duration,instr_color_to_key.started,instr_ctk.started,resp_ctk.started,instr_color_to_key.stopped,resp_ctk.keys,resp_ctk.rt,resp_ctk.duration,ITI.started,fixcross.started,fixcross.stopped,ITI.stopped,color_to_key_run.started,stimulus_CTK.started,keyResp_CTK.started,color_to_key_run.stopped,trials_CTK.keyResp_CTK.keys,trials_CTK.keyResp_CTK.corr,trials_CTK.keyResp_CTK.rt,trials_CTK.keyResp_CTK.duration,instr_practice.started,instr_practice_text.started,instr_practice_resp.started,instr_practice.stopped,instr_practice_resp.keys,instr_practice_resp.rt,instr_practice_resp.duration,practice_run.started,stimulus_practice.started,respPractice.started,practice_run.stopped,trials_practice.respPractice.keys,trials_practice.respPractice.corr,trials_practice.respPractice.rt,trials_practice.respPractice.duration,feedback.started,textFeedback.started,feedback.stopped,textFeedback.stopped,instr_test.started,instr_test_text.started,instr_test_resp.started,instr_test.stopped,instr_test_resp.keys,instr_test_resp.rt,instr_test_resp.duration,test_run.started,stimulus_test_run.started,keyResp_test_run.started,test_run.stopped,trials_test.keyResp_test_run.keys,trials_test.keyResp_test_run.corr,trials_test.keyResp_test_run.rt,trials_test.keyResp_test_run.duration,goodbye.started,textGoodbye.started,goodbye.stopped,participant,session,date,expName,psychopyVersion,frameRate,expStart
,,,,,,,,,,,,,,,,,,,,,,,,,,,,,,,,,,,,,,,,,0.0031615,0.1056444,0.1056444,0.1056444,48.2735176,space,48.1520068,None,,,,,,,,,,,,,,,,,,,,,,,,,,,,,,,,,,,,,,,,,,,,,,,,,,,,,,,,,sub-204,1,2025-03-12_14h08.07.706,stroop_test,04.02.2024,60.09178419,2025-03-12 14h08.16.142645 +0100
,,,,,,,,,,,,,,,,,,,,,,,,,,,,,,,,,,,,,,,,,,,,,,,,,48.2736265,48.2815728,48.2815728,56.9997861,space,8.7051975,None,,,,,,,,,,,,,,,,,,,,,,,,,,,,,,,,,,,,,,,,,,,,,,,,,,sub-204,1,2025-03-12_14h08.07.706,stroop_test,04.02.2024,60.09178419,2025-03-12 14h08.16.142645 +0100
test,blue,b,1,0,0,0,b,1,1.9373195,None,,,,,,,,,,,,,,,,,0,0,0,2,,,,,,,,,57.0220491,,,,,,,,,,,,,,,,,57.0175876,57.8143153,58.6383813,58.5995253,58.6285006,58.6383813,58.6383813,60.5857936,b,1,1.9373195,None,,,,,,,,,,,,,,,,,,,,,,,,,,,,,,,,,,,,,,sub-204,1,2025-03-12_14h08.07.706,stroop_test,04.02.2024,60.09178419,2025-03-12 14h08.16.142645 +0100
test,red,r,1,1,1,0,r,1,1.0152015,None,,,,,,,,,,,,,,,,,0,1,1,0,,,,,,,,,60.5996314,,,,,,,,,,,,,,,,,60.5863532,61.4006695,62.2007634,62.1854655,62.1862423,62.2007634,62.2007634,63.2203287,r,1,1.0152015,None,,,,,,,,,,,,,,,,,,,,,,,,,,,,,,,,,,,,,,sub-204,1,2025-03-12_14h08.07.706,stroop_test,04.02.2024,60.09178419,2025-03-12 14h08.16.142645 +0100
test,yellow,g,1,2,2,0,g,1,0.7101277,None,,,,,,,,,,,,,,,,,0,2,2,1,,,,,,,,,63.2348609,,,,,,,,,,,,,,,,,63.2207935,64.0357257,64.8359583,64.8204435,64.8211842,64.8359583,64.8359583,65.5556448,g,1,0.7101277,None,,,,,,,,,,,,,,,,,,,,,,,,,,,,,,,,,,,,,,sub-204,1,2025-03-12_14h08.07.706,stroop_test,04.02.2024,60.09178419,2025-03-12 14h08.16.142645 +0100
test,blue,b,1,3,0,1,b,1,0.7245936,None,,,,,,,,,,,,,,,,,1,0,3,2,,,,,,,,,65.5700821,,,,,,,,,,,,,,,,,65.5562374,66.7707572,67.5713128,67.5559442,67.5566942,67.5713128,67.5713128,68.3071061,b,1,0.7245936,None,,,,,,,,,,,,,,,,,,,,,,,,,,,,,,,,,,,,,,sub-204,1,2025-03-12_14h08.07.706,stroop_test,04.02.2024,60.09178419,2025-03-12 14h08.16.142645 +0100
test,yellow,g,1,4,1,1,g,1,1.1324652,None,,,,,,,,,,,,,,,,,1,1,4,1,,,,,,,,,68.3217353,,,,,,,,,,,,,,,,,68.3075586,69.522541,70.3232595,70.3074273,70.3081255,70.3232595,70.3232595,71.459094,g,1,1.1324652,None,,,,,,,,,,,,,,,,,,,,,,,,,,,,,,,,,,,,,,sub-204,1,2025-03-12_14h08.07.706,stroop_test,04.02.2024,60.09178419,2025-03-12 14h08.16.142645 +0100
test,red,r,1,5,2,1,r,1,0.7312501,None,,,,,,,,,,,,,,,,,1,2,5,0,,,,,,,,,71.4738883,,,,,,,,,,,,,,,,,71.4600032,72.2744449,73.0751448,73.0594246,73.0601408,73.0751448,73.0751448,73.8110878,r,1,0.7312501,None,,,,,,,,,,,,,,,,,,,,,,,,,,,,,,,,,,,,,,sub-204,1,2025-03-12_14h08.07.706,stroop_test,04.02.2024,60.09178419,2025-03-12 14h08.16.142645 +0100
test,red,r,1,6,0,2,r,1,0.8493765,None,,,,,,,,,,,,,,,,,2,0,6,0,,,,,,,,,73.825444,,,,,,,,,,,,,,,,,73.8115589,74.626412,75.4270668,75.411392,75.4121548,75.4270668,75.4270668,76.279104,r,1,0.8493765,None,,,,,,,,,,,,,,,,,,,,,,,,,,,,,,,,,,,,,,sub-204,1,2025-03-12_14h08.07.706,stroop_test,04.02.2024,60.09178419,2025-03-12 14h08.16.142645 +0100
test,blue,b,1,7,1,2,b,1,0.5705898,None,,,,,,,,,,,,,,,,,2,1,7,2,,,,,,,,,76.2935038,,,,,,,,,,,,,,,,,76.2794715,77.0946081,77.8952795,77.8793361,77.8802192,77.8952795,77.8952795,78.4804827,b,1,0.5705898,None,,,,,,,,,,,,,,,,,,,,,,,,,,,,,,,,,,,,,,sub-204,1,2025-03-12_14h08.07.706,stroop_test,04.02.2024,60.09178419,2025-03-12 14h08.16.142645 +0100
test,yellow,g,1,8,2,2,g,1,0.7902918,None,,,,,,,,,,,,,,,,,2,2,8,1,,,,,,,,,78.495528,,,,,,,,,,,,,,,,,78.4810585,78.5956783,79.3963683,79.3803343,79.3810653,79.3963683,79.3963683,80.1990119,g,1,0.7902918,None,,,,,,,,,,,,,,,,,,,,,,,,,,,,,,,,,,,,,,sub-204,1,2025-03-12_14h08.07.706,stroop_test,04.02.2024,60.09178419,2025-03-12 14h08.16.142645 +0100
test,blue,b,1,9,0,3,b,1,1.0925574,None,,,,,,,,,,,,,,,,,3,0,9,2,,,,,,,,,80.2133081,,,,,,,,,,,,,,,,,80.1995815,80.3133235,81.114136,81.0987034,81.0994966,81.114136,81.114136,82.2170755,b,1,1.0925574,None,,,,,,,,,,,,,,,,,,,,,,,,,,,,,,,,,,,,,,sub-204,1,2025-03-12_14h08.07.706,stroop_test,04.02.2024,60.09178419,2025-03-12 14h08.16.142645 +0100
test,yellow,g,1,10,1,3,g,1,0.7846689,None,,,,,,,,,,,,,,,,,3,1,10,1,,,,,,,,,82.2313643,,,,,,,,,,,,,,,,,82.2177304,82.3312283,83.1321228,83.1165231,83.1172431,83.1321228,83.1321228,83.9340062,g,1,0.7846689,None,,,,,,,,,,,,,,,,,,,,,,,,,,,,,,,,,,,,,,sub-204,1,2025-03-12_14h08.07.706,stroop_test,04.02.2024,60.09178419,2025-03-12 14h08.16.142645 +0100
test,red,r,1,11,2,3,r,1,0.5127465,None,,,,,,,,,,,,,,,,,3,2,11,0,,,,,,,,,83.9495561,,,,,,,,,,,,,,,,,83.9344774,85.1330809,85.9339702,85.9179826,85.9188755,85.9339702,85.9339702,86.4527546,r,1,0.5127465,None,,,,,,,,,,,,,,,,,,,,,,,,,,,,,,,,,,,,,,sub-204,1,2025-03-12_14h08.07.706,stroop_test,04.02.2024,60.09178419,2025-03-12 14h08.16.142645 +0100
,,,,,,,,,,,,,,,,,,,,,,,,,,,,,,,,,,,,,,,,,,,,,,,,,,,,,,,,,,,,,,,,,,,,86.4530126,86.4679549,86.4679549,98.6450208,space,12.1688141,None,,,,,,,,,,,,,,,,,,,,,,,,,,,,,,,sub-204,1,2025-03-12_14h08.07.706,stroop_test,04.02.2024,60.09178419,2025-03-12 14h08.16.142645 +0100
,,,,0,0,0,,,,,blau,yellow,g,0,b,0,0.9948976,None,,,,,,,,,,,,,0,0,0,7,,,,,98.6670542,,,,,,,,,,,,,,,,,98.6626424,99.0094162,99.832838,99.7949245,,,,,,,,,,,,,,,,99.8245556,99.832838,99.832838,100.8305855,b,0,0.9948976,None,100.8509604,100.8625986,101.8453014,,,,,,,,,,,,,,,,,,,,sub-204,1,2025-03-12_14h08.07.706,stroop_test,04.02.2024,60.09178419,2025-03-12 14h08.16.142645 +0100
,,,,1,1,0,,,,,blau,blue,b,1,b,1,1.6314452,None,,,,,,,,,,,,,0,1,1,5,,,,,101.8614122,,,,,,,,,,,,,,,,,101.8457523,102.6456002,103.4458887,103.430298,,,,,,,,,,,,,,,,103.4311159,103.4458887,103.4458887,105.0824766,b,1,1.6314452,None,105.1072226,105.1180538,106.0980379,,,,,,,,,,,,,,,,,,,,sub-204,1,2025-03-12_14h08.07.706,stroop_test,04.02.2024,60.09178419,2025-03-12 14h08.16.142645 +0100
,,,,2,2,0,,,,,gelb,red,r,0,r,1,3.5268011,None,,,,,,,,,,,,,0,2,2,8,,,,,106.1143535,,,,,,,,,,,,,,,,,106.0985202,106.1976557,106.9988843,106.9830191,,,,,,,,,,,,,,,,106.9892281,106.9988843,106.9988843,110.535947,r,1,3.5268011,None,110.5367593,110.5508253,111.5355966,111.5516668,,,,,,,,,,,,,,,,,,,sub-204,1,2025-03-12_14h08.07.706,stroop_test,04.02.2024,60.09178419,2025-03-12 14h08.16.142645 +0100
,,,,3,3,0,,,,,gelb,blue,b,0,b,1,0.8304668,None,,,,,,,,,,,,,0,3,3,9,,,,,111.5516668,,,,,,,,,,,,,,,,,111.5360581,111.8847202,112.6857345,112.6699083,,,,,,,,,,,,,,,,112.6705836,112.6857345,112.6857345,113.5213801,b,1,0.8304668,None,113.5224566,113.5360516,114.5216195,114.5366862,,,,,,,,,,,,,,,,,,,sub-204,1,2025-03-12_14h08.07.706,stroop_test,04.02.2024,60.09178419,2025-03-12 14h08.16.142645 +0100
,,,,4,4,0,,,,,rot,red,r,1,r,1,1.0244404,None,,,,,,,,,,,,,0,4,4,1,,,,,114.5366862,,,,,,,,,,,,,,,,,114.5221465,114.8706029,115.6719081,115.6552704,,,,,,,,,,,,,,,,115.6643155,115.6719081,115.6719081,116.7070196,r,1,1.0244404,None,116.7078951,116.7220838,117.7069446,117.7225756,,,,,,,,,,,,,,,,,,,sub-204,1,2025-03-12_14h08.07.706,stroop_test,04.02.2024,60.09178419,2025-03-12 14h08.16.142645 +0100
,,,,5,5,0,,,,,gelb,yellow,g,1,g,1,0.689428,None,,,,,,,,,,,,,0,5,5,10,,,,,117.7225756,,,,,,,,,,,,,,,,,117.7073841,118.9064787,119.7071889,119.6917667,,,,,,,,,,,,,,,,119.6978059,119.7071889,119.7071889,120.4096818,g,1,0.689428,None,120.4106328,120.4243072,121.4095735,121.4249908,,,,,,,,,,,,,,,,,,,sub-204,1,2025-03-12_14h08.07.706,stroop_test,04.02.2024,60.09178419,2025-03-12 14h08.16.142645 +0100
,,,,6,6,0,,,,,blau,blue,b,1,b,1,0.7298478,None,,,,,,,,,,,,,0,6,6,6,,,,,121.4249908,,,,,,,,,,,,,,,,,121.4101732,122.225482,123.0261746,123.0108596,,,,,,,,,,,,,,,,123.0165493,123.0261746,123.0261746,123.7613651,b,1,0.7298478,None,123.7621283,123.7763499,124.7617112,124.7771672,,,,,,,,,,,,,,,,,,,sub-204,1,2025-03-12_14h08.07.706,stroop_test,04.02.2024,60.09178419,2025-03-12 14h08.16.142645 +0100
,,,,7,7,0,,,,,blau,red,r,0,b,0,1.685154,None,,,,,,,,,,,,,0,7,7,4,,,,,124.7771672,,,,,,,,,,,,,,,,,124.7622356,124.8606718,125.6615121,125.6454755,,,,,,,,,,,,,,,,125.6463205,125.6615121,125.6615121,127.3642035,b,0,1.685154,None,127.3720214,127.38176,128.3798147,,,,,,,,,,,,,,,,,,,,sub-204,1,2025-03-12_14h08.07.706,stroop_test,04.02.2024,60.09178419,2025-03-12 14h08.16.142645 +0100
,,,,8,8,0,,,,,rot,blue,b,0,b,1,0.8724798,None,,,,,,,,,,,,,0,8,8,2,,,,,128.3962096,,,,,,,,,,,,,,,,,128.3803329,129.1636804,129.9642976,129.94859,,,,,,,,,,,,,,,,129.9540872,129.9642976,129.9642976,130.8496426,b,1,0.8724798,None,130.8571946,130.8693399,131.8657716,,,,,,,,,,,,,,,,,,,,sub-204,1,2025-03-12_14h08.07.706,stroop_test,04.02.2024,60.09178419,2025-03-12 14h08.16.142645 +0100
,,,,9,9,0,,,,,rot,yellow,g,0,g,1,1.9267742,None,,,,,,,,,,,,,0,9,9,3,,,,,131.8819035,,,,,,,,,,,,,,,,,131.8662712,132.6491966,133.4496117,133.4344171,,,,,,,,,,,,,,,,133.4352014,133.4496117,133.4496117,135.3872601,g,1,1.9267742,None,135.3881087,135.4014825,136.3864259,136.4020542,,,,,,,,,,,,,,,,,,,sub-204,1,2025-03-12_14h08.07.706,stroop_test,04.02.2024,60.09178419,2025-03-12 14h08.16.142645 +0100
,,,,10,10,0,,,,,rot,red,r,1,r,1,1.1037591,None,,,,,,,,,,,,,0,10,10,0,,,,,136.4020542,,,,,,,,,,,,,,,,,136.3869414,136.5019895,137.3028044,137.2871186,,,,,,,,,,,,,,,,137.2878686,137.3028044,137.3028044,138.4218518,r,1,1.1037591,None,138.4227744,138.4363759,139.4217043,139.4372119,,,,,,,,,,,,,,,,,,,sub-204,1,2025-03-12_14h08.07.706,stroop_test,04.02.2024,60.09178419,2025-03-12 14h08.16.142645 +0100
,,,,11,11,0,,,,,gelb,yellow,g,1,g,1,0.8252299,None,,,,,,,,,,,,,0,11,11,11,,,,,139.4372119,,,,,,,,,,,,,,,,,139.422219,140.6215203,141.4221298,141.4065882,,,,,,,,,,,,,,,,141.4129993,141.4221298,141.4221298,142.2583764,g,1,0.8252299,None,142.2590805,142.2724648,143.2579823,143.2729968,,,,,,,,,,,,,,,,,,,sub-204,1,2025-03-12_14h08.07.706,stroop_test,04.02.2024,60.09178419,2025-03-12 14h08.16.142645 +0100
,,,,12,0,1,,,,,blau,blue,b,1,b,1,0.4792107,None,,,,,,,,,,,,,1,0,12,6,,,,,143.2729968,,,,,,,,,,,,,,,,,143.2584588,144.4575362,145.2582208,145.2423391,,,,,,,,,,,,,,,,145.2472395,145.2582208,145.2582208,145.7432333,b,1,0.4792107,None,145.7439542,145.758235,146.7435423,146.7590182,,,,,,,,,,,,,,,,,,,sub-204,1,2025-03-12_14h08.07.706,stroop_test,04.02.2024,60.09178419,2025-03-12 14h08.16.142645 +0100
,,,,13,1,1,,,,,blau,yellow,g,0,g,1,1.503062,None,,,,,,,,,,,,,1,1,13,7,,,,,146.7590182,,,,,,,,,,,,,,,,,146.7442042,147.9435839,148.7437826,148.7279851,,,,,,,,,,,,,,,,148.7286331,148.7437826,148.7437826,150.2631872,g,1,1.503062,None,150.264273,150.2783903,151.2632727,151.2785915,,,,,,,,,,,,,,,,,,,sub-204,1,2025-03-12_14h08.07.706,stroop_test,04.02.2024,60.09178419,2025-03-12 14h08.16.142645 +0100
,,,,14,2,1,,,,,gelb,blue,b,0,b,1,0.6340956,None,,,,,,,,,,,,,1,2,14,9,,,,,151.2785915,,,,,,,,,,,,,,,,,151.2637536,152.4628849,153.2641881,153.2482047,,,,,,,,,,,,,,,,153.2543031,153.2641881,153.2641881,153.9158342,b,1,0.6340956,None,153.9170945,153.9305662,154.9159943,154.9316276,,,,,,,,,,,,,,,,,,,sub-204,1,2025-03-12_14h08.07.706,stroop_test,04.02.2024,60.09178419,2025-03-12 14h08.16.142645 +0100
,,,,15,3,1,,,,,gelb,yellow,g,1,g,1,0.7026854,None,,,,,,,,,,,,,1,3,15,11,,,,,154.9316276,,,,,,,,,,,,,,,,,154.9164352,155.0148562,155.814892,155.7997863,,,,,,,,,,,,,,,,155.800487,155.814892,155.814892,156.5343009,g,1,0.7026854,None,156.5351224,156.5488559,157.5346629,157.5494239,,,,,,,,,,,,,,,,,,,sub-204,1,2025-03-12_14h08.07.706,stroop_test,04.02.2024,60.09178419,2025-03-12 14h08.16.142645 +0100
,,,,16,4,1,,,,,rot,red,r,1,r,1,0.462287,None,,,,,,,,,,,,,1,4,16,1,,,,,157.5494239,,,,,,,,,,,,,,,,,157.5352637,158.7341471,159.5355354,159.5190289,,,,,,,,,,,,,,,,159.5255016,159.5355354,159.5355354,160.0035879,r,1,0.462287,None,160.0044136,160.0182874,161.0034977,161.01878,,,,,,,,,,,,,,,,,,,sub-204,1,2025-03-12_14h08.07.706,stroop_test,04.02.2024,60.09178419,2025-03-12 14h08.16.142645 +0100
,,,,17,5,1,,,,,rot,yellow,g,0,g,1,0.8076346,None,,,,,,,,,,,,,1,5,17,3,,,,,161.01878,,,,,,,,,,,,,,,,,161.0039546,161.3695012,162.1697741,162.1539987,,,,,,,,,,,,,,,,162.1547753,162.1697741,162.1697741,162.9894612,g,1,0.8076346,None,162.9902753,163.0036901,163.9883521,164.0041181,,,,,,,,,,,,,,,,,,,sub-204,1,2025-03-12_14h08.07.706,stroop_test,04.02.2024,60.09178419,2025-03-12 14h08.16.142645 +0100
,,,,18,6,1,,,,,gelb,yellow,g,1,g,1,0.7110144,None,,,,,,,,,,,,,1,6,18,10,,,,,164.0041181,,,,,,,,,,,,,,,,,163.9888474,164.8045198,165.6062522,165.5899557,,,,,,,,,,,,,,,,165.5962937,165.6062522,165.6062522,166.3252954,g,1,0.7110144,None,166.3262481,166.3392767,167.3246503,167.340025,,,,,,,,,,,,,,,,,,,sub-204,1,2025-03-12_14h08.07.706,stroop_test,04.02.2024,60.09178419,2025-03-12 14h08.16.142645 +0100
,,,,19,7,1,,,,,rot,red,r,1,r,1,0.6670314,None,,,,,,,,,,,,,1,7,19,0,,,,,167.340025,,,,,,,,,,,,,,,,,167.3250866,168.5404944,169.3411925,169.3259614,,,,,,,,,,,,,,,,169.3313544,169.3411925,169.3411925,170.0112651,r,1,0.6670314,None,170.0121236,170.025272,171.0100339,171.0258237,,,,,,,,,,,,,,,,,,,sub-204,1,2025-03-12_14h08.07.706,stroop_test,04.02.2024,60.09178419,2025-03-12 14h08.16.142645 +0100
,,,,20,8,1,,,,,rot,blue,b,0,b,1,0.7505822,None,,,,,,,,,,,,,1,8,20,2,,,,,171.0258237,,,,,,,,,,,,,,,,,171.0105638,171.125688,171.9265517,171.910805,,,,,,,,,,,,,,,,171.9115121,171.9265517,171.9265517,172.6799744,b,1,0.7505822,None,172.6808111,172.6936822,173.6787164,173.6940978,,,,,,,,,,,,,,,,,,,sub-204,1,2025-03-12_14h08.07.706,stroop_test,04.02.2024,60.09178419,2025-03-12 14h08.16.142645 +0100
,,,,21,9,1,,,,,blau,red,r,0,r,1,1.1425892,None,,,,,,,,,,,,,1,9,21,4,,,,,173.6940978,,,,,,,,,,,,,,,,,173.6792508,174.0443733,174.8450675,174.8293149,,,,,,,,,,,,,,,,174.8344876,174.8450675,174.8450675,175.9975201,r,1,1.1425892,None,175.998238,176.0126967,176.9979779,177.0132029,,,,,,,,,,,,,,,,,,,sub-204,1,2025-03-12_14h08.07.706,stroop_test,04.02.2024,60.09178419,2025-03-12 14h08.16.142645 +0100
,,,,22,10,1,,,,,blau,blue,b,1,b,1,0.7300245,None,,,,,,,,,,,,,1,10,22,5,,,,,177.0132029,,,,,,,,,,,,,,,,,176.9985068,177.7970405,178.5976279,178.5820074,,,,,,,,,,,,,,,,178.5828938,178.5976279,178.5976279,179.3338566,b,1,0.7300245,None,179.3347422,179.3479784,180.333219,180.3484614,,,,,,,,,,,,,,,,,,,sub-204,1,2025-03-12_14h08.07.706,stroop_test,04.02.2024,60.09178419,2025-03-12 14h08.16.142645 +0100
,,,,23,11,1,,,,,gelb,red,r,0,r,1,0.7866359,None,,,,,,,,,,,,,1,11,23,8,,,,,180.3484614,,,,,,,,,,,,,,,,,180.3336515,181.1493125,181.9499909,181.9344283,,,,,,,,,,,,,,,,181.9399818,181.9499909,181.9499909,182.752458,r,1,0.7866359,None,182.7533127,182.7669248,183.7522587,183.7681517,,,,,,,,,,,,,,,,,,,sub-204,1,2025-03-12_14h08.07.706,stroop_test,04.02.2024,60.09178419,2025-03-12 14h08.16.142645 +0100
,,,,,,,,,,,,,,,,,,,,,,,,,,,,,,,,,,,,,,,,,,,,,,,,,,,,,,,,,,,,,,,,,,,,,,,,,,,,,,,,,,,,,,,183.752456,183.7681517,183.7681517,188.7235063,space,4.9493048,None,,,,,,,,,,,,sub-204,1,2025-03-12_14h08.07.706,stroop_test,04.02.2024,60.09178419,2025-03-12 14h08.16.142645 +0100
,,,,0,0,0,,,,,,,,,,,,,blau,blue,b,1,b,1,0.7380657,None,,,,,,,,,0,0,0,6,188.749151,,,,,,,,,,,,,,,,,188.7442986,189.9384831,190.8194662,190.723794,,,,,,,,,,,,,,,,,,,,,,,,,,,,,,,,,,,190.8149254,190.8194662,190.8194662,191.5749877,b,1,0.7380657,None,,,,sub-204,1,2025-03-12_14h08.07.706,stroop_test,04.02.2024,60.09178419,2025-03-12 14h08.16.142645 +0100
,,,,1,1,0,,,,,,,,,,,,,gelb,yellow,g,1,g,1,1.0466091,None,,,,,,,,,0,1,1,10,191.5897429,,,,,,,,,,,,,,,,,191.5757958,191.6898642,192.4906304,192.4750088,,,,,,,,,,,,,,,,,,,,,,,,,,,,,,,,,,,192.4810913,192.4906304,192.4906304,193.5429283,g,1,1.0466091,None,,,,sub-204,1,2025-03-12_14h08.07.706,stroop_test,04.02.2024,60.09178419,2025-03-12 14h08.16.142645 +0100
,,,,2,2,0,,,,,,,,,,,,,gelb,red,r,0,r,1,0.8078938,None,,,,,,,,,0,2,2,8,193.557842,,,,,,,,,,,,,,,,,193.543512,194.358243,195.1588069,195.1436128,,,,,,,,,,,,,,,,,,,,,,,,,,,,,,,,,,,195.1447003,195.1588069,195.1588069,195.9783947,r,1,0.8078938,None,,,,sub-204,1,2025-03-12_14h08.07.706,stroop_test,04.02.2024,60.09178419,2025-03-12 14h08.16.142645 +0100
,,,,3,3,0,,,,,,,,,,,,,blau,red,r,0,r,1,0.7338728,None,,,,,,,,,0,3,3,4,195.9928154,,,,,,,,,,,,,,,,,195.9790412,196.3428925,197.1437039,197.1277099,,,,,,,,,,,,,,,,,,,,,,,,,,,,,,,,,,,197.133205,197.1437039,197.1437039,197.8806929,r,1,0.7338728,None,,,,sub-204,1,2025-03-12_14h08.07.706,stroop_test,04.02.2024,60.09178419,2025-03-12 14h08.16.142645 +0100
,,,,4,4,0,,,,,,,,,,,,,gelb,yellow,g,1,g,1,0.7631574,None,,,,,,,,,0,4,4,11,197.8940151,,,,,,,,,,,,,,,,,197.8812934,198.2444108,199.0448984,199.0298597,,,,,,,,,,,,,,,,,,,,,,,,,,,,,,,,,,,199.0353128,199.0448984,199.0448984,199.8139951,g,1,0.7631574,None,,,,sub-204,1,2025-03-12_14h08.07.706,stroop_test,04.02.2024,60.09178419,2025-03-12 14h08.16.142645 +0100
,,,,5,5,0,,,,,,,,,,,,,blau,yellow,g,0,g,1,0.687633,None,,,,,,,,,0,5,5,7,199.8286298,,,,,,,,,,,,,,,,,199.8145277,200.6297263,201.4299495,201.4143688,,,,,,,,,,,,,,,,,,,,,,,,,,,,,,,,,,,201.4192512,201.4299495,201.4299495,202.1322489,g,1,0.687633,None,,,,sub-204,1,2025-03-12_14h08.07.706,stroop_test,04.02.2024,60.09178419,2025-03-12 14h08.16.142645 +0100
,,,,6,6,0,,,,,,,,,,,,,rot,blue,b,0,b,1,0.5861235,None,,,,,,,,,0,6,6,2,202.1472428,,,,,,,,,,,,,,,,,202.1328123,202.2471005,203.0507917,203.0324276,,,,,,,,,,,,,,,,,,,,,,,,,,,,,,,,,,,203.039169,203.0507917,203.0507917,203.6508142,b,1,0.5861235,None,,,,sub-204,1,2025-03-12_14h08.07.706,stroop_test,04.02.2024,60.09178419,2025-03-12 14h08.16.142645 +0100
,,,,7,7,0,,,,,,,,,,,,,rot,red,r,1,r,1,0.611234,None,,,,,,,,,0,7,7,1,203.6650107,,,,,,,,,,,,,,,,,203.6513998,204.8658763,205.6663359,205.6507535,,,,,,,,,,,,,,,,,,,,,,,,,,,,,,,,,,,205.6516239,205.6663359,205.6663359,206.2855545,r,1,0.611234,None,,,,sub-204,1,2025-03-12_14h08.07.706,stroop_test,04.02.2024,60.09178419,2025-03-12 14h08.16.142645 +0100
,,,,8,8,0,,,,,,,,,,,,,rot,red,r,1,r,1,0.6569497,None,,,,,,,,,0,8,8,0,206.3004725,,,,,,,,,,,,,,,,,206.2863305,207.100551,207.9010612,207.8856134,,,,,,,,,,,,,,,,,,,,,,,,,,,,,,,,,,,207.8863932,207.9010612,207.9010612,208.5698655,r,1,0.6569497,None,,,,sub-204,1,2025-03-12_14h08.07.706,stroop_test,04.02.2024,60.09178419,2025-03-12 14h08.16.142645 +0100
,,,,9,9,0,,,,,,,,,,,,,rot,yellow,g,0,g,1,0.7023746,None,,,,,,,,,0,9,9,3,208.5849639,,,,,,,,,,,,,,,,,208.5704623,208.6846992,209.4852423,209.4697276,,,,,,,,,,,,,,,,,,,,,,,,,,,,,,,,,,,209.4704288,209.4852423,209.4852423,210.2043353,g,1,0.7023746,None,,,,sub-204,1,2025-03-12_14h08.07.706,stroop_test,04.02.2024,60.09178419,2025-03-12 14h08.16.142645 +0100
,,,,10,10,0,,,,,,,,,,,,,blau,blue,b,1,b,1,0.4862931,None,,,,,,,,,0,10,10,5,210.2191088,,,,,,,,,,,,,,,,,210.204849,211.4201467,212.220806,212.2053366,,,,,,,,,,,,,,,,,,,,,,,,,,,,,,,,,,,212.2112086,212.220806,212.220806,212.7227032,b,1,0.4862931,None,,,,sub-204,1,2025-03-12_14h08.07.706,stroop_test,04.02.2024,60.09178419,2025-03-12 14h08.16.142645 +0100
,,,,11,11,0,,,,,,,,,,,,,gelb,blue,b,0,b,1,0.8792429,None,,,,,,,,,0,11,11,9,212.7377899,,,,,,,,,,,,,,,,,212.7232856,212.8379172,213.638335,213.6227421,,,,,,,,,,,,,,,,,,,,,,,,,,,,,,,,,,,213.6285956,213.638335,213.638335,214.5244073,b,1,0.8792429,None,,,,sub-204,1,2025-03-12_14h08.07.706,stroop_test,04.02.2024,60.09178419,2025-03-12 14h08.16.142645 +0100
,,,,12,0,1,,,,,,,,,,,,,rot,red,r,1,r,1,0.7684675,None,,,,,,,,,1,0,12,1,214.5389745,,,,,,,,,,,,,,,,,214.5249289,214.8890449,215.6897892,215.6742091,,,,,,,,,,,,,,,,,,,,,,,,,,,,,,,,,,,215.6800156,215.6897892,215.6897892,216.4756062,r,1,0.7684675,None,,,,sub-204,1,2025-03-12_14h08.07.706,stroop_test,04.02.2024,60.09178419,2025-03-12 14h08.16.142645 +0100
,,,,13,1,1,,,,,,,,,,,,,rot,blue,b,0,b,1,0.7273411,None,,,,,,,,,1,1,13,2,216.4901073,,,,,,,,,,,,,,,,,216.4761806,216.8405145,217.640698,217.6249036,,,,,,,,,,,,,,,,,,,,,,,,,,,,,,,,,,,217.6255118,217.640698,217.640698,218.3770407,b,1,0.7273411,None,,,,sub-204,1,2025-03-12_14h08.07.706,stroop_test,04.02.2024,60.09178419,2025-03-12 14h08.16.142645 +0100
,,,,14,2,1,,,,,,,,,,,,,gelb,yellow,g,1,g,1,0.483751,None,,,,,,,,,1,2,14,10,218.3916469,,,,,,,,,,,,,,,,,218.3777246,219.1922756,219.992845,219.9769116,,,,,,,,,,,,,,,,,,,,,,,,,,,,,,,,,,,219.9828,219.992845,219.992845,220.479689,g,1,0.483751,None,,,,sub-204,1,2025-03-12_14h08.07.706,stroop_test,04.02.2024,60.09178419,2025-03-12 14h08.16.142645 +0100
,,,,15,3,1,,,,,,,,,,,,,blau,blue,b,1,b,1,0.7727469,None,,,,,,,,,1,3,15,6,220.4935088,,,,,,,,,,,,,,,,,220.4802238,220.8433945,221.6439683,221.6285628,,,,,,,,,,,,,,,,,,,,,,,,,,,,,,,,,,,221.6342903,221.6439683,221.6439683,222.4299995,b,1,0.7727469,None,,,,sub-204,1,2025-03-12_14h08.07.706,stroop_test,04.02.2024,60.09178419,2025-03-12 14h08.16.142645 +0100
,,,,16,4,1,,,,,,,,,,,,,gelb,blue,b,0,b,1,0.6614088,None,,,,,,,,,1,4,16,9,222.4441813,,,,,,,,,,,,,,,,,222.4306975,222.5447021,223.3454736,223.3297624,,,,,,,,,,,,,,,,,,,,,,,,,,,,,,,,,,,223.3356963,223.3454736,223.3454736,224.0145937,b,1,0.6614088,None,,,,sub-204,1,2025-03-12_14h08.07.706,stroop_test,04.02.2024,60.09178419,2025-03-12 14h08.16.142645 +0100
,,,,17,5,1,,,,,,,,,,,,,blau,red,r,0,r,1,0.7982544,None,,,,,,,,,1,5,17,4,224.0285027,,,,,,,,,,,,,,,,,224.0151713,224.1289058,224.9298157,224.914152,,,,,,,,,,,,,,,,,,,,,,,,,,,,,,,,,,,224.9209091,224.9298157,224.9298157,225.7318469,r,1,0.7982544,None,,,,sub-204,1,2025-03-12_14h08.07.706,stroop_test,04.02.2024,60.09178419,2025-03-12 14h08.16.142645 +0100
,,,,18,6,1,,,,,,,,,,,,,rot,red,r,1,r,1,0.6482699,None,,,,,,,,,1,6,18,0,225.7465962,,,,,,,,,,,,,,,,,225.7324155,226.5474875,227.3489231,227.3324967,,,,,,,,,,,,,,,,,,,,,,,,,,,,,,,,,,,227.3389505,227.3489231,227.3489231,228.0001257,r,1,0.6482699,None,,,,sub-204,1,2025-03-12_14h08.07.706,stroop_test,04.02.2024,60.09178419,2025-03-12 14h08.16.142645 +0100
,,,,19,7,1,,,,,,,,,,,,,blau,yellow,g,0,g,1,0.9821411,None,,,,,,,,,1,7,19,7,228.0150855,,,,,,,,,,,,,,,,,228.0006644,228.1150126,228.9156152,228.8997316,,,,,,,,,,,,,,,,,,,,,,,,,,,,,,,,,,,228.9048993,228.9156152,228.9156152,229.9015774,g,1,0.9821411,None,,,,sub-204,1,2025-03-12_14h08.07.706,stroop_test,04.02.2024,60.09178419,2025-03-12 14h08.16.142645 +0100
,,,,20,8,1,,,,,,,,,,,,,blau,blue,b,1,b,1,2.1601978,None,,,,,,,,,1,8,20,5,229.916251,,,,,,,,,,,,,,,,,229.9021608,230.2666133,231.067175,231.0517072,,,,,,,,,,,,,,,,,,,,,,,,,,,,,,,,,,,231.0523391,231.067175,231.067175,233.237145,b,1,2.1601978,None,,,,sub-204,1,2025-03-12_14h08.07.706,stroop_test,04.02.2024,60.09178419,2025-03-12 14h08.16.142645 +0100
,,,,21,9,1,,,,,,,,,,,,,gelb,red,r,0,r,1,0.9068233,None,,,,,,,,,1,9,21,8,233.2518968,,,,,,,,,,,,,,,,,233.2377762,233.6021646,234.4023063,234.386926,,,,,,,,,,,,,,,,,,,,,,,,,,,,,,,,,,,234.392961,234.4023063,234.4023063,235.321746,r,1,0.9068233,None,,,,sub-204,1,2025-03-12_14h08.07.706,stroop_test,04.02.2024,60.09178419,2025-03-12 14h08.16.142645 +0100
,,,,22,10,1,,,,,,,,,,,,,gelb,yellow,g,1,g,1,0.5903746,None,,,,,,,,,1,10,22,11,235.3365936,,,,,,,,,,,,,,,,,235.3222551,235.6866211,236.48735,236.4717941,,,,,,,,,,,,,,,,,,,,,,,,,,,,,,,,,,,236.472762,236.48735,236.48735,237.0901138,g,1,0.5903746,None,,,,sub-204,1,2025-03-12_14h08.07.706,stroop_test,04.02.2024,60.09178419,2025-03-12 14h08.16.142645 +0100
,,,,23,11,1,,,,,,,,,,,,,rot,yellow,g,0,g,1,0.9018934,None,,,,,,,,,1,11,23,3,237.1047221,,,,,,,,,,,,,,,,,237.090744,237.2045979,238.0058103,237.9894263,,,,,,,,,,,,,,,,,,,,,,,,,,,,,,,,,,,237.996197,238.0058103,238.0058103,238.9241377,g,1,0.9018934,None,,,,sub-204,1,2025-03-12_14h08.07.706,stroop_test,04.02.2024,60.09178419,2025-03-12 14h08.16.142645 +0100
,,,,24,0,2,,,,,,,,,,,,,gelb,yellow,g,1,g,1,0.7952756,None,,,,,,,,,2,0,24,11,238.9393592,,,,,,,,,,,,,,,,,238.924651,239.03881,239.8413553,239.8241178,,,,,,,,,,,,,,,,,,,,,,,,,,,,,,,,,,,239.8301655,239.8413553,239.8413553,240.6419269,g,1,0.7952756,None,,,,sub-204,1,2025-03-12_14h08.07.706,stroop_test,04.02.2024,60.09178419,2025-03-12 14h08.16.142645 +0100
,,,,25,1,2,,,,,,,,,,,,,gelb,blue,b,0,b,1,1.1909806,None,,,,,,,,,2,1,25,9,240.6571235,,,,,,,,,,,,,,,,,240.6425354,241.0070697,241.8076608,241.792572,,,,,,,,,,,,,,,,,,,,,,,,,,,,,,,,,,,241.79324,241.8076608,241.8076608,243.0105797,b,1,1.1909806,None,,,,sub-204,1,2025-03-12_14h08.07.706,stroop_test,04.02.2024,60.09178419,2025-03-12 14h08.16.142645 +0100
,,,,26,2,2,,,,,,,,,,,,,blau,blue,b,1,b,1,0.6327491,None,,,,,,,,,2,2,26,5,243.0255033,,,,,,,,,,,,,,,,,243.0112581,243.1250624,243.9256412,243.910204,,,,,,,,,,,,,,,,,,,,,,,,,,,,,,,,,,,243.9153741,243.9256412,243.9256412,244.5623507,b,1,0.6327491,None,,,,sub-204,1,2025-03-12_14h08.07.706,stroop_test,04.02.2024,60.09178419,2025-03-12 14h08.16.142645 +0100
,,,,27,3,2,,,,,,,,,,,,,gelb,red,r,0,r,1,0.5608242,None,,,,,,,,,2,3,27,8,244.5763528,,,,,,,,,,,,,,,,,244.5628567,245.376627,246.1771764,246.1616306,,,,,,,,,,,,,,,,,,,,,,,,,,,,,,,,,,,246.1650969,246.1771764,246.1771764,246.7460876,r,1,0.5608242,None,,,,sub-204,1,2025-03-12_14h08.07.706,stroop_test,04.02.2024,60.09178419,2025-03-12 14h08.16.142645 +0100
,,,,28,4,2,,,,,,,,,,,,,gelb,yellow,g,1,g,1,0.5659058,None,,,,,,,,,2,4,28,10,246.7611993,,,,,,,,,,,,,,,,,246.7466291,247.5618916,248.362461,248.3471332,,,,,,,,,,,,,,,,,,,,,,,,,,,,,,,,,,,248.3479584,248.362461,248.362461,248.93112,g,1,0.5659058,None,,,,sub-204,1,2025-03-12_14h08.07.706,stroop_test,04.02.2024,60.09178419,2025-03-12 14h08.16.142645 +0100
,,,,29,5,2,,,,,,,,,,,,,blau,blue,b,1,b,1,0.6516944,None,,,,,,,,,2,5,29,6,248.9462106,,,,,,,,,,,,,,,,,248.9317246,249.2965254,250.0969995,250.0811853,,,,,,,,,,,,,,,,,,,,,,,,,,,,,,,,,,,250.0869065,250.0969995,250.0969995,250.7655592,b,1,0.6516944,None,,,,sub-204,1,2025-03-12_14h08.07.706,stroop_test,04.02.2024,60.09178419,2025-03-12 14h08.16.142645 +0100
,,,,30,6,2,,,,,,,,,,,,,blau,yellow,g,0,g,1,1.0373493,None,,,,,,,,,2,6,30,7,250.7809128,,,,,,,,,,,,,,,,,250.7660647,250.880752,251.6808672,251.6656633,,,,,,,,,,,,,,,,,,,,,,,,,,,,,,,,,,,251.6663737,251.6808672,251.6808672,252.7338341,g,1,1.0373493,None,,,,sub-204,1,2025-03-12_14h08.07.706,stroop_test,04.02.2024,60.09178419,2025-03-12 14h08.16.142645 +0100
,,,,31,7,2,,,,,,,,,,,,,blau,red,r,0,r,1,0.6884982,None,,,,,,,,,2,7,31,4,252.7486923,,,,,,,,,,,,,,,,,252.7344668,253.9492572,254.7501347,254.7345155,,,,,,,,,,,,,,,,,,,,,,,,,,,,,,,,,,,254.7354016,254.7501347,254.7501347,255.4527865,r,1,0.6884982,None,,,,sub-204,1,2025-03-12_14h08.07.706,stroop_test,04.02.2024,60.09178419,2025-03-12 14h08.16.142645 +0100
,,,,32,8,2,,,,,,,,,,,,,rot,red,r,1,r,1,0.6798365,None,,,,,,,,,2,8,32,0,255.4672447,,,,,,,,,,,,,,,,,255.4533158,256.6677726,257.4686451,257.4526397,,,,,,,,,,,,,,,,,,,,,,,,,,,,,,,,,,,257.4593291,257.4686451,257.4686451,258.1538585,r,1,0.6798365,None,,,,sub-204,1,2025-03-12_14h08.07.706,stroop_test,04.02.2024,60.09178419,2025-03-12 14h08.16.142645 +0100
,,,,33,9,2,,,,,,,,,,,,,rot,blue,b,0,b,1,0.8653567,None,,,,,,,,,2,9,33,2,258.1687247,,,,,,,,,,,,,,,,,258.1544319,258.9529555,259.7534393,259.7379582,,,,,,,,,,,,,,,,,,,,,,,,,,,,,,,,,,,259.7386403,259.7534393,259.7534393,260.6225765,b,1,0.8653567,None,,,,sub-204,1,2025-03-12_14h08.07.706,stroop_test,04.02.2024,60.09178419,2025-03-12 14h08.16.142645 +0100
,,,,34,10,2,,,,,,,,,,,,,rot,red,r,1,r,1,0.7405514,None,,,,,,,,,2,10,34,1,260.6375678,,,,,,,,,,,,,,,,,260.6231466,261.4379643,262.2385758,262.2228517,,,,,,,,,,,,,,,,,,,,,,,,,,,,,,,,,,,262.2235551,262.2385758,262.2385758,262.9907726,r,1,0.7405514,None,,,,sub-204,1,2025-03-12_14h08.07.706,stroop_test,04.02.2024,60.09178419,2025-03-12 14h08.16.142645 +0100
,,,,35,11,2,,,,,,,,,,,,,rot,yellow,g,0,g,1,0.8428999,None,,,,,,,,,2,11,35,3,263.0056862,,,,,,,,,,,,,,,,,262.9913496,263.1058742,263.9062828,263.8907976,,,,,,,,,,,,,,,,,,,,,,,,,,,,,,,,,,,263.8915113,263.9062828,263.9062828,264.7592085,g,1,0.8428999,None,,,,sub-204,1,2025-03-12_14h08.07.706,stroop_test,04.02.2024,60.09178419,2025-03-12 14h08.16.142645 +0100
,,,,36,0,3,,,,,,,,,,,,,blau,blue,b,1,b,1,0.7140774,None,,,,,,,,,3,0,36,6,264.7736214,,,,,,,,,,,,,,,,,264.7598217,265.5737303,266.374242,266.3591927,,,,,,,,,,,,,,,,,,,,,,,,,,,,,,,,,,,266.3656185,266.374242,266.374242,267.093554,b,1,0.7140774,None,,,,sub-204,1,2025-03-12_14h08.07.706,stroop_test,04.02.2024,60.09178419,2025-03-12 14h08.16.142645 +0100
,,,,37,1,3,,,,,,,,,,,,,rot,yellow,g,0,g,1,0.8794891,None,,,,,,,,,3,1,37,3,267.1083154,,,,,,,,,,,,,,,,,267.0941247,267.2082565,268.0093923,267.9936769,,,,,,,,,,,,,,,,,,,,,,,,,,,,,,,,,,,268.0016791,268.0093923,268.0093923,268.8949036,g,1,0.8794891,None,,,,sub-204,1,2025-03-12_14h08.07.706,stroop_test,04.02.2024,60.09178419,2025-03-12 14h08.16.142645 +0100
,,,,38,2,3,,,,,,,,,,,,,blau,blue,b,1,b,1,0.6058591,None,,,,,,,,,3,2,38,5,268.9097004,,,,,,,,,,,,,,,,,268.8954143,270.1103474,270.9129062,270.8959053,,,,,,,,,,,,,,,,,,,,,,,,,,,,,,,,,,,270.9043797,270.9129062,270.9129062,271.5305029,b,1,0.6058591,None,,,,sub-204,1,2025-03-12_14h08.07.706,stroop_test,04.02.2024,60.09178419,2025-03-12 14h08.16.142645 +0100
,,,,39,3,3,,,,,,,,,,,,,blau,red,r,0,r,1,0.6826438,None,,,,,,,,,3,3,39,4,271.5449177,,,,,,,,,,,,,,,,,271.5312943,271.8948559,272.69554,272.6798214,,,,,,,,,,,,,,,,,,,,,,,,,,,,,,,,,,,272.6804615,272.69554,272.69554,273.3816011,r,1,0.6826438,None,,,,sub-204,1,2025-03-12_14h08.07.706,stroop_test,04.02.2024,60.09178419,2025-03-12 14h08.16.142645 +0100
,,,,40,4,3,,,,,,,,,,,,,rot,blue,b,0,b,1,0.5606739,None,,,,,,,,,3,4,40,2,273.3964179,,,,,,,,,,,,,,,,,273.3822021,274.1964839,274.9972797,274.9818224,,,,,,,,,,,,,,,,,,,,,,,,,,,,,,,,,,,274.9874945,274.9972797,274.9972797,275.5660471,b,1,0.5606739,None,,,,sub-204,1,2025-03-12_14h08.07.706,stroop_test,04.02.2024,60.09178419,2025-03-12 14h08.16.142645 +0100
,,,,41,5,3,,,,,,,,,,,,,gelb,blue,b,0,b,1,2.0167115,None,,,,,,,,,3,5,41,9,275.5809386,,,,,,,,,,,,,,,,,275.566704,276.3817457,277.1819067,277.1663373,,,,,,,,,,,,,,,,,,,,,,,,,,,,,,,,,,,277.173145,277.1819067,277.1819067,279.2016745,b,1,2.0167115,None,,,,sub-204,1,2025-03-12_14h08.07.706,stroop_test,04.02.2024,60.09178419,2025-03-12 14h08.16.142645 +0100
,,,,42,6,3,,,,,,,,,,,,,blau,yellow,g,0,g,1,0.9306545,None,,,,,,,,,3,6,42,7,279.2166291,,,,,,,,,,,,,,,,,279.2021768,279.5668807,280.3672816,280.3521669,,,,,,,,,,,,,,,,,,,,,,,,,,,,,,,,,,,280.3579043,280.3672816,280.3672816,281.3030432,g,1,0.9306545,None,,,,sub-204,1,2025-03-12_14h08.07.706,stroop_test,04.02.2024,60.09178419,2025-03-12 14h08.16.142645 +0100
,,,,43,7,3,,,,,,,,,,,,,gelb,yellow,g,1,g,1,0.7092768,None,,,,,,,,,3,7,43,10,281.3181589,,,,,,,,,,,,,,,,,281.3035512,282.1187888,282.9193341,282.9038114,,,,,,,,,,,,,,,,,,,,,,,,,,,,,,,,,,,282.9095892,282.9193341,282.9193341,283.6380251,g,1,0.7092768,None,,,,sub-204,1,2025-03-12_14h08.07.706,stroop_test,04.02.2024,60.09178419,2025-03-12 14h08.16.142645 +0100
,,,,44,8,3,,,,,,,,,,,,,rot,red,r,1,r,1,0.6936491,None,,,,,,,,,3,8,44,1,283.6528829,,,,,,,,,,,,,,,,,283.6386998,284.0033895,284.8048454,284.7880259,,,,,,,,,,,,,,,,,,,,,,,,,,,,,,,,,,,284.7946646,284.8048454,284.8048454,285.5061032,r,1,0.6936491,None,,,,sub-204,1,2025-03-12_14h08.07.706,stroop_test,04.02.2024,60.09178419,2025-03-12 14h08.16.142645 +0100
,,,,45,9,3,,,,,,,,,,,,,gelb,red,r,0,r,1,0.6450593,None,,,,,,,,,3,9,45,8,285.5208776,,,,,,,,,,,,,,,,,285.5068045,286.3218515,287.1231551,287.1068225,,,,,,,,,,,,,,,,,,,,,,,,,,,,,,,,,,,287.1131697,287.1231551,287.1231551,287.7748569,r,1,0.6450593,None,,,,sub-204,1,2025-03-12_14h08.07.706,stroop_test,04.02.2024,60.09178419,2025-03-12 14h08.16.142645 +0100
,,,,46,10,3,,,,,,,,,,,,,rot,red,r,1,r,1,0.8489987,None,,,,,,,,,3,10,46,0,287.789372,,,,,,,,,,,,,,,,,287.7754404,287.8894994,288.6897996,288.6739561,,,,,,,,,,,,,,,,,,,,,,,,,,,,,,,,,,,288.6796561,288.6897996,288.6897996,289.5425162,r,1,0.8489987,None,,,,sub-204,1,2025-03-12_14h08.07.706,stroop_test,04.02.2024,60.09178419,2025-03-12 14h08.16.142645 +0100
,,,,47,11,3,,,,,,,,,,,,,gelb,yellow,g,1,g,1,0.7181078,None,,,,,,,,,3,11,47,11,289.5574449,,,,,,,,,,,,,,,,,289.5430934,290.3579374,291.159722,291.143356,,,,,,,,,,,,,,,,,,,,,,,,,,,,,,,,,,,291.1494559,291.159722,291.159722,291.8938204,g,1,0.7181078,None,,,,sub-204,1,2025-03-12_14h08.07.706,stroop_test,04.02.2024,60.09178419,2025-03-12 14h08.16.142645 +0100
,,,,48,0,4,,,,,,,,,,,,,rot,yellow,g,0,g,1,0.6496208,None,,,,,,,,,4,0,48,3,291.9090683,,,,,,,,,,,,,,,,,291.8943579,292.7093959,293.5097015,293.4944775,,,,,,,,,,,,,,,,,,,,,,,,,,,,,,,,,,,293.5027683,293.5097015,293.5097015,294.1620807,g,1,0.6496208,None,,,,sub-204,1,2025-03-12_14h08.07.706,stroop_test,04.02.2024,60.09178419,2025-03-12 14h08.16.142645 +0100
,,,,49,1,4,,,,,,,,,,,,,blau,blue,b,1,b,1,0.5906603,None,,,,,,,,,4,1,49,6,294.1769356,,,,,,,,,,,,,,,,,294.1626831,294.5272834,295.3279442,295.3122343,,,,,,,,,,,,,,,,,,,,,,,,,,,,,,,,,,,295.3181041,295.3279442,295.3279442,295.9299712,b,1,0.5906603,None,,,,sub-204,1,2025-03-12_14h08.07.706,stroop_test,04.02.2024,60.09178419,2025-03-12 14h08.16.142645 +0100
,,,,50,2,4,,,,,,,,,,,,,gelb,red,r,0,r,1,0.6824789,None,,,,,,,,,4,2,50,8,295.9452676,,,,,,,,,,,,,,,,,295.9305546,296.2952426,297.0955145,297.0802569,,,,,,,,,,,,,,,,,,,,,,,,,,,,,,,,,,,297.0854818,297.0955145,297.0955145,297.7818131,r,1,0.6824789,None,,,,sub-204,1,2025-03-12_14h08.07.706,stroop_test,04.02.2024,60.09178419,2025-03-12 14h08.16.142645 +0100
,,,,51,3,4,,,,,,,,,,,,,blau,yellow,g,0,g,1,0.6716573,None,,,,,,,,,4,3,51,7,297.7966124,,,,,,,,,,,,,,,,,297.7825278,298.5968429,299.3974518,299.3819398,,,,,,,,,,,,,,,,,,,,,,,,,,,,,,,,,,,299.3872637,299.3974518,299.3974518,300.0830495,g,1,0.6716573,None,,,,sub-204,1,2025-03-12_14h08.07.706,stroop_test,04.02.2024,60.09178419,2025-03-12 14h08.16.142645 +0100
,,,,52,4,4,,,,,,,,,,,,,rot,blue,b,0,b,1,0.8699973,None,,,,,,,,,4,4,52,2,300.0976582,,,,,,,,,,,,,,,,,300.0836474,300.1979301,300.9984209,300.9830478,,,,,,,,,,,,,,,,,,,,,,,,,,,,,,,,,,,300.9893397,300.9984209,300.9984209,301.8845945,b,1,0.8699973,None,,,,sub-204,1,2025-03-12_14h08.07.706,stroop_test,04.02.2024,60.09178419,2025-03-12 14h08.16.142645 +0100
,,,,53,5,4,,,,,,,,,,,,,gelb,blue,b,0,b,1,0.7582809,None,,,,,,,,,4,5,53,9,301.8989617,,,,,,,,,,,,,,,,,301.885182,302.249402,303.0496495,303.0342761,,,,,,,,,,,,,,,,,,,,,,,,,,,,,,,,,,,303.0399592,303.0496495,303.0496495,303.8190344,b,1,0.7582809,None,,,,sub-204,1,2025-03-12_14h08.07.706,stroop_test,04.02.2024,60.09178419,2025-03-12 14h08.16.142645 +0100
,,,,54,6,4,,,,,,,,,,,,,gelb,yellow,g,1,g,1,0.6830739,None,,,,,,,,,4,6,54,10,303.8336705,,,,,,,,,,,,,,,,,303.8196754,304.6345548,305.4348996,305.4192436,,,,,,,,,,,,,,,,,,,,,,,,,,,,,,,,,,,305.4199976,305.4348996,305.4348996,306.1216167,g,1,0.6830739,None,,,,sub-204,1,2025-03-12_14h08.07.706,stroop_test,04.02.2024,60.09178419,2025-03-12 14h08.16.142645 +0100
,,,,55,7,4,,,,,,,,,,,,,rot,red,r,1,r,1,0.4910926,None,,,,,,,,,4,7,55,0,306.1352443,,,,,,,,,,,,,,,,,306.1221879,306.485582,307.2866679,307.2702276,,,,,,,,,,,,,,,,,,,,,,,,,,,,,,,,,,,307.2762219,307.2866679,307.2866679,307.7878467,r,1,0.4910926,None,,,,sub-204,1,2025-03-12_14h08.07.706,stroop_test,04.02.2024,60.09178419,2025-03-12 14h08.16.142645 +0100
,,,,56,8,4,,,,,,,,,,,,,rot,red,r,1,r,1,0.6903191,None,,,,,,,,,4,8,56,1,307.8025614,,,,,,,,,,,,,,,,,307.7884549,308.9874428,309.7878147,309.7719305,,,,,,,,,,,,,,,,,,,,,,,,,,,,,,,,,,,309.7726259,309.7878147,309.7878147,310.4902568,r,1,0.6903191,None,,,,sub-204,1,2025-03-12_14h08.07.706,stroop_test,04.02.2024,60.09178419,2025-03-12 14h08.16.142645 +0100
,,,,57,9,4,,,,,,,,,,,,,gelb,yellow,g,1,g,1,0.4625593,None,,,,,,,,,4,9,57,11,310.5047955,,,,,,,,,,,,,,,,,310.4907907,311.3053385,312.1059485,312.09043,,,,,,,,,,,,,,,,,,,,,,,,,,,,,,,,,,,312.0966121,312.1059485,312.1059485,312.5750575,g,1,0.4625593,None,,,,sub-204,1,2025-03-12_14h08.07.706,stroop_test,04.02.2024,60.09178419,2025-03-12 14h08.16.142645 +0100
,,,,58,10,4,,,,,,,,,,,,,blau,blue,b,1,b,1,0.5740602,None,,,,,,,,,4,10,58,5,312.5897459,,,,,,,,,,,,,,,,,312.5758816,313.7904352,314.5937095,314.5755235,,,,,,,,,,,,,,,,,,,,,,,,,,,,,,,,,,,314.5829324,314.5937095,314.5937095,315.1768205,b,1,0.5740602,None,,,,sub-204,1,2025-03-12_14h08.07.706,stroop_test,04.02.2024,60.09178419,2025-03-12 14h08.16.142645 +0100
,,,,59,11,4,,,,,,,,,,,,,blau,red,r,0,r,1,0.7449748,None,,,,,,,,,4,11,59,4,315.1915731,,,,,,,,,,,,,,,,,315.1773724,316.3925995,317.1926512,317.1771389,,,,,,,,,,,,,,,,,,,,,,,,,,,,,,,,,,,317.1777721,317.1926512,317.1926512,317.9448467,r,1,0.7449748,None,,,,sub-204,1,2025-03-12_14h08.07.706,stroop_test,04.02.2024,60.09178419,2025-03-12 14h08.16.142645 +0100
,,,,60,0,5,,,,,,,,,,,,,gelb,yellow,g,1,g,1,0.9485357,None,,,,,,,,,5,0,60,11,317.9600552,,,,,,,,,,,,,,,,,317.9454344,318.3106105,319.1107048,319.095305,,,,,,,,,,,,,,,,,,,,,,,,,,,,,,,,,,,319.1014909,319.1107048,319.1107048,320.0638742,g,1,0.9485357,None,,,,sub-204,1,2025-03-12_14h08.07.706,stroop_test,04.02.2024,60.09178419,2025-03-12 14h08.16.142645 +0100
,,,,61,1,5,,,,,,,,,,,,,rot,red,r,1,r,1,0.9083163,None,,,,,,,,,5,1,61,1,320.078148,,,,,,,,,,,,,,,,,320.0647866,320.4286288,321.229238,321.2132503,,,,,,,,,,,,,,,,,,,,,,,,,,,,,,,,,,,321.2195468,321.229238,321.229238,322.1480772,r,1,0.9083163,None,,,,sub-204,1,2025-03-12_14h08.07.706,stroop_test,04.02.2024,60.09178419,2025-03-12 14h08.16.142645 +0100
,,,,62,2,5,,,,,,,,,,,,,rot,red,r,1,r,1,0.6150266,None,,,,,,,,,5,2,62,0,322.1627826,,,,,,,,,,,,,,,,,322.1488334,322.5130386,323.3136788,323.2979026,,,,,,,,,,,,,,,,,,,,,,,,,,,,,,,,,,,323.2987833,323.3136788,323.3136788,323.9331342,r,1,0.6150266,None,,,,sub-204,1,2025-03-12_14h08.07.706,stroop_test,04.02.2024,60.09178419,2025-03-12 14h08.16.142645 +0100
,,,,63,3,5,,,,,,,,,,,,,rot,blue,b,0,b,1,0.6396319,None,,,,,,,,,5,3,63,2,323.9477329,,,,,,,,,,,,,,,,,323.9337627,324.7480662,325.5487023,325.5333127,,,,,,,,,,,,,,,,,,,,,,,,,,,,,,,,,,,325.5339738,325.5487023,325.5487023,326.200847,b,1,0.6396319,None,,,,sub-204,1,2025-03-12_14h08.07.706,stroop_test,04.02.2024,60.09178419,2025-03-12 14h08.16.142645 +0100
,,,,64,4,5,,,,,,,,,,,,,rot,yellow,g,0,g,1,0.459168,None,,,,,,,,,5,4,64,3,326.2157318,,,,,,,,,,,,,,,,,326.2014665,327.3996509,328.200372,328.1848291,,,,,,,,,,,,,,,,,,,,,,,,,,,,,,,,,,,328.1855843,328.200372,328.200372,328.6699943,g,1,0.459168,None,,,,sub-204,1,2025-03-12_14h08.07.706,stroop_test,04.02.2024,60.09178419,2025-03-12 14h08.16.142645 +0100
,,,,65,5,5,,,,,,,,,,,,,gelb,yellow,g,1,g,1,0.6322999,None,,,,,,,,,5,5,65,10,328.6839124,,,,,,,,,,,,,,,,,328.6707331,329.884862,330.6861453,330.6696544,,,,,,,,,,,,,,,,,,,,,,,,,,,,,,,,,,,330.6761624,330.6861453,330.6861453,331.3217082,g,1,0.6322999,None,,,,sub-204,1,2025-03-12_14h08.07.706,stroop_test,04.02.2024,60.09178419,2025-03-12 14h08.16.142645 +0100
,,,,66,6,5,,,,,,,,,,,,,gelb,red,r,0,r,1,0.7815463,None,,,,,,,,,5,6,66,8,331.3361033,,,,,,,,,,,,,,,,,331.3222681,332.5365834,333.3373702,333.3218263,,,,,,,,,,,,,,,,,,,,,,,,,,,,,,,,,,,333.3226772,333.3373702,333.3373702,334.1234342,r,1,0.7815463,None,,,,sub-204,1,2025-03-12_14h08.07.706,stroop_test,04.02.2024,60.09178419,2025-03-12 14h08.16.142645 +0100
,,,,67,7,5,,,,,,,,,,,,,blau,red,r,0,r,1,1.029695,None,,,,,,,,,5,7,67,4,334.1378842,,,,,,,,,,,,,,,,,334.1240882,335.3387065,336.1390819,336.1236468,,,,,,,,,,,,,,,,,,,,,,,,,,,,,,,,,,,336.1288898,336.1390819,336.1390819,337.1760983,r,1,1.029695,None,,,,sub-204,1,2025-03-12_14h08.07.706,stroop_test,04.02.2024,60.09178419,2025-03-12 14h08.16.142645 +0100
,,,,68,8,5,,,,,,,,,,,,,blau,yellow,g,0,g,1,0.8175746,None,,,,,,,,,5,8,68,7,337.1899009,,,,,,,,,,,,,,,,,337.1767084,338.3905378,339.1909814,339.1755496,,,,,,,,,,,,,,,,,,,,,,,,,,,,,,,,,,,339.1761992,339.1909814,339.1909814,340.0117235,g,1,0.8175746,None,,,,sub-204,1,2025-03-12_14h08.07.706,stroop_test,04.02.2024,60.09178419,2025-03-12 14h08.16.142645 +0100
,,,,69,9,5,,,,,,,,,,,,,gelb,blue,b,0,b,1,0.7623626,None,,,,,,,,,5,9,69,9,340.025526,,,,,,,,,,,,,,,,,340.0123285,340.825906,341.6265249,341.6106803,,,,,,,,,,,,,,,,,,,,,,,,,,,,,,,,,,,341.6163833,341.6265249,341.6265249,342.3958513,b,1,0.7623626,None,,,,sub-204,1,2025-03-12_14h08.07.706,stroop_test,04.02.2024,60.09178419,2025-03-12 14h08.16.142645 +0100
,,,,70,10,5,,,,,,,,,,,,,blau,blue,b,1,b,1,0.5977299,None,,,,,,,,,5,10,70,5,342.4102884,,,,,,,,,,,,,,,,,342.3964323,343.2107759,344.0114771,343.9958087,,,,,,,,,,,,,,,,,,,,,,,,,,,,,,,,,,,344.002282,344.0114771,344.0114771,344.6136457,b,1,0.5977299,None,,,,sub-204,1,2025-03-12_14h08.07.706,stroop_test,04.02.2024,60.09178419,2025-03-12 14h08.16.142645 +0100
,,,,71,11,5,,,,,,,,,,,,,blau,blue,b,1,b,1,0.6602006,None,,,,,,,,,5,11,71,6,344.6286408,,,,,,,,,,,,,,,,,344.6144859,345.4289762,346.2296798,346.2136205,,,,,,,,,,,,,,,,,,,,,,,,,,,,,,,,,,,346.2142763,346.2296798,346.2296798,346.8985799,b,1,0.6602006,None,,,,sub-204,1,2025-03-12_14h08.07.706,stroop_test,04.02.2024,60.09178419,2025-03-12 14h08.16.142645 +0100
,,,,72,0,6,,,,,,,,,,,,,rot,blue,b,0,b,1,0.6556953,None,,,,,,,,,6,0,72,2,346.9131998,,,,,,,,,,,,,,,,,346.8990861,347.263666,348.0639761,348.048441,,,,,,,,,,,,,,,,,,,,,,,,,,,,,,,,,,,348.0539813,348.0639761,348.0639761,348.7334658,b,1,0.6556953,None,,,,sub-204,1,2025-03-12_14h08.07.706,stroop_test,04.02.2024,60.09178419,2025-03-12 14h08.16.142645 +0100
,,,,73,1,6,,,,,,,,,,,,,gelb,red,r,0,r,1,0.5802863,None,,,,,,,,,6,1,73,8,348.7477461,,,,,,,,,,,,,,,,,348.7340166,349.5485604,350.3488549,350.3334613,,,,,,,,,,,,,,,,,,,,,,,,,,,,,,,,,,,350.3401356,350.3488549,350.3488549,350.9345968,r,1,0.5802863,None,,,,sub-204,1,2025-03-12_14h08.07.706,stroop_test,04.02.2024,60.09178419,2025-03-12 14h08.16.142645 +0100
,,,,74,2,6,,,,,,,,,,,,,gelb,blue,b,0,b,1,0.6683881,None,,,,,,,,,6,2,74,9,350.9491846,,,,,,,,,,,,,,,,,350.9353149,351.0496291,351.8503166,351.834711,,,,,,,,,,,,,,,,,,,,,,,,,,,,,,,,,,,351.8356784,351.8503166,351.8503166,352.5355172,b,1,0.6683881,None,,,,sub-204,1,2025-03-12_14h08.07.706,stroop_test,04.02.2024,60.09178419,2025-03-12 14h08.16.142645 +0100
,,,,75,3,6,,,,,,,,,,,,,gelb,yellow,g,1,g,1,0.6782293,None,,,,,,,,,6,3,75,11,352.5505861,,,,,,,,,,,,,,,,,352.5361118,352.9006403,353.701113,353.6860406,,,,,,,,,,,,,,,,,,,,,,,,,,,,,,,,,,,353.6868212,353.701113,353.701113,354.3872001,g,1,0.6782293,None,,,,sub-204,1,2025-03-12_14h08.07.706,stroop_test,04.02.2024,60.09178419,2025-03-12 14h08.16.142645 +0100
,,,,76,4,6,,,,,,,,,,,,,blau,red,r,0,r,1,0.5660332,None,,,,,,,,,6,4,76,4,354.4016041,,,,,,,,,,,,,,,,,354.3878384,355.2028301,356.0032729,355.9877607,,,,,,,,,,,,,,,,,,,,,,,,,,,,,,,,,,,355.9921816,356.0032729,356.0032729,356.5732769,r,1,0.5660332,None,,,,sub-204,1,2025-03-12_14h08.07.706,stroop_test,04.02.2024,60.09178419,2025-03-12 14h08.16.142645 +0100
,,,,77,5,6,,,,,,,,,,,,,rot,red,r,1,r,1,0.8018326,None,,,,,,,,,6,5,77,1,356.5864166,,,,,,,,,,,,,,,,,356.5738277,356.6869053,357.4869874,357.4718291,,,,,,,,,,,,,,,,,,,,,,,,,,,,,,,,,,,357.4774859,357.4869874,357.4869874,358.3064138,r,1,0.8018326,None,,,,sub-204,1,2025-03-12_14h08.07.706,stroop_test,04.02.2024,60.09178419,2025-03-12 14h08.16.142645 +0100
,,,,78,6,6,,,,,,,,,,,,,blau,blue,b,1,b,1,0.9484815,None,,,,,,,,,6,6,78,6,358.3215024,,,,,,,,,,,,,,,,,358.3069902,358.6714469,359.4716095,359.4559958,,,,,,,,,,,,,,,,,,,,,,,,,,,,,,,,,,,359.461999,359.4716095,359.4716095,360.4245593,b,1,0.9484815,None,,,,sub-204,1,2025-03-12_14h08.07.706,stroop_test,04.02.2024,60.09178419,2025-03-12 14h08.16.142645 +0100
,,,,79,7,6,,,,,,,,,,,,,blau,yellow,g,0,g,1,0.8190217,None,,,,,,,,,6,7,79,7,360.4393447,,,,,,,,,,,,,,,,,360.4251249,361.2400987,362.040527,362.0248803,,,,,,,,,,,,,,,,,,,,,,,,,,,,,,,,,,,362.0255799,362.040527,362.040527,362.8764641,g,1,0.8190217,None,,,,sub-204,1,2025-03-12_14h08.07.706,stroop_test,04.02.2024,60.09178419,2025-03-12 14h08.16.142645 +0100
,,,,80,8,6,,,,,,,,,,,,,gelb,yellow,g,1,g,1,0.6458106,None,,,,,,,,,6,8,80,10,362.8909257,,,,,,,,,,,,,,,,,362.8770034,364.0915971,364.8936724,364.8772134,,,,,,,,,,,,,,,,,,,,,,,,,,,,,,,,,,,364.8833233,364.8936724,364.8936724,365.544723,g,1,0.6458106,None,,,,sub-204,1,2025-03-12_14h08.07.706,stroop_test,04.02.2024,60.09178419,2025-03-12 14h08.16.142645 +0100
,,,,81,9,6,,,,,,,,,,,,,blau,blue,b,1,b,1,0.7388603,None,,,,,,,,,6,9,81,5,365.5593311,,,,,,,,,,,,,,,,,365.5453395,365.9097845,366.7098437,366.6948604,,,,,,,,,,,,,,,,,,,,,,,,,,,,,,,,,,,366.6999867,366.7098437,366.7098437,367.4630522,b,1,0.7388603,None,,,,sub-204,1,2025-03-12_14h08.07.706,stroop_test,04.02.2024,60.09178419,2025-03-12 14h08.16.142645 +0100
,,,,82,10,6,,,,,,,,,,,,,rot,red,r,1,r,1,0.9309583,None,,,,,,,,,6,10,82,0,367.4775449,,,,,,,,,,,,,,,,,367.4636639,368.6783732,369.4786326,369.4628876,,,,,,,,,,,,,,,,,,,,,,,,,,,,,,,,,,,369.4685988,369.4786326,369.4786326,370.4146496,r,1,0.9309583,None,,,,sub-204,1,2025-03-12_14h08.07.706,stroop_test,04.02.2024,60.09178419,2025-03-12 14h08.16.142645 +0100
,,,,83,11,6,,,,,,,,,,,,,rot,yellow,g,0,g,1,0.8391514,None,,,,,,,,,6,11,83,3,370.4295988,,,,,,,,,,,,,,,,,370.4153388,370.7799711,371.5800973,371.5647102,,,,,,,,,,,,,,,,,,,,,,,,,,,,,,,,,,,371.5654446,371.5800973,371.5800973,372.4325408,g,1,0.8391514,None,,,,sub-204,1,2025-03-12_14h08.07.706,stroop_test,04.02.2024,60.09178419,2025-03-12 14h08.16.142645 +0100
,,,,84,0,7,,,,,,,,,,,,,gelb,red,r,0,r,1,1.0406082,None,,,,,,,,,7,0,84,8,372.4476587,,,,,,,,,,,,,,,,,372.4333826,372.5474933,373.3483397,373.3323899,,,,,,,,,,,,,,,,,,,,,,,,,,,,,,,,,,,373.3383565,373.3483397,373.3483397,374.4011125,r,1,1.0406082,None,,,,sub-204,1,2025-03-12_14h08.07.706,stroop_test,04.02.2024,60.09178419,2025-03-12 14h08.16.142645 +0100
,,,,85,1,7,,,,,,,,,,,,,blau,blue,b,1,b,1,0.6622494,None,,,,,,,,,7,1,85,6,374.41535,,,,,,,,,,,,,,,,,374.4016291,375.6165473,376.4169011,376.4013142,,,,,,,,,,,,,,,,,,,,,,,,,,,,,,,,,,,376.4068392,376.4169011,376.4169011,377.08578,b,1,0.6622494,None,,,,sub-204,1,2025-03-12_14h08.07.706,stroop_test,04.02.2024,60.09178419,2025-03-12 14h08.16.142645 +0100
,,,,86,2,7,,,,,,,,,,,,,blau,red,r,0,r,1,0.6035514,None,,,,,,,,,7,2,86,4,377.1003866,,,,,,,,,,,,,,,,,377.0863804,378.2850359,379.0853748,379.070013,,,,,,,,,,,,,,,,,,,,,,,,,,,,,,,,,,,379.0708615,379.0853748,379.0853748,379.70407,r,1,0.6035514,None,,,,sub-204,1,2025-03-12_14h08.07.706,stroop_test,04.02.2024,60.09178419,2025-03-12 14h08.16.142645 +0100
,,,,87,3,7,,,,,,,,,,,,,gelb,yellow,g,1,g,1,0.7892756,None,,,,,,,,,7,3,87,10,379.719254,,,,,,,,,,,,,,,,,379.7046472,379.819049,380.6199429,380.6041735,,,,,,,,,,,,,,,,,,,,,,,,,,,,,,,,,,,380.611866,380.6199429,380.6199429,381.4221055,g,1,0.7892756,None,,,,sub-204,1,2025-03-12_14h08.07.706,stroop_test,04.02.2024,60.09178419,2025-03-12 14h08.16.142645 +0100
,,,,88,4,7,,,,,,,,,,,,,gelb,yellow,g,1,g,1,0.9316968,None,,,,,,,,,7,4,88,11,381.4372027,,,,,,,,,,,,,,,,,381.4226386,381.536751,382.337859,382.322111,,,,,,,,,,,,,,,,,,,,,,,,,,,,,,,,,,,382.3229954,382.337859,382.337859,383.2736383,g,1,0.9316968,None,,,,sub-204,1,2025-03-12_14h08.07.706,stroop_test,04.02.2024,60.09178419,2025-03-12 14h08.16.142645 +0100
,,,,89,5,7,,,,,,,,,,,,,gelb,blue,b,0,b,1,0.8505428,None,,,,,,,,,7,5,89,9,383.28822,,,,,,,,,,,,,,,,,383.2742424,383.6388185,384.439042,384.4236392,,,,,,,,,,,,,,,,,,,,,,,,,,,,,,,,,,,384.4243129,384.439042,384.439042,385.2922994,b,1,0.8505428,None,,,,sub-204,1,2025-03-12_14h08.07.706,stroop_test,04.02.2024,60.09178419,2025-03-12 14h08.16.142645 +0100
,,,,90,6,7,,,,,,,,,,,,,blau,yellow,g,0,g,1,0.9917734,None,,,,,,,,,7,6,90,7,385.3066025,,,,,,,,,,,,,,,,,385.2928007,386.1069865,386.907701,386.891682,,,,,,,,,,,,,,,,,,,,,,,,,,,,,,,,,,,386.896572,386.907701,386.907701,387.9099812,g,1,0.9917734,None,,,,sub-204,1,2025-03-12_14h08.07.706,stroop_test,04.02.2024,60.09178419,2025-03-12 14h08.16.142645 +0100
,,,,91,7,7,,,,,,,,,,,,,blau,blue,b,1,b,1,0.7231122,None,,,,,,,,,7,7,91,5,387.9245219,,,,,,,,,,,,,,,,,387.9104922,388.7255231,389.5260485,389.5104313,,,,,,,,,,,,,,,,,,,,,,,,,,,,,,,,,,,389.5111367,389.5260485,389.5260485,390.2614979,b,1,0.7231122,None,,,,sub-204,1,2025-03-12_14h08.07.706,stroop_test,04.02.2024,60.09178419,2025-03-12 14h08.16.142645 +0100
,,,,92,8,7,,,,,,,,,,,,,rot,yellow,g,0,g,1,0.7101596,None,,,,,,,,,7,8,92,3,390.2762418,,,,,,,,,,,,,,,,,390.2619907,391.076745,391.8793729,391.8618991,,,,,,,,,,,,,,,,,,,,,,,,,,,,,,,,,,,391.8691531,391.8793729,391.8793729,392.59643,g,1,0.7101596,None,,,,sub-204,1,2025-03-12_14h08.07.706,stroop_test,04.02.2024,60.09178419,2025-03-12 14h08.16.142645 +0100
,,,,93,9,7,,,,,,,,,,,,,rot,red,r,1,r,1,0.8372188,None,,,,,,,,,7,9,93,0,392.6116024,,,,,,,,,,,,,,,,,392.5969385,392.711574,393.5118845,393.4966065,,,,,,,,,,,,,,,,,,,,,,,,,,,,,,,,,,,393.497327,393.5118845,393.5118845,394.3643513,r,1,0.8372188,None,,,,sub-204,1,2025-03-12_14h08.07.706,stroop_test,04.02.2024,60.09178419,2025-03-12 14h08.16.142645 +0100
,,,,94,10,7,,,,,,,,,,,,,rot,red,r,1,r,1,0.9185589,None,,,,,,,,,7,10,94,1,394.3791398,,,,,,,,,,,,,,,,,394.3648512,394.4793184,395.27992,395.2644314,,,,,,,,,,,,,,,,,,,,,,,,,,,,,,,,,,,395.2650645,395.27992,395.27992,396.2152061,r,1,0.9185589,None,,,,sub-204,1,2025-03-12_14h08.07.706,stroop_test,04.02.2024,60.09178419,2025-03-12 14h08.16.142645 +0100
,,,,95,11,7,,,,,,,,,,,,,rot,blue,b,0,b,1,0.7448936,None,,,,,,,,,7,11,95,2,396.2304322,,,,,,,,,,,,,,,,,396.2157295,397.0143699,397.8147764,397.79931,,,,,,,,,,,,,,,,,,,,,,,,,,,,,,,,,,,397.7999802,397.8147764,397.8147764,398.5676481,b,1,0.7448936,None,,,,sub-204,1,2025-03-12_14h08.07.706,stroop_test,04.02.2024,60.09178419,2025-03-12 14h08.16.142645 +0100
,,,,96,0,8,,,,,,,,,,,,,rot,red,r,1,r,1,0.8864051,None,,,,,,,,,8,0,96,0,398.5821845,,,,,,,,,,,,,,,,,398.5681852,398.68222,399.4825198,399.4664672,,,,,,,,,,,,,,,,,,,,,,,,,,,,,,,,,,,399.466855,399.4825198,399.4825198,400.3850183,r,1,0.8864051,None,,,,sub-204,1,2025-03-12_14h08.07.706,stroop_test,04.02.2024,60.09178419,2025-03-12 14h08.16.142645 +0100
,,,,97,1,8,,,,,,,,,,,,,blau,blue,b,1,b,1,0.6774404,None,,,,,,,,,8,1,97,5,400.3998451,,,,,,,,,,,,,,,,,400.3854827,401.2008377,402.001491,401.9855239,,,,,,,,,,,,,,,,,,,,,,,,,,,,,,,,,,,401.9904611,402.001491,402.001491,402.6865962,b,1,0.6774404,None,,,,sub-204,1,2025-03-12_14h08.07.706,stroop_test,04.02.2024,60.09178419,2025-03-12 14h08.16.142645 +0100
,,,,98,2,8,,,,,,,,,,,,,gelb,yellow,g,1,g,1,0.7360219,None,,,,,,,,,8,2,98,10,402.7014561,,,,,,,,,,,,,,,,,402.6871802,403.9022437,404.7028819,404.6874121,,,,,,,,,,,,,,,,,,,,,,,,,,,,,,,,,,,404.6942777,404.7028819,404.7028819,405.4551319,g,1,0.7360219,None,,,,sub-204,1,2025-03-12_14h08.07.706,stroop_test,04.02.2024,60.09178419,2025-03-12 14h08.16.142645 +0100
,,,,99,3,8,,,,,,,,,,,,,blau,blue,b,1,b,1,1.3385872,None,,,,,,,,,8,3,99,6,405.4696968,,,,,,,,,,,,,,,,,405.4558268,405.8198348,406.6205773,406.6051373,,,,,,,,,,,,,,,,,,,,,,,,,,,,,,,,,,,406.6095849,406.6205773,406.6205773,407.9736343,b,1,1.3385872,None,,,,sub-204,1,2025-03-12_14h08.07.706,stroop_test,04.02.2024,60.09178419,2025-03-12 14h08.16.142645 +0100
,,,,100,4,8,,,,,,,,,,,,,rot,red,r,1,r,1,0.5085123,None,,,,,,,,,8,4,100,1,407.9886015,,,,,,,,,,,,,,,,,407.9742616,409.1894973,409.9900359,409.9743161,,,,,,,,,,,,,,,,,,,,,,,,,,,,,,,,,,,409.9802451,409.9900359,409.9900359,410.5089169,r,1,0.5085123,None,,,,sub-204,1,2025-03-12_14h08.07.706,stroop_test,04.02.2024,60.09178419,2025-03-12 14h08.16.142645 +0100
,,,,101,5,8,,,,,,,,,,,,,rot,yellow,g,0,g,1,0.8341051,None,,,,,,,,,8,5,101,3,410.5234409,,,,,,,,,,,,,,,,,410.5094966,411.72472,412.5248905,412.5099401,,,,,,,,,,,,,,,,,,,,,,,,,,,,,,,,,,,412.5106241,412.5248905,412.5248905,413.3632352,g,1,0.8341051,None,,,,sub-204,1,2025-03-12_14h08.07.706,stroop_test,04.02.2024,60.09178419,2025-03-12 14h08.16.142645 +0100
,,,,102,6,8,,,,,,,,,,,,,gelb,red,r,0,r,1,0.8119697,None,,,,,,,,,8,6,102,8,413.3754048,,,,,,,,,,,,,,,,,413.3638527,413.725621,414.5266857,414.5111156,,,,,,,,,,,,,,,,,,,,,,,,,,,,,,,,,,,414.5166768,414.5266857,414.5266857,415.3459587,r,1,0.8119697,None,,,,sub-204,1,2025-03-12_14h08.07.706,stroop_test,04.02.2024,60.09178419,2025-03-12 14h08.16.142645 +0100
,,,,103,7,8,,,,,,,,,,,,,gelb,blue,b,0,b,1,0.7376033,None,,,,,,,,,8,7,103,9,415.3601182,,,,,,,,,,,,,,,,,415.3465469,415.460665,416.2609291,416.2451266,,,,,,,,,,,,,,,,,,,,,,,,,,,,,,,,,,,416.2458997,416.2609291,416.2609291,417.013189,b,1,0.7376033,None,,,,sub-204,1,2025-03-12_14h08.07.706,stroop_test,04.02.2024,60.09178419,2025-03-12 14h08.16.142645 +0100
,,,,104,8,8,,,,,,,,,,,,,gelb,yellow,g,1,g,1,0.7304159,None,,,,,,,,,8,8,104,11,417.0283029,,,,,,,,,,,,,,,,,417.0136902,417.378641,418.1788338,418.1632167,,,,,,,,,,,,,,,,,,,,,,,,,,,,,,,,,,,418.164041,418.1788338,418.1788338,418.9145239,g,1,0.7304159,None,,,,sub-204,1,2025-03-12_14h08.07.706,stroop_test,04.02.2024,60.09178419,2025-03-12 14h08.16.142645 +0100
,,,,105,9,8,,,,,,,,,,,,,blau,yellow,g,0,g,1,0.8346191,None,,,,,,,,,8,9,105,7,418.9294131,,,,,,,,,,,,,,,,,418.9151083,420.1135532,420.9160222,420.8989216,,,,,,,,,,,,,,,,,,,,,,,,,,,,,,,,,,,420.9070998,420.9160222,420.9160222,421.7668031,g,1,0.8346191,None,,,,sub-204,1,2025-03-12_14h08.07.706,stroop_test,04.02.2024,60.09178419,2025-03-12 14h08.16.142645 +0100
,,,,106,10,8,,,,,,,,,,,,,blau,red,r,0,r,1,0.756424,None,,,,,,,,,8,10,106,4,421.7816093,,,,,,,,,,,,,,,,,421.7673685,422.9822933,423.7830555,423.7673013,,,,,,,,,,,,,,,,,,,,,,,,,,,,,,,,,,,423.7679727,423.7830555,423.7830555,424.5517179,r,1,0.756424,None,,,,sub-204,1,2025-03-12_14h08.07.706,stroop_test,04.02.2024,60.09178419,2025-03-12 14h08.16.142645 +0100
,,,,107,11,8,,,,,,,,,,,,,rot,blue,b,0,b,1,0.7314461,None,,,,,,,,,8,11,107,2,424.5666238,,,,,,,,,,,,,,,,,424.5523018,424.917176,425.7176112,425.7018856,,,,,,,,,,,,,,,,,,,,,,,,,,,,,,,,,,,425.7096377,425.7176112,425.7176112,426.4529933,b,1,0.7314461,None,,,,sub-204,1,2025-03-12_14h08.07.706,stroop_test,04.02.2024,60.09178419,2025-03-12 14h08.16.142645 +0100
,,,,108,0,9,,,,,,,,,,,,,gelb,red,r,0,r,1,0.8610165,None,,,,,,,,,9,0,108,8,426.4678188,,,,,,,,,,,,,,,,,426.4535596,426.5680889,427.3685513,427.3533395,,,,,,,,,,,,,,,,,,,,,,,,,,,,,,,,,,,427.3588087,427.3685513,427.3685513,428.2378344,r,1,0.8610165,None,,,,sub-204,1,2025-03-12_14h08.07.706,stroop_test,04.02.2024,60.09178419,2025-03-12 14h08.16.142645 +0100
,,,,109,1,9,,,,,,,,,,,,,gelb,yellow,g,1,g,1,0.845528,None,,,,,,,,,9,1,109,11,428.2526093,,,,,,,,,,,,,,,,,428.2385049,428.3527028,429.1532365,429.1373364,,,,,,,,,,,,,,,,,,,,,,,,,,,,,,,,,,,429.1380453,429.1532365,429.1532365,430.0057284,g,1,0.845528,None,,,,sub-204,1,2025-03-12_14h08.07.706,stroop_test,04.02.2024,60.09178419,2025-03-12 14h08.16.142645 +0100
,,,,110,2,9,,,,,,,,,,,,,gelb,yellow,g,1,g,1,0.8973172,None,,,,,,,,,9,2,110,10,430.0201655,,,,,,,,,,,,,,,,,430.0062294,430.8210041,431.6216705,431.6056151,,,,,,,,,,,,,,,,,,,,,,,,,,,,,,,,,,,431.6063262,431.6216705,431.6216705,432.5238884,g,1,0.8973172,None,,,,sub-204,1,2025-03-12_14h08.07.706,stroop_test,04.02.2024,60.09178419,2025-03-12 14h08.16.142645 +0100
,,,,111,3,9,,,,,,,,,,,,,gelb,blue,b,0,b,1,0.9814324,None,,,,,,,,,9,3,111,9,432.5388003,,,,,,,,,,,,,,,,,432.5244509,432.8889176,433.6895815,433.6741321,,,,,,,,,,,,,,,,,,,,,,,,,,,,,,,,,,,433.6749775,433.6895815,433.6895815,434.6764547,b,1,0.9814324,None,,,,sub-204,1,2025-03-12_14h08.07.706,stroop_test,04.02.2024,60.09178419,2025-03-12 14h08.16.142645 +0100
,,,,112,4,9,,,,,,,,,,,,,blau,blue,b,1,b,1,0.6587569,None,,,,,,,,,9,4,112,5,434.6899967,,,,,,,,,,,,,,,,,434.6770738,435.8910663,436.6915204,436.6762994,,,,,,,,,,,,,,,,,,,,,,,,,,,,,,,,,,,436.682046,436.6915204,436.6915204,437.3608648,b,1,0.6587569,None,,,,sub-204,1,2025-03-12_14h08.07.706,stroop_test,04.02.2024,60.09178419,2025-03-12 14h08.16.142645 +0100
,,,,113,5,9,,,,,,,,,,,,,rot,blue,b,0,b,1,0.8340443,None,,,,,,,,,9,5,113,2,437.3758688,,,,,,,,,,,,,,,,,437.3616146,437.7259707,438.5259655,438.5106561,,,,,,,,,,,,,,,,,,,,,,,,,,,,,,,,,,,438.5159967,438.5259655,438.5259655,439.3627819,b,1,0.8340443,None,,,,sub-204,1,2025-03-12_14h08.07.706,stroop_test,04.02.2024,60.09178419,2025-03-12 14h08.16.142645 +0100
,,,,114,6,9,,,,,,,,,,,,,blau,yellow,g,0,g,1,0.93306,None,,,,,,,,,9,6,114,7,439.3766157,,,,,,,,,,,,,,,,,439.3633107,439.4770236,440.2772675,440.2615362,,,,,,,,,,,,,,,,,,,,,,,,,,,,,,,,,,,440.2672856,440.2772675,440.2772675,441.2141495,g,1,0.93306,None,,,,sub-204,1,2025-03-12_14h08.07.706,stroop_test,04.02.2024,60.09178419,2025-03-12 14h08.16.142645 +0100
,,,,115,7,9,,,,,,,,,,,,,rot,red,r,1,r,1,0.5092617,None,,,,,,,,,9,7,115,0,441.2278117,,,,,,,,,,,,,,,,,441.2147393,442.0288548,442.8309759,442.8138978,,,,,,,,,,,,,,,,,,,,,,,,,,,,,,,,,,,442.8216568,442.8309759,442.8309759,443.3484435,r,1,0.5092617,None,,,,sub-204,1,2025-03-12_14h08.07.706,stroop_test,04.02.2024,60.09178419,2025-03-12 14h08.16.142645 +0100
,,,,116,8,9,,,,,,,,,,,,,rot,yellow,g,0,g,1,0.9865081,None,,,,,,,,,9,8,116,3,443.3627173,,,,,,,,,,,,,,,,,443.3490294,443.4629278,444.263566,444.2479365,,,,,,,,,,,,,,,,,,,,,,,,,,,,,,,,,,,444.2486909,444.263566,444.263566,445.2661107,g,1,0.9865081,None,,,,sub-204,1,2025-03-12_14h08.07.706,stroop_test,04.02.2024,60.09178419,2025-03-12 14h08.16.142645 +0100
,,,,117,9,9,,,,,,,,,,,,,blau,blue,b,1,b,1,0.6378632,None,,,,,,,,,9,9,117,6,445.2809717,,,,,,,,,,,,,,,,,445.2666127,446.0816758,446.8818284,446.8665145,,,,,,,,,,,,,,,,,,,,,,,,,,,,,,,,,,,446.8736203,446.8818284,446.8818284,447.5338497,b,1,0.6378632,None,,,,sub-204,1,2025-03-12_14h08.07.706,stroop_test,04.02.2024,60.09178419,2025-03-12 14h08.16.142645 +0100
,,,,118,10,9,,,,,,,,,,,,,blau,red,r,0,r,1,0.8799854,None,,,,,,,,,9,10,118,4,447.5490942,,,,,,,,,,,,,,,,,447.5343498,447.8997166,448.700016,448.6839565,,,,,,,,,,,,,,,,,,,,,,,,,,,,,,,,,,,448.6847199,448.700016,448.700016,449.5852965,r,1,0.8799854,None,,,,sub-204,1,2025-03-12_14h08.07.706,stroop_test,04.02.2024,60.09178419,2025-03-12 14h08.16.142645 +0100
,,,,119,11,9,,,,,,,,,,,,,rot,red,r,1,r,1,0.6745845,None,,,,,,,,,9,11,119,1,449.6005136,,,,,,,,,,,,,,,,,449.585963,450.7847608,451.5854676,451.5698641,,,,,,,,,,,,,,,,,,,,,,,,,,,,,,,,,,,451.5758855,451.5854676,451.5854676,452.2713617,r,1,0.6745845,None,,,,sub-204,1,2025-03-12_14h08.07.706,stroop_test,04.02.2024,60.09178419,2025-03-12 14h08.16.142645 +0100
,,,,,,,,,,,,,,,,,,,,,,,,,,,,,,,,,,,,,,,,,,,,,,,,,,,,,,,,,,,,,,,,,,,,,,,,,,,,,,,,,,,,,,,,,,,,,,,,,,,,,,452.2716008,452.2858202,457.272578,sub-204,1,2025-03-12_14h08.07.706,stroop_test,04.02.2024,60.09178419,2025-03-12 14h08.16.142645 +0100
