wordCTK,colorCTK,corrAnsCTK,congruentCTK,thisN,thisTrialN,thisRepN,keyResp_CTK.keys,keyResp_CTK.corr,keyResp_CTK.rt,keyResp_CTK.duration,wordPractice,colorPractice,corrAnsPractice,congruentPractice,respPractice.keys,respPractice.corr,respPractice.rt,respPractice.duration,word,color,corrAns,congruent,keyResp_test_run.keys,keyResp_test_run.corr,keyResp_test_run.rt,keyResp_test_run.duration,trials_CTK.thisRepN,trials_CTK.thisTrialN,trials_CTK.thisN,trials_CTK.thisIndex,trials_practice.thisRepN,trials_practice.thisTrialN,trials_practice.thisN,trials_practice.thisIndex,trials_test.thisRepN,trials_test.thisTrialN,trials_test.thisN,trials_test.thisIndex,thisRow.t,notes,instruction.started,instr_text.started,instr_image.started,instr_resp.started,instruction.stopped,instr_resp.keys,instr_resp.rt,instr_resp.duration,instr_color_to_key.started,instr_ctk.started,resp_ctk.started,instr_color_to_key.stopped,resp_ctk.keys,resp_ctk.rt,resp_ctk.duration,ITI.started,fixcross.started,fixcross.stopped,ITI.stopped,color_to_key_run.started,stimulus_CTK.started,keyResp_CTK.started,color_to_key_run.stopped,trials_CTK.keyResp_CTK.keys,trials_CTK.keyResp_CTK.corr,trials_CTK.keyResp_CTK.rt,trials_CTK.keyResp_CTK.duration,instr_practice.started,instr_practice_text.started,instr_practice_resp.started,instr_practice.stopped,instr_practice_resp.keys,instr_practice_resp.rt,instr_practice_resp.duration,practice_run.started,stimulus_practice.started,respPractice.started,practice_run.stopped,trials_practice.respPractice.keys,trials_practice.respPractice.corr,trials_practice.respPractice.rt,trials_practice.respPractice.duration,feedback.started,textFeedback.started,textFeedback.stopped,feedback.stopped,instr_test.started,instr_test_text.started,instr_test_resp.started,instr_test.stopped,instr_test_resp.keys,instr_test_resp.rt,instr_test_resp.duration,test_run.started,stimulus_test_run.started,keyResp_test_run.started,test_run.stopped,trials_test.keyResp_test_run.keys,trials_test.keyResp_test_run.corr,trials_test.keyResp_test_run.rt,trials_test.keyResp_test_run.duration,goodbye.started,textGoodbye.started,textGoodbye.stopped,goodbye.stopped,participant,session,expName,frameRate,Unnamed: 113
,,,,,,,,,,,,,,,,,,,,,,,,,,,,,,,,,,,,,,,,,0.0351345110000238,0.0591177190001417,0.0591177190001417,0.0591177190001417,51.64145188700013,space,51.57571093299998,,,,,,,,,,,,,,,,,,,,,,,,,,,,,,,,,,,,,,,,,,,,,,,,,,,,,,,,,,,sub-147,1,stroop_test,,
,,,,,,,,,,,,,,,,,,,,,,,,,,,,,,,,,,,,,,,,,,,,,,,,,51.64150973699998,51.648567426,51.648567426,75.79172570000014,space,24.13756374500008,,,,,,,,,,,,,,,,,,,,,,,,,,,,,,,,,,,,,,,,,,,,,,,,,,,,sub-147,1,stroop_test,,
test,yellow,g,1.0,0.0,0.0,0.0,g,1.0,3.687603084999864,,,,,,,,,,,,,,,,,,0.0,0.0,0.0,1.0,,,,,,,,,75.81126141899995,,,,,,,,,,,,,,,,,75.80189255000005,76.98746895399995,77.78148583699999,77.77450384300005,77.77797470700011,77.78148583699999,77.78148583699999,81.47487580100005,g,1.0,3.687603084999864,,,,,,,,,,,,,,,,,,,,,,,,,,,,,,,,,,,,,,,,sub-147,1,stroop_test,,
test,blue,b,1.0,1.0,1.0,0.0,r,0.0,1.0553814290001355,,,,,,,,,,,,,,,,,,0.0,1.0,1.0,2.0,,,,,,,,,81.47935152700006,,,,,,,,,,,,,,,,,81.475132239,81.82080037200012,82.61137975700012,82.60789462000002,82.60821650100002,82.61137975700012,82.61137975700012,83.67505616900007,r,0.0,1.0553814290001355,,,,,,,,,,,,,,,,,,,,,,,,,,,,,,,,,,,,,,,,sub-147,1,stroop_test,,
test,red,r,1.0,2.0,2.0,0.0,b,0.0,1.1097109009999713,,,,,,,,,,,,,,,,,,0.0,2.0,2.0,0.0,,,,,,,,,83.67949136800007,,,,,,,,,,,,,,,,,83.67530050999994,83.7707679770001,84.5620592140001,84.55841006800006,84.55875704599998,84.5620592140001,84.5620592140001,85.67554970700007,b,0.0,1.1097109009999713,,,,,,,,,,,,,,,,,,,,,,,,,,,,,,,,,,,,,,,,sub-147,1,stroop_test,,
test,yellow,g,1.0,3.0,0.0,1.0,g,1.0,0.6509849320000285,,,,,,,,,,,,,,,,,,1.0,0.0,3.0,1.0,,,,,,,,,85.6800465010001,,,,,,,,,,,,,,,,,85.67580278600008,86.87057286200002,87.66190729100003,87.65810751799995,87.65843036199999,87.66190729100003,87.66190729100003,88.31533823500013,g,1.0,0.6509849320000285,,,,,,,,,,,,,,,,,,,,,,,,,,,,,,,,,,,,,,,,sub-147,1,stroop_test,,
test,blue,b,1.0,4.0,1.0,1.0,b,1.0,1.0880634359998569,,,,,,,,,,,,,,,,,,1.0,1.0,4.0,2.0,,,,,,,,,88.32057218299997,,,,,,,,,,,,,,,,,88.31558354999993,88.41045384099993,89.20407598700012,89.19728488600003,89.19759683200004,89.20407598700012,89.20407598700012,90.29777842299995,b,1.0,1.0880634359998569,,,,,,,,,,,,,,,,,,,,,,,,,,,,,,,,,,,,,,,,sub-147,1,stroop_test,,
test,red,r,1.0,5.0,2.0,1.0,r,1.0,0.5780730520000361,,,,,,,,,,,,,,,,,,1.0,2.0,5.0,0.0,,,,,,,,,90.30399116800004,,,,,,,,,,,,,,,,,90.29802316900007,91.49381922399994,92.28741745000002,92.280748121,92.28108183300014,92.28741745000002,92.28741745000002,92.87492407800003,r,1.0,0.5780730520000361,,,,,,,,,,,,,,,,,,,,,,,,,,,,,,,,,,,,,,,,sub-147,1,stroop_test,,
test,yellow,g,1.0,6.0,0.0,2.0,g,1.0,0.7652113730000565,,,,,,,,,,,,,,,,,,2.0,0.0,6.0,1.0,,,,,,,,,92.87935520099995,,,,,,,,,,,,,,,,,92.87517344799994,94.0707724880001,94.86154587300008,94.85776686600002,94.85808799100003,94.86154587300008,94.86154587300008,95.63112235200016,g,1.0,0.7652113730000565,,,,,,,,,,,,,,,,,,,,,,,,,,,,,,,,,,,,,,,,sub-147,1,stroop_test,,
test,blue,b,1.0,7.0,1.0,2.0,r,0.0,0.9653297370000472,,,,,,,,,,,,,,,,,,2.0,1.0,7.0,2.0,,,,,,,,,95.63743894599996,,,,,,,,,,,,,,,,,95.63136701300004,95.97717486300007,96.77076807499998,96.76381061300005,96.76412306500016,96.77076807499998,96.77076807499998,97.74185069600004,r,0.0,0.9653297370000472,,,,,,,,,,,,,,,,,,,,,,,,,,,,,,,,,,,,,,,,sub-147,1,stroop_test,,
test,red,r,1.0,8.0,2.0,2.0,r,1.0,0.7102370570000858,,,,,,,,,,,,,,,,,,2.0,2.0,8.0,0.0,,,,,,,,,97.74627875400006,,,,,,,,,,,,,,,,,97.74210040499996,98.93783697999991,99.72848596500012,99.72465992499995,99.72499982700016,99.72848596500012,99.72848596500012,100.442179679,r,1.0,0.7102370570000858,,,,,,,,,,,,,,,,,,,,,,,,,,,,,,,,,,,,,,,,sub-147,1,stroop_test,,
test,blue,b,1.0,9.0,0.0,3.0,b,1.0,1.0348728260000826,,,,,,,,,,,,,,,,,,3.0,0.0,9.0,2.0,,,,,,,,,100.446687849,,,,,,,,,,,,,,,,,100.44242926200012,100.78750722099994,101.57842802100004,101.57457839200016,101.57490253600008,101.57842802100004,101.57842802100004,102.61606902200016,b,1.0,1.0348728260000826,,,,,,,,,,,,,,,,,,,,,,,,,,,,,,,,,,,,,,,,sub-147,1,stroop_test,,
test,yellow,g,1.0,10.0,1.0,3.0,g,1.0,0.7099278210000648,,,,,,,,,,,,,,,,,,3.0,1.0,10.0,1.0,,,,,,,,,102.6206746360001,,,,,,,,,,,,,,,,,102.61634012600008,103.41103009500011,104.2041287080001,104.19662828300012,104.19694434000009,104.2041287080001,104.2041287080001,104.915610947,g,1.0,0.7099278210000648,,,,,,,,,,,,,,,,,,,,,,,,,,,,,,,,,,,,,,,,sub-147,1,stroop_test,,
test,red,r,1.0,11.0,2.0,3.0,r,1.0,0.6393754089999675,,,,,,,,,,,,,,,,,,3.0,2.0,11.0,0.0,,,,,,,,,104.92063057500012,,,,,,,,,,,,,,,,,104.91585781100002,105.260559845,106.05414352899992,106.04798125900015,106.04831166999998,106.05414352899992,106.05414352899992,106.69819712799996,r,1.0,0.6393754089999675,,,,,,,,,,,,,,,,,,,,,,,,,,,,,,,,,,,,,,,,sub-147,1,stroop_test,,
,,,,,,,,,,,,,,,,,,,,,,,,,,,,,,,,,,,,,,,,,,,,,,,,,,,,,,,,,,,,,,,,,,,,106.69832783000015,106.70413755999994,106.70413755999994,111.29804046599996,space,4.589886746000047,,,,,,,,,,,,,,,,,,,,,,,,,,,,,,,,,sub-147,1,stroop_test,,
,,,,0.0,0.0,0.0,,,,,blau,yellow,g,0.0,b,0.0,1.1714062869998545,,,,,,,,,,,,,,0.0,0.0,0.0,7.0,,,,,111.31222436999995,,,,,,,,,,,,,,,,,111.30781588600009,111.64402010799996,112.43740103200004,112.43048913300004,,,,,,,,,,,,,,,,112.43413617800002,112.43740103200004,112.43740103200004,113.614739675,b,0.0,1.1714062869998545,,113.61840017200008,113.62375296999994,114.62097880200008,114.61358649700014,,,,,,,,,,,,,,,,,,,,sub-147,1,stroop_test,,
,,,,1.0,1.0,0.0,,,,,gelb,red,r,0.0,r,1.0,0.9330675429998792,,,,,,,,,,,,,,0.0,1.0,1.0,8.0,,,,,114.62097880200008,,,,,,,,,,,,,,,,,114.61381837499994,115.41059513899997,116.20408854700008,116.19770967,,,,,,,,,,,,,,,,116.20054531200005,116.20408854700008,116.20408854700008,117.14229574800017,r,1.0,0.9330675429998792,,117.14570100200012,117.15093147900006,118.14404617600007,118.14138012600006,,,,,,,,,,,,,,,,,,,,sub-147,1,stroop_test,,
,,,,2.0,2.0,0.0,,,,,rot,red,r,1.0,r,1.0,1.758026154999925,,,,,,,,,,,,,,0.0,2.0,2.0,1.0,,,,,118.14404617600007,,,,,,,,,,,,,,,,,118.14161115599995,119.33762073100002,120.13026203000004,120.12431752199996,,,,,,,,,,,,,,,,120.127201925,120.13026203000004,120.13026203000004,121.89199121,r,1.0,1.758026154999925,,121.8923536100001,121.89748847600004,122.89393694499996,122.89124604400013,,,,,,,,,,,,,,,,,,,,sub-147,1,stroop_test,,
,,,,3.0,3.0,0.0,,,,,gelb,blue,b,0.0,b,1.0,0.9611870510000244,,,,,,,,,,,,,,0.0,3.0,3.0,9.0,,,,,122.89393694499996,,,,,,,,,,,,,,,,,122.891487524,124.08768784300014,124.8813676310001,124.8752184550001,,,,,,,,,,,,,,,,124.87745228300014,124.8813676310001,124.8813676310001,125.84811628900002,b,1.0,0.9611870510000244,,125.84847219099991,125.85413110900004,126.84415414,126.84143701700008,,,,,,,,,,,,,,,,,,,,sub-147,1,stroop_test,,
,,,,4.0,4.0,0.0,,,,,blau,blue,b,1.0,b,1.0,1.488427822999938,,,,,,,,,,,,,,0.0,4.0,4.0,5.0,,,,,126.84415414,,,,,,,,,,,,,,,,,126.84167656199998,126.94398178699998,127.73757517100012,127.73109559,,,,,,,,,,,,,,,,127.73327085999996,127.73757517100012,127.73757517100012,129.23148438399994,b,1.0,1.488427822999938,,129.23184932499998,129.23750781700005,130.22783200699996,130.22505459500007,,,,,,,,,,,,,,,,,,,,sub-147,1,stroop_test,,
,,,,5.0,5.0,0.0,,,,,gelb,yellow,g,1.0,g,1.0,0.6022894829998222,,,,,,,,,,,,,,0.0,5.0,5.0,10.0,,,,,130.22783200699996,,,,,,,,,,,,,,,,,130.22529498099993,130.57716658799995,131.3709362050001,131.364355898,,,,,,,,,,,,,,,,131.36676793900006,131.3709362050001,131.3709362050001,131.9758288170001,g,1.0,0.6022894829998222,,131.97619228400004,131.98124962600014,132.97755225000014,132.97484582900006,,,,,,,,,,,,,,,,,,,,sub-147,1,stroop_test,,
,,,,6.0,6.0,0.0,,,,,blau,blue,b,1.0,b,1.0,0.7653350059999866,,,,,,,,,,,,,,0.0,6.0,6.0,6.0,,,,,132.97755225000014,,,,,,,,,,,,,,,,,132.9750774050001,134.17091716799996,134.96464132799997,134.95844095200005,,,,,,,,,,,,,,,,134.960636087,134.96464132799997,134.96464132799997,135.73250703100007,b,1.0,0.7653350059999866,,135.73287680800013,135.737920282,136.72778934400003,136.72506557399993,,,,,,,,,,,,,,,,,,,,sub-147,1,stroop_test,,
,,,,7.0,7.0,0.0,,,,,blau,red,r,0.0,r,1.0,0.6948231690000739,,,,,,,,,,,,,,0.0,7.0,7.0,4.0,,,,,136.72778934400003,,,,,,,,,,,,,,,,,136.72530503300004,137.07715507000012,137.87102938800012,137.86390166,,,,,,,,,,,,,,,,137.86421622000012,137.87102938800012,137.87102938800012,138.575450671,r,1.0,0.6948231690000739,,138.57581748000007,138.58091702000002,139.57805645500002,139.575234012,,,,,,,,,,,,,,,,,,,,sub-147,1,stroop_test,,
,,,,8.0,8.0,0.0,,,,,rot,red,r,1.0,r,1.0,0.7119505230000414,,,,,,,,,,,,,,0.0,8.0,8.0,0.0,,,,,139.57805645500002,,,,,,,,,,,,,,,,,139.57547729800012,139.6711774380001,140.4647325810001,140.458334164,,,,,,,,,,,,,,,,140.4607529750001,140.4647325810001,140.4647325810001,141.18137526500004,r,1.0,0.7119505230000414,,141.18174329900012,141.1875244150001,142.1779377150001,142.174910489,,,,,,,,,,,,,,,,,,,,sub-147,1,stroop_test,,
,,,,9.0,9.0,0.0,,,,,gelb,yellow,g,1.0,g,1.0,0.7492206179999812,,,,,,,,,,,,,,0.0,9.0,9.0,11.0,,,,,142.1779377150001,,,,,,,,,,,,,,,,,142.17514996800014,142.27705661200002,143.07101815800002,143.06493035900007,,,,,,,,,,,,,,,,143.06707826900015,143.07101815800002,143.07101815800002,143.82562604500004,g,1.0,0.7492206179999812,,143.82597747399996,143.83104214800005,144.8278151500001,144.82509091099996,,,,,,,,,,,,,,,,,,,,sub-147,1,stroop_test,,
,,,,10.0,10.0,0.0,,,,,rot,yellow,g,0.0,g,1.0,0.5780027719999907,,,,,,,,,,,,,,0.0,10.0,10.0,3.0,,,,,144.8278151500001,,,,,,,,,,,,,,,,,144.82534386399993,144.9211380730001,145.71501424100006,145.70862349499998,,,,,,,,,,,,,,,,145.710995208,145.71501424100006,145.71501424100006,146.29822626100008,g,1.0,0.5780027719999907,,146.29858789900004,146.30426476000002,147.29427016599993,147.29153097900007,,,,,,,,,,,,,,,,,,,,sub-147,1,stroop_test,,
,,,,11.0,11.0,0.0,,,,,rot,blue,b,0.0,b,1.0,0.7855468939999355,,,,,,,,,,,,,,0.0,11.0,11.0,2.0,,,,,147.29427016599993,,,,,,,,,,,,,,,,,147.29176596900015,148.4939984980001,149.28776956599995,149.28133359899994,,,,,,,,,,,,,,,,149.28165053800012,149.28776956599995,149.28776956599995,150.07574410400002,b,1.0,0.7855468939999355,,150.07611401400004,150.08127786599994,151.07727853899996,151.07473118200005,,,,,,,,,,,,,,,,,,,,sub-147,1,stroop_test,,
,,,,12.0,0.0,1.0,,,,,gelb,yellow,g,1.0,g,1.0,0.7129137140000239,,,,,,,,,,,,,,1.0,0.0,12.0,11.0,,,,,151.07727853899996,,,,,,,,,,,,,,,,,151.0749758490001,152.27105455000014,153.0645302150001,153.05832903500004,,,,,,,,,,,,,,,,153.0605514240001,153.0645302150001,153.0645302150001,153.78216323900006,g,1.0,0.7129137140000239,,153.782538595,153.78764112800013,154.77795785500007,154.775209808,,,,,,,,,,,,,,,,,,,,sub-147,1,stroop_test,,
,,,,13.0,1.0,1.0,,,,,gelb,blue,b,0.0,b,1.0,1.0571245030000682,,,,,,,,,,,,,,1.0,1.0,13.0,9.0,,,,,154.77795785500007,,,,,,,,,,,,,,,,,154.77544694900007,155.57738937199997,156.37111229900006,156.36444887800008,,,,,,,,,,,,,,,,156.36478487900013,156.37111229900006,156.37111229900006,157.431871064,b,1.0,1.0571245030000682,,157.43223239000008,157.43766992500014,158.42802912900015,158.42530290800005,,,,,,,,,,,,,,,,,,,,sub-147,1,stroop_test,,
,,,,14.0,2.0,1.0,,,,,rot,yellow,g,0.0,g,1.0,1.031222496000055,,,,,,,,,,,,,,1.0,2.0,14.0,3.0,,,,,158.42802912900015,,,,,,,,,,,,,,,,,158.425545372,159.62736333099997,160.42111942199995,160.41428208699995,,,,,,,,,,,,,,,,160.41641321600014,160.42111942199995,160.42111942199995,161.45905498900015,g,1.0,1.031222496000055,,161.45940492,161.46454195399997,162.46151646600015,162.45864276199995,,,,,,,,,,,,,,,,,,,,sub-147,1,stroop_test,,
,,,,15.0,3.0,1.0,,,,,blau,blue,b,1.0,b,1.0,0.7599159150001924,,,,,,,,,,,,,,1.0,3.0,15.0,5.0,,,,,162.46151646600015,,,,,,,,,,,,,,,,,162.45887564999998,163.2545889600001,164.04790275999994,164.04184913099994,,,,,,,,,,,,,,,,164.04405015800012,164.04790275999994,164.04790275999994,164.80932306599993,b,1.0,0.7599159150001924,,164.80972012400002,164.81493018100014,165.81113283100012,165.808318782,,,,,,,,,,,,,,,,,,,,sub-147,1,stroop_test,,
,,,,16.0,4.0,1.0,,,,,rot,blue,b,0.0,b,1.0,0.5249933970001166,,,,,,,,,,,,,,1.0,4.0,16.0,2.0,,,,,165.81113283100012,,,,,,,,,,,,,,,,,165.80855145600003,166.60462652599995,167.3982805180001,167.39216163600008,,,,,,,,,,,,,,,,167.394400937,167.3982805180001,167.3982805180001,167.92592352099996,b,1.0,0.5249933970001166,,167.92628683399994,167.931494422,168.92810095899995,168.925329358,,,,,,,,,,,,,,,,,,,,sub-147,1,stroop_test,,
,,,,17.0,5.0,1.0,,,,,rot,red,r,1.0,r,1.0,0.3933005439998851,,,,,,,,,,,,,,1.0,5.0,17.0,0.0,,,,,168.92810095899995,,,,,,,,,,,,,,,,,168.9255684950001,170.1215226480001,170.91249423499994,170.9086031500001,,,,,,,,,,,,,,,,170.90893439499996,170.91249423499994,170.91249423499994,171.30958007000004,r,1.0,0.3933005439998851,,171.30995768599996,171.31509239799993,172.31112790700013,172.30835879100005,,,,,,,,,,,,,,,,,,,,sub-147,1,stroop_test,,
,,,,18.0,6.0,1.0,,,,,gelb,red,r,0.0,r,1.0,0.32266021800001,,,,,,,,,,,,,,1.0,6.0,18.0,8.0,,,,,172.31112790700013,,,,,,,,,,,,,,,,,172.30863150699997,173.50463159600008,174.29798141800006,174.29169592400012,,,,,,,,,,,,,,,,174.29387361499994,174.29798141800006,174.29798141800006,174.6260455470001,r,1.0,0.32266021800001,,174.62644559599994,174.631564196,175.62802272099998,175.62538510100012,,,,,,,,,,,,,,,,,,,,sub-147,1,stroop_test,,
,,,,19.0,7.0,1.0,,,,,gelb,yellow,g,1.0,r,0.0,0.6603938149999067,,,,,,,,,,,,,,1.0,7.0,19.0,10.0,,,,,175.62802272099998,,,,,,,,,,,,,,,,,175.62562576999994,175.72125802200003,176.5125905760001,176.50869013700003,,,,,,,,,,,,,,,,176.50902212000005,176.5125905760001,176.5125905760001,177.1760469190001,r,0.0,0.6603938149999067,,177.178541796,177.18427960999998,178.177614921,178.17488320200005,,,,,,,,,,,,,,,,,,,,sub-147,1,stroop_test,,
,,,,20.0,8.0,1.0,,,,,blau,blue,b,1.0,b,1.0,1.85743386199988,,,,,,,,,,,,,,1.0,8.0,20.0,6.0,,,,,178.177614921,,,,,,,,,,,,,,,,,178.17512522200013,179.37140825999995,180.1652884330001,180.1592476840001,,,,,,,,,,,,,,,,180.1614725480001,180.1652884330001,180.1652884330001,182.02557518000003,b,1.0,1.85743386199988,,182.02804425599996,182.0336536710001,183.0280997140001,183.02537598999996,,,,,,,,,,,,,,,,,,,,sub-147,1,stroop_test,,
,,,,21.0,9.0,1.0,,,,,blau,yellow,g,0.0,g,1.0,0.6060411810001369,,,,,,,,,,,,,,1.0,9.0,21.0,7.0,,,,,183.0280997140001,,,,,,,,,,,,,,,,,183.0256269890001,184.2214502470001,185.0123315800001,185.008504183,,,,,,,,,,,,,,,,185.008846085,185.0123315800001,185.0123315800001,185.625498938,g,1.0,0.6060411810001369,,185.625862077,185.63098028900004,186.62792308200005,186.625248674,,,,,,,,,,,,,,,,,,,,sub-147,1,stroop_test,,
,,,,22.0,10.0,1.0,,,,,rot,red,r,1.0,r,1.0,0.3824066790000415,,,,,,,,,,,,,,1.0,10.0,22.0,1.0,,,,,186.62792308200005,,,,,,,,,,,,,,,,,186.62548821,186.72173400199995,187.51493110599995,187.50884690600012,,,,,,,,,,,,,,,,187.5112379940001,187.51493110599995,187.51493110599995,187.899300521,r,1.0,0.3824066790000415,,187.899718487,187.90491339899995,188.894921031,188.892257535,,,,,,,,,,,,,,,,,,,,sub-147,1,stroop_test,,
,,,,23.0,11.0,1.0,,,,,blau,red,r,0.0,r,1.0,0.5794350510000186,,,,,,,,,,,,,,1.0,11.0,23.0,4.0,,,,,188.894921031,,,,,,,,,,,,,,,,,188.892499802,188.99487485500003,189.78798197600008,189.78081900300003,,,,,,,,,,,,,,,,189.7834369510001,189.78798197600008,189.78798197600008,190.375756184,r,1.0,0.5794350510000186,,190.37612475700007,190.3812736960001,191.37948412000011,191.3754324430001,,,,,,,,,,,,,,,,,,,,sub-147,1,stroop_test,,
,,,,,,,,,,,,,,,,,,,,,,,,,,,,,,,,,,,,,,,,,,,,,,,,,,,,,,,,,,,,,,,,,,,,,,,,,,,,,,,,,,,,,,,191.3755369160001,191.37948412000011,191.37948412000011,193.2101926540001,space,1.828651470000068,,,,,,,,,,,,,,sub-147,1,stroop_test,,
,,,,0.0,0.0,0.0,,,,,,,,,,,,,gelb,yellow,g,1.0,g,1.0,1.1371373010001662,,,,,,,,,,0.0,0.0,0.0,10.0,193.22655722600007,,,,,,,,,,,,,,,,,193.220503305,194.404778269,195.198407096,195.19207895900013,,,,,,,,,,,,,,,,,,,,,,,,,,,,,,,,,,,195.194323101,195.198407096,195.198407096,196.34252337800007,g,1.0,1.1371373010001662,,,,,,sub-147,1,stroop_test,,
,,,,1.0,1.0,0.0,,,,,,,,,,,,,blau,blue,b,1.0,b,1.0,0.8555867780000881,,,,,,,,,,0.0,1.0,1.0,5.0,196.3470470990001,,,,,,,,,,,,,,,,,196.3428057000001,196.68809808700007,197.48168172600003,197.47549191000007,,,,,,,,,,,,,,,,,,,,,,,,,,,,,,,,,,,197.4777454110001,197.48168172600003,197.48168172600003,198.34255789000008,b,1.0,0.8555867780000881,,,,,,sub-147,1,stroop_test,,
,,,,2.0,2.0,0.0,,,,,,,,,,,,,blau,red,r,0.0,r,1.0,0.6104606970000077,,,,,,,,,,0.0,2.0,2.0,4.0,198.347066137,,,,,,,,,,,,,,,,,198.3428399270001,199.5381626590001,200.3295403120001,200.325679606,,,,,,,,,,,,,,,,,,,,,,,,,,,,,,,,,,,200.326016067,200.3295403120001,200.3295403120001,200.94277179100004,r,1.0,0.6104606970000077,,,,,,sub-147,1,stroop_test,,
,,,,3.0,3.0,0.0,,,,,,,,,,,,,rot,blue,b,0.0,b,1.0,0.7171660899998642,,,,,,,,,,0.0,3.0,3.0,2.0,200.9472789870001,,,,,,,,,,,,,,,,,200.94305249500007,201.73814124699996,202.53140956100012,202.52520400799995,,,,,,,,,,,,,,,,,,,,,,,,,,,,,,,,,,,202.52736522100008,202.53140956100012,202.53140956100012,203.25884780699997,b,1.0,0.7171660899998642,,,,,,sub-147,1,stroop_test,,
,,,,4.0,4.0,0.0,,,,,,,,,,,,,rot,red,r,1.0,r,1.0,0.5611570839998876,,,,,,,,,,0.0,4.0,4.0,0.0,203.2633695940001,,,,,,,,,,,,,,,,,203.2591320020001,204.05496466700012,204.845375874,204.84177263200013,,,,,,,,,,,,,,,,,,,,,,,,,,,,,,,,,,,204.842116651,204.845375874,204.845375874,205.40948716899996,r,1.0,0.5611570839998876,,,,,,sub-147,1,stroop_test,,
,,,,5.0,5.0,0.0,,,,,,,,,,,,,rot,yellow,g,0.0,g,1.0,0.399008632999994,,,,,,,,,,0.0,5.0,5.0,3.0,205.41399570499996,,,,,,,,,,,,,,,,,205.40976893100012,206.20496919700008,206.9955299390001,206.99205012700008,,,,,,,,,,,,,,,,,,,,,,,,,,,,,,,,,,,206.99236649399995,206.9955299390001,206.9955299390001,207.39887558200007,g,1.0,0.399008632999994,,,,,,sub-147,1,stroop_test,,
,,,,6.0,6.0,0.0,,,,,,,,,,,,,gelb,blue,b,0.0,b,1.0,0.8203907839999829,,,,,,,,,,0.0,6.0,6.0,9.0,207.4047084440001,,,,,,,,,,,,,,,,,207.3991594250001,207.49427606300011,208.28804113599995,208.279932572,,,,,,,,,,,,,,,,,,,,,,,,,,,,,,,,,,,208.28210493300003,208.28804113599995,208.28804113599995,209.10998298899997,b,1.0,0.8203907839999829,,,,,,sub-147,1,stroop_test,,
,,,,7.0,7.0,0.0,,,,,,,,,,,,,gelb,red,r,0.0,r,1.0,0.423757169000055,,,,,,,,,,0.0,7.0,7.0,8.0,209.11450862000012,,,,,,,,,,,,,,,,,209.1102818530001,209.904930379,210.69596492200003,210.69197648,,,,,,,,,,,,,,,,,,,,,,,,,,,,,,,,,,,210.6923020520001,210.69596492200003,210.69596492200003,211.12573072200007,r,1.0,0.423757169000055,,,,,,sub-147,1,stroop_test,,
,,,,8.0,8.0,0.0,,,,,,,,,,,,,blau,yellow,g,0.0,g,1.0,0.5150135189999219,,,,,,,,,,0.0,8.0,8.0,7.0,211.13014114700013,,,,,,,,,,,,,,,,,211.1260130180001,211.47150509300013,212.264811923,212.2589277490001,,,,,,,,,,,,,,,,,,,,,,,,,,,,,,,,,,,212.261119624,212.264811923,212.264811923,212.7824722370001,g,1.0,0.5150135189999219,,,,,,sub-147,1,stroop_test,,
,,,,9.0,9.0,0.0,,,,,,,,,,,,,rot,red,r,1.0,r,1.0,0.6741495409999061,,,,,,,,,,0.0,9.0,9.0,1.0,212.7880468410001,,,,,,,,,,,,,,,,,212.78275371500013,213.12782184799997,213.92143828200005,213.91399653200008,,,,,,,,,,,,,,,,,,,,,,,,,,,,,,,,,,,213.916132116,213.92143828200005,213.92143828200005,214.5985863820001,r,1.0,0.6741495409999061,,,,,,sub-147,1,stroop_test,,
,,,,10.0,10.0,0.0,,,,,,,,,,,,,blau,blue,b,1.0,b,1.0,0.3810919840000224,,,,,,,,,,0.0,10.0,10.0,6.0,214.60473471800012,,,,,,,,,,,,,,,,,214.59887455600008,215.394899053,216.188135054,216.181688098,,,,,,,,,,,,,,,,,,,,,,,,,,,,,,,,,,,216.1838250620001,216.188135054,216.188135054,216.57575985400013,b,1.0,0.3810919840000224,,,,,,sub-147,1,stroop_test,,
,,,,11.0,11.0,0.0,,,,,,,,,,,,,gelb,yellow,g,1.0,g,1.0,0.832580968000002,,,,,,,,,,0.0,11.0,11.0,11.0,216.580356294,,,,,,,,,,,,,,,,,216.5760376790001,216.9215885220001,217.71549318100008,217.709237672,,,,,,,,,,,,,,,,,,,,,,,,,,,,,,,,,,,217.71144286000003,217.71549318100008,217.71549318100008,218.5496446080001,g,1.0,0.832580968000002,,,,,,sub-147,1,stroop_test,,
,,,,12.0,0.0,1.0,,,,,,,,,,,,,rot,red,r,1.0,r,1.0,0.3274092119997931,,,,,,,,,,1.0,0.0,12.0,0.0,218.554750108,,,,,,,,,,,,,,,,,218.54993314500007,219.74463461999997,220.53820514900008,220.5310160000001,,,,,,,,,,,,,,,,,,,,,,,,,,,,,,,,,,,220.53312972999996,220.53820514900008,220.53820514900008,220.8761362960001,r,1.0,0.3274092119997931,,,,,,sub-147,1,stroop_test,,
,,,,13.0,1.0,1.0,,,,,,,,,,,,,gelb,red,r,0.0,b,0.0,0.9154171870000029,,,,,,,,,,1.0,1.0,13.0,8.0,220.880515375,,,,,,,,,,,,,,,,,220.87641358099995,221.221685366,222.015224238,222.00897895899996,,,,,,,,,,,,,,,,,,,,,,,,,,,,,,,,,,,222.01117341000008,222.015224238,222.015224238,222.93250239400004,b,0.0,0.9154171870000029,,,,,,sub-147,1,stroop_test,,
,,,,14.0,2.0,1.0,,,,,,,,,,,,,gelb,yellow,g,1.0,g,1.0,0.7784562570000162,,,,,,,,,,1.0,2.0,14.0,11.0,222.938107513,,,,,,,,,,,,,,,,,222.93278849900005,223.277684597,224.07163042,224.0646630850001,,,,,,,,,,,,,,,,,,,,,,,,,,,,,,,,,,,224.06499945099995,224.07163042,224.07163042,224.85897340600013,g,1.0,0.7784562570000162,,,,,,sub-147,1,stroop_test,,
,,,,15.0,3.0,1.0,,,,,,,,,,,,,gelb,blue,b,0.0,b,1.0,0.9694222830000854,,,,,,,,,,1.0,3.0,15.0,9.0,224.8633582540001,,,,,,,,,,,,,,,,,224.85925333699996,225.204764847,225.99561165900013,225.991938872,,,,,,,,,,,,,,,,,,,,,,,,,,,,,,,,,,,225.99225831000007,225.99561165900013,225.99561165900013,226.96658896500003,b,1.0,0.9694222830000854,,,,,,sub-147,1,stroop_test,,
,,,,16.0,4.0,1.0,,,,,,,,,,,,,rot,red,r,1.0,r,1.0,0.6063385540001036,,,,,,,,,,1.0,4.0,16.0,1.0,226.97143006500005,,,,,,,,,,,,,,,,,226.96687267800007,227.311235035,228.10497885099997,228.09749560900013,,,,,,,,,,,,,,,,,,,,,,,,,,,,,,,,,,,228.09961757199997,228.10497885099997,228.10497885099997,228.7156780110001,r,1.0,0.6063385540001036,,,,,,sub-147,1,stroop_test,,
,,,,17.0,5.0,1.0,,,,,,,,,,,,,rot,blue,b,0.0,b,1.0,0.7811046239999087,,,,,,,,,,1.0,5.0,17.0,2.0,228.72148155600007,,,,,,,,,,,,,,,,,228.71595491900007,229.06132022700007,229.85498903400003,229.848742317,,,,,,,,,,,,,,,,,,,,,,,,,,,,,,,,,,,229.84906554100007,229.85498903400003,229.85498903400003,230.642821767,b,1.0,0.7811046239999087,,,,,,sub-147,1,stroop_test,,
,,,,18.0,6.0,1.0,,,,,,,,,,,,,rot,yellow,g,0.0,g,1.0,0.511559477999981,,,,,,,,,,1.0,6.0,18.0,3.0,230.64725755300012,,,,,,,,,,,,,,,,,230.64310154200007,231.438379983,232.229168049,232.22547691599996,,,,,,,,,,,,,,,,,,,,,,,,,,,,,,,,,,,232.22581803699995,232.229168049,232.229168049,232.7430812970001,g,1.0,0.511559477999981,,,,,,sub-147,1,stroop_test,,
,,,,19.0,7.0,1.0,,,,,,,,,,,,,blau,yellow,g,0.0,g,1.0,1.003976787000056,,,,,,,,,,1.0,7.0,19.0,7.0,232.747519472,,,,,,,,,,,,,,,,,232.7433644570001,233.93842861300004,234.73156412799997,234.725311017,,,,,,,,,,,,,,,,,,,,,,,,,,,,,,,,,,,234.7277289250001,234.73156412799997,234.73156412799997,235.74274930799996,g,1.0,1.003976787000056,,,,,,sub-147,1,stroop_test,,
,,,,20.0,8.0,1.0,,,,,,,,,,,,,blau,blue,b,1.0,b,1.0,0.4673052289999759,,,,,,,,,,1.0,8.0,20.0,6.0,235.74727824900012,,,,,,,,,,,,,,,,,235.7430268210001,236.5384103880001,237.32949501000007,237.325589154,,,,,,,,,,,,,,,,,,,,,,,,,,,,,,,,,,,237.325917873,237.32949501000007,237.32949501000007,237.799574765,b,1.0,0.4673052289999759,,,,,,sub-147,1,stroop_test,,
,,,,21.0,9.0,1.0,,,,,,,,,,,,,gelb,yellow,g,1.0,g,1.0,0.8215652040000805,,,,,,,,,,1.0,9.0,21.0,10.0,237.80481214600013,,,,,,,,,,,,,,,,,237.7998482630001,237.89498703100003,238.697724224,238.69178552900007,,,,,,,,,,,,,,,,,,,,,,,,,,,,,,,,,,,238.6940063710001,238.697724224,238.697724224,239.52602514699996,g,1.0,0.8215652040000805,,,,,,sub-147,1,stroop_test,,
,,,,22.0,10.0,1.0,,,,,,,,,,,,,blau,red,r,0.0,r,1.0,0.2804921179999837,,,,,,,,,,1.0,10.0,22.0,4.0,239.53049939800007,,,,,,,,,,,,,,,,,239.52630037400013,240.7217451040001,241.515619946,241.5092990820001,,,,,,,,,,,,,,,,,,,,,,,,,,,,,,,,,,,241.51176285,241.515619946,241.515619946,241.7997275980001,r,1.0,0.2804921179999837,,,,,,sub-147,1,stroop_test,,
,,,,23.0,11.0,1.0,,,,,,,,,,,,,blau,blue,b,1.0,b,1.0,0.7544762140000785,,,,,,,,,,1.0,11.0,23.0,5.0,241.804901234,,,,,,,,,,,,,,,,,241.80000123900004,241.89441732,242.6884708130001,242.68208566499996,,,,,,,,,,,,,,,,,,,,,,,,,,,,,,,,,,,242.682405714,242.6884708130001,242.6884708130001,243.44822823100003,b,1.0,0.7544762140000785,,,,,,sub-147,1,stroop_test,,
,,,,24.0,0.0,2.0,,,,,,,,,,,,,gelb,yellow,g,1.0,g,1.0,0.5887241800000993,,,,,,,,,,2.0,0.0,24.0,10.0,243.45491898800012,,,,,,,,,,,,,,,,,243.448522788,243.79496123000013,244.58833653300007,244.58147057600013,,,,,,,,,,,,,,,,,,,,,,,,,,,,,,,,,,,244.58363824799997,244.58833653300007,244.58833653300007,245.1820950430001,g,1.0,0.5887241800000993,,,,,,sub-147,1,stroop_test,,
,,,,25.0,1.0,2.0,,,,,,,,,,,,,gelb,red,r,0.0,r,1.0,0.3548286589998497,,,,,,,,,,2.0,1.0,25.0,8.0,245.18833653699997,,,,,,,,,,,,,,,,,245.1823741610001,245.97810235399996,246.77176257299996,246.7648290480001,,,,,,,,,,,,,,,,,,,,,,,,,,,,,,,,,,,246.76515146199995,246.77176257299996,246.77176257299996,247.131998139,r,1.0,0.3548286589998497,,,,,,sub-147,1,stroop_test,,
,,,,26.0,2.0,2.0,,,,,,,,,,,,,rot,red,r,1.0,r,1.0,0.6825386570001228,,,,,,,,,,2.0,2.0,26.0,1.0,247.13834588200007,,,,,,,,,,,,,,,,,247.1322744470001,248.3280925500001,249.1217671290001,249.1145595140001,,,,,,,,,,,,,,,,,,,,,,,,,,,,,,,,,,,249.1166972000001,249.1217671290001,249.1217671290001,249.809870693,r,1.0,0.6825386570001228,,,,,,sub-147,1,stroop_test,,
,,,,27.0,3.0,2.0,,,,,,,,,,,,,blau,yellow,g,0.0,g,1.0,0.6762199469999359,,,,,,,,,,2.0,3.0,27.0,7.0,249.81443991200013,,,,,,,,,,,,,,,,,249.8101541460001,251.00520295599995,251.79858499500008,251.792418109,,,,,,,,,,,,,,,,,,,,,,,,,,,,,,,,,,,251.7946160070001,251.79858499500008,251.79858499500008,252.476248791,g,1.0,0.6762199469999359,,,,,,sub-147,1,stroop_test,,
,,,,28.0,4.0,2.0,,,,,,,,,,,,,blau,red,r,0.0,r,1.0,0.9433189559999846,,,,,,,,,,2.0,4.0,28.0,4.0,252.48070416,,,,,,,,,,,,,,,,,252.47653968100008,252.5717957710001,253.3624470510001,253.35890919100007,,,,,,,,,,,,,,,,,,,,,,,,,,,,,,,,,,,253.35923215000005,253.3624470510001,253.3624470510001,254.309901074,r,1.0,0.9433189559999846,,,,,,sub-147,1,stroop_test,,
,,,,29.0,5.0,2.0,,,,,,,,,,,,,rot,red,r,1.0,r,1.0,0.5676400299998932,,,,,,,,,,2.0,5.0,29.0,0.0,254.3142912580001,,,,,,,,,,,,,,,,,254.3101766710001,255.5051451480001,256.2985055460001,256.2923157520001,,,,,,,,,,,,,,,,,,,,,,,,,,,,,,,,,,,256.294527559,256.2985055460001,256.2985055460001,256.875883593,r,1.0,0.5676400299998932,,,,,,sub-147,1,stroop_test,,
,,,,30.0,6.0,2.0,,,,,,,,,,,,,rot,blue,b,0.0,b,1.0,0.7563469209999312,,,,,,,,,,2.0,6.0,30.0,2.0,256.88041353200015,,,,,,,,,,,,,,,,,256.8761628100001,256.9720358960001,257.76293335900004,257.75907581599995,,,,,,,,,,,,,,,,,,,,,,,,,,,,,,,,,,,257.75940194500004,257.76293335900004,257.76293335900004,258.5262865530001,b,1.0,0.7563469209999312,,,,,,sub-147,1,stroop_test,,
,,,,31.0,7.0,2.0,,,,,,,,,,,,,gelb,yellow,g,1.0,g,1.0,0.5883754550000049,,,,,,,,,,2.0,7.0,31.0,11.0,258.53090168300014,,,,,,,,,,,,,,,,,258.526573572,259.721864872,260.515415543,260.50927124200007,,,,,,,,,,,,,,,,,,,,,,,,,,,,,,,,,,,260.5114973120001,260.515415543,260.515415543,261.10985821200006,g,1.0,0.5883754550000049,,,,,,sub-147,1,stroop_test,,
,,,,32.0,8.0,2.0,,,,,,,,,,,,,blau,blue,b,1.0,b,1.0,0.6727751700000226,,,,,,,,,,2.0,8.0,32.0,5.0,261.11451218799994,,,,,,,,,,,,,,,,,261.110140175,261.4552404220001,262.2487210219999,262.24250371900007,,,,,,,,,,,,,,,,,,,,,,,,,,,,,,,,,,,262.2446774570001,262.2487210219999,262.2487210219999,262.9264237750001,b,1.0,0.6727751700000226,,,,,,sub-147,1,stroop_test,,
,,,,33.0,9.0,2.0,,,,,,,,,,,,,gelb,blue,b,0.0,b,1.0,0.8029650450000645,,,,,,,,,,2.0,9.0,33.0,9.0,262.930819121,,,,,,,,,,,,,,,,,262.92670527500013,263.72193032099995,264.515077348,264.50919436899994,,,,,,,,,,,,,,,,,,,,,,,,,,,,,,,,,,,264.511386483,264.515077348,264.515077348,265.3261568180001,b,1.0,0.8029650450000645,,,,,,sub-147,1,stroop_test,,
,,,,34.0,10.0,2.0,,,,,,,,,,,,,blau,blue,b,1.0,b,1.0,1.3240897479997784,,,,,,,,,,2.0,10.0,34.0,6.0,265.3306463690001,,,,,,,,,,,,,,,,,265.32643436700005,265.421791559,266.21560675900014,266.209222297,,,,,,,,,,,,,,,,,,,,,,,,,,,,,,,,,,,266.211462388,266.21560675900014,266.21560675900014,267.543255413,b,1.0,1.3240897479997784,,,,,,sub-147,1,stroop_test,,
,,,,35.0,11.0,2.0,,,,,,,,,,,,,rot,yellow,g,0.0,g,1.0,1.1553175409999312,,,,,,,,,,2.0,11.0,35.0,3.0,267.54765631400005,,,,,,,,,,,,,,,,,267.54353043900005,267.888554721,268.68210798500013,268.6760981770001,,,,,,,,,,,,,,,,,,,,,,,,,,,,,,,,,,,268.6782520030001,268.68210798500013,268.68210798500013,269.842787415,g,1.0,1.1553175409999312,,,,,,sub-147,1,stroop_test,,
,,,,36.0,0.0,3.0,,,,,,,,,,,,,blau,red,r,0.0,r,1.0,0.5742320009999275,,,,,,,,,,3.0,0.0,36.0,4.0,269.8471755600001,,,,,,,,,,,,,,,,,269.8430567360001,270.18852403999995,270.98208803600005,270.975994832,,,,,,,,,,,,,,,,,,,,,,,,,,,,,,,,,,,270.978211335,270.98208803600005,270.98208803600005,271.5602531950001,r,1.0,0.5742320009999275,,,,,,sub-147,1,stroop_test,,
,,,,37.0,1.0,3.0,,,,,,,,,,,,,gelb,blue,b,0.0,g,0.0,1.3635968799999318,,,,,,,,,,3.0,1.0,37.0,9.0,271.564716101,,,,,,,,,,,,,,,,,271.5605304390001,271.655550299,272.4482497450001,272.4423522680001,,,,,,,,,,,,,,,,,,,,,,,,,,,,,,,,,,,272.4445144460001,272.4482497450001,272.4482497450001,273.815517561,g,0.0,1.3635968799999318,,,,,,sub-147,1,stroop_test,,
,,,,38.0,2.0,3.0,,,,,,,,,,,,,blau,blue,b,1.0,b,1.0,0.6261905020000995,,,,,,,,,,3.0,2.0,38.0,6.0,273.8218154640001,,,,,,,,,,,,,,,,,273.8157890340001,274.16161246599995,274.95517816999995,274.94860249299995,,,,,,,,,,,,,,,,,,,,,,,,,,,,,,,,,,,274.95078102799994,274.95517816999995,274.95517816999995,275.58290370400005,b,1.0,0.6261905020000995,,,,,,sub-147,1,stroop_test,,
,,,,39.0,3.0,3.0,,,,,,,,,,,,,rot,red,r,1.0,r,1.0,0.7868270219998976,,,,,,,,,,3.0,3.0,39.0,1.0,275.588446041,,,,,,,,,,,,,,,,,275.583186287,276.37802855099994,277.17188050100003,277.165530237,,,,,,,,,,,,,,,,,,,,,,,,,,,,,,,,,,,277.1676659940001,277.17188050100003,277.17188050100003,277.96026448,r,1.0,0.7868270219998976,,,,,,sub-147,1,stroop_test,,
,,,,40.0,4.0,3.0,,,,,,,,,,,,,blau,blue,b,1.0,b,1.0,0.7890063919999193,,,,,,,,,,3.0,4.0,40.0,5.0,277.964803951,,,,,,,,,,,,,,,,,277.960561373,278.0551901240001,278.848721916,278.842676621,,,,,,,,,,,,,,,,,,,,,,,,,,,,,,,,,,,278.8448650780001,278.848721916,278.848721916,279.643116018,b,1.0,0.7890063919999193,,,,,,sub-147,1,stroop_test,,
,,,,41.0,5.0,3.0,,,,,,,,,,,,,blau,yellow,g,0.0,g,1.0,1.0675579329999891,,,,,,,,,,3.0,5.0,41.0,7.0,279.64754897600005,,,,,,,,,,,,,,,,,279.64338964700005,279.9887112220001,280.779398698,280.775852196,,,,,,,,,,,,,,,,,,,,,,,,,,,,,,,,,,,280.776183321,280.779398698,280.779398698,281.848973009,g,1.0,1.0675579329999891,,,,,,sub-147,1,stroop_test,,
,,,,42.0,6.0,3.0,,,,,,,,,,,,,rot,yellow,g,0.0,g,1.0,1.3188756829999877,,,,,,,,,,3.0,6.0,42.0,3.0,281.85517121299995,,,,,,,,,,,,,,,,,281.84925537000004,282.195030632,282.988620595,282.982225835,,,,,,,,,,,,,,,,,,,,,,,,,,,,,,,,,,,282.984416106,282.988620595,282.988620595,284.31022009000003,g,1.0,1.3188756829999877,,,,,,sub-147,1,stroop_test,,
,,,,43.0,7.0,3.0,,,,,,,,,,,,,rot,red,r,1.0,r,1.0,0.5986045320000812,,,,,,,,,,3.0,7.0,43.0,0.0,284.314735938,,,,,,,,,,,,,,,,,284.310506436,285.1056922550001,285.89630789800003,285.89257794000014,,,,,,,,,,,,,,,,,,,,,,,,,,,,,,,,,,,285.8929161850001,285.89630789800003,285.89630789800003,286.499976396,r,1.0,0.5986045320000812,,,,,,sub-147,1,stroop_test,,
,,,,44.0,8.0,3.0,,,,,,,,,,,,,rot,blue,b,0.0,b,1.0,0.9431445109999004,,,,,,,,,,3.0,8.0,44.0,2.0,286.50513004100003,,,,,,,,,,,,,,,,,286.50025752600004,287.2950892430001,288.0887089780001,288.0815913840001,,,,,,,,,,,,,,,,,,,,,,,,,,,,,,,,,,,288.081904829,288.0887089780001,288.0887089780001,289.043002978,b,1.0,0.9431445109999004,,,,,,sub-147,1,stroop_test,,
,,,,45.0,9.0,3.0,,,,,,,,,,,,,gelb,red,r,0.0,r,1.0,1.086458207000078,,,,,,,,,,3.0,9.0,45.0,8.0,289.04742446900013,,,,,,,,,,,,,,,,,289.04328102399995,289.838701485,290.633031719,290.62667999500013,,,,,,,,,,,,,,,,,,,,,,,,,,,,,,,,,,,290.62895426800014,290.633031719,290.633031719,291.726252189,r,1.0,1.086458207000078,,,,,,sub-147,1,stroop_test,,
,,,,46.0,10.0,3.0,,,,,,,,,,,,,gelb,yellow,g,1.0,g,1.0,0.7931748800001515,,,,,,,,,,3.0,10.0,46.0,11.0,291.73064388500006,,,,,,,,,,,,,,,,,291.7265289670001,291.82204097,292.6132037,292.609414413,,,,,,,,,,,,,,,,,,,,,,,,,,,,,,,,,,,292.60974426000007,292.6132037,292.6132037,293.410040237,g,1.0,0.7931748800001515,,,,,,sub-147,1,stroop_test,,
,,,,47.0,11.0,3.0,,,,,,,,,,,,,gelb,yellow,g,1.0,g,1.0,0.7532534079998641,,,,,,,,,,3.0,11.0,47.0,10.0,293.41445756300004,,,,,,,,,,,,,,,,,293.41032177600005,293.50530137500004,294.296758535,294.292646163,,,,,,,,,,,,,,,,,,,,,,,,,,,,,,,,,,,294.2929927110001,294.296758535,294.296758535,295.05974798600005,g,1.0,0.7532534079998641,,,,,,sub-147,1,stroop_test,,
,,,,48.0,0.0,4.0,,,,,,,,,,,,,rot,red,r,1.0,r,1.0,0.6857310210000378,,,,,,,,,,4.0,0.0,48.0,0.0,295.064210473,,,,,,,,,,,,,,,,,295.06002045900004,295.155447118,295.94882141300013,295.94265874100006,,,,,,,,,,,,,,,,,,,,,,,,,,,,,,,,,,,295.94480300300006,295.94882141300013,295.94882141300013,296.642889771,r,1.0,0.6857310210000378,,,,,,sub-147,1,stroop_test,,
,,,,49.0,1.0,4.0,,,,,,,,,,,,,rot,red,r,1.0,r,1.0,0.8105845589998353,,,,,,,,,,4.0,1.0,49.0,1.0,296.647346275,,,,,,,,,,,,,,,,,296.64316594599995,296.98876508600006,297.77993802900005,297.77612810200003,,,,,,,,,,,,,,,,,,,,,,,,,,,,,,,,,,,297.7764522950001,297.77993802900005,297.77993802900005,298.59355088200005,r,1.0,0.8105845589998353,,,,,,sub-147,1,stroop_test,,
,,,,50.0,2.0,4.0,,,,,,,,,,,,,gelb,yellow,g,1.0,g,1.0,0.6623853769999641,,,,,,,,,,4.0,2.0,50.0,10.0,298.59805671899994,,,,,,,,,,,,,,,,,298.59384449799995,299.788858982,300.58237172300005,300.576341341,,,,,,,,,,,,,,,,,,,,,,,,,,,,,,,,,,,300.57855198,300.58237172300005,300.58237172300005,301.24948305600014,g,1.0,0.6623853769999641,,,,,,sub-147,1,stroop_test,,
,,,,51.0,3.0,4.0,,,,,,,,,,,,,blau,red,r,0.0,r,1.0,0.739594100999966,,,,,,,,,,4.0,3.0,51.0,4.0,301.2552398380001,,,,,,,,,,,,,,,,,301.249758378,301.345429102,302.138732531,302.13170682200007,,,,,,,,,,,,,,,,,,,,,,,,,,,,,,,,,,,302.13388335600007,302.138732531,302.138732531,302.88268991400014,r,1.0,0.739594100999966,,,,,,sub-147,1,stroop_test,,
,,,,52.0,4.0,4.0,,,,,,,,,,,,,blau,blue,b,1.0,b,1.0,0.5468171610000354,,,,,,,,,,4.0,4.0,52.0,6.0,302.888617673,,,,,,,,,,,,,,,,,302.88296864400013,302.97840190700003,303.7722625450001,303.7657263870001,,,,,,,,,,,,,,,,,,,,,,,,,,,,,,,,,,,303.76605767699994,303.7722625450001,303.7722625450001,304.326447082,b,1.0,0.5468171610000354,,,,,,sub-147,1,stroop_test,,
,,,,53.0,5.0,4.0,,,,,,,,,,,,,gelb,blue,b,0.0,b,1.0,1.047776532999933,,,,,,,,,,4.0,5.0,53.0,9.0,304.330888558,,,,,,,,,,,,,,,,,304.32672173900005,305.522070082,306.31598186500014,306.309511808,,,,,,,,,,,,,,,,,,,,,,,,,,,,,,,,,,,306.31218712200007,306.31598186500014,306.31598186500014,307.36610837600006,b,1.0,1.047776532999933,,,,,,sub-147,1,stroop_test,,
,,,,54.0,6.0,4.0,,,,,,,,,,,,,gelb,yellow,g,1.0,g,1.0,0.804426476000117,,,,,,,,,,4.0,6.0,54.0,11.0,307.371968943,,,,,,,,,,,,,,,,,307.3663840050001,307.7116127890001,308.5054230820001,308.498525151,,,,,,,,,,,,,,,,,,,,,,,,,,,,,,,,,,,308.498842919,308.5054230820001,308.5054230820001,309.316001187,g,1.0,0.804426476000117,,,,,,sub-147,1,stroop_test,,
,,,,55.0,7.0,4.0,,,,,,,,,,,,,rot,yellow,g,0.0,g,1.0,0.864431206000063,,,,,,,,,,4.0,7.0,55.0,3.0,309.32199577200004,,,,,,,,,,,,,,,,,309.316274647,310.511773535,311.3054207360001,311.2982968180001,,,,,,,,,,,,,,,,,,,,,,,,,,,,,,,,,,,311.30044490499995,311.3054207360001,311.3054207360001,312.176450707,g,1.0,0.864431206000063,,,,,,sub-147,1,stroop_test,,
,,,,56.0,8.0,4.0,,,,,,,,,,,,,rot,blue,b,0.0,b,1.0,0.7354324440000255,,,,,,,,,,4.0,8.0,56.0,2.0,312.181061453,,,,,,,,,,,,,,,,,312.17673699700003,313.37219135400005,314.1631952370001,314.1593556130001,,,,,,,,,,,,,,,,,,,,,,,,,,,,,,,,,,,314.1596976620001,314.1631952370001,314.1631952370001,314.9093477650001,b,1.0,0.7354324440000255,,,,,,sub-147,1,stroop_test,,
,,,,57.0,9.0,4.0,,,,,,,,,,,,,blau,blue,b,1.0,b,1.0,0.8482987729998968,,,,,,,,,,4.0,9.0,57.0,5.0,314.91390575700007,,,,,,,,,,,,,,,,,314.9096255490001,315.005556542,315.79895365,315.792639067,,,,,,,,,,,,,,,,,,,,,,,,,,,,,,,,,,,315.79490722800006,315.79895365,315.79895365,316.64971779100006,b,1.0,0.8482987729998968,,,,,,sub-147,1,stroop_test,,
,,,,58.0,10.0,4.0,,,,,,,,,,,,,gelb,red,r,0.0,r,1.0,0.821943279999914,,,,,,,,,,4.0,10.0,58.0,8.0,316.655372533,,,,,,,,,,,,,,,,,316.649998787,316.74531662899994,317.5388571000001,317.532724312,,,,,,,,,,,,,,,,,,,,,,,,,,,,,,,,,,,317.5349801950001,317.5388571000001,317.5388571000001,318.3662267510001,r,1.0,0.821943279999914,,,,,,sub-147,1,stroop_test,,
,,,,59.0,11.0,4.0,,,,,,,,,,,,,blau,yellow,g,0.0,g,1.0,0.5559168199999931,,,,,,,,,,4.0,11.0,59.0,7.0,318.3720505420001,,,,,,,,,,,,,,,,,318.36650004700005,319.161845522,319.9554985970001,319.94872977,,,,,,,,,,,,,,,,,,,,,,,,,,,,,,,,,,,319.95089618299994,319.9554985970001,319.9554985970001,320.5161120350001,g,1.0,0.5559168199999931,,,,,,sub-147,1,stroop_test,,
,,,,60.0,0.0,5.0,,,,,,,,,,,,,rot,blue,b,0.0,b,1.0,0.8843683180000426,,,,,,,,,,5.0,0.0,60.0,2.0,320.522054151,,,,,,,,,,,,,,,,,320.5163904220001,321.311733903,322.10545745000013,322.0991232640001,,,,,,,,,,,,,,,,,,,,,,,,,,,,,,,,,,,322.1015579760001,322.10545745000013,322.10545745000013,322.9935721260001,b,1.0,0.8843683180000426,,,,,,sub-147,1,stroop_test,,
,,,,61.0,1.0,5.0,,,,,,,,,,,,,gelb,blue,b,0.0,b,1.0,0.6583539069999915,,,,,,,,,,5.0,1.0,61.0,9.0,322.99799801300014,,,,,,,,,,,,,,,,,322.99384484000007,323.33892725600003,324.131932262,324.125848229,,,,,,,,,,,,,,,,,,,,,,,,,,,,,,,,,,,324.128089005,324.131932262,324.131932262,324.79394562,b,1.0,0.6583539069999915,,,,,,sub-147,1,stroop_test,,
,,,,62.0,2.0,5.0,,,,,,,,,,,,,blau,blue,b,1.0,b,1.0,0.5371908649999568,,,,,,,,,,5.0,2.0,62.0,6.0,324.798413626,,,,,,,,,,,,,,,,,324.7942197740001,325.588964131,326.38289046900013,326.376748639,,,,,,,,,,,,,,,,,,,,,,,,,,,,,,,,,,,326.37897107899994,326.38289046900013,326.38289046900013,326.92679355199994,b,1.0,0.5371908649999568,,,,,,sub-147,1,stroop_test,,
,,,,63.0,3.0,5.0,,,,,,,,,,,,,gelb,red,r,0.0,r,1.0,0.4876338489998488,,,,,,,,,,5.0,3.0,63.0,8.0,326.93123011700004,,,,,,,,,,,,,,,,,326.9270712330001,328.1223398900001,328.91515344100003,328.9092236470001,,,,,,,,,,,,,,,,,,,,,,,,,,,,,,,,,,,328.9114244340001,328.91515344100003,328.91515344100003,329.410054661,r,1.0,0.4876338489998488,,,,,,sub-147,1,stroop_test,,
,,,,64.0,4.0,5.0,,,,,,,,,,,,,gelb,yellow,g,1.0,g,1.0,0.8164203660001021,,,,,,,,,,5.0,4.0,64.0,11.0,329.414468363,,,,,,,,,,,,,,,,,329.410324445,329.75588645300013,330.5467636630001,330.54303616100015,,,,,,,,,,,,,,,,,,,,,,,,,,,,,,,,,,,330.5433808740001,330.5467636630001,330.5467636630001,331.36668204500006,g,1.0,0.8164203660001021,,,,,,sub-147,1,stroop_test,,
,,,,65.0,5.0,5.0,,,,,,,,,,,,,blau,blue,b,1.0,b,1.0,0.6742129970000406,,,,,,,,,,5.0,5.0,65.0,5.0,331.372142987,,,,,,,,,,,,,,,,,331.36695797,332.1621062900001,332.95559409299995,332.94831130600005,,,,,,,,,,,,,,,,,,,,,,,,,,,,,,,,,,,332.9504753230001,332.95559409299995,332.95559409299995,333.63275126400004,b,1.0,0.6742129970000406,,,,,,sub-147,1,stroop_test,,
,,,,66.0,6.0,5.0,,,,,,,,,,,,,rot,red,r,1.0,r,1.0,0.5381693879999148,,,,,,,,,,5.0,6.0,66.0,0.0,333.63884432500004,,,,,,,,,,,,,,,,,333.63302563799994,333.978911812,334.7722717700001,334.765586045,,,,,,,,,,,,,,,,,,,,,,,,,,,,,,,,,,,334.767819961,334.7722717700001,334.7722717700001,335.3161771570001,r,1.0,0.5381693879999148,,,,,,sub-147,1,stroop_test,,
,,,,67.0,7.0,5.0,,,,,,,,,,,,,blau,red,r,0.0,r,1.0,0.7126938290000453,,,,,,,,,,5.0,7.0,67.0,4.0,335.3221782980001,,,,,,,,,,,,,,,,,335.3164527650001,336.11184392,336.9056071760001,336.899081345,,,,,,,,,,,,,,,,,,,,,,,,,,,,,,,,,,,336.90133281700014,336.9056071760001,336.9056071760001,337.626521806,r,1.0,0.7126938290000453,,,,,,sub-147,1,stroop_test,,
,,,,68.0,8.0,5.0,,,,,,,,,,,,,rot,red,r,1.0,r,1.0,0.6827374439999403,,,,,,,,,,5.0,8.0,68.0,1.0,337.63102998800014,,,,,,,,,,,,,,,,,337.626797897,337.9723297810001,338.7657975090001,338.759632971,,,,,,,,,,,,,,,,,,,,,,,,,,,,,,,,,,,338.761784413,338.7657975090001,338.7657975090001,339.460697385,r,1.0,0.6827374439999403,,,,,,sub-147,1,stroop_test,,
,,,,69.0,9.0,5.0,,,,,,,,,,,,,gelb,yellow,g,1.0,g,1.0,1.1652204750000692,,,,,,,,,,5.0,9.0,69.0,10.0,339.46524203900003,,,,,,,,,,,,,,,,,339.460996021,340.25575098000013,341.04921736000006,341.04285602999994,,,,,,,,,,,,,,,,,,,,,,,,,,,,,,,,,,,341.04510950100007,341.04921736000006,341.04921736000006,342.2166367550001,g,1.0,1.1652204750000692,,,,,,sub-147,1,stroop_test,,
,,,,70.0,10.0,5.0,,,,,,,,,,,,,blau,yellow,g,0.0,g,1.0,0.9289342310000848,,,,,,,,,,5.0,10.0,70.0,7.0,342.22231500600014,,,,,,,,,,,,,,,,,342.2169171820001,343.0122151120001,343.805634069,343.79859202500006,,,,,,,,,,,,,,,,,,,,,,,,,,,,,,,,,,,343.800968601,343.805634069,343.805634069,344.74375529200006,g,1.0,0.9289342310000848,,,,,,sub-147,1,stroop_test,,
,,,,71.0,11.0,5.0,,,,,,,,,,,,,rot,yellow,g,0.0,g,1.0,0.8639709660001245,,,,,,,,,,5.0,11.0,71.0,3.0,344.74831118,,,,,,,,,,,,,,,,,344.74404068900003,345.9391284820001,346.7328802090001,346.7263913440001,,,,,,,,,,,,,,,,,,,,,,,,,,,,,,,,,,,346.72876852600007,346.7328802090001,346.7328802090001,347.59981105,g,1.0,0.8639709660001245,,,,,,sub-147,1,stroop_test,,
,,,,72.0,0.0,6.0,,,,,,,,,,,,,blau,blue,b,1.0,b,1.0,0.7446014810000179,,,,,,,,,,6.0,0.0,72.0,5.0,347.60556172,,,,,,,,,,,,,,,,,347.60008339599995,347.94537193500014,348.73902650700006,348.7320468600001,,,,,,,,,,,,,,,,,,,,,,,,,,,,,,,,,,,348.7342091350001,348.73902650700006,348.73902650700006,349.4933923650001,b,1.0,0.7446014810000179,,,,,,sub-147,1,stroop_test,,
,,,,73.0,1.0,6.0,,,,,,,,,,,,,gelb,yellow,g,1.0,g,1.0,0.6203061999999591,,,,,,,,,,6.0,1.0,73.0,11.0,349.49779923100004,,,,,,,,,,,,,,,,,349.49366756099994,350.6891074980001,351.48267008900007,351.47642139999994,,,,,,,,,,,,,,,,,,,,,,,,,,,,,,,,,,,351.47867423799994,351.48267008900007,351.48267008900007,352.10998820500004,g,1.0,0.6203061999999591,,,,,,sub-147,1,stroop_test,,
,,,,74.0,2.0,6.0,,,,,,,,,,,,,gelb,blue,b,0.0,b,1.0,1.0643849640000551,,,,,,,,,,6.0,2.0,74.0,9.0,352.1143907590001,,,,,,,,,,,,,,,,,352.1102645820001,353.3057597050001,354.096775753,354.09293277300003,,,,,,,,,,,,,,,,,,,,,,,,,,,,,,,,,,,354.093245043,354.096775753,354.096775753,355.1659555030001,b,1.0,1.0643849640000551,,,,,,sub-147,1,stroop_test,,
,,,,75.0,3.0,6.0,,,,,,,,,,,,,gelb,red,r,0.0,r,1.0,0.6289655930002027,,,,,,,,,,6.0,3.0,75.0,8.0,355.17227152400005,,,,,,,,,,,,,,,,,355.166234089,355.962128869,356.75576802800015,356.74911413300015,,,,,,,,,,,,,,,,,,,,,,,,,,,,,,,,,,,356.74943096100014,356.75576802800015,356.75576802800015,357.3933784420001,r,1.0,0.6289655930002027,,,,,,sub-147,1,stroop_test,,
,,,,76.0,4.0,6.0,,,,,,,,,,,,,rot,red,r,1.0,r,1.0,0.7998142100000223,,,,,,,,,,6.0,4.0,76.0,1.0,357.397921624,,,,,,,,,,,,,,,,,357.39366393900013,358.18928919400014,358.98234284499995,358.97614908800006,,,,,,,,,,,,,,,,,,,,,,,,,,,,,,,,,,,358.97834804600006,358.98234284499995,358.98234284499995,359.783647232,r,1.0,0.7998142100000223,,,,,,sub-147,1,stroop_test,,
,,,,77.0,5.0,6.0,,,,,,,,,,,,,blau,blue,b,1.0,b,1.0,0.8596502909999799,,,,,,,,,,6.0,5.0,77.0,6.0,359.788963407,,,,,,,,,,,,,,,,,359.783927897,359.878750888,360.672376107,360.6656606920001,,,,,,,,,,,,,,,,,,,,,,,,,,,,,,,,,,,360.667823085,360.672376107,360.672376107,361.543293408,b,1.0,0.8596502909999799,,,,,,sub-147,1,stroop_test,,
,,,,78.0,6.0,6.0,,,,,,,,,,,,,gelb,yellow,g,1.0,g,1.0,0.6940679720000844,,,,,,,,,,6.0,6.0,78.0,10.0,361.5477544800001,,,,,,,,,,,,,,,,,361.54356484,361.889357214,362.682404718,362.6762554980001,,,,,,,,,,,,,,,,,,,,,,,,,,,,,,,,,,,362.67849185700015,362.682404718,362.682404718,363.3824954900001,g,1.0,0.6940679720000844,,,,,,sub-147,1,stroop_test,,
,,,,79.0,7.0,6.0,,,,,,,,,,,,,blau,red,r,0.0,r,1.0,0.7455804260000605,,,,,,,,,,6.0,7.0,79.0,4.0,363.3890743,,,,,,,,,,,,,,,,,363.382772312,364.57896010600007,365.37238067600015,365.364974115,,,,,,,,,,,,,,,,,,,,,,,,,,,,,,,,,,,365.3671253170001,365.37238067600015,365.37238067600015,366.126977309,r,1.0,0.7455804260000605,,,,,,sub-147,1,stroop_test,,
,,,,80.0,8.0,6.0,,,,,,,,,,,,,rot,red,r,1.0,r,1.0,0.697966906999909,,,,,,,,,,6.0,8.0,80.0,0.0,366.13146842000015,,,,,,,,,,,,,,,,,366.127253595,366.222507171,367.016661206,367.01043449100007,,,,,,,,,,,,,,,,,,,,,,,,,,,,,,,,,,,367.012868821,367.016661206,367.016661206,367.7165573360001,r,1.0,0.697966906999909,,,,,,sub-147,1,stroop_test,,
,,,,81.0,9.0,6.0,,,,,,,,,,,,,rot,blue,b,0.0,b,1.0,0.7379179219999514,,,,,,,,,,6.0,9.0,81.0,2.0,367.722350732,,,,,,,,,,,,,,,,,367.716848388,367.811924332,368.605847869,368.598960545,,,,,,,,,,,,,,,,,,,,,,,,,,,,,,,,,,,368.599273604,368.605847869,368.605847869,369.3497987150001,b,1.0,0.7379179219999514,,,,,,sub-147,1,stroop_test,,
,,,,82.0,10.0,6.0,,,,,,,,,,,,,rot,yellow,g,0.0,g,1.0,0.9343798070001412,,,,,,,,,,6.0,10.0,82.0,3.0,369.3557370620001,,,,,,,,,,,,,,,,,369.350078251,369.4454292580001,370.239069102,370.231164823,,,,,,,,,,,,,,,,,,,,,,,,,,,,,,,,,,,370.2314811640001,370.239069102,370.239069102,371.177252276,g,1.0,0.9343798070001412,,,,,,sub-147,1,stroop_test,,
,,,,83.0,11.0,6.0,,,,,,,,,,,,,blau,yellow,g,0.0,g,1.0,0.6824233190000086,,,,,,,,,,6.0,11.0,83.0,7.0,371.1816522849999,,,,,,,,,,,,,,,,,371.1775258570001,371.522597058,372.316092602,372.3097641030001,,,,,,,,,,,,,,,,,,,,,,,,,,,,,,,,,,,372.31213650199993,372.316092602,372.316092602,373.0002042640001,g,1.0,0.6824233190000086,,,,,,sub-147,1,stroop_test,,
,,,,84.0,0.0,7.0,,,,,,,,,,,,,gelb,red,r,0.0,r,1.0,0.6184327869998469,,,,,,,,,,7.0,0.0,84.0,8.0,373.005779655,,,,,,,,,,,,,,,,,373.000477716,373.34605853900007,374.1392237130001,374.1322197100001,,,,,,,,,,,,,,,,,,,,,,,,,,,,,,,,,,,374.134389288,374.1392237130001,374.1392237130001,374.7606793960001,r,1.0,0.6184327869998469,,,,,,sub-147,1,stroop_test,,
,,,,85.0,1.0,7.0,,,,,,,,,,,,,gelb,yellow,g,1.0,g,1.0,1.5059676410000975,,,,,,,,,,7.0,1.0,85.0,11.0,374.765171219,,,,,,,,,,,,,,,,,374.76098526300007,375.956067246,376.747294196,376.743534554,,,,,,,,,,,,,,,,,,,,,,,,,,,,,,,,,,,376.743860928,376.747294196,376.747294196,378.26120978300014,g,1.0,1.5059676410000975,,,,,,sub-147,1,stroop_test,,
,,,,86.0,2.0,7.0,,,,,,,,,,,,,blau,blue,b,1.0,b,1.0,0.9435998030000974,,,,,,,,,,7.0,2.0,86.0,6.0,378.2656887380001,,,,,,,,,,,,,,,,,378.261485944,379.055921574,379.849996508,379.84356210300007,,,,,,,,,,,,,,,,,,,,,,,,,,,,,,,,,,,379.845978074,379.849996508,379.849996508,380.79961644800005,b,1.0,0.9435998030000974,,,,,,sub-147,1,stroop_test,,
,,,,87.0,3.0,7.0,,,,,,,,,,,,,rot,yellow,g,0.0,g,1.0,0.6784897659999842,,,,,,,,,,7.0,3.0,87.0,3.0,380.8057696670001,,,,,,,,,,,,,,,,,380.799899868,381.995779765,382.789227834,382.783255926,,,,,,,,,,,,,,,,,,,,,,,,,,,,,,,,,,,382.7856444470001,382.789227834,382.789227834,383.4767928630001,g,1.0,0.6784897659999842,,,,,,sub-147,1,stroop_test,,
,,,,88.0,4.0,7.0,,,,,,,,,,,,,blau,blue,b,1.0,b,1.0,0.7726398909999261,,,,,,,,,,7.0,4.0,88.0,5.0,383.48126441599993,,,,,,,,,,,,,,,,,383.47706832300014,383.572664408,384.365858575,384.35967435500015,,,,,,,,,,,,,,,,,,,,,,,,,,,,,,,,,,,384.3619227690001,384.365858575,384.365858575,385.1438348270001,b,1.0,0.7726398909999261,,,,,,sub-147,1,stroop_test,,
,,,,89.0,5.0,7.0,,,,,,,,,,,,,gelb,yellow,g,1.0,g,1.0,0.7282634949999647,,,,,,,,,,7.0,5.0,89.0,10.0,385.1482699370001,,,,,,,,,,,,,,,,,385.144111867,385.9393880110001,386.732744922,386.7265329890001,,,,,,,,,,,,,,,,,,,,,,,,,,,,,,,,,,,386.728719659,386.732744922,386.732744922,387.467178891,g,1.0,0.7282634949999647,,,,,,sub-147,1,stroop_test,,
,,,,90.0,6.0,7.0,,,,,,,,,,,,,rot,red,r,1.0,r,1.0,0.50965882100013,,,,,,,,,,7.0,6.0,90.0,1.0,387.4724754450001,,,,,,,,,,,,,,,,,387.467452032,388.262957961,389.05590761100007,389.049460425,,,,,,,,,,,,,,,,,,,,,,,,,,,,,,,,,,,389.051592822,389.05590761100007,389.05590761100007,389.5671260280001,r,1.0,0.50965882100013,,,,,,sub-147,1,stroop_test,,
,,,,91.0,7.0,7.0,,,,,,,,,,,,,rot,red,r,1.0,r,1.0,0.7682144499999595,,,,,,,,,,7.0,7.0,91.0,0.0,389.572461946,,,,,,,,,,,,,,,,,389.56740067400006,390.7623534510001,391.556018671,391.549151831,,,,,,,,,,,,,,,,,,,,,,,,,,,,,,,,,,,391.549470656,391.556018671,391.556018671,392.32726349,r,1.0,0.7682144499999595,,,,,,sub-147,1,stroop_test,,
,,,,92.0,8.0,7.0,,,,,,,,,,,,,blau,red,r,0.0,r,1.0,0.5696054469999581,,,,,,,,,,7.0,8.0,92.0,4.0,392.3317359530001,,,,,,,,,,,,,,,,,392.3275443970001,393.52265252000007,394.316133719,394.310047358,,,,,,,,,,,,,,,,,,,,,,,,,,,,,,,,,,,394.312254815,394.316133719,394.316133719,394.893763752,r,1.0,0.5696054469999581,,,,,,sub-147,1,stroop_test,,
,,,,93.0,9.0,7.0,,,,,,,,,,,,,blau,yellow,g,0.0,g,1.0,1.1408839319997242,,,,,,,,,,7.0,9.0,93.0,7.0,394.89821896600006,,,,,,,,,,,,,,,,,394.8940403520001,395.689436613,396.48006773600014,396.4765815660001,,,,,,,,,,,,,,,,,,,,,,,,,,,,,,,,,,,396.4769136329999,396.48006773600014,396.48006773600014,397.62716724000006,g,1.0,1.1408839319997242,,,,,,sub-147,1,stroop_test,,
,,,,94.0,10.0,7.0,,,,,,,,,,,,,rot,blue,b,0.0,b,1.0,0.9280774300000304,,,,,,,,,,7.0,10.0,94.0,2.0,397.631642825,,,,,,,,,,,,,,,,,397.6274497279999,397.722793268,398.51607190100026,398.50999023300005,,,,,,,,,,,,,,,,,,,,,,,,,,,,,,,,,,,398.512131537,398.51607190100026,398.51607190100026,399.4498079860002,b,1.0,0.9280774300000304,,,,,,sub-147,1,stroop_test,,
,,,,95.0,11.0,7.0,,,,,,,,,,,,,gelb,blue,b,0.0,b,1.0,1.1713291689998186,,,,,,,,,,7.0,11.0,95.0,9.0,399.4558859850001,,,,,,,,,,,,,,,,,399.4500821590002,400.2457127770001,401.0394047719999,401.03263766600026,,,,,,,,,,,,,,,,,,,,,,,,,,,,,,,,,,,401.03517161700006,401.0394047719999,401.0394047719999,402.21674126,b,1.0,1.1713291689998186,,,,,,sub-147,1,stroop_test,,
,,,,96.0,0.0,8.0,,,,,,,,,,,,,gelb,yellow,g,1.0,g,1.0,0.7728398580002249,,,,,,,,,,8.0,0.0,96.0,11.0,402.222577757,,,,,,,,,,,,,,,,,402.2170125969999,402.5625522150001,403.35607603,403.34928764200026,,,,,,,,,,,,,,,,,,,,,,,,,,,,,,,,,,,403.349618426,403.35607603,403.35607603,404.1336902430001,g,1.0,0.7728398580002249,,,,,,sub-147,1,stroop_test,,
,,,,97.0,1.0,8.0,,,,,,,,,,,,,rot,yellow,g,0.0,g,1.0,0.8834410549998211,,,,,,,,,,8.0,1.0,97.0,3.0,404.13927918700006,,,,,,,,,,,,,,,,,404.13397202400006,404.2288251870002,405.0227031370002,405.0152968370001,,,,,,,,,,,,,,,,,,,,,,,,,,,,,,,,,,,405.0174643060002,405.0227031370002,405.0227031370002,405.9104854190002,g,1.0,0.8834410549998211,,,,,,sub-147,1,stroop_test,,
,,,,98.0,2.0,8.0,,,,,,,,,,,,,rot,red,r,1.0,r,1.0,0.4708713639997768,,,,,,,,,,8.0,2.0,98.0,0.0,405.914919261,,,,,,,,,,,,,,,,,405.91076394800007,407.10621540399984,407.897578669,407.89362640700006,,,,,,,,,,,,,,,,,,,,,,,,,,,,,,,,,,,407.893967017,407.897578669,407.897578669,408.37694689700015,r,1.0,0.4708713639997768,,,,,,sub-147,1,stroop_test,,
,,,,99.0,3.0,8.0,,,,,,,,,,,,,blau,yellow,g,0.0,g,1.0,1.2133010299999114,,,,,,,,,,8.0,3.0,99.0,7.0,408.381373255,,,,,,,,,,,,,,,,,408.3772247489999,408.72309878300007,409.51618628300025,409.5099197820002,,,,,,,,,,,,,,,,,,,,,,,,,,,,,,,,,,,409.5121487140002,409.51618628300025,409.51618628300025,410.7325940940002,g,1.0,1.2133010299999114,,,,,,sub-147,1,stroop_test,,
,,,,100.0,4.0,8.0,,,,,,,,,,,,,blau,red,r,0.0,r,1.0,0.718094655999721,,,,,,,,,,8.0,4.0,100.0,4.0,410.7392650160002,,,,,,,,,,,,,,,,,410.7328978600001,410.82914067900015,411.62286331300015,411.6157237059999,,,,,,,,,,,,,,,,,,,,,,,,,,,,,,,,,,,411.61605095200025,411.62286331300015,411.62286331300015,412.344452347,r,1.0,0.718094655999721,,,,,,sub-147,1,stroop_test,,
,,,,101.0,5.0,8.0,,,,,,,,,,,,,blau,blue,b,1.0,b,1.0,0.6004898290002529,,,,,,,,,,8.0,5.0,101.0,6.0,412.34882346200015,,,,,,,,,,,,,,,,,412.34472591200006,412.439413074,413.2303994189999,413.226559642,,,,,,,,,,,,,,,,,,,,,,,,,,,,,,,,,,,413.226889546,413.2303994189999,413.2303994189999,413.8328562290001,b,1.0,0.6004898290002529,,,,,,sub-147,1,stroop_test,,
,,,,102.0,6.0,8.0,,,,,,,,,,,,,blau,blue,b,1.0,b,1.0,0.4115695620002952,,,,,,,,,,8.0,6.0,102.0,5.0,413.8393437980001,,,,,,,,,,,,,,,,,413.833130491,414.62907483,415.4228508100002,415.415746555,,,,,,,,,,,,,,,,,,,,,,,,,,,,,,,,,,,415.4160565180002,415.4228508100002,415.4228508100002,415.8440878690001,b,1.0,0.4115695620002952,,,,,,sub-147,1,stroop_test,,
,,,,103.0,7.0,8.0,,,,,,,,,,,,,gelb,blue,b,0.0,b,1.0,0.6580569890002153,,,,,,,,,,8.0,7.0,103.0,9.0,415.8485948780001,,,,,,,,,,,,,,,,,415.8443635599999,417.039656354,417.8324675500001,417.82645997199984,,,,,,,,,,,,,,,,,,,,,,,,,,,,,,,,,,,417.82864203500026,417.8324675500001,417.8324675500001,418.49417142000016,b,1.0,0.6580569890002153,,,,,,sub-147,1,stroop_test,,
,,,,104.0,8.0,8.0,,,,,,,,,,,,,rot,blue,b,0.0,b,1.0,0.579163535999669,,,,,,,,,,8.0,8.0,104.0,2.0,418.498596014,,,,,,,,,,,,,,,,,418.49445275,418.589485445,419.3828202450002,419.3768211059999,,,,,,,,,,,,,,,,,,,,,,,,,,,,,,,,,,,419.37897586600025,419.3828202450002,419.3828202450002,419.966580437,b,1.0,0.579163535999669,,,,,,sub-147,1,stroop_test,,
,,,,105.0,9.0,8.0,,,,,,,,,,,,,rot,red,r,1.0,r,1.0,0.6054385349998483,,,,,,,,,,8.0,9.0,105.0,1.0,419.9727656809998,,,,,,,,,,,,,,,,,419.96685329700017,420.0630387230001,420.86320058700016,420.8595981830001,,,,,,,,,,,,,,,,,,,,,,,,,,,,,,,,,,,420.86003304300016,420.86320058700016,420.86320058700016,421.477321355,r,1.0,0.6054385349998483,,,,,,sub-147,1,stroop_test,,
,,,,106.0,10.0,8.0,,,,,,,,,,,,,gelb,yellow,g,1.0,g,1.0,0.7556814929998836,,,,,,,,,,8.0,10.0,106.0,10.0,421.4817809110002,,,,,,,,,,,,,,,,,421.477595269,421.57310637900014,422.3655535820001,422.359549214,,,,,,,,,,,,,,,,,,,,,,,,,,,,,,,,,,,422.361758414,422.3655535820001,422.3655535820001,423.12705477500026,g,1.0,0.7556814929998836,,,,,,sub-147,1,stroop_test,,
,,,,107.0,11.0,8.0,,,,,,,,,,,,,gelb,red,r,0.0,r,1.0,1.2010249469999508,,,,,,,,,,8.0,11.0,107.0,8.0,423.1314844300002,,,,,,,,,,,,,,,,,423.12733843,423.47278616000017,424.263773591,424.259911032,,,,,,,,,,,,,,,,,,,,,,,,,,,,,,,,,,,424.260249021,424.263773591,424.263773591,425.46727865900016,r,1.0,1.2010249469999508,,,,,,sub-147,1,stroop_test,,
,,,,108.0,0.0,9.0,,,,,,,,,,,,,blau,yellow,g,0.0,g,1.0,1.004457597000055,,,,,,,,,,9.0,0.0,108.0,7.0,425.4727870869999,,,,,,,,,,,,,,,,,425.467556545,425.81248543100014,426.60620146,426.599972495,,,,,,,,,,,,,,,,,,,,,,,,,,,,,,,,,,,426.60217737900007,426.60620146,426.60620146,427.6167097670002,g,1.0,1.004457597000055,,,,,,sub-147,1,stroop_test,,
,,,,109.0,1.0,9.0,,,,,,,,,,,,,gelb,yellow,g,1.0,g,1.0,0.5673616589997437,,,,,,,,,,9.0,1.0,109.0,10.0,427.6227980199999,,,,,,,,,,,,,,,,,427.6169926569999,427.9629690479999,428.75620469699993,428.74935749300016,,,,,,,,,,,,,,,,,,,,,,,,,,,,,,,,,,,428.7515430730002,428.75620469699993,428.75620469699993,429.3276197920002,g,1.0,0.5673616589997437,,,,,,sub-147,1,stroop_test,,
,,,,110.0,2.0,9.0,,,,,,,,,,,,,blau,blue,b,1.0,b,1.0,0.7018947659998958,,,,,,,,,,9.0,2.0,110.0,6.0,429.332093365,,,,,,,,,,,,,,,,,429.3278984760002,429.42296305600007,430.216308372,430.21010121999984,,,,,,,,,,,,,,,,,,,,,,,,,,,,,,,,,,,430.2125083170001,430.216308372,430.216308372,430.9272261620001,b,1.0,0.7018947659998958,,,,,,sub-147,1,stroop_test,,
,,,,111.0,3.0,9.0,,,,,,,,,,,,,gelb,blue,b,0.0,b,1.0,0.7718044749999535,,,,,,,,,,9.0,3.0,111.0,9.0,430.9418306569999,,,,,,,,,,,,,,,,,430.9275001899998,431.2730076360001,432.06648622900025,432.060387579,,,,,,,,,,,,,,,,,,,,,,,,,,,,,,,,,,,432.0625931719999,432.06648622900025,432.06648622900025,432.844227711,b,1.0,0.7718044749999535,,,,,,sub-147,1,stroop_test,,
,,,,112.0,4.0,9.0,,,,,,,,,,,,,rot,yellow,g,0.0,g,1.0,0.9248303519998444,,,,,,,,,,9.0,4.0,112.0,3.0,432.84867696100014,,,,,,,,,,,,,,,,,432.8445004590001,432.9396250719999,433.73316133899993,433.7269916399998,,,,,,,,,,,,,,,,,,,,,,,,,,,,,,,,,,,433.72920893700007,433.73316133899993,433.73316133899993,434.6611674930002,g,1.0,0.9248303519998444,,,,,,sub-147,1,stroop_test,,
,,,,113.0,5.0,9.0,,,,,,,,,,,,,rot,red,r,1.0,r,1.0,0.5065555300002416,,,,,,,,,,9.0,5.0,113.0,0.0,434.665660853,,,,,,,,,,,,,,,,,434.6614518029999,434.7565793269998,435.547541615,435.5437139200001,,,,,,,,,,,,,,,,,,,,,,,,,,,,,,,,,,,435.54405615300016,435.547541615,435.547541615,436.060678011,r,1.0,0.5065555300002416,,,,,,sub-147,1,stroop_test,,
,,,,114.0,6.0,9.0,,,,,,,,,,,,,rot,blue,b,0.0,b,1.0,0.7595267669998975,,,,,,,,,,9.0,6.0,114.0,2.0,436.0651351680001,,,,,,,,,,,,,,,,,436.060954194,437.2564043499999,438.0476560180002,438.043807715,,,,,,,,,,,,,,,,,,,,,,,,,,,,,,,,,,,438.0441228420002,438.0476560180002,438.0476560180002,438.810754765,b,1.0,0.7595267669998975,,,,,,sub-147,1,stroop_test,,
,,,,115.0,7.0,9.0,,,,,,,,,,,,,gelb,red,r,0.0,r,1.0,0.7922580259996721,,,,,,,,,,9.0,7.0,115.0,8.0,438.8151569009999,,,,,,,,,,,,,,,,,438.81103885100015,439.6065748839999,440.39973168200027,440.393646063,,,,,,,,,,,,,,,,,,,,,,,,,,,,,,,,,,,440.3958608420001,440.39973168200027,440.39973168200027,441.19557344300006,r,1.0,0.7922580259996721,,,,,,sub-147,1,stroop_test,,
,,,,116.0,8.0,9.0,,,,,,,,,,,,,blau,blue,b,1.0,b,1.0,0.725885217999803,,,,,,,,,,9.0,8.0,116.0,5.0,441.2001135389999,,,,,,,,,,,,,,,,,441.19585865500017,442.38972758600016,443.182755053,443.1766762999998,,,,,,,,,,,,,,,,,,,,,,,,,,,,,,,,,,,443.1788668490001,443.182755053,443.182755053,443.9111569180002,b,1.0,0.725885217999803,,,,,,sub-147,1,stroop_test,,
,,,,117.0,9.0,9.0,,,,,,,,,,,,,gelb,yellow,g,1.0,g,1.0,0.8695764380004221,,,,,,,,,,9.0,9.0,117.0,11.0,443.9156141579999,,,,,,,,,,,,,,,,,443.91144541300014,444.256411778,445.04934471,445.0432732319998,,,,,,,,,,,,,,,,,,,,,,,,,,,,,,,,,,,445.04542760900017,445.04934471,445.04934471,445.92721864300006,g,1.0,0.8695764380004221,,,,,,sub-147,1,stroop_test,,
,,,,118.0,10.0,9.0,,,,,,,,,,,,,blau,red,r,0.0,r,1.0,1.0102843440004108,,,,,,,,,,9.0,10.0,118.0,4.0,445.931751335,,,,,,,,,,,,,,,,,445.92750715800025,446.2729079779999,447.0661722440002,447.06020888900025,,,,,,,,,,,,,,,,,,,,,,,,,,,,,,,,,,,447.06239168000025,447.0661722440002,447.0661722440002,448.078018248,r,1.0,1.0102843440004108,,,,,,sub-147,1,stroop_test,,
,,,,119.0,11.0,9.0,,,,,,,,,,,,,rot,red,r,1.0,r,1.0,0.9376949739998964,,,,,,,,,,9.0,11.0,119.0,1.0,448.0825279620001,,,,,,,,,,,,,,,,,448.0783142010002,448.17315288199984,448.9664591150001,448.96023401000025,,,,,,,,,,,,,,,,,,,,,,,,,,,,,,,,,,,448.9625935770002,448.9664591150001,448.9664591150001,449.910791431,r,1.0,0.9376949739998964,,,,,,sub-147,1,stroop_test,,
,,,,,,,,,,,,,,,,,,,,,,,,,,,,,,,,,,,,,,,,,,,,,,,,,,,,,,,,,,,,,,,,,,,,,,,,,,,,,,,,,,,,,,,,,,,,,,,,,,,,,,449.9109395090002,449.9165828970001,454.91322985500005,454.91098118000014,sub-147,1,stroop_test,,
