wordCTK,colorCTK,corrAnsCTK,congruentCTK,thisN,thisTrialN,thisRepN,keyResp_CTK.keys,keyResp_CTK.corr,keyResp_CTK.rt,keyResp_CTK.duration,wordPractice,colorPractice,corrAnsPractice,congruentPractice,respPractice.keys,respPractice.corr,respPractice.rt,respPractice.duration,word,color,corrAns,congruent,keyResp_test_run.keys,keyResp_test_run.corr,keyResp_test_run.rt,keyResp_test_run.duration,trials_CTK.thisRepN,trials_CTK.thisTrialN,trials_CTK.thisN,trials_CTK.thisIndex,trials_practice.thisRepN,trials_practice.thisTrialN,trials_practice.thisN,trials_practice.thisIndex,trials_test.thisRepN,trials_test.thisTrialN,trials_test.thisN,trials_test.thisIndex,thisRow.t,notes,instruction.started,instr_text.started,instr_image.started,instr_resp.started,instruction.stopped,instr_resp.keys,instr_resp.rt,instr_resp.duration,instr_color_to_key.started,instr_ctk.started,resp_ctk.started,instr_color_to_key.stopped,resp_ctk.keys,resp_ctk.rt,resp_ctk.duration,ITI.started,fixcross.started,fixcross.stopped,ITI.stopped,color_to_key_run.started,stimulus_CTK.started,keyResp_CTK.started,color_to_key_run.stopped,trials_CTK.keyResp_CTK.keys,trials_CTK.keyResp_CTK.corr,trials_CTK.keyResp_CTK.rt,trials_CTK.keyResp_CTK.duration,instr_practice.started,instr_practice_text.started,instr_practice_resp.started,instr_practice.stopped,instr_practice_resp.keys,instr_practice_resp.rt,instr_practice_resp.duration,practice_run.started,stimulus_practice.started,respPractice.started,practice_run.stopped,trials_practice.respPractice.keys,trials_practice.respPractice.corr,trials_practice.respPractice.rt,trials_practice.respPractice.duration,feedback.started,textFeedback.started,textFeedback.stopped,feedback.stopped,instr_test.started,instr_test_text.started,instr_test_resp.started,instr_test.stopped,instr_test_resp.keys,instr_test_resp.rt,instr_test_resp.duration,test_run.started,stimulus_test_run.started,keyResp_test_run.started,test_run.stopped,trials_test.keyResp_test_run.keys,trials_test.keyResp_test_run.corr,trials_test.keyResp_test_run.rt,trials_test.keyResp_test_run.duration,goodbye.started,textGoodbye.started,goodbye.stopped,participant,session,expName,frameRate,Unnamed: 112
,,,,,,,,,,,,,,,,,,,,,,,,,,,,,,,,,,,,,,,,,0.0030567999929189,0.0809931000694632,0.0809931000694632,0.0809931000694632,5.492781999986619,space,5.31922800000757,,,,,,,,,,,,,,,,,,,,,,,,,,,,,,,,,,,,,,,,,,,,,,,,,,,,,,,,,,sub-193,1,stroop_test,60.1006686168435,
,,,,,,,,,,,,,,,,,,,,,,,,,,,,,,,,,,,,,,,,,,,,,,,,,5.492879800032824,5.499137200182304,5.499137200182304,6.534756500041112,space,1.0327549998182803,,,,,,,,,,,,,,,,,,,,,,,,,,,,,,,,,,,,,,,,,,,,,,,,,,,sub-193,1,stroop_test,60.1006686168435,
test,red,r,1.0,0.0,0.0,0.0,r,1.0,1.188633899902925,,,,,,,,,,,,,,,,,,0.0,0.0,0.0,0.0,,,,,,,,,6.55510240001604,,,,,,,,,,,,,,,,,6.551202100003138,7.748896999983117,8.556145000038669,8.533147900132462,8.549906500149518,8.556145000038669,8.556145000038669,9.74818230001256,r,1.0,1.188633899902925,,,,,,,,,,,,,,,,,,,,,,,,,,,,,,,,,,,,,,,sub-193,1,stroop_test,60.1006686168435,
test,blue,b,1.0,1.0,1.0,0.0,b,1.0,0.92568779992871,,,,,,,,,,,,,,,,,,0.0,1.0,1.0,2.0,,,,,,,,,9.76328569999896,,,,,,,,,,,,,,,,,9.74860220006667,10.562689000042155,11.36192910000682,11.346089500002565,11.346661100164056,11.36192910000682,11.36192910000682,12.295116800116377,b,1.0,0.92568779992871,,,,,,,,,,,,,,,,,,,,,,,,,,,,,,,,,,,,,,,sub-193,1,stroop_test,60.1006686168435,
test,yellow,g,1.0,2.0,2.0,0.0,g,1.0,1.4038511000107974,,,,,,,,,,,,,,,,,,0.0,2.0,2.0,1.0,,,,,,,,,12.31080700014718,,,,,,,,,,,,,,,,,12.295339999953285,12.660580800147727,13.459882900118828,13.443856700090691,13.44426010013558,13.459882900118828,13.459882900118828,14.87650360004045,g,1.0,1.4038511000107974,,,,,,,,,,,,,,,,,,,,,,,,,,,,,,,,,,,,,,,sub-193,1,stroop_test,60.1006686168435,
test,red,r,1.0,3.0,0.0,1.0,r,1.0,0.9805298000574112,,,,,,,,,,,,,,,,,,1.0,0.0,3.0,0.0,,,,,,,,,14.891695100115612,,,,,,,,,,,,,,,,,14.876797700067982,15.241723699960858,16.041876000119373,16.025056299986318,16.02586830011569,16.041876000119373,16.041876000119373,17.024376300163567,r,1.0,0.9805298000574112,,,,,,,,,,,,,,,,,,,,,,,,,,,,,,,,,,,,,,,sub-193,1,stroop_test,60.1006686168435,
test,blue,b,1.0,4.0,1.0,1.0,b,1.0,0.9524050999898463,,,,,,,,,,,,,,,,,,1.0,1.0,4.0,2.0,,,,,,,,,17.03995560016483,,,,,,,,,,,,,,,,,17.024660099996254,18.238684799987823,19.03801630018279,19.022044399986044,19.022575200069696,19.03801630018279,19.03801630018279,20.005374600179493,b,1.0,0.9524050999898463,,,,,,,,,,,,,,,,,,,,,,,,,,,,,,,,,,,,,,,sub-193,1,stroop_test,60.1006686168435,
test,yellow,g,1.0,5.0,2.0,1.0,g,1.0,0.9403254999779164,,,,,,,,,,,,,,,,,,1.0,2.0,5.0,1.0,,,,,,,,,20.020536000141878,,,,,,,,,,,,,,,,,20.00589850009419,20.370158500038087,21.16945890011266,21.1536753999535,21.15460620005615,21.16945890011266,21.16945890011266,22.120234900154173,g,1.0,0.9403254999779164,,,,,,,,,,,,,,,,,,,,,,,,,,,,,,,,,,,,,,,sub-193,1,stroop_test,60.1006686168435,
test,red,r,1.0,6.0,0.0,2.0,r,1.0,0.7248984999023378,,,,,,,,,,,,,,,,,,2.0,0.0,6.0,0.0,,,,,,,,,22.135121300118044,,,,,,,,,,,,,,,,,22.12077639997005,23.3340486001689,24.133250399958342,24.117604800034314,24.11853610002436,24.133250399958342,24.133250399958342,24.86740140011534,r,1.0,0.7248984999023378,,,,,,,,,,,,,,,,,,,,,,,,,,,,,,,,,,,,,,,sub-193,1,stroop_test,60.1006686168435,
test,yellow,g,1.0,7.0,1.0,2.0,g,1.0,0.8061724998988211,,,,,,,,,,,,,,,,,,2.0,1.0,7.0,1.0,,,,,,,,,24.88250680011697,,,,,,,,,,,,,,,,,24.867939800024036,25.681840599980205,26.481116000097245,26.4651536999736,26.46568080014549,26.481116000097245,26.481116000097245,27.302002100041136,g,1.0,0.8061724998988211,,,,,,,,,,,,,,,,,,,,,,,,,,,,,,,,,,,,,,,sub-193,1,stroop_test,60.1006686168435,
test,blue,b,1.0,8.0,2.0,2.0,b,1.0,0.3729027998633683,,,,,,,,,,,,,,,,,,2.0,2.0,8.0,2.0,,,,,,,,,27.313510700128973,,,,,,,,,,,,,,,,,27.30227220011875,28.112819000147283,28.913572800112888,28.89604610018432,28.896534700179476,28.913572800112888,28.913572800112888,29.29697220004164,b,1.0,0.3729027998633683,,,,,,,,,,,,,,,,,,,,,,,,,,,,,,,,,,,,,,,sub-193,1,stroop_test,60.1006686168435,
test,blue,b,1.0,9.0,0.0,3.0,b,1.0,0.4855523000005632,,,,,,,,,,,,,,,,,,3.0,0.0,9.0,2.0,,,,,,,,,29.311705900123343,,,,,,,,,,,,,,,,,29.29748940002173,29.411670400062576,30.210830900119618,30.19471210008487,30.195287900045518,30.210830900119618,30.210830900119618,30.711364899994805,b,1.0,0.4855523000005632,,,,,,,,,,,,,,,,,,,,,,,,,,,,,,,,,,,,,,,sub-193,1,stroop_test,60.1006686168435,
test,yellow,g,1.0,10.0,1.0,3.0,g,1.0,0.7396408999338746,,,,,,,,,,,,,,,,,,3.0,1.0,10.0,1.0,,,,,,,,,30.726953600067645,,,,,,,,,,,,,,,,,30.711691500153396,30.82691540010273,31.62617770000361,31.610045799985528,31.610496000153944,31.62617770000361,31.62617770000361,32.376447200076655,g,1.0,0.7396408999338746,,,,,,,,,,,,,,,,,,,,,,,,,,,,,,,,,,,,,,,sub-193,1,stroop_test,60.1006686168435,
test,red,r,1.0,11.0,2.0,3.0,r,1.0,0.456591899972409,,,,,,,,,,,,,,,,,,3.0,2.0,11.0,0.0,,,,,,,,,32.39209900004789,,,,,,,,,,,,,,,,,32.376747800037265,32.49202310014516,33.291353000095114,33.27543280017562,33.27604050002992,33.291353000095114,33.291353000095114,33.75906790001318,r,1.0,0.456591899972409,,,,,,,,,,,,,,,,,,,,,,,,,,,,,,,,,,,,,,,sub-193,1,stroop_test,60.1006686168435,
,,,,,,,,,,,,,,,,,,,,,,,,,,,,,,,,,,,,,,,,,,,,,,,,,,,,,,,,,,,,,,,,,,,,33.759338800096884,33.774411499965936,33.774411499965936,35.007554800016806,space,1.2182022999040782,,,,,,,,,,,,,,,,,,,,,,,,,,,,,,,,sub-193,1,stroop_test,60.1006686168435,
,,,,0.0,0.0,0.0,,,,,gelb,blue,b,0.0,b,1.0,1.743839900009334,,,,,,,,,,,,,,0.0,0.0,0.0,9.0,,,,,35.03493810002692,,,,,,,,,,,,,,,,,35.031251300126314,35.12287610000931,35.92213460011408,35.906173000112176,,,,,,,,,,,,,,,,35.911502400180325,35.92213460011408,35.92213460011408,37.67145749996416,b,1.0,1.743839900009334,,37.678222600137815,37.68717060005292,38.68616489996202,38.67019830015488,,,,,,,,,,,,,,,,,,,sub-193,1,stroop_test,60.1006686168435,
,,,,1.0,1.0,0.0,,,,,rot,blue,b,0.0,b,1.0,1.1325161999557167,,,,,,,,,,,,,,0.0,1.0,1.0,2.0,,,,,38.68616489996202,,,,,,,,,,,,,,,,,38.6704306001775,39.03587749996223,39.83512199996039,39.81908820010722,,,,,,,,,,,,,,,,39.823190700029954,39.83512199996039,39.83512199996039,40.96894020005129,b,1.0,1.1325161999557167,,40.96938320016488,40.98412899998948,41.983187900157645,41.96713330014609,,,,,,,,,,,,,,,,,,,sub-193,1,stroop_test,60.1006686168435,
,,,,2.0,2.0,0.0,,,,,gelb,yellow,g,1.0,g,1.0,0.5528379001189023,,,,,,,,,,,,,,0.0,2.0,2.0,11.0,,,,,41.983187900157645,,,,,,,,,,,,,,,,,41.96739250002429,42.08310839999467,42.88234000001103,42.86628600000404,,,,,,,,,,,,,,,,42.869341700105,42.88234000001103,42.88234000001103,43.449336800025776,g,1.0,0.5528379001189023,,43.449736500158906,43.46509960014373,44.46409540018067,44.448288900079206,,,,,,,,,,,,,,,,,,,sub-193,1,stroop_test,60.1006686168435,
,,,,3.0,3.0,0.0,,,,,rot,red,r,1.0,r,1.0,0.514542399905622,,,,,,,,,,,,,,0.0,3.0,3.0,0.0,,,,,44.46409540018067,,,,,,,,,,,,,,,,,44.4485870001372,44.564092700136825,45.36332550016232,45.34714390011504,,,,,,,,,,,,,,,,45.3497107999865,45.36332550016232,45.36332550016232,45.88076820014976,r,1.0,0.514542399905622,,45.8812840001192,45.89615879999474,46.89519109996036,46.87914650002495,,,,,,,,,,,,,,,,,,,sub-193,1,stroop_test,60.1006686168435,
,,,,4.0,4.0,0.0,,,,,rot,red,r,1.0,r,1.0,1.5122638000175357,,,,,,,,,,,,,,0.0,4.0,4.0,1.0,,,,,46.89519109996036,,,,,,,,,,,,,,,,,46.87936819996685,47.24486259999685,48.04415119998157,48.02796460012905,,,,,,,,,,,,,,,,48.02834099996835,48.04415119998157,48.04415119998157,49.56025690003298,r,1.0,1.5122638000175357,,49.560612900182605,49.57608769997023,50.5750476999674,50.55902000004426,,,,,,,,,,,,,,,,,,,sub-193,1,stroop_test,60.1006686168435,
,,,,5.0,5.0,0.0,,,,,gelb,yellow,g,1.0,g,1.0,0.5584058000240475,,,,,,,,,,,,,,0.0,5.0,5.0,10.0,,,,,50.5750476999674,,,,,,,,,,,,,,,,,50.559244400123134,50.674982000142336,51.47426580009051,51.45803830004297,,,,,,,,,,,,,,,,51.46101960004307,51.47426580009051,51.47426580009051,52.041532800067216,g,1.0,0.5584058000240475,,52.04202170018107,52.0570756001398,53.0560739999637,53.040079600177705,,,,,,,,,,,,,,,,,,,sub-193,1,stroop_test,60.1006686168435,
,,,,6.0,6.0,0.0,,,,,rot,yellow,g,0.0,r,0.0,1.9597426000982523,,,,,,,,,,,,,,0.0,6.0,6.0,3.0,,,,,53.0560739999637,,,,,,,,,,,,,,,,,53.04031189996749,53.40578380017541,54.20504200016149,54.19147179997526,,,,,,,,,,,,,,,,54.194262500153854,54.20504200016149,54.20504200016149,56.17086610011757,r,0.0,1.9597426000982523,,56.17721990006976,56.18652620003559,57.18553080013953,57.169379899976775,,,,,,,,,,,,,,,,,,,sub-193,1,stroop_test,60.1006686168435,
,,,,7.0,7.0,0.0,,,,,blau,yellow,g,0.0,b,0.0,1.5933709000237286,,,,,,,,,,,,,,0.0,7.0,7.0,7.0,,,,,57.18553080013953,,,,,,,,,,,,,,,,,57.169605100061744,57.285557799972594,58.08470150013454,58.06856829999015,,,,,,,,,,,,,,,,58.07228299998678,58.08470150013454,58.08470150013454,59.68441980006173,b,0.0,1.5933709000237286,,59.68489679996856,59.699926499975845,60.69903550017625,60.68306250008754,,,,,,,,,,,,,,,,,,,sub-193,1,stroop_test,60.1006686168435,
,,,,8.0,8.0,0.0,,,,,blau,blue,b,1.0,b,1.0,0.8217779998667538,,,,,,,,,,,,,,0.0,8.0,8.0,6.0,,,,,60.69903550017625,,,,,,,,,,,,,,,,,60.68334440002218,60.798907899996266,61.59812880004756,61.58216110011563,,,,,,,,,,,,,,,,61.58257810003124,61.59812880004756,61.59812880004756,62.43175810016692,b,1.0,0.8217779998667538,,62.43556540017016,62.44742200011388,63.44637390016578,63.430602099979296,,,,,,,,,,,,,,,,,,,sub-193,1,stroop_test,60.1006686168435,
,,,,9.0,9.0,0.0,,,,,blau,blue,b,1.0,b,1.0,1.1584432001691312,,,,,,,,,,,,,,0.0,9.0,9.0,5.0,,,,,63.44637390016578,,,,,,,,,,,,,,,,,63.431043199962005,64.64524780004285,65.44447900005616,65.42854070011526,,,,,,,,,,,,,,,,65.42895329999737,65.44447900005616,65.44447900005616,66.61113600013778,b,1.0,1.1584432001691312,,66.61169550009072,66.62680910015479,67.62580330017954,67.61000820016488,,,,,,,,,,,,,,,,,,,sub-193,1,stroop_test,60.1006686168435,
,,,,10.0,10.0,0.0,,,,,blau,red,r,0.0,r,1.0,0.8904556999914348,,,,,,,,,,,,,,0.0,10.0,10.0,4.0,,,,,67.62580330017954,,,,,,,,,,,,,,,,,67.61033900012262,68.82467420003377,69.62407899997197,69.60785050014965,,,,,,,,,,,,,,,,69.6082172000315,69.62407899997197,69.62407899997197,70.52397820004262,r,1.0,0.8904556999914348,,70.52440330013633,70.53971000015736,71.53872060007416,71.52270340011455,,,,,,,,,,,,,,,,,,,sub-193,1,stroop_test,60.1006686168435,
,,,,11.0,11.0,0.0,,,,,gelb,red,r,0.0,r,1.0,0.8082498000003397,,,,,,,,,,,,,,0.0,11.0,11.0,8.0,,,,,71.53872060007416,,,,,,,,,,,,,,,,,71.52292450005189,72.33801960013807,73.13733700010926,73.1211467999965,,,,,,,,,,,,,,,,73.1237588999793,73.13733700010926,73.13733700010926,73.95448640012182,r,1.0,0.8082498000003397,,73.95501570007764,73.9699562001042,74.96896370011382,74.95293150004,,,,,,,,,,,,,,,,,,,sub-193,1,stroop_test,60.1006686168435,
,,,,12.0,0.0,1.0,,,,,gelb,red,r,0.0,r,1.0,0.480966999894008,,,,,,,,,,,,,,1.0,0.0,12.0,8.0,,,,,74.96896370011382,,,,,,,,,,,,,,,,,74.95318219996989,75.06889770017006,75.86812190013006,75.85194450011477,,,,,,,,,,,,,,,,75.85235189995728,75.86812190013006,75.86812190013006,76.35189180006273,r,1.0,0.480966999894008,,76.35225180000998,76.36768779996783,77.36663349997252,77.3507016999647,,,,,,,,,,,,,,,,,,,sub-193,1,stroop_test,60.1006686168435,
,,,,13.0,1.0,1.0,,,,,gelb,yellow,g,1.0,g,1.0,0.4696032998617738,,,,,,,,,,,,,,1.0,1.0,13.0,11.0,,,,,77.36663349997252,,,,,,,,,,,,,,,,,77.35104260011576,78.16597470012493,78.96521649998613,78.94911350007169,,,,,,,,,,,,,,,,78.94949769997038,78.96521649998613,78.96521649998613,79.44905040017329,g,1.0,0.4696032998617738,,79.44949480006471,79.46474700002,80.46374350017868,80.4487475999631,,,,,,,,,,,,,,,,,,,sub-193,1,stroop_test,60.1006686168435,
,,,,14.0,2.0,1.0,,,,,rot,yellow,g,0.0,g,1.0,0.4972695000469684,,,,,,,,,,,,,,1.0,2.0,14.0,3.0,,,,,80.46374350017868,,,,,,,,,,,,,,,,,80.44895089999773,80.81348410015926,81.61274430016056,81.59670560015365,,,,,,,,,,,,,,,,81.60130210011266,81.61274430016056,81.61274430016056,82.11328270006925,g,1.0,0.4972695000469684,,82.1136819999665,82.12885970016941,83.12877660011873,83.11183200008236,,,,,,,,,,,,,,,,,,,sub-193,1,stroop_test,60.1006686168435,
,,,,15.0,3.0,1.0,,,,,gelb,yellow,g,1.0,g,1.0,0.3057367000728845,,,,,,,,,,,,,,1.0,3.0,15.0,10.0,,,,,83.12877660011873,,,,,,,,,,,,,,,,,83.11208560015075,83.92719840002246,84.72654119995423,84.71023910003714,,,,,,,,,,,,,,,,84.71262120013125,84.72654119995423,84.72654119995423,85.04386900016107,g,1.0,0.3057367000728845,,85.04445559997112,85.05952779995278,86.05850990000181,86.04264670005068,,,,,,,,,,,,,,,,,,,sub-193,1,stroop_test,60.1006686168435,
,,,,16.0,4.0,1.0,,,,,blau,red,r,0.0,r,1.0,0.4198175000492483,,,,,,,,,,,,,,1.0,4.0,16.0,4.0,,,,,86.05850990000181,,,,,,,,,,,,,,,,,86.04290620004758,86.15846540010534,86.95771470014006,86.94146540015936,,,,,,,,,,,,,,,,86.94423360005021,86.95771470014006,86.95771470014006,87.39151010010391,r,1.0,0.4198175000492483,,87.39193739998154,87.40733550000004,88.40632609999739,88.39037819998339,,,,,,,,,,,,,,,,,,,sub-193,1,stroop_test,60.1006686168435,
,,,,17.0,5.0,1.0,,,,,rot,red,r,1.0,r,1.0,0.3236601001117378,,,,,,,,,,,,,,1.0,5.0,17.0,1.0,,,,,88.40632609999739,,,,,,,,,,,,,,,,,88.39063709997572,89.20561509998515,90.00490529998206,89.98868299997412,,,,,,,,,,,,,,,,89.99140710011125,90.00490529998206,90.00490529998206,90.33886490017176,r,1.0,0.3236601001117378,,90.33934379997665,90.35464220005088,91.35365639999507,91.33815310010688,,,,,,,,,,,,,,,,,,,sub-193,1,stroop_test,60.1006686168435,
,,,,18.0,6.0,1.0,,,,,blau,yellow,g,0.0,g,1.0,0.4603587000165134,,,,,,,,,,,,,,1.0,6.0,18.0,7.0,,,,,91.35365639999507,,,,,,,,,,,,,,,,,91.33875130000524,92.1529171001166,92.95227360003628,92.9360067001544,,,,,,,,,,,,,,,,92.93840940017252,92.95227360003628,92.95227360003628,93.41918720002286,g,1.0,0.4603587000165134,,93.41951410006732,93.4354835001286,94.43400390003808,94.41951939999126,,,,,,,,,,,,,,,,,,,sub-193,1,stroop_test,60.1006686168435,
,,,,19.0,7.0,1.0,,,,,gelb,blue,b,0.0,b,1.0,1.041505299974233,,,,,,,,,,,,,,1.0,7.0,19.0,9.0,,,,,94.43400390003808,,,,,,,,,,,,,,,,,94.41977460007185,94.53389480011538,95.3332201000303,95.31711070006712,,,,,,,,,,,,,,,,95.3197516000364,95.3332201000303,95.3332201000303,96.38424060004763,b,1.0,1.041505299974233,,96.38514030002987,96.3990080000367,97.39844440016896,97.38340590009466,,,,,,,,,,,,,,,,,,,sub-193,1,stroop_test,60.1006686168435,
,,,,20.0,8.0,1.0,,,,,rot,red,r,1.0,r,1.0,0.672747700009495,,,,,,,,,,,,,,1.0,8.0,20.0,0.0,,,,,97.39844440016896,,,,,,,,,,,,,,,,,97.38420790014789,97.74765860009938,98.54687540000305,98.5307028000243,,,,,,,,,,,,,,,,98.53306230017915,98.54687540000305,98.54687540000305,99.23039990011604,r,1.0,0.672747700009495,,99.23075760016218,99.24632070004009,100.24557829997502,100.22925400012171,,,,,,,,,,,,,,,,,,,sub-193,1,stroop_test,60.1006686168435,
,,,,21.0,9.0,1.0,,,,,blau,blue,b,1.0,b,1.0,0.9278798000887036,,,,,,,,,,,,,,1.0,9.0,21.0,6.0,,,,,100.24557829997502,,,,,,,,,,,,,,,,,100.2294773000758,101.4443145999685,102.24358840007336,102.22779710008764,,,,,,,,,,,,,,,,102.2341541000642,102.24358840007336,102.24358840007336,103.17703990009612,b,1.0,0.9278798000887036,,103.17755990009756,103.19256150000729,104.19155150000006,104.1770291000139,,,,,,,,,,,,,,,,,,,sub-193,1,stroop_test,60.1006686168435,
,,,,22.0,10.0,1.0,,,,,rot,blue,b,0.0,b,1.0,0.8742804999928921,,,,,,,,,,,,,,1.0,10.0,22.0,2.0,,,,,104.19155150000006,,,,,,,,,,,,,,,,,104.17723160004245,104.99100690009072,105.79357330012137,105.7757790000178,,,,,,,,,,,,,,,,105.78544849995524,105.79357330012137,105.79357330012137,106.67339490004817,b,1.0,0.8742804999928921,,106.67373499996027,106.68929050001316,107.68829810013996,107.67209230014124,,,,,,,,,,,,,,,,,,,sub-193,1,stroop_test,60.1006686168435,
,,,,23.0,11.0,1.0,,,,,blau,blue,b,1.0,b,1.0,0.4444101001136005,,,,,,,,,,,,,,1.0,11.0,23.0,5.0,,,,,107.68829810013996,,,,,,,,,,,,,,,,,107.67234170017764,108.03812010004184,108.83734100009316,108.82159910001792,,,,,,,,,,,,,,,,108.82457359996624,108.83734100009316,108.83734100009316,109.28854290000164,b,1.0,0.4444101001136005,,109.28933840012178,109.30364229995756,110.30268740002066,110.28670560009778,,,,,,,,,,,,,,,,,,,sub-193,1,stroop_test,60.1006686168435,
,,,,,,,,,,,,,,,,,,,,,,,,,,,,,,,,,,,,,,,,,,,,,,,,,,,,,,,,,,,,,,,,,,,,,,,,,,,,,,,,,,,,,,,110.28678650013173,110.30268740002066,110.30268740002066,111.38684849999844,space,1.0703646999318153,,,,,,,,,,,,,sub-193,1,stroop_test,60.1006686168435,
,,,,0.0,0.0,0.0,,,,,,,,,,,,,rot,blue,b,0.0,b,1.0,0.6517636999487877,,,,,,,,,,0.0,0.0,0.0,2.0,111.50535130011848,,,,,,,,,,,,,,,,,111.50080080004408,111.50535130011848,112.31726330006497,112.30096150003374,,,,,,,,,,,,,,,,,,,,,,,,,,,,,,,,,,,112.30319200013764,112.31726330006497,112.31726330006497,112.98397780000232,b,1.0,0.6517636999487877,,,,,sub-193,1,stroop_test,60.1006686168435,
,,,,1.0,1.0,0.0,,,,,,,,,,,,,blau,blue,b,1.0,b,1.0,0.5114630998577923,,,,,,,,,,0.0,1.0,1.0,5.0,112.99995790002868,,,,,,,,,,,,,,,,,112.98420990002342,113.34967839997262,114.14888140000404,114.13269160012716,,,,,,,,,,,,,,,,,,,,,,,,,,,,,,,,,,,114.13504500011912,114.14888140000404,114.14888140000404,114.66626590001395,b,1.0,0.5114630998577923,,,,,sub-193,1,stroop_test,60.1006686168435,
,,,,2.0,2.0,0.0,,,,,,,,,,,,,blau,blue,b,1.0,b,1.0,0.4483252000063658,,,,,,,,,,0.0,2.0,2.0,6.0,114.68172480002976,,,,,,,,,,,,,,,,,114.66663410002366,115.03142970008776,115.83069570013322,115.8147551000584,,,,,,,,,,,,,,,,,,,,,,,,,,,,,,,,,,,115.81521539995448,115.83069570013322,115.83069570013322,116.28122770017944,b,1.0,0.4483252000063658,,,,,sub-193,1,stroop_test,60.1006686168435,
,,,,3.0,3.0,0.0,,,,,,,,,,,,,rot,red,r,1.0,r,1.0,0.7270750000607222,,,,,,,,,,0.0,3.0,3.0,0.0,116.2967948000878,,,,,,,,,,,,,,,,,116.28152130008677,116.39686870016158,117.1962125999853,117.18019640003332,,,,,,,,,,,,,,,,,,,,,,,,,,,,,,,,,,,117.1858721000608,117.1962125999853,117.1962125999853,117.93021699995734,r,1.0,0.7270750000607222,,,,,sub-193,1,stroop_test,60.1006686168435,
,,,,4.0,4.0,0.0,,,,,,,,,,,,,gelb,red,r,0.0,r,1.0,0.3775611000601202,,,,,,,,,,0.0,4.0,4.0,8.0,117.94538950012064,,,,,,,,,,,,,,,,,117.93059920007364,118.04537050006913,118.84466350008734,118.82865969999692,,,,,,,,,,,,,,,,,,,,,,,,,,,,,,,,,,,118.8324619999621,118.84466350008734,118.84466350008734,119.22952709998935,r,1.0,0.3775611000601202,,,,,sub-193,1,stroop_test,60.1006686168435,
,,,,5.0,5.0,0.0,,,,,,,,,,,,,rot,yellow,g,0.0,g,1.0,0.4250521000940352,,,,,,,,,,0.0,5.0,5.0,3.0,119.2442545001395,,,,,,,,,,,,,,,,,119.23022729996592,120.04352980013935,120.84261319995858,120.8266527999658,,,,,,,,,,,,,,,,,,,,,,,,,,,,,,,,,,,120.82983490009792,120.84261319995858,120.84261319995858,121.2776554999873,g,1.0,0.4250521000940352,,,,,sub-193,1,stroop_test,60.1006686168435,
,,,,6.0,6.0,0.0,,,,,,,,,,,,,blau,red,r,0.0,r,1.0,0.5440914002247155,,,,,,,,,,0.0,6.0,6.0,4.0,121.29230580013244,,,,,,,,,,,,,,,,,121.27830550004728,122.49117060005663,123.29049409995788,123.27472380013204,,,,,,,,,,,,,,,,,,,,,,,,,,,,,,,,,,,123.28025529999286,123.29049409995788,123.29049409995788,123.8416983000934,r,1.0,0.5440914002247155,,,,,sub-193,1,stroop_test,60.1006686168435,
,,,,7.0,7.0,0.0,,,,,,,,,,,,,gelb,yellow,g,1.0,b,0.0,0.6944623000454158,,,,,,,,,,0.0,7.0,7.0,10.0,123.8565513000358,,,,,,,,,,,,,,,,,123.84224690007976,124.65579200000502,125.45534650003538,125.43960130005144,,,,,,,,,,,,,,,,,,,,,,,,,,,,,,,,,,,125.4437873000279,125.45534650003538,125.45534650003538,126.15562320011668,b,0.0,0.6944623000454158,,,,,sub-193,1,stroop_test,60.1006686168435,
,,,,8.0,8.0,0.0,,,,,,,,,,,,,gelb,yellow,g,1.0,g,1.0,0.5258647999726236,,,,,,,,,,0.0,8.0,8.0,11.0,126.17094980017282,,,,,,,,,,,,,,,,,126.15596280014142,127.36989580001682,128.16915440000594,128.15305610001087,,,,,,,,,,,,,,,,,,,,,,,,,,,,,,,,,,,128.1533828000538,128.16915440000594,128.16915440000594,128.7028948001098,g,1.0,0.5258647999726236,,,,,sub-193,1,stroop_test,60.1006686168435,
,,,,9.0,9.0,0.0,,,,,,,,,,,,,rot,red,r,1.0,r,1.0,0.7857838999480009,,,,,,,,,,0.0,9.0,9.0,1.0,128.7186323001515,,,,,,,,,,,,,,,,,128.70317400014028,128.81852279999293,129.62217900017276,129.60155749996193,,,,,,,,,,,,,,,,,,,,,,,,,,,,,,,,,,,129.60398790007457,129.62217900017276,129.62217900017276,130.41814650013112,r,1.0,0.7857838999480009,,,,,sub-193,1,stroop_test,60.1006686168435,
,,,,10.0,10.0,0.0,,,,,,,,,,,,,blau,yellow,g,0.0,g,1.0,0.58970330003649,,,,,,,,,,0.0,10.0,10.0,7.0,130.4335964000784,,,,,,,,,,,,,,,,,130.41847699997015,131.23296080017462,132.03231839998625,132.0161451001186,,,,,,,,,,,,,,,,,,,,,,,,,,,,,,,,,,,132.01870970008895,132.03231839998625,132.03231839998625,132.63686219998635,g,1.0,0.58970330003649,,,,,sub-193,1,stroop_test,60.1006686168435,
,,,,11.0,11.0,0.0,,,,,,,,,,,,,gelb,blue,b,0.0,b,1.0,0.9969558999873698,,,,,,,,,,0.0,11.0,11.0,9.0,132.64822840015404,,,,,,,,,,,,,,,,,132.63712040008977,133.8471093000844,134.64644940011203,134.63023350015283,,,,,,,,,,,,,,,,,,,,,,,,,,,,,,,,,,,134.6322008999996,134.64644940011203,134.64644940011203,135.6464523000177,b,1.0,0.9969558999873698,,,,,sub-193,1,stroop_test,60.1006686168435,
,,,,12.0,0.0,1.0,,,,,,,,,,,,,rot,yellow,g,0.0,g,1.0,0.734702100045979,,,,,,,,,,1.0,0.0,12.0,3.0,135.66240070015192,,,,,,,,,,,,,,,,,135.6467087001074,135.76204279996455,136.56121190008707,136.5450858999975,,,,,,,,,,,,,,,,,,,,,,,,,,,,,,,,,,,136.54736560001038,136.56121190008707,136.56121190008707,137.31147920014337,g,1.0,0.734702100045979,,,,,sub-193,1,stroop_test,60.1006686168435,
,,,,13.0,1.0,1.0,,,,,,,,,,,,,gelb,red,r,0.0,r,1.0,0.4451416002120822,,,,,,,,,,1.0,1.0,13.0,8.0,137.32715869997628,,,,,,,,,,,,,,,,,137.31174460006878,138.1264145001769,138.9257590000052,138.9098374999594,,,,,,,,,,,,,,,,,,,,,,,,,,,,,,,,,,,138.9136761999689,138.9257590000052,138.9257590000052,139.37639029999264,r,1.0,0.4451416002120822,,,,,sub-193,1,stroop_test,60.1006686168435,
,,,,14.0,2.0,1.0,,,,,,,,,,,,,gelb,blue,b,0.0,b,1.0,0.7436355000827461,,,,,,,,,,1.0,2.0,14.0,9.0,139.3919914001599,,,,,,,,,,,,,,,,,139.37673340016045,140.59448130009696,141.40676699997857,141.39051689999178,,,,,,,,,,,,,,,,,,,,,,,,,,,,,,,,,,,141.39086879999377,141.40676699997857,141.40676699997857,142.1568871999625,b,1.0,0.7436355000827461,,,,,sub-193,1,stroop_test,60.1006686168435,
,,,,15.0,3.0,1.0,,,,,,,,,,,,,blau,blue,b,1.0,b,1.0,0.7480077999643981,,,,,,,,,,1.0,3.0,15.0,5.0,142.17271620011888,,,,,,,,,,,,,,,,,142.15717400005087,142.5223139000591,143.32160480017774,143.30536560015753,,,,,,,,,,,,,,,,,,,,,,,,,,,,,,,,,,,143.30761550017633,143.32160480017774,143.32160480017774,144.07171180006117,b,1.0,0.7480077999643981,,,,,sub-193,1,stroop_test,60.1006686168435,
,,,,16.0,4.0,1.0,,,,,,,,,,,,,rot,blue,b,0.0,b,1.0,0.3842917999718338,,,,,,,,,,1.0,4.0,16.0,2.0,144.0874860000331,,,,,,,,,,,,,,,,,144.07193360012025,144.8868132000789,145.68606690014713,145.66990490001626,,,,,,,,,,,,,,,,,,,,,,,,,,,,,,,,,,,145.6726905000396,145.68606690014713,145.68606690014713,146.08660489995964,b,1.0,0.3842917999718338,,,,,sub-193,1,stroop_test,60.1006686168435,
,,,,17.0,5.0,1.0,,,,,,,,,,,,,blau,blue,b,1.0,b,1.0,0.4670589999295771,,,,,,,,,,1.0,5.0,17.0,6.0,146.10230330005288,,,,,,,,,,,,,,,,,146.08686830010265,147.3012046001386,148.10165780014358,148.08436870016158,,,,,,,,,,,,,,,,,,,,,,,,,,,,,,,,,,,148.08679620013572,148.10165780014358,148.10165780014358,148.5842347999569,b,1.0,0.4670589999295771,,,,,sub-193,1,stroop_test,60.1006686168435,
,,,,18.0,6.0,1.0,,,,,,,,,,,,,rot,red,r,1.0,r,1.0,0.5168063000310212,,,,,,,,,,1.0,6.0,18.0,1.0,148.59992960002273,,,,,,,,,,,,,,,,,148.5844817000907,148.94968460011296,149.7489998000674,149.73298020008951,,,,,,,,,,,,,,,,,,,,,,,,,,,,,,,,,,,149.736717000138,149.7489998000674,149.7489998000674,150.28248070017435,r,1.0,0.5168063000310212,,,,,sub-193,1,stroop_test,60.1006686168435,
,,,,19.0,7.0,1.0,,,,,,,,,,,,,blau,yellow,g,0.0,g,1.0,0.3756066998466849,,,,,,,,,,1.0,7.0,19.0,7.0,150.29831390012987,,,,,,,,,,,,,,,,,150.2827799001243,151.49729720014147,152.29669460002333,152.2805186000187,,,,,,,,,,,,,,,,,,,,,,,,,,,,,,,,,,,152.28329090005718,152.29669460002333,152.29669460002333,152.68078130017966,g,1.0,0.3756066998466849,,,,,sub-193,1,stroop_test,60.1006686168435,
,,,,20.0,8.0,1.0,,,,,,,,,,,,,gelb,yellow,g,1.0,g,1.0,0.4750041000079363,,,,,,,,,,1.0,8.0,20.0,10.0,152.6961346999742,,,,,,,,,,,,,,,,,152.68113140016794,153.0458362000063,153.84515079995617,153.82909230003133,,,,,,,,,,,,,,,,,,,,,,,,,,,,,,,,,,,153.83142459997907,153.84515079995617,153.84515079995617,154.32922700000927,g,1.0,0.4750041000079363,,,,,sub-193,1,stroop_test,60.1006686168435,
,,,,21.0,9.0,1.0,,,,,,,,,,,,,blau,red,r,0.0,r,1.0,0.4541462999768555,,,,,,,,,,1.0,9.0,21.0,4.0,154.3446486000903,,,,,,,,,,,,,,,,,154.32956620003097,154.6942166001536,155.49360639997758,155.47732380009256,,,,,,,,,,,,,,,,,,,,,,,,,,,,,,,,,,,155.4801340000704,155.49360639997758,155.49360639997758,155.96067639999092,r,1.0,0.4541462999768555,,,,,sub-193,1,stroop_test,60.1006686168435,
,,,,22.0,10.0,1.0,,,,,,,,,,,,,gelb,yellow,g,1.0,g,1.0,0.3861603999976069,,,,,,,,,,1.0,10.0,22.0,11.0,155.97640760010108,,,,,,,,,,,,,,,,,155.96092760004103,156.07632260001265,156.87565409997478,156.85943850013427,,,,,,,,,,,,,,,,,,,,,,,,,,,,,,,,,,,156.86215780000202,156.87565409997478,156.87565409997478,157.27623780001886,g,1.0,0.3861603999976069,,,,,sub-193,1,stroop_test,60.1006686168435,
,,,,23.0,11.0,1.0,,,,,,,,,,,,,rot,red,r,1.0,r,1.0,0.3732906000223011,,,,,,,,,,1.0,11.0,23.0,0.0,157.29184240009636,,,,,,,,,,,,,,,,,157.276524099987,157.64153440017253,158.44606550014578,158.4246535000857,,,,,,,,,,,,,,,,,,,,,,,,,,,,,,,,,,,158.42735800007358,158.44606550014578,158.44606550014578,158.82489660009742,r,1.0,0.3732906000223011,,,,,sub-193,1,stroop_test,60.1006686168435,
,,,,24.0,0.0,2.0,,,,,,,,,,,,,rot,red,r,1.0,r,1.0,0.4480252000503242,,,,,,,,,,2.0,0.0,24.0,1.0,158.8404239001684,,,,,,,,,,,,,,,,,158.82521839998662,158.94031540001745,159.73955720011145,159.72336159995757,,,,,,,,,,,,,,,,,,,,,,,,,,,,,,,,,,,159.72370119998232,159.73955720011145,159.73955720011145,160.19008040009066,r,1.0,0.4480252000503242,,,,,sub-193,1,stroop_test,60.1006686168435,
,,,,25.0,1.0,2.0,,,,,,,,,,,,,rot,blue,b,0.0,b,1.0,0.3611592999659478,,,,,,,,,,2.0,1.0,25.0,2.0,160.20576540008187,,,,,,,,,,,,,,,,,160.1903415999841,160.30568530014716,161.1049653000664,161.0889387000352,,,,,,,,,,,,,,,,,,,,,,,,,,,,,,,,,,,161.0893387000542,161.1049653000664,161.1049653000664,161.47236310015433,b,1.0,0.3611592999659478,,,,,sub-193,1,stroop_test,60.1006686168435,
,,,,26.0,2.0,2.0,,,,,,,,,,,,,blau,yellow,g,0.0,g,1.0,0.3309377001132816,,,,,,,,,,2.0,2.0,26.0,7.0,161.48791200015694,,,,,,,,,,,,,,,,,161.47270580008626,161.83763439999893,162.63693260005675,162.6207383000292,,,,,,,,,,,,,,,,,,,,,,,,,,,,,,,,,,,162.62332450016402,162.63693260005675,162.63693260005675,162.97107299999334,g,1.0,0.3309377001132816,,,,,sub-193,1,stroop_test,60.1006686168435,
,,,,27.0,3.0,2.0,,,,,,,,,,,,,gelb,blue,b,0.0,b,1.0,0.5356201000977308,,,,,,,,,,2.0,3.0,27.0,9.0,162.98644650005735,,,,,,,,,,,,,,,,,162.97139329998754,163.7858905000612,164.58508280012757,164.56918069999665,,,,,,,,,,,,,,,,,,,,,,,,,,,,,,,,,,,164.57207039999776,164.58508280012757,164.58508280012757,165.13542290008627,b,1.0,0.5356201000977308,,,,,sub-193,1,stroop_test,60.1006686168435,
,,,,28.0,4.0,2.0,,,,,,,,,,,,,rot,yellow,g,0.0,b,0.0,0.317019599955529,,,,,,,,,,2.0,4.0,28.0,3.0,165.15110850008205,,,,,,,,,,,,,,,,,165.13567410013638,165.95045010000467,166.74977540015243,166.73411560012028,,,,,,,,,,,,,,,,,,,,,,,,,,,,,,,,,,,166.73997820005752,166.74977540015243,166.74977540015243,167.0700823999941,b,0.0,0.317019599955529,,,,,sub-193,1,stroop_test,60.1006686168435,
,,,,29.0,5.0,2.0,,,,,,,,,,,,,gelb,yellow,g,1.0,g,1.0,0.5569734000600874,,,,,,,,,,2.0,5.0,29.0,10.0,167.08274260000326,,,,,,,,,,,,,,,,,167.07067660009488,167.43242810014635,168.23162279999815,168.21555640012957,,,,,,,,,,,,,,,,,,,,,,,,,,,,,,,,,,,168.2179658000823,168.23162279999815,168.23162279999815,168.79840099997818,g,1.0,0.5569734000600874,,,,,sub-193,1,stroop_test,60.1006686168435,
,,,,30.0,6.0,2.0,,,,,,,,,,,,,rot,red,r,1.0,r,1.0,0.6828095999080688,,,,,,,,,,2.0,6.0,30.0,0.0,168.81437800009735,,,,,,,,,,,,,,,,,168.7986396001652,168.89776449999772,169.69705700012855,169.68128010001965,,,,,,,,,,,,,,,,,,,,,,,,,,,,,,,,,,,169.6877220000606,169.69705700012855,169.69705700012855,170.38136240001768,r,1.0,0.6828095999080688,,,,,sub-193,1,stroop_test,60.1006686168435,
,,,,31.0,7.0,2.0,,,,,,,,,,,,,blau,red,r,0.0,r,1.0,0.4299439999740571,,,,,,,,,,2.0,7.0,31.0,4.0,170.39618419995531,,,,,,,,,,,,,,,,,170.3819101001136,170.74595930008218,171.5452793999575,171.5293056999799,,,,,,,,,,,,,,,,,,,,,,,,,,,,,,,,,,,171.53274450008757,171.5452793999575,171.5452793999575,171.98038620012812,r,1.0,0.4299439999740571,,,,,sub-193,1,stroop_test,60.1006686168435,
,,,,32.0,8.0,2.0,,,,,,,,,,,,,blau,blue,b,1.0,b,1.0,0.5108288999181241,,,,,,,,,,2.0,8.0,32.0,6.0,171.99523280002177,,,,,,,,,,,,,,,,,171.98097010003403,172.34450120013207,173.14391380012967,173.1280670000706,,,,,,,,,,,,,,,,,,,,,,,,,,,,,,,,,,,173.12889760010876,173.14391380012967,173.14391380012967,173.66137160011567,b,1.0,0.5108288999181241,,,,,sub-193,1,stroop_test,60.1006686168435,
,,,,33.0,9.0,2.0,,,,,,,,,,,,,blau,blue,b,1.0,b,1.0,0.3758991998620331,,,,,,,,,,2.0,9.0,33.0,5.0,173.67653500009328,,,,,,,,,,,,,,,,,173.6618538000621,174.47580610006116,175.27506500016898,175.25921000004746,,,,,,,,,,,,,,,,,,,,,,,,,,,,,,,,,,,175.25990870012902,175.27506500016898,175.27506500016898,175.6601845000405,b,1.0,0.3758991998620331,,,,,sub-193,1,stroop_test,60.1006686168435,
,,,,34.0,10.0,2.0,,,,,,,,,,,,,gelb,yellow,g,1.0,g,1.0,0.4771620000246912,,,,,,,,,,2.0,10.0,34.0,11.0,175.6746100001037,,,,,,,,,,,,,,,,,175.66051650000736,176.0242934001144,176.8235593000427,176.80734860012308,,,,,,,,,,,,,,,,,,,,,,,,,,,,,,,,,,,176.80976080009714,176.8235593000427,176.8235593000427,177.3073941001203,g,1.0,0.4771620000246912,,,,,sub-193,1,stroop_test,60.1006686168435,
,,,,35.0,11.0,2.0,,,,,,,,,,,,,gelb,red,r,0.0,r,1.0,0.5500958999618888,,,,,,,,,,2.0,11.0,35.0,8.0,177.3231079999823,,,,,,,,,,,,,,,,,177.30770530016162,178.1223426000215,178.92161970003508,178.90547270001844,,,,,,,,,,,,,,,,,,,,,,,,,,,,,,,,,,,178.90591139998287,178.92161970003508,178.92161970003508,179.48867950006388,r,1.0,0.5500958999618888,,,,,sub-193,1,stroop_test,60.1006686168435,
,,,,36.0,0.0,3.0,,,,,,,,,,,,,blau,red,r,0.0,r,1.0,0.4100446999073028,,,,,,,,,,3.0,0.0,36.0,4.0,179.5043433001265,,,,,,,,,,,,,,,,,179.48897389997728,180.70328869996592,181.5025459001772,181.4863772999961,,,,,,,,,,,,,,,,,,,,,,,,,,,,,,,,,,,181.48909429996277,181.5025459001772,181.5025459001772,181.91990029998124,r,1.0,0.4100446999073028,,,,,sub-193,1,stroop_test,60.1006686168435,
,,,,37.0,1.0,3.0,,,,,,,,,,,,,rot,blue,b,0.0,b,1.0,0.6658872000407428,,,,,,,,,,3.0,1.0,37.0,2.0,181.935367600061,,,,,,,,,,,,,,,,,181.92023460008204,182.73468880006112,183.5339108000044,183.51771509996613,,,,,,,,,,,,,,,,,,,,,,,,,,,,,,,,,,,183.52080280007797,183.5339108000044,183.5339108000044,184.2012815000489,b,1.0,0.6658872000407428,,,,,sub-193,1,stroop_test,60.1006686168435,
,,,,38.0,2.0,3.0,,,,,,,,,,,,,gelb,yellow,g,1.0,g,1.0,0.5964962001889944,,,,,,,,,,3.0,2.0,38.0,11.0,184.21659129997715,,,,,,,,,,,,,,,,,184.2016233999748,185.0158677001018,185.81517269997855,185.79915480013003,,,,,,,,,,,,,,,,,,,,,,,,,,,,,,,,,,,185.80194550007585,185.81517269997855,185.81517269997855,186.4163595000282,g,1.0,0.5964962001889944,,,,,sub-193,1,stroop_test,60.1006686168435,
,,,,39.0,3.0,3.0,,,,,,,,,,,,,gelb,yellow,g,1.0,g,1.0,0.4914764000568539,,,,,,,,,,3.0,3.0,39.0,10.0,186.43117760005407,,,,,,,,,,,,,,,,,186.41667840001173,186.531113400124,187.3304463999812,187.31415790016763,,,,,,,,,,,,,,,,,,,,,,,,,,,,,,,,,,,187.3145630999934,187.3304463999812,187.3304463999812,187.83102060016245,g,1.0,0.4914764000568539,,,,,sub-193,1,stroop_test,60.1006686168435,
,,,,40.0,4.0,3.0,,,,,,,,,,,,,rot,red,r,1.0,r,1.0,0.506840500049293,,,,,,,,,,3.0,4.0,40.0,0.0,187.8465699001681,,,,,,,,,,,,,,,,,187.83138520014472,188.64590400015004,189.44514960004017,189.42901409999467,,,,,,,,,,,,,,,,,,,,,,,,,,,,,,,,,,,189.4322226999793,189.44514960004017,189.44514960004017,189.96218860009685,r,1.0,0.506840500049293,,,,,sub-193,1,stroop_test,60.1006686168435,
,,,,41.0,5.0,3.0,,,,,,,,,,,,,blau,blue,b,1.0,b,1.0,0.520501899998635,,,,,,,,,,3.0,5.0,41.0,6.0,189.97786420001648,,,,,,,,,,,,,,,,,189.96247500018217,190.07777730003,190.8770988001488,190.86103220004588,,,,,,,,,,,,,,,,,,,,,,,,,,,,,,,,,,,190.8645043000579,190.8770988001488,190.8770988001488,191.4110693000257,b,1.0,0.520501899998635,,,,,sub-193,1,stroop_test,60.1006686168435,
,,,,42.0,6.0,3.0,,,,,,,,,,,,,blau,blue,b,1.0,b,1.0,0.346826700028032,,,,,,,,,,3.0,6.0,42.0,5.0,191.42652440001257,,,,,,,,,,,,,,,,,191.41144399996847,192.62544320011511,193.4247035000008,193.4086778999772,,,,,,,,,,,,,,,,,,,,,,,,,,,,,,,,,,,193.4092549001798,193.4247035000008,193.4247035000008,193.775293200044,b,1.0,0.346826700028032,,,,,sub-193,1,stroop_test,60.1006686168435,
,,,,43.0,7.0,3.0,,,,,,,,,,,,,rot,red,r,1.0,r,1.0,0.4537160000763833,,,,,,,,,,3.0,7.0,43.0,1.0,193.79094750015065,,,,,,,,,,,,,,,,,193.7755824001506,194.98996890010312,195.789254500065,195.7732039000839,,,,,,,,,,,,,,,,,,,,,,,,,,,,,,,,,,,195.7768453999888,195.789254500065,195.789254500065,196.25646160007452,r,1.0,0.4537160000763833,,,,,sub-193,1,stroop_test,60.1006686168435,
,,,,44.0,8.0,3.0,,,,,,,,,,,,,blau,yellow,g,0.0,g,1.0,0.7500338999088854,,,,,,,,,,3.0,8.0,44.0,7.0,196.2720745000988,,,,,,,,,,,,,,,,,196.25675550010052,197.0713149001822,197.87057800008915,197.8544962001033,,,,,,,,,,,,,,,,,,,,,,,,,,,,,,,,,,,197.85748300002888,197.87057800008915,197.87057800008915,198.6377759000752,g,1.0,0.7500338999088854,,,,,sub-193,1,stroop_test,60.1006686168435,
,,,,45.0,9.0,3.0,,,,,,,,,,,,,rot,yellow,g,0.0,g,1.0,0.4476715999189764,,,,,,,,,,3.0,9.0,45.0,3.0,198.6533697999548,,,,,,,,,,,,,,,,,198.63813069998287,198.75317959999663,199.55235350015573,199.5362031001132,,,,,,,,,,,,,,,,,,,,,,,,,,,,,,,,,,,199.53899560007267,199.55235350015573,199.55235350015573,200.00288080004972,g,1.0,0.4476715999189764,,,,,sub-193,1,stroop_test,60.1006686168435,
,,,,46.0,10.0,3.0,,,,,,,,,,,,,gelb,blue,b,0.0,b,1.0,0.6434528999961913,,,,,,,,,,3.0,10.0,46.0,9.0,200.0185199000407,,,,,,,,,,,,,,,,,200.00312740006484,200.36821790016256,201.16748820012435,201.15131940017451,,,,,,,,,,,,,,,,,,,,,,,,,,,,,,,,,,,201.15363149996847,201.16748820012435,201.16748820012435,201.81775719998404,b,1.0,0.6434528999961913,,,,,sub-193,1,stroop_test,60.1006686168435,
,,,,47.0,11.0,3.0,,,,,,,,,,,,,gelb,red,r,0.0,r,1.0,1.2707595999818295,,,,,,,,,,3.0,11.0,47.0,8.0,201.83349060011096,,,,,,,,,,,,,,,,,201.8180001999717,202.63284530001687,203.4320191000588,203.4157309001312,,,,,,,,,,,,,,,,,,,,,,,,,,,,,,,,,,,203.4160521000158,203.4320191000588,203.4320191000588,204.70409610006027,r,1.0,1.2707595999818295,,,,,sub-193,1,stroop_test,60.1006686168435,
,,,,48.0,0.0,4.0,,,,,,,,,,,,,rot,red,r,1.0,r,1.0,0.5169955999590456,,,,,,,,,,4.0,0.0,48.0,1.0,204.71408950001933,,,,,,,,,,,,,,,,,204.70432640006769,205.5133966000285,206.3126783000771,206.2965508999769,,,,,,,,,,,,,,,,,,,,,,,,,,,,,,,,,,,206.29923790018077,206.3126783000771,206.3126783000771,206.84621900017373,r,1.0,0.5169955999590456,,,,,sub-193,1,stroop_test,60.1006686168435,
,,,,49.0,1.0,4.0,,,,,,,,,,,,,gelb,yellow,g,1.0,g,1.0,0.5567561001516879,,,,,,,,,,4.0,1.0,49.0,11.0,206.86215459997769,,,,,,,,,,,,,,,,,206.84648589999412,207.21175550017503,208.0110246001277,207.99486980005167,,,,,,,,,,,,,,,,,,,,,,,,,,,,,,,,,,,207.99718519998717,208.0110246001277,208.0110246001277,208.57886889996007,g,1.0,0.5567561001516879,,,,,sub-193,1,stroop_test,60.1006686168435,
,,,,50.0,2.0,4.0,,,,,,,,,,,,,rot,yellow,g,0.0,r,0.0,0.4876258000731468,,,,,,,,,,4.0,2.0,50.0,3.0,208.5938542000949,,,,,,,,,,,,,,,,,208.57922450010665,209.7927270999644,210.59198130015284,210.57580520003103,,,,,,,,,,,,,,,,,,,,,,,,,,,,,,,,,,,210.57853369996883,210.59198130015284,210.59198130015284,211.0921418000944,r,0.0,0.4876258000731468,,,,,sub-193,1,stroop_test,60.1006686168435,
,,,,51.0,3.0,4.0,,,,,,,,,,,,,blau,blue,b,1.0,b,1.0,0.5960898001212627,,,,,,,,,,4.0,3.0,51.0,6.0,211.10809890017845,,,,,,,,,,,,,,,,,211.09239030000757,212.30695650004785,213.1062843000982,213.0903074000962,,,,,,,,,,,,,,,,,,,,,,,,,,,,,,,,,,,213.0936082000844,213.1062843000982,213.1062843000982,213.70645719999447,b,1.0,0.5960898001212627,,,,,sub-193,1,stroop_test,60.1006686168435,
,,,,52.0,4.0,4.0,,,,,,,,,,,,,rot,red,r,1.0,r,1.0,0.5992763999383897,,,,,,,,,,4.0,4.0,52.0,0.0,213.7224063000176,,,,,,,,,,,,,,,,,213.7066854001023,214.92128190002404,215.72045719996092,215.70429769996557,,,,,,,,,,,,,,,,,,,,,,,,,,,,,,,,,,,215.70696650003083,215.72045719996092,215.72045719996092,216.32091310014948,r,1.0,0.5992763999383897,,,,,sub-193,1,stroop_test,60.1006686168435,
,,,,53.0,5.0,4.0,,,,,,,,,,,,,gelb,blue,b,0.0,b,1.0,0.7726149000227451,,,,,,,,,,4.0,5.0,53.0,9.0,216.3365750000812,,,,,,,,,,,,,,,,,216.32117939996533,217.1358267001342,217.9351526000537,217.9190963001456,,,,,,,,,,,,,,,,,,,,,,,,,,,,,,,,,,,217.92187019996345,217.9351526000537,217.9351526000537,218.71877879998647,b,1.0,0.7726149000227451,,,,,sub-193,1,stroop_test,60.1006686168435,
,,,,54.0,6.0,4.0,,,,,,,,,,,,,gelb,red,r,0.0,g,0.0,0.5253167999908328,,,,,,,,,,4.0,6.0,54.0,8.0,218.7343326001428,,,,,,,,,,,,,,,,,218.719077100046,219.5336507000029,220.3329016000498,220.31718390015885,,,,,,,,,,,,,,,,,,,,,,,,,,,,,,,,,,,220.3176997001283,220.3329016000498,220.3329016000498,220.86662210011852,g,0.0,0.5253167999908328,,,,,sub-193,1,stroop_test,60.1006686168435,
,,,,55.0,7.0,4.0,,,,,,,,,,,,,blau,blue,b,1.0,b,1.0,0.7257687000092119,,,,,,,,,,4.0,7.0,55.0,5.0,220.8822745999787,,,,,,,,,,,,,,,,,220.86690490017645,220.9822925000917,221.7815028000623,221.76532940007743,,,,,,,,,,,,,,,,,,,,,,,,,,,,,,,,,,,221.76752440002747,221.7815028000623,221.7815028000623,222.5150725999847,b,1.0,0.7257687000092119,,,,,sub-193,1,stroop_test,60.1006686168435,
,,,,56.0,8.0,4.0,,,,,,,,,,,,,rot,blue,b,0.0,r,0.0,0.6063061999157071,,,,,,,,,,4.0,8.0,56.0,2.0,222.5307881000917,,,,,,,,,,,,,,,,,222.51535140001212,222.6307523001451,223.43000000016764,223.4141246001236,,,,,,,,,,,,,,,,,,,,,,,,,,,,,,,,,,,223.4175116000697,223.43000000016764,223.43000000016764,224.0475217001513,r,0.0,0.6063061999157071,,,,,sub-193,1,stroop_test,60.1006686168435,
,,,,57.0,9.0,4.0,,,,,,,,,,,,,blau,yellow,g,0.0,g,1.0,0.6677419999614358,,,,,,,,,,4.0,9.0,57.0,7.0,224.06267010001463,,,,,,,,,,,,,,,,,224.04792020004243,225.2615920000244,226.06082200002857,226.04461720003744,,,,,,,,,,,,,,,,,,,,,,,,,,,,,,,,,,,226.0469421001617,226.06082200002857,226.06082200002857,226.74510940001343,g,1.0,0.6677419999614358,,,,,sub-193,1,stroop_test,60.1006686168435,
,,,,58.0,10.0,4.0,,,,,,,,,,,,,gelb,yellow,g,1.0,g,1.0,0.4868666001129895,,,,,,,,,,4.0,10.0,58.0,10.0,226.76012370013632,,,,,,,,,,,,,,,,,226.74546990008093,227.1098553000484,227.90909250010736,227.8929037000053,,,,,,,,,,,,,,,,,,,,,,,,,,,,,,,,,,,227.89485789998437,227.90909250010736,227.90909250010736,228.40938009996896,g,1.0,0.4868666001129895,,,,,sub-193,1,stroop_test,60.1006686168435,
,,,,59.0,11.0,4.0,,,,,,,,,,,,,blau,red,r,0.0,b,0.0,0.7083223001100123,,,,,,,,,,4.0,11.0,59.0,4.0,228.4252991999965,,,,,,,,,,,,,,,,,228.40961130009964,229.22449960000813,230.02383720013316,230.00759549997747,,,,,,,,,,,,,,,,,,,,,,,,,,,,,,,,,,,230.0101090001408,230.02383720013316,230.02383720013316,230.74129070015624,b,0.0,0.7083223001100123,,,,,sub-193,1,stroop_test,60.1006686168435,
,,,,60.0,0.0,5.0,,,,,,,,,,,,,blau,yellow,g,0.0,g,1.0,1.0977539999876171,,,,,,,,,,5.0,0.0,60.0,7.0,230.75656070001423,,,,,,,,,,,,,,,,,230.74174399999904,230.8563284999691,231.65580440009944,231.63999540009536,,,,,,,,,,,,,,,,,,,,,,,,,,,,,,,,,,,231.6407644001301,231.65580440009944,231.65580440009944,232.75623270007785,g,1.0,1.0977539999876171,,,,,sub-193,1,stroop_test,60.1006686168435,
,,,,61.0,1.0,5.0,,,,,,,,,,,,,rot,red,r,1.0,r,1.0,0.68170619988814,,,,,,,,,,5.0,1.0,61.0,0.0,232.77118810010143,,,,,,,,,,,,,,,,,232.75661740009676,233.57043760013767,234.3696588999592,234.35349400015548,,,,,,,,,,,,,,,,,,,,,,,,,,,,,,,,,,,234.3564118000213,234.3696588999592,234.3696588999592,235.05347120016813,r,1.0,0.68170619988814,,,,,sub-193,1,stroop_test,60.1006686168435,
,,,,62.0,2.0,5.0,,,,,,,,,,,,,gelb,yellow,g,1.0,g,1.0,0.502210299950093,,,,,,,,,,5.0,2.0,62.0,10.0,235.07258470007216,,,,,,,,,,,,,,,,,235.05370309995487,236.26802660012615,237.06744150002487,237.0510146000888,,,,,,,,,,,,,,,,,,,,,,,,,,,,,,,,,,,237.05366130010225,237.06744150002487,237.06744150002487,237.58450140012428,g,1.0,0.502210299950093,,,,,sub-193,1,stroop_test,60.1006686168435,
,,,,63.0,3.0,5.0,,,,,,,,,,,,,blau,red,r,0.0,r,1.0,0.434521900024265,,,,,,,,,,5.0,3.0,63.0,4.0,237.6000669000205,,,,,,,,,,,,,,,,,237.5848189000972,238.7989076001104,239.59822640009224,239.5821076000575,,,,,,,,,,,,,,,,,,,,,,,,,,,,,,,,,,,239.5849957000464,239.59822640009224,239.59822640009224,240.04867619997825,r,1.0,0.434521900024265,,,,,sub-193,1,stroop_test,60.1006686168435,
,,,,64.0,4.0,5.0,,,,,,,,,,,,,rot,red,r,1.0,r,1.0,0.5329032998997718,,,,,,,,,,5.0,4.0,64.0,1.0,240.06432100012896,,,,,,,,,,,,,,,,,240.04893260006796,241.26325440010987,242.06250150012784,242.04646089999005,,,,,,,,,,,,,,,,,,,,,,,,,,,,,,,,,,,242.04946090001613,242.06250150012784,242.06250150012784,242.5968465001788,r,1.0,0.5329032998997718,,,,,sub-193,1,stroop_test,60.1006686168435,
,,,,65.0,5.0,5.0,,,,,,,,,,,,,rot,yellow,g,0.0,g,1.0,0.7990553001873195,,,,,,,,,,5.0,5.0,65.0,3.0,242.6119848000817,,,,,,,,,,,,,,,,,242.5971295000054,243.81101720011796,244.62691990006715,244.6106661001686,,,,,,,,,,,,,,,,,,,,,,,,,,,,,,,,,,,244.61107210000048,244.62691990006715,244.62691990006715,245.42699900013395,g,1.0,0.7990553001873195,,,,,sub-193,1,stroop_test,60.1006686168435,
,,,,66.0,6.0,5.0,,,,,,,,,,,,,gelb,yellow,g,1.0,g,1.0,0.675955600105226,,,,,,,,,,5.0,6.0,66.0,11.0,245.44261230016127,,,,,,,,,,,,,,,,,245.4272336000577,246.6416611999739,247.440826300066,247.4246533999685,,,,,,,,,,,,,,,,,,,,,,,,,,,,,,,,,,,247.42654500016943,247.440826300066,247.440826300066,248.1242558001541,g,1.0,0.675955600105226,,,,,sub-193,1,stroop_test,60.1006686168435,
,,,,67.0,7.0,5.0,,,,,,,,,,,,,blau,blue,b,1.0,b,1.0,0.7539743999950588,,,,,,,,,,5.0,7.0,67.0,5.0,248.14022900001143,,,,,,,,,,,,,,,,,248.12450819998048,248.93940300005488,249.73879049997777,249.7225045000669,,,,,,,,,,,,,,,,,,,,,,,,,,,,,,,,,,,249.7252542001661,249.73879049997777,249.73879049997777,250.50522719998844,b,1.0,0.7539743999950588,,,,,sub-193,1,stroop_test,60.1006686168435,
,,,,68.0,8.0,5.0,,,,,,,,,,,,,gelb,red,r,0.0,r,1.0,0.902896499959752,,,,,,,,,,5.0,8.0,68.0,8.0,250.52117950003597,,,,,,,,,,,,,,,,,250.50545429997143,250.6044891001657,251.4037393000908,251.3874621000141,,,,,,,,,,,,,,,,,,,,,,,,,,,,,,,,,,,251.3898406000808,251.4037393000908,251.4037393000908,252.32033440005037,r,1.0,0.902896499959752,,,,,sub-193,1,stroop_test,60.1006686168435,
,,,,69.0,9.0,5.0,,,,,,,,,,,,,gelb,blue,b,0.0,b,1.0,0.5796405000146478,,,,,,,,,,5.0,9.0,69.0,9.0,252.3362046000548,,,,,,,,,,,,,,,,,252.32059210003356,253.1354192001745,253.93475909996775,253.91878720000383,,,,,,,,,,,,,,,,,,,,,,,,,,,,,,,,,,,253.91919860010967,253.93475909996775,253.93475909996775,254.51823929999955,b,1.0,0.5796405000146478,,,,,sub-193,1,stroop_test,60.1006686168435,
,,,,70.0,10.0,5.0,,,,,,,,,,,,,rot,blue,b,0.0,b,1.0,0.5546377999708056,,,,,,,,,,5.0,10.0,70.0,2.0,254.53409800003283,,,,,,,,,,,,,,,,,254.51854700013064,254.61735780001615,255.41675180010495,255.40082069998607,,,,,,,,,,,,,,,,,,,,,,,,,,,,,,,,,,,255.4061692999676,255.41675180010495,255.41675180010495,255.98355430015363,b,1.0,0.5546377999708056,,,,,sub-193,1,stroop_test,60.1006686168435,
,,,,71.0,11.0,5.0,,,,,,,,,,,,,blau,blue,b,1.0,b,1.0,0.4006505000870675,,,,,,,,,,5.0,11.0,71.0,6.0,255.99936630018053,,,,,,,,,,,,,,,,,255.98379219998608,256.79873739997856,257.59792160009965,257.5847619001288,,,,,,,,,,,,,,,,,,,,,,,,,,,,,,,,,,,257.58751820004545,257.59792160009965,257.59792160009965,258.0149534000084,b,1.0,0.4006505000870675,,,,,sub-193,1,stroop_test,60.1006686168435,
,,,,72.0,0.0,6.0,,,,,,,,,,,,,rot,red,r,1.0,r,1.0,0.6751129999756813,,,,,,,,,,6.0,0.0,72.0,1.0,258.0308056999929,,,,,,,,,,,,,,,,,258.01518430002034,258.11410899995826,258.9134065001272,258.89714740007184,,,,,,,,,,,,,,,,,,,,,,,,,,,,,,,,,,,258.89953620010056,258.9134065001272,258.9134065001272,259.5967451999895,r,1.0,0.6751129999756813,,,,,sub-193,1,stroop_test,60.1006686168435,
,,,,73.0,1.0,6.0,,,,,,,,,,,,,rot,blue,b,0.0,b,1.0,0.8201441999990493,,,,,,,,,,6.0,1.0,73.0,2.0,259.6126640001312,,,,,,,,,,,,,,,,,259.59696740005165,260.3954648000654,261.194567900151,261.1784110001754,,,,,,,,,,,,,,,,,,,,,,,,,,,,,,,,,,,261.17878179997206,261.194567900151,261.194567900151,262.02864170004614,b,1.0,0.8201441999990493,,,,,sub-193,1,stroop_test,60.1006686168435,
,,,,74.0,2.0,6.0,,,,,,,,,,,,,gelb,yellow,g,1.0,g,1.0,0.7026542001403868,,,,,,,,,,6.0,2.0,74.0,11.0,262.044062100118,,,,,,,,,,,,,,,,,262.0289929001592,262.1436519001145,262.94312510010786,262.9267390000168,,,,,,,,,,,,,,,,,,,,,,,,,,,,,,,,,,,262.9289182999637,262.94312510010786,262.94312510010786,263.659681300167,g,1.0,0.7026542001403868,,,,,sub-193,1,stroop_test,60.1006686168435,
,,,,75.0,3.0,6.0,,,,,,,,,,,,,blau,blue,b,1.0,b,1.0,0.5607938000466675,,,,,,,,,,6.0,3.0,75.0,5.0,263.67551830015145,,,,,,,,,,,,,,,,,263.65991550008766,263.7588738000486,264.55811300012283,264.5419161999598,,,,,,,,,,,,,,,,,,,,,,,,,,,,,,,,,,,264.54411690006964,264.55811300012283,264.55811300012283,265.12498409999534,b,1.0,0.5607938000466675,,,,,sub-193,1,stroop_test,60.1006686168435,
,,,,76.0,4.0,6.0,,,,,,,,,,,,,gelb,red,r,0.0,r,1.0,0.7110437001101673,,,,,,,,,,6.0,4.0,76.0,8.0,265.140811300138,,,,,,,,,,,,,,,,,265.12523360014893,265.94010450015776,266.7393928000238,266.723112200154,,,,,,,,,,,,,,,,,,,,,,,,,,,,,,,,,,,266.72561500011943,266.7393928000238,266.7393928000238,267.45614970009774,r,1.0,0.7110437001101673,,,,,sub-193,1,stroop_test,60.1006686168435,
,,,,77.0,5.0,6.0,,,,,,,,,,,,,blau,blue,b,1.0,b,1.0,0.6933901999145746,,,,,,,,,,6.0,5.0,77.0,6.0,267.47198030003347,,,,,,,,,,,,,,,,,267.4563984000124,268.6709001001436,269.4701940000523,269.4539408001583,,,,,,,,,,,,,,,,,,,,,,,,,,,,,,,,,,,269.456416600151,269.4701940000523,269.4701940000523,270.1706412001513,b,1.0,0.6933901999145746,,,,,sub-193,1,stroop_test,60.1006686168435,
,,,,78.0,6.0,6.0,,,,,,,,,,,,,blau,red,r,0.0,r,1.0,0.8272165001835674,,,,,,,,,,6.0,6.0,78.0,4.0,270.1861648000777,,,,,,,,,,,,,,,,,270.1710231001489,270.9854452,271.7847814001143,271.7686632000841,,,,,,,,,,,,,,,,,,,,,,,,,,,,,,,,,,,271.76898160018027,271.7847814001143,271.7847814001143,272.61865149997175,r,1.0,0.8272165001835674,,,,,sub-193,1,stroop_test,60.1006686168435,
,,,,79.0,7.0,6.0,,,,,,,,,,,,,gelb,yellow,g,1.0,b,0.0,0.4166910001076758,,,,,,,,,,6.0,7.0,79.0,10.0,272.6338790000882,,,,,,,,,,,,,,,,,272.6189421999734,273.4331859999802,274.2324713000562,274.21622840012424,,,,,,,,,,,,,,,,,,,,,,,,,,,,,,,,,,,274.21836360008456,274.2324713000562,274.2324713000562,274.66621350008063,b,0.0,0.4166910001076758,,,,,sub-193,1,stroop_test,60.1006686168435,
,,,,80.0,8.0,6.0,,,,,,,,,,,,,rot,yellow,g,0.0,g,1.0,0.889990899944678,,,,,,,,,,6.0,8.0,80.0,3.0,274.68193370010704,,,,,,,,,,,,,,,,,274.66649630013853,274.7818671001587,275.5811652000993,275.5651191000361,,,,,,,,,,,,,,,,,,,,,,,,,,,,,,,,,,,275.56810520007275,275.5811652000993,275.5811652000993,276.4811845000368,g,1.0,0.889990899944678,,,,,sub-193,1,stroop_test,60.1006686168435,
,,,,81.0,9.0,6.0,,,,,,,,,,,,,blau,yellow,g,0.0,g,1.0,0.5461124000139534,,,,,,,,,,6.0,9.0,81.0,7.0,276.496917600045,,,,,,,,,,,,,,,,,276.4814933000598,277.2961904001422,278.0955110001378,278.07943100016564,,,,,,,,,,,,,,,,,,,,,,,,,,,,,,,,,,,278.0820877000224,278.0955110001378,278.0955110001378,278.6459546000697,g,1.0,0.5461124000139534,,,,,sub-193,1,stroop_test,60.1006686168435,
,,,,82.0,10.0,6.0,,,,,,,,,,,,,rot,red,r,1.0,r,1.0,0.6249963000882417,,,,,,,,,,6.0,10.0,82.0,0.0,278.6616905999836,,,,,,,,,,,,,,,,,278.6461877999827,279.8605420000385,280.65971040003933,280.6434115001466,,,,,,,,,,,,,,,,,,,,,,,,,,,,,,,,,,,280.6456133001484,280.65971040003933,280.65971040003933,281.29391300003044,r,1.0,0.6249963000882417,,,,,sub-193,1,stroop_test,60.1006686168435,
,,,,83.0,11.0,6.0,,,,,,,,,,,,,gelb,blue,b,0.0,b,1.0,0.5404298000503331,,,,,,,,,,6.0,11.0,83.0,9.0,281.30924790003337,,,,,,,,,,,,,,,,,281.2941714001354,281.65874200011604,282.4581510000862,282.4419017001055,,,,,,,,,,,,,,,,,,,,,,,,,,,,,,,,,,,282.4445338000078,282.4581510000862,282.4581510000862,283.0088136000559,b,1.0,0.5404298000503331,,,,,sub-193,1,stroop_test,60.1006686168435,
,,,,84.0,0.0,7.0,,,,,,,,,,,,,blau,yellow,g,0.0,g,1.0,0.8094625000376254,,,,,,,,,,7.0,0.0,84.0,7.0,283.02418980002403,,,,,,,,,,,,,,,,,283.0091342001688,283.124140100088,283.92345150001347,283.9070508000441,,,,,,,,,,,,,,,,,,,,,,,,,,,,,,,,,,,283.9093424000312,283.92345150001347,283.92345150001347,284.7399755001534,g,1.0,0.8094625000376254,,,,,sub-193,1,stroop_test,60.1006686168435,
,,,,85.0,1.0,7.0,,,,,,,,,,,,,gelb,blue,b,0.0,b,1.0,1.1302844998426735,,,,,,,,,,7.0,1.0,85.0,9.0,284.7560529001057,,,,,,,,,,,,,,,,,284.7402044001501,285.55515340017155,286.3544213999994,286.3397018001415,,,,,,,,,,,,,,,,,,,,,,,,,,,,,,,,,,,286.34207749995403,286.3544213999994,286.3544213999994,287.48764980002306,b,1.0,1.1302844998426735,,,,,sub-193,1,stroop_test,60.1006686168435,
,,,,86.0,2.0,7.0,,,,,,,,,,,,,blau,blue,b,1.0,b,1.0,0.4686726001091301,,,,,,,,,,7.0,2.0,86.0,6.0,287.50328360009007,,,,,,,,,,,,,,,,,287.4878825000487,288.3027074001729,289.10182630014606,289.0859580000397,,,,,,,,,,,,,,,,,,,,,,,,,,,,,,,,,,,289.09083450003527,289.10182630014606,289.10182630014606,289.5857856001239,b,1.0,0.4686726001091301,,,,,sub-193,1,stroop_test,60.1006686168435,
,,,,87.0,3.0,7.0,,,,,,,,,,,,,rot,yellow,g,0.0,g,1.0,1.251994799822569,,,,,,,,,,7.0,3.0,87.0,3.0,289.60159060009755,,,,,,,,,,,,,,,,,289.5860175001435,289.95101990015246,290.750471000094,290.7340864001308,,,,,,,,,,,,,,,,,,,,,,,,,,,,,,,,,,,290.73625269997865,290.750471000094,290.750471000094,292.0167863001116,g,1.0,1.251994799822569,,,,,sub-193,1,stroop_test,60.1006686168435,
,,,,88.0,4.0,7.0,,,,,,,,,,,,,rot,red,r,1.0,r,1.0,0.6180465000215918,,,,,,,,,,7.0,4.0,88.0,1.0,292.03236189996824,,,,,,,,,,,,,,,,,292.0170935001224,293.2311994000338,294.03060559998266,294.0142886999529,,,,,,,,,,,,,,,,,,,,,,,,,,,,,,,,,,,294.01463390002027,294.03060559998266,294.03060559998266,294.6639660000801,r,1.0,0.6180465000215918,,,,,sub-193,1,stroop_test,60.1006686168435,
,,,,89.0,5.0,7.0,,,,,,,,,,,,,blau,blue,b,1.0,b,1.0,0.5874934999737889,,,,,,,,,,7.0,5.0,89.0,5.0,294.67994299996644,,,,,,,,,,,,,,,,,294.66420520003885,295.87879210012034,296.6781660001725,296.66177420015447,,,,,,,,,,,,,,,,,,,,,,,,,,,,,,,,,,,296.66463030013256,296.6781660001725,296.6781660001725,297.2783005000092,b,1.0,0.5874934999737889,,,,,sub-193,1,stroop_test,60.1006686168435,
,,,,90.0,6.0,7.0,,,,,,,,,,,,,rot,red,r,1.0,r,1.0,0.5821517999283969,,,,,,,,,,7.0,6.0,90.0,0.0,297.29407030018046,,,,,,,,,,,,,,,,,297.27858610008843,298.49309909995645,299.29223410016857,299.2762209000066,,,,,,,,,,,,,,,,,,,,,,,,,,,,,,,,,,,299.2795708000194,299.29223410016857,299.29223410016857,299.87591040018015,r,1.0,0.5821517999283969,,,,,sub-193,1,stroop_test,60.1006686168435,
,,,,91.0,7.0,7.0,,,,,,,,,,,,,gelb,red,r,0.0,r,1.0,0.5623797001317143,,,,,,,,,,7.0,7.0,91.0,8.0,299.89166470011696,,,,,,,,,,,,,,,,,299.8761836001649,301.09061670000665,301.8898793000262,301.87370290001854,,,,,,,,,,,,,,,,,,,,,,,,,,,,,,,,,,,301.87629970000125,301.8898793000262,301.8898793000262,302.4569125000853,r,1.0,0.5623797001317143,,,,,sub-193,1,stroop_test,60.1006686168435,
,,,,92.0,8.0,7.0,,,,,,,,,,,,,rot,blue,b,0.0,b,1.0,0.6037077000364661,,,,,,,,,,7.0,8.0,92.0,2.0,302.4726376000326,,,,,,,,,,,,,,,,,302.45714400010183,302.8223660001531,303.6215647000354,303.60542060015723,,,,,,,,,,,,,,,,,,,,,,,,,,,,,,,,,,,303.60845690011047,303.6215647000354,303.6215647000354,304.2389484001324,b,1.0,0.6037077000364661,,,,,sub-193,1,stroop_test,60.1006686168435,
,,,,93.0,9.0,7.0,,,,,,,,,,,,,gelb,yellow,g,1.0,g,1.0,0.3748570000752806,,,,,,,,,,7.0,9.0,93.0,11.0,304.2543443001341,,,,,,,,,,,,,,,,,304.2392572001554,305.4531618000474,306.252501900075,306.2362925000489,,,,,,,,,,,,,,,,,,,,,,,,,,,,,,,,,,,306.2388153001666,306.252501900075,306.252501900075,306.6361295001116,g,1.0,0.3748570000752806,,,,,sub-193,1,stroop_test,60.1006686168435,
,,,,94.0,10.0,7.0,,,,,,,,,,,,,gelb,yellow,g,1.0,g,1.0,0.4652368000242859,,,,,,,,,,7.0,10.0,94.0,10.0,306.6520116000902,,,,,,,,,,,,,,,,,306.6363790000323,307.4512508001644,308.250612200005,308.23478260007687,,,,,,,,,,,,,,,,,,,,,,,,,,,,,,,,,,,308.23527220007963,308.250612200005,308.250612200005,308.71826430014335,g,1.0,0.4652368000242859,,,,,sub-193,1,stroop_test,60.1006686168435,
,,,,95.0,11.0,7.0,,,,,,,,,,,,,blau,red,r,0.0,b,0.0,0.6245750999078155,,,,,,,,,,7.0,11.0,95.0,4.0,308.7334861001,,,,,,,,,,,,,,,,,308.7187420001719,309.0830652001314,309.8903386001475,309.8669974000659,,,,,,,,,,,,,,,,,,,,,,,,,,,,,,,,,,,309.8844632001128,309.8903386001475,309.8903386001475,310.51628490001895,b,0.0,0.6245750999078155,,,,,sub-193,1,stroop_test,60.1006686168435,
,,,,96.0,0.0,8.0,,,,,,,,,,,,,blau,blue,b,1.0,b,1.0,0.5434204000048339,,,,,,,,,,8.0,0.0,96.0,6.0,310.5317236999981,,,,,,,,,,,,,,,,,310.51659930008464,310.88149489997886,311.6808587999549,311.6646450001281,,,,,,,,,,,,,,,,,,,,,,,,,,,,,,,,,,,311.66499199997634,311.6808587999549,311.6808587999549,312.23115839995444,b,1.0,0.5434204000048339,,,,,sub-193,1,stroop_test,60.1006686168435,
,,,,97.0,1.0,8.0,,,,,,,,,,,,,gelb,blue,b,0.0,b,1.0,0.6582317999564111,,,,,,,,,,8.0,1.0,97.0,9.0,312.2467728999909,,,,,,,,,,,,,,,,,312.2314483001828,313.44572610012256,314.2450235001743,314.22898260015063,,,,,,,,,,,,,,,,,,,,,,,,,,,,,,,,,,,314.2319521000609,314.2450235001743,314.2450235001743,314.9120378000662,b,1.0,0.6582317999564111,,,,,sub-193,1,stroop_test,60.1006686168435,
,,,,98.0,2.0,8.0,,,,,,,,,,,,,gelb,red,r,0.0,r,1.0,0.6011873998213559,,,,,,,,,,8.0,2.0,98.0,8.0,314.92766010016203,,,,,,,,,,,,,,,,,314.9123979001306,315.72691630013287,316.5262869000435,316.51019070018083,,,,,,,,,,,,,,,,,,,,,,,,,,,,,,,,,,,316.51089310017414,316.5262869000435,316.5262869000435,317.14363030018285,r,1.0,0.6011873998213559,,,,,sub-193,1,stroop_test,60.1006686168435,
,,,,99.0,3.0,8.0,,,,,,,,,,,,,rot,yellow,g,0.0,g,1.0,0.786385300103575,,,,,,,,,,8.0,3.0,99.0,3.0,317.1590676000342,,,,,,,,,,,,,,,,,317.1442170999944,317.2588448000606,318.0580188999884,318.0424141001422,,,,,,,,,,,,,,,,,,,,,,,,,,,,,,,,,,,318.04755720007233,318.0580188999884,318.0580188999884,318.8587652000133,g,1.0,0.786385300103575,,,,,sub-193,1,stroop_test,60.1006686168435,
,,,,100.0,4.0,8.0,,,,,,,,,,,,,gelb,yellow,g,1.0,g,1.0,0.6458217999897897,,,,,,,,,,8.0,4.0,100.0,10.0,318.8739375001751,,,,,,,,,,,,,,,,,318.859147900017,319.2237209000159,320.0230054000858,320.00672159995884,,,,,,,,,,,,,,,,,,,,,,,,,,,,,,,,,,,320.0094195001293,320.0230054000858,320.0230054000858,320.673609000165,g,1.0,0.6458217999897897,,,,,sub-193,1,stroop_test,60.1006686168435,
,,,,101.0,5.0,8.0,,,,,,,,,,,,,blau,red,r,0.0,r,1.0,1.1978515000082552,,,,,,,,,,8.0,5.0,101.0,4.0,320.6888747001067,,,,,,,,,,,,,,,,,320.67398270010017,321.48819450009614,322.28777500009164,322.2717605000362,,,,,,,,,,,,,,,,,,,,,,,,,,,,,,,,,,,322.27504900004715,322.28777500009164,322.28777500009164,323.48728909995407,r,1.0,1.1978515000082552,,,,,sub-193,1,stroop_test,60.1006686168435,
,,,,102.0,6.0,8.0,,,,,,,,,,,,,blau,yellow,g,0.0,g,1.0,0.987508400110528,,,,,,,,,,8.0,6.0,102.0,7.0,323.50293670012616,,,,,,,,,,,,,,,,,323.4875356999692,323.8526731999591,324.6519687001128,324.63697140011936,,,,,,,,,,,,,,,,,,,,,,,,,,,,,,,,,,,324.6378437001258,324.6519687001128,324.6519687001128,325.6520227000583,g,1.0,0.987508400110528,,,,,sub-193,1,stroop_test,60.1006686168435,
,,,,103.0,7.0,8.0,,,,,,,,,,,,,blau,blue,b,1.0,b,1.0,0.6587372999638319,,,,,,,,,,8.0,7.0,103.0,5.0,325.6676154001616,,,,,,,,,,,,,,,,,325.6523325999733,325.76746500004083,326.5667560000438,326.55046140006743,,,,,,,,,,,,,,,,,,,,,,,,,,,,,,,,,,,326.55079360003583,326.5667560000438,326.5667560000438,327.23382480000146,b,1.0,0.6587372999638319,,,,,sub-193,1,stroop_test,60.1006686168435,
,,,,104.0,8.0,8.0,,,,,,,,,,,,,rot,blue,b,0.0,b,1.0,1.2168330999556929,,,,,,,,,,8.0,8.0,104.0,2.0,327.2494347000029,,,,,,,,,,,,,,,,,327.2341078000609,327.3497616001405,328.1651851001661,328.1489591000136,,,,,,,,,,,,,,,,,,,,,,,,,,,,,,,,,,,328.1511484000366,328.1651851001661,328.1651851001661,329.39823010005057,b,1.0,1.2168330999556929,,,,,sub-193,1,stroop_test,60.1006686168435,
,,,,105.0,9.0,8.0,,,,,,,,,,,,,rot,red,r,1.0,r,1.0,0.814463600050658,,,,,,,,,,8.0,9.0,105.0,0.0,329.4140163999982,,,,,,,,,,,,,,,,,329.39848970016465,330.61305389995687,331.41226610005833,331.39593450003304,,,,,,,,,,,,,,,,,,,,,,,,,,,,,,,,,,,331.39627390005626,331.41226610005833,331.41226610005833,332.22881900006905,r,1.0,0.814463600050658,,,,,sub-193,1,stroop_test,60.1006686168435,
,,,,106.0,10.0,8.0,,,,,,,,,,,,,gelb,yellow,g,1.0,g,1.0,0.5970747999381274,,,,,,,,,,8.0,10.0,106.0,11.0,332.2446870000568,,,,,,,,,,,,,,,,,332.2290628000628,332.3279818999581,333.12773880013265,333.1114608000498,,,,,,,,,,,,,,,,,,,,,,,,,,,,,,,,,,,333.1137703000568,333.12773880013265,333.12773880013265,333.72746640001424,g,1.0,0.5970747999381274,,,,,sub-193,1,stroop_test,60.1006686168435,
,,,,107.0,11.0,8.0,,,,,,,,,,,,,rot,red,r,1.0,r,1.0,0.5273908001836389,,,,,,,,,,8.0,11.0,107.0,1.0,333.7433007000945,,,,,,,,,,,,,,,,,333.72770539997146,334.9422109001316,335.7414725001436,335.72530569997616,,,,,,,,,,,,,,,,,,,,,,,,,,,,,,,,,,,335.72732589999214,335.7414725001436,335.7414725001436,336.27507880004123,r,1.0,0.5273908001836389,,,,,sub-193,1,stroop_test,60.1006686168435,
,,,,108.0,0.0,9.0,,,,,,,,,,,,,gelb,red,r,0.0,r,1.0,0.8893275000154972,,,,,,,,,,9.0,0.0,108.0,8.0,336.29089260008186,,,,,,,,,,,,,,,,,336.2753173999954,337.4898127000779,338.28903420013376,338.2729346000124,,,,,,,,,,,,,,,,,,,,,,,,,,,,,,,,,,,338.275177200092,338.28903420013376,338.28903420013376,339.18891609995626,r,1.0,0.8893275000154972,,,,,sub-193,1,stroop_test,60.1006686168435,
,,,,109.0,1.0,9.0,,,,,,,,,,,,,rot,blue,b,0.0,b,1.0,1.117989500053227,,,,,,,,,,9.0,1.0,109.0,2.0,339.20483250007965,,,,,,,,,,,,,,,,,339.1891479000915,339.5378934000619,340.33732880000025,340.3209885000251,,,,,,,,,,,,,,,,,,,,,,,,,,,,,,,,,,,340.32336100004613,340.33732880000025,340.33732880000025,341.4700488999952,b,1.0,1.117989500053227,,,,,sub-193,1,stroop_test,60.1006686168435,
,,,,110.0,2.0,9.0,,,,,,,,,,,,,gelb,yellow,g,1.0,g,1.0,0.9511818999890238,,,,,,,,,,9.0,2.0,110.0,10.0,341.4860227999743,,,,,,,,,,,,,,,,,341.4702914999798,342.68512820010073,343.4842791000847,343.46798660000786,,,,,,,,,,,,,,,,,,,,,,,,,,,,,,,,,,,343.4701700999867,343.4842791000847,343.4842791000847,344.4506999000441,g,1.0,0.9511818999890238,,,,,sub-193,1,stroop_test,60.1006686168435,
,,,,111.0,3.0,9.0,,,,,,,,,,,,,rot,red,r,1.0,r,1.0,0.6884121000766754,,,,,,,,,,9.0,3.0,111.0,1.0,344.46672739996575,,,,,,,,,,,,,,,,,344.4509358999785,345.2659668000415,346.0651237000711,346.04890120006166,,,,,,,,,,,,,,,,,,,,,,,,,,,,,,,,,,,346.0510780001059,346.0651237000711,346.0651237000711,346.7653793001082,r,1.0,0.6884121000766754,,,,,sub-193,1,stroop_test,60.1006686168435,
,,,,112.0,4.0,9.0,,,,,,,,,,,,,blau,red,r,0.0,r,1.0,0.7680712998844683,,,,,,,,,,9.0,4.0,112.0,4.0,346.780916800024,,,,,,,,,,,,,,,,,346.76566740009,347.979990700027,348.77936529996805,348.7632334001828,,,,,,,,,,,,,,,,,,,,,,,,,,,,,,,,,,,348.7656811000779,348.77936529996805,348.77936529996805,349.563304600073,r,1.0,0.7680712998844683,,,,,sub-193,1,stroop_test,60.1006686168435,
,,,,113.0,5.0,9.0,,,,,,,,,,,,,rot,yellow,g,0.0,g,1.0,0.8122237001080066,,,,,,,,,,9.0,5.0,113.0,3.0,349.5785332999658,,,,,,,,,,,,,,,,,349.56355240009725,350.777429100126,351.5785376999993,351.560395100154,,,,,,,,,,,,,,,,,,,,,,,,,,,,,,,,,,,351.5626703000162,351.5785376999993,351.5785376999993,352.3933161001187,g,1.0,0.8122237001080066,,,,,sub-193,1,stroop_test,60.1006686168435,
,,,,114.0,6.0,9.0,,,,,,,,,,,,,rot,red,r,1.0,r,1.0,1.2062035999260845,,,,,,,,,,9.0,6.0,114.0,0.0,352.4092059000395,,,,,,,,,,,,,,,,,352.39354690001346,353.60813920013607,354.4073151999619,354.3911139999982,,,,,,,,,,,,,,,,,,,,,,,,,,,,,,,,,,,354.3915138000157,354.4073151999619,354.4073151999619,355.6235791000072,r,1.0,1.2062035999260845,,,,,sub-193,1,stroop_test,60.1006686168435,
,,,,115.0,7.0,9.0,,,,,,,,,,,,,gelb,yellow,g,1.0,g,1.0,0.5252391998656094,,,,,,,,,,9.0,7.0,115.0,11.0,355.6394766001031,,,,,,,,,,,,,,,,,355.62382189999335,356.44195600016974,357.2546953000128,357.2385517000221,,,,,,,,,,,,,,,,,,,,,,,,,,,,,,,,,,,357.24117220006883,357.2546953000128,357.2546953000128,357.7880838001147,g,1.0,0.5252391998656094,,,,,sub-193,1,stroop_test,60.1006686168435,
,,,,116.0,8.0,9.0,,,,,,,,,,,,,gelb,blue,b,0.0,b,1.0,1.0215052999556065,,,,,,,,,,9.0,8.0,116.0,9.0,357.8042141001206,,,,,,,,,,,,,,,,,357.7883782000281,358.6069058000576,359.4193582001608,359.40377750014886,,,,,,,,,,,,,,,,,,,,,,,,,,,,,,,,,,,359.40425330004655,359.4193582001608,359.4193582001608,360.4526513000019,b,1.0,1.0215052999556065,,,,,sub-193,1,stroop_test,60.1006686168435,
,,,,117.0,9.0,9.0,,,,,,,,,,,,,blau,yellow,g,0.0,g,1.0,0.9870084000285716,,,,,,,,,,9.0,9.0,117.0,7.0,360.4683962001,,,,,,,,,,,,,,,,,360.4529733001255,360.5683830999769,361.36765650007874,361.35144850006327,,,,,,,,,,,,,,,,,,,,,,,,,,,,,,,,,,,361.3541529001668,361.36765650007874,361.36765650007874,362.3680144001264,g,1.0,0.9870084000285716,,,,,sub-193,1,stroop_test,60.1006686168435,
,,,,118.0,10.0,9.0,,,,,,,,,,,,,blau,blue,b,1.0,b,1.0,0.8066982999444008,,,,,,,,,,9.0,10.0,118.0,5.0,362.3845494000707,,,,,,,,,,,,,,,,,362.36839039996266,363.1825199001469,363.9817657000385,363.9655620001722,,,,,,,,,,,,,,,,,,,,,,,,,,,,,,,,,,,363.9659542001318,363.9817657000385,363.9817657000385,364.7989247001242,b,1.0,0.8066982999444008,,,,,sub-193,1,stroop_test,60.1006686168435,
,,,,119.0,11.0,9.0,,,,,,,,,,,,,blau,blue,b,1.0,b,1.0,0.440720799844712,,,,,,,,,,9.0,11.0,119.0,6.0,364.8143013000954,,,,,,,,,,,,,,,,,364.7992406999692,366.01314519997686,366.812407999998,366.7979686001781,,,,,,,,,,,,,,,,,,,,,,,,,,,,,,,,,,,366.7983991999645,366.812407999998,366.812407999998,367.26299179997295,b,1.0,0.440720799844712,,,,,sub-193,1,stroop_test,60.1006686168435,
,,,,,,,,,,,,,,,,,,,,,,,,,,,,,,,,,,,,,,,,,,,,,,,,,,,,,,,,,,,,,,,,,,,,,,,,,,,,,,,,,,,,,,,,,,,,,,,,,,,,,,367.2631572000682,367.2788287999574,372.2742954001296,sub-193,1,stroop_test,60.1006686168435,
