wordCTK,colorCTK,corrAnsCTK,congruentCTK,thisN,thisTrialN,thisRepN,keyResp_CTK.keys,keyResp_CTK.corr,keyResp_CTK.rt,keyResp_CTK.duration,wordPractice,colorPractice,corrAnsPractice,congruentPractice,respPractice.keys,respPractice.corr,respPractice.rt,respPractice.duration,word,color,corrAns,congruent,keyResp_test_run.keys,keyResp_test_run.corr,keyResp_test_run.rt,keyResp_test_run.duration,trials_CTK.thisRepN,trials_CTK.thisTrialN,trials_CTK.thisN,trials_CTK.thisIndex,trials_practice.thisRepN,trials_practice.thisTrialN,trials_practice.thisN,trials_practice.thisIndex,trials_test.thisRepN,trials_test.thisTrialN,trials_test.thisN,trials_test.thisIndex,thisRow.t,notes,instruction.started,instr_text.started,instr_image.started,instr_resp.started,instruction.stopped,instr_resp.keys,instr_resp.rt,instr_resp.duration,instr_color_to_key.started,instr_ctk.started,resp_ctk.started,instr_color_to_key.stopped,resp_ctk.keys,resp_ctk.rt,resp_ctk.duration,ITI.started,fixcross.started,fixcross.stopped,ITI.stopped,color_to_key_run.started,stimulus_CTK.started,keyResp_CTK.started,color_to_key_run.stopped,trials_CTK.keyResp_CTK.keys,trials_CTK.keyResp_CTK.corr,trials_CTK.keyResp_CTK.rt,trials_CTK.keyResp_CTK.duration,instr_practice.started,instr_practice_text.started,instr_practice_resp.started,instr_practice.stopped,instr_practice_resp.keys,instr_practice_resp.rt,instr_practice_resp.duration,practice_run.started,stimulus_practice.started,respPractice.started,practice_run.stopped,trials_practice.respPractice.keys,trials_practice.respPractice.corr,trials_practice.respPractice.rt,trials_practice.respPractice.duration,feedback.started,textFeedback.started,textFeedback.stopped,feedback.stopped,instr_test.started,instr_test_text.started,instr_test_resp.started,instr_test.stopped,instr_test_resp.keys,instr_test_resp.rt,instr_test_resp.duration,test_run.started,stimulus_test_run.started,keyResp_test_run.started,test_run.stopped,trials_test.keyResp_test_run.keys,trials_test.keyResp_test_run.corr,trials_test.keyResp_test_run.rt,trials_test.keyResp_test_run.duration,goodbye.started,textGoodbye.started,textGoodbye.stopped,goodbye.stopped,participant,session,expName,frameRate,Unnamed: 113
,,,,,,,,,,,,,,,,,,,,,,,,,,,,,,,,,,,,,,,,,0.0319194840049021,0.0504028140057926,0.0504028140057926,0.0504028140057926,27.50860240200564,space,27.436805315999663,,,,,,,,,,,,,,,,,,,,,,,,,,,,,,,,,,,,,,,,,,,,,,,,,,,,,,,,,,,sub-132,1,stroop_test,,
,,,,,,,,,,,,,,,,,,,,,,,,,,,,,,,,,,,,,,,,,,,,,,,,,27.50866393100296,27.52679226900364,27.52679226900364,34.06082421199972,space,6.529981273000885,,,,,,,,,,,,,,,,,,,,,,,,,,,,,,,,,,,,,,,,,,,,,,,,,,,,sub-132,1,stroop_test,,
test,yellow,g,1.0,0.0,0.0,0.0,g,1.0,8.838227180000104,,,,,,,,,,,,,,,,,,0.0,0.0,0.0,1.0,,,,,,,,,34.10964637299912,,,,,,,,,,,,,,,,,34.08686112199939,34.15731953800423,34.961176239005,34.953980966005474,34.95763614900352,34.961176239005,34.961176239005,43.80471549300273,g,1.0,8.838227180000104,,,,,,,,,,,,,,,,,,,,,,,,,,,,,,,,,,,,,,,,sub-132,1,stroop_test,,
test,red,r,1.0,1.0,1.0,0.0,r,1.0,1.2958869239955677,,,,,,,,,,,,,,,,,,0.0,1.0,1.0,0.0,,,,,,,,,43.80916298500233,,,,,,,,,,,,,,,,,43.8049743790034,43.90054753000004,44.69110833200102,44.68746129300416,44.6877795390028,44.69110833200102,44.69110833200102,45.988545138003246,r,1.0,1.2958869239955677,,,,,,,,,,,,,,,,,,,,,,,,,,,,,,,,,,,,,,,,sub-132,1,stroop_test,,
test,blue,b,1.0,2.0,2.0,0.0,b,1.0,0.8480323100011447,,,,,,,,,,,,,,,,,,0.0,2.0,2.0,2.0,,,,,,,,,45.99299964900274,,,,,,,,,,,,,,,,,45.98880420000205,46.08384015300544,46.87455465899984,46.87092817800294,46.87124513900199,46.87455465899984,46.87455465899984,47.72749098799977,b,1.0,0.8480323100011447,,,,,,,,,,,,,,,,,,,,,,,,,,,,,,,,,,,,,,,,sub-132,1,stroop_test,,
test,yellow,g,1.0,3.0,0.0,1.0,g,1.0,0.5194101770030102,,,,,,,,,,,,,,,,,,1.0,0.0,3.0,1.0,,,,,,,,,47.73382919600408,,,,,,,,,,,,,,,,,47.72773691800103,47.822780000999046,48.61732117700012,48.6097465060011,48.61006101100065,48.61732117700012,48.61732117700012,49.138693009001145,g,1.0,0.5194101770030102,,,,,,,,,,,,,,,,,,,,,,,,,,,,,,,,,,,,,,,,sub-132,1,stroop_test,,
test,red,r,1.0,4.0,1.0,1.0,r,1.0,0.3805468469945481,,,,,,,,,,,,,,,,,,1.0,1.0,4.0,0.0,,,,,,,,,49.14308115600579,,,,,,,,,,,,,,,,,49.13894379600242,50.33394448499894,51.12447788400459,51.12095990400121,51.12129374700453,51.12447788400459,51.12447788400459,51.51116421600455,r,1.0,0.3805468469945481,,,,,,,,,,,,,,,,,,,,,,,,,,,,,,,,,,,,,,,,sub-132,1,stroop_test,,
test,blue,b,1.0,5.0,2.0,1.0,b,1.0,0.2735006030052318,,,,,,,,,,,,,,,,,,1.0,2.0,5.0,2.0,,,,,,,,,51.51724177900178,,,,,,,,,,,,,,,,,51.5114053790021,52.30714530299883,53.10075668799982,53.09340088900353,53.093711084999086,53.10075668799982,53.10075668799982,53.37754307599971,b,1.0,0.2735006030052318,,,,,,,,,,,,,,,,,,,,,,,,,,,,,,,,,,,,,,,,sub-132,1,stroop_test,,
test,yellow,g,1.0,6.0,0.0,2.0,g,1.0,0.2905116830006591,,,,,,,,,,,,,,,,,,2.0,0.0,6.0,1.0,,,,,,,,,53.38392546999967,,,,,,,,,,,,,,,,,53.37780240000575,53.473123448005936,54.26740416900429,54.2602168279991,54.26055088800058,54.26740416900429,54.26740416900429,54.56133527299971,g,1.0,0.2905116830006591,,,,,,,,,,,,,,,,,,,,,,,,,,,,,,,,,,,,,,,,sub-132,1,stroop_test,,
test,red,r,1.0,7.0,1.0,2.0,r,1.0,0.2737068390051718,,,,,,,,,,,,,,,,,,2.0,1.0,7.0,0.0,,,,,,,,,54.5672337710057,,,,,,,,,,,,,,,,,54.56158307000442,55.35666143200069,56.150722379999934,56.1436954430028,56.144016689002456,56.150722379999934,56.150722379999934,56.42775882600108,r,1.0,0.2737068390051718,,,,,,,,,,,,,,,,,,,,,,,,,,,,,,,,,,,,,,,,sub-132,1,stroop_test,,
test,blue,b,1.0,8.0,2.0,2.0,b,1.0,0.4126331680017756,,,,,,,,,,,,,,,,,,2.0,2.0,8.0,2.0,,,,,,,,,56.433935289001965,,,,,,,,,,,,,,,,,56.42801584900008,56.7733100789992,57.56738178100204,57.5604657110016,57.56078122500185,57.56738178100204,57.56738178100204,57.988316889001,b,1.0,0.4126331680017756,,,,,,,,,,,,,,,,,,,,,,,,,,,,,,,,,,,,,,,,sub-132,1,stroop_test,,
test,blue,b,1.0,9.0,0.0,3.0,g,0.0,0.289715842998703,,,,,,,,,,,,,,,,,,3.0,0.0,9.0,2.0,,,,,,,,,57.99271698200028,,,,,,,,,,,,,,,,,57.98856050000177,58.78412713899888,59.57459949600161,59.57103166800516,59.571339877002174,59.57459949600161,59.57459949600161,59.8718430709996,g,0.0,0.289715842998703,,,,,,,,,,,,,,,,,,,,,,,,,,,,,,,,,,,,,,,,sub-132,1,stroop_test,,
test,red,r,1.0,10.0,1.0,3.0,r,1.0,0.5524295630020788,,,,,,,,,,,,,,,,,,3.0,1.0,10.0,0.0,,,,,,,,,59.876273911999306,,,,,,,,,,,,,,,,,59.87211484100408,59.967270237000776,60.75850367100065,60.75461108900345,60.75493622100476,60.75850367100065,60.75850367100065,61.32113529599883,r,1.0,0.5524295630020788,,,,,,,,,,,,,,,,,,,,,,,,,,,,,,,,,,,,,,,,sub-132,1,stroop_test,,
test,yellow,g,1.0,11.0,2.0,3.0,g,1.0,1.3448419630003627,,,,,,,,,,,,,,,,,,3.0,2.0,11.0,1.0,,,,,,,,,61.32551261900517,,,,,,,,,,,,,,,,,61.32139134000317,61.66747959799977,62.45812044000195,62.45444481899904,62.45477178700094,62.45812044000195,62.45812044000195,63.80595397300203,g,1.0,1.3448419630003627,,,,,,,,,,,,,,,,,,,,,,,,,,,,,,,,,,,,,,,,sub-132,1,stroop_test,,
,,,,,,,,,,,,,,,,,,,,,,,,,,,,,,,,,,,,,,,,,,,,,,,,,,,,,,,,,,,,,,,,,,,,63.80608339900209,63.81189670000458,63.81189670000458,67.2448517390003,space,3.4260161810016143,,,,,,,,,,,,,,,,,,,,,,,,,,,,,,,,,sub-132,1,stroop_test,,
,,,,0.0,0.0,0.0,,,,,blau,blue,b,1.0,b,1.0,0.8929549239983317,,,,,,,,,,,,,,0.0,0.0,0.0,6.0,,,,,67.25870011900406,,,,,,,,,,,,,,,,,67.25450921100128,68.04009146099997,68.83405005000532,68.8265455350047,,,,,,,,,,,,,,,,68.8302694810045,68.83405005000532,68.83405005000532,69.72851654099941,b,1.0,0.8929549239983317,,69.73333401000127,69.73850946000312,70.7340977030035,70.72655541900167,,,,,,,,,,,,,,,,,,,,sub-132,1,stroop_test,,
,,,,1.0,1.0,0.0,,,,,gelb,yellow,g,1.0,g,1.0,0.542868978001934,,,,,,,,,,,,,,0.0,1.0,1.0,10.0,,,,,70.7340977030035,,,,,,,,,,,,,,,,,70.72679189400515,71.92342753700359,72.71735206200538,72.70980083299946,,,,,,,,,,,,,,,,72.7121440520059,72.71735206200538,72.71735206200538,73.261744731004,g,1.0,0.542868978001934,,73.26211924100062,73.26734650399885,74.25678736800182,74.25430880500062,,,,,,,,,,,,,,,,,,,,sub-132,1,stroop_test,,
,,,,2.0,2.0,0.0,,,,,gelb,red,r,0.0,r,1.0,0.4541517449979437,,,,,,,,,,,,,,0.0,2.0,2.0,8.0,,,,,74.25678736800182,,,,,,,,,,,,,,,,,74.25454461100162,75.05668965299992,75.85083873999974,75.84375995600567,,,,,,,,,,,,,,,,75.8440820570031,75.85083873999974,75.85083873999974,76.31112157900498,r,1.0,0.4541517449979437,,76.31147919499927,76.31742729899997,77.30734666300123,77.30459149699891,,,,,,,,,,,,,,,,,,,,sub-132,1,stroop_test,,
,,,,3.0,3.0,0.0,,,,,gelb,blue,b,0.0,b,1.0,0.3887489519984228,,,,,,,,,,,,,,0.0,3.0,3.0,9.0,,,,,77.30734666300123,,,,,,,,,,,,,,,,,77.30483442500554,77.65686738700606,78.4509355850023,78.44407112400222,,,,,,,,,,,,,,,,78.44438738000463,78.4509355850023,78.4509355850023,78.84452534899901,b,1.0,0.3887489519984228,,78.84488670500286,78.85073311800079,79.84027801699995,79.83766948300035,,,,,,,,,,,,,,,,,,,,sub-132,1,stroop_test,,
,,,,4.0,4.0,0.0,,,,,blau,yellow,g,0.0,g,1.0,0.355834866000805,,,,,,,,,,,,,,0.0,4.0,4.0,7.0,,,,,79.84027801699995,,,,,,,,,,,,,,,,,79.83790063800552,80.190092568002,80.98420842100313,80.97699279200606,,,,,,,,,,,,,,,,80.97936820100585,80.98420842100313,80.98420842100313,81.34437122300005,g,1.0,0.355834866000805,,81.34473619000346,81.350772237005,82.3405888030029,82.33796382300352,,,,,,,,,,,,,,,,,,,,sub-132,1,stroop_test,,
,,,,5.0,5.0,0.0,,,,,rot,yellow,g,0.0,g,1.0,1.1925691599972197,,,,,,,,,,,,,,0.0,5.0,5.0,3.0,,,,,82.3405888030029,,,,,,,,,,,,,,,,,82.33819719800522,82.44013331500173,83.2360505290053,83.22850813600235,,,,,,,,,,,,,,,,83.23185679000017,83.2360505290053,83.2360505290053,84.43853803600359,g,1.0,1.1925691599972197,,84.4389021560055,84.44404558500537,85.44022234500153,85.43767910000315,,,,,,,,,,,,,,,,,,,,sub-132,1,stroop_test,,
,,,,6.0,6.0,0.0,,,,,gelb,yellow,g,1.0,g,1.0,1.387862955001765,,,,,,,,,,,,,,0.0,6.0,6.0,11.0,,,,,85.44022234500153,,,,,,,,,,,,,,,,,85.43793242399988,86.63429162000102,87.42749167200236,87.4213909970058,,,,,,,,,,,,,,,,87.42353852100496,87.42749167200236,87.42749167200236,88.82186426599947,g,1.0,1.387862955001765,,88.82224054000108,88.8274357190021,89.82386620100442,89.82137625299947,,,,,,,,,,,,,,,,,,,,sub-132,1,stroop_test,,
,,,,7.0,7.0,0.0,,,,,blau,red,r,0.0,b,0.0,0.9178601140010868,,,,,,,,,,,,,,0.0,7.0,7.0,4.0,,,,,89.82386620100442,,,,,,,,,,,,,,,,,89.82160873999965,89.91779326300457,90.7107304520032,90.70462208700336,,,,,,,,,,,,,,,,90.7070072150018,90.7107304520032,90.7107304520032,91.63850391199958,b,0.0,0.9178601140010868,,91.64161373900424,91.646797969006,92.6399911960034,92.63750464600162,,,,,,,,,,,,,,,,,,,,sub-132,1,stroop_test,,
,,,,8.0,8.0,0.0,,,,,blau,blue,b,1.0,b,1.0,1.146241612004815,,,,,,,,,,,,,,0.0,8.0,8.0,5.0,,,,,92.6399911960034,,,,,,,,,,,,,,,,,92.6377478850045,93.8344065630008,94.62519375400008,94.62152220700229,,,,,,,,,,,,,,,,94.6218540300033,94.62519375400008,94.62519375400008,95.77301221500238,b,1.0,1.146241612004815,,95.77575896900088,95.78138951599976,96.77418519700586,96.77146618600092,,,,,,,,,,,,,,,,,,,,sub-132,1,stroop_test,,
,,,,9.0,9.0,0.0,,,,,rot,red,r,1.0,r,1.0,0.5700552130001597,,,,,,,,,,,,,,0.0,9.0,9.0,1.0,,,,,96.77418519700586,,,,,,,,,,,,,,,,,96.77170580700476,97.96777320800174,98.76122657600354,98.75486414300394,,,,,,,,,,,,,,,,98.75722432200564,98.76122657600354,98.76122657600354,99.33873543200023,r,1.0,0.5700552130001597,,99.33909464500177,99.34423667800002,100.34128500700172,100.33860159000324,,,,,,,,,,,,,,,,,,,,sub-132,1,stroop_test,,
,,,,10.0,10.0,0.0,,,,,rot,red,r,1.0,r,1.0,0.8855610880054883,,,,,,,,,,,,,,0.0,10.0,10.0,0.0,,,,,100.34128500700172,,,,,,,,,,,,,,,,,100.33884730600404,101.13446043200383,101.92484371799948,101.92123416899994,,,,,,,,,,,,,,,,101.92156810400049,101.92484371799948,101.92484371799948,102.821228411005,r,1.0,0.8855610880054883,,102.82158589600294,102.82659974600392,103.82434553500208,103.82157245100096,,,,,,,,,,,,,,,,,,,,sub-132,1,stroop_test,,
,,,,11.0,11.0,0.0,,,,,rot,blue,b,0.0,b,1.0,1.1306255790041178,,,,,,,,,,,,,,0.0,11.0,11.0,2.0,,,,,103.82434553500208,,,,,,,,,,,,,,,,,103.82181761000538,103.91773758100317,104.70879675500328,104.7050334240048,,,,,,,,,,,,,,,,104.70536004300084,104.70879675500328,104.70879675500328,105.844114299005,b,1.0,1.1306255790041178,,105.84447550900222,105.85094487000606,106.84057885800576,106.83788854500015,,,,,,,,,,,,,,,,,,,,sub-132,1,stroop_test,,
,,,,12.0,0.0,1.0,,,,,rot,red,r,1.0,r,1.0,0.6367023710045032,,,,,,,,,,,,,,1.0,0.0,12.0,0.0,,,,,106.84057885800576,,,,,,,,,,,,,,,,,106.83812025400402,107.6403250900039,108.4343404579995,108.4276821970052,,,,,,,,,,,,,,,,108.42801718000555,108.4343404579995,108.4343404579995,109.07255223399989,r,1.0,0.6367023710045032,,109.07293323600608,109.07805247400393,110.07426004700392,110.07149034499888,,,,,,,,,,,,,,,,,,,,sub-132,1,stroop_test,,
,,,,13.0,1.0,1.0,,,,,rot,red,r,1.0,r,1.0,0.8419981580009335,,,,,,,,,,,,,,1.0,1.0,13.0,1.0,,,,,110.07426004700392,,,,,,,,,,,,,,,,,110.07171764699888,111.26778039300552,112.05781820200356,112.054455108002,,,,,,,,,,,,,,,,112.05477700300251,112.05781820200356,112.05781820200356,112.90564561499924,r,1.0,0.8419981580009335,,112.90601333900122,112.91115858900594,113.9073901590018,113.90465436000522,,,,,,,,,,,,,,,,,,,,sub-132,1,stroop_test,,
,,,,14.0,2.0,1.0,,,,,gelb,blue,b,0.0,b,1.0,1.1514548229970387,,,,,,,,,,,,,,1.0,2.0,14.0,9.0,,,,,113.9073901590018,,,,,,,,,,,,,,,,,113.90489254000568,114.00114886300436,114.79427607099932,114.7882379490038,,,,,,,,,,,,,,,,114.79042216700329,114.79427607099932,114.79427607099932,115.9554337810041,b,1.0,1.1514548229970387,,115.95579405800528,115.96086098500382,116.95748919900508,116.95476020600472,,,,,,,,,,,,,,,,,,,,sub-132,1,stroop_test,,
,,,,15.0,3.0,1.0,,,,,blau,red,r,0.0,r,1.0,0.9590122349982266,,,,,,,,,,,,,,1.0,3.0,15.0,4.0,,,,,116.95748919900508,,,,,,,,,,,,,,,,,116.95500273400104,118.15115927599982,118.94436524600314,118.93823500299914,,,,,,,,,,,,,,,,118.9404665080001,118.94436524600314,118.94436524600314,119.90598546700494,r,1.0,0.9590122349982266,,119.9063562090014,119.91141086800052,120.90755080000235,120.90479761800088,,,,,,,,,,,,,,,,,,,,sub-132,1,stroop_test,,
,,,,16.0,4.0,1.0,,,,,gelb,yellow,g,1.0,g,1.0,1.0412267549982062,,,,,,,,,,,,,,1.0,4.0,16.0,10.0,,,,,120.90755080000235,,,,,,,,,,,,,,,,,120.90504288200464,121.00118429300346,121.79437527000118,121.78820329500012,,,,,,,,,,,,,,,,121.79038038600264,121.79437527000118,121.79437527000118,122.8392941580023,g,1.0,1.0412267549982062,,122.8396691529997,122.8448056230045,123.841050695999,123.8381096900048,,,,,,,,,,,,,,,,,,,,sub-132,1,stroop_test,,
,,,,17.0,5.0,1.0,,,,,gelb,yellow,g,1.0,g,1.0,0.6648933439937537,,,,,,,,,,,,,,1.0,5.0,17.0,11.0,,,,,123.841050695999,,,,,,,,,,,,,,,,,123.83834561900584,125.0346217059996,125.82567901100263,125.82191805000184,,,,,,,,,,,,,,,,125.82225858700258,125.82567901100263,125.82567901100263,126.49539702200128,g,1.0,0.6648933439937537,,126.49576343400258,126.5010958730054,127.49071763900427,127.48813920800605,,,,,,,,,,,,,,,,,,,,sub-132,1,stroop_test,,
,,,,18.0,6.0,1.0,,,,,rot,blue,b,0.0,b,1.0,0.6524663730015163,,,,,,,,,,,,,,1.0,6.0,18.0,2.0,,,,,127.49071763900427,,,,,,,,,,,,,,,,,127.48837600700062,127.59064323100029,128.38458289299888,128.37752583300608,,,,,,,,,,,,,,,,128.37992158700217,128.38458289299888,128.38458289299888,129.03928581700166,b,1.0,0.6524663730015163,,129.03966179100098,129.04473833900556,130.0407957770003,130.03814399600378,,,,,,,,,,,,,,,,,,,,sub-132,1,stroop_test,,
,,,,19.0,7.0,1.0,,,,,gelb,red,r,0.0,r,1.0,1.8765216899992083,,,,,,,,,,,,,,1.0,7.0,19.0,8.0,,,,,130.0407957770003,,,,,,,,,,,,,,,,,130.03837748800288,130.13471566400403,130.92780415400193,130.92188330900535,,,,,,,,,,,,,,,,130.92410712700075,130.92780415400193,130.92780415400193,132.80603291500302,r,1.0,1.8765216899992083,,132.80642526400334,132.811610691002,133.80709706900234,133.80448756999976,,,,,,,,,,,,,,,,,,,,sub-132,1,stroop_test,,
,,,,20.0,8.0,1.0,,,,,rot,yellow,g,0.0,g,1.0,1.0086806699982844,,,,,,,,,,,,,,1.0,8.0,20.0,3.0,,,,,133.80709706900234,,,,,,,,,,,,,,,,,133.80472354000085,134.15128795200144,134.9437739770001,134.9379934259996,,,,,,,,,,,,,,,,134.94009531600022,134.9437739770001,134.9437739770001,135.95586252400244,g,1.0,1.0086806699982844,,135.95623680100107,135.96134233700286,136.9575999190056,136.9549450850027,,,,,,,,,,,,,,,,,,,,sub-132,1,stroop_test,,
,,,,21.0,9.0,1.0,,,,,blau,yellow,g,0.0,g,1.0,1.037842997997359,,,,,,,,,,,,,,1.0,9.0,21.0,7.0,,,,,136.9575999190056,,,,,,,,,,,,,,,,,136.95518344000448,137.3012993700031,138.09468601499975,138.0883578560024,,,,,,,,,,,,,,,,138.09090916599962,138.09468601499975,138.09468601499975,139.13902753900038,g,1.0,1.037842997997359,,139.139400166001,139.1445478520036,140.14113163800357,140.13846327899955,,,,,,,,,,,,,,,,,,,,sub-132,1,stroop_test,,
,,,,22.0,10.0,1.0,,,,,blau,blue,b,1.0,b,1.0,1.311765316000674,,,,,,,,,,,,,,1.0,10.0,22.0,6.0,,,,,140.14113163800357,,,,,,,,,,,,,,,,,140.13869567499933,140.2347626740011,141.0250098969991,141.02151122299983,,,,,,,,,,,,,,,,141.0218366140034,141.0250098969991,141.0250098969991,142.33944265000173,b,1.0,1.311765316000674,,142.3398102650026,142.3448816010059,143.3417270420032,143.33894000000146,,,,,,,,,,,,,,,,,,,,sub-132,1,stroop_test,,
,,,,23.0,11.0,1.0,,,,,blau,blue,b,1.0,b,1.0,0.4275522669995553,,,,,,,,,,,,,,1.0,11.0,23.0,5.0,,,,,143.3417270420032,,,,,,,,,,,,,,,,,143.33918518300197,143.43473240900494,144.2258727820008,144.2220654690027,,,,,,,,,,,,,,,,144.22239134100528,144.2258727820008,144.2258727820008,144.65574669200578,b,1.0,0.4275522669995553,,144.65613484400092,144.6611673860025,145.65967313200235,145.65560325400293,,,,,,,,,,,,,,,,,,,,sub-132,1,stroop_test,,
,,,,,,,,,,,,,,,,,,,,,,,,,,,,,,,,,,,,,,,,,,,,,,,,,,,,,,,,,,,,,,,,,,,,,,,,,,,,,,,,,,,,,,,145.65570802600269,145.65967313200235,145.65967313200235,148.9952217980026,space,3.333989636004844,,,,,,,,,,,,,,sub-132,1,stroop_test,,
,,,,0.0,0.0,0.0,,,,,,,,,,,,,rot,red,r,1.0,r,1.0,0.5316868759982754,,,,,,,,,,0.0,0.0,0.0,1.0,149.0208044070023,,,,,,,,,,,,,,,,,149.00527698099904,150.19091666299937,150.9846154830011,150.97698757300532,,,,,,,,,,,,,,,,,,,,,,,,,,,,,,,,,,,150.97911317000398,150.9846154830011,150.9846154830011,151.52497153400327,r,1.0,0.5316868759982754,,,,,,sub-132,1,stroop_test,,
,,,,1.0,1.0,0.0,,,,,,,,,,,,,gelb,yellow,g,1.0,g,1.0,0.5731251089964644,,,,,,,,,,0.0,1.0,1.0,10.0,151.53433670999948,,,,,,,,,,,,,,,,,151.52526288700028,151.62352531000215,152.4180702320009,152.41104382300546,,,,,,,,,,,,,,,,,,,,,,,,,,,,,,,,,,,152.41317546700157,152.4180702320009,152.4180702320009,152.99555676700402,g,1.0,0.5731251089964644,,,,,,sub-132,1,stroop_test,,
,,,,2.0,2.0,0.0,,,,,,,,,,,,,rot,blue,b,0.0,b,1.0,0.5114930190029554,,,,,,,,,,0.0,2.0,2.0,2.0,153.00130998100212,,,,,,,,,,,,,,,,,152.99584907800454,153.09058427200216,153.88477465000324,153.8775633510013,,,,,,,,,,,,,,,,,,,,,,,,,,,,,,,,,,,153.879767025006,153.88477465000324,153.88477465000324,154.40573734700592,b,1.0,0.5114930190029554,,,,,,sub-132,1,stroop_test,,
,,,,3.0,3.0,0.0,,,,,,,,,,,,,blau,blue,b,1.0,b,1.0,0.4943759529996896,,,,,,,,,,0.0,3.0,3.0,6.0,154.41018403700582,,,,,,,,,,,,,,,,,154.40602303600463,155.20140223400085,155.99463488100446,155.98849804600468,,,,,,,,,,,,,,,,,,,,,,,,,,,,,,,,,,,155.9908500840029,155.99463488100446,155.99463488100446,156.49486867900123,b,1.0,0.4943759529996896,,,,,,sub-132,1,stroop_test,,
,,,,4.0,4.0,0.0,,,,,,,,,,,,,rot,yellow,g,0.0,g,1.0,0.4086899689937127,,,,,,,,,,0.0,4.0,4.0,3.0,156.50148814300337,,,,,,,,,,,,,,,,,156.49514810200344,157.6906184719992,158.484790429,158.47804498500045,,,,,,,,,,,,,,,,,,,,,,,,,,,,,,,,,,,158.4802076190026,158.484790429,158.484790429,158.8951972750001,g,1.0,0.4086899689937127,,,,,,sub-132,1,stroop_test,,
,,,,5.0,5.0,0.0,,,,,,,,,,,,,blau,red,r,0.0,r,1.0,0.5655316260017571,,,,,,,,,,0.0,5.0,5.0,4.0,158.90131859100077,,,,,,,,,,,,,,,,,158.89548313600244,158.99045946100523,159.78479907600558,159.77754801000265,,,,,,,,,,,,,,,,,,,,,,,,,,,,,,,,,,,159.77973065800325,159.78479907600558,159.78479907600558,160.35566027200548,r,1.0,0.5655316260017571,,,,,,sub-132,1,stroop_test,,
,,,,6.0,6.0,0.0,,,,,,,,,,,,,blau,yellow,g,0.0,g,1.0,0.733087863001856,,,,,,,,,,0.0,6.0,6.0,7.0,160.36010953700315,,,,,,,,,,,,,,,,,160.355942866001,161.15150105499924,161.94222997800534,161.93869946100313,,,,,,,,,,,,,,,,,,,,,,,,,,,,,,,,,,,161.93903463500465,161.94222997800534,161.94222997800534,162.6780622610022,g,1.0,0.733087863001856,,,,,,sub-132,1,stroop_test,,
,,,,7.0,7.0,0.0,,,,,,,,,,,,,gelb,blue,b,0.0,b,1.0,0.5850700709997909,,,,,,,,,,0.0,7.0,7.0,9.0,162.68466425200313,,,,,,,,,,,,,,,,,162.67834486599895,163.02464934599993,163.81811426000058,163.8104743139993,,,,,,,,,,,,,,,,,,,,,,,,,,,,,,,,,,,163.81265553000412,163.81811426000058,163.81811426000058,164.40598469199904,b,1.0,0.5850700709997909,,,,,,sub-132,1,stroop_test,,
,,,,8.0,8.0,0.0,,,,,,,,,,,,,gelb,yellow,g,1.0,g,1.0,0.5504247720018611,,,,,,,,,,0.0,8.0,8.0,11.0,164.41050344100222,,,,,,,,,,,,,,,,,164.4062712119994,164.50156495500414,165.2924052360031,165.2886935820061,,,,,,,,,,,,,,,,,,,,,,,,,,,,,,,,,,,165.28901846100052,165.2924052360031,165.2924052360031,165.84508765200007,g,1.0,0.5504247720018611,,,,,,sub-132,1,stroop_test,,
,,,,9.0,9.0,0.0,,,,,,,,,,,,,rot,red,r,1.0,r,1.0,0.5313912649944541,,,,,,,,,,0.0,9.0,9.0,0.0,165.85143556700496,,,,,,,,,,,,,,,,,165.8453688380032,165.94035856200207,166.7348818290047,166.72811424500105,,,,,,,,,,,,,,,,,,,,,,,,,,,,,,,,,,,166.73026283700165,166.7348818290047,166.7348818290047,167.27276799700485,r,1.0,0.5313912649944541,,,,,,sub-132,1,stroop_test,,
,,,,10.0,10.0,0.0,,,,,,,,,,,,,gelb,red,r,0.0,r,1.0,0.7715563259989722,,,,,,,,,,0.0,10.0,10.0,8.0,167.2771966319997,,,,,,,,,,,,,,,,,167.27305625300505,168.46818147800514,169.2609685360003,169.25495200400474,,,,,,,,,,,,,,,,,,,,,,,,,,,,,,,,,,,169.25708874200063,169.2609685360003,169.2609685360003,170.03931296600058,r,1.0,0.7715563259989722,,,,,,sub-132,1,stroop_test,,
,,,,11.0,11.0,0.0,,,,,,,,,,,,,blau,blue,b,1.0,b,1.0,0.3744678259972716,,,,,,,,,,0.0,11.0,11.0,5.0,170.04377155600378,,,,,,,,,,,,,,,,,170.03959755600226,170.83491408700502,171.62798564600234,171.6215719259999,,,,,,,,,,,,,,,,,,,,,,,,,,,,,,,,,,,171.62394538600347,171.62798564600234,171.62798564600234,172.00590658400324,b,1.0,0.3744678259972716,,,,,,sub-132,1,stroop_test,,
,,,,12.0,0.0,1.0,,,,,,,,,,,,,blau,yellow,g,0.0,g,1.0,0.4234536010044394,,,,,,,,,,1.0,0.0,12.0,7.0,172.01040393800213,,,,,,,,,,,,,,,,,172.00619045799976,172.35156897500565,173.14264651600388,173.13873849000083,,,,,,,,,,,,,,,,,,,,,,,,,,,,,,,,,,,173.13907134600595,173.14264651600388,173.14264651600388,173.57251299999916,g,1.0,0.4234536010044394,,,,,,sub-132,1,stroop_test,,
,,,,13.0,1.0,1.0,,,,,,,,,,,,,gelb,yellow,g,1.0,g,1.0,0.5184383830055594,,,,,,,,,,1.0,1.0,13.0,10.0,173.576876911,,,,,,,,,,,,,,,,,173.57279126000503,174.36812325500068,175.16132733799896,175.15523160900193,,,,,,,,,,,,,,,,,,,,,,,,,,,,,,,,,,,175.1573691550002,175.16132733799896,175.16132733799896,175.68933856399963,g,1.0,0.5184383830055594,,,,,,sub-132,1,stroop_test,,
,,,,14.0,2.0,1.0,,,,,,,,,,,,,rot,yellow,g,0.0,g,1.0,0.4148334790006629,,,,,,,,,,1.0,2.0,14.0,3.0,175.69378888800566,,,,,,,,,,,,,,,,,175.68962763300078,176.8852130400046,177.67786586100556,177.67158068900608,,,,,,,,,,,,,,,,,,,,,,,,,,,,,,,,,,,177.67393496799923,177.67786586100556,177.67786586100556,178.09604200900503,g,1.0,0.4148334790006629,,,,,,sub-132,1,stroop_test,,
,,,,15.0,3.0,1.0,,,,,,,,,,,,,rot,red,r,1.0,r,1.0,0.6283443509964854,,,,,,,,,,1.0,3.0,15.0,0.0,178.1014910080048,,,,,,,,,,,,,,,,,178.09632179300388,178.4408209989997,179.23501504700107,179.2277211469991,,,,,,,,,,,,,,,,,,,,,,,,,,,,,,,,,,,179.22804924400407,179.23501504700107,179.23501504700107,179.8724904280025,r,1.0,0.6283443509964854,,,,,,sub-132,1,stroop_test,,
,,,,16.0,4.0,1.0,,,,,,,,,,,,,blau,blue,b,1.0,b,1.0,0.5540505640019546,,,,,,,,,,1.0,4.0,16.0,6.0,179.8769445930011,,,,,,,,,,,,,,,,,179.87277842100593,181.06830308600183,181.8681536639997,181.8570005110014,,,,,,,,,,,,,,,,,,,,,,,,,,,,,,,,,,,181.8591506369994,181.8681536639997,181.8681536639997,182.42910905399916,b,1.0,0.5540505640019546,,,,,,sub-132,1,stroop_test,,
,,,,17.0,5.0,1.0,,,,,,,,,,,,,rot,blue,b,0.0,b,1.0,0.5434918300015852,,,,,,,,,,1.0,5.0,17.0,2.0,182.4348644250058,,,,,,,,,,,,,,,,,182.42938762799892,182.7741903269998,183.568318124002,183.5610916690057,,,,,,,,,,,,,,,,,,,,,,,,,,,,,,,,,,,183.56319403200175,183.568318124002,183.568318124002,184.1228287580016,b,1.0,0.5434918300015852,,,,,,sub-132,1,stroop_test,,
,,,,18.0,6.0,1.0,,,,,,,,,,,,,gelb,yellow,g,1.0,g,1.0,0.3611600369986263,,,,,,,,,,1.0,6.0,18.0,11.0,184.12746742700256,,,,,,,,,,,,,,,,,184.12310880899892,184.91844786,185.7111730360048,185.7053067529996,,,,,,,,,,,,,,,,,,,,,,,,,,,,,,,,,,,185.70747476199904,185.7111730360048,185.7111730360048,186.0792935749996,g,1.0,0.3611600369986263,,,,,,sub-132,1,stroop_test,,
,,,,19.0,7.0,1.0,,,,,,,,,,,,,gelb,blue,b,0.0,b,1.0,0.4479909549991134,,,,,,,,,,1.0,7.0,19.0,9.0,186.0848908400003,,,,,,,,,,,,,,,,,186.0795759649991,186.87416733099963,187.66844809699975,187.6610106920052,,,,,,,,,,,,,,,,,,,,,,,,,,,,,,,,,,,187.6613220840009,187.66844809699975,187.66844809699975,188.12278624100145,b,1.0,0.4479909549991134,,,,,,sub-132,1,stroop_test,,
,,,,20.0,8.0,1.0,,,,,,,,,,,,,blau,blue,b,1.0,b,1.0,0.4607835880015045,,,,,,,,,,1.0,8.0,20.0,5.0,188.127281359004,,,,,,,,,,,,,,,,,188.12307863100432,188.2183568680048,189.01162064100208,189.00553624600437,,,,,,,,,,,,,,,,,,,,,,,,,,,,,,,,,,,189.00773471200228,189.01162064100208,189.01162064100208,189.47850651200133,b,1.0,0.4607835880015045,,,,,,sub-132,1,stroop_test,,
,,,,21.0,9.0,1.0,,,,,,,,,,,,,blau,red,r,0.0,r,1.0,0.5688978600010159,,,,,,,,,,1.0,9.0,21.0,4.0,189.48485343599896,,,,,,,,,,,,,,,,,189.47878978600056,189.57379492000476,190.3683603180034,190.36128439900492,,,,,,,,,,,,,,,,,,,,,,,,,,,,,,,,,,,190.36160935400403,190.3683603180034,190.3683603180034,190.93972230700456,r,1.0,0.5688978600010159,,,,,,sub-132,1,stroop_test,,
,,,,22.0,10.0,1.0,,,,,,,,,,,,,rot,red,r,1.0,r,1.0,0.5258251620034571,,,,,,,,,,1.0,10.0,22.0,1.0,190.9441781860005,,,,,,,,,,,,,,,,,190.94000623000463,191.2850252999997,192.07781863400305,192.07184917000268,,,,,,,,,,,,,,,,,,,,,,,,,,,,,,,,,,,192.07408278200452,192.07781863400305,192.07781863400305,192.6062612800015,r,1.0,0.5258251620034571,,,,,,sub-132,1,stroop_test,,
,,,,23.0,11.0,1.0,,,,,,,,,,,,,gelb,red,r,0.0,r,1.0,0.600716166998609,,,,,,,,,,1.0,11.0,23.0,8.0,192.61070545700204,,,,,,,,,,,,,,,,,192.6065425340057,192.951761852004,193.7456187580028,193.73943531799887,,,,,,,,,,,,,,,,,,,,,,,,,,,,,,,,,,,193.74169048800104,193.7456187580028,193.7456187580028,194.35591239800124,r,1.0,0.600716166998609,,,,,,sub-132,1,stroop_test,,
,,,,24.0,0.0,2.0,,,,,,,,,,,,,rot,yellow,g,0.0,g,1.0,0.6032173990024603,,,,,,,,,,2.0,0.0,24.0,3.0,194.3604860679989,,,,,,,,,,,,,,,,,194.35619265000423,194.4515512569997,195.2444903850046,195.2384887570006,,,,,,,,,,,,,,,,,,,,,,,,,,,,,,,,,,,195.24060355600523,195.2444903850046,195.2444903850046,195.8563182860016,g,1.0,0.6032173990024603,,,,,,sub-132,1,stroop_test,,
,,,,25.0,1.0,2.0,,,,,,,,,,,,,gelb,yellow,g,1.0,g,1.0,0.5421065020054812,,,,,,,,,,2.0,1.0,25.0,10.0,195.86082253500356,,,,,,,,,,,,,,,,,195.85660020800424,196.6517458990056,197.4447594400044,197.4387893029998,,,,,,,,,,,,,,,,,,,,,,,,,,,,,,,,,,,197.44098235000277,197.4447594400044,197.4447594400044,197.9896558190012,g,1.0,0.5421065020054812,,,,,,sub-132,1,stroop_test,,
,,,,26.0,2.0,2.0,,,,,,,,,,,,,gelb,red,r,0.0,r,1.0,1.1968232630024431,,,,,,,,,,2.0,2.0,26.0,8.0,197.9941448220052,,,,,,,,,,,,,,,,,197.98993604200223,198.33506798300368,199.12570205700467,199.12197485400247,,,,,,,,,,,,,,,,,,,,,,,,,,,,,,,,,,,199.12230855000237,199.12570205700467,199.12570205700467,200.3280616320044,r,1.0,1.1968232630024431,,,,,,sub-132,1,stroop_test,,
,,,,27.0,3.0,2.0,,,,,,,,,,,,,blau,yellow,g,0.0,g,1.0,1.3094809770045686,,,,,,,,,,2.0,3.0,27.0,7.0,200.33499875700363,,,,,,,,,,,,,,,,,200.32834977600575,201.1244436870038,201.91833976800265,201.91093418300443,,,,,,,,,,,,,,,,,,,,,,,,,,,,,,,,,,,201.91306587100556,201.91833976800265,201.91833976800265,203.2387255540016,g,1.0,1.3094809770045686,,,,,,sub-132,1,stroop_test,,
,,,,28.0,4.0,2.0,,,,,,,,,,,,,gelb,blue,b,0.0,b,1.0,0.7352806190028787,,,,,,,,,,2.0,4.0,28.0,9.0,203.24341683700183,,,,,,,,,,,,,,,,,203.23901371800457,203.58518318200368,204.37816409200605,204.37210374600545,,,,,,,,,,,,,,,,,,,,,,,,,,,,,,,,,,,204.374288772,204.37816409200605,204.37816409200605,205.12272085500445,b,1.0,0.7352806190028787,,,,,,sub-132,1,stroop_test,,
,,,,29.0,5.0,2.0,,,,,,,,,,,,,blau,red,r,0.0,r,1.0,0.675150394999946,,,,,,,,,,2.0,5.0,29.0,4.0,205.12710390300344,,,,,,,,,,,,,,,,,205.123002543005,205.2182968100024,206.01200005099963,206.00596894200132,,,,,,,,,,,,,,,,,,,,,,,,,,,,,,,,,,,206.0081866219989,206.01200005099963,206.01200005099963,206.6899535640041,r,1.0,0.675150394999946,,,,,,sub-132,1,stroop_test,,
,,,,30.0,6.0,2.0,,,,,,,,,,,,,blau,blue,b,1.0,b,1.0,0.3940135079974425,,,,,,,,,,2.0,6.0,30.0,6.0,206.6945055300021,,,,,,,,,,,,,,,,,206.69024540900136,207.88518339700383,208.675892461004,208.67208166800265,,,,,,,,,,,,,,,,,,,,,,,,,,,,,,,,,,,208.67240029000092,208.675892461004,208.675892461004,209.0730740510044,b,1.0,0.3940135079974425,,,,,,sub-132,1,stroop_test,,
,,,,31.0,7.0,2.0,,,,,,,,,,,,,blau,blue,b,1.0,b,1.0,1.0081067370047094,,,,,,,,,,2.0,7.0,31.0,5.0,209.07753384000532,,,,,,,,,,,,,,,,,209.0733564350012,209.8685234450022,210.65954477700143,210.65599369700067,,,,,,,,,,,,,,,,,,,,,,,,,,,,,,,,,,,210.65632713900413,210.65954477700143,210.65954477700143,211.67294517299888,b,1.0,1.0081067370047094,,,,,,sub-132,1,stroop_test,,
,,,,32.0,8.0,2.0,,,,,,,,,,,,,rot,red,r,1.0,r,1.0,0.9329068239967456,,,,,,,,,,2.0,8.0,32.0,1.0,211.67737558800584,,,,,,,,,,,,,,,,,211.673239112999,212.46864698300487,213.26138486700077,213.2553870730044,,,,,,,,,,,,,,,,,,,,,,,,,,,,,,,,,,,213.2574841250025,213.26138486700077,213.26138486700077,214.1960225130024,r,1.0,0.9329068239967456,,,,,,sub-132,1,stroop_test,,
,,,,33.0,9.0,2.0,,,,,,,,,,,,,gelb,yellow,g,1.0,g,1.0,0.7948741920044995,,,,,,,,,,2.0,9.0,33.0,11.0,214.2017506830016,,,,,,,,,,,,,,,,,214.19630495500317,214.29069591100412,215.0851346970012,215.07769854700015,,,,,,,,,,,,,,,,,,,,,,,,,,,,,,,,,,,215.07988181700057,215.0851346970012,215.0851346970012,215.8894891750024,g,1.0,0.7948741920044995,,,,,,sub-132,1,stroop_test,,
,,,,34.0,10.0,2.0,,,,,,,,,,,,,rot,blue,b,0.0,b,1.0,3.0283157649973877,,,,,,,,,,2.0,10.0,34.0,2.0,215.89396006600143,,,,,,,,,,,,,,,,,215.88976479400296,215.98506984200503,216.7780803720016,216.77202880500408,,,,,,,,,,,,,,,,,,,,,,,,,,,,,,,,,,,216.77416595500108,216.7780803720016,216.7780803720016,219.81163874400227,b,1.0,3.0283157649973877,,,,,,sub-132,1,stroop_test,,
,,,,35.0,11.0,2.0,,,,,,,,,,,,,rot,red,r,1.0,r,1.0,0.6383236270048656,,,,,,,,,,2.0,11.0,35.0,0.0,219.8185404010001,,,,,,,,,,,,,,,,,219.8119162869989,220.60801286100468,221.4018944000054,221.394855863,,,,,,,,,,,,,,,,,,,,,,,,,,,,,,,,,,,221.39518440000396,221.4018944000054,221.4018944000054,222.0450225540044,r,1.0,0.6383236270048656,,,,,,sub-132,1,stroop_test,,
,,,,36.0,0.0,3.0,,,,,,,,,,,,,blau,red,r,0.0,r,1.0,1.1106436740010397,,,,,,,,,,3.0,0.0,36.0,4.0,222.0517574510013,,,,,,,,,,,,,,,,,222.04530184800387,223.240971195999,224.03526897700067,224.02781395400237,,,,,,,,,,,,,,,,,,,,,,,,,,,,,,,,,,,224.029986379006,224.03526897700067,224.03526897700067,225.1562449539997,r,1.0,1.1106436740010397,,,,,,sub-132,1,stroop_test,,
,,,,37.0,1.0,3.0,,,,,,,,,,,,,rot,yellow,g,0.0,g,1.0,0.650838677000138,,,,,,,,,,3.0,1.0,37.0,3.0,225.16071412800372,,,,,,,,,,,,,,,,,225.15652372399927,225.9520588550004,226.7447079900012,226.7387373050005,,,,,,,,,,,,,,,,,,,,,,,,,,,,,,,,,,,226.74083718500333,226.7447079900012,226.7447079900012,227.40570644500255,g,1.0,0.650838677000138,,,,,,sub-132,1,stroop_test,,
,,,,38.0,2.0,3.0,,,,,,,,,,,,,gelb,red,r,0.0,r,1.0,0.4972931619995506,,,,,,,,,,3.0,2.0,38.0,8.0,227.41013802600355,,,,,,,,,,,,,,,,,227.40597984000487,227.75204560400016,228.54488356799996,228.53881342200475,,,,,,,,,,,,,,,,,,,,,,,,,,,,,,,,,,,228.5410003490033,228.54488356799996,228.54488356799996,229.0456419090042,r,1.0,0.4972931619995506,,,,,,sub-132,1,stroop_test,,
,,,,39.0,3.0,3.0,,,,,,,,,,,,,rot,blue,b,0.0,b,1.0,0.4750546049981494,,,,,,,,,,3.0,3.0,39.0,2.0,229.05185770900425,,,,,,,,,,,,,,,,,229.0459190890033,229.14085189199977,229.9353045390017,229.9280000660001,,,,,,,,,,,,,,,,,,,,,,,,,,,,,,,,,,,229.9301576770013,229.9353045390017,229.9353045390017,230.41243298500197,b,1.0,0.4750546049981494,,,,,,sub-132,1,stroop_test,,
,,,,40.0,4.0,3.0,,,,,,,,,,,,,gelb,yellow,g,1.0,g,1.0,0.5078153669965104,,,,,,,,,,3.0,4.0,40.0,10.0,230.41850228000112,,,,,,,,,,,,,,,,,230.41271613400025,231.60802493200023,232.40185048900457,232.3942029280006,,,,,,,,,,,,,,,,,,,,,,,,,,,,,,,,,,,232.3964276780025,232.40185048900457,232.40185048900457,232.9125628700058,g,1.0,0.5078153669965104,,,,,,sub-132,1,stroop_test,,
,,,,41.0,5.0,3.0,,,,,,,,,,,,,rot,red,r,1.0,r,1.0,0.5556019770010607,,,,,,,,,,3.0,5.0,41.0,0.0,232.91858479600344,,,,,,,,,,,,,,,,,232.91283953500533,233.25787682200465,234.0520210340037,234.04497235500455,,,,,,,,,,,,,,,,,,,,,,,,,,,,,,,,,,,234.04734213500345,234.0520210340037,234.0520210340037,234.6123584310044,r,1.0,0.5556019770010607,,,,,,sub-132,1,stroop_test,,
,,,,42.0,6.0,3.0,,,,,,,,,,,,,gelb,yellow,g,1.0,g,1.0,0.6812129629979609,,,,,,,,,,3.0,6.0,42.0,11.0,234.6186655710044,,,,,,,,,,,,,,,,,234.61263385000348,235.80840681900008,236.60200114400504,236.59479515300336,,,,,,,,,,,,,,,,,,,,,,,,,,,,,,,,,,,236.5969490780044,236.60200114400504,236.60200114400504,237.28964556199932,g,1.0,0.6812129629979609,,,,,,sub-132,1,stroop_test,,
,,,,43.0,7.0,3.0,,,,,,,,,,,,,blau,blue,b,1.0,b,1.0,0.6448442260007141,,,,,,,,,,3.0,7.0,43.0,5.0,237.29408519400025,,,,,,,,,,,,,,,,,237.28992811000356,237.3852539610016,238.1783202890001,238.1724931860008,,,,,,,,,,,,,,,,,,,,,,,,,,,,,,,,,,,238.17462399000212,238.1783202890001,238.1783202890001,238.82918085800335,b,1.0,0.6448442260007141,,,,,,sub-132,1,stroop_test,,
,,,,44.0,8.0,3.0,,,,,,,,,,,,,rot,red,r,1.0,r,1.0,0.5420810419964255,,,,,,,,,,3.0,8.0,44.0,1.0,238.83529348400043,,,,,,,,,,,,,,,,,238.82945856800507,239.62481605900396,240.41859552499955,240.41122443600037,,,,,,,,,,,,,,,,,,,,,,,,,,,,,,,,,,,240.4133137460012,240.41859552499955,240.41859552499955,240.9629173140056,r,1.0,0.5420810419964255,,,,,,sub-132,1,stroop_test,,
,,,,45.0,9.0,3.0,,,,,,,,,,,,,blau,yellow,g,0.0,g,1.0,1.5090398719985387,,,,,,,,,,3.0,9.0,45.0,7.0,240.9686072800032,,,,,,,,,,,,,,,,,240.9631950910043,241.05746285900383,241.8519324310037,241.84508256100528,,,,,,,,,,,,,,,,,,,,,,,,,,,,,,,,,,,241.84725313200036,241.8519324310037,241.8519324310037,243.3625025270012,g,1.0,1.5090398719985387,,,,,,sub-132,1,stroop_test,,
,,,,46.0,10.0,3.0,,,,,,,,,,,,,blau,blue,b,1.0,b,1.0,0.6990896350034745,,,,,,,,,,3.0,10.0,46.0,6.0,243.36864468400017,,,,,,,,,,,,,,,,,243.36278526100068,244.1581942680059,244.95209061800412,244.9452476229999,,,,,,,,,,,,,,,,,,,,,,,,,,,,,,,,,,,244.9455649970041,244.95209061800412,244.95209061800412,245.65626175200305,b,1.0,0.6990896350034745,,,,,,sub-132,1,stroop_test,,
,,,,47.0,11.0,3.0,,,,,,,,,,,,,gelb,blue,b,0.0,b,1.0,1.4138450370010105,,,,,,,,,,3.0,11.0,47.0,9.0,245.66070334300457,,,,,,,,,,,,,,,,,245.6565402310007,245.75196326900183,246.5455201720033,246.53939198800072,,,,,,,,,,,,,,,,,,,,,,,,,,,,,,,,,,,246.54165544300488,246.5455201720033,246.5455201720033,247.96276168199984,b,1.0,1.4138450370010105,,,,,,sub-132,1,stroop_test,,
,,,,48.0,0.0,4.0,,,,,,,,,,,,,gelb,yellow,g,1.0,g,1.0,0.6588820600009058,,,,,,,,,,4.0,0.0,48.0,11.0,247.9686392310032,,,,,,,,,,,,,,,,,247.96304734400476,248.7581169920013,249.55209312700023,249.54562443900068,,,,,,,,,,,,,,,,,,,,,,,,,,,,,,,,,,,249.54595172900008,249.55209312700023,249.55209312700023,250.2226626470001,g,1.0,0.6588820600009058,,,,,,sub-132,1,stroop_test,,
,,,,49.0,1.0,4.0,,,,,,,,,,,,,rot,yellow,g,0.0,g,1.0,0.8585327760010841,,,,,,,,,,4.0,1.0,49.0,3.0,250.2271112810049,,,,,,,,,,,,,,,,,250.2229425370024,251.4188713920012,252.21151127399932,252.2056952990024,,,,,,,,,,,,,,,,,,,,,,,,,,,,,,,,,,,252.20780831000596,252.21151127399932,252.21151127399932,253.07374148400413,g,1.0,0.8585327760010841,,,,,,sub-132,1,stroop_test,,
,,,,50.0,2.0,4.0,,,,,,,,,,,,,rot,red,r,1.0,r,1.0,0.801105901999108,,,,,,,,,,4.0,2.0,50.0,0.0,253.078170286004,,,,,,,,,,,,,,,,,253.07402091300173,253.1687251110052,253.96028988699985,253.9565684610061,,,,,,,,,,,,,,,,,,,,,,,,,,,,,,,,,,,253.95692950100056,253.96028988699985,253.96028988699985,254.7628845120053,r,1.0,0.801105901999108,,,,,,sub-132,1,stroop_test,,
,,,,51.0,3.0,4.0,,,,,,,,,,,,,rot,blue,b,0.0,b,1.0,0.8472795960042276,,,,,,,,,,4.0,3.0,51.0,2.0,254.76874556400435,,,,,,,,,,,,,,,,,254.7631665299996,254.85780852100288,255.6520358320049,255.64460086500185,,,,,,,,,,,,,,,,,,,,,,,,,,,,,,,,,,,255.644920302002,255.6520358320049,255.6520358320049,256.50656162100495,b,1.0,0.8472795960042276,,,,,,sub-132,1,stroop_test,,
,,,,52.0,4.0,4.0,,,,,,,,,,,,,gelb,yellow,g,1.0,g,1.0,1.0526467860036064,,,,,,,,,,4.0,4.0,52.0,10.0,256.51101622699935,,,,,,,,,,,,,,,,,256.5068457830057,256.8521600680033,257.6454946350059,257.6393358050045,,,,,,,,,,,,,,,,,,,,,,,,,,,,,,,,,,,257.64159952100454,257.6454946350059,257.6454946350059,258.70627070000046,g,1.0,1.0526467860036064,,,,,,sub-132,1,stroop_test,,
,,,,53.0,5.0,4.0,,,,,,,,,,,,,rot,red,r,1.0,r,1.0,0.6595159650023561,,,,,,,,,,4.0,5.0,53.0,1.0,258.71065626700147,,,,,,,,,,,,,,,,,258.7065501590041,259.50220338800136,260.2954050000044,260.289409351004,,,,,,,,,,,,,,,,,,,,,,,,,,,,,,,,,,,260.2915575950028,260.2954050000044,260.2954050000044,260.9564405410056,r,1.0,0.6595159650023561,,,,,,sub-132,1,stroop_test,,
,,,,54.0,6.0,4.0,,,,,,,,,,,,,blau,yellow,g,0.0,g,1.0,1.4101827499980573,,,,,,,,,,4.0,6.0,54.0,7.0,260.96095374400466,,,,,,,,,,,,,,,,,260.95672023000225,261.7522499580009,262.5449737720046,262.5389267070059,,,,,,,,,,,,,,,,,,,,,,,,,,,,,,,,,,,262.54107850100263,262.5449737720046,262.5449737720046,263.95700045800186,g,1.0,1.4101827499980573,,,,,,sub-132,1,stroop_test,,
,,,,55.0,7.0,4.0,,,,,,,,,,,,,blau,blue,b,1.0,b,1.0,0.5325338820039178,,,,,,,,,,4.0,7.0,55.0,5.0,263.96151996400295,,,,,,,,,,,,,,,,,263.9573004990016,264.0520648759993,264.8429077750043,264.8392731700005,,,,,,,,,,,,,,,,,,,,,,,,,,,,,,,,,,,264.8395927080055,264.8429077750043,264.8429077750043,265.3797464189993,b,1.0,0.5325338820039178,,,,,,sub-132,1,stroop_test,,
,,,,56.0,8.0,4.0,,,,,,,,,,,,,blau,blue,b,1.0,b,1.0,1.082200937999005,,,,,,,,,,4.0,8.0,56.0,6.0,265.38546275400586,,,,,,,,,,,,,,,,,265.3800260450007,265.47420666900143,266.2689249850009,266.2620232670015,,,,,,,,,,,,,,,,,,,,,,,,,,,,,,,,,,,266.262363722999,266.2689249850009,266.2689249850009,267.35648149700137,b,1.0,1.082200937999005,,,,,,sub-132,1,stroop_test,,
,,,,57.0,9.0,4.0,,,,,,,,,,,,,gelb,red,r,0.0,r,1.0,0.5876049950020388,,,,,,,,,,4.0,9.0,57.0,8.0,267.360946851004,,,,,,,,,,,,,,,,,267.3567571349995,267.70225929700246,268.49538865300565,268.489305177005,,,,,,,,,,,,,,,,,,,,,,,,,,,,,,,,,,,268.4914926890051,268.49538865300565,268.49538865300565,269.0902559650058,r,1.0,0.5876049950020388,,,,,,sub-132,1,stroop_test,,
,,,,58.0,10.0,4.0,,,,,,,,,,,,,gelb,blue,b,0.0,b,1.0,1.1342636219997075,,,,,,,,,,4.0,10.0,58.0,9.0,269.0947158650015,,,,,,,,,,,,,,,,,269.0905304090047,269.4355542850026,270.2269658570003,270.22291284600215,,,,,,,,,,,,,,,,,,,,,,,,,,,,,,,,,,,270.2232866970008,270.2269658570003,270.2269658570003,271.3725427400059,b,1.0,1.1342636219997075,,,,,,sub-132,1,stroop_test,,
,,,,59.0,11.0,4.0,,,,,,,,,,,,,blau,red,r,0.0,r,1.0,0.693315614000312,,,,,,,,,,4.0,11.0,59.0,4.0,271.37702131900005,,,,,,,,,,,,,,,,,271.37283013300475,271.71892543000286,272.51261423300457,272.50600544800545,,,,,,,,,,,,,,,,,,,,,,,,,,,,,,,,,,,272.50857027100574,272.51261423300457,272.51261423300457,273.20745538100164,r,1.0,0.693315614000312,,,,,,sub-132,1,stroop_test,,
,,,,60.0,0.0,5.0,,,,,,,,,,,,,blau,red,r,0.0,r,1.0,1.089392208996287,,,,,,,,,,5.0,0.0,60.0,4.0,273.2119131460058,,,,,,,,,,,,,,,,,273.2077336690054,273.5523212379994,274.3433794070006,274.3395904839999,,,,,,,,,,,,,,,,,,,,,,,,,,,,,,,,,,,274.3399289650042,274.3433794070006,274.3433794070006,275.43995213200105,r,1.0,1.089392208996287,,,,,,sub-132,1,stroop_test,,
,,,,61.0,1.0,5.0,,,,,,,,,,,,,rot,red,r,1.0,r,1.0,0.551739301001362,,,,,,,,,,5.0,1.0,61.0,1.0,275.44445386400184,,,,,,,,,,,,,,,,,275.4402300130023,276.63563038300344,277.42850707899925,277.42248741700314,,,,,,,,,,,,,,,,,,,,,,,,,,,,,,,,,,,277.4246078080032,277.42850707899925,277.42850707899925,277.9903574780037,r,1.0,0.551739301001362,,,,,,sub-132,1,stroop_test,,
,,,,62.0,2.0,5.0,,,,,,,,,,,,,gelb,blue,b,0.0,b,1.0,1.0648950379982125,,,,,,,,,,5.0,2.0,62.0,9.0,277.9948102780036,,,,,,,,,,,,,,,,,277.99063419000595,279.1857011300017,279.9794527949998,279.9731294490048,,,,,,,,,,,,,,,,,,,,,,,,,,,,,,,,,,,279.9756504670004,279.9794527949998,279.9794527949998,281.0467879930002,b,1.0,1.0648950379982125,,,,,,sub-132,1,stroop_test,,
,,,,63.0,3.0,5.0,,,,,,,,,,,,,rot,red,r,1.0,r,1.0,0.506070894000004,,,,,,,,,,5.0,3.0,63.0,0.0,281.0522113690022,,,,,,,,,,,,,,,,,281.04706547599926,281.8417200490003,282.6355857520029,282.6280893860021,,,,,,,,,,,,,,,,,,,,,,,,,,,,,,,,,,,282.6302881070005,282.6355857520029,282.6355857520029,283.145679264002,r,1.0,0.506070894000004,,,,,,sub-132,1,stroop_test,,
,,,,64.0,4.0,5.0,,,,,,,,,,,,,rot,yellow,g,0.0,g,1.0,0.4648626479975064,,,,,,,,,,5.0,4.0,64.0,3.0,283.15220644900546,,,,,,,,,,,,,,,,,283.14595300300425,283.94163498499984,284.73570102899976,284.7286707370004,,,,,,,,,,,,,,,,,,,,,,,,,,,,,,,,,,,284.7289929930048,284.73570102899976,284.73570102899976,285.20661535199906,g,1.0,0.4648626479975064,,,,,,sub-132,1,stroop_test,,
,,,,65.0,5.0,5.0,,,,,,,,,,,,,blau,blue,b,1.0,b,1.0,0.5446778749974328,,,,,,,,,,5.0,5.0,65.0,5.0,285.211100559005,,,,,,,,,,,,,,,,,285.20689680299984,285.3022787400041,286.09545267400244,286.0894965750049,,,,,,,,,,,,,,,,,,,,,,,,,,,,,,,,,,,286.0916771410048,286.09545267400244,286.09545267400244,286.6459108240015,b,1.0,0.5446778749974328,,,,,,sub-132,1,stroop_test,,
,,,,66.0,6.0,5.0,,,,,,,,,,,,,gelb,yellow,g,1.0,g,1.0,0.6348611520006671,,,,,,,,,,5.0,6.0,66.0,11.0,286.65233146700484,,,,,,,,,,,,,,,,,286.6461833040012,287.8422390320047,288.6357593520006,288.6282927830034,,,,,,,,,,,,,,,,,,,,,,,,,,,,,,,,,,,288.63049510100245,288.6357593520006,288.6357593520006,289.2736985810043,g,1.0,0.6348611520006671,,,,,,sub-132,1,stroop_test,,
,,,,67.0,7.0,5.0,,,,,,,,,,,,,rot,blue,b,0.0,b,1.0,0.696154112003569,,,,,,,,,,5.0,7.0,67.0,2.0,289.2781804250044,,,,,,,,,,,,,,,,,289.27398283799994,290.46906668400334,291.2622640310001,291.25611060300434,,,,,,,,,,,,,,,,,,,,,,,,,,,,,,,,,,,291.2584477670025,291.2622640310001,291.2622640310001,291.96239397300087,b,1.0,0.696154112003569,,,,,,sub-132,1,stroop_test,,
,,,,68.0,8.0,5.0,,,,,,,,,,,,,gelb,yellow,g,1.0,g,1.0,0.4685477919992991,,,,,,,,,,5.0,8.0,68.0,10.0,291.968992741,,,,,,,,,,,,,,,,,291.9626741710017,293.1654637600004,293.9625758730035,293.9564535810059,,,,,,,,,,,,,,,,,,,,,,,,,,,,,,,,,,,293.9586672170044,293.9625758730035,293.9625758730035,294.43994046000444,g,1.0,0.4685477919992991,,,,,,sub-132,1,stroop_test,,
,,,,69.0,9.0,5.0,,,,,,,,,,,,,blau,blue,b,1.0,b,1.0,0.5581492710043676,,,,,,,,,,5.0,9.0,69.0,6.0,294.44436517000577,,,,,,,,,,,,,,,,,294.4402210010012,294.53564319200086,295.328580829002,295.32263455499924,,,,,,,,,,,,,,,,,,,,,,,,,,,,,,,,,,,295.32483378200413,295.328580829002,295.328580829002,295.89007592700364,b,1.0,0.5581492710043676,,,,,,sub-132,1,stroop_test,,
,,,,70.0,10.0,5.0,,,,,,,,,,,,,blau,yellow,g,0.0,g,1.0,0.5960961529999622,,,,,,,,,,5.0,10.0,70.0,7.0,295.89446204800333,,,,,,,,,,,,,,,,,295.89035085400246,296.68582727000467,297.47634936599934,297.47286673000053,,,,,,,,,,,,,,,,,,,,,,,,,,,,,,,,,,,297.4732054250053,297.47634936599934,297.47634936599934,298.0741146250002,g,1.0,0.5960961529999622,,,,,,sub-132,1,stroop_test,,
,,,,71.0,11.0,5.0,,,,,,,,,,,,,gelb,red,r,0.0,r,1.0,0.5595773680033744,,,,,,,,,,5.0,11.0,71.0,8.0,298.07867149900267,,,,,,,,,,,,,,,,,298.07441819499945,298.86919046900584,299.6623082139995,299.65625611300493,,,,,,,,,,,,,,,,,,,,,,,,,,,,,,,,,,,299.6584000860021,299.6623082139995,299.6623082139995,300.2238002830054,r,1.0,0.5595773680033744,,,,,,sub-132,1,stroop_test,,
,,,,72.0,0.0,6.0,,,,,,,,,,,,,gelb,yellow,g,1.0,g,1.0,0.558415605002665,,,,,,,,,,6.0,0.0,72.0,10.0,300.22830991900264,,,,,,,,,,,,,,,,,300.2240844859989,301.4190910890029,302.2093903749992,302.2058487300019,,,,,,,,,,,,,,,,,,,,,,,,,,,,,,,,,,,302.2061735210009,302.2093903749992,302.2093903749992,302.7733918580052,g,1.0,0.558415605002665,,,,,,sub-132,1,stroop_test,,
,,,,73.0,1.0,6.0,,,,,,,,,,,,,gelb,yellow,g,1.0,g,1.0,0.5877117549971445,,,,,,,,,,6.0,1.0,73.0,11.0,302.7778907870015,,,,,,,,,,,,,,,,,302.77368480800214,302.86902321300295,303.6599837410031,303.6563261330012,,,,,,,,,,,,,,,,,,,,,,,,,,,,,,,,,,,303.656675885999,303.6599837410031,303.6599837410031,304.25723499200103,g,1.0,0.5877117549971445,,,,,,sub-132,1,stroop_test,,
,,,,74.0,2.0,6.0,,,,,,,,,,,,,gelb,red,r,0.0,r,1.0,0.6147931169980438,,,,,,,,,,6.0,2.0,74.0,8.0,304.2620792939997,,,,,,,,,,,,,,,,,304.25757657099894,304.3523534929991,305.1428273019992,305.13932797800226,,,,,,,,,,,,,,,,,,,,,,,,,,,,,,,,,,,305.1396458090021,305.1428273019992,305.1428273019992,305.7624852170047,r,1.0,0.6147931169980438,,,,,,sub-132,1,stroop_test,,
,,,,75.0,3.0,6.0,,,,,,,,,,,,,blau,yellow,g,0.0,g,1.0,0.5129358720005257,,,,,,,,,,6.0,3.0,75.0,7.0,305.76902964900364,,,,,,,,,,,,,,,,,305.76275815100234,306.958520512002,307.7524917300034,307.74532824500056,,,,,,,,,,,,,,,,,,,,,,,,,,,,,,,,,,,307.74774094999884,307.7524917300034,307.7524917300034,308.2735358850041,g,1.0,0.5129358720005257,,,,,,sub-132,1,stroop_test,,
,,,,76.0,4.0,6.0,,,,,,,,,,,,,rot,blue,b,0.0,b,1.0,0.8280872629984515,,,,,,,,,,6.0,4.0,76.0,2.0,308.2779640389999,,,,,,,,,,,,,,,,,308.27381460900506,308.36922654400405,309.1624772840005,309.15611506700225,,,,,,,,,,,,,,,,,,,,,,,,,,,,,,,,,,,309.158473042,309.1624772840005,309.1624772840005,309.9958844010034,b,1.0,0.8280872629984515,,,,,,sub-132,1,stroop_test,,
,,,,77.0,5.0,6.0,,,,,,,,,,,,,blau,blue,b,1.0,b,1.0,0.5853470349975396,,,,,,,,,,6.0,5.0,77.0,5.0,310.0023670390001,,,,,,,,,,,,,,,,,309.9961663479989,310.7920730219994,311.5857762720043,311.57900021000387,,,,,,,,,,,,,,,,,,,,,,,,,,,,,,,,,,,311.58125905199995,311.5857762720043,311.5857762720043,312.17353791200003,b,1.0,0.5853470349975396,,,,,,sub-132,1,stroop_test,,
,,,,78.0,6.0,6.0,,,,,,,,,,,,,rot,red,r,1.0,r,1.0,0.8362672200019006,,,,,,,,,,6.0,6.0,78.0,1.0,312.178201763003,,,,,,,,,,,,,,,,,312.1738130340018,312.519305642003,313.31307827300043,313.3069701160057,,,,,,,,,,,,,,,,,,,,,,,,,,,,,,,,,,,313.3091867250041,313.31307827300043,313.31307827300043,314.156944483002,r,1.0,0.8362672200019006,,,,,,sub-132,1,stroop_test,,
,,,,79.0,7.0,6.0,,,,,,,,,,,,,rot,red,r,1.0,r,1.0,0.5297832680007559,,,,,,,,,,6.0,7.0,79.0,0.0,314.161369428999,,,,,,,,,,,,,,,,,314.1572231989994,314.25246442900243,315.0433622310011,315.0397473690027,,,,,,,,,,,,,,,,,,,,,,,,,,,,,,,,,,,315.04007096300484,315.0433622310011,315.0433622310011,315.58003229500173,r,1.0,0.5297832680007559,,,,,,sub-132,1,stroop_test,,
,,,,80.0,8.0,6.0,,,,,,,,,,,,,blau,blue,b,1.0,b,1.0,0.6242875789976097,,,,,,,,,,6.0,8.0,80.0,6.0,315.5857610890016,,,,,,,,,,,,,,,,,315.58031332000246,316.37520962300187,317.1692498699995,317.161877311999,,,,,,,,,,,,,,,,,,,,,,,,,,,,,,,,,,,317.1639934240011,317.1692498699995,317.1692498699995,317.7963230910027,b,1.0,0.6242875789976097,,,,,,sub-132,1,stroop_test,,
,,,,81.0,9.0,6.0,,,,,,,,,,,,,gelb,blue,b,0.0,b,1.0,0.8604172769992147,,,,,,,,,,6.0,9.0,81.0,9.0,317.802532665999,,,,,,,,,,,,,,,,,317.7965981710004,317.8917401450017,318.6859017290044,318.67859652100015,,,,,,,,,,,,,,,,,,,,,,,,,,,,,,,,,,,318.6807455060043,318.6859017290044,318.6859017290044,319.5569377770007,b,1.0,0.8604172769992147,,,,,,sub-132,1,stroop_test,,
,,,,82.0,10.0,6.0,,,,,,,,,,,,,blau,red,r,0.0,r,1.0,0.636029912995582,,,,,,,,,,6.0,10.0,82.0,4.0,319.56140821800363,,,,,,,,,,,,,,,,,319.55722207500366,319.902680998006,320.69540668099944,320.68952253799944,,,,,,,,,,,,,,,,,,,,,,,,,,,,,,,,,,,320.6917251740015,320.69540668099944,320.69540668099944,321.34016523000173,r,1.0,0.636029912995582,,,,,,sub-132,1,stroop_test,,
,,,,83.0,11.0,6.0,,,,,,,,,,,,,rot,yellow,g,0.0,g,1.0,0.814965552999638,,,,,,,,,,6.0,11.0,83.0,3.0,321.3447527169992,,,,,,,,,,,,,,,,,321.34043848100555,322.1359744340007,322.92959361800604,322.9232683990049,,,,,,,,,,,,,,,,,,,,,,,,,,,,,,,,,,,322.9254680619997,322.92959361800604,322.92959361800604,323.746147347003,g,1.0,0.814965552999638,,,,,,sub-132,1,stroop_test,,
,,,,84.0,0.0,7.0,,,,,,,,,,,,,blau,blue,b,1.0,b,1.0,0.549712553001882,,,,,,,,,,7.0,0.0,84.0,5.0,323.7525149650028,,,,,,,,,,,,,,,,,323.7464264670052,324.5418753660051,325.3359226169996,325.3289975650041,,,,,,,,,,,,,,,,,,,,,,,,,,,,,,,,,,,325.3311757680058,325.3359226169996,325.3359226169996,325.8903658140043,b,1.0,0.549712553001882,,,,,,sub-132,1,stroop_test,,
,,,,85.0,1.0,7.0,,,,,,,,,,,,,rot,red,r,1.0,r,1.0,0.6696457229991211,,,,,,,,,,7.0,1.0,85.0,0.0,325.8947612510019,,,,,,,,,,,,,,,,,325.89064824500383,326.6861241380029,327.479154628003,327.47313498199946,,,,,,,,,,,,,,,,,,,,,,,,,,,,,,,,,,,327.47534812900267,327.479154628003,327.479154628003,328.15711425200425,r,1.0,0.6696457229991211,,,,,,sub-132,1,stroop_test,,
,,,,86.0,2.0,7.0,,,,,,,,,,,,,blau,red,r,0.0,r,1.0,1.0644096109972452,,,,,,,,,,7.0,2.0,86.0,4.0,328.1615417280045,,,,,,,,,,,,,,,,,328.1573901230004,328.95265700299933,329.7454682720054,329.7395057350004,,,,,,,,,,,,,,,,,,,,,,,,,,,,,,,,,,,329.7416984730007,329.7454682720054,329.7454682720054,330.8127972910006,r,1.0,1.0644096109972452,,,,,,sub-132,1,stroop_test,,
,,,,87.0,3.0,7.0,,,,,,,,,,,,,blau,yellow,g,0.0,g,1.0,0.5517160129966214,,,,,,,,,,7.0,3.0,87.0,7.0,330.8192650150013,,,,,,,,,,,,,,,,,330.8130722160058,331.6083036140044,332.4026675550049,332.39547900700563,,,,,,,,,,,,,,,,,,,,,,,,,,,,,,,,,,,332.3958032860028,332.4026675550049,332.4026675550049,332.95726137699967,g,1.0,0.5517160129966214,,,,,,sub-132,1,stroop_test,,
,,,,88.0,4.0,7.0,,,,,,,,,,,,,rot,yellow,g,0.0,g,1.0,0.608540556000662,,,,,,,,,,7.0,4.0,88.0,3.0,332.9617614720046,,,,,,,,,,,,,,,,,332.95753530599904,334.1527210589993,334.9458683490011,334.9397755060054,,,,,,,,,,,,,,,,,,,,,,,,,,,,,,,,,,,334.94192482300423,334.9458683490011,334.9458683490011,335.5567719700048,g,1.0,0.608540556000662,,,,,,sub-132,1,stroop_test,,
,,,,89.0,5.0,7.0,,,,,,,,,,,,,rot,blue,b,0.0,b,1.0,0.6275084809967666,,,,,,,,,,7.0,5.0,89.0,2.0,335.56121038100537,,,,,,,,,,,,,,,,,335.5570516209991,335.65254367700254,336.4434947020054,336.4397395640044,,,,,,,,,,,,,,,,,,,,,,,,,,,,,,,,,,,336.4400729879999,336.4434947020054,336.4434947020054,337.0740358780022,b,1.0,0.6275084809967666,,,,,,sub-132,1,stroop_test,,
,,,,90.0,6.0,7.0,,,,,,,,,,,,,gelb,red,r,0.0,r,1.0,0.6291512210009387,,,,,,,,,,7.0,6.0,90.0,8.0,337.07848499800457,,,,,,,,,,,,,,,,,337.0743144709995,337.86944883800606,338.66249921400595,338.6565851100022,,,,,,,,,,,,,,,,,,,,,,,,,,,,,,,,,,,338.6587471860039,338.66249921400595,338.66249921400595,339.29587281700515,r,1.0,0.6291512210009387,,,,,,sub-132,1,stroop_test,,
,,,,91.0,7.0,7.0,,,,,,,,,,,,,gelb,yellow,g,1.0,g,1.0,0.3788518929941347,,,,,,,,,,7.0,7.0,91.0,10.0,339.30263641499914,,,,,,,,,,,,,,,,,339.2961580390038,339.6422494610015,340.43613808100054,340.42868109800474,,,,,,,,,,,,,,,,,,,,,,,,,,,,,,,,,,,340.4290131710004,340.43613808100054,340.43613808100054,340.8236928490005,g,1.0,0.3788518929941347,,,,,,sub-132,1,stroop_test,,
,,,,92.0,8.0,7.0,,,,,,,,,,,,,rot,red,r,1.0,r,1.0,1.2144437820024905,,,,,,,,,,7.0,8.0,92.0,1.0,340.828182477002,,,,,,,,,,,,,,,,,340.823971869002,341.1694189970003,341.9624066050019,341.9565071130055,,,,,,,,,,,,,,,,,,,,,,,,,,,,,,,,,,,341.9586912049999,341.9624066050019,341.9624066050019,343.1792078479993,r,1.0,1.2144437820024905,,,,,,sub-132,1,stroop_test,,
,,,,93.0,9.0,7.0,,,,,,,,,,,,,gelb,yellow,g,1.0,g,1.0,0.496655881004699,,,,,,,,,,7.0,9.0,93.0,11.0,343.1859534630057,,,,,,,,,,,,,,,,,343.1794920140019,343.52521445800085,344.3194107590025,344.311971480005,,,,,,,,,,,,,,,,,,,,,,,,,,,,,,,,,,,344.3141439989995,344.3194107590025,344.3194107590025,344.8235340820029,g,1.0,0.496655881004699,,,,,,sub-132,1,stroop_test,,
,,,,94.0,10.0,7.0,,,,,,,,,,,,,gelb,blue,b,0.0,b,1.0,0.8792905860027531,,,,,,,,,,7.0,10.0,94.0,9.0,344.8280703660057,,,,,,,,,,,,,,,,,344.8238131110047,346.0194055720058,346.8101351350051,346.8065269639992,,,,,,,,,,,,,,,,,,,,,,,,,,,,,,,,,,,346.80684167700383,346.8101351350051,346.8101351350051,347.6909517400054,b,1.0,0.8792905860027531,,,,,,sub-132,1,stroop_test,,
,,,,95.0,11.0,7.0,,,,,,,,,,,,,blau,blue,b,1.0,b,1.0,0.4489822239993373,,,,,,,,,,7.0,11.0,95.0,6.0,347.69541266000306,,,,,,,,,,,,,,,,,347.6912292660054,348.0363025750048,348.8293526090056,348.82318327300163,,,,,,,,,,,,,,,,,,,,,,,,,,,,,,,,,,,348.8253709700002,348.8293526090056,348.8293526090056,349.2798527990017,b,1.0,0.4489822239993373,,,,,,sub-132,1,stroop_test,,
,,,,96.0,0.0,8.0,,,,,,,,,,,,,rot,yellow,g,0.0,g,1.0,0.4919112979987403,,,,,,,,,,8.0,0.0,96.0,3.0,349.2860372280047,,,,,,,,,,,,,,,,,349.2801323620006,349.3752323860026,350.16946412100515,350.16159263500595,,,,,,,,,,,,,,,,,,,,,,,,,,,,,,,,,,,350.1636657180061,350.16946412100515,350.16946412100515,350.66314116000285,g,1.0,0.4919112979987403,,,,,,sub-132,1,stroop_test,,
,,,,97.0,1.0,8.0,,,,,,,,,,,,,blau,blue,b,1.0,b,1.0,0.389166317996569,,,,,,,,,,8.0,1.0,97.0,5.0,350.6694149670002,,,,,,,,,,,,,,,,,350.66342749199976,351.0086518520038,351.8027949870011,351.7953290060032,,,,,,,,,,,,,,,,,,,,,,,,,,,,,,,,,,,351.79746500600595,351.8027949870011,351.8027949870011,352.19670845800283,b,1.0,0.389166317996569,,,,,,sub-132,1,stroop_test,,
,,,,98.0,2.0,8.0,,,,,,,,,,,,,gelb,red,r,0.0,r,1.0,0.5069500579993473,,,,,,,,,,8.0,2.0,98.0,8.0,352.2026852120034,,,,,,,,,,,,,,,,,352.1969820250015,352.9924071630012,353.78617270900577,353.77904323200346,,,,,,,,,,,,,,,,,,,,,,,,,,,,,,,,,,,353.7811953230048,353.78617270900577,353.78617270900577,354.2965668079996,r,1.0,0.5069500579993473,,,,,,sub-132,1,stroop_test,,
,,,,99.0,3.0,8.0,,,,,,,,,,,,,gelb,yellow,g,1.0,g,1.0,0.8394136950009852,,,,,,,,,,8.0,3.0,99.0,11.0,354.3027769570035,,,,,,,,,,,,,,,,,354.2968404470012,354.3921852190033,355.1861752360055,355.17893176500365,,,,,,,,,,,,,,,,,,,,,,,,,,,,,,,,,,,355.1792799399991,355.1861752360055,355.1861752360055,356.0299651000023,g,1.0,0.8394136950009852,,,,,,sub-132,1,stroop_test,,
,,,,100.0,4.0,8.0,,,,,,,,,,,,,blau,red,r,0.0,r,1.0,0.8768049580030493,,,,,,,,,,8.0,4.0,100.0,4.0,356.0360271259997,,,,,,,,,,,,,,,,,356.0302459310042,357.2260361350054,358.01947099500103,358.01284688400483,,,,,,,,,,,,,,,,,,,,,,,,,,,,,,,,,,,358.0151914260059,358.01947099500103,358.01947099500103,358.90721557500365,r,1.0,0.8768049580030493,,,,,,sub-132,1,stroop_test,,
,,,,101.0,5.0,8.0,,,,,,,,,,,,,blau,yellow,g,0.0,g,1.0,1.1769874320016245,,,,,,,,,,8.0,5.0,101.0,7.0,358.91163726800005,,,,,,,,,,,,,,,,,358.9074926730027,360.10294219700154,360.8936888989992,360.89006796600006,,,,,,,,,,,,,,,,,,,,,,,,,,,,,,,,,,,360.890399392003,360.8936888989992,360.8936888989992,362.0741276970002,g,1.0,1.1769874320016245,,,,,,sub-132,1,stroop_test,,
,,,,102.0,6.0,8.0,,,,,,,,,,,,,blau,blue,b,1.0,b,1.0,0.619553745003941,,,,,,,,,,8.0,6.0,102.0,6.0,362.0786487040023,,,,,,,,,,,,,,,,,362.07440316400607,363.2695346040055,364.0599146599998,364.0564857140053,,,,,,,,,,,,,,,,,,,,,,,,,,,,,,,,,,,364.056808153,364.0599146599998,364.0599146599998,364.6904129540053,b,1.0,0.619553745003941,,,,,,sub-132,1,stroop_test,,
,,,,103.0,7.0,8.0,,,,,,,,,,,,,rot,red,r,1.0,r,1.0,0.6205812730040634,,,,,,,,,,8.0,7.0,103.0,0.0,364.6948883820005,,,,,,,,,,,,,,,,,364.6906897240042,365.48624018600094,366.2795271710056,366.2732361529997,,,,,,,,,,,,,,,,,,,,,,,,,,,,,,,,,,,366.27560903799895,366.2795271710056,366.2795271710056,366.9070747229998,r,1.0,0.6205812730040634,,,,,,sub-132,1,stroop_test,,
,,,,104.0,8.0,8.0,,,,,,,,,,,,,rot,blue,b,0.0,b,1.0,1.325249535999319,,,,,,,,,,8.0,8.0,104.0,2.0,366.911421224002,,,,,,,,,,,,,,,,,366.9073489770017,368.10301216600055,368.89350968800136,368.8898837090019,,,,,,,,,,,,,,,,,,,,,,,,,,,,,,,,,,,368.89020074900327,368.89350968800136,368.89350968800136,370.22385279300215,b,1.0,1.325249535999319,,,,,,sub-132,1,stroop_test,,
,,,,105.0,9.0,8.0,,,,,,,,,,,,,rot,red,r,1.0,r,1.0,0.6585120370000368,,,,,,,,,,8.0,9.0,105.0,1.0,370.22830684300425,,,,,,,,,,,,,,,,,370.2241386560054,370.3195093270042,371.1102330479989,371.1065912900012,,,,,,,,,,,,,,,,,,,,,,,,,,,,,,,,,,,371.10689997500594,371.1102330479989,371.1102330479989,371.7740857259996,r,1.0,0.6585120370000368,,,,,,sub-132,1,stroop_test,,
,,,,106.0,10.0,8.0,,,,,,,,,,,,,gelb,yellow,g,1.0,g,1.0,0.8749720050036558,,,,,,,,,,8.0,10.0,106.0,10.0,371.7785661550006,,,,,,,,,,,,,,,,,371.7743635840016,372.9695982199992,373.7626381459995,373.75652430899936,,,,,,,,,,,,,,,,,,,,,,,,,,,,,,,,,,,373.75868395400175,373.7626381459995,373.7626381459995,374.6413563720053,g,1.0,0.8749720050036558,,,,,,sub-132,1,stroop_test,,
,,,,107.0,11.0,8.0,,,,,,,,,,,,,gelb,blue,b,0.0,b,1.0,0.6714318720041774,,,,,,,,,,8.0,11.0,107.0,9.0,374.6458074030015,,,,,,,,,,,,,,,,,374.6416319260025,375.4362986269989,376.2276994429994,376.2240100280033,,,,,,,,,,,,,,,,,,,,,,,,,,,,,,,,,,,376.2243377609993,376.2276994429994,376.2276994429994,376.9071387720032,b,1.0,0.6714318720041774,,,,,,sub-132,1,stroop_test,,
,,,,108.0,0.0,9.0,,,,,,,,,,,,,rot,blue,b,0.0,b,1.0,0.7205817350040888,,,,,,,,,,9.0,0.0,108.0,2.0,376.9116443710009,,,,,,,,,,,,,,,,,376.9074156480056,377.253051370004,378.0465392020051,378.04001926500496,,,,,,,,,,,,,,,,,,,,,,,,,,,,,,,,,,,378.0424095449998,378.0465392020051,378.0465392020051,378.7741252830019,b,1.0,0.7205817350040888,,,,,,sub-132,1,stroop_test,,
,,,,109.0,1.0,9.0,,,,,,,,,,,,,rot,red,r,1.0,r,1.0,0.6851887619995978,,,,,,,,,,9.0,1.0,109.0,1.0,378.7785764740038,,,,,,,,,,,,,,,,,378.77440414800367,379.5696301190037,380.3603299780007,380.3566944500053,,,,,,,,,,,,,,,,,,,,,,,,,,,,,,,,,,,380.3570066989996,380.3603299780007,380.3603299780007,381.047265731002,r,1.0,0.6851887619995978,,,,,,sub-132,1,stroop_test,,
,,,,110.0,2.0,9.0,,,,,,,,,,,,,gelb,blue,b,0.0,b,1.0,0.642562180000823,,,,,,,,,,9.0,2.0,110.0,9.0,381.0528690610008,,,,,,,,,,,,,,,,,381.0475567790054,382.24217105900607,383.0363137540044,383.02980379300425,,,,,,,,,,,,,,,,,,,,,,,,,,,,,,,,,,,383.03197401000216,383.0363137540044,383.0363137540044,383.6803814140003,b,1.0,0.642562180000823,,,,,,sub-132,1,stroop_test,,
,,,,111.0,3.0,9.0,,,,,,,,,,,,,gelb,red,r,0.0,r,1.0,0.7458845510045649,,,,,,,,,,9.0,3.0,111.0,8.0,383.68625505900127,,,,,,,,,,,,,,,,,383.6806583420039,384.025749335,384.8195460630013,384.81261747900135,,,,,,,,,,,,,,,,,,,,,,,,,,,,,,,,,,,384.812960922005,384.8195460630013,384.8195460630013,385.5740388699997,r,1.0,0.7458845510045649,,,,,,sub-132,1,stroop_test,,
,,,,112.0,4.0,9.0,,,,,,,,,,,,,rot,yellow,g,0.0,g,1.0,0.6942719069993473,,,,,,,,,,9.0,4.0,112.0,3.0,385.5784456670008,,,,,,,,,,,,,,,,,385.5743132249991,386.7697489300044,387.5625115030052,387.5565215320021,,,,,,,,,,,,,,,,,,,,,,,,,,,,,,,,,,,387.5586973360041,387.5625115030052,387.5625115030052,388.2629604950053,g,1.0,0.6942719069993473,,,,,,sub-132,1,stroop_test,,
,,,,113.0,5.0,9.0,,,,,,,,,,,,,gelb,yellow,g,1.0,g,1.0,1.391333220002707,,,,,,,,,,9.0,5.0,113.0,10.0,388.269609726005,,,,,,,,,,,,,,,,,388.2632396120025,389.0589177319998,389.8529528250001,389.8451874300008,,,,,,,,,,,,,,,,,,,,,,,,,,,,,,,,,,,389.8473674620036,389.8529528250001,389.8529528250001,391.2462369100031,g,1.0,1.391333220002707,,,,,,sub-132,1,stroop_test,,
,,,,114.0,6.0,9.0,,,,,,,,,,,,,gelb,yellow,g,1.0,g,1.0,0.5925250329964911,,,,,,,,,,9.0,6.0,114.0,11.0,391.2530932320005,,,,,,,,,,,,,,,,,391.2465238060031,391.5919608090044,392.3863871120048,392.37943853100296,,,,,,,,,,,,,,,,,,,,,,,,,,,,,,,,,,,392.37976948800497,392.3863871120048,392.3863871120048,392.9804309020037,g,1.0,0.5925250329964911,,,,,,sub-132,1,stroop_test,,
,,,,115.0,7.0,9.0,,,,,,,,,,,,,rot,red,r,1.0,r,1.0,0.6453689330010093,,,,,,,,,,9.0,7.0,115.0,0.0,392.98624940300215,,,,,,,,,,,,,,,,,392.98071034100576,394.1757016449992,394.96975085000304,394.96223368900246,,,,,,,,,,,,,,,,,,,,,,,,,,,,,,,,,,,394.9645791049989,394.96975085000304,394.96975085000304,395.6243274200024,r,1.0,0.6453689330010093,,,,,,sub-132,1,stroop_test,,
,,,,116.0,8.0,9.0,,,,,,,,,,,,,blau,blue,b,1.0,b,1.0,0.5702607760031242,,,,,,,,,,9.0,8.0,116.0,6.0,395.6287858729993,,,,,,,,,,,,,,,,,395.6246043310021,396.8197784410004,397.613397576999,397.6072223180017,,,,,,,,,,,,,,,,,,,,,,,,,,,,,,,,,,,397.6093982349994,397.613397576999,397.613397576999,398.19076110800233,b,1.0,0.5702607760031242,,,,,,sub-132,1,stroop_test,,
,,,,117.0,9.0,9.0,,,,,,,,,,,,,blau,yellow,g,0.0,g,1.0,1.1828173030007747,,,,,,,,,,9.0,9.0,117.0,7.0,398.1951384050044,,,,,,,,,,,,,,,,,398.1910324460041,398.9865079040028,399.7769410280016,399.7734683750023,,,,,,,,,,,,,,,,,,,,,,,,,,,,,,,,,,,399.7737894500024,399.7769410280016,399.7769410280016,400.963197598001,g,1.0,1.1828173030007747,,,,,,sub-132,1,stroop_test,,
,,,,118.0,10.0,9.0,,,,,,,,,,,,,blau,red,r,0.0,r,1.0,0.9387348919990472,,,,,,,,,,9.0,10.0,118.0,4.0,400.9697046490037,,,,,,,,,,,,,,,,,400.96347352200246,402.15965501400206,402.9531492890019,402.9461197010023,,,,,,,,,,,,,,,,,,,,,,,,,,,,,,,,,,,402.94643967100274,402.9531492890019,402.9531492890019,403.8967920639989,r,1.0,0.9387348919990472,,,,,,sub-132,1,stroop_test,,
,,,,119.0,11.0,9.0,,,,,,,,,,,,,blau,blue,b,1.0,b,1.0,0.8367080719981459,,,,,,,,,,9.0,11.0,119.0,5.0,403.90303313000186,,,,,,,,,,,,,,,,,403.8970798840018,404.242547796006,405.036520407004,405.0294637500047,,,,,,,,,,,,,,,,,,,,,,,,,,,,,,,,,,,405.0297693370012,405.036520407004,405.036520407004,405.8799674430047,b,1.0,0.8367080719981459,,,,,,sub-132,1,stroop_test,,
,,,,,,,,,,,,,,,,,,,,,,,,,,,,,,,,,,,,,,,,,,,,,,,,,,,,,,,,,,,,,,,,,,,,,,,,,,,,,,,,,,,,,,,,,,,,,,,,,,,,,,405.8801110230052,405.88635121900006,410.8764600930008,410.8743183600018,sub-132,1,stroop_test,,
