wordCTK,colorCTK,corrAnsCTK,congruentCTK,thisN,thisTrialN,thisRepN,keyResp_CTK.keys,keyResp_CTK.corr,keyResp_CTK.rt,keyResp_CTK.duration,wordPractice,colorPractice,corrAnsPractice,congruentPractice,respPractice.keys,respPractice.corr,respPractice.rt,respPractice.duration,word,color,corrAns,congruent,keyResp_test_run.keys,keyResp_test_run.corr,keyResp_test_run.rt,keyResp_test_run.duration,trials_CTK.thisRepN,trials_CTK.thisTrialN,trials_CTK.thisN,trials_CTK.thisIndex,trials_practice.thisRepN,trials_practice.thisTrialN,trials_practice.thisN,trials_practice.thisIndex,trials_test.thisRepN,trials_test.thisTrialN,trials_test.thisN,trials_test.thisIndex,thisRow.t,notes,instruction.started,instr_text.started,instr_image.started,instr_resp.started,instruction.stopped,instr_resp.keys,instr_resp.rt,instr_resp.duration,instr_color_to_key.started,instr_ctk.started,resp_ctk.started,instr_color_to_key.stopped,resp_ctk.keys,resp_ctk.rt,resp_ctk.duration,ITI.started,fixcross.started,fixcross.stopped,ITI.stopped,color_to_key_run.started,stimulus_CTK.started,keyResp_CTK.started,color_to_key_run.stopped,trials_CTK.keyResp_CTK.keys,trials_CTK.keyResp_CTK.corr,trials_CTK.keyResp_CTK.rt,trials_CTK.keyResp_CTK.duration,instr_practice.started,instr_practice_text.started,instr_practice_resp.started,instr_practice.stopped,instr_practice_resp.keys,instr_practice_resp.rt,instr_practice_resp.duration,practice_run.started,stimulus_practice.started,respPractice.started,practice_run.stopped,trials_practice.respPractice.keys,trials_practice.respPractice.corr,trials_practice.respPractice.rt,trials_practice.respPractice.duration,feedback.started,textFeedback.started,feedback.stopped,textFeedback.stopped,instr_test.started,instr_test_text.started,instr_test_resp.started,instr_test.stopped,instr_test_resp.keys,instr_test_resp.rt,instr_test_resp.duration,test_run.started,stimulus_test_run.started,keyResp_test_run.started,test_run.stopped,trials_test.keyResp_test_run.keys,trials_test.keyResp_test_run.corr,trials_test.keyResp_test_run.rt,trials_test.keyResp_test_run.duration,goodbye.started,textGoodbye.started,goodbye.stopped,participant,session,expName,frameRate,Unnamed: 112
,,,,,,,,,,,,,,,,,,,,,,,,,,,,,,,,,,,,,,,,,0.0033870998304337,0.0501782000064849,0.0501782000064849,0.0501782000064849,46.57629999984056,space,46.51925529981963,,,,,,,,,,,,,,,,,,,,,,,,,,,,,,,,,,,,,,,,,,,,,,,,,,,,,,,,,,sub-174,1,stroop_test,59.70519955829493,
,,,,,,,,,,,,,,,,,,,,,,,,,,,,,,,,,,,,,,,,,,,,,,,,,46.57636739988811,46.59185199998319,46.59185199998319,57.22550829988904,space,10.630812800023705,,,,,,,,,,,,,,,,,,,,,,,,,,,,,,,,,,,,,,,,,,,,,,,,,,,sub-174,1,stroop_test,59.70519955829493,
test,blue,b,1.0,0.0,0.0,0.0,b,1.0,1.734412700170651,,,,,,,,,,,,,,,,,,0.0,0.0,0.0,2.0,,,,,,,,,57.26408759993501,,,,,,,,,,,,,,,,,57.260095099918544,57.33178639994003,58.1325500998646,58.11811829986982,58.12410739995539,58.1325500998646,58.1325500998646,59.871375599876046,b,1.0,1.734412700170651,,,,,,,,,,,,,,,,,,,,,,,,,,,,,,,,,,,,,,,sub-174,1,stroop_test,59.70519955829493,
test,red,r,1.0,1.0,1.0,0.0,r,1.0,1.4188745999708772,,,,,,,,,,,,,,,,,,0.0,1.0,1.0,0.0,,,,,,,,,59.886429999955,,,,,,,,,,,,,,,,,59.87174419988878,61.071361099835485,61.87338100001216,61.85713819996454,61.85758910002187,61.87338100001216,61.87338100001216,63.29400760005228,r,1.0,1.4188745999708772,,,,,,,,,,,,,,,,,,,,,,,,,,,,,,,,,,,,,,,sub-174,1,stroop_test,59.70519955829493,
test,yellow,g,1.0,2.0,2.0,0.0,g,1.0,2.167423800099641,,,,,,,,,,,,,,,,,,0.0,2.0,2.0,1.0,,,,,,,,,63.30807280004956,,,,,,,,,,,,,,,,,63.29434409993701,64.49379139998928,65.29471469996497,65.2789508998394,65.27949149999768,65.29471469996497,65.29471469996497,67.46541419997811,g,1.0,2.167423800099641,,,,,,,,,,,,,,,,,,,,,,,,,,,,,,,,,,,,,,,sub-174,1,stroop_test,59.70519955829493,
test,yellow,g,1.0,3.0,0.0,1.0,g,1.0,0.7012008999008685,,,,,,,,,,,,,,,,,,1.0,0.0,3.0,1.0,,,,,,,,,67.48132269992493,,,,,,,,,,,,,,,,,67.46570179983974,67.56461700005457,68.3663671000395,68.35025010001846,68.35075349989347,68.3663671000395,68.3663671000395,69.06876980001107,g,1.0,0.7012008999008685,,,,,,,,,,,,,,,,,,,,,,,,,,,,,,,,,,,,,,,sub-174,1,stroop_test,59.70519955829493,
test,red,r,1.0,4.0,1.0,1.0,r,1.0,0.5383668998256326,,,,,,,,,,,,,,,,,,1.0,1.0,4.0,0.0,,,,,,,,,69.0831319000572,,,,,,,,,,,,,,,,,69.06906070001423,69.86889809998684,70.66952549992129,70.65372389997356,70.6541728999,70.66952549992129,70.66952549992129,71.2219855999574,r,1.0,0.5383668998256326,,,,,,,,,,,,,,,,,,,,,,,,,,,,,,,,,,,,,,,sub-174,1,stroop_test,59.70519955829493,
test,blue,b,1.0,5.0,2.0,1.0,b,1.0,0.5013074001763016,,,,,,,,,,,,,,,,,,1.0,2.0,5.0,2.0,,,,,,,,,71.23709529987536,,,,,,,,,,,,,,,,,71.22227859986015,71.337684399914,72.13875639997423,72.12258289987221,72.12309959996492,72.13875639997423,72.13875639997423,72.64155709999613,b,1.0,0.5013074001763016,,,,,,,,,,,,,,,,,,,,,,,,,,,,,,,,,,,,,,,sub-174,1,stroop_test,59.70519955829493,
test,blue,b,1.0,6.0,0.0,2.0,b,1.0,0.971107899909839,,,,,,,,,,,,,,,,,,2.0,0.0,6.0,2.0,,,,,,,,,72.65590050001629,,,,,,,,,,,,,,,,,72.64186179987155,73.85681009991094,74.65895930002443,74.64350859983824,74.64397059986368,74.65895930002443,74.65895930002443,75.64513619989157,b,1.0,0.971107899909839,,,,,,,,,,,,,,,,,,,,,,,,,,,,,,,,,,,,,,,sub-174,1,stroop_test,59.70519955829493,
test,yellow,g,1.0,7.0,1.0,2.0,g,1.0,0.8456801001448184,,,,,,,,,,,,,,,,,,2.0,1.0,7.0,1.0,,,,,,,,,75.66063659987412,,,,,,,,,,,,,,,,,75.64550670003518,75.76072410005145,76.56257229996845,76.54597109998576,76.54646479990333,76.56257229996845,76.56257229996845,77.41548760002479,g,1.0,0.8456801001448184,,,,,,,,,,,,,,,,,,,,,,,,,,,,,,,,,,,,,,,sub-174,1,stroop_test,59.70519955829493,
test,red,r,1.0,8.0,2.0,2.0,r,1.0,0.4553578000050038,,,,,,,,,,,,,,,,,,2.0,2.0,8.0,0.0,,,,,,,,,77.43028669990599,,,,,,,,,,,,,,,,,77.41580039984547,77.78065419988707,78.58127399999648,78.56630229996517,78.56678249989636,78.58127399999648,78.58127399999648,79.05093469982967,r,1.0,0.4553578000050038,,,,,,,,,,,,,,,,,,,,,,,,,,,,,,,,,,,,,,,sub-174,1,stroop_test,59.70519955829493,
test,yellow,g,1.0,9.0,0.0,3.0,g,1.0,0.4370855998713523,,,,,,,,,,,,,,,,,,3.0,0.0,9.0,1.0,,,,,,,,,79.06561119994149,,,,,,,,,,,,,,,,,79.05125789996237,79.16575859999284,79.96713979984634,79.95164239988662,79.952109699836,79.96713979984634,79.96713979984634,80.41893639997579,g,1.0,0.4370855998713523,,,,,,,,,,,,,,,,,,,,,,,,,,,,,,,,,,,,,,,sub-174,1,stroop_test,59.70519955829493,
test,blue,b,1.0,10.0,1.0,3.0,b,1.0,0.3952370998449623,,,,,,,,,,,,,,,,,,3.0,1.0,10.0,2.0,,,,,,,,,80.43437929986976,,,,,,,,,,,,,,,,,80.4192532999441,80.76830530003645,81.5699455998838,81.55373869999312,81.55415249988437,81.5699455998838,81.5699455998838,81.97156389988959,b,1.0,0.3952370998449623,,,,,,,,,,,,,,,,,,,,,,,,,,,,,,,,,,,,,,,sub-174,1,stroop_test,59.70519955829493,
test,red,r,1.0,11.0,2.0,3.0,r,1.0,0.7633424999658018,,,,,,,,,,,,,,,,,,3.0,2.0,11.0,0.0,,,,,,,,,81.98631750000641,,,,,,,,,,,,,,,,,81.97185839992017,82.32099449983798,83.12144130002707,83.10547930002213,83.1059113999363,83.12144130002707,83.12144130002707,83.89091810001992,r,1.0,0.7633424999658018,,,,,,,,,,,,,,,,,,,,,,,,,,,,,,,,,,,,,,,sub-174,1,stroop_test,59.70519955829493,
,,,,,,,,,,,,,,,,,,,,,,,,,,,,,,,,,,,,,,,,,,,,,,,,,,,,,,,,,,,,,,,,,,,,83.89106000005268,83.90602599992417,83.90602599992417,95.5760752998758,space,11.668288700049745,,,,,,,,,,,,,,,,,,,,,,,,,,,,,,,,sub-174,1,stroop_test,59.70519955829493,
,,,,0.0,0.0,0.0,,,,,rot,yellow,g,0.0,g,1.0,1.8268373000901192,,,,,,,,,,,,,,0.0,0.0,0.0,3.0,,,,,95.59010050003415,,,,,,,,,,,,,,,,,95.58501709997654,96.77598929987288,97.57565480004996,97.56147810001858,,,,,,,,,,,,,,,,97.56764579983428,97.57565480004996,97.57565480004996,99.41484189988114,g,1.0,1.8268373000901192,,99.42169429990464,99.4286716999486,100.41522169997916,,,,,,,,,,,,,,,,,,,,sub-174,1,stroop_test,59.70519955829493,
,,,,1.0,1.0,0.0,,,,,blau,blue,b,1.0,b,1.0,0.8369909001048654,,,,,,,,,,,,,,0.0,1.0,1.0,5.0,,,,,100.43239339999856,,,,,,,,,,,,,,,,,100.41558229993096,101.21649599983355,102.01605720003136,102.00163509999402,,,,,,,,,,,,,,,,102.0089153998997,102.01605720003136,102.01605720003136,102.86997999995948,b,1.0,0.8369909001048654,,102.87044049985708,102.88552859984338,103.87071449984796,,,,,,,,,,,,,,,,,,,,sub-174,1,stroop_test,59.70519955829493,
,,,,2.0,2.0,0.0,,,,,gelb,yellow,g,1.0,g,1.0,0.8009725001174957,,,,,,,,,,,,,,0.0,2.0,2.0,10.0,,,,,103.88699169992468,,,,,,,,,,,,,,,,,103.87109899986535,103.97026259987616,104.77090030000544,104.75446129986084,,,,,,,,,,,,,,,,104.7575919998344,104.77090030000544,104.77090030000544,105.57427569990978,g,1.0,0.8009725001174957,,105.57474459987134,105.58944349992088,106.57505430001764,106.59140089992434,,,,,,,,,,,,,,,,,,,sub-174,1,stroop_test,59.70519955829493,
,,,,3.0,3.0,0.0,,,,,rot,blue,b,0.0,b,1.0,1.0403539000544697,,,,,,,,,,,,,,0.0,3.0,3.0,2.0,,,,,106.59140089992434,,,,,,,,,,,,,,,,,106.57542350003496,106.67441389989108,107.47556769987568,107.45916570001282,,,,,,,,,,,,,,,,107.46200669999234,107.47556769987568,107.47556769987568,108.52971130004153,b,1.0,1.0403539000544697,,108.53026539995336,108.5438465999905,109.52983490005136,109.54588310001418,,,,,,,,,,,,,,,,,,,sub-174,1,stroop_test,59.70519955829493,
,,,,4.0,4.0,0.0,,,,,rot,red,r,1.0,r,1.0,0.5745532000437379,,,,,,,,,,,,,,0.0,4.0,4.0,1.0,,,,,109.54588310001418,,,,,,,,,,,,,,,,,109.53013149998152,109.89632910001092,110.69716809992678,110.681129100034,,,,,,,,,,,,,,,,110.6816330999136,110.69716809992678,110.69716809992678,111.2827885998413,r,1.0,0.5745532000437379,,111.28336249990387,111.29828049987556,112.283049199963,,,,,,,,,,,,,,,,,,,,sub-174,1,stroop_test,59.70519955829493,
,,,,5.0,5.0,0.0,,,,,gelb,yellow,g,1.0,g,1.0,0.9889630998950452,,,,,,,,,,,,,,0.0,5.0,5.0,11.0,,,,,112.29966440005228,,,,,,,,,,,,,,,,,112.28343089995906,112.38310469989663,113.18465680000372,113.1687342999503,,,,,,,,,,,,,,,,113.17177859996444,113.18465680000372,113.18465680000372,114.1875115998555,g,1.0,0.9889630998950452,,114.18805819982664,114.20330699998884,115.18802409991622,115.20425840001552,,,,,,,,,,,,,,,,,,,sub-174,1,stroop_test,59.70519955829493,
,,,,6.0,6.0,0.0,,,,,gelb,blue,b,0.0,b,1.0,0.4347679000347852,,,,,,,,,,,,,,0.0,6.0,6.0,9.0,,,,,115.20425840001552,,,,,,,,,,,,,,,,,115.18837470002472,115.5370799000375,116.33974520000628,116.32350889989176,,,,,,,,,,,,,,,,116.32400069991128,116.33974520000628,116.33974520000628,116.7914106999524,b,1.0,0.4347679000347852,,116.79196029994635,116.80647599999791,117.79173529986292,,,,,,,,,,,,,,,,,,,,sub-174,1,stroop_test,59.70519955829493,
,,,,7.0,7.0,0.0,,,,,gelb,red,r,0.0,r,1.0,0.670650799991563,,,,,,,,,,,,,,0.0,7.0,7.0,8.0,,,,,117.80805330001748,,,,,,,,,,,,,,,,,117.79217399982736,118.99298439989798,119.7941210998688,119.77886980003676,,,,,,,,,,,,,,,,119.77928899996914,119.7941210998688,119.7941210998688,120.4800394999329,r,1.0,0.670650799991563,,120.48064629989676,120.4954090998508,121.48038879991508,,,,,,,,,,,,,,,,,,,,sub-174,1,stroop_test,59.70519955829493,
,,,,8.0,8.0,0.0,,,,,rot,red,r,1.0,r,1.0,0.4534785998985171,,,,,,,,,,,,,,0.0,8.0,8.0,0.0,,,,,121.49672949989326,,,,,,,,,,,,,,,,,121.48077469994314,122.28070140001364,123.08293659985064,123.0674027998466,,,,,,,,,,,,,,,,123.07020600000396,123.08293659985064,123.08293659985064,123.55178690003233,r,1.0,0.4534785998985171,,123.55233179987408,123.56592820002696,124.55209099990316,,,,,,,,,,,,,,,,,,,,sub-174,1,stroop_test,59.70519955829493,
,,,,9.0,9.0,0.0,,,,,blau,yellow,g,0.0,g,1.0,0.5352674000896513,,,,,,,,,,,,,,0.0,9.0,9.0,7.0,,,,,124.56861589988694,,,,,,,,,,,,,,,,,124.55248219985516,124.90201139985584,125.70238230004908,125.68813779996708,,,,,,,,,,,,,,,,125.69096479984,125.70238230004908,125.70238230004908,126.23918639984912,g,1.0,0.5352674000896513,,126.2396662000101,126.25453100004232,127.24008929985575,,,,,,,,,,,,,,,,,,,,sub-174,1,stroop_test,59.70519955829493,
,,,,10.0,10.0,0.0,,,,,blau,blue,b,1.0,b,1.0,0.5241107000038028,,,,,,,,,,,,,,0.0,10.0,10.0,6.0,,,,,127.25545459985732,,,,,,,,,,,,,,,,,127.24052289989775,127.33952569984832,128.1402942999266,128.12383089982904,,,,,,,,,,,,,,,,128.1243282998912,128.1402942999266,128.1402942999266,128.67437849985436,b,1.0,0.5241107000038028,,128.67480439995416,128.69058259995654,129.67626850004308,,,,,,,,,,,,,,,,,,,,sub-174,1,stroop_test,59.70519955829493,
,,,,11.0,11.0,0.0,,,,,blau,red,r,0.0,r,1.0,0.5606333999894559,,,,,,,,,,,,,,0.0,11.0,11.0,4.0,,,,,129.69293150003068,,,,,,,,,,,,,,,,,129.67666550003923,129.77611700003035,130.5777449000161,130.56154589983635,,,,,,,,,,,,,,,,130.56206959998235,130.5777449000161,130.5777449000161,131.1463552999776,r,1.0,0.5606333999894559,,131.1468136999756,131.16100159985945,132.14733439986594,,,,,,,,,,,,,,,,,,,,sub-174,1,stroop_test,59.70519955829493,
,,,,12.0,0.0,1.0,,,,,rot,blue,b,0.0,g,0.0,0.7827391000464559,,,,,,,,,,,,,,1.0,0.0,12.0,2.0,,,,,132.16335029993206,,,,,,,,,,,,,,,,,132.1477393000387,132.24683950003237,133.04812299995683,133.03197490004823,,,,,,,,,,,,,,,,133.0342402998358,133.04812299995683,133.04812299995683,133.83368050004356,g,0.0,0.7827391000464559,,133.8384050000459,133.84819599986076,134.8336801000405,134.8499473000411,,,,,,,,,,,,,,,,,,,sub-174,1,stroop_test,59.70519955829493,
,,,,13.0,1.0,1.0,,,,,rot,red,r,1.0,r,1.0,0.7379016999620944,,,,,,,,,,,,,,1.0,1.0,13.0,0.0,,,,,134.8499473000411,,,,,,,,,,,,,,,,,134.83398770005442,135.63555249990895,136.4364519000519,136.42017890000716,,,,,,,,,,,,,,,,136.4206282000523,136.4364519000519,136.4364519000519,137.18807749985717,r,1.0,0.7379016999620944,,137.19167289999314,137.2033263000194,138.18835279997438,,,,,,,,,,,,,,,,,,,,sub-174,1,stroop_test,59.70519955829493,
,,,,14.0,2.0,1.0,,,,,gelb,blue,b,0.0,b,1.0,1.0813256001565603,,,,,,,,,,,,,,1.0,2.0,14.0,9.0,,,,,138.2047869998496,,,,,,,,,,,,,,,,,138.1887193999719,138.99100929987617,139.79153389995918,139.77567969984375,,,,,,,,,,,,,,,,139.77800099994056,139.79153389995918,139.79153389995918,140.87769120000303,b,1.0,1.0813256001565603,,140.87822579988278,140.89327159989625,141.87825049995445,,,,,,,,,,,,,,,,,,,,sub-174,1,stroop_test,59.70519955829493,
,,,,15.0,3.0,1.0,,,,,blau,blue,b,1.0,b,1.0,0.4872334999963641,,,,,,,,,,,,,,1.0,3.0,15.0,6.0,,,,,141.8937125999946,,,,,,,,,,,,,,,,,141.87871219986118,142.22845229995437,143.02990809991024,143.01371459988877,,,,,,,,,,,,,,,,143.01712500001304,143.02990809991024,143.02990809991024,143.5317716000136,b,1.0,0.4872334999963641,,143.5322558998596,143.54736640001647,144.5327844999265,,,,,,,,,,,,,,,,,,,,sub-174,1,stroop_test,59.70519955829493,
,,,,16.0,4.0,1.0,,,,,gelb,red,r,0.0,r,1.0,0.6050305999815464,,,,,,,,,,,,,,1.0,4.0,16.0,8.0,,,,,144.548408200033,,,,,,,,,,,,,,,,,144.533151099924,144.88260130002163,145.68373050005175,145.66815229994245,,,,,,,,,,,,,,,,145.67062220000662,145.68373050005175,145.68373050005175,146.30286149983294,r,1.0,0.6050305999815464,,146.30331170000136,146.3179128000047,147.30302939983085,,,,,,,,,,,,,,,,,,,,sub-174,1,stroop_test,59.70519955829493,
,,,,17.0,5.0,1.0,,,,,blau,yellow,g,0.0,g,1.0,0.7028640999924392,,,,,,,,,,,,,,1.0,5.0,17.0,7.0,,,,,147.3199684000574,,,,,,,,,,,,,,,,,147.30345699982718,148.1044166998472,148.90597189986147,148.88985399995,,,,,,,,,,,,,,,,148.8921335998457,148.90597189986147,148.90597189986147,149.62464769999497,g,1.0,0.7028640999924392,,149.62513899989426,149.63949549989775,150.62514219991863,,,,,,,,,,,,,,,,,,,,sub-174,1,stroop_test,59.70519955829493,
,,,,18.0,6.0,1.0,,,,,gelb,yellow,g,1.0,g,1.0,0.6129184998571873,,,,,,,,,,,,,,1.0,6.0,18.0,11.0,,,,,150.64160360000096,,,,,,,,,,,,,,,,,150.62556590000167,150.97569640004076,151.77655469998717,151.76049849996343,,,,,,,,,,,,,,,,151.7630671998486,151.77655469998717,151.77655469998717,152.39484960003756,g,1.0,0.6129184998571873,,152.39534899988212,152.41026519984007,153.39553229999729,,,,,,,,,,,,,,,,,,,,sub-174,1,stroop_test,59.70519955829493,
,,,,19.0,7.0,1.0,,,,,rot,red,r,1.0,r,1.0,0.6785506999585778,,,,,,,,,,,,,,1.0,7.0,19.0,1.0,,,,,153.4119939999655,,,,,,,,,,,,,,,,,153.39590869983658,153.74635099992156,154.54760859999806,154.53154039988294,,,,,,,,,,,,,,,,154.53395610000007,154.54760859999806,154.54760859999806,155.23290900001302,r,1.0,0.6785506999585778,,155.23336800001562,155.24807829991914,156.23391880001873,,,,,,,,,,,,,,,,,,,,sub-174,1,stroop_test,59.70519955829493,
,,,,20.0,8.0,1.0,,,,,rot,yellow,g,0.0,g,1.0,1.0702774999663234,,,,,,,,,,,,,,1.0,8.0,20.0,3.0,,,,,156.24968519993126,,,,,,,,,,,,,,,,,156.23432060005143,157.43533679982647,158.23580969986506,158.2190539999865,,,,,,,,,,,,,,,,158.21946060005575,158.23580969986506,158.23580969986506,159.32238020002842,g,1.0,1.0702774999663234,,159.32282889983617,159.33700529998168,160.3230043000076,,,,,,,,,,,,,,,,,,,,sub-174,1,stroop_test,59.70519955829493,
,,,,21.0,9.0,1.0,,,,,gelb,yellow,g,1.0,g,1.0,0.5223270999267697,,,,,,,,,,,,,,1.0,9.0,21.0,10.0,,,,,160.3394104000181,,,,,,,,,,,,,,,,,160.32341039995663,160.42316280002706,161.22481069993228,161.20806990005076,,,,,,,,,,,,,,,,161.21094399993308,161.22481069993228,161.22481069993228,161.75922909984365,g,1.0,0.5223270999267697,,161.75967999990098,161.77498949994333,162.76027129986323,,,,,,,,,,,,,,,,,,,,sub-174,1,stroop_test,59.70519955829493,
,,,,22.0,10.0,1.0,,,,,blau,red,r,0.0,r,1.0,0.6108889000024647,,,,,,,,,,,,,,1.0,10.0,22.0,4.0,,,,,162.7766090000514,,,,,,,,,,,,,,,,,162.76070960005745,163.110551699996,163.91200140002184,163.89597680000588,,,,,,,,,,,,,,,,163.89835070003755,163.91200140002184,163.91200140002184,164.53021340002306,r,1.0,0.6108889000024647,,164.5307859999593,164.5448961998336,165.53072679997422,165.5467652999796,,,,,,,,,,,,,,,,,,,sub-174,1,stroop_test,59.70519955829493,
,,,,23.0,11.0,1.0,,,,,blau,blue,b,1.0,b,1.0,0.5050069999415427,,,,,,,,,,,,,,1.0,11.0,23.0,5.0,,,,,165.5467652999796,,,,,,,,,,,,,,,,,165.53118079993874,165.88041269988753,166.68264300003648,166.66665729996748,,,,,,,,,,,,,,,,166.66706769983284,166.68264300003648,166.68264300003648,167.20163869997486,b,1.0,0.5050069999415427,,167.20217889989726,167.2167445998639,168.2015182999894,168.21722389990464,,,,,,,,,,,,,,,,,,,sub-174,1,stroop_test,59.70519955829493,
,,,,,,,,,,,,,,,,,,,,,,,,,,,,,,,,,,,,,,,,,,,,,,,,,,,,,,,,,,,,,,,,,,,,,,,,,,,,,,,,,,,,,,,168.2016359998379,168.21722389990464,168.21722389990464,172.82635849993676,space,4.593112300150096,,,,,,,,,,,,,sub-174,1,stroop_test,59.70519955829493,
,,,,0.0,0.0,0.0,,,,,,,,,,,,,blau,red,r,0.0,r,1.0,1.1757129000034183,,,,,,,,,,0.0,0.0,0.0,4.0,172.84084540000185,,,,,,,,,,,,,,,,,172.83527299994603,174.02711779996753,174.82854629983194,174.81228049984202,,,,,,,,,,,,,,,,,,,,,,,,,,,,,,,,,,,174.8151412999723,174.82854629983194,174.82854629983194,176.01453709998168,r,1.0,1.1757129000034183,,,,,sub-174,1,stroop_test,59.70519955829493,
,,,,1.0,1.0,0.0,,,,,,,,,,,,,blau,blue,b,1.0,b,1.0,0.7685891001019627,,,,,,,,,,0.0,1.0,1.0,5.0,176.03024079999886,,,,,,,,,,,,,,,,,176.01495119999163,176.36417840002105,177.1642132999841,177.1493142999243,,,,,,,,,,,,,,,,,,,,,,,,,,,,,,,,,,,177.14974080002867,177.1642132999841,177.1642132999841,177.9341483998578,b,1.0,0.7685891001019627,,,,,sub-174,1,stroop_test,59.70519955829493,
,,,,2.0,2.0,0.0,,,,,,,,,,,,,gelb,red,r,0.0,r,1.0,0.6496417999733239,,,,,,,,,,0.0,2.0,2.0,8.0,177.94985629990697,,,,,,,,,,,,,,,,,177.93446889985353,179.13489430001937,179.93575659999624,179.91985989990644,,,,,,,,,,,,,,,,,,,,,,,,,,,,,,,,,,,179.9228133999277,179.93575659999624,179.93575659999624,180.58825629996136,r,1.0,0.6496417999733239,,,,,sub-174,1,stroop_test,59.70519955829493,
,,,,3.0,3.0,0.0,,,,,,,,,,,,,blau,yellow,g,0.0,g,1.0,0.8053741999901831,,,,,,,,,,0.0,3.0,3.0,7.0,180.6036485999357,,,,,,,,,,,,,,,,,180.58869050000797,180.93775599985383,181.73871780000627,181.7231622999534,,,,,,,,,,,,,,,,,,,,,,,,,,,,,,,,,,,181.72563400003128,181.73871780000627,181.73871780000627,182.557234399952,g,1.0,0.8053741999901831,,,,,sub-174,1,stroop_test,59.70519955829493,
,,,,4.0,4.0,0.0,,,,,,,,,,,,,rot,red,r,1.0,r,1.0,0.616090500028804,,,,,,,,,,0.0,4.0,4.0,1.0,182.5733465000521,,,,,,,,,,,,,,,,,182.55755919986404,183.3583139998373,184.1591278000269,184.14304660004564,,,,,,,,,,,,,,,,,,,,,,,,,,,,,,,,,,,184.14525339985263,184.1591278000269,184.1591278000269,184.7782266999129,r,1.0,0.616090500028804,,,,,sub-174,1,stroop_test,59.70519955829493,
,,,,5.0,5.0,0.0,,,,,,,,,,,,,gelb,yellow,g,1.0,g,1.0,0.6658428001683205,,,,,,,,,,0.0,5.0,5.0,10.0,184.7924319000449,,,,,,,,,,,,,,,,,184.77856009989048,185.9789277999662,186.7797586999368,186.7639462999068,,,,,,,,,,,,,,,,,,,,,,,,,,,,,,,,,,,186.7662706999108,186.7797586999368,186.7797586999368,187.44792709988545,g,1.0,0.6658428001683205,,,,,sub-174,1,stroop_test,59.70519955829493,
,,,,6.0,6.0,0.0,,,,,,,,,,,,,rot,blue,b,0.0,b,1.0,0.9883127000648528,,,,,,,,,,0.0,6.0,6.0,2.0,187.46387029998004,,,,,,,,,,,,,,,,,187.44825639994812,187.54771970002912,188.3487543000374,188.33282470004636,,,,,,,,,,,,,,,,,,,,,,,,,,,,,,,,,,,188.33503689989448,188.3487543000374,188.3487543000374,189.35168870002963,b,1.0,0.9883127000648528,,,,,sub-174,1,stroop_test,59.70519955829493,
,,,,7.0,7.0,0.0,,,,,,,,,,,,,gelb,blue,b,0.0,b,1.0,0.5252839999739081,,,,,,,,,,0.0,7.0,7.0,9.0,189.36711829993877,,,,,,,,,,,,,,,,,189.35212019993924,189.4673538999632,190.26829989999533,190.252633899916,,,,,,,,,,,,,,,,,,,,,,,,,,,,,,,,,,,190.2549107000232,190.26829989999533,190.26829989999533,190.80358459986743,b,1.0,0.5252839999739081,,,,,sub-174,1,stroop_test,59.70519955829493,
,,,,8.0,8.0,0.0,,,,,,,,,,,,,rot,red,r,1.0,r,1.0,0.6175764000508934,,,,,,,,,,0.0,8.0,8.0,0.0,190.81822360004296,,,,,,,,,,,,,,,,,190.80391349992715,190.9186950000003,191.7203801998403,191.70439189998436,,,,,,,,,,,,,,,,,,,,,,,,,,,,,,,,,,,191.70763349998745,191.7203801998403,191.7203801998403,192.33968569990247,r,1.0,0.6175764000508934,,,,,sub-174,1,stroop_test,59.70519955829493,
,,,,9.0,9.0,0.0,,,,,,,,,,,,,blau,blue,b,1.0,b,1.0,0.7960258000530303,,,,,,,,,,0.0,9.0,9.0,6.0,192.35503189987503,,,,,,,,,,,,,,,,,192.3401027000509,193.13854109984825,193.94023039983583,193.92490709992128,,,,,,,,,,,,,,,,,,,,,,,,,,,,,,,,,,,193.92712699994445,193.94023039983583,193.94023039983583,194.74320499994792,b,1.0,0.7960258000530303,,,,,sub-174,1,stroop_test,59.70519955829493,
,,,,10.0,10.0,0.0,,,,,,,,,,,,,gelb,yellow,g,1.0,g,1.0,0.5157970001455396,,,,,,,,,,0.0,10.0,10.0,11.0,194.75830949982628,,,,,,,,,,,,,,,,,194.74361829995175,195.9439244000241,196.74392859986983,196.72762589994815,,,,,,,,,,,,,,,,,,,,,,,,,,,,,,,,,,,196.73040329990909,196.74392859986983,196.74392859986983,197.263470799895,g,1.0,0.5157970001455396,,,,,sub-174,1,stroop_test,59.70519955829493,
,,,,11.0,11.0,0.0,,,,,,,,,,,,,rot,yellow,g,0.0,g,1.0,0.5792696999851614,,,,,,,,,,0.0,11.0,11.0,3.0,197.27891869982705,,,,,,,,,,,,,,,,,197.26388500002213,198.46386979985985,199.26526149990968,199.2495841998607,,,,,,,,,,,,,,,,,,,,,,,,,,,,,,,,,,,199.25233899988237,199.26526149990968,199.26526149990968,199.8509839999024,g,1.0,0.5792696999851614,,,,,sub-174,1,stroop_test,59.70519955829493,
,,,,12.0,0.0,1.0,,,,,,,,,,,,,rot,red,r,1.0,r,1.0,0.4066810999065637,,,,,,,,,,1.0,0.0,12.0,0.0,199.86579599999823,,,,,,,,,,,,,,,,,199.8513274998404,200.19995329994708,201.0018863000441,200.98577230004597,,,,,,,,,,,,,,,,,,,,,,,,,,,,,,,,,,,200.98626150004569,201.0018863000441,201.0018863000441,201.42015250003897,r,1.0,0.4066810999065637,,,,,sub-174,1,stroop_test,59.70519955829493,
,,,,13.0,1.0,1.0,,,,,,,,,,,,,rot,yellow,g,0.0,g,1.0,0.5918310000561178,,,,,,,,,,1.0,1.0,13.0,3.0,201.4357646999415,,,,,,,,,,,,,,,,,201.42047149990685,201.78575220005587,202.58728819992396,202.5713491998613,,,,,,,,,,,,,,,,,,,,,,,,,,,,,,,,,,,202.5717712000478,202.58728819992396,202.58728819992396,203.1887894999236,g,1.0,0.5918310000561178,,,,,sub-174,1,stroop_test,59.70519955829493,
,,,,14.0,2.0,1.0,,,,,,,,,,,,,blau,red,r,0.0,r,1.0,0.6566602000966668,,,,,,,,,,1.0,2.0,14.0,4.0,203.2046925998293,,,,,,,,,,,,,,,,,203.18911150004715,203.5388623999897,204.33970030001365,204.3235301000532,,,,,,,,,,,,,,,,,,,,,,,,,,,,,,,,,,,204.32597099989653,204.33970030001365,204.33970030001365,205.0087937000208,r,1.0,0.6566602000966668,,,,,sub-174,1,stroop_test,59.70519955829493,
,,,,15.0,3.0,1.0,,,,,,,,,,,,,blau,yellow,g,0.0,g,1.0,0.7218543000053614,,,,,,,,,,1.0,3.0,15.0,7.0,205.02440839982592,,,,,,,,,,,,,,,,,205.009111299878,205.80884839990176,206.60882299998772,206.59432090003972,,,,,,,,,,,,,,,,,,,,,,,,,,,,,,,,,,,206.5948146998417,206.60882299998772,206.60882299998772,207.3446934998501,g,1.0,0.7218543000053614,,,,,sub-174,1,stroop_test,59.70519955829493,
,,,,16.0,4.0,1.0,,,,,,,,,,,,,gelb,yellow,g,1.0,g,1.0,0.4812002000398934,,,,,,,,,,1.0,4.0,16.0,11.0,207.3600397000555,,,,,,,,,,,,,,,,,207.3452143999748,208.14473790000196,208.94685479998589,208.93026999989524,,,,,,,,,,,,,,,,,,,,,,,,,,,,,,,,,,,208.93310669995844,208.94685479998589,208.94685479998589,209.43268699990583,g,1.0,0.4812002000398934,,,,,sub-174,1,stroop_test,59.70519955829493,
,,,,17.0,5.0,1.0,,,,,,,,,,,,,gelb,yellow,g,1.0,g,1.0,0.6011534000281245,,,,,,,,,,1.0,5.0,17.0,10.0,209.4476054999977,,,,,,,,,,,,,,,,,209.43301229993813,209.5467701999005,210.34906429983675,210.33345000003465,,,,,,,,,,,,,,,,,,,,,,,,,,,,,,,,,,,210.33387549989857,210.34906429983675,210.34906429983675,210.9666801998392,g,1.0,0.6011534000281245,,,,,sub-174,1,stroop_test,59.70519955829493,
,,,,18.0,6.0,1.0,,,,,,,,,,,,,rot,red,r,1.0,r,1.0,0.5247047999873757,,,,,,,,,,1.0,6.0,18.0,1.0,210.982677699998,,,,,,,,,,,,,,,,,210.96699570002968,211.31767409993336,212.1173145000357,212.10255069984123,,,,,,,,,,,,,,,,,,,,,,,,,,,,,,,,,,,212.10483890003525,212.1173145000357,212.1173145000357,212.65394470002505,r,1.0,0.5247047999873757,,,,,sub-174,1,stroop_test,59.70519955829493,
,,,,19.0,7.0,1.0,,,,,,,,,,,,,gelb,blue,b,0.0,b,1.0,0.3728717002086341,,,,,,,,,,1.0,7.0,19.0,9.0,212.66941979993132,,,,,,,,,,,,,,,,,212.6542680999264,213.45396389998496,214.25480440002863,214.23872100003064,,,,,,,,,,,,,,,,,,,,,,,,,,,,,,,,,,,214.24105049995703,214.25480440002863,214.25480440002863,214.63985399995,b,1.0,0.3728717002086341,,,,,sub-174,1,stroop_test,59.70519955829493,
,,,,20.0,8.0,1.0,,,,,,,,,,,,,blau,blue,b,1.0,b,1.0,0.4104464999400079,,,,,,,,,,1.0,8.0,20.0,6.0,214.65533489990048,,,,,,,,,,,,,,,,,214.64018239988943,215.8411012999713,216.6422325000167,216.62588329985735,,,,,,,,,,,,,,,,,,,,,,,,,,,,,,,,,,,216.6282681999728,216.6422325000167,216.6422325000167,217.05964639992453,b,1.0,0.4104464999400079,,,,,sub-174,1,stroop_test,59.70519955829493,
,,,,21.0,9.0,1.0,,,,,,,,,,,,,blau,blue,b,1.0,b,1.0,0.4361823999788612,,,,,,,,,,1.0,9.0,21.0,5.0,217.0747195999138,,,,,,,,,,,,,,,,,217.0600531999953,217.4252875999082,218.2276089999359,218.21186409983784,,,,,,,,,,,,,,,,,,,,,,,,,,,,,,,,,,,218.21236269990916,218.2276089999359,218.2276089999359,218.6802056999877,b,1.0,0.4361823999788612,,,,,sub-174,1,stroop_test,59.70519955829493,
,,,,22.0,10.0,1.0,,,,,,,,,,,,,rot,blue,b,0.0,b,1.0,0.3923445998225361,,,,,,,,,,1.0,10.0,22.0,2.0,218.6947335998993,,,,,,,,,,,,,,,,,218.68061719997783,219.04477439983748,219.84686149982736,219.8311115000397,,,,,,,,,,,,,,,,,,,,,,,,,,,,,,,,,,,219.8333749999292,219.84686149982736,219.84686149982736,220.2488559000194,b,1.0,0.3923445998225361,,,,,sub-174,1,stroop_test,59.70519955829493,
,,,,23.0,11.0,1.0,,,,,,,,,,,,,gelb,red,r,0.0,r,1.0,0.7248157998546958,,,,,,,,,,1.0,11.0,23.0,8.0,220.2640980000142,,,,,,,,,,,,,,,,,220.24918539985083,220.36406249995343,221.16552989999764,221.14965280005708,,,,,,,,,,,,,,,,,,,,,,,,,,,,,,,,,,,221.15244739991613,221.16552989999764,221.16552989999764,221.90119919995777,r,1.0,0.7248157998546958,,,,,sub-174,1,stroop_test,59.70519955829493,
,,,,24.0,0.0,2.0,,,,,,,,,,,,,rot,blue,b,0.0,b,1.0,0.6812716999556869,,,,,,,,,,2.0,0.0,24.0,2.0,221.9167404999025,,,,,,,,,,,,,,,,,221.9015277000144,222.7006718998309,223.50230919988823,223.48645029985343,,,,,,,,,,,,,,,,,,,,,,,,,,,,,,,,,,,223.48872499982824,223.50230919988823,223.50230919988823,224.1881385999732,b,1.0,0.6812716999556869,,,,,sub-174,1,stroop_test,59.70519955829493,
,,,,25.0,1.0,2.0,,,,,,,,,,,,,blau,yellow,g,0.0,r,0.0,0.4485563000198453,,,,,,,,,,2.0,1.0,25.0,7.0,224.20272929989733,,,,,,,,,,,,,,,,,224.18847289984117,224.55457939999175,225.3550535000395,225.3389476998709,,,,,,,,,,,,,,,,,,,,,,,,,,,,,,,,,,,225.3412146999035,225.3550535000395,225.3550535000395,225.8067761999555,r,0.0,0.4485563000198453,,,,,sub-174,1,stroop_test,59.70519955829493,
,,,,26.0,2.0,2.0,,,,,,,,,,,,,rot,red,r,1.0,r,1.0,0.5141835999675095,,,,,,,,,,2.0,2.0,26.0,0.0,225.8225161000155,,,,,,,,,,,,,,,,,225.8071116998326,226.605956699932,227.4072571999859,227.39096320001408,,,,,,,,,,,,,,,,,,,,,,,,,,,,,,,,,,,227.3937792999204,227.4072571999859,227.4072571999859,227.9266468998976,r,1.0,0.5141835999675095,,,,,sub-174,1,stroop_test,59.70519955829493,
,,,,27.0,3.0,2.0,,,,,,,,,,,,,rot,yellow,g,0.0,g,1.0,0.6067938001360744,,,,,,,,,,2.0,3.0,27.0,3.0,227.9419537000358,,,,,,,,,,,,,,,,,227.9269979000092,228.7272749999538,229.52759309997785,229.5117246999871,,,,,,,,,,,,,,,,,,,,,,,,,,,,,,,,,,,229.5122471000068,229.52759309997785,229.52759309997785,230.14703949983232,g,1.0,0.6067938001360744,,,,,sub-174,1,stroop_test,59.70519955829493,
,,,,28.0,4.0,2.0,,,,,,,,,,,,,gelb,yellow,g,1.0,g,1.0,0.5461663999594748,,,,,,,,,,2.0,4.0,28.0,10.0,230.16153849987316,,,,,,,,,,,,,,,,,230.1473663998768,230.26267099985853,231.0639809998684,231.0482329998631,,,,,,,,,,,,,,,,,,,,,,,,,,,,,,,,,,,231.0507571999915,231.0639809998684,231.0639809998684,231.61588069982827,g,1.0,0.5461663999594748,,,,,sub-174,1,stroop_test,59.70519955829493,
,,,,29.0,5.0,2.0,,,,,,,,,,,,,blau,blue,b,1.0,b,1.0,0.5662656999193132,,,,,,,,,,2.0,5.0,29.0,6.0,231.6306856998708,,,,,,,,,,,,,,,,,231.61620699986813,232.414959799964,233.21655189991,233.20139679987915,,,,,,,,,,,,,,,,,,,,,,,,,,,,,,,,,,,233.2042264000047,233.21655189991,233.21655189991,233.78562540002167,b,1.0,0.5662656999193132,,,,,sub-174,1,stroop_test,59.70519955829493,
,,,,30.0,6.0,2.0,,,,,,,,,,,,,blau,red,r,0.0,r,1.0,0.6631112999748439,,,,,,,,,,2.0,6.0,30.0,4.0,233.80075960000977,,,,,,,,,,,,,,,,,233.78594359988347,233.8846716999542,234.68595419987105,234.66985229984857,,,,,,,,,,,,,,,,,,,,,,,,,,,,,,,,,,,234.67032339982688,234.68595419987105,234.68595419987105,235.3545726998709,r,1.0,0.6631112999748439,,,,,sub-174,1,stroop_test,59.70519955829493,
,,,,31.0,7.0,2.0,,,,,,,,,,,,,gelb,red,r,0.0,r,1.0,0.792438100092113,,,,,,,,,,2.0,7.0,31.0,8.0,235.37035340000875,,,,,,,,,,,,,,,,,235.35490039992143,236.1548468999099,236.95557059999555,236.9394507999532,,,,,,,,,,,,,,,,,,,,,,,,,,,,,,,,,,,236.94305270002224,236.95557059999555,236.95557059999555,237.7574491999112,r,1.0,0.792438100092113,,,,,sub-174,1,stroop_test,59.70519955829493,
,,,,32.0,8.0,2.0,,,,,,,,,,,,,gelb,yellow,g,1.0,g,1.0,0.6237584999762475,,,,,,,,,,2.0,8.0,32.0,11.0,237.77384399995208,,,,,,,,,,,,,,,,,237.7578413998708,238.10817410005257,238.90860159997828,238.8929198998958,,,,,,,,,,,,,,,,,,,,,,,,,,,,,,,,,,,238.893426500028,238.90860159997828,238.90860159997828,239.5444016000256,g,1.0,0.6237584999762475,,,,,sub-174,1,stroop_test,59.70519955829493,
,,,,33.0,9.0,2.0,,,,,,,,,,,,,blau,blue,b,1.0,b,1.0,0.6693933999631554,,,,,,,,,,2.0,9.0,33.0,5.0,239.55937090003863,,,,,,,,,,,,,,,,,239.54481799993664,239.6435165998992,240.44474419998005,240.42903520003887,,,,,,,,,,,,,,,,,,,,,,,,,,,,,,,,,,,240.4319158999715,240.44474419998005,240.44474419998005,241.1293951999396,b,1.0,0.6693933999631554,,,,,sub-174,1,stroop_test,59.70519955829493,
,,,,34.0,10.0,2.0,,,,,,,,,,,,,gelb,blue,b,0.0,b,1.0,1.1057351001072675,,,,,,,,,,2.0,10.0,34.0,9.0,241.145892099943,,,,,,,,,,,,,,,,,241.129711400019,241.22992859990336,242.03073040000163,242.0147416999098,,,,,,,,,,,,,,,,,,,,,,,,,,,,,,,,,,,242.0176269998774,242.03073040000163,242.03073040000163,243.15011999988928,b,1.0,1.1057351001072675,,,,,sub-174,1,stroop_test,59.70519955829493,
,,,,35.0,11.0,2.0,,,,,,,,,,,,,rot,red,r,1.0,r,1.0,0.7715715998783708,,,,,,,,,,2.0,11.0,35.0,1.0,243.164433500031,,,,,,,,,,,,,,,,,243.1504583999049,244.35066169989292,245.15186239988543,245.13607049989517,,,,,,,,,,,,,,,,,,,,,,,,,,,,,,,,,,,245.1383225999307,245.15186239988543,245.15186239988543,245.9371203999035,r,1.0,0.7715715998783708,,,,,sub-174,1,stroop_test,59.70519955829493,
,,,,36.0,0.0,3.0,,,,,,,,,,,,,rot,red,r,1.0,r,1.0,0.6278862999752164,,,,,,,,,,3.0,0.0,36.0,0.0,245.95285749994216,,,,,,,,,,,,,,,,,245.93753949995155,246.03618259984069,246.83792209997773,246.82222099998037,,,,,,,,,,,,,,,,,,,,,,,,,,,,,,,,,,,246.82266289996917,246.83792209997773,246.83792209997773,247.4728782998864,r,1.0,0.6278862999752164,,,,,sub-174,1,stroop_test,59.70519955829493,
,,,,37.0,1.0,3.0,,,,,,,,,,,,,blau,blue,b,1.0,b,1.0,0.5863954999949783,,,,,,,,,,3.0,1.0,37.0,5.0,247.4878342000302,,,,,,,,,,,,,,,,,247.47328429995105,248.2732738999184,249.07450470002368,249.05865249992348,,,,,,,,,,,,,,,,,,,,,,,,,,,,,,,,,,,249.0614620000124,249.07450470002368,249.07450470002368,249.67639359994791,b,1.0,0.5863954999949783,,,,,sub-174,1,stroop_test,59.70519955829493,
,,,,38.0,2.0,3.0,,,,,,,,,,,,,rot,blue,b,0.0,b,1.0,0.5989200999028981,,,,,,,,,,3.0,2.0,38.0,2.0,249.6911625999492,,,,,,,,,,,,,,,,,249.6767114000395,249.77567459992133,250.5767595998477,250.56078489986248,,,,,,,,,,,,,,,,,,,,,,,,,,,,,,,,,,,250.5636729998514,250.5767595998477,250.5767595998477,251.17854540003464,b,1.0,0.5989200999028981,,,,,sub-174,1,stroop_test,59.70519955829493,
,,,,39.0,3.0,3.0,,,,,,,,,,,,,blau,yellow,g,0.0,g,1.0,0.8154378000181168,,,,,,,,,,3.0,3.0,39.0,7.0,251.19444329990077,,,,,,,,,,,,,,,,,251.17896259995177,251.52813249989413,252.32939790003,252.3135337999556,,,,,,,,,,,,,,,,,,,,,,,,,,,,,,,,,,,252.31634070002477,252.32939790003,252.32939790003,253.1481597998645,g,1.0,0.8154378000181168,,,,,sub-174,1,stroop_test,59.70519955829493,
,,,,40.0,4.0,3.0,,,,,,,,,,,,,gelb,blue,b,0.0,b,1.0,1.475182699970901,,,,,,,,,,3.0,4.0,40.0,9.0,253.1646467000246,,,,,,,,,,,,,,,,,253.14856390003115,253.9485577000305,254.7496406999417,254.73379299999212,,,,,,,,,,,,,,,,,,,,,,,,,,,,,,,,,,,254.73673220002087,254.7496406999417,254.7496406999417,256.2363352999091,b,1.0,1.475182699970901,,,,,sub-174,1,stroop_test,59.70519955829493,
,,,,41.0,5.0,3.0,,,,,,,,,,,,,blau,blue,b,1.0,b,1.0,0.5124737001024187,,,,,,,,,,3.0,5.0,41.0,6.0,256.25230379984714,,,,,,,,,,,,,,,,,256.2366583000403,256.3352502998896,257.13593719992787,257.1211363999173,,,,,,,,,,,,,,,,,,,,,,,,,,,,,,,,,,,257.12405649991706,257.13593719992787,257.13593719992787,257.6540466998704,b,1.0,0.5124737001024187,,,,,sub-174,1,stroop_test,59.70519955829493,
,,,,42.0,6.0,3.0,,,,,,,,,,,,,gelb,yellow,g,1.0,g,1.0,0.562318200012669,,,,,,,,,,3.0,6.0,42.0,11.0,257.6698473999277,,,,,,,,,,,,,,,,,257.6543695998844,258.45562829985283,259.25645789993,259.24115350004286,,,,,,,,,,,,,,,,,,,,,,,,,,,,,,,,,,,259.2441048999317,259.25645789993,259.25645789993,259.8254970998969,g,1.0,0.562318200012669,,,,,sub-174,1,stroop_test,59.70519955829493,
,,,,43.0,7.0,3.0,,,,,,,,,,,,,rot,yellow,g,0.0,g,1.0,0.8406591999810189,,,,,,,,,,3.0,7.0,43.0,3.0,259.84100969997235,,,,,,,,,,,,,,,,,259.8259073998779,259.94081309996545,260.74239639984444,260.72635510005057,,,,,,,,,,,,,,,,,,,,,,,,,,,,,,,,,,,260.7285427998286,260.74239639984444,260.74239639984444,261.5950313999783,g,1.0,0.8406591999810189,,,,,sub-174,1,stroop_test,59.70519955829493,
,,,,44.0,8.0,3.0,,,,,,,,,,,,,gelb,yellow,g,1.0,g,1.0,0.4785700000356883,,,,,,,,,,3.0,8.0,44.0,10.0,261.6097601999063,,,,,,,,,,,,,,,,,261.5953509998508,261.7104319999926,262.5118609999772,262.4956840998493,,,,,,,,,,,,,,,,,,,,,,,,,,,,,,,,,,,262.4992402999196,262.5118609999772,262.5118609999772,262.997324799886,g,1.0,0.4785700000356883,,,,,sub-174,1,stroop_test,59.70519955829493,
,,,,45.0,9.0,3.0,,,,,,,,,,,,,rot,red,r,1.0,r,1.0,0.6238188999705017,,,,,,,,,,3.0,9.0,45.0,1.0,263.01236899988726,,,,,,,,,,,,,,,,,262.99773599999025,263.3631587999407,264.16459889989346,264.1486816999968,,,,,,,,,,,,,,,,,,,,,,,,,,,,,,,,,,,264.1510937998537,264.16459889989346,264.16459889989346,264.79979839990847,r,1.0,0.6238188999705017,,,,,sub-174,1,stroop_test,59.70519955829493,
,,,,46.0,10.0,3.0,,,,,,,,,,,,,blau,red,r,0.0,r,1.0,1.0642746000085026,,,,,,,,,,3.0,10.0,46.0,4.0,264.81490550003946,,,,,,,,,,,,,,,,,264.8002090000082,265.14894860005006,265.9501477999147,265.9347671000287,,,,,,,,,,,,,,,,,,,,,,,,,,,,,,,,,,,265.93702950002626,265.9501477999147,265.9501477999147,267.01935620000586,r,1.0,1.0642746000085026,,,,,sub-174,1,stroop_test,59.70519955829493,
,,,,47.0,11.0,3.0,,,,,,,,,,,,,gelb,red,r,0.0,r,1.0,0.440688099944964,,,,,,,,,,3.0,11.0,47.0,8.0,267.0346289000008,,,,,,,,,,,,,,,,,267.0197264999151,267.3687907999847,268.16985159995966,268.1533092998434,,,,,,,,,,,,,,,,,,,,,,,,,,,,,,,,,,,268.1561809000559,268.16985159995966,268.16985159995966,268.6222287998535,r,1.0,0.440688099944964,,,,,sub-174,1,stroop_test,59.70519955829493,
,,,,48.0,0.0,4.0,,,,,,,,,,,,,blau,red,r,0.0,r,1.0,0.4199345000088215,,,,,,,,,,4.0,0.0,48.0,4.0,268.63764559989795,,,,,,,,,,,,,,,,,268.6226375999395,268.97200559987687,269.77252250001766,269.7568528999109,,,,,,,,,,,,,,,,,,,,,,,,,,,,,,,,,,,269.7598168000113,269.77252250001766,269.77252250001766,270.2079745999072,r,1.0,0.4199345000088215,,,,,sub-174,1,stroop_test,59.70519955829493,
,,,,49.0,1.0,4.0,,,,,,,,,,,,,gelb,blue,b,0.0,g,0.0,0.5961347001139075,,,,,,,,,,4.0,1.0,49.0,9.0,270.22295630001463,,,,,,,,,,,,,,,,,270.20838189986534,270.3231438999064,271.1238040998578,271.1093407999724,,,,,,,,,,,,,,,,,,,,,,,,,,,,,,,,,,,271.1122254000511,271.1238040998578,271.1238040998578,271.7267630000133,g,0.0,0.5961347001139075,,,,,sub-174,1,stroop_test,59.70519955829493,
,,,,50.0,2.0,4.0,,,,,,,,,,,,,gelb,yellow,g,1.0,g,1.0,0.8675784999504685,,,,,,,,,,4.0,2.0,50.0,10.0,271.74242849997245,,,,,,,,,,,,,,,,,271.7271675998345,272.9274530999828,273.72862489987165,273.71330129983835,,,,,,,,,,,,,,,,,,,,,,,,,,,,,,,,,,,273.71375639992766,273.72862489987165,273.72862489987165,274.5982979999389,g,1.0,0.8675784999504685,,,,,sub-174,1,stroop_test,59.70519955829493,
,,,,51.0,3.0,4.0,,,,,,,,,,,,,blau,yellow,g,0.0,g,1.0,0.5422944999299943,,,,,,,,,,4.0,3.0,51.0,7.0,274.61285499995574,,,,,,,,,,,,,,,,,274.59862710000016,275.7985880000051,276.5998835999053,276.5839918998536,,,,,,,,,,,,,,,,,,,,,,,,,,,,,,,,,,,276.5870340999681,276.5998835999053,276.5998835999053,277.1513807999436,g,1.0,0.5422944999299943,,,,,sub-174,1,stroop_test,59.70519955829493,
,,,,52.0,4.0,4.0,,,,,,,,,,,,,blau,blue,b,1.0,b,1.0,0.7167560998350382,,,,,,,,,,4.0,4.0,52.0,5.0,277.1678830999881,,,,,,,,,,,,,,,,,277.15170559985563,277.2504381998442,278.0521716000512,278.03618789999746,,,,,,,,,,,,,,,,,,,,,,,,,,,,,,,,,,,278.03659819997847,278.0521716000512,278.0521716000512,278.77107420004904,b,1.0,0.7167560998350382,,,,,sub-174,1,stroop_test,59.70519955829493,
,,,,53.0,5.0,4.0,,,,,,,,,,,,,blau,blue,b,1.0,b,1.0,0.4996354000177234,,,,,,,,,,4.0,5.0,53.0,6.0,278.7866145998705,,,,,,,,,,,,,,,,,278.7713961000554,279.9716634999495,280.77263220003806,280.7567576000001,,,,,,,,,,,,,,,,,,,,,,,,,,,,,,,,,,,280.7572269998491,280.77263220003806,280.77263220003806,281.2747565000318,b,1.0,0.4996354000177234,,,,,sub-174,1,stroop_test,59.70519955829493,
,,,,54.0,6.0,4.0,,,,,,,,,,,,,rot,yellow,g,0.0,g,1.0,0.817263700067997,,,,,,,,,,4.0,6.0,54.0,3.0,281.29028229997493,,,,,,,,,,,,,,,,,281.27506889984943,281.37358359992504,282.1749833000358,282.158715599915,,,,,,,,,,,,,,,,,,,,,,,,,,,,,,,,,,,282.16135609988123,282.1749833000358,282.1749833000358,282.9945636000484,g,1.0,0.817263700067997,,,,,sub-174,1,stroop_test,59.70519955829493,
,,,,55.0,7.0,4.0,,,,,,,,,,,,,gelb,yellow,g,1.0,g,1.0,0.4385784999467432,,,,,,,,,,4.0,7.0,55.0,11.0,283.0094643998891,,,,,,,,,,,,,,,,,282.9948791998904,283.7942474000156,284.5950541999191,284.57853930001147,,,,,,,,,,,,,,,,,,,,,,,,,,,,,,,,,,,284.5810948999133,284.5950541999191,284.5950541999191,285.0468319999054,g,1.0,0.4385784999467432,,,,,sub-174,1,stroop_test,59.70519955829493,
,,,,56.0,8.0,4.0,,,,,,,,,,,,,rot,red,r,1.0,r,1.0,0.6033261001575738,,,,,,,,,,4.0,8.0,56.0,1.0,285.0631764999125,,,,,,,,,,,,,,,,,285.04715400002897,285.14610649994574,285.9473828000482,285.93140059988946,,,,,,,,,,,,,,,,,,,,,,,,,,,,,,,,,,,285.93381770001724,285.9473828000482,285.9473828000482,286.56635849992745,r,1.0,0.6033261001575738,,,,,sub-174,1,stroop_test,59.70519955829493,
,,,,57.0,9.0,4.0,,,,,,,,,,,,,rot,red,r,1.0,r,1.0,0.6376439998857677,,,,,,,,,,4.0,9.0,57.0,0.0,286.58144249999896,,,,,,,,,,,,,,,,,286.5666817999445,286.6819672000129,287.4828263998497,287.46769419987686,,,,,,,,,,,,,,,,,,,,,,,,,,,,,,,,,,,287.46833979990333,287.4828263998497,287.4828263998497,288.1338645999785,r,1.0,0.6376439998857677,,,,,sub-174,1,stroop_test,59.70519955829493,
,,,,58.0,10.0,4.0,,,,,,,,,,,,,rot,blue,b,0.0,b,1.0,1.1540302999783307,,,,,,,,,,4.0,10.0,58.0,2.0,288.14984930003993,,,,,,,,,,,,,,,,,288.1342768999748,288.9354505999945,289.7364235999994,289.7211615999695,,,,,,,,,,,,,,,,,,,,,,,,,,,,,,,,,,,289.721630099928,289.7364235999994,289.7364235999994,290.90592910000123,b,1.0,1.1540302999783307,,,,,sub-174,1,stroop_test,59.70519955829493,
,,,,59.0,11.0,4.0,,,,,,,,,,,,,gelb,red,r,0.0,r,1.0,0.8679380998946726,,,,,,,,,,4.0,11.0,59.0,8.0,290.92054449999705,,,,,,,,,,,,,,,,,290.9063353999518,291.02169770002365,291.8230101999361,291.8064302999992,,,,,,,,,,,,,,,,,,,,,,,,,,,,,,,,,,,291.8089178998489,291.8230101999361,291.8230101999361,292.69242600002326,r,1.0,0.8679380998946726,,,,,sub-174,1,stroop_test,59.70519955829493,
,,,,60.0,0.0,5.0,,,,,,,,,,,,,gelb,yellow,g,1.0,g,1.0,0.5881548000033945,,,,,,,,,,5.0,0.0,60.0,11.0,292.706742499955,,,,,,,,,,,,,,,,,292.6927443998866,293.49232449987903,294.2933350999374,294.2776096998714,,,,,,,,,,,,,,,,,,,,,,,,,,,,,,,,,,,294.278020599857,294.2933350999374,294.2933350999374,294.8955322999973,g,1.0,0.5881548000033945,,,,,sub-174,1,stroop_test,59.70519955829493,
,,,,61.0,1.0,5.0,,,,,,,,,,,,,gelb,blue,b,0.0,b,1.0,0.7004263999406248,,,,,,,,,,5.0,1.0,61.0,9.0,294.9106347998604,,,,,,,,,,,,,,,,,294.8958677998744,295.2447557998821,296.04615759989247,296.0304225999862,,,,,,,,,,,,,,,,,,,,,,,,,,,,,,,,,,,296.03085029986687,296.04615759989247,296.04615759989247,296.74831920000724,b,1.0,0.7004263999406248,,,,,sub-174,1,stroop_test,59.70519955829493,
,,,,62.0,2.0,5.0,,,,,,,,,,,,,rot,red,r,1.0,r,1.0,0.589240400120616,,,,,,,,,,5.0,2.0,62.0,1.0,296.7630563999992,,,,,,,,,,,,,,,,,296.7486610999331,297.0978618999943,297.8992774998769,297.8813370000571,,,,,,,,,,,,,,,,,,,,,,,,,,,,,,,,,,,297.88471739995293,297.8992774998769,297.8992774998769,298.5003990000114,r,1.0,0.589240400120616,,,,,sub-174,1,stroop_test,59.70519955829493,
,,,,63.0,3.0,5.0,,,,,,,,,,,,,gelb,yellow,g,1.0,g,1.0,0.5332353999838233,,,,,,,,,,5.0,3.0,63.0,10.0,298.5166992999148,,,,,,,,,,,,,,,,,298.500730099855,298.8507631998509,299.6518300999888,299.63563399994746,,,,,,,,,,,,,,,,,,,,,,,,,,,,,,,,,,,299.63796169986017,299.6518300999888,299.6518300999888,300.1876705000177,g,1.0,0.5332353999838233,,,,,sub-174,1,stroop_test,59.70519955829493,
,,,,64.0,4.0,5.0,,,,,,,,,,,,,blau,yellow,g,0.0,g,1.0,0.5791218001395464,,,,,,,,,,5.0,4.0,64.0,7.0,300.2020349998493,,,,,,,,,,,,,,,,,300.18811720004305,300.3023131999653,301.1034115999937,301.08767080004327,,,,,,,,,,,,,,,,,,,,,,,,,,,,,,,,,,,301.08994579990394,301.1034115999937,301.1034115999937,301.6899013998918,g,1.0,0.5791218001395464,,,,,sub-174,1,stroop_test,59.70519955829493,
,,,,65.0,5.0,5.0,,,,,,,,,,,,,blau,red,r,0.0,b,0.0,0.4687463999725878,,,,,,,,,,5.0,5.0,65.0,4.0,301.70452139992267,,,,,,,,,,,,,,,,,301.69022580003366,301.8038343999069,302.6056554999668,302.5909460999537,,,,,,,,,,,,,,,,,,,,,,,,,,,,,,,,,,,302.59144019987434,302.6056554999668,302.6056554999668,303.08991519990377,b,0.0,0.4687463999725878,,,,,sub-174,1,stroop_test,59.70519955829493,
,,,,66.0,6.0,5.0,,,,,,,,,,,,,gelb,red,r,0.0,r,1.0,0.9642356999684124,,,,,,,,,,5.0,6.0,66.0,8.0,303.1062419000082,,,,,,,,,,,,,,,,,303.09022239991464,303.8904720998835,304.69216259988025,304.6770821998361,,,,,,,,,,,,,,,,,,,,,,,,,,,,,,,,,,,304.6794801999349,304.69216259988025,304.69216259988025,305.66215529991314,r,1.0,0.9642356999684124,,,,,sub-174,1,stroop_test,59.70519955829493,
,,,,67.0,7.0,5.0,,,,,,,,,,,,,rot,yellow,g,0.0,g,1.0,0.8038078998215497,,,,,,,,,,5.0,7.0,67.0,3.0,305.6772443000227,,,,,,,,,,,,,,,,,305.6624759999104,305.7767916999292,306.5795026998967,306.56237259996124,,,,,,,,,,,,,,,,,,,,,,,,,,,,,,,,,,,306.56458729994483,306.5795026998967,306.5795026998967,307.3980856998824,g,1.0,0.8038078998215497,,,,,sub-174,1,stroop_test,59.70519955829493,
,,,,68.0,8.0,5.0,,,,,,,,,,,,,blau,blue,b,1.0,b,1.0,0.6593206999823451,,,,,,,,,,5.0,8.0,68.0,6.0,307.4133868999779,,,,,,,,,,,,,,,,,307.39842340000905,307.7634534998797,308.5650929999538,308.5491875999141,,,,,,,,,,,,,,,,,,,,,,,,,,,,,,,,,,,308.5519697999116,308.5650929999538,308.5650929999538,309.2342621998396,b,1.0,0.6593206999823451,,,,,sub-174,1,stroop_test,59.70519955829493,
,,,,69.0,9.0,5.0,,,,,,,,,,,,,rot,blue,b,0.0,b,1.0,0.5296042999252677,,,,,,,,,,5.0,9.0,69.0,2.0,309.24917009985074,,,,,,,,,,,,,,,,,309.2346701999195,309.34946619998664,310.1503657998983,310.13505339995027,,,,,,,,,,,,,,,,,,,,,,,,,,,,,,,,,,,310.1394225000404,310.1503657998983,310.1503657998983,310.6861137000378,b,1.0,0.5296042999252677,,,,,sub-174,1,stroop_test,59.70519955829493,
,,,,70.0,10.0,5.0,,,,,,,,,,,,,blau,blue,b,1.0,b,1.0,0.4490212998352945,,,,,,,,,,5.0,10.0,70.0,5.0,310.7012519999407,,,,,,,,,,,,,,,,,310.68642819998786,311.05214399984106,311.8535559999291,311.8376760999672,,,,,,,,,,,,,,,,,,,,,,,,,,,,,,,,,,,311.8406332999002,311.8535559999291,311.8535559999291,312.30530050001107,b,1.0,0.4490212998352945,,,,,sub-174,1,stroop_test,59.70519955829493,
,,,,71.0,11.0,5.0,,,,,,,,,,,,,rot,red,r,1.0,g,0.0,0.4703387001063674,,,,,,,,,,5.0,11.0,71.0,0.0,312.32064769999124,,,,,,,,,,,,,,,,,312.30570949986577,312.6549281999469,313.45501159993,313.4398369998671,,,,,,,,,,,,,,,,,,,,,,,,,,,,,,,,,,,313.4426325999666,313.45501159993,313.45501159993,313.9415243999101,g,0.0,0.4703387001063674,,,,,sub-174,1,stroop_test,59.70519955829493,
,,,,72.0,0.0,6.0,,,,,,,,,,,,,rot,red,r,1.0,r,1.0,0.7739522000774741,,,,,,,,,,6.0,0.0,72.0,1.0,313.9567328998819,,,,,,,,,,,,,,,,,313.94193239999004,314.2907316999044,315.09134209994227,315.076191799948,,,,,,,,,,,,,,,,,,,,,,,,,,,,,,,,,,,315.0766979998443,315.09134209994227,315.09134209994227,315.8774080998264,r,1.0,0.7739522000774741,,,,,sub-174,1,stroop_test,59.70519955829493,
,,,,73.0,1.0,6.0,,,,,,,,,,,,,rot,red,r,1.0,r,1.0,0.5320101999677718,,,,,,,,,,6.0,1.0,73.0,0.0,315.8932787999511,,,,,,,,,,,,,,,,,315.87781740003265,316.22662009997293,317.0281775998883,317.01210869988427,,,,,,,,,,,,,,,,,,,,,,,,,,,,,,,,,,,317.01262389984913,317.0281775998883,317.0281775998883,317.5631387999747,r,1.0,0.5320101999677718,,,,,sub-174,1,stroop_test,59.70519955829493,
,,,,74.0,2.0,6.0,,,,,,,,,,,,,gelb,yellow,g,1.0,g,1.0,0.5879459001589566,,,,,,,,,,6.0,2.0,74.0,10.0,317.5784437998664,,,,,,,,,,,,,,,,,317.56346539990045,317.6790646999143,318.4796666998882,318.4643073999323,,,,,,,,,,,,,,,,,,,,,,,,,,,,,,,,,,,318.4672254999168,318.4796666998882,318.4796666998882,319.08115139999427,g,1.0,0.5879459001589566,,,,,sub-174,1,stroop_test,59.70519955829493,
,,,,75.0,3.0,6.0,,,,,,,,,,,,,blau,yellow,g,0.0,g,1.0,0.5345546999014914,,,,,,,,,,6.0,3.0,75.0,7.0,319.09706669999287,,,,,,,,,,,,,,,,,319.08145419997163,319.43088859994896,320.2326527000405,320.2173871998675,,,,,,,,,,,,,,,,,,,,,,,,,,,,,,,,,,,320.2198326999787,320.2326527000405,320.2326527000405,320.78347210003994,g,1.0,0.5345546999014914,,,,,sub-174,1,stroop_test,59.70519955829493,
,,,,76.0,4.0,6.0,,,,,,,,,,,,,gelb,red,r,0.0,r,1.0,0.898526799865067,,,,,,,,,,6.0,4.0,76.0,8.0,320.80051199998707,,,,,,,,,,,,,,,,,320.7838526999112,321.13411119999364,321.9348166999407,321.9197257000488,,,,,,,,,,,,,,,,,,,,,,,,,,,,,,,,,,,321.9232319998555,321.9348166999407,321.9348166999407,322.836814600043,r,1.0,0.898526799865067,,,,,sub-174,1,stroop_test,59.70519955829493,
,,,,77.0,5.0,6.0,,,,,,,,,,,,,blau,blue,b,1.0,b,1.0,0.5594564999919385,,,,,,,,,,6.0,5.0,77.0,6.0,322.8535066000186,,,,,,,,,,,,,,,,,322.83721140003763,323.1872300999239,323.98870830005035,323.9726753998548,,,,,,,,,,,,,,,,,,,,,,,,,,,,,,,,,,,323.974961000029,323.98870830005035,323.98870830005035,324.55761739984155,b,1.0,0.5594564999919385,,,,,sub-174,1,stroop_test,59.70519955829493,
,,,,78.0,6.0,6.0,,,,,,,,,,,,,gelb,yellow,g,1.0,g,1.0,0.5247684000059962,,,,,,,,,,6.0,6.0,78.0,11.0,324.5722862998955,,,,,,,,,,,,,,,,,324.5579578999896,324.9065276000183,325.70831609983,325.69235619995743,,,,,,,,,,,,,,,,,,,,,,,,,,,,,,,,,,,325.6947867998388,325.70831609983,325.70831609983,326.2433724999428,g,1.0,0.5247684000059962,,,,,sub-174,1,stroop_test,59.70519955829493,
,,,,79.0,7.0,6.0,,,,,,,,,,,,,gelb,blue,b,0.0,b,1.0,0.8956927000544965,,,,,,,,,,6.0,7.0,79.0,9.0,326.2588144999463,,,,,,,,,,,,,,,,,326.24378450005315,326.3584139000159,327.1600299999118,327.1439731998835,,,,,,,,,,,,,,,,,,,,,,,,,,,,,,,,,,,327.14448599983007,327.1600299999118,327.1600299999118,328.0630248999223,b,1.0,0.8956927000544965,,,,,sub-174,1,stroop_test,59.70519955829493,
,,,,80.0,8.0,6.0,,,,,,,,,,,,,blau,blue,b,1.0,b,1.0,0.5261882999911904,,,,,,,,,,6.0,8.0,80.0,5.0,328.0776398999151,,,,,,,,,,,,,,,,,328.0634492000099,329.2627367998939,330.0643523000181,330.0477263999637,,,,,,,,,,,,,,,,,,,,,,,,,,,,,,,,,,,330.0504608999472,330.0643523000181,330.0643523000181,330.6004850999452,b,1.0,0.5261882999911904,,,,,sub-174,1,stroop_test,59.70519955829493,
,,,,81.0,9.0,6.0,,,,,,,,,,,,,rot,yellow,g,0.0,g,1.0,1.6611587000079453,,,,,,,,,,6.0,9.0,81.0,3.0,330.6144063998945,,,,,,,,,,,,,,,,,330.600976199843,331.3994293999858,332.20064209983684,332.1850872999057,,,,,,,,,,,,,,,,,,,,,,,,,,,,,,,,,,,332.18784369993955,332.20064209983684,332.20064209983684,333.87143199983984,g,1.0,1.6611587000079453,,,,,sub-174,1,stroop_test,59.70519955829493,
,,,,82.0,10.0,6.0,,,,,,,,,,,,,blau,red,r,0.0,r,1.0,0.8499266998842359,,,,,,,,,,6.0,10.0,82.0,4.0,333.8866191999987,,,,,,,,,,,,,,,,,333.8718479999807,335.07180209993385,335.8737055999227,335.8573239999823,,,,,,,,,,,,,,,,,,,,,,,,,,,,,,,,,,,335.86017919983715,335.8737055999227,335.8737055999227,336.72627049987204,r,1.0,0.8499266998842359,,,,,sub-174,1,stroop_test,59.70519955829493,
,,,,83.0,11.0,6.0,,,,,,,,,,,,,rot,blue,b,0.0,b,1.0,0.6888055999297649,,,,,,,,,,6.0,11.0,83.0,2.0,336.7409009998664,,,,,,,,,,,,,,,,,336.7266932998318,336.8410044000484,337.64290109998547,337.6270798998885,,,,,,,,,,,,,,,,,,,,,,,,,,,,,,,,,,,337.6298095998354,337.64290109998547,337.64290109998547,338.3450580998324,b,1.0,0.6888055999297649,,,,,sub-174,1,stroop_test,59.70519955829493,
,,,,84.0,0.0,7.0,,,,,,,,,,,,,gelb,blue,b,0.0,b,1.0,0.5116022999864072,,,,,,,,,,7.0,0.0,84.0,9.0,338.360167699866,,,,,,,,,,,,,,,,,338.34538189996965,338.694416699931,339.4950256999582,339.4800499000121,,,,,,,,,,,,,,,,,,,,,,,,,,,,,,,,,,,339.48302479996346,339.4950256999582,339.4950256999582,340.0144199000206,b,1.0,0.5116022999864072,,,,,sub-174,1,stroop_test,59.70519955829493,
,,,,85.0,1.0,7.0,,,,,,,,,,,,,blau,blue,b,1.0,b,1.0,0.4776824000291526,,,,,,,,,,7.0,1.0,85.0,5.0,340.0296372999437,,,,,,,,,,,,,,,,,340.0148385998328,341.21492849988863,342.01618499984033,342.00065289996564,,,,,,,,,,,,,,,,,,,,,,,,,,,,,,,,,,,342.0035192000214,342.01618499984033,342.01618499984033,342.5010764000472,b,1.0,0.4776824000291526,,,,,sub-174,1,stroop_test,59.70519955829493,
,,,,86.0,2.0,7.0,,,,,,,,,,,,,blau,yellow,g,0.0,g,1.0,0.5804372997954488,,,,,,,,,,7.0,2.0,86.0,7.0,342.5168473999948,,,,,,,,,,,,,,,,,342.5014843000099,343.3010722999461,344.1025465000421,344.0866733000148,,,,,,,,,,,,,,,,,,,,,,,,,,,,,,,,,,,344.0870910999365,344.1025465000421,344.1025465000421,344.6871821999084,g,1.0,0.5804372997954488,,,,,sub-174,1,stroop_test,59.70519955829493,
,,,,87.0,3.0,7.0,,,,,,,,,,,,,gelb,red,r,0.0,r,1.0,0.8494285000488162,,,,,,,,,,7.0,3.0,87.0,8.0,344.7030028998852,,,,,,,,,,,,,,,,,344.6875026000198,344.7870278998744,345.5882116998546,345.5710138999857,,,,,,,,,,,,,,,,,,,,,,,,,,,,,,,,,,,345.57344159996137,345.5882116998546,345.5882116998546,346.4405439000111,r,1.0,0.8494285000488162,,,,,sub-174,1,stroop_test,59.70519955829493,
,,,,88.0,4.0,7.0,,,,,,,,,,,,,gelb,yellow,g,1.0,g,1.0,0.675277000060305,,,,,,,,,,7.0,4.0,88.0,11.0,346.4556350999046,,,,,,,,,,,,,,,,,346.4408747998532,347.64137359987944,348.44178489991464,348.4261425998993,,,,,,,,,,,,,,,,,,,,,,,,,,,,,,,,,,,348.4265662999824,348.44178489991464,348.44178489991464,349.12754289992154,g,1.0,0.675277000060305,,,,,sub-174,1,stroop_test,59.70519955829493,
,,,,89.0,5.0,7.0,,,,,,,,,,,,,rot,red,r,1.0,b,0.0,0.5382209999952465,,,,,,,,,,7.0,5.0,89.0,0.0,349.1438565000426,,,,,,,,,,,,,,,,,349.1278643999249,349.9269401000347,350.7294594999403,350.71354999998584,,,,,,,,,,,,,,,,,,,,,,,,,,,,,,,,,,,350.71575179998763,350.7294594999403,350.7294594999403,351.2814157998655,b,0.0,0.5382209999952465,,,,,sub-174,1,stroop_test,59.70519955829493,
,,,,90.0,6.0,7.0,,,,,,,,,,,,,blau,blue,b,1.0,b,1.0,0.8082974997814745,,,,,,,,,,7.0,6.0,90.0,6.0,351.296746699838,,,,,,,,,,,,,,,,,351.28173519996926,352.48196999984793,353.28284620004706,353.2671675998717,,,,,,,,,,,,,,,,,,,,,,,,,,,,,,,,,,,353.2701250000391,353.28284620004706,353.28284620004706,354.1025184998289,b,1.0,0.8082974997814745,,,,,sub-174,1,stroop_test,59.70519955829493,
,,,,91.0,7.0,7.0,,,,,,,,,,,,,rot,yellow,g,0.0,g,1.0,0.8460317000281066,,,,,,,,,,7.0,7.0,91.0,3.0,354.11823190003633,,,,,,,,,,,,,,,,,354.102840699954,354.21730969985947,355.01944309985265,355.00322299986146,,,,,,,,,,,,,,,,,,,,,,,,,,,,,,,,,,,355.0056328000501,355.01944309985265,355.01944309985265,355.8715382998344,g,1.0,0.8460317000281066,,,,,sub-174,1,stroop_test,59.70519955829493,
,,,,92.0,8.0,7.0,,,,,,,,,,,,,rot,red,r,1.0,r,1.0,0.695088200038299,,,,,,,,,,7.0,8.0,92.0,1.0,355.88724299985915,,,,,,,,,,,,,,,,,355.87185660004616,355.9706873998512,356.7708079000004,356.7554444000125,,,,,,,,,,,,,,,,,,,,,,,,,,,,,,,,,,,356.75587009987794,356.7708079000004,356.7708079000004,357.4739567998331,r,1.0,0.695088200038299,,,,,sub-174,1,stroop_test,59.70519955829493,
,,,,93.0,9.0,7.0,,,,,,,,,,,,,rot,blue,b,0.0,b,1.0,0.9012372000142932,,,,,,,,,,7.0,9.0,93.0,2.0,357.4886524998583,,,,,,,,,,,,,,,,,357.4742888999172,357.573061299976,358.3745291999076,358.3586510999594,,,,,,,,,,,,,,,,,,,,,,,,,,,,,,,,,,,358.3590682998765,358.3745291999076,358.3745291999076,359.2943406000268,b,1.0,0.9012372000142932,,,,,sub-174,1,stroop_test,59.70519955829493,
,,,,94.0,10.0,7.0,,,,,,,,,,,,,blau,red,r,0.0,r,1.0,0.7009707998950034,,,,,,,,,,7.0,10.0,94.0,4.0,359.3084144999739,,,,,,,,,,,,,,,,,359.29465439985506,360.4941124999896,361.29523399984464,361.27917069988325,,,,,,,,,,,,,,,,,,,,,,,,,,,,,,,,,,,361.2815400999971,361.29523399984464,361.29523399984464,361.997860699892,r,1.0,0.7009707998950034,,,,,sub-174,1,stroop_test,59.70519955829493,
,,,,95.0,11.0,7.0,,,,,,,,,,,,,gelb,yellow,g,1.0,g,1.0,0.7724878001026809,,,,,,,,,,7.0,11.0,95.0,10.0,362.0126193000469,,,,,,,,,,,,,,,,,361.99829069990665,362.346959099872,363.1479587999638,363.13192389998585,,,,,,,,,,,,,,,,,,,,,,,,,,,,,,,,,,,363.1342046000064,363.1479587999638,363.1479587999638,363.9325379000511,g,1.0,0.7724878001026809,,,,,sub-174,1,stroop_test,59.70519955829493,
,,,,96.0,0.0,8.0,,,,,,,,,,,,,rot,yellow,g,0.0,g,1.0,0.7681738999672234,,,,,,,,,,8.0,0.0,96.0,3.0,363.94938439992256,,,,,,,,,,,,,,,,,363.9328369998839,364.73293109983206,365.53518399992026,365.5190194000024,,,,,,,,,,,,,,,,,,,,,,,,,,,,,,,,,,,365.5217889000196,365.53518399992026,365.53518399992026,366.30468599987216,g,1.0,0.7681738999672234,,,,,sub-174,1,stroop_test,59.70519955829493,
,,,,97.0,1.0,8.0,,,,,,,,,,,,,blau,blue,b,1.0,b,1.0,0.7526765000075102,,,,,,,,,,8.0,1.0,97.0,6.0,366.3185356999748,,,,,,,,,,,,,,,,,366.3050052998588,367.1042816999834,367.9057601999957,367.889819300035,,,,,,,,,,,,,,,,,,,,,,,,,,,,,,,,,,,367.8925327998586,367.9057601999957,367.9057601999957,368.6737187998369,b,1.0,0.7526765000075102,,,,,sub-174,1,stroop_test,59.70519955829493,
,,,,98.0,2.0,8.0,,,,,,,,,,,,,gelb,blue,b,0.0,b,1.0,0.8904516999609768,,,,,,,,,,8.0,2.0,98.0,9.0,368.6897507999092,,,,,,,,,,,,,,,,,368.6740977000445,369.47459989995696,370.2754460999277,370.2597729000263,,,,,,,,,,,,,,,,,,,,,,,,,,,,,,,,,,,370.26234599994496,370.2754460999277,370.2754460999277,371.1780509999953,b,1.0,0.8904516999609768,,,,,sub-174,1,stroop_test,59.70519955829493,
,,,,99.0,3.0,8.0,,,,,,,,,,,,,blau,blue,b,1.0,b,1.0,0.5117975000757724,,,,,,,,,,8.0,3.0,99.0,5.0,371.1926378000062,,,,,,,,,,,,,,,,,371.1783705998678,372.37859999993816,373.1799101999495,373.16398660000414,,,,,,,,,,,,,,,,,,,,,,,,,,,,,,,,,,,373.1668066999409,373.1799101999495,373.1799101999495,373.6990958999377,b,1.0,0.5117975000757724,,,,,sub-174,1,stroop_test,59.70519955829493,
,,,,100.0,4.0,8.0,,,,,,,,,,,,,rot,blue,b,0.0,b,1.0,0.5298011999111623,,,,,,,,,,8.0,4.0,100.0,2.0,373.71409529983066,,,,,,,,,,,,,,,,,373.69942019996233,374.4984766000416,375.3002786999568,375.2845807999838,,,,,,,,,,,,,,,,,,,,,,,,,,,,,,,,,,,375.2868394998368,375.3002786999568,375.3002786999568,375.834375299979,b,1.0,0.5298011999111623,,,,,sub-174,1,stroop_test,59.70519955829493,
,,,,101.0,5.0,8.0,,,,,,,,,,,,,blau,yellow,g,0.0,g,1.0,0.6626676002051681,,,,,,,,,,8.0,5.0,101.0,7.0,375.8499106999952,,,,,,,,,,,,,,,,,375.83470889995806,377.0361974998377,377.8371065000538,377.82184119988233,,,,,,,,,,,,,,,,,,,,,,,,,,,,,,,,,,,377.8240946999285,377.8371065000538,377.8371065000538,378.5063570998609,g,1.0,0.6626676002051681,,,,,sub-174,1,stroop_test,59.70519955829493,
,,,,102.0,6.0,8.0,,,,,,,,,,,,,rot,red,r,1.0,r,1.0,0.9462464000098408,,,,,,,,,,8.0,6.0,102.0,0.0,378.5208170998376,,,,,,,,,,,,,,,,,378.5066974998917,379.70685279998,380.5069480999373,380.4905091000255,,,,,,,,,,,,,,,,,,,,,,,,,,,,,,,,,,,380.4928895998746,380.5069480999373,380.5069480999373,381.4609661998693,r,1.0,0.9462464000098408,,,,,sub-174,1,stroop_test,59.70519955829493,
,,,,103.0,7.0,8.0,,,,,,,,,,,,,gelb,red,r,0.0,r,1.0,0.820656199939549,,,,,,,,,,8.0,7.0,103.0,8.0,381.47573830001056,,,,,,,,,,,,,,,,,381.4613795999903,381.5761919999495,382.37744199996814,382.3618234000169,,,,,,,,,,,,,,,,,,,,,,,,,,,,,,,,,,,382.3653734999243,382.37744199996814,382.37744199996814,383.2138248998672,r,1.0,0.820656199939549,,,,,sub-174,1,stroop_test,59.70519955829493,
,,,,104.0,8.0,8.0,,,,,,,,,,,,,gelb,yellow,g,1.0,g,1.0,0.9504954000003636,,,,,,,,,,8.0,8.0,104.0,10.0,383.22868029982783,,,,,,,,,,,,,,,,,383.2142376999837,383.3286043999251,384.1298909999896,384.11477679992095,,,,,,,,,,,,,,,,,,,,,,,,,,,,,,,,,,,384.1152712998446,384.1298909999896,384.1298909999896,385.083180599846,g,1.0,0.9504954000003636,,,,,sub-174,1,stroop_test,59.70519955829493,
,,,,105.0,9.0,8.0,,,,,,,,,,,,,rot,red,r,1.0,r,1.0,0.6683318000286818,,,,,,,,,,8.0,9.0,105.0,1.0,385.0983363999985,,,,,,,,,,,,,,,,,385.0835863000248,386.2830709000118,387.08465019986033,387.068679299904,,,,,,,,,,,,,,,,,,,,,,,,,,,,,,,,,,,387.0714622000232,387.08465019986033,387.08465019986033,387.76910369982943,r,1.0,0.6683318000286818,,,,,sub-174,1,stroop_test,59.70519955829493,
,,,,106.0,10.0,8.0,,,,,,,,,,,,,blau,red,r,0.0,r,1.0,0.7199420998804271,,,,,,,,,,8.0,10.0,106.0,4.0,387.7845616999548,,,,,,,,,,,,,,,,,387.7694923998788,388.1195435000118,388.9207804000471,388.90493109985255,,,,,,,,,,,,,,,,,,,,,,,,,,,,,,,,,,,388.9072830998339,388.9207804000471,388.9207804000471,389.6562383000273,r,1.0,0.7199420998804271,,,,,sub-174,1,stroop_test,59.70519955829493,
,,,,107.0,11.0,8.0,,,,,,,,,,,,,gelb,yellow,g,1.0,b,0.0,0.7959644000511616,,,,,,,,,,8.0,11.0,107.0,11.0,389.67182409996167,,,,,,,,,,,,,,,,,389.65656029991806,390.0060365998652,390.8071287998464,390.7910114000552,,,,,,,,,,,,,,,,,,,,,,,,,,,,,,,,,,,390.79384829988703,390.8071287998464,390.8071287998464,391.60995680000633,b,0.0,0.7959644000511616,,,,,sub-174,1,stroop_test,59.70519955829493,
,,,,108.0,0.0,9.0,,,,,,,,,,,,,blau,blue,b,1.0,b,1.0,0.7092832999769598,,,,,,,,,,9.0,0.0,108.0,6.0,391.62396160000935,,,,,,,,,,,,,,,,,391.6103723999113,391.7249161000364,392.5265683999751,392.5109522000421,,,,,,,,,,,,,,,,,,,,,,,,,,,,,,,,,,,392.5139345000498,392.5265683999751,392.5265683999751,393.2452781999018,b,1.0,0.7092832999769598,,,,,sub-174,1,stroop_test,59.70519955829493,
,,,,109.0,1.0,9.0,,,,,,,,,,,,,gelb,blue,b,0.0,b,1.0,0.9333794999402016,,,,,,,,,,9.0,1.0,109.0,9.0,393.2605331998784,,,,,,,,,,,,,,,,,393.2456040000543,393.5943215999287,394.3956128999125,394.37957199988887,,,,,,,,,,,,,,,,,,,,,,,,,,,,,,,,,,,394.3824674999341,394.3956128999125,394.3956128999125,395.3313211998902,b,1.0,0.9333794999402016,,,,,sub-174,1,stroop_test,59.70519955829493,
,,,,110.0,2.0,9.0,,,,,,,,,,,,,blau,blue,b,1.0,b,1.0,0.5310603999532759,,,,,,,,,,9.0,2.0,110.0,5.0,395.3472038998734,,,,,,,,,,,,,,,,,395.3317306998652,396.5323753999546,397.3334208999295,397.3179515998345,,,,,,,,,,,,,,,,,,,,,,,,,,,,,,,,,,,397.3214300000109,397.3334208999295,397.3334208999295,397.8692723000422,b,1.0,0.5310603999532759,,,,,sub-174,1,stroop_test,59.70519955829493,
,,,,111.0,3.0,9.0,,,,,,,,,,,,,blau,red,r,0.0,r,1.0,1.265972000081092,,,,,,,,,,9.0,3.0,111.0,4.0,397.8838659999892,,,,,,,,,,,,,,,,,397.86967399995774,399.0852210999001,399.8872300998773,399.87143429997377,,,,,,,,,,,,,,,,,,,,,,,,,,,,,,,,,,,399.8718943998683,399.8872300998773,399.8872300998773,401.1569445000496,r,1.0,1.265972000081092,,,,,sub-174,1,stroop_test,59.70519955829493,
,,,,112.0,4.0,9.0,,,,,,,,,,,,,gelb,red,r,0.0,r,1.0,1.4548732000403106,,,,,,,,,,9.0,4.0,112.0,8.0,401.172118099872,,,,,,,,,,,,,,,,,401.1573740998283,401.25644370005466,402.0575096998364,402.0413319999352,,,,,,,,,,,,,,,,,,,,,,,,,,,,,,,,,,,402.04477599984966,402.0575096998364,402.0575096998364,403.52684349985793,r,1.0,1.4548732000403106,,,,,sub-174,1,stroop_test,59.70519955829493,
,,,,113.0,5.0,9.0,,,,,,,,,,,,,rot,yellow,g,0.0,g,1.0,0.6834262001793832,,,,,,,,,,9.0,5.0,113.0,3.0,403.5426338999532,,,,,,,,,,,,,,,,,403.5272802999243,403.877015999984,404.6780289998278,404.66209500003606,,,,,,,,,,,,,,,,,,,,,,,,,,,,,,,,,,,404.6646408999805,404.6780289998278,404.6780289998278,405.36397810000926,g,1.0,0.6834262001793832,,,,,sub-174,1,stroop_test,59.70519955829493,
,,,,114.0,6.0,9.0,,,,,,,,,,,,,gelb,yellow,g,1.0,g,1.0,1.3888789000920951,,,,,,,,,,9.0,6.0,114.0,11.0,405.37872729985975,,,,,,,,,,,,,,,,,405.36438949988224,405.47916379990056,406.2800970999524,406.2644060000312,,,,,,,,,,,,,,,,,,,,,,,,,,,,,,,,,,,406.266730299918,406.2800970999524,406.2800970999524,407.6839445999358,g,1.0,1.3888789000920951,,,,,sub-174,1,stroop_test,59.70519955829493,
,,,,115.0,7.0,9.0,,,,,,,,,,,,,blau,yellow,g,0.0,g,1.0,0.5599600998684764,,,,,,,,,,9.0,7.0,115.0,7.0,407.6995526999235,,,,,,,,,,,,,,,,,407.68436509999447,407.7814894998446,408.58399449987337,408.56812640000135,,,,,,,,,,,,,,,,,,,,,,,,,,,,,,,,,,,408.5705207998399,408.58399449987337,408.58399449987337,409.15289599983953,g,1.0,0.5599600998684764,,,,,sub-174,1,stroop_test,59.70519955829493,
,,,,116.0,8.0,9.0,,,,,,,,,,,,,rot,blue,b,0.0,b,1.0,0.7501419000327587,,,,,,,,,,9.0,8.0,116.0,2.0,409.1683026999235,,,,,,,,,,,,,,,,,409.15329990000464,410.3530234999489,411.1534869000316,411.1371577999089,,,,,,,,,,,,,,,,,,,,,,,,,,,,,,,,,,,411.1402791000437,411.1534869000316,411.1534869000316,411.9061964999418,b,1.0,0.7501419000327587,,,,,sub-174,1,stroop_test,59.70519955829493,
,,,,117.0,9.0,9.0,,,,,,,,,,,,,rot,red,r,1.0,r,1.0,0.840943899936974,,,,,,,,,,9.0,9.0,117.0,1.0,411.9216138999909,,,,,,,,,,,,,,,,,411.906632799888,412.2566172999796,413.0576035999693,413.0415162998252,,,,,,,,,,,,,,,,,,,,,,,,,,,,,,,,,,,413.0420087999664,413.0576035999693,413.0576035999693,413.909872499993,r,1.0,0.840943899936974,,,,,sub-174,1,stroop_test,59.70519955829493,
,,,,118.0,10.0,9.0,,,,,,,,,,,,,rot,red,r,1.0,r,1.0,0.5609533998649567,,,,,,,,,,9.0,10.0,118.0,0.0,413.92475779983215,,,,,,,,,,,,,,,,,413.91029599984176,414.02528229984455,414.82587879989296,414.81081449985504,,,,,,,,,,,,,,,,,,,,,,,,,,,,,,,,,,,414.81196319987066,414.82587879989296,414.82587879989296,415.3941299999133,r,1.0,0.5609533998649567,,,,,sub-174,1,stroop_test,59.70519955829493,
,,,,119.0,11.0,9.0,,,,,,,,,,,,,gelb,yellow,g,1.0,g,1.0,0.6648649000562727,,,,,,,,,,9.0,11.0,119.0,10.0,415.4107500000391,,,,,,,,,,,,,,,,,415.39451789995655,415.494734399952,416.2956919998396,416.27985040005296,,,,,,,,,,,,,,,,,,,,,,,,,,,,,,,,,,,416.2821275999304,416.2956919998396,416.2956919998396,416.9641527999193,g,1.0,0.6648649000562727,,,,,sub-174,1,stroop_test,59.70519955829493,
,,,,,,,,,,,,,,,,,,,,,,,,,,,,,,,,,,,,,,,,,,,,,,,,,,,,,,,,,,,,,,,,,,,,,,,,,,,,,,,,,,,,,,,,,,,,,,,,,,,,,,416.9643059999216,416.9791824000422,421.97121410002,sub-174,1,stroop_test,59.70519955829493,
