wordCTK,colorCTK,corrAnsCTK,congruentCTK,thisN,thisTrialN,thisRepN,keyResp_CTK.keys,keyResp_CTK.corr,keyResp_CTK.rt,keyResp_CTK.duration,wordPractice,colorPractice,corrAnsPractice,congruentPractice,respPractice.keys,respPractice.corr,respPractice.rt,respPractice.duration,word,color,corrAns,congruent,keyResp_test_run.keys,keyResp_test_run.corr,keyResp_test_run.rt,keyResp_test_run.duration,trials_CTK.thisRepN,trials_CTK.thisTrialN,trials_CTK.thisN,trials_CTK.thisIndex,trials_practice.thisRepN,trials_practice.thisTrialN,trials_practice.thisN,trials_practice.thisIndex,trials_test.thisRepN,trials_test.thisTrialN,trials_test.thisN,trials_test.thisIndex,thisRow.t,notes,instruction.started,instr_text.started,instr_image.started,instr_resp.started,instruction.stopped,instr_resp.keys,instr_resp.rt,instr_resp.duration,instr_color_to_key.started,instr_ctk.started,resp_ctk.started,instr_color_to_key.stopped,resp_ctk.keys,resp_ctk.rt,resp_ctk.duration,ITI.started,fixcross.started,fixcross.stopped,ITI.stopped,color_to_key_run.started,stimulus_CTK.started,keyResp_CTK.started,color_to_key_run.stopped,trials_CTK.keyResp_CTK.keys,trials_CTK.keyResp_CTK.corr,trials_CTK.keyResp_CTK.rt,trials_CTK.keyResp_CTK.duration,instr_practice.started,instr_practice_text.started,instr_practice_resp.started,instr_practice.stopped,instr_practice_resp.keys,instr_practice_resp.rt,instr_practice_resp.duration,practice_run.started,stimulus_practice.started,respPractice.started,practice_run.stopped,trials_practice.respPractice.keys,trials_practice.respPractice.corr,trials_practice.respPractice.rt,trials_practice.respPractice.duration,feedback.started,textFeedback.started,textFeedback.stopped,feedback.stopped,instr_test.started,instr_test_text.started,instr_test_resp.started,instr_test.stopped,instr_test_resp.keys,instr_test_resp.rt,instr_test_resp.duration,test_run.started,stimulus_test_run.started,keyResp_test_run.started,test_run.stopped,trials_test.keyResp_test_run.keys,trials_test.keyResp_test_run.corr,trials_test.keyResp_test_run.rt,trials_test.keyResp_test_run.duration,goodbye.started,textGoodbye.started,goodbye.stopped,participant,session,expName,frameRate,Unnamed: 112
,,,,,,,,,,,,,,,,,,,,,,,,,,,,,,,,,,,,,,,,,0.0085346000269055,0.0246625000145286,0.0246625000145286,0.0246625000145286,1.0147463000612331,space,0.9687085000332444,,,,,,,,,,,,,,,,,,,,,,,,,,,,,,,,,,,,,,,,,,,,,,,,,,,,,,,,,,sub-180,1,stroop_test,59.97116588126008,
,,,,,,,,,,,,,,,,,,,,,,,,,,,,,,,,,,,,,,,,,,,,,,,,,1.0148253000807017,1.0250850000884384,1.0250850000884384,3.79012760007754,space,2.749519700068049,,,,,,,,,,,,,,,,,,,,,,,,,,,,,,,,,,,,,,,,,,,,,,,,,,,sub-180,1,stroop_test,59.97116588126008,
test,yellow,g,1.0,0.0,0.0,0.0,g,1.0,1.0318037999095395,,,,,,,,,,,,,,,,,,0.0,0.0,0.0,1.0,,,,,,,,,3.80587350006681,,,,,,,,,,,,,,,,,3.7984047000063583,4.606452200096101,5.589576700003818,5.405314700095914,5.575080799986608,5.589576700003818,5.589576700003818,6.6232482000486925,g,1.0,1.0318037999095395,,,,,,,,,,,,,,,,,,,,,,,,,,,,,,,,,,,,,,,sub-180,1,stroop_test,59.97116588126008,
test,blue,b,1.0,1.0,1.0,0.0,b,1.0,0.6294966000132263,,,,,,,,,,,,,,,,,,0.0,1.0,1.0,2.0,,,,,,,,,6.638176999986172,,,,,,,,,,,,,,,,,6.623596400022507,7.837214400060475,8.637026800075546,8.621699700015597,8.622165200067684,8.637026800075546,8.637026800075546,9.271162100019865,b,1.0,0.6294966000132263,,,,,,,,,,,,,,,,,,,,,,,,,,,,,,,,,,,,,,,sub-180,1,stroop_test,59.97116588126008,
test,red,r,1.0,2.0,2.0,0.0,r,1.0,0.5106725000077859,,,,,,,,,,,,,,,,,,0.0,2.0,2.0,0.0,,,,,,,,,9.286731700063685,,,,,,,,,,,,,,,,,9.271419500000777,10.086157300043851,10.886027000029571,10.869807100039909,10.870328700053506,10.886027000029571,10.886027000029571,11.402744300081396,r,1.0,0.5106725000077859,,,,,,,,,,,,,,,,,,,,,,,,,,,,,,,,,,,,,,,sub-180,1,stroop_test,59.97116588126008,
test,blue,b,1.0,3.0,0.0,1.0,b,1.0,0.4238768999930471,,,,,,,,,,,,,,,,,,1.0,0.0,3.0,2.0,,,,,,,,,11.418563900049776,,,,,,,,,,,,,,,,,11.40299580001738,12.617960300063714,13.417710500070823,13.40237910009455,13.402756200055592,13.417710500070823,13.417710500070823,13.85150580003392,b,1.0,0.4238768999930471,,,,,,,,,,,,,,,,,,,,,,,,,,,,,,,,,,,,,,,sub-180,1,stroop_test,59.97116588126008,
test,yellow,g,1.0,4.0,1.0,1.0,g,1.0,0.5135463000042364,,,,,,,,,,,,,,,,,,1.0,1.0,4.0,1.0,,,,,,,,,13.867221500026062,,,,,,,,,,,,,,,,,13.851783900056034,14.666991600068286,15.466416600043884,15.45012310007587,15.4506640000036,15.466416600043884,15.466416600043884,15.983579599997029,g,1.0,0.5135463000042364,,,,,,,,,,,,,,,,,,,,,,,,,,,,,,,,,,,,,,,sub-180,1,stroop_test,59.97116588126008,
test,red,r,1.0,5.0,2.0,1.0,r,1.0,0.3618909999495372,,,,,,,,,,,,,,,,,,1.0,2.0,5.0,0.0,,,,,,,,,15.999371099984272,,,,,,,,,,,,,,,,,15.98382710001897,16.798860499984585,17.5989517000271,17.583259799983352,17.583669700077735,17.5989517000271,17.5989517000271,17.96609330002684,r,1.0,0.3618909999495372,,,,,,,,,,,,,,,,,,,,,,,,,,,,,,,,,,,,,,,sub-180,1,stroop_test,59.97116588126008,
test,red,r,1.0,6.0,0.0,2.0,r,1.0,0.677689400035888,,,,,,,,,,,,,,,,,,2.0,0.0,6.0,0.0,,,,,,,,,17.981795400031842,,,,,,,,,,,,,,,,,17.966377600096166,18.76482769998256,19.56418450002093,19.54817000008188,19.54854650003836,19.56418450002093,19.56418450002093,20.247875900007784,r,1.0,0.677689400035888,,,,,,,,,,,,,,,,,,,,,,,,,,,,,,,,,,,,,,,sub-180,1,stroop_test,59.97116588126008,
test,yellow,g,1.0,7.0,1.0,2.0,g,1.0,0.4954854999668896,,,,,,,,,,,,,,,,,,2.0,1.0,7.0,1.0,,,,,,,,,20.263859200058505,,,,,,,,,,,,,,,,,20.248209599987604,21.46318500000052,22.262916499981657,22.24670130002778,22.247157100006007,22.262916499981657,22.262916499981657,22.76339450001251,g,1.0,0.4954854999668896,,,,,,,,,,,,,,,,,,,,,,,,,,,,,,,,,,,,,,,sub-180,1,stroop_test,59.97116588126008,
test,blue,b,1.0,8.0,2.0,2.0,b,1.0,0.4565232000313699,,,,,,,,,,,,,,,,,,2.0,2.0,8.0,2.0,,,,,,,,,22.77997540007345,,,,,,,,,,,,,,,,,22.763748400029726,23.97854240005836,24.778096200083382,24.76209010009188,24.762503300094977,24.778096200083382,24.778096200083382,25.24555270001292,b,1.0,0.4565232000313699,,,,,,,,,,,,,,,,,,,,,,,,,,,,,,,,,,,,,,,sub-180,1,stroop_test,59.97116588126008,
test,yellow,g,1.0,9.0,0.0,3.0,g,1.0,0.7523849999997765,,,,,,,,,,,,,,,,,,3.0,0.0,9.0,1.0,,,,,,,,,25.261398300062865,,,,,,,,,,,,,,,,,25.24594050005544,26.04422350006644,26.843842400005087,26.827459300053302,26.827997700078413,26.843842400005087,26.843842400005087,27.611222599982284,g,1.0,0.7523849999997765,,,,,,,,,,,,,,,,,,,,,,,,,,,,,,,,,,,,,,,sub-180,1,stroop_test,59.97116588126008,
test,red,r,1.0,10.0,1.0,3.0,r,1.0,0.6936677999328822,,,,,,,,,,,,,,,,,,3.0,1.0,10.0,0.0,,,,,,,,,27.62687959999312,,,,,,,,,,,,,,,,,27.61153750005178,27.726615900057368,28.526172599988055,28.509959800052457,28.510387600050308,28.526172599988055,28.526172599988055,29.2267219000496,r,1.0,0.6936677999328822,,,,,,,,,,,,,,,,,,,,,,,,,,,,,,,,,,,,,,,sub-180,1,stroop_test,59.97116588126008,
test,blue,b,1.0,11.0,2.0,3.0,b,1.0,0.3966635999968275,,,,,,,,,,,,,,,,,,3.0,2.0,11.0,2.0,,,,,,,,,29.242510100011717,,,,,,,,,,,,,,,,,29.227030600071885,30.441904600011185,31.242036500014365,31.22603520005941,31.226574600092132,31.242036500014365,31.242036500014365,31.642550299991854,b,1.0,0.3966635999968275,,,,,,,,,,,,,,,,,,,,,,,,,,,,,,,,,,,,,,,sub-180,1,stroop_test,59.97116588126008,
,,,,,,,,,,,,,,,,,,,,,,,,,,,,,,,,,,,,,,,,,,,,,,,,,,,,,,,,,,,,,,,,,,,,31.642706500017084,31.658035200089216,31.658035200089216,43.38635010004509,space,11.723401899915189,,,,,,,,,,,,,,,,,,,,,,,,,,,,,,,,sub-180,1,stroop_test,59.97116588126008,
,,,,0.0,0.0,0.0,,,,,blau,yellow,g,0.0,b,0.0,0.6694060999434441,,,,,,,,,,,,,,0.0,0.0,0.0,7.0,,,,,43.40243930008728,,,,,,,,,,,,,,,,,43.3959108000854,44.60130149999168,45.40152230008971,45.38465240004007,,,,,,,,,,,,,,,,45.390411900007166,45.40152230008971,45.40152230008971,46.08475130004808,b,0.0,0.6694060999434441,,46.09172080003191,46.10060430003796,47.10037750005722,47.08463190007024,,,,,,,,,,,,,,,,,,,sub-180,1,stroop_test,59.97116588126008,
,,,,1.0,1.0,0.0,,,,,rot,blue,b,0.0,b,1.0,1.0625055000418795,,,,,,,,,,,,,,0.0,1.0,1.0,2.0,,,,,47.10037750005722,,,,,,,,,,,,,,,,,47.08497930003796,47.8996023000218,48.69948970002588,48.68366000009701,,,,,,,,,,,,,,,,48.68879739998374,48.69948970002588,48.69948970002588,49.76655559998471,b,1.0,1.0625055000418795,,49.77146850002464,49.78221360000316,50.78200920007657,50.76600440009497,,,,,,,,,,,,,,,,,,,sub-180,1,stroop_test,59.97116588126008,
,,,,2.0,2.0,0.0,,,,,blau,blue,b,1.0,b,1.0,0.5031924000941217,,,,,,,,,,,,,,0.0,2.0,2.0,5.0,,,,,50.78200920007657,,,,,,,,,,,,,,,,,50.766256300034,51.13189060008153,51.93110190005973,51.914940800052136,,,,,,,,,,,,,,,,51.91691150004044,51.93110190005973,51.93110190005973,52.44842010003049,b,1.0,0.5031924000941217,,52.44904450001195,52.46418510004878,53.46456630004104,53.44877230003476,,,,,,,,,,,,,,,,,,,sub-180,1,stroop_test,59.97116588126008,
,,,,3.0,3.0,0.0,,,,,gelb,red,r,0.0,r,1.0,0.7274445999646559,,,,,,,,,,,,,,0.0,3.0,3.0,8.0,,,,,53.46456630004104,,,,,,,,,,,,,,,,,53.44907209998928,54.66312670009211,55.46369860006962,55.44656220008619,,,,,,,,,,,,,,,,55.44917300005909,55.46369860006962,55.46369860006962,56.19742610002868,r,1.0,0.7274445999646559,,56.19786070007831,56.21283159998711,,57.21187130000908,,,,,,,,,,,,,,,,,,,sub-180,1,stroop_test,59.97116588126008,
,,,,4.0,4.0,0.0,,,,,rot,red,r,1.0,r,1.0,0.7205558000132442,,,,,,,,,,,,,,0.0,4.0,4.0,0.0,,,,,57.22849720006343,,,,,,,,,,,,,,,,,57.21223549998831,58.41111700003967,59.211884499993175,59.195699400035664,,,,,,,,,,,,,,,,59.198138599982485,59.211884499993175,59.211884499993175,59.94490700005554,r,1.0,0.7205558000132442,,59.94532360008452,59.96044020005502,60.95990060002077,60.94373960001394,,,,,,,,,,,,,,,,,,,sub-180,1,stroop_test,59.97116588126008,
,,,,5.0,5.0,0.0,,,,,gelb,blue,b,0.0,b,1.0,0.5812018000287935,,,,,,,,,,,,,,0.0,5.0,5.0,9.0,,,,,60.95990060002077,,,,,,,,,,,,,,,,,60.944017700036056,61.30955270002596,62.110481500043534,62.09335640002973,,,,,,,,,,,,,,,,62.09571970009711,62.110481500043534,62.110481500043534,62.69370770000387,b,1.0,0.5812018000287935,,62.69414700008929,62.71028700005263,,63.70980350009632,,,,,,,,,,,,,,,,,,,sub-180,1,stroop_test,59.97116588126008,
,,,,6.0,6.0,0.0,,,,,blau,red,r,0.0,r,1.0,0.5739652999909595,,,,,,,,,,,,,,0.0,6.0,6.0,4.0,,,,,63.72542400006205,,,,,,,,,,,,,,,,,63.71015940001234,63.808368600090034,64.60784240008797,64.59181220002938,,,,,,,,,,,,,,,,64.59398020000663,64.60784240008797,64.60784240008797,65.19196860003285,r,1.0,0.5739652999909595,,65.1925493000308,65.2077280000085,66.20702129998244,66.19097060000058,,,,,,,,,,,,,,,,,,,sub-180,1,stroop_test,59.97116588126008,
,,,,7.0,7.0,0.0,,,,,gelb,yellow,g,1.0,g,1.0,0.5613021000754088,,,,,,,,,,,,,,0.0,7.0,7.0,10.0,,,,,66.20702129998244,,,,,,,,,,,,,,,,,66.1912368000485,67.40643580001779,68.20638220000546,68.18988600000739,,,,,,,,,,,,,,,,68.19203710008878,68.20638220000546,68.20638220000546,68.77456050005276,g,1.0,0.5613021000754088,,68.77500350004993,68.78933370008599,69.78856010001618,69.77260730008129,,,,,,,,,,,,,,,,,,,sub-180,1,stroop_test,59.97116588126008,
,,,,8.0,8.0,0.0,,,,,blau,blue,b,1.0,b,1.0,0.5448931999271736,,,,,,,,,,,,,,0.0,8.0,8.0,6.0,,,,,69.78856010001618,,,,,,,,,,,,,,,,,69.7729048000183,69.88869160006288,70.68797570001334,70.67199400009122,,,,,,,,,,,,,,,,70.67395160009619,70.68797570001334,70.68797570001334,71.23899770004209,b,1.0,0.5448931999271736,,71.23941030004062,71.25462750007864,72.25391309999395,72.2377359000966,,,,,,,,,,,,,,,,,,,sub-180,1,stroop_test,59.97116588126008,
,,,,9.0,9.0,0.0,,,,,gelb,yellow,g,1.0,g,1.0,0.9023145999526604,,,,,,,,,,,,,,0.0,9.0,9.0,11.0,,,,,72.25391309999395,,,,,,,,,,,,,,,,,72.23806530004367,72.60374330007471,73.40356770006474,73.38712490000762,,,,,,,,,,,,,,,,73.38968650007155,73.40356770006474,73.40356770006474,74.32037700002547,g,1.0,0.9023145999526604,,74.320816499996,74.33616130007431,75.33642280008644,75.32089319999795,,,,,,,,,,,,,,,,,,,sub-180,1,stroop_test,59.97116588126008,
,,,,10.0,10.0,0.0,,,,,rot,red,r,1.0,r,1.0,0.4065146999200806,,,,,,,,,,,,,,0.0,10.0,10.0,1.0,,,,,75.33642280008644,,,,,,,,,,,,,,,,,75.32114590005949,76.13520960009191,76.93469290004577,76.92140890005976,,,,,,,,,,,,,,,,76.92410300008487,76.93469290004577,76.93469290004577,77.35294260003138,r,1.0,0.4065146999200806,,77.35335390002001,77.36819070007186,78.36749340000097,78.3513466999866,,,,,,,,,,,,,,,,,,,sub-180,1,stroop_test,59.97116588126008,
,,,,11.0,11.0,0.0,,,,,rot,yellow,g,0.0,g,1.0,0.5317531999899074,,,,,,,,,,,,,,0.0,11.0,11.0,3.0,,,,,78.36749340000097,,,,,,,,,,,,,,,,,78.35168389999308,79.16740310005844,79.96655220002867,79.95049369998742,,,,,,,,,,,,,,,,79.95119679998606,79.96655220002867,79.96655220002867,80.50109849998262,g,1.0,0.5317531999899074,,80.50152040005196,80.51626080006827,81.51628590002656,81.5003837000113,,,,,,,,,,,,,,,,,,,sub-180,1,stroop_test,59.97116588126008,
,,,,12.0,0.0,1.0,,,,,blau,blue,b,1.0,b,1.0,0.5116157000884414,,,,,,,,,,,,,,1.0,0.0,12.0,6.0,,,,,81.51628590002656,,,,,,,,,,,,,,,,,81.50064069998916,81.60030110005755,82.4154247000115,82.3991948000621,,,,,,,,,,,,,,,,82.40156050003134,82.4154247000115,82.4154247000115,82.93278430006467,b,1.0,0.5116157000884414,,82.93327879998833,82.94826880004257,83.9472020000685,83.93108650005888,,,,,,,,,,,,,,,,,,,sub-180,1,stroop_test,59.97116588126008,
,,,,13.0,1.0,1.0,,,,,rot,blue,b,0.0,g,0.0,0.4296212000772357,,,,,,,,,,,,,,1.0,1.0,13.0,2.0,,,,,83.9472020000685,,,,,,,,,,,,,,,,,83.93136650009546,84.2970018000342,85.09679620002862,85.08056630007923,,,,,,,,,,,,,,,,85.08322870009579,85.09679620002862,85.09679620002862,85.53066390007734,g,0.0,0.4296212000772357,,85.53362780006137,85.54665969999041,86.54658199998084,86.53040980000515,,,,,,,,,,,,,,,,,,,sub-180,1,stroop_test,59.97116588126008,
,,,,14.0,2.0,1.0,,,,,rot,yellow,g,0.0,g,1.0,1.3075610999949276,,,,,,,,,,,,,,1.0,2.0,14.0,3.0,,,,,86.54658199998084,,,,,,,,,,,,,,,,,86.53066920000128,87.34615710005164,88.14516359998379,88.12912110006437,,,,,,,,,,,,,,,,88.12949349998962,88.14516359998379,88.14516359998379,89.46303710003849,g,1.0,1.3075610999949276,,89.46564559999388,89.47829930006992,90.47767440008464,90.4616661000764,,,,,,,,,,,,,,,,,,,sub-180,1,stroop_test,59.97116588126008,
,,,,15.0,3.0,1.0,,,,,gelb,yellow,g,1.0,g,1.0,0.4916571999201551,,,,,,,,,,,,,,1.0,3.0,15.0,11.0,,,,,90.47767440008464,,,,,,,,,,,,,,,,,90.46200950001366,91.67726910009516,92.47674559999724,92.4607088000048,,,,,,,,,,,,,,,,92.46322829998098,92.47674559999724,92.47674559999724,92.97860410006253,g,1.0,0.4916571999201551,,92.97903280006722,92.99302799999714,93.9929746000562,93.97780710004736,,,,,,,,,,,,,,,,,,,sub-180,1,stroop_test,59.97116588126008,
,,,,16.0,4.0,1.0,,,,,rot,red,r,1.0,r,1.0,0.918608699925244,,,,,,,,,,,,,,1.0,4.0,16.0,0.0,,,,,93.9929746000562,,,,,,,,,,,,,,,,,93.9780838000588,95.1924722000258,95.99203170009424,95.976858500042,,,,,,,,,,,,,,,,95.9796380000189,95.99203170009424,95.99203170009424,96.92656799999531,r,1.0,0.918608699925244,,96.92699579999316,96.9413998000091,97.94048370001838,97.9249839000404,,,,,,,,,,,,,,,,,,,sub-180,1,stroop_test,59.97116588126008,
,,,,17.0,5.0,1.0,,,,,blau,red,r,0.0,r,1.0,0.8783754999749362,,,,,,,,,,,,,,1.0,5.0,17.0,4.0,,,,,97.94048370001838,,,,,,,,,,,,,,,,,97.92534270009492,99.1410923000658,99.93992750009056,99.92470690002664,,,,,,,,,,,,,,,,99.9268190000439,99.93992750009056,99.93992750009056,100.8237779000774,r,1.0,0.8783754999749362,,100.82427300000565,100.83969609998168,101.83954580000136,101.82269380008802,,,,,,,,,,,,,,,,,,,sub-180,1,stroop_test,59.97116588126008,
,,,,18.0,6.0,1.0,,,,,gelb,blue,b,0.0,b,1.0,0.4969071999657899,,,,,,,,,,,,,,1.0,6.0,18.0,9.0,,,,,101.83954580000136,,,,,,,,,,,,,,,,,101.82294880005064,101.93894140003248,102.74137110006995,102.72316609998234,,,,,,,,,,,,,,,,102.72543960006442,102.74137110006995,102.74137110006995,103.24014810007066,b,1.0,0.4969071999657899,,103.2406623000279,103.25475399999414,104.25515470001848,104.2387661000248,,,,,,,,,,,,,,,,,,,sub-180,1,stroop_test,59.97116588126008,
,,,,19.0,7.0,1.0,,,,,gelb,red,r,0.0,r,1.0,0.8528304999927059,,,,,,,,,,,,,,1.0,7.0,19.0,8.0,,,,,104.25515470001848,,,,,,,,,,,,,,,,,104.23902410001028,105.45286870002748,106.25396820006426,106.23801590001676,,,,,,,,,,,,,,,,106.2384484000504,106.25396820006426,106.25396820006426,107.1208847000962,r,1.0,0.8528304999927059,,107.12136089999694,107.1365964000579,108.13591780001298,108.12025400006678,,,,,,,,,,,,,,,,,,,sub-180,1,stroop_test,59.97116588126008,
,,,,20.0,8.0,1.0,,,,,blau,blue,b,1.0,b,1.0,0.5780110000632703,,,,,,,,,,,,,,1.0,8.0,20.0,5.0,,,,,108.13591780001298,,,,,,,,,,,,,,,,,108.120516300085,109.3349276999943,110.13572710007428,110.11935619998258,,,,,,,,,,,,,,,,110.12151329999324,110.13572710007428,110.13572710007428,110.71902830002364,b,1.0,0.5780110000632703,,110.71946699998809,110.73519160004798,111.73410950007384,111.71868990000804,,,,,,,,,,,,,,,,,,,sub-180,1,stroop_test,59.97116588126008,
,,,,21.0,9.0,1.0,,,,,gelb,yellow,g,1.0,g,1.0,0.5914524000836536,,,,,,,,,,,,,,1.0,9.0,21.0,10.0,,,,,111.73410950007384,,,,,,,,,,,,,,,,,111.71897000004536,112.5341783000622,113.34893119998742,113.33294750005008,,,,,,,,,,,,,,,,113.33531690004747,113.34893119998742,113.34893119998742,113.9504186999984,g,1.0,0.5914524000836536,,113.95092159998605,113.9656026000157,114.96509710000828,114.94931560009718,,,,,,,,,,,,,,,,,,,sub-180,1,stroop_test,59.97116588126008,
,,,,22.0,10.0,1.0,,,,,blau,yellow,g,0.0,g,1.0,1.1179125000489876,,,,,,,,,,,,,,1.0,10.0,22.0,7.0,,,,,114.96509710000828,,,,,,,,,,,,,,,,,114.94958730007056,115.31538580008782,116.13166200008708,116.11620460008272,,,,,,,,,,,,,,,,116.11820130003616,116.13166200008708,116.13166200008708,117.26495039998554,g,1.0,1.1179125000489876,,117.2654905000236,117.28157780005132,,118.28142300003674,,,,,,,,,,,,,,,,,,,sub-180,1,stroop_test,59.97116588126008,
,,,,23.0,11.0,1.0,,,,,rot,red,r,1.0,r,1.0,0.3546181001001969,,,,,,,,,,,,,,1.0,11.0,23.0,1.0,,,,,118.29709900007585,,,,,,,,,,,,,,,,,118.28180640004577,119.48024430009536,120.28041970008051,120.2635900999885,,,,,,,,,,,,,,,,120.26693480007816,120.28041970008051,120.28041970008051,120.64730489999056,r,1.0,0.3546181001001969,,120.64772200002336,120.662032000022,121.66264920006506,121.64630530006252,,,,,,,,,,,,,,,,,,,sub-180,1,stroop_test,59.97116588126008,
,,,,,,,,,,,,,,,,,,,,,,,,,,,,,,,,,,,,,,,,,,,,,,,,,,,,,,,,,,,,,,,,,,,,,,,,,,,,,,,,,,,,,,,121.646411200054,121.66264920006506,121.66264920006506,125.46143520006444,space,3.7895415000384673,,,,,,,,,,,,,sub-180,1,stroop_test,59.97116588126008,
,,,,0.0,0.0,0.0,,,,,,,,,,,,,blau,blue,b,1.0,b,1.0,0.7498513999162242,,,,,,,,,,0.0,0.0,0.0,5.0,125.47675360005816,,,,,,,,,,,,,,,,,125.4699994000839,125.82647620001808,126.62607980007306,126.60999050003012,,,,,,,,,,,,,,,,,,,,,,,,,,,,,,,,,,,126.61205260001589,126.62607980007306,126.62607980007306,127.37770230008756,b,1.0,0.7498513999162242,,,,,sub-180,1,stroop_test,59.97116588126008,
,,,,1.0,1.0,0.0,,,,,,,,,,,,,gelb,yellow,g,1.0,g,1.0,0.639846200007014,,,,,,,,,,0.0,1.0,1.0,11.0,127.39238390000536,,,,,,,,,,,,,,,,,127.37798980006482,127.49262340005951,128.30774870002642,128.29157830006443,,,,,,,,,,,,,,,,,,,,,,,,,,,,,,,,,,,128.29382400005125,128.30774870002642,128.30774870002642,128.9595302999951,g,1.0,0.639846200007014,,,,,sub-180,1,stroop_test,59.97116588126008,
,,,,2.0,2.0,0.0,,,,,,,,,,,,,gelb,blue,b,0.0,g,0.0,2.0414745999732986,,,,,,,,,,0.0,2.0,2.0,9.0,128.97467989998404,,,,,,,,,,,,,,,,,128.95983090007212,130.1744165000273,130.97370209998917,130.95862639998086,,,,,,,,,,,,,,,,,,,,,,,,,,,,,,,,,,,130.9590224000858,130.97370209998917,130.97370209998917,133.02373770007398,g,0.0,2.0414745999732986,,,,,sub-180,1,stroop_test,59.97116588126008,
,,,,3.0,3.0,0.0,,,,,,,,,,,,,rot,red,r,1.0,r,1.0,0.6792780000250787,,,,,,,,,,0.0,3.0,3.0,1.0,133.03896800009534,,,,,,,,,,,,,,,,,133.0240491000004,133.389691999997,134.20633900002576,134.1893180999905,,,,,,,,,,,,,,,,,,,,,,,,,,,,,,,,,,,134.19169070001226,134.20633900002576,134.20633900002576,134.88985380006488,r,1.0,0.6792780000250787,,,,,sub-180,1,stroop_test,59.97116588126008,
,,,,4.0,4.0,0.0,,,,,,,,,,,,,gelb,red,r,0.0,g,0.0,0.555716999922879,,,,,,,,,,0.0,4.0,4.0,8.0,134.90526490006596,,,,,,,,,,,,,,,,,134.89022880000994,136.1049984000856,136.9045171000762,136.8887068000622,,,,,,,,,,,,,,,,,,,,,,,,,,,,,,,,,,,136.89091870002449,136.9045171000762,136.9045171000762,137.4712399999844,g,0.0,0.555716999922879,,,,,sub-180,1,stroop_test,59.97116588126008,
,,,,5.0,5.0,0.0,,,,,,,,,,,,,blau,red,r,0.0,b,0.0,0.6075049000792205,,,,,,,,,,0.0,5.0,5.0,4.0,137.4876355000306,,,,,,,,,,,,,,,,,137.47154669999145,137.83787340007257,138.6535836000694,138.63713150005788,,,,,,,,,,,,,,,,,,,,,,,,,,,,,,,,,,,138.63956849998794,138.6535836000694,138.6535836000694,139.27051020006184,b,0.0,0.6075049000792205,,,,,sub-180,1,stroop_test,59.97116588126008,
,,,,6.0,6.0,0.0,,,,,,,,,,,,,rot,blue,b,0.0,r,0.0,0.6672289000125602,,,,,,,,,,0.0,6.0,6.0,2.0,139.28541530005168,,,,,,,,,,,,,,,,,139.27084080001805,140.0857272000285,140.8854960000608,140.86945350002495,,,,,,,,,,,,,,,,,,,,,,,,,,,,,,,,,,,140.87162480002735,140.8854960000608,140.8854960000608,141.56914640008472,r,0.0,0.6672289000125602,,,,,sub-180,1,stroop_test,59.97116588126008,
,,,,7.0,7.0,0.0,,,,,,,,,,,,,rot,red,r,1.0,r,1.0,0.6059146000770852,,,,,,,,,,0.0,7.0,7.0,0.0,141.5841052000178,,,,,,,,,,,,,,,,,141.56950870004948,142.36824630002957,143.16785550001077,143.1517840999877,,,,,,,,,,,,,,,,,,,,,,,,,,,,,,,,,,,143.15217570005916,143.16785550001077,143.16785550001077,143.78430719999596,r,1.0,0.6059146000770852,,,,,sub-180,1,stroop_test,59.97116588126008,
,,,,8.0,8.0,0.0,,,,,,,,,,,,,rot,yellow,g,0.0,r,0.0,0.6024308999767527,,,,,,,,,,0.0,8.0,8.0,3.0,143.7995772000868,,,,,,,,,,,,,,,,,143.7845946000889,144.13384800008498,144.94882130005865,144.93271620001178,,,,,,,,,,,,,,,,,,,,,,,,,,,,,,,,,,,144.93321070005186,144.94882130005865,144.94882130005865,145.56666960008442,r,0.0,0.6024308999767527,,,,,sub-180,1,stroop_test,59.97116588126008,
,,,,9.0,9.0,0.0,,,,,,,,,,,,,blau,blue,b,1.0,b,1.0,0.7976055000908673,,,,,,,,,,0.0,9.0,9.0,6.0,145.58422180009077,,,,,,,,,,,,,,,,,145.56706220004708,145.68209720007144,146.48175879998598,146.465684600058,,,,,,,,,,,,,,,,,,,,,,,,,,,,,,,,,,,146.4679304000456,146.48175879998598,146.48175879998598,147.2828805000754,b,1.0,0.7976055000908673,,,,,sub-180,1,stroop_test,59.97116588126008,
,,,,10.0,10.0,0.0,,,,,,,,,,,,,gelb,yellow,g,1.0,g,1.0,0.3971632999600842,,,,,,,,,,0.0,10.0,10.0,10.0,147.29907250008546,,,,,,,,,,,,,,,,,147.283168700058,148.49829770007636,149.29816410003696,149.2823711000383,,,,,,,,,,,,,,,,,,,,,,,,,,,,,,,,,,,149.2848323000362,149.29816410003696,149.29816410003696,149.69973610003944,g,1.0,0.3971632999600842,,,,,sub-180,1,stroop_test,59.97116588126008,
,,,,11.0,11.0,0.0,,,,,,,,,,,,,blau,yellow,g,0.0,b,0.0,0.6325937999645248,,,,,,,,,,0.0,11.0,11.0,7.0,149.71446920000017,,,,,,,,,,,,,,,,,149.7000325000845,149.81407600000966,150.6136414000066,150.59759100002702,,,,,,,,,,,,,,,,,,,,,,,,,,,,,,,,,,,150.5996283000568,150.6136414000066,150.6136414000066,151.2483563000569,b,0.0,0.6325937999645248,,,,,sub-180,1,stroop_test,59.97116588126008,
,,,,12.0,0.0,1.0,,,,,,,,,,,,,gelb,yellow,g,1.0,g,1.0,0.5946382000111043,,,,,,,,,,1.0,0.0,12.0,11.0,151.26245190005284,,,,,,,,,,,,,,,,,151.2486671000952,152.06252730009146,152.8627581000328,152.84667680005077,,,,,,,,,,,,,,,,,,,,,,,,,,,,,,,,,,,152.84917470009532,152.8627581000328,152.8627581000328,153.4632681000512,g,1.0,0.5946382000111043,,,,,sub-180,1,stroop_test,59.97116588126008,
,,,,13.0,1.0,1.0,,,,,,,,,,,,,blau,yellow,g,0.0,b,0.0,0.5357871999731287,,,,,,,,,,1.0,1.0,13.0,7.0,153.47784700000193,,,,,,,,,,,,,,,,,153.46355960005894,153.82886930007953,154.6285583000863,154.61251240002457,,,,,,,,,,,,,,,,,,,,,,,,,,,,,,,,,,,154.61500320001505,154.6285583000863,154.6285583000863,155.17887840000913,b,0.0,0.5357871999731287,,,,,sub-180,1,stroop_test,59.97116588126008,
,,,,14.0,2.0,1.0,,,,,,,,,,,,,blau,blue,b,1.0,b,1.0,0.6490965000120923,,,,,,,,,,1.0,2.0,14.0,5.0,155.19507430004887,,,,,,,,,,,,,,,,,155.17918520001697,155.97840200003702,156.77840950002428,156.76236699998844,,,,,,,,,,,,,,,,,,,,,,,,,,,,,,,,,,,156.76276820001658,156.77840950002428,156.77840950002428,157.4291574000381,b,1.0,0.6490965000120923,,,,,sub-180,1,stroop_test,59.97116588126008,
,,,,15.0,3.0,1.0,,,,,,,,,,,,,blau,red,r,0.0,b,0.0,0.6377847000258043,,,,,,,,,,1.0,3.0,15.0,4.0,157.4446973000886,,,,,,,,,,,,,,,,,157.4294500000542,158.64375080005266,159.44338429998606,159.4271155000897,,,,,,,,,,,,,,,,,,,,,,,,,,,,,,,,,,,159.42753590003122,159.44338429998606,159.44338429998606,160.09378580003977,b,0.0,0.6377847000258043,,,,,sub-180,1,stroop_test,59.97116588126008,
,,,,16.0,4.0,1.0,,,,,,,,,,,,,rot,red,r,1.0,r,1.0,0.5864607999101281,,,,,,,,,,1.0,4.0,16.0,1.0,160.1095970000606,,,,,,,,,,,,,,,,,160.09408160008024,160.44327260006685,161.2422351000132,161.22633800003678,,,,,,,,,,,,,,,,,,,,,,,,,,,,,,,,,,,161.22852670005523,161.2422351000132,161.2422351000132,161.8432401000755,r,1.0,0.5864607999101281,,,,,sub-180,1,stroop_test,59.97116588126008,
,,,,17.0,5.0,1.0,,,,,,,,,,,,,blau,blue,b,1.0,b,1.0,0.5484625999815762,,,,,,,,,,1.0,5.0,17.0,6.0,161.85912680008914,,,,,,,,,,,,,,,,,161.8435239000246,163.05819180002436,163.8576713000657,163.84175870008767,,,,,,,,,,,,,,,,,,,,,,,,,,,,,,,,,,,163.8438452000264,163.8576713000657,163.8576713000657,164.40866580000147,b,1.0,0.5484625999815762,,,,,sub-180,1,stroop_test,59.97116588126008,
,,,,18.0,6.0,1.0,,,,,,,,,,,,,gelb,red,r,0.0,g,0.0,0.6734861000441015,,,,,,,,,,1.0,6.0,18.0,8.0,164.42386420001276,,,,,,,,,,,,,,,,,164.4089559999993,164.77406329999212,165.57374380005058,165.55782320001163,,,,,,,,,,,,,,,,,,,,,,,,,,,,,,,,,,,165.56005410000216,165.57374380005058,165.57374380005058,166.25767620000988,g,0.0,0.6734861000441015,,,,,sub-180,1,stroop_test,59.97116588126008,
,,,,19.0,7.0,1.0,,,,,,,,,,,,,rot,blue,b,0.0,r,0.0,0.5079215998994187,,,,,,,,,,1.0,7.0,19.0,2.0,166.27299670001958,,,,,,,,,,,,,,,,,166.25799220008776,166.60651569999754,167.40577539999504,167.38984329998493,,,,,,,,,,,,,,,,,,,,,,,,,,,,,,,,,,,167.3923982999986,167.40577539999504,167.40577539999504,167.92311650002375,r,0.0,0.5079215998994187,,,,,sub-180,1,stroop_test,59.97116588126008,
,,,,20.0,8.0,1.0,,,,,,,,,,,,,gelb,yellow,g,1.0,g,1.0,0.8114569999743253,,,,,,,,,,1.0,8.0,20.0,10.0,167.93883410003036,,,,,,,,,,,,,,,,,167.92343650001567,168.27224180009216,169.0712975000497,169.05606000008993,,,,,,,,,,,,,,,,,,,,,,,,,,,,,,,,,,,169.05825100000948,169.0712975000497,169.0712975000497,169.8888217000058,g,1.0,0.8114569999743253,,,,,sub-180,1,stroop_test,59.97116588126008,
,,,,21.0,9.0,1.0,,,,,,,,,,,,,rot,yellow,g,0.0,r,0.0,0.7124560000374913,,,,,,,,,,1.0,9.0,21.0,3.0,169.90459819999523,,,,,,,,,,,,,,,,,169.88910390005913,171.10391080006957,171.90354000008665,171.88790329999756,,,,,,,,,,,,,,,,,,,,,,,,,,,,,,,,,,,171.89056840003468,171.90354000008665,171.90354000008665,172.62068789999466,r,0.0,0.7124560000374913,,,,,sub-180,1,stroop_test,59.97116588126008,
,,,,22.0,10.0,1.0,,,,,,,,,,,,,gelb,blue,b,0.0,g,0.0,1.1483678000513464,,,,,,,,,,1.0,10.0,22.0,9.0,172.636559400009,,,,,,,,,,,,,,,,,172.62099249998573,173.8362877999898,174.63513660000172,174.6195639000507,,,,,,,,,,,,,,,,,,,,,,,,,,,,,,,,,,,174.62173350004014,174.63513660000172,174.63513660000172,175.7873922000872,g,0.0,1.1483678000513464,,,,,sub-180,1,stroop_test,59.97116588126008,
,,,,23.0,11.0,1.0,,,,,,,,,,,,,rot,red,r,1.0,r,1.0,0.4565387000329792,,,,,,,,,,1.0,11.0,23.0,0.0,175.8012619999936,,,,,,,,,,,,,,,,,175.7876812000759,177.00058770005126,177.80033890006598,177.78498360002413,,,,,,,,,,,,,,,,,,,,,,,,,,,,,,,,,,,177.7871697000228,177.80033890006598,177.80033890006598,178.26767660002224,r,1.0,0.4565387000329792,,,,,sub-180,1,stroop_test,59.97116588126008,
,,,,24.0,0.0,2.0,,,,,,,,,,,,,gelb,yellow,g,1.0,g,1.0,0.7394556999206543,,,,,,,,,,2.0,0.0,24.0,10.0,178.2831804000307,,,,,,,,,,,,,,,,,178.26800030004233,179.48247689998243,180.28291399998125,180.26618680008687,,,,,,,,,,,,,,,,,,,,,,,,,,,,,,,,,,,180.26849829999264,180.28291399998125,180.28291399998125,181.033274800051,g,1.0,0.7394556999206543,,,,,sub-180,1,stroop_test,59.97116588126008,
,,,,25.0,1.0,2.0,,,,,,,,,,,,,blau,blue,b,1.0,b,1.0,0.6254129998851568,,,,,,,,,,2.0,1.0,25.0,5.0,181.04888700006995,,,,,,,,,,,,,,,,,181.0335861000931,181.39900109998416,182.198705399991,182.1825404000701,,,,,,,,,,,,,,,,,,,,,,,,,,,,,,,,,,,182.1845749000786,182.198705399991,182.198705399991,182.8324632000877,b,1.0,0.6254129998851568,,,,,sub-180,1,stroop_test,59.97116588126008,
,,,,26.0,2.0,2.0,,,,,,,,,,,,,blau,blue,b,1.0,b,1.0,0.6015358999138698,,,,,,,,,,2.0,2.0,26.0,6.0,182.84795110009145,,,,,,,,,,,,,,,,,182.83276990009472,182.94831080001316,183.747490299982,183.73212840000636,,,,,,,,,,,,,,,,,,,,,,,,,,,,,,,,,,,183.73257510003168,183.747490299982,183.747490299982,184.3646380000282,b,1.0,0.6015358999138698,,,,,sub-180,1,stroop_test,59.97116588126008,
,,,,27.0,3.0,2.0,,,,,,,,,,,,,gelb,red,r,0.0,g,0.0,0.8982075999956578,,,,,,,,,,2.0,3.0,27.0,8.0,184.38020330003928,,,,,,,,,,,,,,,,,184.36493570008315,185.17976430000272,185.97917830001097,185.96388380008284,,,,,,,,,,,,,,,,,,,,,,,,,,,,,,,,,,,185.9665010999888,185.97917830001097,185.97917830001097,186.87990150006956,g,0.0,0.8982075999956578,,,,,sub-180,1,stroop_test,59.97116588126008,
,,,,28.0,4.0,2.0,,,,,,,,,,,,,blau,yellow,g,0.0,b,0.0,0.7629547999240458,,,,,,,,,,2.0,4.0,28.0,7.0,186.89567420003004,,,,,,,,,,,,,,,,,186.8802048000507,187.6953837000765,188.4949011000572,188.47828000003935,,,,,,,,,,,,,,,,,,,,,,,,,,,,,,,,,,,188.48075109999627,188.4949011000572,188.4949011000572,189.26231700007335,b,0.0,0.7629547999240458,,,,,sub-180,1,stroop_test,59.97116588126008,
,,,,29.0,5.0,2.0,,,,,,,,,,,,,gelb,blue,b,0.0,g,0.0,1.0312707000412047,,,,,,,,,,2.0,5.0,29.0,9.0,189.27750329999253,,,,,,,,,,,,,,,,,189.26262749999296,190.077169300057,190.87668210000265,190.8609606000828,,,,,,,,,,,,,,,,,,,,,,,,,,,,,,,,,,,190.8631873000413,190.87668210000265,190.87668210000265,191.91072739998344,g,0.0,1.0312707000412047,,,,,sub-180,1,stroop_test,59.97116588126008,
,,,,30.0,6.0,2.0,,,,,,,,,,,,,rot,yellow,g,0.0,r,0.0,0.5678669000044465,,,,,,,,,,2.0,6.0,30.0,3.0,191.92621960002,,,,,,,,,,,,,,,,,191.91106970002875,192.2596061000368,193.0588840000564,193.04347830009647,,,,,,,,,,,,,,,,,,,,,,,,,,,,,,,,,,,193.04569810000248,193.0588840000564,193.0588840000564,193.64309800008775,r,0.0,0.5678669000044465,,,,,sub-180,1,stroop_test,59.97116588126008,
,,,,31.0,7.0,2.0,,,,,,,,,,,,,rot,red,r,1.0,r,1.0,0.6080891999881715,,,,,,,,,,2.0,7.0,31.0,1.0,193.65897009999023,,,,,,,,,,,,,,,,,193.643368500052,194.8583202000009,195.6578438000288,195.64232670003548,,,,,,,,,,,,,,,,,,,,,,,,,,,,,,,,,,,195.64274230005685,195.6578438000288,195.6578438000288,196.27576690004207,r,1.0,0.6080891999881715,,,,,sub-180,1,stroop_test,59.97116588126008,
,,,,32.0,8.0,2.0,,,,,,,,,,,,,gelb,yellow,g,1.0,g,1.0,0.6814380999421701,,,,,,,,,,2.0,8.0,32.0,11.0,196.2912129000761,,,,,,,,,,,,,,,,,196.2760559000308,196.37412699998825,197.1736629999941,197.1578041000757,,,,,,,,,,,,,,,,,,,,,,,,,,,,,,,,,,,197.16004410001915,197.1736629999941,197.1736629999941,197.8576063000364,g,1.0,0.6814380999421701,,,,,sub-180,1,stroop_test,59.97116588126008,
,,,,33.0,9.0,2.0,,,,,,,,,,,,,blau,red,r,0.0,b,0.0,0.6373048999812454,,,,,,,,,,2.0,9.0,33.0,4.0,197.87327019998335,,,,,,,,,,,,,,,,,197.85789660003505,198.6727728000842,199.47227300005036,199.45614470005967,,,,,,,,,,,,,,,,,,,,,,,,,,,,,,,,,,,199.45811830007003,199.47227300005036,199.47227300005036,200.12336219998545,b,0.0,0.6373048999812454,,,,,sub-180,1,stroop_test,59.97116588126008,
,,,,34.0,10.0,2.0,,,,,,,,,,,,,rot,blue,b,0.0,r,0.0,0.7137085000285879,,,,,,,,,,2.0,10.0,34.0,2.0,200.1388711000327,,,,,,,,,,,,,,,,,200.12370580004065,201.3386458000168,202.1376660000533,202.12215830001517,,,,,,,,,,,,,,,,,,,,,,,,,,,,,,,,,,,202.1243436000077,202.1376660000533,202.1376660000533,202.85522030002903,r,0.0,0.7137085000285879,,,,,sub-180,1,stroop_test,59.97116588126008,
,,,,35.0,11.0,2.0,,,,,,,,,,,,,rot,red,r,1.0,r,1.0,0.4660163000226021,,,,,,,,,,2.0,11.0,35.0,0.0,202.87048759998288,,,,,,,,,,,,,,,,,202.8555267000338,204.070148000028,204.86993919999804,204.8536654000636,,,,,,,,,,,,,,,,,,,,,,,,,,,,,,,,,,,204.8540592000354,204.86993919999804,204.86993919999804,205.3377385000931,r,1.0,0.4660163000226021,,,,,sub-180,1,stroop_test,59.97116588126008,
,,,,36.0,0.0,3.0,,,,,,,,,,,,,rot,red,r,1.0,r,1.0,0.6789991999976337,,,,,,,,,,3.0,0.0,36.0,1.0,205.3526767999865,,,,,,,,,,,,,,,,,205.33801900001708,205.4531315000495,206.25222280004527,206.2366174000781,,,,,,,,,,,,,,,,,,,,,,,,,,,,,,,,,,,206.23711600003296,206.25222280004527,206.25222280004527,206.935771199991,r,1.0,0.6789991999976337,,,,,sub-180,1,stroop_test,59.97116588126008,
,,,,37.0,1.0,3.0,,,,,,,,,,,,,blau,blue,b,1.0,b,1.0,0.9125438999617472,,,,,,,,,,3.0,1.0,37.0,5.0,206.9516524000792,,,,,,,,,,,,,,,,,206.9361021000659,207.28515360003803,208.0849334000377,208.0688706000801,,,,,,,,,,,,,,,,,,,,,,,,,,,,,,,,,,,208.0713133000536,208.0849334000377,208.0849334000377,209.0016709000338,b,1.0,0.9125438999617472,,,,,sub-180,1,stroop_test,59.97116588126008,
,,,,38.0,2.0,3.0,,,,,,,,,,,,,gelb,yellow,g,1.0,g,1.0,0.6039746999740601,,,,,,,,,,3.0,2.0,38.0,11.0,209.01736300007903,,,,,,,,,,,,,,,,,209.00201040005777,210.2175275000045,211.03316059999636,211.0164269000525,,,,,,,,,,,,,,,,,,,,,,,,,,,,,,,,,,,211.0186832000036,211.03316059999636,211.03316059999636,211.6502636000514,g,1.0,0.6039746999740601,,,,,sub-180,1,stroop_test,59.97116588126008,
,,,,39.0,3.0,3.0,,,,,,,,,,,,,rot,red,r,1.0,r,1.0,0.6467165999347344,,,,,,,,,,3.0,3.0,39.0,0.0,211.6658353999956,,,,,,,,,,,,,,,,,211.6505621999968,211.74930959998164,212.5496004000306,212.53324680007063,,,,,,,,,,,,,,,,,,,,,,,,,,,,,,,,,,,212.535495200078,212.5496004000306,212.5496004000306,213.19992630009077,r,1.0,0.6467165999347344,,,,,sub-180,1,stroop_test,59.97116588126008,
,,,,40.0,4.0,3.0,,,,,,,,,,,,,blau,yellow,g,0.0,b,0.0,0.7895238000201061,,,,,,,,,,3.0,4.0,40.0,7.0,213.21517770003996,,,,,,,,,,,,,,,,,213.20022330002396,214.01495690003503,214.81422559998464,214.7982566000428,,,,,,,,,,,,,,,,,,,,,,,,,,,,,,,,,,,214.80023060005624,214.81422559998464,214.81422559998464,215.6150636000093,b,0.0,0.7895238000201061,,,,,sub-180,1,stroop_test,59.97116588126008,
,,,,41.0,5.0,3.0,,,,,,,,,,,,,gelb,red,r,0.0,g,0.0,1.1297808000817895,,,,,,,,,,3.0,5.0,41.0,8.0,215.63059200008863,,,,,,,,,,,,,,,,,215.61536749999505,216.4301248000702,217.22999160003383,217.2152298000874,,,,,,,,,,,,,,,,,,,,,,,,,,,,,,,,,,,217.21746710001025,217.22999160003383,217.22999160003383,218.3636987000937,g,0.0,1.1297808000817895,,,,,sub-180,1,stroop_test,59.97116588126008,
,,,,42.0,6.0,3.0,,,,,,,,,,,,,gelb,blue,b,0.0,g,0.0,0.6855351999402046,,,,,,,,,,3.0,6.0,42.0,9.0,218.379122100072,,,,,,,,,,,,,,,,,218.36400200007483,218.72879570000805,219.5285113999853,219.51273260009475,,,,,,,,,,,,,,,,,,,,,,,,,,,,,,,,,,,219.51314290007576,219.5285113999853,219.5285113999853,220.2296958999941,g,0.0,0.6855351999402046,,,,,sub-180,1,stroop_test,59.97116588126008,
,,,,43.0,7.0,3.0,,,,,,,,,,,,,rot,yellow,g,0.0,r,0.0,0.6233509000157937,,,,,,,,,,3.0,7.0,43.0,3.0,220.2445947000524,,,,,,,,,,,,,,,,,220.2299930000445,220.34473460004665,221.1446435999824,221.12904370005708,,,,,,,,,,,,,,,,,,,,,,,,,,,,,,,,,,,221.1312031000853,221.1446435999824,221.1446435999824,221.7783937000204,r,0.0,0.6233509000157937,,,,,sub-180,1,stroop_test,59.97116588126008,
,,,,44.0,8.0,3.0,,,,,,,,,,,,,blau,blue,b,1.0,b,1.0,0.5837170000886545,,,,,,,,,,3.0,8.0,44.0,6.0,221.79401589999907,,,,,,,,,,,,,,,,,221.77868980006315,222.99318910005968,223.7927651000209,223.77771420008503,,,,,,,,,,,,,,,,,,,,,,,,,,,,,,,,,,,223.7804923000513,223.7927651000209,223.7927651000209,224.37846889998764,b,1.0,0.5837170000886545,,,,,sub-180,1,stroop_test,59.97116588126008,
,,,,45.0,9.0,3.0,,,,,,,,,,,,,rot,blue,b,0.0,r,0.0,0.6890393000794575,,,,,,,,,,3.0,9.0,45.0,2.0,224.39216120005585,,,,,,,,,,,,,,,,,224.37876650004185,224.49299150006848,225.29273210000247,225.27614370000083,,,,,,,,,,,,,,,,,,,,,,,,,,,,,,,,,,,225.27839099999983,225.29273210000247,225.29273210000247,225.99273689999245,r,0.0,0.6890393000794575,,,,,sub-180,1,stroop_test,59.97116588126008,
,,,,46.0,10.0,3.0,,,,,,,,,,,,,blau,red,r,0.0,b,0.0,0.5774418000364676,,,,,,,,,,3.0,10.0,46.0,4.0,226.00899840006605,,,,,,,,,,,,,,,,,225.99301790003665,227.2082146999892,228.00740250002127,227.9912199000828,,,,,,,,,,,,,,,,,,,,,,,,,,,,,,,,,,,227.99334929999893,228.00740250002127,228.00740250002127,228.59171370009423,b,0.0,0.5774418000364676,,,,,sub-180,1,stroop_test,59.97116588126008,
,,,,47.0,11.0,3.0,,,,,,,,,,,,,gelb,yellow,g,1.0,g,1.0,0.9897412999998778,,,,,,,,,,3.0,11.0,47.0,10.0,228.60731910006143,,,,,,,,,,,,,,,,,228.5920249000192,228.70798860001375,229.52341300004628,229.50760650006123,,,,,,,,,,,,,,,,,,,,,,,,,,,,,,,,,,,229.50990260008257,229.52341300004628,229.52341300004628,230.52486420003697,g,1.0,0.9897412999998778,,,,,sub-180,1,stroop_test,59.97116588126008,
,,,,48.0,0.0,4.0,,,,,,,,,,,,,rot,red,r,1.0,r,1.0,0.4725402999902144,,,,,,,,,,4.0,0.0,48.0,1.0,230.53940600005444,,,,,,,,,,,,,,,,,230.52517939999237,230.89002920000348,231.70600650005508,231.6901641000295,,,,,,,,,,,,,,,,,,,,,,,,,,,,,,,,,,,231.69242040009703,231.70600650005508,231.70600650005508,232.19009260006715,r,1.0,0.4725402999902144,,,,,sub-180,1,stroop_test,59.97116588126008,
,,,,49.0,1.0,4.0,,,,,,,,,,,,,gelb,red,r,0.0,g,0.0,0.6957155000418425,,,,,,,,,,4.0,1.0,49.0,8.0,232.2056070000399,,,,,,,,,,,,,,,,,232.1904102000408,233.0047648000764,233.80474940000568,233.78844859998208,,,,,,,,,,,,,,,,,,,,,,,,,,,,,,,,,,,233.79067400004715,233.80474940000568,233.80474940000568,234.50543060002383,g,0.0,0.6957155000418425,,,,,sub-180,1,stroop_test,59.97116588126008,
,,,,50.0,2.0,4.0,,,,,,,,,,,,,blau,blue,b,1.0,b,1.0,0.597617799998261,,,,,,,,,,4.0,2.0,50.0,6.0,234.52081440004983,,,,,,,,,,,,,,,,,234.5057382000377,235.7200442000758,236.5200751000084,236.5036607000511,,,,,,,,,,,,,,,,,,,,,,,,,,,,,,,,,,,236.5060496000806,236.5200751000084,236.5200751000084,237.1236590000335,b,1.0,0.597617799998261,,,,,sub-180,1,stroop_test,59.97116588126008,
,,,,51.0,3.0,4.0,,,,,,,,,,,,,rot,red,r,1.0,r,1.0,0.5480224000057206,,,,,,,,,,4.0,3.0,51.0,0.0,237.1357171999989,,,,,,,,,,,,,,,,,237.1239969000453,237.9355715999845,238.7356024000328,238.720001299982,,,,,,,,,,,,,,,,,,,,,,,,,,,,,,,,,,,238.7225252999924,238.7356024000328,238.7356024000328,239.28650590009056,r,1.0,0.5480224000057206,,,,,sub-180,1,stroop_test,59.97116588126008,
,,,,52.0,4.0,4.0,,,,,,,,,,,,,blau,blue,b,1.0,b,1.0,0.530285399989225,,,,,,,,,,4.0,4.0,52.0,5.0,239.30152189999356,,,,,,,,,,,,,,,,,239.28680610004807,240.1015790000092,240.9009397000773,240.88470910000612,,,,,,,,,,,,,,,,,,,,,,,,,,,,,,,,,,,240.88686249998864,240.9009397000773,240.9009397000773,241.43575150007385,b,1.0,0.530285399989225,,,,,sub-180,1,stroop_test,59.97116588126008,
,,,,53.0,5.0,4.0,,,,,,,,,,,,,rot,blue,b,0.0,r,0.0,0.7467524000676349,,,,,,,,,,4.0,5.0,53.0,2.0,241.4511168000754,,,,,,,,,,,,,,,,,241.4360514000291,242.2503100000322,243.0500964000821,243.03360510000493,,,,,,,,,,,,,,,,,,,,,,,,,,,,,,,,,,,243.03573680005505,243.0500964000821,243.0500964000821,243.80100440001115,r,0.0,0.7467524000676349,,,,,sub-180,1,stroop_test,59.97116588126008,
,,,,54.0,6.0,4.0,,,,,,,,,,,,,blau,red,r,0.0,b,0.0,0.7268165999557823,,,,,,,,,,4.0,6.0,54.0,4.0,243.81651350005995,,,,,,,,,,,,,,,,,243.80130220006689,244.6160191000672,245.41558630007785,245.3993177000666,,,,,,,,,,,,,,,,,,,,,,,,,,,,,,,,,,,245.4013567999937,245.41558630007785,245.41558630007785,246.14950260007757,b,0.0,0.7268165999557823,,,,,sub-180,1,stroop_test,59.97116588126008,
,,,,55.0,7.0,4.0,,,,,,,,,,,,,gelb,yellow,g,1.0,g,1.0,0.84536100004334,,,,,,,,,,4.0,7.0,55.0,11.0,246.16438249999192,,,,,,,,,,,,,,,,,246.1497984000016,246.26497750007547,247.06451820000075,247.0491091000149,,,,,,,,,,,,,,,,,,,,,,,,,,,,,,,,,,,247.0515514999861,247.06451820000075,247.06451820000075,247.91463810007556,g,1.0,0.84536100004334,,,,,sub-180,1,stroop_test,59.97116588126008,
,,,,56.0,8.0,4.0,,,,,,,,,,,,,rot,yellow,g,0.0,r,0.0,0.6239718999713659,,,,,,,,,,4.0,8.0,56.0,3.0,247.9307693000883,,,,,,,,,,,,,,,,,247.9149358000141,248.26421669998672,249.06288119999223,249.0473503000103,,,,,,,,,,,,,,,,,,,,,,,,,,,,,,,,,,,249.04988380009308,249.06288119999223,249.06288119999223,249.69760090007912,r,0.0,0.6239718999713659,,,,,sub-180,1,stroop_test,59.97116588126008,
,,,,57.0,9.0,4.0,,,,,,,,,,,,,gelb,yellow,g,1.0,g,1.0,0.6330038000596687,,,,,,,,,,4.0,9.0,57.0,10.0,249.7128147000913,,,,,,,,,,,,,,,,,249.69790170004129,250.06258190004155,250.8633607000811,250.846295400057,,,,,,,,,,,,,,,,,,,,,,,,,,,,,,,,,,,250.84852520003915,250.8633607000811,250.8633607000811,251.51343340007588,g,1.0,0.6330038000596687,,,,,sub-180,1,stroop_test,59.97116588126008,
,,,,58.0,10.0,4.0,,,,,,,,,,,,,blau,yellow,g,0.0,b,0.0,0.5842880000127479,,,,,,,,,,4.0,10.0,58.0,7.0,251.52865670004397,,,,,,,,,,,,,,,,,251.51374130009208,252.72805190004877,253.52821380004752,253.51181789999828,,,,,,,,,,,,,,,,,,,,,,,,,,,,,,,,,,,253.51383970002644,253.52821380004752,253.52821380004752,254.12825320009145,b,0.0,0.5842880000127479,,,,,sub-180,1,stroop_test,59.97116588126008,
,,,,59.0,11.0,4.0,,,,,,,,,,,,,gelb,blue,b,0.0,g,0.0,0.6777642999077216,,,,,,,,,,4.0,11.0,59.0,9.0,254.1437586999964,,,,,,,,,,,,,,,,,254.12855420005508,255.3430075000506,256.14329470007215,256.12706420000177,,,,,,,,,,,,,,,,,,,,,,,,,,,,,,,,,,,256.1293571999995,256.14329470007215,256.14329470007215,256.8276185999857,g,0.0,0.6777642999077216,,,,,sub-180,1,stroop_test,59.97116588126008,
,,,,60.0,0.0,5.0,,,,,,,,,,,,,rot,yellow,g,0.0,r,0.0,0.5241819999646395,,,,,,,,,,5.0,0.0,60.0,3.0,256.8428474999964,,,,,,,,,,,,,,,,,256.8279244999867,257.1933121000184,258.00884989998303,257.99285750009585,,,,,,,,,,,,,,,,,,,,,,,,,,,,,,,,,,,257.9952600999968,258.00884989998303,258.00884989998303,258.54346950002946,r,0.0,0.5241819999646395,,,,,sub-180,1,stroop_test,59.97116588126008,
,,,,61.0,1.0,5.0,,,,,,,,,,,,,gelb,yellow,g,1.0,g,1.0,0.5477030000183731,,,,,,,,,,5.0,1.0,61.0,10.0,258.5580667000031,,,,,,,,,,,,,,,,,258.54375479999,258.9081021000165,259.7075419999892,259.6919136000797,,,,,,,,,,,,,,,,,,,,,,,,,,,,,,,,,,,259.6942078000866,259.7075419999892,259.7075419999892,260.25911690003704,g,1.0,0.5477030000183731,,,,,sub-180,1,stroop_test,59.97116588126008,
,,,,62.0,2.0,5.0,,,,,,,,,,,,,blau,blue,b,1.0,b,1.0,0.5606380000244826,,,,,,,,,,5.0,2.0,62.0,6.0,260.2742167999968,,,,,,,,,,,,,,,,,260.259439400048,261.47344189998694,262.2731892000884,262.25695469998755,,,,,,,,,,,,,,,,,,,,,,,,,,,,,,,,,,,262.25939730007667,262.2731892000884,262.2731892000884,262.8410305000143,b,1.0,0.5606380000244826,,,,,sub-180,1,stroop_test,59.97116588126008,
,,,,63.0,3.0,5.0,,,,,,,,,,,,,rot,red,r,1.0,r,1.0,0.4103380999295041,,,,,,,,,,5.0,3.0,63.0,1.0,262.85613980004564,,,,,,,,,,,,,,,,,262.84138770005666,263.65527160000056,264.45532579999417,264.4391192999901,,,,,,,,,,,,,,,,,,,,,,,,,,,,,,,,,,,264.4416916000191,264.45532579999417,264.45532579999417,264.8726068000542,r,1.0,0.4103380999295041,,,,,sub-180,1,stroop_test,59.97116588126008,
,,,,64.0,4.0,5.0,,,,,,,,,,,,,gelb,blue,b,0.0,b,1.0,0.4436098999576643,,,,,,,,,,5.0,4.0,64.0,9.0,264.8885346000316,,,,,,,,,,,,,,,,,264.87290940003004,265.6877673000563,266.4872585000703,266.47173530003056,,,,,,,,,,,,,,,,,,,,,,,,,,,,,,,,,,,266.47398750006687,266.4872585000703,266.4872585000703,266.9383473000489,b,1.0,0.4436098999576643,,,,,sub-180,1,stroop_test,59.97116588126008,
,,,,65.0,5.0,5.0,,,,,,,,,,,,,blau,red,r,0.0,b,0.0,1.4680618999991566,,,,,,,,,,5.0,5.0,65.0,4.0,266.95362970000133,,,,,,,,,,,,,,,,,266.9387928000652,267.0539269000292,267.854235200095,267.837789000012,,,,,,,,,,,,,,,,,,,,,,,,,,,,,,,,,,,267.839768200065,267.854235200095,267.854235200095,269.3370547000086,b,0.0,1.4680618999991566,,,,,sub-180,1,stroop_test,59.97116588126008,
,,,,66.0,6.0,5.0,,,,,,,,,,,,,blau,yellow,g,0.0,b,0.0,0.5612164000049233,,,,,,,,,,5.0,6.0,66.0,7.0,269.35232050006744,,,,,,,,,,,,,,,,,269.3373591999989,269.4360899000894,270.2354471000144,270.2205022000708,,,,,,,,,,,,,,,,,,,,,,,,,,,,,,,,,,,270.22092370002065,270.2354471000144,270.2354471000144,270.80319120001514,b,0.0,0.5612164000049233,,,,,sub-180,1,stroop_test,59.97116588126008,
,,,,67.0,7.0,5.0,,,,,,,,,,,,,gelb,red,r,0.0,b,0.0,0.4855486999731511,,,,,,,,,,5.0,7.0,67.0,8.0,270.818696500035,,,,,,,,,,,,,,,,,270.8034870000556,271.619539400097,272.43432010000106,272.4184823000105,,,,,,,,,,,,,,,,,,,,,,,,,,,,,,,,,,,272.42074370000046,272.43432010000106,272.43432010000106,272.93532090005465,b,0.0,0.4855486999731511,,,,,sub-180,1,stroop_test,59.97116588126008,
,,,,68.0,8.0,5.0,,,,,,,,,,,,,blau,blue,b,1.0,b,1.0,0.5640542999608442,,,,,,,,,,5.0,8.0,68.0,5.0,272.9506521000294,,,,,,,,,,,,,,,,,272.9356187999947,273.3006510999985,274.1008987000678,274.0841700000456,,,,,,,,,,,,,,,,,,,,,,,,,,,,,,,,,,,274.08617130003404,274.1008987000678,274.1008987000678,274.6677004999947,b,1.0,0.5640542999608442,,,,,sub-180,1,stroop_test,59.97116588126008,
,,,,69.0,9.0,5.0,,,,,,,,,,,,,gelb,yellow,g,1.0,g,1.0,0.6266999000217766,,,,,,,,,,5.0,9.0,69.0,11.0,274.68327929999214,,,,,,,,,,,,,,,,,274.66798260004725,274.7664116000524,275.5661809000885,275.550966000068,,,,,,,,,,,,,,,,,,,,,,,,,,,,,,,,,,,275.55373300006613,275.5661809000885,275.5661809000885,276.2001578999916,g,1.0,0.6266999000217766,,,,,sub-180,1,stroop_test,59.97116588126008,
,,,,70.0,10.0,5.0,,,,,,,,,,,,,rot,red,r,1.0,r,1.0,0.5711532999994233,,,,,,,,,,5.0,10.0,70.0,0.0,276.21543900005054,,,,,,,,,,,,,,,,,276.2004966000095,277.01551360008307,277.81540850002784,277.7990708000725,,,,,,,,,,,,,,,,,,,,,,,,,,,,,,,,,,,277.8012301999843,277.81540850002784,277.81540850002784,278.39959440007806,r,1.0,0.5711532999994233,,,,,sub-180,1,stroop_test,59.97116588126008,
,,,,71.0,11.0,5.0,,,,,,,,,,,,,rot,blue,b,0.0,r,0.0,1.1624327999306845,,,,,,,,,,5.0,11.0,71.0,2.0,278.4143380000023,,,,,,,,,,,,,,,,,278.3998944000341,278.76450180006213,279.56442070007324,279.54902440006845,,,,,,,,,,,,,,,,,,,,,,,,,,,,,,,,,,,279.5494470000267,279.56442070007324,279.56442070007324,280.7314183000708,r,0.0,1.1624327999306845,,,,,sub-180,1,stroop_test,59.97116588126008,
,,,,72.0,0.0,6.0,,,,,,,,,,,,,blau,blue,b,1.0,b,1.0,0.5974398000398651,,,,,,,,,,6.0,0.0,72.0,6.0,280.74652440007776,,,,,,,,,,,,,,,,,280.73169859999325,280.8474931000965,281.6628002000507,281.6474028000375,,,,,,,,,,,,,,,,,,,,,,,,,,,,,,,,,,,281.64997450006194,281.6628002000507,281.6628002000507,282.2636819999898,b,1.0,0.5974398000398651,,,,,sub-180,1,stroop_test,59.97116588126008,
,,,,73.0,1.0,6.0,,,,,,,,,,,,,gelb,red,r,0.0,g,0.0,0.3782668999629095,,,,,,,,,,6.0,1.0,73.0,8.0,282.27956890000496,,,,,,,,,,,,,,,,,282.2639671000652,282.62958579999395,283.4284449000843,283.4136018999852,,,,,,,,,,,,,,,,,,,,,,,,,,,,,,,,,,,283.4160444000736,283.4284449000843,283.4284449000843,283.8125691000605,g,0.0,0.3782668999629095,,,,,sub-180,1,stroop_test,59.97116588126008,
,,,,74.0,2.0,6.0,,,,,,,,,,,,,rot,red,r,1.0,r,1.0,0.4186367000220343,,,,,,,,,,6.0,2.0,74.0,0.0,283.8285589000443,,,,,,,,,,,,,,,,,283.81285560003016,285.02786710008513,285.82768890005536,285.8116442000028,,,,,,,,,,,,,,,,,,,,,,,,,,,,,,,,,,,285.81384010007605,285.82768890005536,285.82768890005536,286.26133730006404,r,1.0,0.4186367000220343,,,,,sub-180,1,stroop_test,59.97116588126008,
,,,,75.0,3.0,6.0,,,,,,,,,,,,,blau,blue,b,1.0,b,1.0,0.4894293999532237,,,,,,,,,,6.0,3.0,75.0,5.0,286.2774286000058,,,,,,,,,,,,,,,,,286.26163500000257,286.6111656000139,287.4271488999948,287.41056880005635,,,,,,,,,,,,,,,,,,,,,,,,,,,,,,,,,,,287.412791699986,287.4271488999948,287.4271488999948,287.92754770000465,b,1.0,0.4894293999532237,,,,,sub-180,1,stroop_test,59.97116588126008,
,,,,76.0,4.0,6.0,,,,,,,,,,,,,rot,red,r,1.0,r,1.0,0.5177090000361204,,,,,,,,,,6.0,4.0,76.0,1.0,287.94309950002935,,,,,,,,,,,,,,,,,287.92785970005207,288.7429731000448,289.54225200007204,289.526297000004,,,,,,,,,,,,,,,,,,,,,,,,,,,,,,,,,,,289.5295626000734,289.54225200007204,289.54225200007204,290.0764814000577,r,1.0,0.5177090000361204,,,,,sub-180,1,stroop_test,59.97116588126008,
,,,,77.0,5.0,6.0,,,,,,,,,,,,,gelb,yellow,g,1.0,g,1.0,0.3516120000276714,,,,,,,,,,6.0,5.0,77.0,10.0,290.09143120003864,,,,,,,,,,,,,,,,,290.076802500058,291.2915473000612,292.0911976000061,292.0749294999987,,,,,,,,,,,,,,,,,,,,,,,,,,,,,,,,,,,292.07720539998263,292.0911976000061,292.0911976000061,292.4588114999933,g,1.0,0.3516120000276714,,,,,sub-180,1,stroop_test,59.97116588126008,
,,,,78.0,6.0,6.0,,,,,,,,,,,,,gelb,yellow,g,1.0,g,1.0,0.5395496999844909,,,,,,,,,,6.0,6.0,78.0,11.0,292.474338500062,,,,,,,,,,,,,,,,,292.4590974000748,292.8235224999953,293.62353860004805,293.6078270000871,,,,,,,,,,,,,,,,,,,,,,,,,,,,,,,,,,,293.60823210002854,293.62353860004805,293.62353860004805,294.17414180003107,g,1.0,0.5395496999844909,,,,,sub-180,1,stroop_test,59.97116588126008,
,,,,79.0,7.0,6.0,,,,,,,,,,,,,rot,yellow,g,0.0,r,0.0,0.607789000030607,,,,,,,,,,6.0,7.0,79.0,3.0,294.18963949999306,,,,,,,,,,,,,,,,,294.17444950004574,294.29040960001294,295.0893683000468,295.07346860005055,,,,,,,,,,,,,,,,,,,,,,,,,,,,,,,,,,,295.0757667000871,295.0893683000468,295.0893683000468,295.706347700092,r,0.0,0.607789000030607,,,,,sub-180,1,stroop_test,59.97116588126008,
,,,,80.0,8.0,6.0,,,,,,,,,,,,,blau,yellow,g,0.0,b,0.0,0.6290959999896586,,,,,,,,,,6.0,8.0,80.0,7.0,295.7221901000012,,,,,,,,,,,,,,,,,295.7066333000548,295.8057759000221,296.60556719999295,296.5900709000416,,,,,,,,,,,,,,,,,,,,,,,,,,,,,,,,,,,296.5921705000801,296.60556719999295,296.60556719999295,297.23998790001497,b,0.0,0.6290959999896586,,,,,sub-180,1,stroop_test,59.97116588126008,
,,,,81.0,9.0,6.0,,,,,,,,,,,,,gelb,blue,b,0.0,g,0.0,0.8093219000147656,,,,,,,,,,6.0,9.0,81.0,9.0,297.2549797000829,,,,,,,,,,,,,,,,,297.2402743999846,297.60472430009395,298.4045468000695,298.3881135000847,,,,,,,,,,,,,,,,,,,,,,,,,,,,,,,,,,,298.3903679000214,298.4045468000695,298.4045468000695,299.2214897000231,g,0.0,0.8093219000147656,,,,,sub-180,1,stroop_test,59.97116588126008,
,,,,82.0,10.0,6.0,,,,,,,,,,,,,rot,blue,b,0.0,r,0.0,0.6152198000345379,,,,,,,,,,6.0,10.0,82.0,2.0,299.2368084000191,,,,,,,,,,,,,,,,,299.221807599999,299.5700870000292,300.3696698000422,300.3544708000263,,,,,,,,,,,,,,,,,,,,,,,,,,,,,,,,,,,300.35694780002814,300.3696698000422,300.3696698000422,300.99107560003176,r,0.0,0.6152198000345379,,,,,sub-180,1,stroop_test,59.97116588126008,
,,,,83.0,11.0,6.0,,,,,,,,,,,,,blau,red,r,0.0,b,0.0,0.4652866999385878,,,,,,,,,,6.0,11.0,83.0,4.0,301.00266970007215,,,,,,,,,,,,,,,,,300.99137699999847,301.3531049999874,302.15294880000874,302.13656110002194,,,,,,,,,,,,,,,,,,,,,,,,,,,,,,,,,,,302.13915810000617,302.15294880000874,302.15294880000874,302.62042590009514,b,0.0,0.4652866999385878,,,,,sub-180,1,stroop_test,59.97116588126008,
,,,,84.0,0.0,7.0,,,,,,,,,,,,,rot,red,r,1.0,r,1.0,0.4800323999952525,,,,,,,,,,7.0,0.0,84.0,1.0,302.6349622000708,,,,,,,,,,,,,,,,,302.6207510000095,303.43499960005283,304.23459010000806,304.2185167000862,,,,,,,,,,,,,,,,,,,,,,,,,,,,,,,,,,,304.220659499988,304.23459010000806,304.23459010000806,304.718604200054,r,1.0,0.4800323999952525,,,,,sub-180,1,stroop_test,59.97116588126008,
,,,,85.0,1.0,7.0,,,,,,,,,,,,,rot,yellow,g,0.0,r,0.0,0.5619722000556067,,,,,,,,,,7.0,1.0,85.0,3.0,304.7340475000674,,,,,,,,,,,,,,,,,304.7189286000794,305.53418130008504,306.3336167000234,306.31724520004354,,,,,,,,,,,,,,,,,,,,,,,,,,,,,,,,,,,306.3176420000382,306.3336167000234,306.3336167000234,306.9010680000065,r,0.0,0.5619722000556067,,,,,sub-180,1,stroop_test,59.97116588126008,
,,,,86.0,2.0,7.0,,,,,,,,,,,,,blau,yellow,g,0.0,b,0.0,0.6707424999913201,,,,,,,,,,7.0,2.0,86.0,7.0,306.9161911000265,,,,,,,,,,,,,,,,,306.90135679999366,307.01655220007524,307.8162171000149,307.8008281000657,,,,,,,,,,,,,,,,,,,,,,,,,,,,,,,,,,,307.8029069000622,307.8162171000149,307.8162171000149,308.4999258000171,b,0.0,0.6707424999913201,,,,,sub-180,1,stroop_test,59.97116588126008,
,,,,87.0,3.0,7.0,,,,,,,,,,,,,rot,blue,b,0.0,r,0.0,0.5272056000540033,,,,,,,,,,7.0,3.0,87.0,2.0,308.5153636999894,,,,,,,,,,,,,,,,,308.50023660005536,309.71561700000893,310.5310885000508,310.51511390006635,,,,,,,,,,,,,,,,,,,,,,,,,,,,,,,,,,,310.5174746999983,310.5310885000508,310.5310885000508,311.06548400002066,r,0.0,0.5272056000540033,,,,,sub-180,1,stroop_test,59.97116588126008,
,,,,88.0,4.0,7.0,,,,,,,,,,,,,gelb,yellow,g,1.0,g,1.0,0.5800951999844983,,,,,,,,,,7.0,4.0,88.0,10.0,311.0813186999876,,,,,,,,,,,,,,,,,311.065772300004,312.280506900046,313.08059979998507,313.0639455000637,,,,,,,,,,,,,,,,,,,,,,,,,,,,,,,,,,,313.0661695000017,313.08059979998507,313.08059979998507,313.6642201000359,g,1.0,0.5800951999844983,,,,,sub-180,1,stroop_test,59.97116588126008,
,,,,89.0,5.0,7.0,,,,,,,,,,,,,blau,blue,b,1.0,b,1.0,0.6712555000558496,,,,,,,,,,7.0,5.0,89.0,6.0,313.6792531000683,,,,,,,,,,,,,,,,,313.6645137000596,314.4790231999941,315.2785686000716,315.2628064000746,,,,,,,,,,,,,,,,,,,,,,,,,,,,,,,,,,,315.2647819999838,315.2785686000716,315.2785686000716,315.96282400004566,b,1.0,0.6712555000558496,,,,,sub-180,1,stroop_test,59.97116588126008,
,,,,90.0,6.0,7.0,,,,,,,,,,,,,gelb,yellow,g,1.0,g,1.0,0.756283099995926,,,,,,,,,,7.0,6.0,90.0,11.0,315.9783299000701,,,,,,,,,,,,,,,,,315.9631054000929,316.3287674000021,317.1448506000452,317.1286659000907,,,,,,,,,,,,,,,,,,,,,,,,,,,,,,,,,,,317.13133560004644,317.1448506000452,317.1448506000452,317.91138970002066,g,1.0,0.756283099995926,,,,,sub-180,1,stroop_test,59.97116588126008,
,,,,91.0,7.0,7.0,,,,,,,,,,,,,blau,red,r,0.0,b,0.0,1.1998444999335334,,,,,,,,,,7.0,7.0,91.0,4.0,317.9271959000034,,,,,,,,,,,,,,,,,317.9116759999888,319.12688029999845,319.9263939000666,319.9101213000249,,,,,,,,,,,,,,,,,,,,,,,,,,,,,,,,,,,319.9121579000493,319.9263939000666,319.9263939000666,321.1430270000128,b,0.0,1.1998444999335334,,,,,sub-180,1,stroop_test,59.97116588126008,
,,,,92.0,8.0,7.0,,,,,,,,,,,,,gelb,red,r,0.0,g,0.0,0.9677567000035197,,,,,,,,,,7.0,8.0,92.0,8.0,321.1590041000163,,,,,,,,,,,,,,,,,321.14346100005787,321.50848640000913,322.3083709999919,322.2928645000793,,,,,,,,,,,,,,,,,,,,,,,,,,,,,,,,,,,322.295174100087,322.3083709999919,322.3083709999919,323.2923294000793,g,0.0,0.9677567000035197,,,,,sub-180,1,stroop_test,59.97116588126008,
,,,,93.0,9.0,7.0,,,,,,,,,,,,,blau,blue,b,1.0,b,1.0,0.5296240000752732,,,,,,,,,,7.0,9.0,93.0,5.0,323.30863610003144,,,,,,,,,,,,,,,,,323.29272360005416,324.50743050000165,325.3067721000407,325.2908366000047,,,,,,,,,,,,,,,,,,,,,,,,,,,,,,,,,,,325.2928697000025,325.3067721000407,325.3067721000407,325.84094630007166,b,1.0,0.5296240000752732,,,,,sub-180,1,stroop_test,59.97116588126008,
,,,,94.0,10.0,7.0,,,,,,,,,,,,,rot,red,r,1.0,r,1.0,0.4562636000337079,,,,,,,,,,7.0,10.0,94.0,0.0,325.85652710008435,,,,,,,,,,,,,,,,,325.84123070002533,327.0560790000018,327.8554958000313,327.8396370999981,,,,,,,,,,,,,,,,,,,,,,,,,,,,,,,,,,,327.84185700002126,327.8554958000313,327.8554958000313,328.32349470001645,r,1.0,0.4562636000337079,,,,,sub-180,1,stroop_test,59.97116588126008,
,,,,95.0,11.0,7.0,,,,,,,,,,,,,gelb,blue,b,0.0,g,0.0,0.8412926000310108,,,,,,,,,,7.0,11.0,95.0,9.0,328.3384017000208,,,,,,,,,,,,,,,,,328.3237776000751,329.53826549998485,330.33776090003084,330.32193490001373,,,,,,,,,,,,,,,,,,,,,,,,,,,,,,,,,,,330.3242494000588,330.33776090003084,330.33776090003084,331.18851050001103,g,0.0,0.8412926000310108,,,,,sub-180,1,stroop_test,59.97116588126008,
,,,,96.0,0.0,8.0,,,,,,,,,,,,,rot,yellow,g,0.0,r,0.0,0.5330447000451386,,,,,,,,,,8.0,0.0,96.0,3.0,331.20345909998287,,,,,,,,,,,,,,,,,331.1888205000432,332.4029808000196,333.20291430002544,333.18690219998825,,,,,,,,,,,,,,,,,,,,,,,,,,,,,,,,,,,333.1895419000648,333.20291430002544,333.20291430002544,333.73800720006693,r,0.0,0.5330447000451386,,,,,sub-180,1,stroop_test,59.97116588126008,
,,,,97.0,1.0,8.0,,,,,,,,,,,,,gelb,blue,b,0.0,g,0.0,0.9999010999454184,,,,,,,,,,8.0,1.0,97.0,9.0,333.752360100043,,,,,,,,,,,,,,,,,333.7382908000145,333.852352200076,334.6519353000913,334.6366746000713,,,,,,,,,,,,,,,,,,,,,,,,,,,,,,,,,,,334.6390150000807,334.6519353000913,334.6519353000913,335.65374830004293,g,0.0,0.9999010999454184,,,,,sub-180,1,stroop_test,59.97116588126008,
,,,,98.0,2.0,8.0,,,,,,,,,,,,,gelb,yellow,g,1.0,g,1.0,0.9837470999918878,,,,,,,,,,8.0,2.0,98.0,10.0,335.6683082000818,,,,,,,,,,,,,,,,,335.6540446000872,336.0177934000967,336.8180552000413,336.80180990009103,,,,,,,,,,,,,,,,,,,,,,,,,,,,,,,,,,,336.8022388999816,336.8180552000413,336.8180552000413,337.81802680005785,g,1.0,0.9837470999918878,,,,,sub-180,1,stroop_test,59.97116588126008,
,,,,99.0,3.0,8.0,,,,,,,,,,,,,blau,red,r,0.0,b,0.0,0.7960937999887392,,,,,,,,,,8.0,3.0,99.0,4.0,337.83334080001805,,,,,,,,,,,,,,,,,337.8183265000116,339.0327436000807,339.83243090007454,339.81685990002006,,,,,,,,,,,,,,,,,,,,,,,,,,,,,,,,,,,339.81893180008046,339.83243090007454,339.83243090007454,340.6340275000548,b,0.0,0.7960937999887392,,,,,sub-180,1,stroop_test,59.97116588126008,
,,,,100.0,4.0,8.0,,,,,,,,,,,,,blau,blue,b,1.0,b,1.0,0.9360894000856206,,,,,,,,,,8.0,4.0,100.0,5.0,340.64906429999974,,,,,,,,,,,,,,,,,340.6343271000078,341.44880180002656,342.26461820001714,342.24864800006617,,,,,,,,,,,,,,,,,,,,,,,,,,,,,,,,,,,342.2490972999949,342.26461820001714,342.26461820001714,343.21552490000613,b,1.0,0.9360894000856206,,,,,sub-180,1,stroop_test,59.97116588126008,
,,,,101.0,5.0,8.0,,,,,,,,,,,,,rot,red,r,1.0,r,1.0,0.6187268999638036,,,,,,,,,,8.0,5.0,101.0,0.0,343.23060500004794,,,,,,,,,,,,,,,,,343.21587439998984,343.33107210008893,344.1303120000521,344.11442780005746,,,,,,,,,,,,,,,,,,,,,,,,,,,,,,,,,,,344.11661790008657,344.1303120000521,344.1303120000521,344.7648173000198,r,1.0,0.6187268999638036,,,,,sub-180,1,stroop_test,59.97116588126008,
,,,,102.0,6.0,8.0,,,,,,,,,,,,,gelb,yellow,g,1.0,g,1.0,0.5025077000027522,,,,,,,,,,8.0,6.0,102.0,11.0,344.78011280007195,,,,,,,,,,,,,,,,,344.7651148000732,344.8799016000703,345.68007810006384,345.663854500046,,,,,,,,,,,,,,,,,,,,,,,,,,,,,,,,,,,345.66607909998856,345.68007810006384,345.68007810006384,346.1977691000793,g,1.0,0.5025077000027522,,,,,sub-180,1,stroop_test,59.97116588126008,
,,,,103.0,7.0,8.0,,,,,,,,,,,,,rot,blue,b,0.0,r,0.0,0.5836131001124159,,,,,,,,,,8.0,7.0,103.0,2.0,346.21235680009704,,,,,,,,,,,,,,,,,346.1980907000834,346.5625078000594,347.3629315000726,347.3469916000031,,,,,,,,,,,,,,,,,,,,,,,,,,,,,,,,,,,347.34923719998915,347.3629315000726,347.3629315000726,347.9635149000678,r,0.0,0.5836131001124159,,,,,sub-180,1,stroop_test,59.97116588126008,
,,,,104.0,8.0,8.0,,,,,,,,,,,,,blau,yellow,g,0.0,b,0.0,0.9546167000662537,,,,,,,,,,8.0,8.0,104.0,7.0,347.9787826000247,,,,,,,,,,,,,,,,,347.96390500001144,348.07812329998706,348.87859750003554,348.86189619998913,,,,,,,,,,,,,,,,,,,,,,,,,,,,,,,,,,,348.8643874999834,348.87859750003554,348.87859750003554,349.8456140999915,b,0.0,0.9546167000662537,,,,,sub-180,1,stroop_test,59.97116588126008,
,,,,105.0,9.0,8.0,,,,,,,,,,,,,blau,blue,b,1.0,b,1.0,0.7032838999293745,,,,,,,,,,8.0,9.0,105.0,6.0,349.8608629000373,,,,,,,,,,,,,,,,,349.84592580003664,349.944696300081,350.7601042999886,350.74388309998903,,,,,,,,,,,,,,,,,,,,,,,,,,,,,,,,,,,350.74425670003984,350.7601042999886,350.7601042999886,351.47774220001884,b,1.0,0.7032838999293745,,,,,sub-180,1,stroop_test,59.97116588126008,
,,,,106.0,10.0,8.0,,,,,,,,,,,,,gelb,red,r,0.0,g,0.0,0.610744799952954,,,,,,,,,,8.0,10.0,106.0,8.0,351.4929547000211,,,,,,,,,,,,,,,,,351.47805290005635,351.84276620007586,352.6430624000496,352.62661300005857,,,,,,,,,,,,,,,,,,,,,,,,,,,,,,,,,,,352.62894520000555,352.6430624000496,352.6430624000496,353.2603966000024,g,0.0,0.610744799952954,,,,,sub-180,1,stroop_test,59.97116588126008,
,,,,107.0,11.0,8.0,,,,,,,,,,,,,rot,red,r,1.0,r,1.0,0.5163385999621823,,,,,,,,,,8.0,11.0,107.0,1.0,353.27549760008696,,,,,,,,,,,,,,,,,353.2607245000545,354.4584589999868,355.2581359000178,355.24172090005595,,,,,,,,,,,,,,,,,,,,,,,,,,,,,,,,,,,355.2439367000479,355.2581359000178,355.2581359000178,355.7762620000867,r,1.0,0.5163385999621823,,,,,sub-180,1,stroop_test,59.97116588126008,
,,,,108.0,0.0,9.0,,,,,,,,,,,,,blau,blue,b,1.0,b,1.0,0.6769068000139669,,,,,,,,,,9.0,0.0,108.0,5.0,355.7911231000908,,,,,,,,,,,,,,,,,355.7765627000481,356.9902783000143,357.79010430001654,357.7744963000296,,,,,,,,,,,,,,,,,,,,,,,,,,,,,,,,,,,357.77655160008,357.79010430001654,357.79010430001654,358.4737637999933,b,1.0,0.6769068000139669,,,,,sub-180,1,stroop_test,59.97116588126008,
,,,,109.0,1.0,9.0,,,,,,,,,,,,,blau,blue,b,1.0,b,1.0,0.5350186000578105,,,,,,,,,,9.0,1.0,109.0,6.0,358.48938120005187,,,,,,,,,,,,,,,,,358.4740642000688,359.6888850000687,360.4885189000052,360.47261140006594,,,,,,,,,,,,,,,,,,,,,,,,,,,,,,,,,,,360.4730042000301,360.4885189000052,360.4885189000052,361.0400664000772,b,1.0,0.5350186000578105,,,,,sub-180,1,stroop_test,59.97116588126008,
,,,,110.0,2.0,9.0,,,,,,,,,,,,,rot,red,r,1.0,r,1.0,0.4593534999294206,,,,,,,,,,9.0,2.0,110.0,0.0,361.0552348000929,,,,,,,,,,,,,,,,,361.04040539998095,362.2545893000206,363.0541955000954,363.03771880001295,,,,,,,,,,,,,,,,,,,,,,,,,,,,,,,,,,,363.04021630005445,363.0541955000954,363.0541955000954,363.5222324000206,r,1.0,0.4593534999294206,,,,,sub-180,1,stroop_test,59.97116588126008,
,,,,111.0,3.0,9.0,,,,,,,,,,,,,gelb,blue,b,0.0,g,0.0,0.8848592999856919,,,,,,,,,,9.0,3.0,111.0,9.0,363.5369955000933,,,,,,,,,,,,,,,,,363.52251710009295,363.8876952000428,364.6862972000381,364.6710582000669,,,,,,,,,,,,,,,,,,,,,,,,,,,,,,,,,,,364.6732318000868,364.6862972000381,364.6862972000381,365.5868065999821,g,0.0,0.8848592999856919,,,,,sub-180,1,stroop_test,59.97116588126008,
,,,,112.0,4.0,9.0,,,,,,,,,,,,,blau,red,r,0.0,b,0.0,0.8807358000194654,,,,,,,,,,9.0,4.0,112.0,4.0,365.60225029999856,,,,,,,,,,,,,,,,,365.5871153000044,365.9357871999964,366.7354485000251,366.7191904000938,,,,,,,,,,,,,,,,,,,,,,,,,,,,,,,,,,,366.7217089000624,366.7354485000251,366.7354485000251,367.6200148999924,b,0.0,0.8807358000194654,,,,,sub-180,1,stroop_test,59.97116588126008,
,,,,113.0,5.0,9.0,,,,,,,,,,,,,rot,red,r,1.0,r,1.0,0.3835516000399366,,,,,,,,,,9.0,5.0,113.0,1.0,367.6347324000672,,,,,,,,,,,,,,,,,367.6203523000004,368.8343959000194,369.6338535000105,369.6184712999966,,,,,,,,,,,,,,,,,,,,,,,,,,,,,,,,,,,369.6205980000086,369.6338535000105,369.6338535000105,370.019589100033,r,1.0,0.3835516000399366,,,,,sub-180,1,stroop_test,59.97116588126008,
,,,,114.0,6.0,9.0,,,,,,,,,,,,,gelb,yellow,g,1.0,g,1.0,0.5566953999223188,,,,,,,,,,9.0,6.0,114.0,10.0,370.0333656000439,,,,,,,,,,,,,,,,,370.0198901999975,370.83331470005214,371.6334382999921,371.6171165000415,,,,,,,,,,,,,,,,,,,,,,,,,,,,,,,,,,,371.6194213000126,371.6334382999921,371.6334382999921,372.2001886999933,g,1.0,0.5566953999223188,,,,,sub-180,1,stroop_test,59.97116588126008,
,,,,115.0,7.0,9.0,,,,,,,,,,,,,rot,yellow,g,0.0,r,0.0,0.4571412999648601,,,,,,,,,,9.0,7.0,115.0,3.0,372.2156147999922,,,,,,,,,,,,,,,,,372.2004641999956,373.0153541000327,373.8148495000787,373.799068500055,,,,,,,,,,,,,,,,,,,,,,,,,,,,,,,,,,,373.8011893000221,373.8148495000787,373.8148495000787,374.2822634000331,r,0.0,0.4571412999648601,,,,,sub-180,1,stroop_test,59.97116588126008,
,,,,116.0,8.0,9.0,,,,,,,,,,,,,blau,yellow,g,0.0,b,0.0,0.5684643000131473,,,,,,,,,,9.0,8.0,116.0,7.0,374.2984964000061,,,,,,,,,,,,,,,,,374.2825812000083,374.3811757999938,375.1807674000738,375.166549500078,,,,,,,,,,,,,,,,,,,,,,,,,,,,,,,,,,,375.1687146000331,375.1807674000738,375.1807674000738,375.7644383000443,b,0.0,0.5684643000131473,,,,,sub-180,1,stroop_test,59.97116588126008,
,,,,117.0,9.0,9.0,,,,,,,,,,,,,rot,blue,b,0.0,r,0.0,0.4478869999293238,,,,,,,,,,9.0,9.0,117.0,2.0,375.7802078000968,,,,,,,,,,,,,,,,,375.7647840999998,376.56340280000586,377.3633400000399,377.3478916999884,,,,,,,,,,,,,,,,,,,,,,,,,,,,,,,,,,,377.3501105000032,377.3633400000399,377.3633400000399,377.81385560007766,r,0.0,0.4478869999293238,,,,,sub-180,1,stroop_test,59.97116588126008,
,,,,118.0,10.0,9.0,,,,,,,,,,,,,gelb,yellow,g,1.0,g,1.0,0.5982553000794724,,,,,,,,,,9.0,10.0,118.0,11.0,377.8299950000364,,,,,,,,,,,,,,,,,377.8141385000199,379.0294099000748,379.845020400011,379.8295633000089,,,,,,,,,,,,,,,,,,,,,,,,,,,,,,,,,,,379.83214890002273,379.845020400011,379.845020400011,380.4455786000472,g,1.0,0.5982553000794724,,,,,sub-180,1,stroop_test,59.97116588126008,
,,,,119.0,11.0,9.0,,,,,,,,,,,,,gelb,red,r,0.0,g,0.0,0.7191273000789806,,,,,,,,,,9.0,11.0,119.0,8.0,380.46136250009295,,,,,,,,,,,,,,,,,380.4458851000527,380.8108853000449,381.61055440001655,381.5946136000566,,,,,,,,,,,,,,,,,,,,,,,,,,,,,,,,,,,381.5950205000117,381.61055440001655,381.61055440001655,382.3444259000244,g,0.0,0.7191273000789806,,,,,sub-180,1,stroop_test,59.97116588126008,
,,,,,,,,,,,,,,,,,,,,,,,,,,,,,,,,,,,,,,,,,,,,,,,,,,,,,,,,,,,,,,,,,,,,,,,,,,,,,,,,,,,,,,,,,,,,,,,,,,,,,,382.3445618000114,382.3601225999882,387.3582751000067,sub-180,1,stroop_test,59.97116588126008,
