wordCTK,colorCTK,corrAnsCTK,congruentCTK,thisN,thisTrialN,thisRepN,keyResp_CTK.keys,keyResp_CTK.corr,keyResp_CTK.rt,keyResp_CTK.duration,wordPractice,colorPractice,corrAnsPractice,congruentPractice,respPractice.keys,respPractice.corr,respPractice.rt,respPractice.duration,word,color,corrAns,congruent,keyResp_test_run.keys,keyResp_test_run.corr,keyResp_test_run.rt,keyResp_test_run.duration,trials_CTK.thisRepN,trials_CTK.thisTrialN,trials_CTK.thisN,trials_CTK.thisIndex,trials_practice.thisRepN,trials_practice.thisTrialN,trials_practice.thisN,trials_practice.thisIndex,trials_test.thisRepN,trials_test.thisTrialN,trials_test.thisN,trials_test.thisIndex,thisRow.t,notes,instruction.started,instr_text.started,instr_image.started,instr_resp.started,instruction.stopped,instr_resp.keys,instr_resp.rt,instr_resp.duration,instr_color_to_key.started,instr_ctk.started,resp_ctk.started,instr_color_to_key.stopped,resp_ctk.keys,resp_ctk.rt,resp_ctk.duration,ITI.started,fixcross.started,fixcross.stopped,ITI.stopped,color_to_key_run.started,stimulus_CTK.started,keyResp_CTK.started,color_to_key_run.stopped,trials_CTK.keyResp_CTK.keys,trials_CTK.keyResp_CTK.corr,trials_CTK.keyResp_CTK.rt,trials_CTK.keyResp_CTK.duration,instr_practice.started,instr_practice_text.started,instr_practice_resp.started,instr_practice.stopped,instr_practice_resp.keys,instr_practice_resp.rt,instr_practice_resp.duration,practice_run.started,stimulus_practice.started,respPractice.started,practice_run.stopped,trials_practice.respPractice.keys,trials_practice.respPractice.corr,trials_practice.respPractice.rt,trials_practice.respPractice.duration,feedback.started,textFeedback.started,feedback.stopped,textFeedback.stopped,instr_test.started,instr_test_text.started,instr_test_resp.started,instr_test.stopped,instr_test_resp.keys,instr_test_resp.rt,instr_test_resp.duration,test_run.started,stimulus_test_run.started,keyResp_test_run.started,test_run.stopped,trials_test.keyResp_test_run.keys,trials_test.keyResp_test_run.corr,trials_test.keyResp_test_run.rt,trials_test.keyResp_test_run.duration,goodbye.started,textGoodbye.started,goodbye.stopped,participant,session,date,expName,psychopyVersion,frameRate,expStart
,,,,,,,,,,,,,,,,,,,,,,,,,,,,,,,,,,,,,,,,,0.0816761,0.1937719,0.1937719,0.1937719,102.9960664,space,102.5999767,None,,,,,,,,,,,,,,,,,,,,,,,,,,,,,,,,,,,,,,,,,,,,,,,,,,,,,,,,,sub-027,1,2025-03-07_17h56.14.654,stroop_test,04.02.2024,59.54323196,2025-03-07 17h56.29.298544 +0100
,,,,,,,,,,,,,,,,,,,,,,,,,,,,,,,,,,,,,,,,,,,,,,,,,102.9961446,103.0081793,103.0081793,110.7810997,space,7.758724,None,,,,,,,,,,,,,,,,,,,,,,,,,,,,,,,,,,,,,,,,,,,,,,,,,,sub-027,1,2025-03-07_17h56.14.654,stroop_test,04.02.2024,59.54323196,2025-03-07 17h56.29.298544 +0100
test,red,r,1,0,0,0,r,1,1.1894771,None,,,,,,,,,,,,,,,,,0,0,0,0,,,,,,,,,110.8073637,,,,,,,,,,,,,,,,,110.8008772,111.1430626,111.9574463,111.9314817,111.9436048,111.9574463,111.9574463,113.1516355,r,1,1.1894771,None,,,,,,,,,,,,,,,,,,,,,,,,,,,,,,,,,,,,,,sub-027,1,2025-03-07_17h56.14.654,stroop_test,04.02.2024,59.54323196,2025-03-07 17h56.29.298544 +0100
test,blue,b,1,1,1,0,b,1,1.8792358,None,,,,,,,,,,,,,,,,,0,1,1,2,,,,,,,,,113.1591393,,,,,,,,,,,,,,,,,113.1519673,113.5089407,114.3089515,114.295946,114.2962541,114.3089515,114.3089515,116.1954826,b,1,1.8792358,None,,,,,,,,,,,,,,,,,,,,,,,,,,,,,,,,,,,,,,sub-027,1,2025-03-07_17h56.14.654,stroop_test,04.02.2024,59.54323196,2025-03-07 17h56.29.298544 +0100
test,yellow,g,1,2,2,0,g,1,1.6678084,None,,,,,,,,,,,,,,,,,0,2,2,1,,,,,,,,,116.2083376,,,,,,,,,,,,,,,,,116.1956905,117.0089246,117.808084,117.796514,117.7968444,117.808084,117.808084,119.4806192,g,1,1.6678084,None,,,,,,,,,,,,,,,,,,,,,,,,,,,,,,,,,,,,,,sub-027,1,2025-03-07_17h56.14.654,stroop_test,04.02.2024,59.54323196,2025-03-07 17h56.29.298544 +0100
test,yellow,g,1,3,0,1,g,1,0.8893149,None,,,,,,,,,,,,,,,,,1,0,3,1,,,,,,,,,119.4921061,,,,,,,,,,,,,,,,,119.4809112,120.6921239,121.4924946,121.4801356,121.4804972,121.4924946,121.4924946,122.3954417,g,1,0.8893149,None,,,,,,,,,,,,,,,,,,,,,,,,,,,,,,,,,,,,,,sub-027,1,2025-03-07_17h56.14.654,stroop_test,04.02.2024,59.54323196,2025-03-07 17h56.29.298544 +0100
test,red,r,1,4,1,1,r,1,1.6907241,None,,,,,,,,,,,,,,,,,1,1,4,0,,,,,,,,,122.4085676,,,,,,,,,,,,,,,,,122.3956684,123.6087803,124.4093056,124.3995471,124.3999643,124.4093056,124.4093056,126.1125186,r,1,1.6907241,None,,,,,,,,,,,,,,,,,,,,,,,,,,,,,,,,,,,,,,sub-027,1,2025-03-07_17h56.14.654,stroop_test,04.02.2024,59.54323196,2025-03-07 17h56.29.298544 +0100
test,blue,b,1,5,2,1,b,1,0.9440108,None,,,,,,,,,,,,,,,,,1,2,5,2,,,,,,,,,126.1248477,,,,,,,,,,,,,,,,,126.1128348,126.4749174,127.2747681,127.2626989,127.2630254,127.2747681,127.2747681,128.2290963,b,1,0.9440108,None,,,,,,,,,,,,,,,,,,,,,,,,,,,,,,,,,,,,,,sub-027,1,2025-03-07_17h56.14.654,stroop_test,04.02.2024,59.54323196,2025-03-07 17h56.29.298544 +0100
test,blue,b,1,6,0,2,b,1,0.8615982,None,,,,,,,,,,,,,,,,,2,0,6,2,,,,,,,,,128.2418893,,,,,,,,,,,,,,,,,128.2293723,128.3431719,129.1414,129.1302384,129.1305631,129.1414,129.1414,130.0136228,b,1,0.8615982,None,,,,,,,,,,,,,,,,,,,,,,,,,,,,,,,,,,,,,,sub-027,1,2025-03-07_17h56.14.654,stroop_test,04.02.2024,59.54323196,2025-03-07 17h56.29.298544 +0100
test,red,r,1,7,1,2,r,1,1.1105838,None,,,,,,,,,,,,,,,,,2,1,7,0,,,,,,,,,130.0254237,,,,,,,,,,,,,,,,,130.0139874,130.8257396,131.624173,131.6127671,131.6133876,131.624173,131.624173,132.746287,r,1,1.1105838,None,,,,,,,,,,,,,,,,,,,,,,,,,,,,,,,,,,,,,,sub-027,1,2025-03-07_17h56.14.654,stroop_test,04.02.2024,59.54323196,2025-03-07 17h56.29.298544 +0100
test,yellow,g,1,8,2,2,g,1,0.5760122,None,,,,,,,,,,,,,,,,,2,2,8,1,,,,,,,,,132.7578252,,,,,,,,,,,,,,,,,132.7465679,133.557961,134.35826,134.3500226,134.3504094,134.35826,134.35826,134.9465472,g,1,0.5760122,None,,,,,,,,,,,,,,,,,,,,,,,,,,,,,,,,,,,,,,sub-027,1,2025-03-07_17h56.14.654,stroop_test,04.02.2024,59.54323196,2025-03-07 17h56.29.298544 +0100
test,yellow,g,1,9,0,3,g,1,0.9660282,None,,,,,,,,,,,,,,,,,3,0,9,1,,,,,,,,,134.9577478,,,,,,,,,,,,,,,,,134.9467993,135.3084174,136.1078758,136.0959692,136.0962504,136.1078758,136.1078758,137.0791017,g,1,0.9660282,None,,,,,,,,,,,,,,,,,,,,,,,,,,,,,,,,,,,,,,sub-027,1,2025-03-07_17h56.14.654,stroop_test,04.02.2024,59.54323196,2025-03-07 17h56.29.298544 +0100
test,blue,b,1,10,1,3,b,1,1.0611355,None,,,,,,,,,,,,,,,,,3,1,10,2,,,,,,,,,137.0925647,,,,,,,,,,,,,,,,,137.0794288,137.1914562,138.0067624,137.9856473,137.9862837,138.0067624,138.0067624,139.0779232,b,1,1.0611355,None,,,,,,,,,,,,,,,,,,,,,,,,,,,,,,,,,,,,,,sub-027,1,2025-03-07_17h56.14.654,stroop_test,04.02.2024,59.54323196,2025-03-07 17h56.29.298544 +0100
test,red,r,1,11,2,3,r,1,1.1260774,None,,,,,,,,,,,,,,,,,3,2,11,0,,,,,,,,,139.0903958,,,,,,,,,,,,,,,,,139.0782349,139.1914535,139.9911194,139.9785048,139.9788615,139.9911194,139.9911194,141.1283877,r,1,1.1260774,None,,,,,,,,,,,,,,,,,,,,,,,,,,,,,,,,,,,,,,sub-027,1,2025-03-07_17h56.14.654,stroop_test,04.02.2024,59.54323196,2025-03-07 17h56.29.298544 +0100
,,,,,,,,,,,,,,,,,,,,,,,,,,,,,,,,,,,,,,,,,,,,,,,,,,,,,,,,,,,,,,,,,,,,141.1285451,141.1410588,141.1410588,155.2793266,space,14.1264071,None,,,,,,,,,,,,,,,,,,,,,,,,,,,,,,,sub-027,1,2025-03-07_17h56.14.654,stroop_test,04.02.2024,59.54323196,2025-03-07 17h56.29.298544 +0100
,,,,0,0,0,,,,,blau,red,r,0,r,1,1.6732752,None,,,,,,,,,,,,,0,0,0,4,,,,,155.3059066,,,,,,,,,,,,,,,,,155.2879742,155.3906396,156.2047987,156.1788883,,,,,,,,,,,,,,,,156.1887072,156.2047987,156.2047987,157.8935556,r,1,1.6732752,None,157.9023704,157.9223416,158.894401,,,,,,,,,,,,,,,,,,,,sub-027,1,2025-03-07_17h56.14.654,stroop_test,04.02.2024,59.54323196,2025-03-07 17h56.29.298544 +0100
,,,,1,1,0,,,,,gelb,yellow,g,1,g,1,1.2490649,None,,,,,,,,,,,,,0,1,1,11,,,,,158.9077117,,,,,,,,,,,,,,,,,158.8947003,160.1068526,160.9230327,160.8972255,,,,,,,,,,,,,,,,160.9001167,160.9230327,160.9230327,162.1777459,g,1,1.2490649,None,162.1780923,162.1895766,163.1785683,,,,,,,,,,,,,,,,,,,,sub-027,1,2025-03-07_17h56.14.654,stroop_test,04.02.2024,59.54323196,2025-03-07 17h56.29.298544 +0100
,,,,2,2,0,,,,,rot,yellow,g,0,g,1,1.9103668,None,,,,,,,,,,,,,0,2,2,3,,,,,163.1907781,,,,,,,,,,,,,,,,,163.1788729,164.3906278,165.1886756,165.1780276,,,,,,,,,,,,,,,,165.1827809,165.1886756,165.1886756,167.1106595,g,1,1.9103668,None,167.1109884,167.1231048,168.1102648,168.1237343,,,,,,,,,,,,,,,,,,,sub-027,1,2025-03-07_17h56.14.654,stroop_test,04.02.2024,59.54323196,2025-03-07 17h56.29.298544 +0100
,,,,3,3,0,,,,,gelb,blue,b,0,b,1,1.0193322,None,,,,,,,,,,,,,0,3,3,9,,,,,168.1237343,,,,,,,,,,,,,,,,,168.1105489,169.3230318,170.1221905,170.1102721,,,,,,,,,,,,,,,,170.1132882,170.1221905,170.1221905,171.1466233,b,1,1.0193322,None,171.1469899,171.1561002,172.1419339,172.155887,,,,,,,,,,,,,,,,,,,sub-027,1,2025-03-07_17h56.14.654,stroop_test,04.02.2024,59.54323196,2025-03-07 17h56.29.298544 +0100
,,,,4,4,0,,,,,rot,red,r,1,r,1,1.1698241,None,,,,,,,,,,,,,0,4,4,1,,,,,172.155887,,,,,,,,,,,,,,,,,172.142156,173.3560674,174.1563931,174.1446533,,,,,,,,,,,,,,,,174.1474677,174.1563931,174.1563931,175.3282517,r,1,1.1698241,None,175.3286294,175.339236,176.3273465,176.339831,,,,,,,,,,,,,,,,,,,sub-027,1,2025-03-07_17h56.14.654,stroop_test,04.02.2024,59.54323196,2025-03-07 17h56.29.298544 +0100
,,,,5,5,0,,,,,gelb,yellow,g,1,g,1,0.7679467,None,,,,,,,,,,,,,0,5,5,10,,,,,176.339831,,,,,,,,,,,,,,,,,176.3277393,177.5398377,178.3407989,178.3281546,,,,,,,,,,,,,,,,178.3305114,178.3407989,178.3407989,179.1124222,g,1,0.7679467,None,179.1129443,179.1221942,180.1109138,180.1224429,,,,,,,,,,,,,,,,,,,sub-027,1,2025-03-07_17h56.14.654,stroop_test,04.02.2024,59.54323196,2025-03-07 17h56.29.298544 +0100
,,,,6,6,0,,,,,rot,red,r,1,r,1,0.6934827,None,,,,,,,,,,,,,0,6,6,0,,,,,180.1224429,,,,,,,,,,,,,,,,,180.1113003,180.2231605,181.0218435,181.011032,,,,,,,,,,,,,,,,181.0147661,181.0218435,181.0218435,181.7273185,r,1,0.6934827,None,181.7277373,181.739635,182.7277993,182.7388346,,,,,,,,,,,,,,,,,,,sub-027,1,2025-03-07_17h56.14.654,stroop_test,04.02.2024,59.54323196,2025-03-07 17h56.29.298544 +0100
,,,,7,7,0,,,,,blau,blue,b,1,b,1,0.9639857,None,,,,,,,,,,,,,0,7,7,6,,,,,182.7388346,,,,,,,,,,,,,,,,,182.7280919,183.0889754,183.8881214,183.876494,,,,,,,,,,,,,,,,183.8789211,183.8881214,183.8881214,184.8594529,b,1,0.9639857,None,184.8597683,184.8721564,185.8598233,185.8718002,,,,,,,,,,,,,,,,,,,sub-027,1,2025-03-07_17h56.14.654,stroop_test,04.02.2024,59.54323196,2025-03-07 17h56.29.298544 +0100
,,,,8,8,0,,,,,gelb,red,r,0,r,1,1.0554377,None,,,,,,,,,,,,,0,8,8,8,,,,,185.8718002,,,,,,,,,,,,,,,,,185.8601035,187.0732846,187.8716665,187.861262,,,,,,,,,,,,,,,,187.8638537,187.8716665,187.8716665,188.9453645,r,1,1.0554377,None,188.94579,188.9550518,189.9435575,189.9551286,,,,,,,,,,,,,,,,,,,sub-027,1,2025-03-07_17h56.14.654,stroop_test,04.02.2024,59.54323196,2025-03-07 17h56.29.298544 +0100
,,,,9,9,0,,,,,blau,blue,b,1,b,1,1.0933348,None,,,,,,,,,,,,,0,9,9,5,,,,,189.9551286,,,,,,,,,,,,,,,,,189.943886,190.7555359,191.5717365,191.5586875,,,,,,,,,,,,,,,,191.5615936,191.5717365,191.5717365,192.6764143,b,1,1.0933348,None,192.6767716,192.6876939,193.6763102,193.6887348,,,,,,,,,,,,,,,,,,,sub-027,1,2025-03-07_17h56.14.654,stroop_test,04.02.2024,59.54323196,2025-03-07 17h56.29.298544 +0100
,,,,10,10,0,,,,,rot,blue,b,0,b,1,1.2188048,None,,,,,,,,,,,,,0,10,10,2,,,,,193.6887348,,,,,,,,,,,,,,,,,193.6765385,194.4894593,195.3045824,195.2807429,,,,,,,,,,,,,,,,195.2840462,195.3045824,195.3045824,196.5281656,b,1,1.2188048,None,196.5285038,196.5374357,197.5282564,197.5392851,,,,,,,,,,,,,,,,,,,sub-027,1,2025-03-07_17h56.14.654,stroop_test,04.02.2024,59.54323196,2025-03-07 17h56.29.298544 +0100
,,,,11,11,0,,,,,blau,yellow,g,0,g,1,1.0052477,None,,,,,,,,,,,,,0,11,11,7,,,,,197.5392851,,,,,,,,,,,,,,,,,197.5288367,197.6381731,198.4384688,198.4270973,,,,,,,,,,,,,,,,198.4295535,198.4384688,198.4384688,199.4581985,g,1,1.0052477,None,199.4588807,199.4709666,200.4588492,,,,,,,,,,,,,,,,,,,,sub-027,1,2025-03-07_17h56.14.654,stroop_test,04.02.2024,59.54323196,2025-03-07 17h56.29.298544 +0100
,,,,12,0,1,,,,,rot,red,r,1,r,1,0.7335842,None,,,,,,,,,,,,,1,0,12,0,,,,,200.4715186,,,,,,,,,,,,,,,,,200.4591908,200.8223074,201.6367531,201.6258141,,,,,,,,,,,,,,,,201.6286559,201.6367531,201.6367531,202.3768167,r,1,0.7335842,None,202.3771994,202.3867043,203.3763914,203.3887538,,,,,,,,,,,,,,,,,,,sub-027,1,2025-03-07_17h56.14.654,stroop_test,04.02.2024,59.54323196,2025-03-07 17h56.29.298544 +0100
,,,,13,1,1,,,,,rot,yellow,g,0,g,1,1.1520487,None,,,,,,,,,,,,,1,1,13,3,,,,,203.3887538,,,,,,,,,,,,,,,,,203.3766968,204.1888041,204.9867877,204.9792534,,,,,,,,,,,,,,,,204.9797218,204.9867877,204.9867877,206.1429816,g,1,1.1520487,None,206.143424,206.1526928,207.1425388,207.154214,,,,,,,,,,,,,,,,,,,sub-027,1,2025-03-07_17h56.14.654,stroop_test,04.02.2024,59.54323196,2025-03-07 17h56.29.298544 +0100
,,,,14,2,1,,,,,rot,blue,b,0,b,1,0.8261569,None,,,,,,,,,,,,,1,2,14,2,,,,,207.154214,,,,,,,,,,,,,,,,,207.1428405,207.2536523,208.0539255,208.0449613,,,,,,,,,,,,,,,,208.0456063,208.0539255,208.0539255,208.8913632,b,1,0.8261569,None,208.8917682,208.9040232,209.9075667,,,,,,,,,,,,,,,,,,,,sub-027,1,2025-03-07_17h56.14.654,stroop_test,04.02.2024,59.54323196,2025-03-07 17h56.29.298544 +0100
,,,,15,3,1,,,,,gelb,blue,b,0,b,1,0.8437407,None,,,,,,,,,,,,,1,3,15,9,,,,,209.919857,,,,,,,,,,,,,,,,,209.9078001,210.2532127,211.0535139,211.0399997,,,,,,,,,,,,,,,,211.0431875,211.0535139,211.0535139,211.9079407,b,1,0.8437407,None,211.9083645,211.9201247,212.9066893,212.9204727,,,,,,,,,,,,,,,,,,,sub-027,1,2025-03-07_17h56.14.654,stroop_test,04.02.2024,59.54323196,2025-03-07 17h56.29.298544 +0100
,,,,16,4,1,,,,,gelb,red,r,0,r,1,0.7597126,None,,,,,,,,,,,,,1,4,16,8,,,,,212.9204727,,,,,,,,,,,,,,,,,212.9069274,214.1211798,214.9364746,214.9243676,,,,,,,,,,,,,,,,214.9247688,214.9364746,214.9364746,215.7083255,r,1,0.7597126,None,215.7087068,215.7195945,216.708555,216.7203911,,,,,,,,,,,,,,,,,,,sub-027,1,2025-03-07_17h56.14.654,stroop_test,04.02.2024,59.54323196,2025-03-07 17h56.29.298544 +0100
,,,,17,5,1,,,,,blau,blue,b,1,b,1,0.5721372,None,,,,,,,,,,,,,1,5,17,6,,,,,216.7203911,,,,,,,,,,,,,,,,,216.7088028,217.0699244,217.8691465,217.8582015,,,,,,,,,,,,,,,,217.8609667,217.8691465,217.8691465,218.4573045,b,1,0.5721372,None,218.4575697,218.4708414,219.4737805,,,,,,,,,,,,,,,,,,,,sub-027,1,2025-03-07_17h56.14.654,stroop_test,04.02.2024,59.54323196,2025-03-07 17h56.29.298544 +0100
,,,,18,6,1,,,,,blau,red,r,0,r,1,0.8970322,None,,,,,,,,,,,,,1,6,18,4,,,,,219.4865392,,,,,,,,,,,,,,,,,219.4740799,220.2701469,221.0691881,221.058,,,,,,,,,,,,,,,,221.0583436,221.0691881,221.0691881,221.9744371,r,1,0.8970322,None,221.9748444,221.9851773,222.9748633,222.9866994,,,,,,,,,,,,,,,,,,,sub-027,1,2025-03-07_17h56.14.654,stroop_test,04.02.2024,59.54323196,2025-03-07 17h56.29.298544 +0100
,,,,19,7,1,,,,,gelb,yellow,g,1,g,1,0.9760499,None,,,,,,,,,,,,,1,7,19,10,,,,,222.9866994,,,,,,,,,,,,,,,,,222.975158,223.3362294,224.1519989,224.1255907,,,,,,,,,,,,,,,,224.1292604,224.1519989,224.1519989,225.1397784,g,1,0.9760499,None,225.1402169,225.1525569,226.1416558,,,,,,,,,,,,,,,,,,,,sub-027,1,2025-03-07_17h56.14.654,stroop_test,04.02.2024,59.54323196,2025-03-07 17h56.29.298544 +0100
,,,,20,8,1,,,,,rot,red,r,1,r,1,0.6022738,None,,,,,,,,,,,,,1,8,20,1,,,,,226.1538322,,,,,,,,,,,,,,,,,226.1420595,227.3530748,228.1527686,228.1421409,,,,,,,,,,,,,,,,228.1449968,228.1527686,228.1527686,228.7577146,r,1,0.6022738,None,228.7582654,228.7696245,229.7584313,,,,,,,,,,,,,,,,,,,,sub-027,1,2025-03-07_17h56.14.654,stroop_test,04.02.2024,59.54323196,2025-03-07 17h56.29.298544 +0100
,,,,21,9,1,,,,,blau,blue,b,1,b,1,0.8679131,None,,,,,,,,,,,,,1,9,21,5,,,,,229.7702622,,,,,,,,,,,,,,,,,229.7587322,230.1210154,230.9346698,230.9109553,,,,,,,,,,,,,,,,230.9141462,230.9346698,230.9346698,231.8098219,b,1,0.8679131,None,231.8103485,231.819561,232.8095991,232.8192728,,,,,,,,,,,,,,,,,,,sub-027,1,2025-03-07_17h56.14.654,stroop_test,04.02.2024,59.54323196,2025-03-07 17h56.29.298544 +0100
,,,,22,10,1,,,,,gelb,yellow,g,1,g,1,0.9384101,None,,,,,,,,,,,,,1,10,22,11,,,,,232.8192728,,,,,,,,,,,,,,,,,232.8099463,232.9190651,233.7189432,233.7092074,,,,,,,,,,,,,,,,233.7118116,233.7189432,233.7189432,234.6613424,g,1,0.9384101,None,234.6617972,234.6685763,235.6584237,235.6684982,,,,,,,,,,,,,,,,,,,sub-027,1,2025-03-07_17h56.14.654,stroop_test,04.02.2024,59.54323196,2025-03-07 17h56.29.298544 +0100
,,,,23,11,1,,,,,blau,yellow,g,0,g,1,1.2267608,None,,,,,,,,,,,,,1,11,23,7,,,,,235.6684982,,,,,,,,,,,,,,,,,235.6587798,236.0193494,236.8185442,236.8078513,,,,,,,,,,,,,,,,236.8110767,236.8185442,236.8185442,238.058441,g,1,1.2267608,None,238.0587553,238.0676457,239.0595371,,,,,,,,,,,,,,,,,,,,sub-027,1,2025-03-07_17h56.14.654,stroop_test,04.02.2024,59.54323196,2025-03-07 17h56.29.298544 +0100
,,,,,,,,,,,,,,,,,,,,,,,,,,,,,,,,,,,,,,,,,,,,,,,,,,,,,,,,,,,,,,,,,,,,,,,,,,,,,,,,,,,,,,,239.0596945,239.0693635,239.0693635,253.4738487,space,14.3947065,None,,,,,,,,,,,,sub-027,1,2025-03-07_17h56.14.654,stroop_test,04.02.2024,59.54323196,2025-03-07 17h56.29.298544 +0100
,,,,0,0,0,,,,,,,,,,,,,rot,red,r,1,r,1,0.9746499,None,,,,,,,,,0,0,0,0,253.501476,,,,,,,,,,,,,,,,,253.4870204,254.2847813,255.1007913,255.0763722,,,,,,,,,,,,,,,,,,,,,,,,,,,,,,,,,,,255.0795492,255.1007913,255.1007913,256.0894745,r,1,0.9746499,None,,,,sub-027,1,2025-03-07_17h56.14.654,stroop_test,04.02.2024,59.54323196,2025-03-07 17h56.29.298544 +0100
,,,,1,1,0,,,,,,,,,,,,,rot,red,r,1,r,1,0.7384365,None,,,,,,,,,0,1,1,1,256.1026093,,,,,,,,,,,,,,,,,256.0897493,256.4509002,257.2519674,257.2396926,,,,,,,,,,,,,,,,,,,,,,,,,,,,,,,,,,,257.2401158,257.2519674,257.2519674,258.0081918,r,1,0.7384365,None,,,,sub-027,1,2025-03-07_17h56.14.654,stroop_test,04.02.2024,59.54323196,2025-03-07 17h56.29.298544 +0100
,,,,2,2,0,,,,,,,,,,,,,gelb,yellow,g,1,g,1,0.8126729,None,,,,,,,,,0,2,2,11,258.0181828,,,,,,,,,,,,,,,,,258.0086664,258.8184461,259.6170302,259.6060458,,,,,,,,,,,,,,,,,,,,,,,,,,,,,,,,,,,259.6087116,259.6170302,259.6170302,260.4382096,g,1,0.8126729,None,,,,sub-027,1,2025-03-07_17h56.14.654,stroop_test,04.02.2024,59.54323196,2025-03-07 17h56.29.298544 +0100
,,,,3,3,0,,,,,,,,,,,,,gelb,blue,b,0,b,1,0.8294154,None,,,,,,,,,0,3,3,9,260.451337,,,,,,,,,,,,,,,,,260.438614,261.2511063,262.051431,262.0392001,,,,,,,,,,,,,,,,,,,,,,,,,,,,,,,,,,,262.0397152,262.051431,262.051431,262.8922996,b,1,0.8294154,None,,,,sub-027,1,2025-03-07_17h56.14.654,stroop_test,04.02.2024,59.54323196,2025-03-07 17h56.29.298544 +0100
,,,,4,4,0,,,,,,,,,,,,,blau,blue,b,1,b,1,1.0292873,None,,,,,,,,,0,4,4,5,262.9009558,,,,,,,,,,,,,,,,,262.8926521,264.1027136,264.917886,264.9064674,,,,,,,,,,,,,,,,,,,,,,,,,,,,,,,,,,,264.9094699,264.917886,264.917886,265.9562536,b,1,1.0292873,None,,,,sub-027,1,2025-03-07_17h56.14.654,stroop_test,04.02.2024,59.54323196,2025-03-07 17h56.29.298544 +0100
,,,,5,5,0,,,,,,,,,,,,,gelb,red,r,0,r,1,0.9694019,None,,,,,,,,,0,5,5,8,265.9677768,,,,,,,,,,,,,,,,,265.9565136,266.0677102,266.8670601,266.8571632,,,,,,,,,,,,,,,,,,,,,,,,,,,,,,,,,,,266.8602861,266.8670601,266.8670601,267.8408633,r,1,0.9694019,None,,,,sub-027,1,2025-03-07_17h56.14.654,stroop_test,04.02.2024,59.54323196,2025-03-07 17h56.29.298544 +0100
,,,,6,6,0,,,,,,,,,,,,,blau,yellow,g,0,g,1,0.8924955,None,,,,,,,,,0,6,6,7,267.8506705,,,,,,,,,,,,,,,,,267.8411491,267.951828,268.7827036,268.7556118,,,,,,,,,,,,,,,,,,,,,,,,,,,,,,,,,,,268.7602625,268.7827036,268.7827036,269.6906675,g,1,0.8924955,None,,,,sub-027,1,2025-03-07_17h56.14.654,stroop_test,04.02.2024,59.54323196,2025-03-07 17h56.29.298544 +0100
,,,,7,7,0,,,,,,,,,,,,,rot,yellow,g,0,g,1,0.919428,None,,,,,,,,,0,7,7,3,269.699964,,,,,,,,,,,,,,,,,269.6910803,270.0514593,270.8510134,270.8383852,,,,,,,,,,,,,,,,,,,,,,,,,,,,,,,,,,,270.8416828,270.8510134,270.8510134,271.7747141,g,1,0.919428,None,,,,sub-027,1,2025-03-07_17h56.14.654,stroop_test,04.02.2024,59.54323196,2025-03-07 17h56.29.298544 +0100
,,,,8,8,0,,,,,,,,,,,,,blau,red,r,0,r,1,0.6515869,None,,,,,,,,,0,8,8,4,271.7839483,,,,,,,,,,,,,,,,,271.7751793,272.9836118,273.7839864,273.7715843,,,,,,,,,,,,,,,,,,,,,,,,,,,,,,,,,,,273.7750994,273.7839864,273.7839864,274.4379398,r,1,0.6515869,None,,,,sub-027,1,2025-03-07_17h56.14.654,stroop_test,04.02.2024,59.54323196,2025-03-07 17h56.29.298544 +0100
,,,,9,9,0,,,,,,,,,,,,,blau,blue,b,1,b,1,0.7178571,None,,,,,,,,,0,9,9,6,274.45038,,,,,,,,,,,,,,,,,274.4382056,274.8019475,275.6172151,275.6052735,,,,,,,,,,,,,,,,,,,,,,,,,,,,,,,,,,,275.6056471,275.6172151,275.6172151,276.3419899,b,1,0.7178571,None,,,,sub-027,1,2025-03-07_17h56.14.654,stroop_test,04.02.2024,59.54323196,2025-03-07 17h56.29.298544 +0100
,,,,10,10,0,,,,,,,,,,,,,gelb,yellow,g,1,g,1,0.6751405,None,,,,,,,,,0,10,10,10,276.3500251,,,,,,,,,,,,,,,,,276.3423459,277.1517388,277.9504325,277.9387367,,,,,,,,,,,,,,,,,,,,,,,,,,,,,,,,,,,277.941234,277.9504325,277.9504325,278.6389618,g,1,0.6751405,None,,,,sub-027,1,2025-03-07_17h56.14.654,stroop_test,04.02.2024,59.54323196,2025-03-07 17h56.29.298544 +0100
,,,,11,11,0,,,,,,,,,,,,,rot,blue,b,0,b,1,0.7223159,None,,,,,,,,,0,11,11,2,278.651659,,,,,,,,,,,,,,,,,278.6392023,279.8505109,280.6494639,280.6390354,,,,,,,,,,,,,,,,,,,,,,,,,,,,,,,,,,,280.6419923,280.6494639,280.6494639,281.3741746,b,1,0.7223159,None,,,,sub-027,1,2025-03-07_17h56.14.654,stroop_test,04.02.2024,59.54323196,2025-03-07 17h56.29.298544 +0100
,,,,12,0,1,,,,,,,,,,,,,gelb,yellow,g,1,g,1,0.598714,None,,,,,,,,,1,0,12,10,281.3831187,,,,,,,,,,,,,,,,,281.3745946,282.1838128,282.9825384,282.9707505,,,,,,,,,,,,,,,,,,,,,,,,,,,,,,,,,,,282.973452,282.9825384,282.9825384,283.5889124,g,1,0.598714,None,,,,sub-027,1,2025-03-07_17h56.14.654,stroop_test,04.02.2024,59.54323196,2025-03-07 17h56.29.298544 +0100
,,,,13,1,1,,,,,,,,,,,,,blau,blue,b,1,b,1,0.7216596,None,,,,,,,,,1,1,13,6,283.6006614,,,,,,,,,,,,,,,,,283.5891334,283.6997144,284.4992028,284.4869929,,,,,,,,,,,,,,,,,,,,,,,,,,,,,,,,,,,284.4907458,284.4992028,284.4992028,285.2360159,b,1,0.7216596,None,,,,sub-027,1,2025-03-07_17h56.14.654,stroop_test,04.02.2024,59.54323196,2025-03-07 17h56.29.298544 +0100
,,,,14,2,1,,,,,,,,,,,,,rot,blue,b,0,b,1,0.7561592,None,,,,,,,,,1,2,14,2,285.249046,,,,,,,,,,,,,,,,,285.2366468,286.0495317,286.8499005,286.8386596,,,,,,,,,,,,,,,,,,,,,,,,,,,,,,,,,,,286.8420833,286.8499005,286.8499005,287.6229531,b,1,0.7561592,None,,,,sub-027,1,2025-03-07_17h56.14.654,stroop_test,04.02.2024,59.54323196,2025-03-07 17h56.29.298544 +0100
,,,,15,3,1,,,,,,,,,,,,,blau,yellow,g,0,g,1,1.3689529,None,,,,,,,,,1,3,15,7,287.6325431,,,,,,,,,,,,,,,,,287.6233231,288.4331325,289.2325324,289.2217801,,,,,,,,,,,,,,,,,,,,,,,,,,,,,,,,,,,289.2253615,289.2325324,289.2325324,290.6053773,g,1,1.3689529,None,,,,sub-027,1,2025-03-07_17h56.14.654,stroop_test,04.02.2024,59.54323196,2025-03-07 17h56.29.298544 +0100
,,,,16,4,1,,,,,,,,,,,,,gelb,yellow,g,1,g,1,0.5851186,None,,,,,,,,,1,4,16,11,290.6160437,,,,,,,,,,,,,,,,,290.6056574,291.4171,292.216338,292.2044387,,,,,,,,,,,,,,,,,,,,,,,,,,,,,,,,,,,292.2074888,292.216338,292.216338,292.8040858,g,1,0.5851186,None,,,,sub-027,1,2025-03-07_17h56.14.654,stroop_test,04.02.2024,59.54323196,2025-03-07 17h56.29.298544 +0100
,,,,17,5,1,,,,,,,,,,,,,rot,red,r,1,r,1,0.7846674,None,,,,,,,,,1,5,17,1,292.8154554,,,,,,,,,,,,,,,,,292.8043439,292.9159902,293.7168889,293.7041545,,,,,,,,,,,,,,,,,,,,,,,,,,,,,,,,,,,293.7066182,293.7168889,293.7168889,294.5043386,r,1,0.7846674,None,,,,sub-027,1,2025-03-07_17h56.14.654,stroop_test,04.02.2024,59.54323196,2025-03-07 17h56.29.298544 +0100
,,,,18,6,1,,,,,,,,,,,,,gelb,red,r,0,r,1,0.7653314,None,,,,,,,,,1,6,18,8,294.5157544,,,,,,,,,,,,,,,,,294.5049406,294.8664509,295.6652527,295.6548162,,,,,,,,,,,,,,,,,,,,,,,,,,,,,,,,,,,295.6575035,295.6652527,295.6652527,296.4375049,r,1,0.7653314,None,,,,sub-027,1,2025-03-07_17h56.14.654,stroop_test,04.02.2024,59.54323196,2025-03-07 17h56.29.298544 +0100
,,,,19,7,1,,,,,,,,,,,,,rot,red,r,1,r,1,0.8700586,None,,,,,,,,,1,7,19,0,296.4480417,,,,,,,,,,,,,,,,,296.4377616,296.7996977,297.6145236,297.5890482,,,,,,,,,,,,,,,,,,,,,,,,,,,,,,,,,,,297.5928874,297.6145236,297.6145236,298.4888511,r,1,0.8700586,None,,,,sub-027,1,2025-03-07_17h56.14.654,stroop_test,04.02.2024,59.54323196,2025-03-07 17h56.29.298544 +0100
,,,,20,8,1,,,,,,,,,,,,,rot,yellow,g,0,g,1,0.7336766,None,,,,,,,,,1,8,20,3,298.4987465,,,,,,,,,,,,,,,,,298.4891294,299.3007146,300.1161601,300.1046743,,,,,,,,,,,,,,,,,,,,,,,,,,,,,,,,,,,300.1050402,300.1161601,300.1161601,300.8556288,g,1,0.7336766,None,,,,sub-027,1,2025-03-07_17h56.14.654,stroop_test,04.02.2024,59.54323196,2025-03-07 17h56.29.298544 +0100
,,,,21,9,1,,,,,,,,,,,,,gelb,blue,b,0,b,1,0.7342439,None,,,,,,,,,1,9,21,9,300.8644541,,,,,,,,,,,,,,,,,300.8559397,301.6659737,302.4656028,302.4548072,,,,,,,,,,,,,,,,,,,,,,,,,,,,,,,,,,,302.4575022,302.4656028,302.4656028,303.204613,b,1,0.7342439,None,,,,sub-027,1,2025-03-07_17h56.14.654,stroop_test,04.02.2024,59.54323196,2025-03-07 17h56.29.298544 +0100
,,,,22,10,1,,,,,,,,,,,,,blau,red,r,0,r,1,0.6764782,None,,,,,,,,,1,10,22,4,303.2159499,,,,,,,,,,,,,,,,,303.2049037,304.4156146,305.2153218,305.2038599,,,,,,,,,,,,,,,,,,,,,,,,,,,,,,,,,,,305.2071364,305.2153218,305.2153218,305.9027822,r,1,0.6764782,None,,,,sub-027,1,2025-03-07_17h56.14.654,stroop_test,04.02.2024,59.54323196,2025-03-07 17h56.29.298544 +0100
,,,,23,11,1,,,,,,,,,,,,,blau,blue,b,1,b,1,0.6261014,None,,,,,,,,,1,11,23,5,305.9153258,,,,,,,,,,,,,,,,,305.9030245,306.7154814,307.5148484,307.5025139,,,,,,,,,,,,,,,,,,,,,,,,,,,,,,,,,,,307.5029539,307.5148484,307.5148484,308.15237,b,1,0.6261014,None,,,,sub-027,1,2025-03-07_17h56.14.654,stroop_test,04.02.2024,59.54323196,2025-03-07 17h56.29.298544 +0100
,,,,24,0,2,,,,,,,,,,,,,blau,blue,b,1,b,1,0.6145754,None,,,,,,,,,2,0,24,5,308.1652481,,,,,,,,,,,,,,,,,308.1527108,308.2649787,309.0650368,309.0522249,,,,,,,,,,,,,,,,,,,,,,,,,,,,,,,,,,,309.0525845,309.0650368,309.0650368,309.6857486,b,1,0.6145754,None,,,,sub-027,1,2025-03-07_17h56.14.654,stroop_test,04.02.2024,59.54323196,2025-03-07 17h56.29.298544 +0100
,,,,25,1,2,,,,,,,,,,,,,gelb,blue,b,0,b,1,1.4125046,None,,,,,,,,,2,1,25,9,309.6983815,,,,,,,,,,,,,,,,,309.6859989,310.0484195,310.8480553,310.8371316,,,,,,,,,,,,,,,,,,,,,,,,,,,,,,,,,,,310.839451,310.8480553,310.8480553,312.2689316,b,1,1.4125046,None,,,,sub-027,1,2025-03-07_17h56.14.654,stroop_test,04.02.2024,59.54323196,2025-03-07 17h56.29.298544 +0100
,,,,26,2,2,,,,,,,,,,,,,rot,red,r,1,r,1,0.7130902,None,,,,,,,,,2,2,26,1,312.2815738,,,,,,,,,,,,,,,,,312.269181,312.381618,313.1806898,313.1717996,,,,,,,,,,,,,,,,,,,,,,,,,,,,,,,,,,,313.1742659,313.1806898,313.1806898,313.9035181,r,1,0.7130902,None,,,,sub-027,1,2025-03-07_17h56.14.654,stroop_test,04.02.2024,59.54323196,2025-03-07 17h56.29.298544 +0100
,,,,27,3,2,,,,,,,,,,,,,gelb,red,r,0,r,1,0.9391995,None,,,,,,,,,2,3,27,8,313.9150844,,,,,,,,,,,,,,,,,313.9038058,314.0148529,314.8138781,314.8019519,,,,,,,,,,,,,,,,,,,,,,,,,,,,,,,,,,,314.8043508,314.8138781,314.8138781,315.7682468,r,1,0.9391995,None,,,,sub-027,1,2025-03-07_17h56.14.654,stroop_test,04.02.2024,59.54323196,2025-03-07 17h56.29.298544 +0100
,,,,28,4,2,,,,,,,,,,,,,rot,yellow,g,0,g,1,0.6765881,None,,,,,,,,,2,4,28,3,315.7817054,,,,,,,,,,,,,,,,,315.7685197,316.5819189,317.3973532,317.3874883,,,,,,,,,,,,,,,,,,,,,,,,,,,,,,,,,,,317.3902257,317.3973532,317.3973532,318.0874048,g,1,0.6765881,None,,,,sub-027,1,2025-03-07_17h56.14.654,stroop_test,04.02.2024,59.54323196,2025-03-07 17h56.29.298544 +0100
,,,,29,5,2,,,,,,,,,,,,,gelb,yellow,g,1,g,1,0.6651748,None,,,,,,,,,2,5,29,10,318.0980245,,,,,,,,,,,,,,,,,318.0876642,318.447985,319.2472807,319.2341501,,,,,,,,,,,,,,,,,,,,,,,,,,,,,,,,,,,319.2369052,319.2472807,319.2472807,319.9223126,g,1,0.6651748,None,,,,sub-027,1,2025-03-07_17h56.14.654,stroop_test,04.02.2024,59.54323196,2025-03-07 17h56.29.298544 +0100
,,,,30,6,2,,,,,,,,,,,,,rot,red,r,1,r,1,0.6078033,None,,,,,,,,,2,6,30,0,319.9320624,,,,,,,,,,,,,,,,,319.9227604,321.1314441,321.9307411,321.9192946,,,,,,,,,,,,,,,,,,,,,,,,,,,,,,,,,,,321.9220528,321.9307411,321.9307411,322.5514122,r,1,0.6078033,None,,,,sub-027,1,2025-03-07_17h56.14.654,stroop_test,04.02.2024,59.54323196,2025-03-07 17h56.29.298544 +0100
,,,,31,7,2,,,,,,,,,,,,,blau,blue,b,1,b,1,0.6288597,None,,,,,,,,,2,7,31,6,322.5639383,,,,,,,,,,,,,,,,,322.5516639,322.6646803,323.4641614,323.4528583,,,,,,,,,,,,,,,,,,,,,,,,,,,,,,,,,,,323.4551901,323.4641614,323.4641614,324.1030391,b,1,0.6288597,None,,,,sub-027,1,2025-03-07_17h56.14.654,stroop_test,04.02.2024,59.54323196,2025-03-07 17h56.29.298544 +0100
,,,,32,8,2,,,,,,,,,,,,,blau,red,r,0,r,1,0.9531717,None,,,,,,,,,2,8,32,4,324.1144863,,,,,,,,,,,,,,,,,324.1033819,324.2146187,325.0133934,325.0016315,,,,,,,,,,,,,,,,,,,,,,,,,,,,,,,,,,,325.0020051,325.0133934,325.0133934,325.9690267,r,1,0.9531717,None,,,,sub-027,1,2025-03-07_17h56.14.654,stroop_test,04.02.2024,59.54323196,2025-03-07 17h56.29.298544 +0100
,,,,33,9,2,,,,,,,,,,,,,gelb,yellow,g,1,g,1,0.7251716,None,,,,,,,,,2,9,33,11,325.981352,,,,,,,,,,,,,,,,,325.9693653,326.3309139,327.1458867,327.1211919,,,,,,,,,,,,,,,,,,,,,,,,,,,,,,,,,,,327.1245205,327.1458867,327.1458867,327.8870975,g,1,0.7251716,None,,,,sub-027,1,2025-03-07_17h56.14.654,stroop_test,04.02.2024,59.54323196,2025-03-07 17h56.29.298544 +0100
,,,,34,10,2,,,,,,,,,,,,,rot,blue,b,0,b,1,1.1406035,None,,,,,,,,,2,10,34,2,327.8982214,,,,,,,,,,,,,,,,,327.8874702,329.0973729,329.8969917,329.8853991,,,,,,,,,,,,,,,,,,,,,,,,,,,,,,,,,,,329.8886545,329.8969917,329.8969917,331.0504309,b,1,1.1406035,None,,,,sub-027,1,2025-03-07_17h56.14.654,stroop_test,04.02.2024,59.54323196,2025-03-07 17h56.29.298544 +0100
,,,,35,11,2,,,,,,,,,,,,,blau,yellow,g,0,g,1,1.1165882,None,,,,,,,,,2,11,35,7,331.0637262,,,,,,,,,,,,,,,,,331.0506903,332.262871,333.0634587,333.0507833,,,,,,,,,,,,,,,,,,,,,,,,,,,,,,,,,,,333.0532237,333.0634587,333.0634587,334.1859638,g,1,1.1165882,None,,,,sub-027,1,2025-03-07_17h56.14.654,stroop_test,04.02.2024,59.54323196,2025-03-07 17h56.29.298544 +0100
,,,,36,0,3,,,,,,,,,,,,,gelb,red,r,0,r,1,0.6704223,None,,,,,,,,,3,0,36,8,334.1974783,,,,,,,,,,,,,,,,,334.1862852,335.3965415,336.1963587,336.1834705,,,,,,,,,,,,,,,,,,,,,,,,,,,,,,,,,,,336.1874357,336.1963587,336.1963587,336.8681181,r,1,0.6704223,None,,,,sub-027,1,2025-03-07_17h56.14.654,stroop_test,04.02.2024,59.54323196,2025-03-07 17h56.29.298544 +0100
,,,,37,1,3,,,,,,,,,,,,,rot,yellow,g,0,g,1,0.7642178,None,,,,,,,,,3,1,37,3,336.8804008,,,,,,,,,,,,,,,,,336.8684855,337.6804467,338.4812135,338.4678129,,,,,,,,,,,,,,,,,,,,,,,,,,,,,,,,,,,338.4708799,338.4812135,338.4812135,339.2503066,g,1,0.7642178,None,,,,sub-027,1,2025-03-07_17h56.14.654,stroop_test,04.02.2024,59.54323196,2025-03-07 17h56.29.298544 +0100
,,,,38,2,3,,,,,,,,,,,,,rot,blue,b,0,b,1,0.6803152,None,,,,,,,,,3,2,38,2,339.2632864,,,,,,,,,,,,,,,,,339.2505483,339.3646042,340.1639625,340.1526366,,,,,,,,,,,,,,,,,,,,,,,,,,,,,,,,,,,340.1529513,340.1639625,340.1639625,340.8576601,b,1,0.6803152,None,,,,sub-027,1,2025-03-07_17h56.14.654,stroop_test,04.02.2024,59.54323196,2025-03-07 17h56.29.298544 +0100
,,,,39,3,3,,,,,,,,,,,,,blau,red,r,0,r,1,0.8100528,None,,,,,,,,,3,3,39,4,340.8795045,,,,,,,,,,,,,,,,,340.8581746,342.0645704,342.8958927,342.8710253,,,,,,,,,,,,,,,,,,,,,,,,,,,,,,,,,,,342.8823206,342.8958927,342.8958927,343.7201831,r,1,0.8100528,None,,,,sub-027,1,2025-03-07_17h56.14.654,stroop_test,04.02.2024,59.54323196,2025-03-07 17h56.29.298544 +0100
,,,,40,4,3,,,,,,,,,,,,,blau,blue,b,1,b,1,0.8442204,None,,,,,,,,,3,4,40,6,343.7311658,,,,,,,,,,,,,,,,,343.7204028,344.0800038,344.8801491,344.869707,,,,,,,,,,,,,,,,,,,,,,,,,,,,,,,,,,,344.8702263,344.8801491,344.8801491,345.735688,b,1,0.8442204,None,,,,sub-027,1,2025-03-07_17h56.14.654,stroop_test,04.02.2024,59.54323196,2025-03-07 17h56.29.298544 +0100
,,,,41,5,3,,,,,,,,,,,,,gelb,blue,b,0,b,1,0.9516376,None,,,,,,,,,3,5,41,9,345.7461057,,,,,,,,,,,,,,,,,345.7359758,346.5473412,347.3460707,347.3347134,,,,,,,,,,,,,,,,,,,,,,,,,,,,,,,,,,,347.3379236,347.3460707,347.3460707,348.3033428,b,1,0.9516376,None,,,,sub-027,1,2025-03-07_17h56.14.654,stroop_test,04.02.2024,59.54323196,2025-03-07 17h56.29.298544 +0100
,,,,42,6,3,,,,,,,,,,,,,blau,yellow,g,0,g,1,0.6426068,None,,,,,,,,,3,6,42,7,348.312925,,,,,,,,,,,,,,,,,348.3036442,348.6640589,349.4631031,349.4512297,,,,,,,,,,,,,,,,,,,,,,,,,,,,,,,,,,,349.4541461,349.4631031,349.4631031,350.1174977,g,1,0.6426068,None,,,,sub-027,1,2025-03-07_17h56.14.654,stroop_test,04.02.2024,59.54323196,2025-03-07 17h56.29.298544 +0100
,,,,43,7,3,,,,,,,,,,,,,gelb,yellow,g,1,g,1,0.7368996,None,,,,,,,,,3,7,43,10,350.1298164,,,,,,,,,,,,,,,,,350.1178053,351.3306952,352.1292246,352.118129,,,,,,,,,,,,,,,,,,,,,,,,,,,,,,,,,,,352.1207949,352.1292246,352.1292246,352.8683566,g,1,0.7368996,None,,,,sub-027,1,2025-03-07_17h56.14.654,stroop_test,04.02.2024,59.54323196,2025-03-07 17h56.29.298544 +0100
,,,,44,8,3,,,,,,,,,,,,,gelb,yellow,g,1,g,1,0.6776076,None,,,,,,,,,3,8,44,11,352.8800462,,,,,,,,,,,,,,,,,352.8686085,353.6803745,354.4795636,354.4670829,,,,,,,,,,,,,,,,,,,,,,,,,,,,,,,,,,,354.4674053,354.4795636,354.4795636,355.1676075,g,1,0.6776076,None,,,,sub-027,1,2025-03-07_17h56.14.654,stroop_test,04.02.2024,59.54323196,2025-03-07 17h56.29.298544 +0100
,,,,45,9,3,,,,,,,,,,,,,blau,blue,b,1,b,1,0.5876786,None,,,,,,,,,3,9,45,5,355.180222,,,,,,,,,,,,,,,,,355.1678746,355.5286393,356.3286677,356.3187863,,,,,,,,,,,,,,,,,,,,,,,,,,,,,,,,,,,356.3213343,356.3286677,356.3286677,356.9187508,b,1,0.5876786,None,,,,sub-027,1,2025-03-07_17h56.14.654,stroop_test,04.02.2024,59.54323196,2025-03-07 17h56.29.298544 +0100
,,,,46,10,3,,,,,,,,,,,,,rot,red,r,1,r,1,0.6369884,None,,,,,,,,,3,10,46,0,356.9289661,,,,,,,,,,,,,,,,,356.9190057,357.2788151,358.0779677,358.066222,,,,,,,,,,,,,,,,,,,,,,,,,,,,,,,,,,,358.0691549,358.0779677,358.0779677,358.7210819,r,1,0.6369884,None,,,,sub-027,1,2025-03-07_17h56.14.654,stroop_test,04.02.2024,59.54323196,2025-03-07 17h56.29.298544 +0100
,,,,47,11,3,,,,,,,,,,,,,rot,red,r,1,r,1,0.5664199,None,,,,,,,,,3,11,47,1,358.7306988,,,,,,,,,,,,,,,,,358.7213937,359.5297107,360.3295544,360.3156551,,,,,,,,,,,,,,,,,,,,,,,,,,,,,,,,,,,360.3159348,360.3295544,360.3295544,360.9011472,r,1,0.5664199,None,,,,sub-027,1,2025-03-07_17h56.14.654,stroop_test,04.02.2024,59.54323196,2025-03-07 17h56.29.298544 +0100
,,,,48,0,4,,,,,,,,,,,,,gelb,yellow,g,1,g,1,0.6510528,None,,,,,,,,,4,0,48,11,360.9119028,,,,,,,,,,,,,,,,,360.9015634,361.2624154,362.0630481,362.0503481,,,,,,,,,,,,,,,,,,,,,,,,,,,,,,,,,,,362.0526266,362.0630481,362.0630481,362.7178404,g,1,0.6510528,None,,,,sub-027,1,2025-03-07_17h56.14.654,stroop_test,04.02.2024,59.54323196,2025-03-07 17h56.29.298544 +0100
,,,,49,1,4,,,,,,,,,,,,,rot,yellow,g,0,g,1,1.1172421,None,,,,,,,,,4,1,49,3,362.728697,,,,,,,,,,,,,,,,,362.7184162,363.079134,363.8788891,363.8677711,,,,,,,,,,,,,,,,,,,,,,,,,,,,,,,,,,,363.8704251,363.8788891,363.8788891,365.0005767,g,1,1.1172421,None,,,,sub-027,1,2025-03-07_17h56.14.654,stroop_test,04.02.2024,59.54323196,2025-03-07 17h56.29.298544 +0100
,,,,50,2,4,,,,,,,,,,,,,blau,blue,b,1,b,1,0.6918008,None,,,,,,,,,4,2,50,6,365.0111382,,,,,,,,,,,,,,,,,365.0008248,365.1131911,365.9116211,365.9000258,,,,,,,,,,,,,,,,,,,,,,,,,,,,,,,,,,,365.9033908,365.9116211,365.9116211,366.6177543,b,1,0.6918008,None,,,,sub-027,1,2025-03-07_17h56.14.654,stroop_test,04.02.2024,59.54323196,2025-03-07 17h56.29.298544 +0100
,,,,51,3,4,,,,,,,,,,,,,gelb,blue,b,0,b,1,0.9894622,None,,,,,,,,,4,3,51,9,366.628573,,,,,,,,,,,,,,,,,366.6179943,366.7286744,367.5290139,367.515249,,,,,,,,,,,,,,,,,,,,,,,,,,,,,,,,,,,367.5172661,367.5290139,367.5290139,368.5354427,b,1,0.9894622,None,,,,sub-027,1,2025-03-07_17h56.14.654,stroop_test,04.02.2024,59.54323196,2025-03-07 17h56.29.298544 +0100
,,,,52,4,4,,,,,,,,,,,,,rot,red,r,1,r,1,0.6041519,None,,,,,,,,,4,4,52,0,368.5453665,,,,,,,,,,,,,,,,,368.5358021,369.7460938,370.5453052,370.5321716,,,,,,,,,,,,,,,,,,,,,,,,,,,,,,,,,,,370.5354152,370.5453052,370.5453052,371.1529543,r,1,0.6041519,None,,,,sub-027,1,2025-03-07_17h56.14.654,stroop_test,04.02.2024,59.54323196,2025-03-07 17h56.29.298544 +0100
,,,,53,5,4,,,,,,,,,,,,,rot,red,r,1,r,1,0.7326232,None,,,,,,,,,4,5,53,1,371.1620108,,,,,,,,,,,,,,,,,371.1533102,371.9644554,372.7782782,372.766711,,,,,,,,,,,,,,,,,,,,,,,,,,,,,,,,,,,372.7670555,372.7782782,372.7782782,373.5162829,r,1,0.7326232,None,,,,sub-027,1,2025-03-07_17h56.14.654,stroop_test,04.02.2024,59.54323196,2025-03-07 17h56.29.298544 +0100
,,,,54,6,4,,,,,,,,,,,,,gelb,yellow,g,1,g,1,0.7290947,None,,,,,,,,,4,6,54,10,373.5285458,,,,,,,,,,,,,,,,,373.5165219,373.6304238,374.4458541,374.4337617,,,,,,,,,,,,,,,,,,,,,,,,,,,,,,,,,,,374.4365171,374.4458541,374.4458541,375.1842353,g,1,0.7290947,None,,,,sub-027,1,2025-03-07_17h56.14.654,stroop_test,04.02.2024,59.54323196,2025-03-07 17h56.29.298544 +0100
,,,,55,7,4,,,,,,,,,,,,,rot,blue,b,0,b,1,0.7244196,None,,,,,,,,,4,7,55,2,375.1955805,,,,,,,,,,,,,,,,,375.1845533,375.2954156,376.0940352,376.0812348,,,,,,,,,,,,,,,,,,,,,,,,,,,,,,,,,,,376.0838253,376.0940352,376.0940352,376.8343203,b,1,0.7244196,None,,,,sub-027,1,2025-03-07_17h56.14.654,stroop_test,04.02.2024,59.54323196,2025-03-07 17h56.29.298544 +0100
,,,,56,8,4,,,,,,,,,,,,,blau,yellow,g,0,g,1,0.9979393,None,,,,,,,,,4,8,56,7,376.8442705,,,,,,,,,,,,,,,,,376.8346889,377.644146,378.4455095,378.4348477,,,,,,,,,,,,,,,,,,,,,,,,,,,,,,,,,,,378.437064,378.4455095,378.4455095,379.4491985,g,1,0.9979393,None,,,,sub-027,1,2025-03-07_17h56.14.654,stroop_test,04.02.2024,59.54323196,2025-03-07 17h56.29.298544 +0100
,,,,57,9,4,,,,,,,,,,,,,blau,blue,b,1,b,1,0.7461826,None,,,,,,,,,4,9,57,5,379.4617064,,,,,,,,,,,,,,,,,379.4494335,379.811149,380.6113715,380.5990797,,,,,,,,,,,,,,,,,,,,,,,,,,,,,,,,,,,380.5996071,380.6113715,380.6113715,381.3656103,b,1,0.7461826,None,,,,sub-027,1,2025-03-07_17h56.14.654,stroop_test,04.02.2024,59.54323196,2025-03-07 17h56.29.298544 +0100
,,,,58,10,4,,,,,,,,,,,,,blau,red,r,0,r,1,0.6400498,None,,,,,,,,,4,10,58,4,381.3786852,,,,,,,,,,,,,,,,,381.3660259,381.7282814,382.5274945,382.5172077,,,,,,,,,,,,,,,,,,,,,,,,,,,,,,,,,,,382.5175264,382.5274945,382.5274945,383.1831273,r,1,0.6400498,None,,,,sub-027,1,2025-03-07_17h56.14.654,stroop_test,04.02.2024,59.54323196,2025-03-07 17h56.29.298544 +0100
,,,,59,11,4,,,,,,,,,,,,,gelb,red,r,0,r,1,0.7523976,None,,,,,,,,,4,11,59,8,383.1944204,,,,,,,,,,,,,,,,,383.1834804,383.5449452,384.3440541,384.3320218,,,,,,,,,,,,,,,,,,,,,,,,,,,,,,,,,,,384.3343622,384.3440541,384.3440541,385.0994439,r,1,0.7523976,None,,,,sub-027,1,2025-03-07_17h56.14.654,stroop_test,04.02.2024,59.54323196,2025-03-07 17h56.29.298544 +0100
,,,,60,0,5,,,,,,,,,,,,,gelb,yellow,g,1,g,1,0.641953,None,,,,,,,,,5,0,60,11,385.1105403,,,,,,,,,,,,,,,,,385.1000583,386.3116516,387.1113043,387.0977313,,,,,,,,,,,,,,,,,,,,,,,,,,,,,,,,,,,387.0979931,387.1113043,387.1113043,387.765707,g,1,0.641953,None,,,,sub-027,1,2025-03-07_17h56.14.654,stroop_test,04.02.2024,59.54323196,2025-03-07 17h56.29.298544 +0100
,,,,61,1,5,,,,,,,,,,,,,gelb,blue,b,0,b,1,0.5543629,None,,,,,,,,,5,1,61,9,387.7782083,,,,,,,,,,,,,,,,,387.7659469,388.57777,389.3782469,389.36714,,,,,,,,,,,,,,,,,,,,,,,,,,,,,,,,,,,389.3676024,389.3782469,389.3782469,389.9494301,b,1,0.5543629,None,,,,sub-027,1,2025-03-07_17h56.14.654,stroop_test,04.02.2024,59.54323196,2025-03-07 17h56.29.298544 +0100
,,,,62,2,5,,,,,,,,,,,,,rot,red,r,1,r,1,0.5837921,None,,,,,,,,,5,2,62,0,389.9602473,,,,,,,,,,,,,,,,,389.9497197,391.1605958,391.9602325,391.9500756,,,,,,,,,,,,,,,,,,,,,,,,,,,,,,,,,,,391.9530401,391.9602325,391.9602325,392.5495219,r,1,0.5837921,None,,,,sub-027,1,2025-03-07_17h56.14.654,stroop_test,04.02.2024,59.54323196,2025-03-07 17h56.29.298544 +0100
,,,,63,3,5,,,,,,,,,,,,,blau,red,r,0,r,1,0.8532365,None,,,,,,,,,5,3,63,4,392.5608504,,,,,,,,,,,,,,,,,392.5498283,393.3610068,394.1609702,394.1493078,,,,,,,,,,,,,,,,,,,,,,,,,,,,,,,,,,,394.1525959,394.1609702,394.1609702,395.015455,r,1,0.8532365,None,,,,sub-027,1,2025-03-07_17h56.14.654,stroop_test,04.02.2024,59.54323196,2025-03-07 17h56.29.298544 +0100
,,,,64,4,5,,,,,,,,,,,,,blau,yellow,g,0,g,1,0.6673423,None,,,,,,,,,5,4,64,7,395.0281066,,,,,,,,,,,,,,,,,395.015754,396.2272106,397.0278274,397.0140072,,,,,,,,,,,,,,,,,,,,,,,,,,,,,,,,,,,397.0142972,397.0278274,397.0278274,397.6994369,g,1,0.6673423,None,,,,sub-027,1,2025-03-07_17h56.14.654,stroop_test,04.02.2024,59.54323196,2025-03-07 17h56.29.298544 +0100
,,,,65,5,5,,,,,,,,,,,,,rot,yellow,g,0,g,1,0.8158439,None,,,,,,,,,5,5,65,3,397.709968,,,,,,,,,,,,,,,,,397.6997174,398.9112903,399.7262507,399.7015007,,,,,,,,,,,,,,,,,,,,,,,,,,,,,,,,,,,399.7046642,399.7262507,399.7262507,400.5502752,g,1,0.8158439,None,,,,sub-027,1,2025-03-07_17h56.14.654,stroop_test,04.02.2024,59.54323196,2025-03-07 17h56.29.298544 +0100
,,,,66,6,5,,,,,,,,,,,,,gelb,red,r,0,r,1,0.5525557,None,,,,,,,,,5,6,66,8,400.5605946,,,,,,,,,,,,,,,,,400.5505874,401.7596685,402.5599316,402.5480834,,,,,,,,,,,,,,,,,,,,,,,,,,,,,,,,,,,402.5505138,402.5599316,402.5599316,403.116419,r,1,0.5525557,None,,,,sub-027,1,2025-03-07_17h56.14.654,stroop_test,04.02.2024,59.54323196,2025-03-07 17h56.29.298544 +0100
,,,,67,7,5,,,,,,,,,,,,,blau,blue,b,1,b,1,0.5941359,None,,,,,,,,,5,7,67,5,403.1265573,,,,,,,,,,,,,,,,,403.1167636,403.2280158,404.0273163,404.0143279,,,,,,,,,,,,,,,,,,,,,,,,,,,,,,,,,,,404.0165021,404.0273163,404.0273163,404.6325275,b,1,0.5941359,None,,,,sub-027,1,2025-03-07_17h56.14.654,stroop_test,04.02.2024,59.54323196,2025-03-07 17h56.29.298544 +0100
,,,,68,8,5,,,,,,,,,,,,,rot,red,r,1,r,1,0.7007667,None,,,,,,,,,5,8,68,1,404.6458018,,,,,,,,,,,,,,,,,404.6327882,404.9954794,405.8096604,405.7982772,,,,,,,,,,,,,,,,,,,,,,,,,,,,,,,,,,,405.8011183,405.8096604,405.8096604,406.5157386,r,1,0.7007667,None,,,,sub-027,1,2025-03-07_17h56.14.654,stroop_test,04.02.2024,59.54323196,2025-03-07 17h56.29.298544 +0100
,,,,69,9,5,,,,,,,,,,,,,gelb,yellow,g,1,g,1,0.856734,None,,,,,,,,,5,9,69,10,406.5279505,,,,,,,,,,,,,,,,,406.5160503,407.7278181,408.5256191,408.5156399,,,,,,,,,,,,,,,,,,,,,,,,,,,,,,,,,,,408.5181913,408.5256191,408.5256191,409.3968745,g,1,0.856734,None,,,,sub-027,1,2025-03-07_17h56.14.654,stroop_test,04.02.2024,59.54323196,2025-03-07 17h56.29.298544 +0100
,,,,70,10,5,,,,,,,,,,,,,blau,blue,b,1,b,1,0.6208227,None,,,,,,,,,5,10,70,6,409.4096506,,,,,,,,,,,,,,,,,409.3970917,410.2115345,411.0264866,411.014263,,,,,,,,,,,,,,,,,,,,,,,,,,,,,,,,,,,411.0170653,411.0264866,411.0264866,411.6498483,b,1,0.6208227,None,,,,sub-027,1,2025-03-07_17h56.14.654,stroop_test,04.02.2024,59.54323196,2025-03-07 17h56.29.298544 +0100
,,,,71,11,5,,,,,,,,,,,,,rot,blue,b,0,b,1,1.1084658,None,,,,,,,,,5,11,71,2,411.6594935,,,,,,,,,,,,,,,,,411.6501671,412.8593146,413.6759222,413.6517826,,,,,,,,,,,,,,,,,,,,,,,,,,,,,,,,,,,413.6552314,413.6759222,413.6759222,414.7978131,b,1,1.1084658,None,,,,sub-027,1,2025-03-07_17h56.14.654,stroop_test,04.02.2024,59.54323196,2025-03-07 17h56.29.298544 +0100
,,,,72,0,6,,,,,,,,,,,,,rot,blue,b,0,b,1,0.6145472,None,,,,,,,,,6,0,72,2,414.8101948,,,,,,,,,,,,,,,,,414.798085,416.0097631,416.8106191,416.7978471,,,,,,,,,,,,,,,,,,,,,,,,,,,,,,,,,,,416.798171,416.8106191,416.8106191,417.4307487,b,1,0.6145472,None,,,,sub-027,1,2025-03-07_17h56.14.654,stroop_test,04.02.2024,59.54323196,2025-03-07 17h56.29.298544 +0100
,,,,73,1,6,,,,,,,,,,,,,blau,yellow,g,0,g,1,0.7666304,None,,,,,,,,,6,1,73,7,417.4429512,,,,,,,,,,,,,,,,,417.4310247,417.7933672,418.5933483,418.5808152,,,,,,,,,,,,,,,,,,,,,,,,,,,,,,,,,,,418.5833863,418.5933483,418.5933483,419.3644044,g,1,0.7666304,None,,,,sub-027,1,2025-03-07_17h56.14.654,stroop_test,04.02.2024,59.54323196,2025-03-07 17h56.29.298544 +0100
,,,,74,2,6,,,,,,,,,,,,,gelb,yellow,g,1,g,1,0.7448701,None,,,,,,,,,6,2,74,10,419.3767756,,,,,,,,,,,,,,,,,419.3646692,419.475761,420.2753309,420.2635963,,,,,,,,,,,,,,,,,,,,,,,,,,,,,,,,,,,420.2660482,420.2753309,420.2753309,421.0297411,g,1,0.7448701,None,,,,sub-027,1,2025-03-07_17h56.14.654,stroop_test,04.02.2024,59.54323196,2025-03-07 17h56.29.298544 +0100
,,,,75,3,6,,,,,,,,,,,,,blau,blue,b,1,b,1,0.6456121,None,,,,,,,,,6,3,75,6,421.0426526,,,,,,,,,,,,,,,,,421.0300108,421.1417134,421.9419241,421.9317736,,,,,,,,,,,,,,,,,,,,,,,,,,,,,,,,,,,421.9346647,421.9419241,421.9419241,422.5996582,b,1,0.6456121,None,,,,sub-027,1,2025-03-07_17h56.14.654,stroop_test,04.02.2024,59.54323196,2025-03-07 17h56.29.298544 +0100
,,,,76,4,6,,,,,,,,,,,,,gelb,blue,b,0,b,1,0.7869767,None,,,,,,,,,6,4,76,9,422.609139,,,,,,,,,,,,,,,,,422.5999295,423.4092183,424.2255381,424.1987125,,,,,,,,,,,,,,,,,,,,,,,,,,,,,,,,,,,424.2039686,424.2255381,424.2255381,425.0159172,b,1,0.7869767,None,,,,sub-027,1,2025-03-07_17h56.14.654,stroop_test,04.02.2024,59.54323196,2025-03-07 17h56.29.298544 +0100
,,,,77,5,6,,,,,,,,,,,,,gelb,red,r,0,r,1,0.9426977,None,,,,,,,,,6,5,77,8,425.0254174,,,,,,,,,,,,,,,,,425.0162064,425.375984,426.1756504,426.1626497,,,,,,,,,,,,,,,,,,,,,,,,,,,,,,,,,,,426.162953,426.1756504,426.1756504,427.1299301,r,1,0.9426977,None,,,,sub-027,1,2025-03-07_17h56.14.654,stroop_test,04.02.2024,59.54323196,2025-03-07 17h56.29.298544 +0100
,,,,78,6,6,,,,,,,,,,,,,rot,red,r,1,r,1,0.6786973,None,,,,,,,,,6,6,78,0,427.143076,,,,,,,,,,,,,,,,,427.13016,427.9428082,428.7438464,428.7312882,,,,,,,,,,,,,,,,,,,,,,,,,,,,,,,,,,,428.7335603,428.7438464,428.7438464,429.4336286,r,1,0.6786973,None,,,,sub-027,1,2025-03-07_17h56.14.654,stroop_test,04.02.2024,59.54323196,2025-03-07 17h56.29.298544 +0100
,,,,79,7,6,,,,,,,,,,,,,gelb,yellow,g,1,g,1,0.6058231,None,,,,,,,,,6,7,79,11,429.4417393,,,,,,,,,,,,,,,,,429.4340238,429.792409,430.5916634,430.5790964,,,,,,,,,,,,,,,,,,,,,,,,,,,,,,,,,,,430.5813654,430.5916634,430.5916634,431.2015319,g,1,0.6058231,None,,,,sub-027,1,2025-03-07_17h56.14.654,stroop_test,04.02.2024,59.54323196,2025-03-07 17h56.29.298544 +0100
,,,,80,8,6,,,,,,,,,,,,,blau,blue,b,1,b,1,0.786862,None,,,,,,,,,6,8,80,5,431.2100705,,,,,,,,,,,,,,,,,431.2021858,431.30872,432.1090523,432.0959765,,,,,,,,,,,,,,,,,,,,,,,,,,,,,,,,,,,432.0982842,432.1090523,432.1090523,432.9128941,b,1,0.786862,None,,,,sub-027,1,2025-03-07_17h56.14.654,stroop_test,04.02.2024,59.54323196,2025-03-07 17h56.29.298544 +0100
,,,,81,9,6,,,,,,,,,,,,,blau,red,r,0,r,1,0.6727898,None,,,,,,,,,6,9,81,4,432.9246739,,,,,,,,,,,,,,,,,432.9131219,433.0261105,433.8268875,433.8135949,,,,,,,,,,,,,,,,,,,,,,,,,,,,,,,,,,,433.8138852,433.8268875,433.8268875,434.5132056,r,1,0.6727898,None,,,,sub-027,1,2025-03-07_17h56.14.654,stroop_test,04.02.2024,59.54323196,2025-03-07 17h56.29.298544 +0100
,,,,82,10,6,,,,,,,,,,,,,rot,red,r,1,r,1,0.8189732,None,,,,,,,,,6,10,82,1,434.5252609,,,,,,,,,,,,,,,,,434.5134996,434.6251908,435.4247778,435.4149913,,,,,,,,,,,,,,,,,,,,,,,,,,,,,,,,,,,435.4176236,435.4247778,435.4247778,436.2475563,r,1,0.8189732,None,,,,sub-027,1,2025-03-07_17h56.14.654,stroop_test,04.02.2024,59.54323196,2025-03-07 17h56.29.298544 +0100
,,,,83,11,6,,,,,,,,,,,,,rot,yellow,g,0,g,1,0.6797693,None,,,,,,,,,6,11,83,3,436.2586327,,,,,,,,,,,,,,,,,436.2477715,437.0596362,437.8592034,437.8465617,,,,,,,,,,,,,,,,,,,,,,,,,,,,,,,,,,,437.8468933,437.8592034,437.8592034,438.5461043,g,1,0.6797693,None,,,,sub-027,1,2025-03-07_17h56.14.654,stroop_test,04.02.2024,59.54323196,2025-03-07 17h56.29.298544 +0100
,,,,84,0,7,,,,,,,,,,,,,rot,blue,b,0,b,1,0.755561,None,,,,,,,,,7,0,84,2,438.5587214,,,,,,,,,,,,,,,,,438.5463603,439.7603425,440.5741755,440.5619348,,,,,,,,,,,,,,,,,,,,,,,,,,,,,,,,,,,440.5622499,440.5741755,440.5741755,441.3444142,b,1,0.755561,None,,,,sub-027,1,2025-03-07_17h56.14.654,stroop_test,04.02.2024,59.54323196,2025-03-07 17h56.29.298544 +0100
,,,,85,1,7,,,,,,,,,,,,,gelb,yellow,g,1,g,1,1.2926658,None,,,,,,,,,7,1,85,11,441.3581683,,,,,,,,,,,,,,,,,441.3446408,441.7082755,442.5087238,442.4975894,,,,,,,,,,,,,,,,,,,,,,,,,,,,,,,,,,,442.500182,442.5087238,442.5087238,443.8123164,g,1,1.2926658,None,,,,sub-027,1,2025-03-07_17h56.14.654,stroop_test,04.02.2024,59.54323196,2025-03-07 17h56.29.298544 +0100
,,,,86,2,7,,,,,,,,,,,,,blau,red,r,0,r,1,1.1832093,None,,,,,,,,,7,2,86,4,443.8258907,,,,,,,,,,,,,,,,,443.8125466,445.0256005,445.8245466,445.8118027,,,,,,,,,,,,,,,,,,,,,,,,,,,,,,,,,,,445.8142646,445.8245466,445.8245466,447.0126856,r,1,1.1832093,None,,,,sub-027,1,2025-03-07_17h56.14.654,stroop_test,04.02.2024,59.54323196,2025-03-07 17h56.29.298544 +0100
,,,,87,3,7,,,,,,,,,,,,,rot,red,r,1,r,1,0.5585454,None,,,,,,,,,7,3,87,0,447.0254293,,,,,,,,,,,,,,,,,447.0129553,447.3743834,448.1736551,448.162347,,,,,,,,,,,,,,,,,,,,,,,,,,,,,,,,,,,448.1649339,448.1736551,448.1736551,448.7505805,r,1,0.5585454,None,,,,sub-027,1,2025-03-07_17h56.14.654,stroop_test,04.02.2024,59.54323196,2025-03-07 17h56.29.298544 +0100
,,,,88,4,7,,,,,,,,,,,,,blau,blue,b,1,b,1,0.6090092,None,,,,,,,,,7,4,88,5,448.757998,,,,,,,,,,,,,,,,,448.7508648,449.5576362,450.357589,450.3452306,,,,,,,,,,,,,,,,,,,,,,,,,,,,,,,,,,,450.3477674,450.357589,450.357589,450.9806289,b,1,0.6090092,None,,,,sub-027,1,2025-03-07_17h56.14.654,stroop_test,04.02.2024,59.54323196,2025-03-07 17h56.29.298544 +0100
,,,,89,5,7,,,,,,,,,,,,,blau,yellow,g,0,g,1,0.760473,None,,,,,,,,,7,5,89,7,450.9922222,,,,,,,,,,,,,,,,,450.9809265,451.3409113,452.1407514,452.128205,,,,,,,,,,,,,,,,,,,,,,,,,,,,,,,,,,,452.1285216,452.1407514,452.1407514,452.9128405,g,1,0.760473,None,,,,sub-027,1,2025-03-07_17h56.14.654,stroop_test,04.02.2024,59.54323196,2025-03-07 17h56.29.298544 +0100
,,,,90,6,7,,,,,,,,,,,,,blau,blue,b,1,b,1,0.6098102,None,,,,,,,,,7,6,90,6,452.9241782,,,,,,,,,,,,,,,,,452.9132379,453.0246342,453.8258131,453.8138961,,,,,,,,,,,,,,,,,,,,,,,,,,,,,,,,,,,453.8141728,453.8258131,453.8258131,454.4446483,b,1,0.6098102,None,,,,sub-027,1,2025-03-07_17h56.14.654,stroop_test,04.02.2024,59.54323196,2025-03-07 17h56.29.298544 +0100
,,,,91,7,7,,,,,,,,,,,,,gelb,red,r,0,r,1,0.562324,None,,,,,,,,,7,7,91,8,454.4574808,,,,,,,,,,,,,,,,,454.4448639,454.8086834,455.6073611,455.5964226,,,,,,,,,,,,,,,,,,,,,,,,,,,,,,,,,,,455.598712,455.6073611,455.6073611,456.1797882,r,1,0.562324,None,,,,sub-027,1,2025-03-07_17h56.14.654,stroop_test,04.02.2024,59.54323196,2025-03-07 17h56.29.298544 +0100
,,,,92,8,7,,,,,,,,,,,,,rot,red,r,1,r,1,0.5064117,None,,,,,,,,,7,8,92,1,456.190555,,,,,,,,,,,,,,,,,456.1801717,456.2901426,457.0906032,457.0795014,,,,,,,,,,,,,,,,,,,,,,,,,,,,,,,,,,,457.0827551,457.0906032,457.0906032,457.6138397,r,1,0.5064117,None,,,,sub-027,1,2025-03-07_17h56.14.654,stroop_test,04.02.2024,59.54323196,2025-03-07 17h56.29.298544 +0100
,,,,93,9,7,,,,,,,,,,,,,gelb,yellow,g,1,g,1,0.8036928,None,,,,,,,,,7,9,93,10,457.6246175,,,,,,,,,,,,,,,,,457.6141625,458.8236908,459.6402788,459.6151036,,,,,,,,,,,,,,,,,,,,,,,,,,,,,,,,,,,459.618931,459.6402788,459.6402788,460.4462322,g,1,0.8036928,None,,,,sub-027,1,2025-03-07_17h56.14.654,stroop_test,04.02.2024,59.54323196,2025-03-07 17h56.29.298544 +0100
,,,,94,10,7,,,,,,,,,,,,,rot,yellow,g,0,g,1,0.7856387,None,,,,,,,,,7,10,94,3,460.4571627,,,,,,,,,,,,,,,,,460.4464726,460.8078124,461.6070816,461.5951041,,,,,,,,,,,,,,,,,,,,,,,,,,,,,,,,,,,461.5987692,461.6070816,461.6070816,462.3982984,g,1,0.7856387,None,,,,sub-027,1,2025-03-07_17h56.14.654,stroop_test,04.02.2024,59.54323196,2025-03-07 17h56.29.298544 +0100
,,,,95,11,7,,,,,,,,,,,,,gelb,blue,b,0,b,1,0.6669316,None,,,,,,,,,7,11,95,9,462.4071398,,,,,,,,,,,,,,,,,462.3986146,463.6080337,464.4070053,464.3947704,,,,,,,,,,,,,,,,,,,,,,,,,,,,,,,,,,,464.3979542,464.4070053,464.4070053,465.0795308,b,1,0.6669316,None,,,,sub-027,1,2025-03-07_17h56.14.654,stroop_test,04.02.2024,59.54323196,2025-03-07 17h56.29.298544 +0100
,,,,96,0,8,,,,,,,,,,,,,gelb,yellow,g,1,g,1,0.7063937,None,,,,,,,,,8,0,96,11,465.090139,,,,,,,,,,,,,,,,,465.0798196,465.891999,466.7079869,466.6949045,,,,,,,,,,,,,,,,,,,,,,,,,,,,,,,,,,,466.6952273,466.7079869,466.7079869,467.428692,g,1,0.7063937,None,,,,sub-027,1,2025-03-07_17h56.14.654,stroop_test,04.02.2024,59.54323196,2025-03-07 17h56.29.298544 +0100
,,,,97,1,8,,,,,,,,,,,,,blau,yellow,g,0,g,1,0.7150297,None,,,,,,,,,8,1,97,7,467.4399615,,,,,,,,,,,,,,,,,467.4289732,467.7910566,468.5904452,468.5804403,,,,,,,,,,,,,,,,,,,,,,,,,,,,,,,,,,,468.5838656,468.5904452,468.5904452,469.3131123,g,1,0.7150297,None,,,,sub-027,1,2025-03-07_17h56.14.654,stroop_test,04.02.2024,59.54323196,2025-03-07 17h56.29.298544 +0100
,,,,98,2,8,,,,,,,,,,,,,gelb,yellow,g,1,g,1,0.5646811,None,,,,,,,,,8,2,98,10,469.3234278,,,,,,,,,,,,,,,,,469.3133765,469.6736627,470.4729057,470.4623939,,,,,,,,,,,,,,,,,,,,,,,,,,,,,,,,,,,470.4652159,470.4729057,470.4729057,471.0480026,g,1,0.5646811,None,,,,sub-027,1,2025-03-07_17h56.14.654,stroop_test,04.02.2024,59.54323196,2025-03-07 17h56.29.298544 +0100
,,,,99,3,8,,,,,,,,,,,,,rot,blue,b,0,b,1,0.5891686,None,,,,,,,,,8,3,99,2,471.0571011,,,,,,,,,,,,,,,,,471.0482898,471.1567382,471.9564805,471.9456838,,,,,,,,,,,,,,,,,,,,,,,,,,,,,,,,,,,471.9485813,471.9564805,471.9564805,472.5604839,b,1,0.5891686,None,,,,sub-027,1,2025-03-07_17h56.14.654,stroop_test,04.02.2024,59.54323196,2025-03-07 17h56.29.298544 +0100
,,,,100,4,8,,,,,,,,,,,,,gelb,red,r,0,r,1,1.0876745,None,,,,,,,,,8,4,100,8,472.5727341,,,,,,,,,,,,,,,,,472.5607794,473.3733429,474.1740347,474.161199,,,,,,,,,,,,,,,,,,,,,,,,,,,,,,,,,,,474.1635105,474.1740347,474.1740347,475.279108,r,1,1.0876745,None,,,,sub-027,1,2025-03-07_17h56.14.654,stroop_test,04.02.2024,59.54323196,2025-03-07 17h56.29.298544 +0100
,,,,101,5,8,,,,,,,,,,,,,blau,blue,b,1,b,1,0.5793836,None,,,,,,,,,8,5,101,5,475.2916505,,,,,,,,,,,,,,,,,475.2793745,476.4903375,477.2893813,477.2790513,,,,,,,,,,,,,,,,,,,,,,,,,,,,,,,,,,,477.2821919,477.2893813,477.2893813,477.8785759,b,1,0.5793836,None,,,,sub-027,1,2025-03-07_17h56.14.654,stroop_test,04.02.2024,59.54323196,2025-03-07 17h56.29.298544 +0100
,,,,102,6,8,,,,,,,,,,,,,blau,blue,b,1,b,1,0.4255765,None,,,,,,,,,8,6,102,6,477.8899715,,,,,,,,,,,,,,,,,477.8788339,478.239635,479.0413053,479.0280226,,,,,,,,,,,,,,,,,,,,,,,,,,,,,,,,,,,479.0283167,479.0413053,479.0413053,479.4785827,b,1,0.4255765,None,,,,sub-027,1,2025-03-07_17h56.14.654,stroop_test,04.02.2024,59.54323196,2025-03-07 17h56.29.298544 +0100
,,,,103,7,8,,,,,,,,,,,,,rot,red,r,1,r,1,0.6733134,None,,,,,,,,,8,7,103,1,479.4903767,,,,,,,,,,,,,,,,,479.4788606,480.6892465,481.4887977,481.4785188,,,,,,,,,,,,,,,,,,,,,,,,,,,,,,,,,,,481.4812402,481.4887977,481.4887977,482.1769016,r,1,0.6733134,None,,,,sub-027,1,2025-03-07_17h56.14.654,stroop_test,04.02.2024,59.54323196,2025-03-07 17h56.29.298544 +0100
,,,,104,8,8,,,,,,,,,,,,,gelb,blue,b,0,b,1,0.6228865,None,,,,,,,,,8,8,104,9,482.1894543,,,,,,,,,,,,,,,,,482.1773151,482.5398934,483.339758,483.325676,,,,,,,,,,,,,,,,,,,,,,,,,,,,,,,,,,,483.327625,483.339758,483.339758,483.977463,b,1,0.6228865,None,,,,sub-027,1,2025-03-07_17h56.14.654,stroop_test,04.02.2024,59.54323196,2025-03-07 17h56.29.298544 +0100
,,,,105,9,8,,,,,,,,,,,,,blau,red,r,0,r,1,0.6405471,None,,,,,,,,,8,9,105,4,483.990779,,,,,,,,,,,,,,,,,483.977719,484.0905017,484.9055005,484.8943441,,,,,,,,,,,,,,,,,,,,,,,,,,,,,,,,,,,484.8974894,484.9055005,484.9055005,485.5608737,r,1,0.6405471,None,,,,sub-027,1,2025-03-07_17h56.14.654,stroop_test,04.02.2024,59.54323196,2025-03-07 17h56.29.298544 +0100
,,,,106,10,8,,,,,,,,,,,,,rot,red,r,1,r,1,0.7493118,None,,,,,,,,,8,10,106,0,485.57223,,,,,,,,,,,,,,,,,485.5611099,485.9242288,486.7397693,486.7285282,,,,,,,,,,,,,,,,,,,,,,,,,,,,,,,,,,,486.7313888,486.7397693,486.7397693,487.4951241,r,1,0.7493118,None,,,,sub-027,1,2025-03-07_17h56.14.654,stroop_test,04.02.2024,59.54323196,2025-03-07 17h56.29.298544 +0100
,,,,107,11,8,,,,,,,,,,,,,rot,yellow,g,0,g,1,0.7818426,None,,,,,,,,,8,11,107,3,487.5053993,,,,,,,,,,,,,,,,,487.4954906,487.6057486,488.4063547,488.3932459,,,,,,,,,,,,,,,,,,,,,,,,,,,,,,,,,,,488.393586,488.4063547,488.4063547,489.196457,g,1,0.7818426,None,,,,sub-027,1,2025-03-07_17h56.14.654,stroop_test,04.02.2024,59.54323196,2025-03-07 17h56.29.298544 +0100
,,,,108,0,9,,,,,,,,,,,,,rot,yellow,g,0,g,1,0.6149878,None,,,,,,,,,9,0,108,3,489.2056914,,,,,,,,,,,,,,,,,489.196919,489.3062198,490.1066767,490.0962215,,,,,,,,,,,,,,,,,,,,,,,,,,,,,,,,,,,490.0971207,490.1066767,490.1066767,490.726615,g,1,0.6149878,None,,,,sub-027,1,2025-03-07_17h56.14.654,stroop_test,04.02.2024,59.54323196,2025-03-07 17h56.29.298544 +0100
,,,,109,1,9,,,,,,,,,,,,,rot,red,r,1,r,1,0.5215554,None,,,,,,,,,9,1,109,1,490.7389914,,,,,,,,,,,,,,,,,490.7268599,491.0895382,491.8884164,491.880794,,,,,,,,,,,,,,,,,,,,,,,,,,,,,,,,,,,491.8811769,491.8884164,491.8884164,492.4115993,r,1,0.5215554,None,,,,sub-027,1,2025-03-07_17h56.14.654,stroop_test,04.02.2024,59.54323196,2025-03-07 17h56.29.298544 +0100
,,,,110,2,9,,,,,,,,,,,,,gelb,yellow,g,1,g,1,0.5629773,None,,,,,,,,,9,2,110,10,492.4225362,,,,,,,,,,,,,,,,,492.4122104,493.2219229,494.0236535,494.0124429,,,,,,,,,,,,,,,,,,,,,,,,,,,,,,,,,,,494.0151042,494.0236535,494.0236535,494.5956795,g,1,0.5629773,None,,,,sub-027,1,2025-03-07_17h56.14.654,stroop_test,04.02.2024,59.54323196,2025-03-07 17h56.29.298544 +0100
,,,,111,3,9,,,,,,,,,,,,,gelb,yellow,g,1,g,1,0.5248896,None,,,,,,,,,9,3,111,11,494.6058744,,,,,,,,,,,,,,,,,494.5960302,495.4060577,496.2060174,496.1925907,,,,,,,,,,,,,,,,,,,,,,,,,,,,,,,,,,,496.1929128,496.2060174,496.2060174,496.7427142,g,1,0.5248896,None,,,,sub-027,1,2025-03-07_17h56.14.654,stroop_test,04.02.2024,59.54323196,2025-03-07 17h56.29.298544 +0100
,,,,112,4,9,,,,,,,,,,,,,rot,red,r,1,r,1,0.5492626,None,,,,,,,,,9,4,112,0,496.7557035,,,,,,,,,,,,,,,,,496.7430418,497.1056145,497.9054113,497.8927965,,,,,,,,,,,,,,,,,,,,,,,,,,,,,,,,,,,497.8957952,497.9054113,497.9054113,498.4607762,r,1,0.5492626,None,,,,sub-027,1,2025-03-07_17h56.14.654,stroop_test,04.02.2024,59.54323196,2025-03-07 17h56.29.298544 +0100
,,,,113,5,9,,,,,,,,,,,,,blau,blue,b,1,b,1,0.6641182,None,,,,,,,,,9,5,113,6,498.4724386,,,,,,,,,,,,,,,,,498.4610194,499.6727747,500.4718597,500.4601835,,,,,,,,,,,,,,,,,,,,,,,,,,,,,,,,,,,500.4632986,500.4718597,500.4718597,501.1454854,b,1,0.6641182,None,,,,sub-027,1,2025-03-07_17h56.14.654,stroop_test,04.02.2024,59.54323196,2025-03-07 17h56.29.298544 +0100
,,,,114,6,9,,,,,,,,,,,,,blau,blue,b,1,b,1,0.4828682,None,,,,,,,,,9,6,114,5,501.1550696,,,,,,,,,,,,,,,,,501.1458363,501.2557246,502.0562161,502.0428675,,,,,,,,,,,,,,,,,,,,,,,,,,,,,,,,,,,502.0432302,502.0562161,502.0562161,502.5427317,b,1,0.4828682,None,,,,sub-027,1,2025-03-07_17h56.14.654,stroop_test,04.02.2024,59.54323196,2025-03-07 17h56.29.298544 +0100
,,,,115,7,9,,,,,,,,,,,,,gelb,red,r,0,r,1,0.65128,None,,,,,,,,,9,7,115,8,502.5558417,,,,,,,,,,,,,,,,,502.5430019,502.9051096,503.7218871,503.6967767,,,,,,,,,,,,,,,,,,,,,,,,,,,,,,,,,,,503.6994702,503.7218871,503.7218871,504.3769299,r,1,0.65128,None,,,,sub-027,1,2025-03-07_17h56.14.654,stroop_test,04.02.2024,59.54323196,2025-03-07 17h56.29.298544 +0100
,,,,116,8,9,,,,,,,,,,,,,blau,red,r,0,r,1,0.4398421,None,,,,,,,,,9,8,116,4,504.3880147,,,,,,,,,,,,,,,,,504.3771933,505.5887439,506.388317,506.375128,,,,,,,,,,,,,,,,,,,,,,,,,,,,,,,,,,,506.3778182,506.388317,506.388317,506.8419498,r,1,0.4398421,None,,,,sub-027,1,2025-03-07_17h56.14.654,stroop_test,04.02.2024,59.54323196,2025-03-07 17h56.29.298544 +0100
,,,,117,9,9,,,,,,,,,,,,,blau,yellow,g,0,g,1,0.5532638,None,,,,,,,,,9,9,117,7,506.8556298,,,,,,,,,,,,,,,,,506.8421769,508.0551171,508.855802,508.8438726,,,,,,,,,,,,,,,,,,,,,,,,,,,,,,,,,,,508.8441515,508.855802,508.855802,509.410162,g,1,0.5532638,None,,,,sub-027,1,2025-03-07_17h56.14.654,stroop_test,04.02.2024,59.54323196,2025-03-07 17h56.29.298544 +0100
,,,,118,10,9,,,,,,,,,,,,,gelb,blue,b,0,b,1,0.7856403,None,,,,,,,,,9,10,118,9,509.4225312,,,,,,,,,,,,,,,,,509.4105007,509.5220024,510.3222189,510.3091658,,,,,,,,,,,,,,,,,,,,,,,,,,,,,,,,,,,510.3118541,510.3222189,510.3222189,511.1133123,b,1,0.7856403,None,,,,sub-027,1,2025-03-07_17h56.14.654,stroop_test,04.02.2024,59.54323196,2025-03-07 17h56.29.298544 +0100
,,,,119,11,9,,,,,,,,,,,,,rot,blue,b,0,b,1,0.5257666,None,,,,,,,,,9,11,119,2,511.1216647,,,,,,,,,,,,,,,,,511.1136823,511.9217825,512.7214914,512.7083382,,,,,,,,,,,,,,,,,,,,,,,,,,,,,,,,,,,512.7107331,512.7214914,512.7214914,513.2591426,b,1,0.5257666,None,,,,sub-027,1,2025-03-07_17h56.14.654,stroop_test,04.02.2024,59.54323196,2025-03-07 17h56.29.298544 +0100
,,,,,,,,,,,,,,,,,,,,,,,,,,,,,,,,,,,,,,,,,,,,,,,,,,,,,,,,,,,,,,,,,,,,,,,,,,,,,,,,,,,,,,,,,,,,,,,,,,,,,,513.2592652,513.2712454,518.259833,sub-027,1,2025-03-07_17h56.14.654,stroop_test,04.02.2024,59.54323196,2025-03-07 17h56.29.298544 +0100
