wordCTK,colorCTK,corrAnsCTK,congruentCTK,thisN,thisTrialN,thisRepN,keyResp_CTK.keys,keyResp_CTK.corr,keyResp_CTK.rt,keyResp_CTK.duration,wordPractice,colorPractice,corrAnsPractice,congruentPractice,respPractice.keys,respPractice.corr,respPractice.rt,respPractice.duration,word,color,corrAns,congruent,keyResp_test_run.keys,keyResp_test_run.corr,keyResp_test_run.rt,keyResp_test_run.duration,trials_CTK.thisRepN,trials_CTK.thisTrialN,trials_CTK.thisN,trials_CTK.thisIndex,trials_practice.thisRepN,trials_practice.thisTrialN,trials_practice.thisN,trials_practice.thisIndex,trials_test.thisRepN,trials_test.thisTrialN,trials_test.thisN,trials_test.thisIndex,thisRow.t,notes,instruction.started,instr_text.started,instr_image.started,instr_resp.started,instruction.stopped,instr_resp.keys,instr_resp.rt,instr_resp.duration,instr_color_to_key.started,instr_ctk.started,resp_ctk.started,instr_color_to_key.stopped,resp_ctk.keys,resp_ctk.rt,resp_ctk.duration,ITI.started,fixcross.started,fixcross.stopped,ITI.stopped,color_to_key_run.started,stimulus_CTK.started,keyResp_CTK.started,color_to_key_run.stopped,trials_CTK.keyResp_CTK.keys,trials_CTK.keyResp_CTK.corr,trials_CTK.keyResp_CTK.rt,trials_CTK.keyResp_CTK.duration,instr_practice.started,instr_practice_text.started,instr_practice_resp.started,instr_practice.stopped,instr_practice_resp.keys,instr_practice_resp.rt,instr_practice_resp.duration,practice_run.started,stimulus_practice.started,respPractice.started,practice_run.stopped,trials_practice.respPractice.keys,trials_practice.respPractice.corr,trials_practice.respPractice.rt,trials_practice.respPractice.duration,feedback.started,textFeedback.started,textFeedback.stopped,feedback.stopped,instr_test.started,instr_test_text.started,instr_test_resp.started,instr_test.stopped,instr_test_resp.keys,instr_test_resp.rt,instr_test_resp.duration,test_run.started,stimulus_test_run.started,keyResp_test_run.started,test_run.stopped,trials_test.keyResp_test_run.keys,trials_test.keyResp_test_run.corr,trials_test.keyResp_test_run.rt,trials_test.keyResp_test_run.duration,goodbye.started,textGoodbye.started,participant,session,expName,frameRate,Unnamed: 111
,,,,,,,,,,,,,,,,,,,,,,,,,,,,,,,,,,,,,,,,,0.0082969579962082,0.0285075139836408,0.0285075139836408,0.0285075139836408,14.351304821990198,space,14.20361194902216,,,,,,,,,,,,,,,,,,,,,,,,,,,,,,,,,,,,,,,,,,,,,,,,,,,,,,,,,sub-099,1.0,stroop_test,,
,,,,,,,,,,,,,,,,,,,,,,,,,,,,,,,,,,,,,,,,,,,,,,,,,14.351353763981024,14.367484475980746,14.367484475980746,21.60493489197688,space,7.23066677202587,,,,,,,,,,,,,,,,,,,,,,,,,,,,,,,,,,,,,,,,,,,,,,,,,,sub-099,1.0,stroop_test,,
test,red,r,1.0,0.0,0.0,0.0,r,1.0,0.6351939309970476,,,,,,,,,,,,,,,,,,0.0,0.0,0.0,0.0,,,,,,,,,21.63530408698716,,,,,,,,,,,,,,,,,21.62247108799056,21.955437522992725,22.75998086098116,22.744489860982867,22.751728704985,22.75998086098116,22.75998086098116,23.403031608992023,r,1.0,0.6351939309970476,,,,,,,,,,,,,,,,,,,,,,,,,,,,,,,,,,,,,,sub-099,1.0,stroop_test,,
test,blue,b,1.0,1.0,1.0,0.0,b,1.0,0.4943821129854768,,,,,,,,,,,,,,,,,,0.0,1.0,1.0,2.0,,,,,,,,,23.41236579898396,,,,,,,,,,,,,,,,,23.40323797499877,24.201739413983887,24.99876104097348,24.98625031398842,24.98742273097741,24.99876104097348,24.99876104097348,25.49549492498045,b,1.0,0.4943821129854768,,,,,,,,,,,,,,,,,,,,,,,,,,,,,,,,,,,,,,sub-099,1.0,stroop_test,,
test,yellow,g,1.0,2.0,2.0,0.0,g,1.0,0.4699422709818464,,,,,,,,,,,,,,,,,,0.0,2.0,2.0,1.0,,,,,,,,,25.50088920997223,,,,,,,,,,,,,,,,,25.49572074398748,25.83600906797801,26.629210781975416,26.619143068994163,26.620085119997384,26.629210781975416,26.629210781975416,27.104352138994727,g,1.0,0.4699422709818464,,,,,,,,,,,,,,,,,,,,,,,,,,,,,,,,,,,,,,sub-099,1.0,stroop_test,,
test,yellow,g,1.0,3.0,0.0,1.0,g,1.0,0.5779010950063821,,,,,,,,,,,,,,,,,,1.0,0.0,3.0,1.0,,,,,,,,,27.113623001991076,,,,,,,,,,,,,,,,,27.104566103982503,28.30271080299281,29.10537074698368,29.09545884997351,29.096438193984795,29.10537074698368,29.10537074698368,29.686672356998315,g,1.0,0.5779010950063821,,,,,,,,,,,,,,,,,,,,,,,,,,,,,,,,,,,,,,sub-099,1.0,stroop_test,,
test,blue,b,1.0,4.0,1.0,1.0,b,1.0,0.4943753069965169,,,,,,,,,,,,,,,,,,1.0,1.0,4.0,2.0,,,,,,,,,29.694444301974727,,,,,,,,,,,,,,,,,29.686902906978503,29.784001917985734,30.586948901996948,30.579572524991818,30.580201327975374,30.586948901996948,30.586948901996948,31.085630363988457,b,1.0,0.4943753069965169,,,,,,,,,,,,,,,,,,,,,,,,,,,,,,,,,,,,,,sub-099,1.0,stroop_test,,
test,red,r,1.0,5.0,2.0,1.0,r,1.0,0.2969254429917782,,,,,,,,,,,,,,,,,,1.0,2.0,5.0,0.0,,,,,,,,,31.0953068289964,,,,,,,,,,,,,,,,,31.08596492698416,32.28569512598915,33.0873343309795,33.07956766599091,33.08021158899646,33.0873343309795,33.0873343309795,33.3857600549818,r,1.0,0.2969254429917782,,,,,,,,,,,,,,,,,,,,,,,,,,,,,,,,,,,,,,sub-099,1.0,stroop_test,,
test,blue,b,1.0,6.0,0.0,2.0,b,1.0,0.4813189549895469,,,,,,,,,,,,,,,,,,2.0,0.0,6.0,2.0,,,,,,,,,33.394226207979955,,,,,,,,,,,,,,,,,33.38599206099752,33.478151505987626,34.270952167978976,34.261956957983784,34.26258226297796,34.270952167978976,34.270952167978976,34.753836410993244,b,1.0,0.4813189549895469,,,,,,,,,,,,,,,,,,,,,,,,,,,,,,,,,,,,,,sub-099,1.0,stroop_test,,
test,red,r,1.0,7.0,1.0,2.0,r,1.0,0.512190769019071,,,,,,,,,,,,,,,,,,2.0,1.0,7.0,0.0,,,,,,,,,34.761754365987144,,,,,,,,,,,,,,,,,34.75406493298942,34.85226417297963,35.65394584200112,35.64623174199369,35.64693374498165,35.65394584200112,35.65394584200112,36.17199966599583,r,1.0,0.512190769019071,,,,,,,,,,,,,,,,,,,,,,,,,,,,,,,,,,,,,,sub-099,1.0,stroop_test,,
test,yellow,g,1.0,8.0,2.0,2.0,g,1.0,0.5249407250084914,,,,,,,,,,,,,,,,,,2.0,2.0,8.0,1.0,,,,,,,,,36.18178272098885,,,,,,,,,,,,,,,,,36.17232295498252,36.51800629697391,37.32820795997395,37.30256398499478,37.30350855298457,37.32820795997395,37.32820795997395,37.86175713298144,g,1.0,0.5249407250084914,,,,,,,,,,,,,,,,,,,,,,,,,,,,,,,,,,,,,,sub-099,1.0,stroop_test,,
test,red,r,1.0,9.0,0.0,3.0,r,1.0,0.4650147229840513,,,,,,,,,,,,,,,,,,3.0,0.0,9.0,0.0,,,,,,,,,37.86894415598363,,,,,,,,,,,,,,,,,37.86195636197226,38.20242851099465,39.00213196600089,38.99484698899323,38.995387675997335,39.00213196600089,39.00213196600089,39.47829018899938,r,1.0,0.4650147229840513,,,,,,,,,,,,,,,,,,,,,,,,,,,,,,,,,,,,,,sub-099,1.0,stroop_test,,
test,blue,b,1.0,10.0,1.0,3.0,b,1.0,0.5259688419755548,,,,,,,,,,,,,,,,,,3.0,1.0,10.0,2.0,,,,,,,,,39.48605229999521,,,,,,,,,,,,,,,,,39.47850903699873,39.577399786998285,40.36731818297994,40.361058370996034,40.36135212198133,40.36731818297994,40.36731818297994,40.89473805599846,b,1.0,0.5259688419755548,,,,,,,,,,,,,,,,,,,,,,,,,,,,,,,,,,,,,,sub-099,1.0,stroop_test,,
test,yellow,g,1.0,11.0,2.0,3.0,g,1.0,0.3378189990180544,,,,,,,,,,,,,,,,,,3.0,2.0,11.0,1.0,,,,,,,,,40.90156444898457,,,,,,,,,,,,,,,,,40.8949881909939,41.68477701197844,42.48852011698182,42.479284008994,42.48005665797973,42.48852011698182,42.48852011698182,42.830292025988456,g,1.0,0.3378189990180544,,,,,,,,,,,,,,,,,,,,,,,,,,,,,,,,,,,,,,sub-099,1.0,stroop_test,,
,,,,,,,,,,,,,,,,,,,,,,,,,,,,,,,,,,,,,,,,,,,,,,,,,,,,,,,,,,,,,,,,,,,,42.83040680998238,42.84008865398937,42.84008865398937,43.936198688985314,space,1.0910614260064904,,,,,,,,,,,,,,,,,,,,,,,,,,,,,,,sub-099,1.0,stroop_test,,
,,,,0.0,0.0,0.0,,,,,gelb,yellow,g,1.0,g,1.0,0.6588113039906602,,,,,,,,,,,,,,0.0,0.0,0.0,10.0,,,,,43.95549370997469,,,,,,,,,,,,,,,,,43.94666899499134,44.73428387497552,45.53462719998788,45.517866894981125,,,,,,,,,,,,,,,,45.52691973399487,45.53462719998788,45.53462719998788,46.19551516498905,g,1.0,0.6588113039906602,,46.20084933197359,46.21042741497513,47.201295449980535,47.195127756975126,,,,,,,,,,,,,,,,,,sub-099,1.0,stroop_test,,
,,,,1.0,1.0,0.0,,,,,rot,blue,b,0.0,b,1.0,0.6005440170119982,,,,,,,,,,,,,,0.0,1.0,1.0,2.0,,,,,47.201295449980535,,,,,,,,,,,,,,,,,47.19556257699151,47.53606770798797,48.34269080898957,48.32964841398643,,,,,,,,,,,,,,,,48.3348528649949,48.34269080898957,48.34269080898957,48.94482720197993,b,1.0,0.6005440170119982,,48.94516747398302,48.95496643698425,49.95088824897539,49.94475254797726,,,,,,,,,,,,,,,,,,sub-099,1.0,stroop_test,,
,,,,2.0,2.0,0.0,,,,,rot,red,r,1.0,r,1.0,0.3259266510140151,,,,,,,,,,,,,,0.0,2.0,2.0,1.0,,,,,49.95088824897539,,,,,,,,,,,,,,,,,49.945240115979686,50.28548298499664,51.09440988997813,51.06939804099966,,,,,,,,,,,,,,,,51.070352192997234,51.09440988997813,51.09440988997813,51.42858146497747,r,1.0,0.3259266510140151,,51.42897027698928,51.43687108298764,,52.42936332398676,,,,,,,,,,,,,,,,,,sub-099,1.0,stroop_test,,
,,,,3.0,3.0,0.0,,,,,gelb,blue,b,0.0,b,1.0,0.4166149480151944,,,,,,,,,,,,,,0.0,3.0,3.0,9.0,,,,,52.43594807499903,,,,,,,,,,,,,,,,,52.429818326985696,52.7685402649804,53.565760733996285,53.553028760972666,,,,,,,,,,,,,,,,53.55758358698222,53.565760733996285,53.565760733996285,53.98500768697704,b,1.0,0.4166149480151944,,53.98537372099236,53.996559984982014,54.99442005698802,54.984439472988015,,,,,,,,,,,,,,,,,,sub-099,1.0,stroop_test,,
,,,,4.0,4.0,0.0,,,,,rot,yellow,g,0.0,g,1.0,0.3658236359769944,,,,,,,,,,,,,,0.0,4.0,4.0,3.0,,,,,54.99442005698802,,,,,,,,,,,,,,,,,54.9851757339784,56.1846317529853,56.98246828897391,56.96898572699865,,,,,,,,,,,,,,,,56.973689453996485,56.98246828897391,56.98246828897391,57.35439602297265,g,1.0,0.3658236359769944,,57.35507820599014,57.36581954199937,58.36119997999049,58.3524003639759,,,,,,,,,,,,,,,,,,sub-099,1.0,stroop_test,,
,,,,5.0,5.0,0.0,,,,,blau,red,r,0.0,r,1.0,0.3599424179992638,,,,,,,,,,,,,,0.0,5.0,5.0,4.0,,,,,58.36119997999049,,,,,,,,,,,,,,,,,58.353113846998895,59.55102277098922,60.35023850799189,60.33462467198842,,,,,,,,,,,,,,,,60.342489258997375,60.35023850799189,60.35023850799189,60.71214212698396,r,1.0,0.3599424179992638,,60.71249462099513,60.72113600198645,61.71725525299553,61.71130575897405,,,,,,,,,,,,,,,,,,sub-099,1.0,stroop_test,,
,,,,6.0,6.0,0.0,,,,,gelb,yellow,g,1.0,g,1.0,0.4512356990016997,,,,,,,,,,,,,,0.0,6.0,6.0,11.0,,,,,61.71725525299553,,,,,,,,,,,,,,,,,61.711660557979485,61.8021064659988,62.60605178098194,62.59434496398899,,,,,,,,,,,,,,,,62.59794586399221,62.60605178098194,62.60605178098194,63.0618687599781,g,1.0,0.4512356990016997,,63.06240208898089,63.07115788100055,64.06737671099836,64.06124335198547,,,,,,,,,,,,,,,,,,sub-099,1.0,stroop_test,,
,,,,7.0,7.0,0.0,,,,,rot,red,r,1.0,g,0.0,0.4542774199799169,,,,,,,,,,,,,,0.0,7.0,7.0,0.0,,,,,64.06737671099836,,,,,,,,,,,,,,,,,64.0616659889929,64.86109977099113,65.65600968198851,65.64492979997885,,,,,,,,,,,,,,,,65.64839266997296,65.65600968198851,65.65600968198851,66.1114491589833,g,0.0,0.4542774199799169,,66.11502187597216,66.12353267800063,67.11734461499145,67.11123560898704,,,,,,,,,,,,,,,,,,sub-099,1.0,stroop_test,,
,,,,8.0,8.0,0.0,,,,,blau,blue,b,1.0,b,1.0,0.5299722850031685,,,,,,,,,,,,,,0.0,8.0,8.0,5.0,,,,,67.11734461499145,,,,,,,,,,,,,,,,,67.11166445197887,67.46106505597709,68.25623731297674,68.2448563319922,,,,,,,,,,,,,,,,68.24822899597348,68.25623731297674,68.25623731297674,68.79516675998457,b,1.0,0.5299722850031685,,68.79706145098316,68.80574158098898,69.7999284779944,69.79418046597857,,,,,,,,,,,,,,,,,,sub-099,1.0,stroop_test,,
,,,,9.0,9.0,0.0,,,,,gelb,red,r,0.0,r,1.0,0.3767259999876842,,,,,,,,,,,,,,0.0,9.0,9.0,8.0,,,,,69.7999284779944,,,,,,,,,,,,,,,,,69.79457087698393,70.9943512409809,71.79358859697822,71.78288014399004,,,,,,,,,,,,,,,,71.78502004398615,71.79358859697822,71.79358859697822,72.17809459898854,r,1.0,0.3767259999876842,,72.17845070298063,72.18622559998767,73.17849665298127,73.16919695399702,,,,,,,,,,,,,,,,,,sub-099,1.0,stroop_test,,
,,,,10.0,10.0,0.0,,,,,blau,blue,b,1.0,b,1.0,0.4765908620029222,,,,,,,,,,,,,,0.0,10.0,10.0,6.0,,,,,73.17849665298127,,,,,,,,,,,,,,,,,73.16992465898511,73.96724538397393,74.76476111498778,74.75087025799439,,,,,,,,,,,,,,,,74.7565331949736,74.76476111498778,74.76476111498778,75.24499867198756,b,1.0,0.4765908620029222,,75.24547728998004,75.253538577992,,76.24557390098926,,,,,,,,,,,,,,,,,,sub-099,1.0,stroop_test,,
,,,,11.0,11.0,0.0,,,,,blau,yellow,g,0.0,g,1.0,0.3332674950070213,,,,,,,,,,,,,,0.0,11.0,11.0,7.0,,,,,76.25170234197867,,,,,,,,,,,,,,,,,76.24605780097772,77.03415016198414,77.8438919459877,77.81797039997764,,,,,,,,,,,,,,,,77.81900532997679,77.8438919459877,77.8438919459877,78.17852209499688,g,1.0,0.3332674950070213,,78.17897768798866,78.18788376398152,,79.17892093097907,,,,,,,,,,,,,,,,,,sub-099,1.0,stroop_test,,
,,,,12.0,0.0,1.0,,,,,rot,yellow,g,0.0,g,1.0,0.5409686869825236,,,,,,,,,,,,,,1.0,0.0,12.0,3.0,,,,,79.18524139898364,,,,,,,,,,,,,,,,,79.1795524249901,80.37724178298959,81.17334132399992,81.16107593599008,,,,,,,,,,,,,,,,81.1651813449862,81.17334132399992,81.17334132399992,81.71830279999995,g,1.0,0.5409686869825236,,81.71877265998046,81.72945090098074,82.72847550199367,82.71735660498962,,,,,,,,,,,,,,,,,,sub-099,1.0,stroop_test,,
,,,,13.0,1.0,1.0,,,,,rot,red,r,1.0,r,1.0,0.7773783699958585,,,,,,,,,,,,,,1.0,1.0,13.0,0.0,,,,,82.72847550199367,,,,,,,,,,,,,,,,,82.71809097999358,83.91073545598192,84.70292297998094,84.69543256398174,,,,,,,,,,,,,,,,84.69606692998786,84.70292297998094,84.70292297998094,85.48640417298884,r,1.0,0.7773783699958585,,85.48673345099087,85.4975919139979,86.49380228997325,86.48406951499055,,,,,,,,,,,,,,,,,,sub-099,1.0,stroop_test,,
,,,,14.0,2.0,1.0,,,,,blau,yellow,g,0.0,g,1.0,0.70070869801566,,,,,,,,,,,,,,1.0,2.0,14.0,7.0,,,,,86.49380228997325,,,,,,,,,,,,,,,,,86.48481008599629,86.58353967798757,87.38359089399455,87.36851863597985,,,,,,,,,,,,,,,,87.37356841299334,87.38359089399455,87.38359089399455,88.09545594599331,g,1.0,0.70070869801566,,88.09593899498577,88.10607088499819,89.10066064697457,89.09467012999812,,,,,,,,,,,,,,,,,,sub-099,1.0,stroop_test,,
,,,,15.0,3.0,1.0,,,,,rot,red,r,1.0,r,1.0,0.5385827479767613,,,,,,,,,,,,,,1.0,3.0,15.0,1.0,,,,,89.10066064697457,,,,,,,,,,,,,,,,,89.09510425297776,90.29350166898804,91.08892138299416,91.077693092986,,,,,,,,,,,,,,,,91.08142074197532,91.08892138299416,91.08892138299416,91.62941490497906,r,1.0,0.5385827479767613,,91.6297723769967,91.63857294199988,92.6355331829982,92.62910230699345,,,,,,,,,,,,,,,,,,sub-099,1.0,stroop_test,,
,,,,16.0,4.0,1.0,,,,,gelb,blue,b,0.0,b,1.0,0.379176368995104,,,,,,,,,,,,,,1.0,4.0,16.0,9.0,,,,,92.6355331829982,,,,,,,,,,,,,,,,,92.62971988299978,93.82845026499126,94.6309969649883,94.61711212899536,,,,,,,,,,,,,,,,94.62115160399117,94.6309969649883,94.6309969649883,95.01154976099497,b,1.0,0.379176368995104,,95.01192456597346,95.02144226199016,96.01684561397995,96.01080782798816,,,,,,,,,,,,,,,,,,sub-099,1.0,stroop_test,,
,,,,17.0,5.0,1.0,,,,,gelb,red,r,0.0,r,1.0,0.530127909994917,,,,,,,,,,,,,,1.0,5.0,17.0,8.0,,,,,96.01684561397995,,,,,,,,,,,,,,,,,96.01116185297724,96.80123401098535,97.59511260097496,97.58490350699869,,,,,,,,,,,,,,,,97.58578845998272,97.59511260097496,97.59511260097496,98.12977849098388,r,1.0,0.530127909994917,,98.1303680909914,98.14346351698624,99.13319819699971,99.1272314809903,,,,,,,,,,,,,,,,,,sub-099,1.0,stroop_test,,
,,,,18.0,6.0,1.0,,,,,blau,blue,b,1.0,b,1.0,0.3144772899977397,,,,,,,,,,,,,,1.0,6.0,18.0,5.0,,,,,99.13319819699971,,,,,,,,,,,,,,,,,99.1276519499952,100.32714348399897,101.12690478898004,101.11179486999754,,,,,,,,,,,,,,,,101.11534321799992,101.12690478898004,101.12690478898004,101.44608663200052,b,1.0,0.3144772899977397,,101.44642146298428,101.45476202497956,102.45168288299465,102.44555307997508,,,,,,,,,,,,,,,,,,sub-099,1.0,stroop_test,,
,,,,19.0,7.0,1.0,,,,,gelb,yellow,g,1.0,g,1.0,0.749884677992668,,,,,,,,,,,,,,1.0,7.0,19.0,10.0,,,,,102.45168288299465,,,,,,,,,,,,,,,,,102.44610783699318,102.54371181398164,103.339602647,103.32774500298548,,,,,,,,,,,,,,,,103.33153483897333,103.339602647,103.339602647,104.0962604819797,g,1.0,0.749884677992668,,104.0965604489902,104.10446413597674,105.10114313999657,105.0946024999721,,,,,,,,,,,,,,,,,,sub-099,1.0,stroop_test,,
,,,,20.0,8.0,1.0,,,,,gelb,yellow,g,1.0,g,1.0,0.2992679409799166,,,,,,,,,,,,,,1.0,8.0,20.0,11.0,,,,,105.10114313999657,,,,,,,,,,,,,,,,,105.09522959799506,105.44471862199134,106.2361124099989,106.22814004597603,,,,,,,,,,,,,,,,106.22882750697318,106.2361124099989,106.2361124099989,106.54412745099398,g,1.0,0.2992679409799166,,106.5444581139891,106.55346315097997,,107.54474880799536,,,,,,,,,,,,,,,,,,sub-099,1.0,stroop_test,,
,,,,21.0,9.0,1.0,,,,,rot,blue,b,0.0,g,0.0,0.3794826230150647,,,,,,,,,,,,,,1.0,9.0,21.0,2.0,,,,,107.55101488798392,,,,,,,,,,,,,,,,,107.54543954398832,107.89638848300092,108.6948839709803,108.6836933309969,,,,,,,,,,,,,,,,108.68639768697903,108.6948839709803,108.6948839709803,109.07961689998046,g,0.0,0.3794826230150647,,109.08151416198234,109.08989764098078,110.08230243899744,110.07672795897815,,,,,,,,,,,,,,,,,,sub-099,1.0,stroop_test,,
,,,,22.0,10.0,1.0,,,,,blau,blue,b,1.0,b,1.0,0.405053818016313,,,,,,,,,,,,,,1.0,10.0,22.0,6.0,,,,,110.08230243899744,,,,,,,,,,,,,,,,,110.07696077198489,111.27683444597642,112.07328733699978,112.0608560559922,,,,,,,,,,,,,,,,112.06490958298672,112.07328733699978,112.07328733699978,112.47949228598736,b,1.0,0.405053818016313,,112.48161448398604,112.4901637149742,113.4847444149782,113.47861934598768,,,,,,,,,,,,,,,,,,sub-099,1.0,stroop_test,,
,,,,23.0,11.0,1.0,,,,,blau,red,r,0.0,r,1.0,0.2691431120038032,,,,,,,,,,,,,,1.0,11.0,23.0,4.0,,,,,113.4847444149782,,,,,,,,,,,,,,,,,113.47904854797524,114.67701804998796,115.46941445898848,115.46041192297707,,,,,,,,,,,,,,,,115.46104342999752,115.46941445898848,115.46941445898848,115.7446961439855,r,1.0,0.2691431120038032,,115.74499769197428,115.75328072099364,116.7540760789998,116.74391753299278,,,,,,,,,,,,,,,,,,sub-099,1.0,stroop_test,,
,,,,,,,,,,,,,,,,,,,,,,,,,,,,,,,,,,,,,,,,,,,,,,,,,,,,,,,,,,,,,,,,,,,,,,,,,,,,,,,,,,,,,,,116.74416566899164,116.7540760789998,116.7540760789998,119.3611444470007,space,2.5993139130005147,,,,,,,,,,,,sub-099,1.0,stroop_test,,
,,,,0.0,0.0,0.0,,,,,,,,,,,,,rot,red,r,1.0,g,0.0,0.4602905260107945,,,,,,,,,,0.0,0.0,0.0,0.0,119.38035133798256,,,,,,,,,,,,,,,,,119.37150569297955,119.45968503298354,120.25515885898494,120.24395215997356,,,,,,,,,,,,,,,,,,,,,,,,,,,,,,,,,,,120.2476191649912,120.25515885898494,120.25515885898494,120.71853565698255,g,0.0,0.4602905260107945,,,,sub-099,1.0,stroop_test,,
,,,,1.0,1.0,0.0,,,,,,,,,,,,,blau,blue,b,1.0,b,1.0,0.5314578870020341,,,,,,,,,,0.0,1.0,1.0,5.0,120.72666315897368,,,,,,,,,,,,,,,,,120.71880159998544,121.9167075669975,122.714941720973,122.7006609539967,,,,,,,,,,,,,,,,,,,,,,,,,,,,,,,,,,,122.7059344999725,122.714941720973,122.714941720973,123.25348868398578,b,1.0,0.5314578870020341,,,,sub-099,1.0,stroop_test,,
,,,,2.0,2.0,0.0,,,,,,,,,,,,,rot,yellow,g,0.0,g,1.0,0.3020388439763337,,,,,,,,,,0.0,2.0,2.0,3.0,123.26313548197504,,,,,,,,,,,,,,,,,123.25372912798775,124.45051885698922,125.24936539499322,125.23529068997595,,,,,,,,,,,,,,,,,,,,,,,,,,,,,,,,,,,125.24061190299108,125.24936539499322,125.24936539499322,125.56065217999276,g,1.0,0.3020388439763337,,,,sub-099,1.0,stroop_test,,
,,,,3.0,3.0,0.0,,,,,,,,,,,,,gelb,blue,b,0.0,b,1.0,0.5173004620010033,,,,,,,,,,0.0,3.0,3.0,9.0,125.5680116279982,,,,,,,,,,,,,,,,,125.56089107497246,125.90163768199272,126.7072163009725,126.69501148400012,,,,,,,,,,,,,,,,,,,,,,,,,,,,,,,,,,,126.69878868397792,126.7072163009725,126.7072163009725,127.2290407519904,b,1.0,0.5173004620010033,,,,sub-099,1.0,stroop_test,,
,,,,4.0,4.0,0.0,,,,,,,,,,,,,blau,red,r,0.0,r,1.0,0.5316333769878838,,,,,,,,,,0.0,4.0,4.0,4.0,127.23736301698956,,,,,,,,,,,,,,,,,127.22932961699551,127.32695715298178,128.12191371899098,128.1102602229803,,,,,,,,,,,,,,,,,,,,,,,,,,,,,,,,,,,128.11402860097587,128.12191371899098,128.12191371899098,128.66068805998657,r,1.0,0.5316333769878838,,,,sub-099,1.0,stroop_test,,
,,,,5.0,5.0,0.0,,,,,,,,,,,,,rot,red,r,1.0,r,1.0,0.3992025119950995,,,,,,,,,,0.0,5.0,5.0,1.0,128.66782389298896,,,,,,,,,,,,,,,,,128.66091166099068,129.85147887197672,130.65726538197487,130.64497190798284,,,,,,,,,,,,,,,,,,,,,,,,,,,,,,,,,,,130.6486947099911,130.65726538197487,130.65726538197487,131.06141664998722,r,1.0,0.3992025119950995,,,,sub-099,1.0,stroop_test,,
,,,,6.0,6.0,0.0,,,,,,,,,,,,,rot,blue,b,0.0,b,1.0,0.3877079089870676,,,,,,,,,,0.0,6.0,6.0,2.0,131.06871878699167,,,,,,,,,,,,,,,,,131.06167671698495,132.26072379699326,133.05280898098135,133.04505926498678,,,,,,,,,,,,,,,,,,,,,,,,,,,,,,,,,,,133.04568958299933,133.05280898098135,133.05280898098135,133.44427769898903,b,1.0,0.3877079089870676,,,,sub-099,1.0,stroop_test,,
,,,,7.0,7.0,0.0,,,,,,,,,,,,,gelb,yellow,g,1.0,g,1.0,0.3378832910093479,,,,,,,,,,0.0,7.0,7.0,10.0,133.45251407797332,,,,,,,,,,,,,,,,,133.44456818897743,134.6343163639831,135.44061062598485,135.4281851509877,,,,,,,,,,,,,,,,,,,,,,,,,,,,,,,,,,,135.43273752299137,135.44061062598485,135.44061062598485,135.78512810898246,g,1.0,0.3378832910093479,,,,sub-099,1.0,stroop_test,,
,,,,8.0,8.0,0.0,,,,,,,,,,,,,gelb,red,r,0.0,r,1.0,0.5698384740098845,,,,,,,,,,0.0,8.0,8.0,8.0,135.79432004297269,,,,,,,,,,,,,,,,,135.78535187899251,136.13346340399585,136.9286471059895,136.91822856399813,,,,,,,,,,,,,,,,,,,,,,,,,,,,,,,,,,,136.91909603698878,136.9286471059895,136.9286471059895,137.50109559297562,r,1.0,0.5698384740098845,,,,sub-099,1.0,stroop_test,,
,,,,9.0,9.0,0.0,,,,,,,,,,,,,blau,blue,b,1.0,b,1.0,0.4288973240181803,,,,,,,,,,0.0,9.0,9.0,6.0,137.5094366329722,,,,,,,,,,,,,,,,,137.50135117099853,137.8434449969791,138.63568980197306,138.62700622997363,,,,,,,,,,,,,,,,,,,,,,,,,,,,,,,,,,,138.6290043959743,138.63568980197306,138.63568980197306,139.06920386498678,b,1.0,0.4288973240181803,,,,sub-099,1.0,stroop_test,,
,,,,10.0,10.0,0.0,,,,,,,,,,,,,blau,yellow,g,0.0,g,1.0,0.3403254039876628,,,,,,,,,,0.0,10.0,10.0,7.0,139.0785950179852,,,,,,,,,,,,,,,,,139.06950424498064,140.26711228798376,141.07610018498963,141.05113955799607,,,,,,,,,,,,,,,,,,,,,,,,,,,,,,,,,,,141.05234805998043,141.07610018498963,141.07610018498963,141.4266056989727,g,1.0,0.3403254039876628,,,,sub-099,1.0,stroop_test,,
,,,,11.0,11.0,0.0,,,,,,,,,,,,,gelb,yellow,g,1.0,g,1.0,0.5037414059916046,,,,,,,,,,0.0,11.0,11.0,11.0,141.4351070879784,,,,,,,,,,,,,,,,,141.42684548799298,141.51715364598203,142.31553357699886,142.30144397399272,,,,,,,,,,,,,,,,,,,,,,,,,,,,,,,,,,,142.3072452339984,142.31553357699886,142.31553357699886,142.82681920100003,g,1.0,0.5037414059916046,,,,sub-099,1.0,stroop_test,,
,,,,12.0,0.0,1.0,,,,,,,,,,,,,gelb,yellow,g,1.0,g,1.0,0.4751848230080213,,,,,,,,,,1.0,0.0,12.0,10.0,142.83413867998752,,,,,,,,,,,,,,,,,142.82705184697988,144.01610417297343,144.81127076098346,144.800190406997,,,,,,,,,,,,,,,,,,,,,,,,,,,,,,,,,,,144.80144140898483,144.81127076098346,144.81127076098346,145.29383438199875,g,1.0,0.4751848230080213,,,,sub-099,1.0,stroop_test,,
,,,,13.0,1.0,1.0,,,,,,,,,,,,,rot,yellow,g,0.0,g,1.0,0.450325222016545,,,,,,,,,,1.0,1.0,13.0,3.0,145.3012989779818,,,,,,,,,,,,,,,,,145.29409808997298,145.63274181899033,146.45934681297513,146.43003411599784,,,,,,,,,,,,,,,,,,,,,,,,,,,,,,,,,,,146.43451501097297,146.45934681297513,146.45934681297513,146.91103651898447,g,1.0,0.450325222016545,,,,sub-099,1.0,stroop_test,,
,,,,14.0,2.0,1.0,,,,,,,,,,,,,blau,yellow,g,0.0,g,1.0,0.4007336369832046,,,,,,,,,,1.0,2.0,14.0,7.0,146.91692165099084,,,,,,,,,,,,,,,,,146.91128867398947,147.70969692099607,148.5049003949971,148.49368266097736,,,,,,,,,,,,,,,,,,,,,,,,,,,,,,,,,,,148.49730638798792,148.5049003949971,148.5049003949971,148.91193815498264,g,1.0,0.4007336369832046,,,,sub-099,1.0,stroop_test,,
,,,,15.0,3.0,1.0,,,,,,,,,,,,,blau,blue,b,1.0,b,1.0,0.4020066820085048,,,,,,,,,,1.0,3.0,15.0,6.0,148.91994285798864,,,,,,,,,,,,,,,,,148.91231474498636,150.10114648597664,150.8954617419804,150.88479051800095,,,,,,,,,,,,,,,,,,,,,,,,,,,,,,,,,,,150.88586169399787,150.8954617419804,150.8954617419804,151.30325598997297,b,1.0,0.4020066820085048,,,,sub-099,1.0,stroop_test,,
,,,,16.0,4.0,1.0,,,,,,,,,,,,,rot,blue,b,0.0,b,1.0,0.3653776409919373,,,,,,,,,,1.0,4.0,16.0,2.0,151.31213443298475,,,,,,,,,,,,,,,,,151.30352057199343,151.64939811397926,152.44929554199916,152.43426248198375,,,,,,,,,,,,,,,,,,,,,,,,,,,,,,,,,,,152.43908347099205,152.44929554199916,152.44929554199916,152.8175081339723,b,1.0,0.3653776409919373,,,,sub-099,1.0,stroop_test,,
,,,,17.0,5.0,1.0,,,,,,,,,,,,,rot,red,r,1.0,r,1.0,0.4934248300269246,,,,,,,,,,1.0,5.0,17.0,0.0,152.82581195398234,,,,,,,,,,,,,,,,,152.81776354898466,153.16816515399842,153.96809693198884,153.96069725198322,,,,,,,,,,,,,,,,,,,,,,,,,,,,,,,,,,,153.96133238699986,153.96809693198884,153.96809693198884,154.46739084797446,r,1.0,0.4934248300269246,,,,sub-099,1.0,stroop_test,,
,,,,18.0,6.0,1.0,,,,,,,,,,,,,gelb,blue,b,0.0,g,0.0,0.4775416679913178,,,,,,,,,,1.0,6.0,18.0,9.0,154.4773135459982,,,,,,,,,,,,,,,,,154.46762897598092,154.80983183797798,155.60602852498414,155.59356237997417,,,,,,,,,,,,,,,,,,,,,,,,,,,,,,,,,,,155.5978798159922,155.60602852498414,155.60602852498414,156.08499329097685,g,0.0,0.4775416679913178,,,,sub-099,1.0,stroop_test,,
,,,,19.0,7.0,1.0,,,,,,,,,,,,,gelb,red,r,0.0,r,1.0,0.5264365210023243,,,,,,,,,,1.0,7.0,19.0,8.0,156.09279290598352,,,,,,,,,,,,,,,,,156.0852477219887,156.43394727897248,157.23027186398394,157.21824960198137,,,,,,,,,,,,,,,,,,,,,,,,,,,,,,,,,,,157.21933856897522,157.23027186398394,157.23027186398394,157.76200226697256,r,1.0,0.5264365210023243,,,,sub-099,1.0,stroop_test,,
,,,,20.0,8.0,1.0,,,,,,,,,,,,,rot,red,r,1.0,r,1.0,0.5161656209966168,,,,,,,,,,1.0,8.0,20.0,1.0,157.77044890797697,,,,,,,,,,,,,,,,,157.7622924419993,158.56103609397542,159.3581751199963,159.34616455697687,,,,,,,,,,,,,,,,,,,,,,,,,,,,,,,,,,,159.34977084599086,159.3581751199963,159.3581751199963,159.87699349600007,r,1.0,0.5161656209966168,,,,sub-099,1.0,stroop_test,,
,,,,21.0,9.0,1.0,,,,,,,,,,,,,gelb,yellow,g,1.0,g,1.0,0.5610484959906898,,,,,,,,,,1.0,9.0,21.0,11.0,159.88283554799273,,,,,,,,,,,,,,,,,159.8772806399793,160.2158984989801,161.01360758999363,160.9996848119772,,,,,,,,,,,,,,,,,,,,,,,,,,,,,,,,,,,161.0042030159966,161.01360758999363,161.01360758999363,161.577165279974,g,1.0,0.5610484959906898,,,,sub-099,1.0,stroop_test,,
,,,,22.0,10.0,1.0,,,,,,,,,,,,,blau,red,r,0.0,r,1.0,0.5171589490200859,,,,,,,,,,1.0,10.0,22.0,4.0,161.5828886939853,,,,,,,,,,,,,,,,,161.57741130597424,162.77596219899715,163.5716524029849,163.56002616198384,,,,,,,,,,,,,,,,,,,,,,,,,,,,,,,,,,,163.5637734439806,163.5716524029849,163.5716524029849,164.09396774298511,r,1.0,0.5171589490200859,,,,sub-099,1.0,stroop_test,,
,,,,23.0,11.0,1.0,,,,,,,,,,,,,blau,blue,b,1.0,b,1.0,0.344626468984643,,,,,,,,,,1.0,11.0,23.0,5.0,164.10136351099936,,,,,,,,,,,,,,,,,164.09422194899523,164.88410605097306,165.6771193149907,165.66723448998528,,,,,,,,,,,,,,,,,,,,,,,,,,,,,,,,,,,165.66807386497385,165.6771193149907,165.6771193149907,166.02802977798274,b,1.0,0.344626468984643,,,,sub-099,1.0,stroop_test,,
,,,,24.0,0.0,2.0,,,,,,,,,,,,,rot,red,r,1.0,r,1.0,0.5598389980150387,,,,,,,,,,2.0,0.0,24.0,0.0,166.03669359599007,,,,,,,,,,,,,,,,,166.02835871998104,166.1271974869887,166.92173917999023,166.9101291859988,,,,,,,,,,,,,,,,,,,,,,,,,,,,,,,,,,,166.91386690997751,166.92173917999023,166.92173917999023,167.48455122398445,r,1.0,0.5598389980150387,,,,sub-099,1.0,stroop_test,,
,,,,25.0,1.0,2.0,,,,,,,,,,,,,gelb,blue,b,0.0,b,1.0,0.5116822929994669,,,,,,,,,,2.0,1.0,25.0,9.0,167.4922872829775,,,,,,,,,,,,,,,,,167.48480531998212,167.58283059098176,168.37986466099392,168.36655667299055,,,,,,,,,,,,,,,,,,,,,,,,,,,,,,,,,,,168.37094686098862,168.37986466099392,168.37986466099392,168.89492218199302,b,1.0,0.5116822929994669,,,,sub-099,1.0,stroop_test,,
,,,,26.0,2.0,2.0,,,,,,,,,,,,,blau,red,r,0.0,r,1.0,0.4335729669837747,,,,,,,,,,2.0,2.0,26.0,4.0,168.9023853749968,,,,,,,,,,,,,,,,,168.89526857997407,168.99249098199653,169.79022394897763,169.77775808799197,,,,,,,,,,,,,,,,,,,,,,,,,,,,,,,,,,,169.782379346987,169.79022394897763,169.79022394897763,170.22670895399642,r,1.0,0.4335729669837747,,,,sub-099,1.0,stroop_test,,
,,,,27.0,3.0,2.0,,,,,,,,,,,,,rot,blue,b,0.0,b,1.0,0.4529158030054532,,,,,,,,,,2.0,3.0,27.0,2.0,170.2348176749947,,,,,,,,,,,,,,,,,170.22695323999503,171.4156979059917,172.2137148779875,172.1990595959942,,,,,,,,,,,,,,,,,,,,,,,,,,,,,,,,,,,172.20298479497433,172.2137148779875,172.2137148779875,172.6765595379984,b,1.0,0.4529158030054532,,,,sub-099,1.0,stroop_test,,
,,,,28.0,4.0,2.0,,,,,,,,,,,,,gelb,red,r,0.0,r,1.0,0.612329897005111,,,,,,,,,,2.0,4.0,28.0,8.0,172.68392376299016,,,,,,,,,,,,,,,,,172.67680080598802,173.86657843299326,174.66330755699892,174.6497086599993,,,,,,,,,,,,,,,,,,,,,,,,,,,,,,,,,,,174.65436965899426,174.66330755699892,174.66330755699892,175.27682324999478,r,1.0,0.612329897005111,,,,sub-099,1.0,stroop_test,,
,,,,29.0,5.0,2.0,,,,,,,,,,,,,rot,red,r,1.0,r,1.0,0.5300072499958333,,,,,,,,,,2.0,5.0,29.0,1.0,175.28289485699497,,,,,,,,,,,,,,,,,175.27707347099204,175.62535911099985,176.42262425497756,176.41032389499014,,,,,,,,,,,,,,,,,,,,,,,,,,,,,,,,,,,176.41461699098,176.42262425497756,176.42262425497756,176.9613901709963,r,1.0,0.5300072499958333,,,,sub-099,1.0,stroop_test,,
,,,,30.0,6.0,2.0,,,,,,,,,,,,,rot,yellow,g,0.0,g,1.0,0.2736065860080998,,,,,,,,,,2.0,6.0,30.0,3.0,176.96973289799644,,,,,,,,,,,,,,,,,176.96174508699914,177.75902019898058,178.55105684199953,178.54305878200103,,,,,,,,,,,,,,,,,,,,,,,,,,,,,,,,,,,178.54368880399852,178.55105684199953,178.55105684199953,178.82828603399685,g,1.0,0.2736065860080998,,,,sub-099,1.0,stroop_test,,
,,,,31.0,7.0,2.0,,,,,,,,,,,,,blau,blue,b,1.0,b,1.0,0.3712315029988531,,,,,,,,,,2.0,7.0,31.0,5.0,178.83705102899694,,,,,,,,,,,,,,,,,178.82868314598454,179.16720540297683,179.97151347898762,179.96030524198432,,,,,,,,,,,,,,,,,,,,,,,,,,,,,,,,,,,179.96380037500057,179.97151347898762,179.97151347898762,180.3447052919946,b,1.0,0.3712315029988531,,,,sub-099,1.0,stroop_test,,
,,,,32.0,8.0,2.0,,,,,,,,,,,,,blau,yellow,g,0.0,g,1.0,0.2808833459857851,,,,,,,,,,2.0,8.0,32.0,7.0,180.35044511099116,,,,,,,,,,,,,,,,,180.344991977996,180.69274844499887,181.49201628298036,181.48181812698024,,,,,,,,,,,,,,,,,,,,,,,,,,,,,,,,,,,181.48222696097216,181.49201628298036,181.49201628298036,181.77753171898075,g,1.0,0.2808833459857851,,,,sub-099,1.0,stroop_test,,
,,,,33.0,9.0,2.0,,,,,,,,,,,,,blau,blue,b,1.0,b,1.0,0.4129410579917021,,,,,,,,,,2.0,9.0,33.0,6.0,181.78545840698644,,,,,,,,,,,,,,,,,181.77786404499784,181.86659541499105,182.6598174709943,182.649916978,,,,,,,,,,,,,,,,,,,,,,,,,,,,,,,,,,,182.65071803098544,182.6598174709943,182.6598174709943,183.07806333899495,b,1.0,0.4129410579917021,,,,sub-099,1.0,stroop_test,,
,,,,34.0,10.0,2.0,,,,,,,,,,,,,gelb,yellow,g,1.0,g,1.0,0.448771569004748,,,,,,,,,,2.0,10.0,34.0,11.0,183.08533421799075,,,,,,,,,,,,,,,,,183.07831698298105,183.87625552999089,184.67595340599652,184.66290851897796,,,,,,,,,,,,,,,,,,,,,,,,,,,,,,,,,,,184.66726284800097,184.67595340599652,184.67595340599652,185.12666903197533,g,1.0,0.448771569004748,,,,sub-099,1.0,stroop_test,,
,,,,35.0,11.0,2.0,,,,,,,,,,,,,gelb,yellow,g,1.0,g,1.0,0.4651805610046722,,,,,,,,,,2.0,11.0,35.0,10.0,185.13243432398303,,,,,,,,,,,,,,,,,185.1269701939891,186.31707071399435,187.11841171098055,187.10989877799875,,,,,,,,,,,,,,,,,,,,,,,,,,,,,,,,,,,187.11087516599216,187.11841171098055,187.11841171098055,187.5929029239924,g,1.0,0.4651805610046722,,,,sub-099,1.0,stroop_test,,
,,,,36.0,0.0,3.0,,,,,,,,,,,,,rot,yellow,g,0.0,g,1.0,0.3693233450176194,,,,,,,,,,3.0,0.0,36.0,3.0,187.60147086999496,,,,,,,,,,,,,,,,,187.59314098299365,188.7839609219809,189.5903370739834,189.5773459219781,,,,,,,,,,,,,,,,,,,,,,,,,,,,,,,,,,,189.58188653597608,189.5903370739834,189.5903370739834,189.9675979710009,g,1.0,0.3693233450176194,,,,sub-099,1.0,stroop_test,,
,,,,37.0,1.0,3.0,,,,,,,,,,,,,gelb,blue,b,0.0,b,1.0,0.4614145869854837,,,,,,,,,,3.0,1.0,37.0,9.0,189.9781557119859,,,,,,,,,,,,,,,,,189.9681717239728,190.06579686899204,190.86428259097735,190.85077394999095,,,,,,,,,,,,,,,,,,,,,,,,,,,,,,,,,,,190.85583180797403,190.86428259097735,190.86428259097735,191.333201284986,b,1.0,0.4614145869854837,,,,sub-099,1.0,stroop_test,,
,,,,38.0,2.0,3.0,,,,,,,,,,,,,rot,red,r,1.0,r,1.0,0.397852229012642,,,,,,,,,,3.0,2.0,38.0,0.0,191.3433510850009,,,,,,,,,,,,,,,,,191.333695112,191.43232733997863,192.2299330989772,192.2164915249741,,,,,,,,,,,,,,,,,,,,,,,,,,,,,,,,,,,192.2197292719793,192.2299330989772,192.2299330989772,192.62928370997545,r,1.0,0.397852229012642,,,,sub-099,1.0,stroop_test,,
,,,,39.0,3.0,3.0,,,,,,,,,,,,,blau,red,r,0.0,r,1.0,0.6718867559975479,,,,,,,,,,3.0,3.0,39.0,4.0,192.6431489249808,,,,,,,,,,,,,,,,,192.62956325599225,192.72618861697265,193.5220275419997,193.5105054149753,,,,,,,,,,,,,,,,,,,,,,,,,,,,,,,,,,,193.51406442097505,193.5220275419997,193.5220275419997,194.19514363698545,r,1.0,0.6718867559975479,,,,sub-099,1.0,stroop_test,,
,,,,40.0,4.0,3.0,,,,,,,,,,,,,blau,blue,b,1.0,b,1.0,0.4893144319939893,,,,,,,,,,3.0,4.0,40.0,6.0,194.20071334397653,,,,,,,,,,,,,,,,,194.19539186899783,194.99179167399416,195.7874001529999,195.7775446339801,,,,,,,,,,,,,,,,,,,,,,,,,,,,,,,,,,,195.77844895599992,195.7874001529999,195.7874001529999,196.2780325099884,b,1.0,0.4893144319939893,,,,sub-099,1.0,stroop_test,,
,,,,41.0,5.0,3.0,,,,,,,,,,,,,rot,blue,b,0.0,b,1.0,0.432992194982944,,,,,,,,,,3.0,5.0,41.0,2.0,196.2838139749947,,,,,,,,,,,,,,,,,196.2782799229899,196.62696672498717,197.42698664098864,197.41524164599832,,,,,,,,,,,,,,,,,,,,,,,,,,,,,,,,,,,197.4181326479884,197.42698664098864,197.42698664098864,197.86721609998492,b,1.0,0.432992194982944,,,,sub-099,1.0,stroop_test,,
,,,,42.0,6.0,3.0,,,,,,,,,,,,,gelb,red,r,0.0,r,1.0,0.4609788660018239,,,,,,,,,,3.0,6.0,42.0,8.0,197.87673963798443,,,,,,,,,,,,,,,,,197.8674317729892,198.66567599697737,199.4726952209894,199.46036747199832,,,,,,,,,,,,,,,,,,,,,,,,,,,,,,,,,,,199.4645694759965,199.4726952209894,199.4726952209894,199.94288249898815,r,1.0,0.4609788660018239,,,,sub-099,1.0,stroop_test,,
,,,,43.0,7.0,3.0,,,,,,,,,,,,,blau,blue,b,1.0,b,1.0,0.3812469170079566,,,,,,,,,,3.0,7.0,43.0,5.0,199.950222621992,,,,,,,,,,,,,,,,,199.9431325319747,200.2830519139825,201.08047214499675,201.06765165898832,,,,,,,,,,,,,,,,,,,,,,,,,,,,,,,,,,,201.07252592098664,201.08047214499675,201.08047214499675,201.4675602419884,b,1.0,0.3812469170079566,,,,sub-099,1.0,stroop_test,,
,,,,44.0,8.0,3.0,,,,,,,,,,,,,rot,red,r,1.0,r,1.0,0.3508957100275438,,,,,,,,,,3.0,8.0,44.0,1.0,201.4775102599815,,,,,,,,,,,,,,,,,201.46795963298064,201.8158956299885,202.61379714499344,202.5995880839764,,,,,,,,,,,,,,,,,,,,,,,,,,,,,,,,,,,202.605152049975,202.61379714499344,202.61379714499344,202.96725982797216,r,1.0,0.3508957100275438,,,,sub-099,1.0,stroop_test,,
,,,,45.0,9.0,3.0,,,,,,,,,,,,,gelb,yellow,g,1.0,g,1.0,0.4432066619920078,,,,,,,,,,3.0,9.0,45.0,11.0,202.9752450959932,,,,,,,,,,,,,,,,,202.9675072469981,203.31598469699384,204.1135451659793,204.09914286798448,,,,,,,,,,,,,,,,,,,,,,,,,,,,,,,,,,,204.10389296899663,204.1135451659793,204.1135451659793,204.5599445719854,g,1.0,0.4432066619920078,,,,sub-099,1.0,stroop_test,,
,,,,46.0,10.0,3.0,,,,,,,,,,,,,gelb,yellow,g,1.0,g,1.0,0.33317730599083,,,,,,,,,,3.0,10.0,46.0,10.0,204.56878566899104,,,,,,,,,,,,,,,,,204.56023110100068,205.34962292198907,206.14286478198483,206.1326482969744,,,,,,,,,,,,,,,,,,,,,,,,,,,,,,,,,,,206.1335327779816,206.14286478198483,206.14286478198483,206.4777990669827,g,1.0,0.33317730599083,,,,sub-099,1.0,stroop_test,,
,,,,47.0,11.0,3.0,,,,,,,,,,,,,blau,yellow,g,0.0,g,1.0,0.4122858490154613,,,,,,,,,,3.0,11.0,47.0,7.0,206.48348187099327,,,,,,,,,,,,,,,,,206.47804702899884,207.27606088499303,208.07049353799084,208.05923201498808,,,,,,,,,,,,,,,,,,,,,,,,,,,,,,,,,,,208.0625452309905,208.07049353799084,208.07049353799084,208.4848995029752,g,1.0,0.4122858490154613,,,,sub-099,1.0,stroop_test,,
,,,,48.0,0.0,4.0,,,,,,,,,,,,,rot,red,r,1.0,r,1.0,0.4097440759942401,,,,,,,,,,4.0,0.0,48.0,0.0,208.4922617709963,,,,,,,,,,,,,,,,,208.4851525479753,209.28381989197808,210.091925212997,210.07803391097696,,,,,,,,,,,,,,,,,,,,,,,,,,,,,,,,,,,210.0825713709928,210.091925212997,210.091925212997,210.50962945699573,r,1.0,0.4097440759942401,,,,sub-099,1.0,stroop_test,,
,,,,49.0,1.0,4.0,,,,,,,,,,,,,blau,red,r,0.0,r,1.0,0.5558857279829681,,,,,,,,,,4.0,1.0,49.0,4.0,210.5178955309966,,,,,,,,,,,,,,,,,210.51002896999125,211.29845337299048,212.1080007609853,212.0831448599929,,,,,,,,,,,,,,,,,,,,,,,,,,,,,,,,,,,212.08544629300013,212.1080007609853,212.1080007609853,212.66732388397213,r,1.0,0.5558857279829681,,,,sub-099,1.0,stroop_test,,
,,,,50.0,2.0,4.0,,,,,,,,,,,,,blau,blue,b,1.0,g,0.0,0.34735984398867,,,,,,,,,,4.0,2.0,50.0,5.0,212.6759886009968,,,,,,,,,,,,,,,,,212.6675857839873,213.4663444489997,214.266302420001,214.25895457499428,,,,,,,,,,,,,,,,,,,,,,,,,,,,,,,,,,,214.25947407499189,214.266302420001,214.266302420001,214.6170234589954,g,0.0,0.34735984398867,,,,sub-099,1.0,stroop_test,,
,,,,51.0,3.0,4.0,,,,,,,,,,,,,gelb,blue,b,0.0,b,1.0,0.8619923979858868,,,,,,,,,,4.0,3.0,51.0,9.0,214.62517121600104,,,,,,,,,,,,,,,,,214.6172774159932,215.81677614199,216.62477381597276,216.6114974959928,,,,,,,,,,,,,,,,,,,,,,,,,,,,,,,,,,,216.6161959489982,216.62477381597276,216.62477381597276,217.49354423600016,b,1.0,0.8619923979858868,,,,sub-099,1.0,stroop_test,,
,,,,52.0,4.0,4.0,,,,,,,,,,,,,blau,blue,b,1.0,b,1.0,0.5419578529836144,,,,,,,,,,4.0,4.0,52.0,6.0,217.5009532999829,,,,,,,,,,,,,,,,,217.49377886997536,218.6827892709989,219.48287190898557,219.46759228297745,,,,,,,,,,,,,,,,,,,,,,,,,,,,,,,,,,,219.4756316179992,219.48287190898557,219.48287190898557,220.02936158099328,b,1.0,0.5419578529836144,,,,sub-099,1.0,stroop_test,,
,,,,53.0,5.0,4.0,,,,,,,,,,,,,rot,red,r,1.0,r,1.0,0.5499566219805274,,,,,,,,,,4.0,5.0,53.0,1.0,220.04172635398567,,,,,,,,,,,,,,,,,220.02971507399343,220.12562462798087,220.9227725479868,220.91063637999468,,,,,,,,,,,,,,,,,,,,,,,,,,,,,,,,,,,220.914486684982,220.9227725479868,220.9227725479868,221.476496141986,r,1.0,0.5499566219805274,,,,sub-099,1.0,stroop_test,,
,,,,54.0,6.0,4.0,,,,,,,,,,,,,gelb,yellow,g,1.0,g,1.0,0.4824909990129526,,,,,,,,,,4.0,6.0,54.0,11.0,221.48410791199424,,,,,,,,,,,,,,,,,221.47680862998823,221.5656563579978,222.3643142739893,222.35047552897595,,,,,,,,,,,,,,,,,,,,,,,,,,,,,,,,,,,222.35503090999555,222.3643142739893,222.3643142739893,222.84937545697903,g,1.0,0.4824909990129526,,,,sub-099,1.0,stroop_test,,
,,,,55.0,7.0,4.0,,,,,,,,,,,,,gelb,red,r,0.0,r,1.0,0.5627921030099969,,,,,,,,,,4.0,7.0,55.0,8.0,222.85822187300076,,,,,,,,,,,,,,,,,222.8496238559892,224.04957789898617,224.85106227299548,224.84360003398612,,,,,,,,,,,,,,,,,,,,,,,,,,,,,,,,,,,224.8442334079882,224.85106227299548,224.85106227299548,225.41710850797244,r,1.0,0.5627921030099969,,,,sub-099,1.0,stroop_test,,
,,,,56.0,8.0,4.0,,,,,,,,,,,,,rot,blue,b,0.0,b,1.0,0.4654620410001371,,,,,,,,,,4.0,8.0,56.0,2.0,225.4250150589796,,,,,,,,,,,,,,,,,225.4173634039762,225.76518294998093,226.56342855197727,226.5498820859939,,,,,,,,,,,,,,,,,,,,,,,,,,,,,,,,,,,226.55482334797853,226.56342855197727,226.56342855197727,227.0330291899736,b,1.0,0.4654620410001371,,,,sub-099,1.0,stroop_test,,
,,,,57.0,9.0,4.0,,,,,,,,,,,,,gelb,yellow,g,1.0,g,1.0,0.460218009975506,,,,,,,,,,4.0,9.0,57.0,10.0,227.0425139629806,,,,,,,,,,,,,,,,,227.03333403298168,227.1255493859935,227.92252364297747,227.9093449029897,,,,,,,,,,,,,,,,,,,,,,,,,,,,,,,,,,,227.9137945989787,227.92252364297747,227.92252364297747,228.3926234259852,g,1.0,0.460218009975506,,,,sub-099,1.0,stroop_test,,
,,,,58.0,10.0,4.0,,,,,,,,,,,,,rot,yellow,g,0.0,g,1.0,0.5468277239997406,,,,,,,,,,4.0,10.0,58.0,3.0,228.39985745897863,,,,,,,,,,,,,,,,,228.3928601379739,228.73166505797417,229.535051562998,229.5252066179819,,,,,,,,,,,,,,,,,,,,,,,,,,,,,,,,,,,229.5278724109812,229.535051562998,229.535051562998,230.0843929219991,g,1.0,0.5468277239997406,,,,sub-099,1.0,stroop_test,,
,,,,59.0,11.0,4.0,,,,,,,,,,,,,blau,yellow,g,0.0,g,1.0,0.3958792189951055,,,,,,,,,,4.0,11.0,59.0,7.0,230.09200973299448,,,,,,,,,,,,,,,,,230.0846392479725,230.88310277397977,231.68004976198424,231.66677966399584,,,,,,,,,,,,,,,,,,,,,,,,,,,,,,,,,,,231.6714733569825,231.68004976198424,231.68004976198424,232.077368208993,g,1.0,0.3958792189951055,,,,sub-099,1.0,stroop_test,,
,,,,60.0,0.0,5.0,,,,,,,,,,,,,gelb,red,r,0.0,r,1.0,0.2921627290197648,,,,,,,,,,5.0,0.0,60.0,8.0,232.0830102369946,,,,,,,,,,,,,,,,,232.0776637759991,233.27560181898295,234.07163982797647,234.05919810099292,,,,,,,,,,,,,,,,,,,,,,,,,,,,,,,,,,,234.0637396009988,234.07163982797647,234.07163982797647,234.37567177598248,r,1.0,0.2921627290197648,,,,sub-099,1.0,stroop_test,,
,,,,61.0,1.0,5.0,,,,,,,,,,,,,rot,yellow,g,0.0,g,1.0,0.3825192229996901,,,,,,,,,,5.0,1.0,61.0,3.0,234.382993340987,,,,,,,,,,,,,,,,,234.37589121598285,235.5649436999811,236.36531804897825,236.35021073799,,,,,,,,,,,,,,,,,,,,,,,,,,,,,,,,,,,236.3551240909728,236.36531804897825,236.36531804897825,236.75103816599585,g,1.0,0.3825192229996901,,,,sub-099,1.0,stroop_test,,
,,,,62.0,2.0,5.0,,,,,,,,,,,,,rot,blue,b,0.0,b,1.0,0.4469526079774368,,,,,,,,,,5.0,2.0,62.0,2.0,236.7584609339829,,,,,,,,,,,,,,,,,236.751290072978,237.9483653139905,238.74189179498356,238.73209128397863,,,,,,,,,,,,,,,,,,,,,,,,,,,,,,,,,,,238.7328366079892,238.74189179498356,238.74189179498356,239.19306163297733,b,1.0,0.4469526079774368,,,,sub-099,1.0,stroop_test,,
,,,,63.0,3.0,5.0,,,,,,,,,,,,,blau,blue,b,1.0,b,1.0,0.4340218550059944,,,,,,,,,,5.0,3.0,63.0,6.0,239.20042903799916,,,,,,,,,,,,,,,,,239.19333798598385,239.291686423996,240.0880412650004,240.0767359409947,,,,,,,,,,,,,,,,,,,,,,,,,,,,,,,,,,,240.08043489797276,240.0880412650004,240.0880412650004,240.527427160996,b,1.0,0.4340218550059944,,,,sub-099,1.0,stroop_test,,
,,,,64.0,4.0,5.0,,,,,,,,,,,,,gelb,yellow,g,1.0,g,1.0,0.5014296129811555,,,,,,,,,,5.0,4.0,64.0,10.0,240.53471318798256,,,,,,,,,,,,,,,,,240.5276798309933,241.72545105498284,242.5214128039952,242.5095337370003,,,,,,,,,,,,,,,,,,,,,,,,,,,,,,,,,,,242.51337607798632,242.5214128039952,242.5214128039952,243.02596323599573,g,1.0,0.5014296129811555,,,,sub-099,1.0,stroop_test,,
,,,,65.0,5.0,5.0,,,,,,,,,,,,,rot,red,r,1.0,r,1.0,0.474452865018975,,,,,,,,,,5.0,5.0,65.0,0.0,243.0349466269836,,,,,,,,,,,,,,,,,243.0262180499849,244.2168146939948,245.01931233197683,245.008721383987,,,,,,,,,,,,,,,,,,,,,,,,,,,,,,,,,,,245.01209827998537,245.01931233197683,245.01931233197683,245.50043308199383,r,1.0,0.474452865018975,,,,sub-099,1.0,stroop_test,,
,,,,66.0,6.0,5.0,,,,,,,,,,,,,rot,red,r,1.0,r,1.0,0.5199176240130328,,,,,,,,,,5.0,6.0,66.0,1.0,245.50998892998905,,,,,,,,,,,,,,,,,245.5006768789899,245.84812710198457,246.6430458739924,246.63218571498876,,,,,,,,,,,,,,,,,,,,,,,,,,,,,,,,,,,246.6332471719943,246.6430458739924,246.6430458739924,247.1662312959961,r,1.0,0.5199176240130328,,,,sub-099,1.0,stroop_test,,
,,,,67.0,7.0,5.0,,,,,,,,,,,,,blau,yellow,g,0.0,g,1.0,0.3335371089924592,,,,,,,,,,5.0,7.0,67.0,7.0,247.1747300119896,,,,,,,,,,,,,,,,,247.1664978779736,248.37595581199275,249.17028281500097,249.15867139599868,,,,,,,,,,,,,,,,,,,,,,,,,,,,,,,,,,,249.16236907598795,249.17028281500097,249.17028281500097,249.5090173019853,g,1.0,0.3335371089924592,,,,sub-099,1.0,stroop_test,,
,,,,68.0,8.0,5.0,,,,,,,,,,,,,gelb,blue,b,0.0,b,1.0,0.5387943020032253,,,,,,,,,,5.0,8.0,68.0,9.0,249.5169631249737,,,,,,,,,,,,,,,,,249.50931290298468,250.69926211898564,251.5069497539953,251.49354699399555,,,,,,,,,,,,,,,,,,,,,,,,,,,,,,,,,,,251.49837723298697,251.5069497539953,251.5069497539953,252.0492352079891,b,1.0,0.5387943020032253,,,,sub-099,1.0,stroop_test,,
,,,,69.0,9.0,5.0,,,,,,,,,,,,,gelb,yellow,g,1.0,g,1.0,0.4502811080019455,,,,,,,,,,5.0,9.0,69.0,11.0,252.0576313479978,,,,,,,,,,,,,,,,,252.04948515599244,252.84808267100016,253.6585286979971,253.64403059898177,,,,,,,,,,,,,,,,,,,,,,,,,,,,,,,,,,,253.64484002097743,253.6585286979971,253.6585286979971,254.11604791597347,g,1.0,0.4502811080019455,,,,sub-099,1.0,stroop_test,,
,,,,70.0,10.0,5.0,,,,,,,,,,,,,blau,blue,b,1.0,b,1.0,0.4377795530017465,,,,,,,,,,5.0,10.0,70.0,5.0,254.1251591689943,,,,,,,,,,,,,,,,,254.1162865289953,254.45842021299177,255.25811740098288,255.24536829299177,,,,,,,,,,,,,,,,,,,,,,,,,,,,,,,,,,,255.2496391829918,255.25811740098288,255.25811740098288,255.699533647974,b,1.0,0.4377795530017465,,,,sub-099,1.0,stroop_test,,
,,,,71.0,11.0,5.0,,,,,,,,,,,,,blau,red,r,0.0,r,1.0,0.5499440300045535,,,,,,,,,,5.0,11.0,71.0,4.0,255.70982238798751,,,,,,,,,,,,,,,,,255.69978651797285,255.7975101459888,256.5936117039819,256.5831289969792,,,,,,,,,,,,,,,,,,,,,,,,,,,,,,,,,,,256.58418565097963,256.5936117039819,256.5936117039819,257.15071800199803,r,1.0,0.5499440300045535,,,,sub-099,1.0,stroop_test,,
,,,,72.0,0.0,6.0,,,,,,,,,,,,,blau,blue,b,1.0,b,1.0,0.6083171619975474,,,,,,,,,,6.0,0.0,72.0,5.0,257.16085322297295,,,,,,,,,,,,,,,,,257.1509699089802,257.498027381982,258.3005812159972,258.292667695001,,,,,,,,,,,,,,,,,,,,,,,,,,,,,,,,,,,258.2933205779991,258.3005812159972,258.3005812159972,258.9102304629924,b,1.0,0.6083171619975474,,,,sub-099,1.0,stroop_test,,
,,,,73.0,1.0,6.0,,,,,,,,,,,,,gelb,yellow,g,1.0,g,1.0,0.5617323290207423,,,,,,,,,,6.0,1.0,73.0,11.0,258.9160926179902,,,,,,,,,,,,,,,,,258.9104731449916,260.0995123439934,260.90408689397736,260.89187746398966,,,,,,,,,,,,,,,,,,,,,,,,,,,,,,,,,,,260.8958712909953,260.90408689397736,260.90408689397736,261.47526709598606,g,1.0,0.5617323290207423,,,,sub-099,1.0,stroop_test,,
,,,,74.0,2.0,6.0,,,,,,,,,,,,,rot,blue,b,0.0,r,0.0,0.5796746849955525,,,,,,,,,,6.0,2.0,74.0,2.0,261.4827284559724,,,,,,,,,,,,,,,,,261.47554561597644,262.2659841919958,263.0692932729726,263.0583347469801,,,,,,,,,,,,,,,,,,,,,,,,,,,,,,,,,,,263.0615152169776,263.0692932729726,263.0692932729726,263.6592796029872,r,0.0,0.5796746849955525,,,,sub-099,1.0,stroop_test,,
,,,,75.0,3.0,6.0,,,,,,,,,,,,,gelb,blue,b,0.0,g,0.0,1.2898001089924946,,,,,,,,,,6.0,3.0,75.0,9.0,263.66800010498264,,,,,,,,,,,,,,,,,263.65951681300066,263.7491989150003,264.5531437069876,264.5419411289913,,,,,,,,,,,,,,,,,,,,,,,,,,,,,,,,,,,264.54523034897284,264.5531437069876,264.5531437069876,265.84974137099925,g,0.0,1.2898001089924946,,,,sub-099,1.0,stroop_test,,
,,,,76.0,4.0,6.0,,,,,,,,,,,,,rot,red,r,1.0,r,1.0,0.6020378679968417,,,,,,,,,,6.0,4.0,76.0,0.0,265.85964030597825,,,,,,,,,,,,,,,,,265.8499636069755,265.9494030009955,266.75303454199457,266.741886881995,,,,,,,,,,,,,,,,,,,,,,,,,,,,,,,,,,,266.7449028629926,266.75303454199457,266.75303454199457,267.36070750499493,r,1.0,0.6020378679968417,,,,sub-099,1.0,stroop_test,,
,,,,77.0,5.0,6.0,,,,,,,,,,,,,rot,red,r,1.0,r,1.0,0.5336419919913169,,,,,,,,,,6.0,5.0,77.0,1.0,267.36825651300023,,,,,,,,,,,,,,,,,267.3610418799799,268.160861381999,268.95923353297985,268.9484066659934,,,,,,,,,,,,,,,,,,,,,,,,,,,,,,,,,,,268.94945708598243,268.95923353297985,268.95923353297985,269.49946777999867,r,1.0,0.5336419919913169,,,,sub-099,1.0,stroop_test,,
,,,,78.0,6.0,6.0,,,,,,,,,,,,,blau,red,r,0.0,r,1.0,0.5080416710115969,,,,,,,,,,6.0,6.0,78.0,4.0,269.5088355289772,,,,,,,,,,,,,,,,,269.49971774299047,269.59802303198376,270.39590368198697,270.381810426974,,,,,,,,,,,,,,,,,,,,,,,,,,,,,,,,,,,270.3876122469956,270.39590368198697,270.39590368198697,270.910176690988,r,1.0,0.5080416710115969,,,,sub-099,1.0,stroop_test,,
,,,,79.0,7.0,6.0,,,,,,,,,,,,,gelb,yellow,g,1.0,g,1.0,0.4674037260119803,,,,,,,,,,6.0,7.0,79.0,10.0,270.9177964789851,,,,,,,,,,,,,,,,,270.910598743998,271.6991224519734,272.50367780099623,272.49204698597896,,,,,,,,,,,,,,,,,,,,,,,,,,,,,,,,,,,272.4958194899955,272.50367780099623,272.50367780099623,272.9759172289924,g,1.0,0.4674037260119803,,,,sub-099,1.0,stroop_test,,
,,,,80.0,8.0,6.0,,,,,,,,,,,,,blau,blue,b,1.0,b,1.0,0.3581552740070037,,,,,,,,,,6.0,8.0,80.0,6.0,272.98441798897693,,,,,,,,,,,,,,,,,272.97624474798795,273.32615099599934,274.12134063098347,274.10909649697714,,,,,,,,,,,,,,,,,,,,,,,,,,,,,,,,,,,274.11331278498983,274.12134063098347,274.12134063098347,274.48207591398386,b,1.0,0.3581552740070037,,,,sub-099,1.0,stroop_test,,
,,,,81.0,9.0,6.0,,,,,,,,,,,,,rot,yellow,g,0.0,g,1.0,0.4620451540104113,,,,,,,,,,6.0,9.0,81.0,3.0,274.49103667298914,,,,,,,,,,,,,,,,,274.4823232549825,274.8320127379848,275.65790269197896,275.6280945559847,,,,,,,,,,,,,,,,,,,,,,,,,,,,,,,,,,,275.6329813329794,275.65790269197896,275.65790269197896,276.12711716399645,g,1.0,0.4620451540104113,,,,sub-099,1.0,stroop_test,,
,,,,82.0,10.0,6.0,,,,,,,,,,,,,blau,yellow,g,0.0,g,1.0,0.565995760000078,,,,,,,,,,6.0,10.0,82.0,7.0,276.13588870698004,,,,,,,,,,,,,,,,,276.1273591479985,277.3257861179882,278.14088843599893,278.1140112139983,,,,,,,,,,,,,,,,,,,,,,,,,,,,,,,,,,,278.1174257139792,278.14088843599893,278.14088843599893,278.7088162500004,g,1.0,0.565995760000078,,,,sub-099,1.0,stroop_test,,
,,,,83.0,11.0,6.0,,,,,,,,,,,,,gelb,red,r,0.0,r,1.0,0.4433287690044381,,,,,,,,,,6.0,11.0,83.0,8.0,278.7148983079824,,,,,,,,,,,,,,,,,278.7090640059905,279.4981392719783,280.29425981399254,280.2811614579987,,,,,,,,,,,,,,,,,,,,,,,,,,,,,,,,,,,280.2855344619893,280.29425981399254,280.29425981399254,280.74218746999395,r,1.0,0.4433287690044381,,,,sub-099,1.0,stroop_test,,
,,,,84.0,0.0,7.0,,,,,,,,,,,,,gelb,blue,b,0.0,b,1.0,0.49424691699096,,,,,,,,,,7.0,0.0,84.0,9.0,280.74961323599564,,,,,,,,,,,,,,,,,280.7424911179987,280.83097080898006,281.62480672297534,281.61402538898983,,,,,,,,,,,,,,,,,,,,,,,,,,,,,,,,,,,281.6147287419881,281.62480672297534,281.62480672297534,282.12544068397256,b,1.0,0.49424691699096,,,,sub-099,1.0,stroop_test,,
,,,,85.0,1.0,7.0,,,,,,,,,,,,,blau,blue,b,1.0,b,1.0,0.3840320959861856,,,,,,,,,,7.0,1.0,85.0,5.0,282.13275350199547,,,,,,,,,,,,,,,,,282.1257364219928,283.3155153779953,284.1201471069944,284.1083228199859,,,,,,,,,,,,,,,,,,,,,,,,,,,,,,,,,,,284.112134793977,284.1201471069944,284.1201471069944,284.50878456098144,b,1.0,0.3840320959861856,,,,sub-099,1.0,stroop_test,,
,,,,86.0,2.0,7.0,,,,,,,,,,,,,blau,yellow,g,0.0,g,1.0,0.3742195969971362,,,,,,,,,,7.0,2.0,86.0,7.0,284.5161966229789,,,,,,,,,,,,,,,,,284.50908400997287,285.6990557269892,286.4919176129916,286.4819436559919,,,,,,,,,,,,,,,,,,,,,,,,,,,,,,,,,,,286.48277248899103,286.4919176129916,286.4919176129916,286.8752222589974,g,1.0,0.3742195969971362,,,,sub-099,1.0,stroop_test,,
,,,,87.0,3.0,7.0,,,,,,,,,,,,,rot,red,r,1.0,r,1.0,0.329513858014252,,,,,,,,,,7.0,3.0,87.0,1.0,286.8824301379791,,,,,,,,,,,,,,,,,286.8754723259772,288.0658172029944,288.8705720989965,288.8585202629911,,,,,,,,,,,,,,,,,,,,,,,,,,,,,,,,,,,288.8626597659895,288.8705720989965,288.8705720989965,289.20900855999207,r,1.0,0.329513858014252,,,,sub-099,1.0,stroop_test,,
,,,,88.0,4.0,7.0,,,,,,,,,,,,,rot,red,r,1.0,g,0.0,0.462535241007572,,,,,,,,,,7.0,4.0,88.0,0.0,289.21620343998075,,,,,,,,,,,,,,,,,289.20927080197725,290.39835780099384,291.1915846449847,291.18171841598814,,,,,,,,,,,,,,,,,,,,,,,,,,,,,,,,,,,291.18250932198134,291.1915846449847,291.1915846449847,291.65909963299055,g,0.0,0.462535241007572,,,,sub-099,1.0,stroop_test,,
,,,,89.0,5.0,7.0,,,,,,,,,,,,,gelb,red,r,0.0,r,1.0,0.3378982360009104,,,,,,,,,,7.0,5.0,89.0,8.0,291.667981526989,,,,,,,,,,,,,,,,,291.6594788749935,291.9985983739898,292.79826896998566,292.7906826239778,,,,,,,,,,,,,,,,,,,,,,,,,,,,,,,,,,,292.7924150279723,292.79826896998566,292.79826896998566,293.1436988589994,r,1.0,0.3378982360009104,,,,sub-099,1.0,stroop_test,,
,,,,90.0,6.0,7.0,,,,,,,,,,,,,gelb,yellow,g,1.0,g,1.0,0.4757700269983616,,,,,,,,,,7.0,6.0,90.0,10.0,293.1576221299765,,,,,,,,,,,,,,,,,293.14397454599384,293.9411825959978,294.73533545597456,294.72595439097495,,,,,,,,,,,,,,,,,,,,,,,,,,,,,,,,,,,294.72684311898774,294.73533545597456,294.73533545597456,295.21516240699566,g,1.0,0.4757700269983616,,,,sub-099,1.0,stroop_test,,
,,,,91.0,7.0,7.0,,,,,,,,,,,,,blau,red,r,0.0,r,1.0,0.3303163310047239,,,,,,,,,,7.0,7.0,91.0,4.0,295.2247581319825,,,,,,,,,,,,,,,,,295.21549882899853,295.55785091099096,296.3576947519905,296.3445957299846,,,,,,,,,,,,,,,,,,,,,,,,,,,,,,,,,,,296.34863517899066,296.3576947519905,296.3576947519905,296.6919805149955,r,1.0,0.3303163310047239,,,,sub-099,1.0,stroop_test,,
,,,,92.0,8.0,7.0,,,,,,,,,,,,,rot,yellow,g,0.0,g,1.0,0.4707263640011661,,,,,,,,,,7.0,8.0,92.0,3.0,296.6996095419745,,,,,,,,,,,,,,,,,296.6924112079723,297.8803014839941,298.67821712599834,298.6658291419735,,,,,,,,,,,,,,,,,,,,,,,,,,,,,,,,,,,298.6700564859784,298.67821712599834,298.67821712599834,299.15811396198114,g,1.0,0.4707263640011661,,,,sub-099,1.0,stroop_test,,
,,,,93.0,9.0,7.0,,,,,,,,,,,,,rot,blue,b,0.0,b,1.0,0.7528217869985383,,,,,,,,,,7.0,9.0,93.0,2.0,299.1652062559733,,,,,,,,,,,,,,,,,299.1583316139877,299.4991550720006,300.299028340989,300.2912820169877,,,,,,,,,,,,,,,,,,,,,,,,,,,,,,,,,,,300.2919281399809,300.299028340989,300.299028340989,301.05957965098787,b,1.0,0.7528217869985383,,,,sub-099,1.0,stroop_test,,
,,,,94.0,10.0,7.0,,,,,,,,,,,,,blau,blue,b,1.0,b,1.0,0.6743827740137931,,,,,,,,,,7.0,10.0,94.0,6.0,301.0690581279923,,,,,,,,,,,,,,,,,301.06006132398034,301.3985757629853,302.2076110309863,302.19424556198646,,,,,,,,,,,,,,,,,,,,,,,,,,,,,,,,,,,302.1987013839825,302.2076110309863,302.2076110309863,302.8912084100011,b,1.0,0.6743827740137931,,,,sub-099,1.0,stroop_test,,
,,,,95.0,11.0,7.0,,,,,,,,,,,,,gelb,yellow,g,1.0,g,1.0,0.4167479980096686,,,,,,,,,,7.0,11.0,95.0,11.0,302.8984749009833,,,,,,,,,,,,,,,,,302.89146081299987,303.68201510899235,304.48732433799887,304.4750355419819,,,,,,,,,,,,,,,,,,,,,,,,,,,,,,,,,,,304.47909927897854,304.48732433799887,304.48732433799887,304.9091117520002,g,1.0,0.4167479980096686,,,,sub-099,1.0,stroop_test,,
,,,,96.0,0.0,8.0,,,,,,,,,,,,,gelb,yellow,g,1.0,g,1.0,0.2979256070102565,,,,,,,,,,8.0,0.0,96.0,11.0,304.9162141229899,,,,,,,,,,,,,,,,,304.90932978497585,305.698656839988,306.4912114849721,306.4815320299822,,,,,,,,,,,,,,,,,,,,,,,,,,,,,,,,,,,306.4823321529839,306.4912114849721,306.4912114849721,306.793147356977,g,1.0,0.2979256070102565,,,,sub-099,1.0,stroop_test,,
,,,,97.0,1.0,8.0,,,,,,,,,,,,,blau,yellow,g,0.0,g,1.0,0.3518707439943682,,,,,,,,,,8.0,1.0,97.0,7.0,306.8011886149761,,,,,,,,,,,,,,,,,306.79341241400107,306.8928070969996,307.6892887739814,307.67625874999794,,,,,,,,,,,,,,,,,,,,,,,,,,,,,,,,,,,307.6807979219884,307.6892887739814,307.6892887739814,308.0484123089991,g,1.0,0.3518707439943682,,,,sub-099,1.0,stroop_test,,
,,,,98.0,2.0,8.0,,,,,,,,,,,,,blau,blue,b,1.0,b,1.0,0.3984276599949226,,,,,,,,,,8.0,2.0,98.0,6.0,308.0578561869916,,,,,,,,,,,,,,,,,308.04866372499964,309.24148380898987,310.03363787799026,310.02460959900054,,,,,,,,,,,,,,,,,,,,,,,,,,,,,,,,,,,310.0252431509725,310.03363787799026,310.03363787799026,310.4343662089959,b,1.0,0.3984276599949226,,,,sub-099,1.0,stroop_test,,
,,,,99.0,3.0,8.0,,,,,,,,,,,,,rot,red,r,1.0,r,1.0,0.4849928700132295,,,,,,,,,,8.0,3.0,99.0,1.0,310.4570920819824,,,,,,,,,,,,,,,,,310.4348851299728,311.6321372379898,312.4372925989737,312.42584278498543,,,,,,,,,,,,,,,,,,,,,,,,,,,,,,,,,,,312.4295754849736,312.4372925989737,312.4372925989737,312.9248533959908,r,1.0,0.4849928700132295,,,,sub-099,1.0,stroop_test,,
,,,,100.0,4.0,8.0,,,,,,,,,,,,,rot,yellow,g,0.0,g,1.0,0.4254063609987497,,,,,,,,,,8.0,4.0,100.0,3.0,312.93085580997285,,,,,,,,,,,,,,,,,312.9251048739825,314.1140106639941,314.9106785619806,314.89829517898033,,,,,,,,,,,,,,,,,,,,,,,,,,,,,,,,,,,314.899368710001,314.9106785619806,314.9106785619806,315.341469869978,g,1.0,0.4254063609987497,,,,sub-099,1.0,stroop_test,,
,,,,101.0,5.0,8.0,,,,,,,,,,,,,rot,blue,b,0.0,r,0.0,0.3812609880114905,,,,,,,,,,8.0,5.0,101.0,2.0,315.34901436799555,,,,,,,,,,,,,,,,,315.3418434199993,316.1302782969724,316.92480957199587,316.9143805349886,,,,,,,,,,,,,,,,,,,,,,,,,,,,,,,,,,,316.9152159410005,316.92480957199587,316.92480957199587,317.308326694998,r,0.0,0.3812609880114905,,,,sub-099,1.0,stroop_test,,
,,,,102.0,6.0,8.0,,,,,,,,,,,,,gelb,red,r,0.0,r,1.0,0.5357036570203491,,,,,,,,,,8.0,6.0,102.0,8.0,317.3138399429736,,,,,,,,,,,,,,,,,317.3085759989917,317.6482464269793,318.4432944750006,318.43116108799586,,,,,,,,,,,,,,,,,,,,,,,,,,,,,,,,,,,318.4351388219802,318.4432944750006,318.4432944750006,318.98384697397705,r,1.0,0.5357036570203491,,,,sub-099,1.0,stroop_test,,
,,,,103.0,7.0,8.0,,,,,,,,,,,,,gelb,blue,b,0.0,r,0.0,0.3591844429902266,,,,,,,,,,8.0,7.0,103.0,9.0,318.99314989399863,,,,,,,,,,,,,,,,,318.98406861297553,319.33049990798463,320.130031158973,320.1238045139762,,,,,,,,,,,,,,,,,,,,,,,,,,,,,,,,,,,320.1241040029854,320.130031158973,320.130031158973,320.49155258899555,r,0.0,0.3591844429902266,,,,sub-099,1.0,stroop_test,,
,,,,104.0,8.0,8.0,,,,,,,,,,,,,rot,red,r,1.0,r,1.0,0.4962220049928874,,,,,,,,,,8.0,8.0,104.0,0.0,320.4971472999896,,,,,,,,,,,,,,,,,320.4918029839755,321.68115257198224,322.4777046929812,322.46445851397584,,,,,,,,,,,,,,,,,,,,,,,,,,,,,,,,,,,322.467992010992,322.4777046929812,322.4777046929812,322.981825816998,r,1.0,0.4962220049928874,,,,sub-099,1.0,stroop_test,,
,,,,105.0,9.0,8.0,,,,,,,,,,,,,blau,blue,b,1.0,b,1.0,0.5212556770129595,,,,,,,,,,8.0,9.0,105.0,5.0,322.9922734699794,,,,,,,,,,,,,,,,,322.98223112599226,323.7938300789974,324.59387342398986,324.5814712589781,,,,,,,,,,,,,,,,,,,,,,,,,,,,,,,,,,,324.5857990109944,324.59387342398986,324.59387342398986,325.1241128909751,b,1.0,0.5212556770129595,,,,sub-099,1.0,stroop_test,,
,,,,106.0,10.0,8.0,,,,,,,,,,,,,blau,red,r,0.0,r,1.0,0.4015190950012766,,,,,,,,,,8.0,10.0,106.0,4.0,325.1313517379749,,,,,,,,,,,,,,,,,325.12434371199924,326.31476807798026,327.11355411898694,327.1075875759998,,,,,,,,,,,,,,,,,,,,,,,,,,,,,,,,,,,327.10787738100043,327.11355411898694,327.11355411898694,327.5241588659992,r,1.0,0.4015190950012766,,,,sub-099,1.0,stroop_test,,
,,,,107.0,11.0,8.0,,,,,,,,,,,,,gelb,yellow,g,1.0,g,1.0,0.467274669004837,,,,,,,,,,8.0,11.0,107.0,10.0,327.53174017797573,,,,,,,,,,,,,,,,,327.5243744949985,327.61367147398414,328.4125254129758,328.3990395180008,,,,,,,,,,,,,,,,,,,,,,,,,,,,,,,,,,,328.4045529659779,328.4125254129758,328.4125254129758,328.881740435987,g,1.0,0.467274669004837,,,,sub-099,1.0,stroop_test,,
,,,,108.0,0.0,9.0,,,,,,,,,,,,,gelb,blue,b,0.0,b,1.0,0.4440080490021501,,,,,,,,,,9.0,0.0,108.0,9.0,328.8901226439921,,,,,,,,,,,,,,,,,328.88198856698,329.68051106098574,330.4901904729777,330.4650730579742,,,,,,,,,,,,,,,,,,,,,,,,,,,,,,,,,,,330.4661467209808,330.4901904729777,330.4901904729777,330.9411711849971,b,1.0,0.4440080490021501,,,,sub-099,1.0,stroop_test,,
,,,,109.0,1.0,9.0,,,,,,,,,,,,,rot,blue,b,0.0,b,1.0,0.5411003570188768,,,,,,,,,,9.0,1.0,109.0,2.0,330.94853171598515,,,,,,,,,,,,,,,,,330.9413906749978,331.2803386449814,332.07408534997376,332.0633413779724,,,,,,,,,,,,,,,,,,,,,,,,,,,,,,,,,,,332.06538499798626,332.07408534997376,332.07408534997376,332.6232957849861,b,1.0,0.5411003570188768,,,,sub-099,1.0,stroop_test,,
,,,,110.0,2.0,9.0,,,,,,,,,,,,,blau,yellow,g,0.0,g,1.0,0.541624008998042,,,,,,,,,,9.0,2.0,110.0,7.0,332.6309180019889,,,,,,,,,,,,,,,,,332.62372092998703,332.7149236739788,333.51257287498447,333.4990061779972,,,,,,,,,,,,,,,,,,,,,,,,,,,,,,,,,,,333.50384983897675,333.51257287498447,333.51257287498447,334.0593175209942,g,1.0,0.541624008998042,,,,sub-099,1.0,stroop_test,,
,,,,111.0,3.0,9.0,,,,,,,,,,,,,blau,blue,b,1.0,b,1.0,0.4550549599807709,,,,,,,,,,9.0,3.0,111.0,5.0,334.06761149698286,,,,,,,,,,,,,,,,,334.0595666969893,335.2584237429837,336.0500900709885,336.0420951869746,,,,,,,,,,,,,,,,,,,,,,,,,,,,,,,,,,,336.0428636169818,336.0500900709885,336.0500900709885,336.50770624299184,b,1.0,0.4550549599807709,,,,sub-099,1.0,stroop_test,,
,,,,112.0,4.0,9.0,,,,,,,,,,,,,rot,red,r,1.0,r,1.0,0.5789082639967091,,,,,,,,,,9.0,4.0,112.0,1.0,336.51600299798883,,,,,,,,,,,,,,,,,336.50795418498456,337.2981345289736,338.09341818399844,338.0815854849934,,,,,,,,,,,,,,,,,,,,,,,,,,,,,,,,,,,338.08449055597885,338.09341818399844,338.09341818399844,338.67592077399604,r,1.0,0.5789082639967091,,,,sub-099,1.0,stroop_test,,
,,,,113.0,5.0,9.0,,,,,,,,,,,,,gelb,yellow,g,1.0,g,1.0,0.4083424360142089,,,,,,,,,,9.0,5.0,113.0,11.0,338.6847014539817,,,,,,,,,,,,,,,,,338.6763413239969,339.0238528689952,339.8197448519932,339.80771075197845,,,,,,,,,,,,,,,,,,,,,,,,,,,,,,,,,,,339.81142569499207,339.8197448519932,339.8197448519932,340.2314023329818,g,1.0,0.4083424360142089,,,,sub-099,1.0,stroop_test,,
,,,,114.0,6.0,9.0,,,,,,,,,,,,,blau,blue,b,1.0,b,1.0,0.3945631200040225,,,,,,,,,,9.0,6.0,114.0,6.0,340.23990653498913,,,,,,,,,,,,,,,,,340.2316659289936,341.43166642598226,342.2336495349882,342.2240839469887,,,,,,,,,,,,,,,,,,,,,,,,,,,,,,,,,,,342.22703938998166,342.2336495349882,342.2336495349882,342.6323950479855,b,1.0,0.3945631200040225,,,,sub-099,1.0,stroop_test,,
,,,,115.0,7.0,9.0,,,,,,,,,,,,,rot,red,r,1.0,r,1.0,0.5490697000059299,,,,,,,,,,9.0,7.0,115.0,0.0,342.64005002597696,,,,,,,,,,,,,,,,,342.63270177997765,342.9806368579739,343.7800957549771,343.76425642200047,,,,,,,,,,,,,,,,,,,,,,,,,,,,,,,,,,,343.7704310829868,343.7800957549771,343.7800957549771,344.3327389949991,r,1.0,0.5490697000059299,,,,sub-099,1.0,stroop_test,,
,,,,116.0,8.0,9.0,,,,,,,,,,,,,gelb,red,r,0.0,b,0.0,0.3538586990034673,,,,,,,,,,9.0,8.0,116.0,8.0,344.3423490479763,,,,,,,,,,,,,,,,,344.33298951698816,345.5311030179728,346.32662467099726,346.3140036900004,,,,,,,,,,,,,,,,,,,,,,,,,,,,,,,,,,,346.31832199697965,346.32662467099726,346.32662467099726,346.6906057059823,b,0.0,0.3538586990034673,,,,sub-099,1.0,stroop_test,,
,,,,117.0,9.0,9.0,,,,,,,,,,,,,rot,yellow,g,0.0,r,0.0,0.4095712079724762,,,,,,,,,,9.0,9.0,117.0,3.0,346.69852386499406,,,,,,,,,,,,,,,,,346.69087272597244,347.4810475889826,348.27670099097304,348.264966799994,,,,,,,,,,,,,,,,,,,,,,,,,,,,,,,,,,,348.2686772719899,348.27670099097304,348.27670099097304,348.69153077100054,r,0.0,0.4095712079724762,,,,sub-099,1.0,stroop_test,,
,,,,118.0,10.0,9.0,,,,,,,,,,,,,gelb,yellow,g,1.0,g,1.0,0.469862750993343,,,,,,,,,,9.0,10.0,118.0,10.0,348.6996722740005,,,,,,,,,,,,,,,,,348.69189533998724,348.7904171739938,349.587108563981,349.5753249650006,,,,,,,,,,,,,,,,,,,,,,,,,,,,,,,,,,,349.5794152809831,349.587108563981,349.587108563981,350.064776121988,g,1.0,0.469862750993343,,,,sub-099,1.0,stroop_test,,
,,,,119.0,11.0,9.0,,,,,,,,,,,,,blau,red,r,0.0,r,1.0,0.7564543960033916,,,,,,,,,,9.0,11.0,119.0,4.0,350.0723450749938,,,,,,,,,,,,,,,,,350.0650280069967,350.40670434199274,351.20075168900075,351.1905034749944,,,,,,,,,,,,,,,,,,,,,,,,,,,,,,,,,,,351.1938485899882,351.20075168900075,351.20075168900075,351.96492240097723,r,1.0,0.7564543960033916,,,,sub-099,1.0,stroop_test,,
,,,,,,,,,,,,,,,,,,,,,,,,,,,,,,,,,,,,,,,,,,,,,,,,,,,,,,,,,,,,,,,,,,,,,,,,,,,,,,,,,,,,,,,,,,,,,,,,,,,,,,351.96503914298955,351.97475803198176,sub-099,,,,
