wordCTK,colorCTK,corrAnsCTK,congruentCTK,thisN,thisTrialN,thisRepN,keyResp_CTK.keys,keyResp_CTK.corr,keyResp_CTK.rt,keyResp_CTK.duration,wordPractice,colorPractice,corrAnsPractice,congruentPractice,respPractice.keys,respPractice.corr,respPractice.rt,respPractice.duration,word,color,corrAns,congruent,keyResp_test_run.keys,keyResp_test_run.corr,keyResp_test_run.rt,keyResp_test_run.duration,trials_CTK.thisRepN,trials_CTK.thisTrialN,trials_CTK.thisN,trials_CTK.thisIndex,trials_practice.thisRepN,trials_practice.thisTrialN,trials_practice.thisN,trials_practice.thisIndex,trials_test.thisRepN,trials_test.thisTrialN,trials_test.thisN,trials_test.thisIndex,thisRow.t,notes,instruction.started,instr_text.started,instr_image.started,instr_resp.started,instruction.stopped,instr_resp.keys,instr_resp.rt,instr_resp.duration,instr_color_to_key.started,instr_ctk.started,resp_ctk.started,instr_color_to_key.stopped,resp_ctk.keys,resp_ctk.rt,resp_ctk.duration,ITI.started,fixcross.started,fixcross.stopped,ITI.stopped,color_to_key_run.started,stimulus_CTK.started,keyResp_CTK.started,color_to_key_run.stopped,trials_CTK.keyResp_CTK.keys,trials_CTK.keyResp_CTK.corr,trials_CTK.keyResp_CTK.rt,trials_CTK.keyResp_CTK.duration,instr_practice.started,instr_practice_text.started,instr_practice_resp.started,instr_practice.stopped,instr_practice_resp.keys,instr_practice_resp.rt,instr_practice_resp.duration,practice_run.started,stimulus_practice.started,respPractice.started,practice_run.stopped,trials_practice.respPractice.keys,trials_practice.respPractice.corr,trials_practice.respPractice.rt,trials_practice.respPractice.duration,feedback.started,textFeedback.started,feedback.stopped,textFeedback.stopped,instr_test.started,instr_test_text.started,instr_test_resp.started,instr_test.stopped,instr_test_resp.keys,instr_test_resp.rt,instr_test_resp.duration,test_run.started,stimulus_test_run.started,keyResp_test_run.started,test_run.stopped,trials_test.keyResp_test_run.keys,trials_test.keyResp_test_run.corr,trials_test.keyResp_test_run.rt,trials_test.keyResp_test_run.duration,goodbye.started,textGoodbye.started,textGoodbye.stopped,goodbye.stopped,participant,session,expName,frameRate,Unnamed: 113
,,,,,,,,,,,,,,,,,,,,,,,,,,,,,,,,,,,,,,,,,0.0086490409448742,0.0166462080087512,0.0166462080087512,0.0166462080087512,118.67026049993,space,118.60550954204518,,,,,,,,,,,,,,,,,,,,,,,,,,,,,,,,,,,,,,,,,,,,,,,,,,,,,,,,,,,sub-071,1,stroop_test,,
,,,,,,,,,,,,,,,,,,,,,,,,,,,,,,,,,,,,,,,,,,,,,,,,,118.67033774999436,118.69208679092117,118.69208679092117,126.10083299991676,space,7.396640542079695,,,,,,,,,,,,,,,,,,,,,,,,,,,,,,,,,,,,,,,,,,,,,,,,,,,,sub-071,1,stroop_test,,
test,yellow,g,1.0,0.0,0.0,0.0,g,1.0,1.364398167002946,,,,,,,,,,,,,,,,,,0.0,0.0,0.0,1.0,,,,,,,,,126.13472479092889,,,,,,,,,,,,,,,,,126.11907720798628,126.19835316599348,126.99656958295964,126.98222929099576,126.98897845798638,126.99656958295964,126.99656958295964,128.3668412079569,g,1.0,1.364398167002946,,,,,,,,,,,,,,,,,,,,,,,,,,,,,,,,,,,,,,,,sub-071,1,stroop_test,,
test,red,r,1.0,1.0,1.0,0.0,r,1.0,1.1720752080436796,,,,,,,,,,,,,,,,,,0.0,1.0,1.0,0.0,,,,,,,,,128.37618837493935,,,,,,,,,,,,,,,,,128.36725895793643,129.16509824991226,129.9570697909221,129.94901183294132,129.94969837495591,129.9570697909221,129.9570697909221,131.1344873328926,r,1.0,1.1720752080436796,,,,,,,,,,,,,,,,,,,,,,,,,,,,,,,,,,,,,,,,sub-071,1,stroop_test,,
test,blue,b,1.0,2.0,2.0,0.0,b,1.0,0.4761866249609738,,,,,,,,,,,,,,,,,,0.0,2.0,2.0,2.0,,,,,,,,,131.14406408299692,,,,,,,,,,,,,,,,,131.13507779093925,131.48120320797898,132.27507541596424,132.2666937909089,132.2675355829997,132.27507541596424,132.27507541596424,132.7558194999583,b,1.0,0.4761866249609738,,,,,,,,,,,,,,,,,,,,,,,,,,,,,,,,,,,,,,,,sub-071,1,stroop_test,,
test,yellow,g,1.0,3.0,0.0,1.0,g,1.0,1.7950006669852885,,,,,,,,,,,,,,,,,,1.0,0.0,3.0,1.0,,,,,,,,,132.76482754095923,,,,,,,,,,,,,,,,,132.75620991596952,133.95620449993294,134.74806016590446,134.74000729096588,134.7406839999603,134.74806016590446,134.74806016590446,136.55081754096318,g,1.0,1.7950006669852885,,,,,,,,,,,,,,,,,,,,,,,,,,,,,,,,,,,,,,,,sub-071,1,stroop_test,,
test,blue,b,1.0,4.0,1.0,1.0,b,1.0,1.6129102079430595,,,,,,,,,,,,,,,,,,1.0,1.0,4.0,2.0,,,,,,,,,136.56002879096195,,,,,,,,,,,,,,,,,136.55130354093853,136.64854258298874,137.4413316659629,137.43328362493776,137.43400374997873,137.4413316659629,137.4413316659629,139.05652608291712,b,1.0,1.6129102079430595,,,,,,,,,,,,,,,,,,,,,,,,,,,,,,,,,,,,,,,,sub-071,1,stroop_test,,
test,red,r,1.0,5.0,2.0,1.0,r,1.0,0.6948135000420734,,,,,,,,,,,,,,,,,,1.0,2.0,5.0,0.0,,,,,,,,,139.06545929098502,,,,,,,,,,,,,,,,,139.05690654099453,139.4058928329032,140.20710224995855,140.1994340409292,140.20010520797223,140.20710224995855,140.20710224995855,140.906380624976,r,1.0,0.6948135000420734,,,,,,,,,,,,,,,,,,,,,,,,,,,,,,,,,,,,,,,,sub-071,1,stroop_test,,
test,yellow,g,1.0,6.0,0.0,2.0,g,1.0,1.0206229590112343,,,,,,,,,,,,,,,,,,2.0,0.0,6.0,1.0,,,,,,,,,140.91524837492034,,,,,,,,,,,,,,,,,140.9067514159251,142.10498216596898,142.8984837079188,142.88807224994525,142.8887335829204,142.8984837079188,142.8984837079188,143.92260499997064,g,1.0,1.0206229590112343,,,,,,,,,,,,,,,,,,,,,,,,,,,,,,,,,,,,,,,,sub-071,1,stroop_test,,
test,blue,b,1.0,7.0,1.0,2.0,b,1.0,1.670634499983862,,,,,,,,,,,,,,,,,,2.0,1.0,7.0,2.0,,,,,,,,,143.93177041597664,,,,,,,,,,,,,,,,,143.92298354092054,144.7225915408926,145.52405008289497,145.51635383290704,145.51699962490238,145.52405008289497,145.52405008289497,147.20057299989276,b,1.0,1.670634499983862,,,,,,,,,,,,,,,,,,,,,,,,,,,,,,,,,,,,,,,,sub-071,1,stroop_test,,
test,red,r,1.0,8.0,2.0,2.0,r,1.0,0.9998957919888198,,,,,,,,,,,,,,,,,,2.0,2.0,8.0,0.0,,,,,,,,,147.20938208291773,,,,,,,,,,,,,,,,,147.2009421249386,147.54894129093736,148.3417238330003,148.33329374995083,148.3339433328947,148.3417238330003,148.3417238330003,149.35135820799042,r,1.0,0.9998957919888198,,,,,,,,,,,,,,,,,,,,,,,,,,,,,,,,,,,,,,,,sub-071,1,stroop_test,,
test,yellow,g,1.0,9.0,0.0,3.0,g,1.0,1.602781374938786,,,,,,,,,,,,,,,,,,3.0,0.0,9.0,1.0,,,,,,,,,149.36079262499698,,,,,,,,,,,,,,,,,149.35174433293287,150.15459187491797,150.9488511249656,150.93827458296437,150.93899083300494,150.9488511249656,150.9488511249656,152.55485374992713,g,1.0,1.602781374938786,,,,,,,,,,,,,,,,,,,,,,,,,,,,,,,,,,,,,,,,sub-071,1,stroop_test,,
test,blue,b,1.0,10.0,1.0,3.0,b,1.0,0.9836486669955776,,,,,,,,,,,,,,,,,,3.0,1.0,10.0,2.0,,,,,,,,,152.5653697499074,,,,,,,,,,,,,,,,,152.55505983298644,153.34975420800038,154.14065783296246,154.13324941589963,154.13397445797457,154.14065783296246,154.14065783296246,155.13496862491593,b,1.0,0.9836486669955776,,,,,,,,,,,,,,,,,,,,,,,,,,,,,,,,,,,,,,,,sub-071,1,stroop_test,,
test,red,r,1.0,11.0,2.0,3.0,r,1.0,0.8822700829477981,,,,,,,,,,,,,,,,,,3.0,2.0,11.0,0.0,,,,,,,,,155.14418658299837,,,,,,,,,,,,,,,,,155.13545895798595,155.48262024996802,156.27395999990404,156.26672054093797,156.26738195796497,156.27395999990404,156.27395999990404,157.1668810409028,r,1.0,0.8822700829477981,,,,,,,,,,,,,,,,,,,,,,,,,,,,,,,,,,,,,,,,sub-071,1,stroop_test,,
,,,,,,,,,,,,,,,,,,,,,,,,,,,,,,,,,,,,,,,,,,,,,,,,,,,,,,,,,,,,,,,,,,,,157.1669610409299,157.1737810409395,157.1737810409395,162.65140870795585,space,5.450390332960524,,,,,,,,,,,,,,,,,,,,,,,,,,,,,,,,,sub-071,1,stroop_test,,
,,,,0.0,0.0,0.0,,,,,rot,yellow,g,0.0,r,0.0,1.2621061659883708,,,,,,,,,,,,,,0.0,0.0,0.0,3.0,,,,,162.73067541595083,,,,,,,,,,,,,,,,,162.68412208289374,163.84981891594362,164.69541924993973,164.63377883296926,,,,,,,,,,,,,,,,164.68792462500278,164.69541924993973,164.69541924993973,165.96839316596743,r,0.0,1.2621061659883708,,165.97799458296504,165.98929087491706,166.97297804092523,,,,,,,,,,,,,,,,,,,,,sub-071,1,stroop_test,,
,,,,1.0,1.0,0.0,,,,,rot,blue,b,0.0,b,1.0,1.8094678750494493,,,,,,,,,,,,,,0.0,1.0,1.0,2.0,,,,,166.98295429092832,,,,,,,,,,,,,,,,,166.97353387495968,168.16653829091229,168.95849649992306,168.95064079097938,,,,,,,,,,,,,,,,168.95134320796933,168.95849649992306,168.95849649992306,170.77402749995235,b,1.0,1.8094678750494493,,170.77989287499804,170.79157399991527,171.78346333291847,,,,,,,,,,,,,,,,,,,,,sub-071,1,stroop_test,,
,,,,2.0,2.0,0.0,,,,,blau,blue,b,1.0,b,1.0,1.4540204169461504,,,,,,,,,,,,,,0.0,2.0,2.0,6.0,,,,,171.78825245797634,,,,,,,,,,,,,,,,,171.78375716600567,172.12496804096736,172.93132595799398,172.91783645795658,,,,,,,,,,,,,,,,172.9236412079772,172.93132595799398,172.93132595799398,174.39303495793138,b,1.0,1.4540204169461504,,174.39361929090228,174.40930291591212,175.40003595792223,,,,,,,,,,,,,,,,,,,,,sub-071,1,stroop_test,,
,,,,3.0,3.0,0.0,,,,,gelb,yellow,g,1.0,g,1.0,1.3085194999584928,,,,,,,,,,,,,,0.0,3.0,3.0,11.0,,,,,175.4052212499082,,,,,,,,,,,,,,,,,175.40048383292742,176.5903850409668,177.38761104096193,177.37480770796537,,,,,,,,,,,,,,,,177.37821979098953,177.38761104096193,177.38761104096193,178.7023339580046,g,1.0,1.3085194999584928,,178.70290754095186,178.71313858299982,179.70144333294593,179.7074806249002,,,,,,,,,,,,,,,,,,,,sub-071,1,stroop_test,,
,,,,4.0,4.0,0.0,,,,,gelb,yellow,g,1.0,g,1.0,1.0936342909699306,,,,,,,,,,,,,,0.0,4.0,4.0,10.0,,,,,179.7074806249002,,,,,,,,,,,,,,,,,179.70192774990574,179.8002519159345,180.59158520796336,180.58434354094788,,,,,,,,,,,,,,,,180.58499462495087,180.59158520796336,180.59158520796336,181.6916012079455,g,1.0,1.0936342909699306,,181.69230704091024,181.703494040994,182.69018870790023,182.700495249941,,,,,,,,,,,,,,,,,,,,sub-071,1,stroop_test,,
,,,,5.0,5.0,0.0,,,,,rot,red,r,1.0,r,1.0,1.0556756249861792,,,,,,,,,,,,,,0.0,5.0,5.0,0.0,,,,,182.700495249941,,,,,,,,,,,,,,,,,182.6906594579341,183.4889652499696,184.28356854093727,184.2728189158952,,,,,,,,,,,,,,,,184.27616899996065,184.28356854093727,184.28356854093727,185.34293608297597,r,1.0,1.0556756249861792,,185.34353516600092,185.35800633300096,186.35071958298795,,,,,,,,,,,,,,,,,,,,,sub-071,1,stroop_test,,
,,,,6.0,6.0,0.0,,,,,gelb,red,r,0.0,g,0.0,1.0175822500605136,,,,,,,,,,,,,,0.0,6.0,6.0,8.0,,,,,186.35604958294425,,,,,,,,,,,,,,,,,186.35119795799253,186.4402337499196,187.2467876659939,187.2349663329078,,,,,,,,,,,,,,,,187.2393850829685,187.2467876659939,187.2467876659939,188.2689721249044,g,0.0,1.0175822500605136,,188.27248208294623,188.28287674998865,189.2685014999006,189.27454649994613,,,,,,,,,,,,,,,,,,,,sub-071,1,stroop_test,,
,,,,7.0,7.0,0.0,,,,,rot,red,r,1.0,r,1.0,1.2978457499993965,,,,,,,,,,,,,,0.0,7.0,7.0,1.0,,,,,189.27454649994613,,,,,,,,,,,,,,,,,189.2689992079977,190.06731308298183,190.861308749998,190.8511468329234,,,,,,,,,,,,,,,,190.8549641249701,190.861308749998,190.861308749998,192.169456332922,r,1.0,1.2978457499993965,,192.17182466597296,192.1786447080085,193.1679878749419,193.17408949998207,,,,,,,,,,,,,,,,,,,,sub-071,1,stroop_test,,
,,,,8.0,8.0,0.0,,,,,blau,yellow,g,0.0,g,1.0,1.733111167093739,,,,,,,,,,,,,,0.0,8.0,8.0,7.0,,,,,193.17408949998207,,,,,,,,,,,,,,,,,193.1684397079516,193.9677196659613,194.76296295796053,194.751715832972,,,,,,,,,,,,,,,,194.7555815000087,194.76296295796053,194.76296295796053,196.50309816596564,g,1.0,1.733111167093739,,196.50367295800245,196.51432249997745,197.50213074998464,197.5083003329346,,,,,,,,,,,,,,,,,,,,sub-071,1,stroop_test,,
,,,,9.0,9.0,0.0,,,,,blau,red,r,0.0,r,1.0,2.482025749981404,,,,,,,,,,,,,,0.0,9.0,9.0,4.0,,,,,197.5083003329346,,,,,,,,,,,,,,,,,197.5026322909398,197.8509564999258,198.6441935829353,198.63603966590017,,,,,,,,,,,,,,,,198.63685879099648,198.6441935829353,198.6441935829353,201.13659341598395,r,1.0,2.482025749981404,,201.1371425410034,201.14816704089756,202.1350837079808,202.14069558295887,,,,,,,,,,,,,,,,,,,,sub-071,1,stroop_test,,
,,,,10.0,10.0,0.0,,,,,blau,blue,b,1.0,b,1.0,1.1039499170146885,,,,,,,,,,,,,,0.0,10.0,10.0,5.0,,,,,202.14069558295887,,,,,,,,,,,,,,,,,202.135526540922,203.33439799991905,204.1264602909796,204.11843045789283,,,,,,,,,,,,,,,,204.11905470793133,204.1264602909796,204.1264602909796,205.23625654098575,b,1.0,1.1039499170146885,,205.23681420797948,205.246887999936,206.23556791595183,206.2419308749959,,,,,,,,,,,,,,,,,,,,sub-071,1,stroop_test,,
,,,,11.0,11.0,0.0,,,,,gelb,blue,b,0.0,b,1.0,1.3325165830319747,,,,,,,,,,,,,,0.0,11.0,11.0,9.0,,,,,206.2419308749959,,,,,,,,,,,,,,,,,206.23608370800503,207.4346736249281,208.2299736249261,208.21867974998892,,,,,,,,,,,,,,,,208.22248462494463,208.2299736249261,208.2299736249261,209.5700782079948,b,1.0,1.3325165830319747,,209.57079791591968,209.58092741598372,210.56873045791872,210.5751372909872,,,,,,,,,,,,,,,,,,,,sub-071,1,stroop_test,,
,,,,12.0,0.0,1.0,,,,,rot,red,r,1.0,r,1.0,1.3762790830805898,,,,,,,,,,,,,,1.0,0.0,12.0,0.0,,,,,210.5751372909872,,,,,,,,,,,,,,,,,210.56918183295056,210.91814158298075,211.7129256249173,211.70232799998485,,,,,,,,,,,,,,,,211.7055272909347,211.7129256249173,211.7129256249173,213.09251137496904,r,1.0,1.3762790830805898,,213.09307470789645,213.1061603749404,214.09112766594623,214.10150070791133,,,,,,,,,,,,,,,,,,,,sub-071,1,stroop_test,,
,,,,13.0,1.0,1.0,,,,,rot,blue,b,0.0,b,1.0,1.5730363329639658,,,,,,,,,,,,,,1.0,1.0,13.0,2.0,,,,,214.10150070791133,,,,,,,,,,,,,,,,,214.091489290935,215.29076399991757,216.08474537497383,216.07427958294284,,,,,,,,,,,,,,,,216.07486749999225,216.08474537497383,216.08474537497383,217.6604781249771,b,1.0,1.5730363329639658,,217.6610888330033,217.67551641596947,218.6589526250027,218.66826895799025,,,,,,,,,,,,,,,,,,,,sub-071,1,stroop_test,,
,,,,14.0,2.0,1.0,,,,,blau,blue,b,1.0,b,1.0,0.967994667007588,,,,,,,,,,,,,,1.0,2.0,14.0,5.0,,,,,218.66826895799025,,,,,,,,,,,,,,,,,218.65939729090317,219.00830916594717,219.8021925829817,219.79184212500692,,,,,,,,,,,,,,,,219.7952172079822,219.8021925829817,219.8021925829817,220.77651420794427,b,1.0,0.967994667007588,,220.777086374932,220.789159790962,221.7745257499628,221.78507295798045,,,,,,,,,,,,,,,,,,,,sub-071,1,stroop_test,,
,,,,15.0,3.0,1.0,,,,,gelb,yellow,g,1.0,g,1.0,0.8857092090183869,,,,,,,,,,,,,,1.0,3.0,15.0,10.0,,,,,221.78507295798045,,,,,,,,,,,,,,,,,221.77496370789595,222.97480633296072,223.7725936659845,223.7581237079576,,,,,,,,,,,,,,,,223.76313058298547,223.7725936659845,223.7725936659845,224.67044124996755,g,1.0,0.8857092090183869,,224.67102995794264,224.6813529159408,225.66925937496129,225.67437458294444,,,,,,,,,,,,,,,,,,,,sub-071,1,stroop_test,,
,,,,16.0,4.0,1.0,,,,,blau,blue,b,1.0,b,1.0,1.8905499579850584,,,,,,,,,,,,,,1.0,4.0,16.0,6.0,,,,,225.67437458294444,,,,,,,,,,,,,,,,,225.66969570796937,226.4689959579846,227.26365470793095,227.25274312496185,,,,,,,,,,,,,,,,227.256503457902,227.26365470793095,227.26365470793095,229.15966183296405,b,1.0,1.8905499579850584,,229.1603674578946,229.17267674999312,230.1574204999488,230.16894424997736,,,,,,,,,,,,,,,,,,,,sub-071,1,stroop_test,,
,,,,17.0,5.0,1.0,,,,,gelb,red,r,0.0,r,1.0,1.1282999999821186,,,,,,,,,,,,,,1.0,5.0,17.0,8.0,,,,,230.16894424997736,,,,,,,,,,,,,,,,,230.1578660409432,230.2588703329675,231.06294345797505,231.0527289159363,,,,,,,,,,,,,,,,231.0557882909197,231.06294345797505,231.06294345797505,232.20441374997608,r,1.0,1.1282999999821186,,232.20504058292136,232.21545945794787,233.20300816593223,233.20807479100768,,,,,,,,,,,,,,,,,,,,sub-071,1,stroop_test,,
,,,,18.0,6.0,1.0,,,,,gelb,blue,b,0.0,b,1.0,1.393702832981944,,,,,,,,,,,,,,1.0,6.0,18.0,9.0,,,,,233.20807479100768,,,,,,,,,,,,,,,,,233.2034440409625,234.4021134159993,235.19520066597036,235.18679979094304,,,,,,,,,,,,,,,,235.1874945409363,235.19520066597036,235.19520066597036,236.59288987494077,b,1.0,1.393702832981944,,236.5934382909909,236.61909537494648,237.60301354096737,,,,,,,,,,,,,,,,,,,,,sub-071,1,stroop_test,,
,,,,19.0,7.0,1.0,,,,,rot,red,r,1.0,r,1.0,1.4307223749347031,,,,,,,,,,,,,,1.0,7.0,19.0,1.0,,,,,237.60967933293432,,,,,,,,,,,,,,,,,237.60361808293965,237.69228345796,238.49761749990284,238.4864606249612,,,,,,,,,,,,,,,,238.4901998329442,238.49761749990284,238.49761749990284,239.93755116593093,r,1.0,1.4307223749347031,,239.93824283289723,239.9489014999708,240.9365033329232,240.94192562496755,,,,,,,,,,,,,,,,,,,,sub-071,1,stroop_test,,
,,,,20.0,8.0,1.0,,,,,blau,yellow,g,0.0,b,0.0,1.1331386249512434,,,,,,,,,,,,,,1.0,8.0,20.0,7.0,,,,,240.94192562496755,,,,,,,,,,,,,,,,,240.9369667499559,242.13615462498277,242.9307882079156,242.91996266599745,,,,,,,,,,,,,,,,242.92354624997824,242.9307882079156,242.9307882079156,244.07168754097077,b,0.0,1.1331386249512434,,244.0751827500062,244.0856750829844,245.0705939999316,245.07584433292504,,,,,,,,,,,,,,,,,,,,sub-071,1,stroop_test,,
,,,,21.0,9.0,1.0,,,,,blau,red,r,0.0,r,1.0,1.2448374159866944,,,,,,,,,,,,,,1.0,9.0,21.0,4.0,,,,,245.07584433292504,,,,,,,,,,,,,,,,,245.0710687499959,245.4193532079225,246.2123158329632,246.20410329091828,,,,,,,,,,,,,,,,246.2047894159332,246.2123158329632,246.2123158329632,247.4606362079503,r,1.0,1.2448374159866944,,247.46415241598152,247.4755037910072,248.45906820800155,248.46957437496167,,,,,,,,,,,,,,,,,,,,sub-071,1,stroop_test,,
,,,,22.0,10.0,1.0,,,,,rot,yellow,g,0.0,g,1.0,1.9721538339508695,,,,,,,,,,,,,,1.0,10.0,22.0,3.0,,,,,248.46957437496167,,,,,,,,,,,,,,,,,248.45954749989323,249.25898437493012,250.0697724579368,250.0421559578972,,,,,,,,,,,,,,,,250.046753665898,250.0697724579368,250.0697724579368,252.0441230830038,g,1.0,1.9721538339508695,,252.04471374989956,252.0563280408969,253.04420345800463,253.05287824990228,,,,,,,,,,,,,,,,,,,,sub-071,1,stroop_test,,
,,,,23.0,11.0,1.0,,,,,gelb,yellow,g,1.0,g,1.0,1.2633448749547824,,,,,,,,,,,,,,1.0,11.0,23.0,11.0,,,,,253.05287824990228,,,,,,,,,,,,,,,,,253.04464291594925,254.2430397910066,255.0479800408939,255.0368355409009,,,,,,,,,,,,,,,,255.04056937491987,255.0479800408939,255.0479800408939,256.3228733749129,g,1.0,1.2633448749547824,,256.3235752499895,256.3340117499465,257.32050637493376,257.32820979098324,,,,,,,,,,,,,,,,,,,,sub-071,1,stroop_test,,
,,,,,,,,,,,,,,,,,,,,,,,,,,,,,,,,,,,,,,,,,,,,,,,,,,,,,,,,,,,,,,,,,,,,,,,,,,,,,,,,,,,,,,,257.3207208329113,257.32820979098324,257.32820979098324,263.4384850829374,space,6.104520792025141,,,,,,,,,,,,,,sub-071,1,stroop_test,,
,,,,0.0,0.0,0.0,,,,,,,,,,,,,blau,blue,b,1.0,b,1.0,1.2133934169542044,,,,,,,,,,0.0,0.0,0.0,6.0,263.4603720409796,,,,,,,,,,,,,,,,,263.4518450408941,264.63668458291795,265.4317625829717,265.4208315409487,,,,,,,,,,,,,,,,,,,,,,,,,,,,,,,,,,,265.4244139159564,265.4317625829717,265.4317625829717,266.6549036249053,b,1.0,1.2133934169542044,,,,,,sub-071,1,stroop_test,,
,,,,1.0,1.0,0.0,,,,,,,,,,,,,rot,yellow,g,0.0,g,1.0,0.9565208749845624,,,,,,,,,,0.0,1.0,1.0,3.0,266.6638869160088,,,,,,,,,,,,,,,,,266.65536233293824,266.74333445797674,267.5481730409665,267.5374284159625,,,,,,,,,,,,,,,,,,,,,,,,,,,,,,,,,,,267.54067408293486,267.5481730409665,267.5481730409665,268.51067945791874,g,1.0,0.9565208749845624,,,,,,sub-071,1,stroop_test,,
,,,,2.0,2.0,0.0,,,,,,,,,,,,,gelb,red,r,0.0,r,1.0,0.7193504999158904,,,,,,,,,,0.0,2.0,2.0,8.0,268.519889249932,,,,,,,,,,,,,,,,,268.51110754092224,269.30885724991094,270.1204470410012,270.0939588329056,,,,,,,,,,,,,,,,,,,,,,,,,,,,,,,,,,,270.09747624991,270.1204470410012,270.1204470410012,270.8444743329892,r,1.0,0.7193504999158904,,,,,,sub-071,1,stroop_test,,
,,,,3.0,3.0,0.0,,,,,,,,,,,,,gelb,yellow,g,1.0,g,1.0,1.0573770839255303,,,,,,,,,,0.0,3.0,3.0,11.0,270.8537529580062,,,,,,,,,,,,,,,,,270.8448995829094,271.19228287495207,271.9866033749422,271.9761477499269,,,,,,,,,,,,,,,,,,,,,,,,,,,,,,,,,,,271.9768157500075,271.9866033749422,271.9866033749422,273.0558023749618,g,1.0,1.0573770839255303,,,,,,sub-071,1,stroop_test,,
,,,,4.0,4.0,0.0,,,,,,,,,,,,,rot,red,r,1.0,r,1.0,1.1654520420124754,,,,,,,,,,0.0,4.0,4.0,0.0,273.06486099993344,,,,,,,,,,,,,,,,,273.0562868328998,274.2539237499004,275.0489932500059,275.0376262499485,,,,,,,,,,,,,,,,,,,,,,,,,,,,,,,,,,,275.04157949995715,275.0489932500059,275.0489932500059,276.2227622079663,r,1.0,1.1654520420124754,,,,,,sub-071,1,stroop_test,,
,,,,5.0,5.0,0.0,,,,,,,,,,,,,rot,blue,b,0.0,b,1.0,1.8437204170040784,,,,,,,,,,0.0,5.0,5.0,2.0,276.2322690829169,,,,,,,,,,,,,,,,,276.2233029579511,277.0209111659788,277.8123289999785,277.8044703329215,,,,,,,,,,,,,,,,,,,,,,,,,,,,,,,,,,,277.8051122908946,277.8123289999785,277.8123289999785,279.6604951659683,b,1.0,1.8437204170040784,,,,,,sub-071,1,stroop_test,,
,,,,6.0,6.0,0.0,,,,,,,,,,,,,blau,blue,b,1.0,b,1.0,0.942150584072806,,,,,,,,,,0.0,6.0,6.0,5.0,279.67030749993864,,,,,,,,,,,,,,,,,279.660912583,280.85388020798564,281.6490559579106,281.6381142080063,,,,,,,,,,,,,,,,,,,,,,,,,,,,,,,,,,,281.6419232079061,281.6490559579106,281.6490559579106,282.59523516590707,b,1.0,0.942150584072806,,,,,,sub-071,1,stroop_test,,
,,,,7.0,7.0,0.0,,,,,,,,,,,,,blau,yellow,g,0.0,g,1.0,1.344293083995581,,,,,,,,,,0.0,7.0,7.0,7.0,282.6207196249161,,,,,,,,,,,,,,,,,282.5958191659301,282.6928361658938,283.48729591595475,283.4764173749136,,,,,,,,,,,,,,,,,,,,,,,,,,,,,,,,,,,283.47707312495913,283.48729591595475,283.48729591595475,284.8407748329919,g,1.0,1.344293083995581,,,,,,sub-071,1,stroop_test,,
,,,,8.0,8.0,0.0,,,,,,,,,,,,,rot,red,r,1.0,r,1.0,1.1794109999900684,,,,,,,,,,0.0,8.0,8.0,1.0,284.85060570796486,,,,,,,,,,,,,,,,,284.8414059999632,285.18762083293404,285.9823510409333,285.97166024998296,,,,,,,,,,,,,,,,,,,,,,,,,,,,,,,,,,,285.97493112494703,285.9823510409333,285.9823510409333,287.1725925409701,r,1.0,1.1794109999900684,,,,,,sub-071,1,stroop_test,,
,,,,9.0,9.0,0.0,,,,,,,,,,,,,gelb,yellow,g,1.0,g,1.0,0.9487818339839578,,,,,,,,,,0.0,9.0,9.0,10.0,287.1814846659545,,,,,,,,,,,,,,,,,287.1730283329962,287.9714258329477,288.76711083296686,288.7556259579724,,,,,,,,,,,,,,,,,,,,,,,,,,,,,,,,,,,288.7597919999389,288.76711083296686,288.76711083296686,289.72320245800074,g,1.0,0.9487818339839578,,,,,,sub-071,1,stroop_test,,
,,,,10.0,10.0,0.0,,,,,,,,,,,,,blau,red,r,0.0,r,1.0,1.029030750039965,,,,,,,,,,0.0,10.0,10.0,4.0,289.73268662497867,,,,,,,,,,,,,,,,,289.7237464579521,289.82108654093463,290.61722049990203,290.60572933300864,,,,,,,,,,,,,,,,,,,,,,,,,,,,,,,,,,,290.6098805409856,290.61722049990203,290.61722049990203,291.6556969579542,r,1.0,1.029030750039965,,,,,,sub-071,1,stroop_test,,
,,,,11.0,11.0,0.0,,,,,,,,,,,,,gelb,blue,b,0.0,b,1.0,0.9542291660327464,,,,,,,,,,0.0,11.0,11.0,9.0,291.6645827909233,,,,,,,,,,,,,,,,,291.6561288749799,292.85457854089327,293.6520036249421,293.63925004098564,,,,,,,,,,,,,,,,,,,,,,,,,,,,,,,,,,,293.6444033329608,293.6520036249421,293.6520036249421,294.6121772079496,b,1.0,0.9542291660327464,,,,,,sub-071,1,stroop_test,,
,,,,12.0,0.0,1.0,,,,,,,,,,,,,blau,yellow,g,0.0,g,1.0,1.910138624953106,,,,,,,,,,1.0,0.0,12.0,7.0,294.6213948329678,,,,,,,,,,,,,,,,,294.6127090409864,294.7099763749866,295.5042987909401,295.4936482909834,,,,,,,,,,,,,,,,,,,,,,,,,,,,,,,,,,,295.49717708292883,295.5042987909401,295.5042987909401,297.42333512497135,g,1.0,1.910138624953106,,,,,,sub-071,1,stroop_test,,
,,,,13.0,1.0,1.0,,,,,,,,,,,,,gelb,blue,b,0.0,b,1.0,2.147727750008926,,,,,,,,,,1.0,1.0,13.0,9.0,297.43252174998634,,,,,,,,,,,,,,,,,297.4238782079192,298.22131366597023,299.01619324996136,299.0053065828979,,,,,,,,,,,,,,,,,,,,,,,,,,,,,,,,,,,299.00909199996386,299.01619324996136,299.01619324996136,301.1729328749934,b,1.0,2.147727750008926,,,,,,sub-071,1,stroop_test,,
,,,,14.0,2.0,1.0,,,,,,,,,,,,,blau,blue,b,1.0,b,1.0,1.2289195420453325,,,,,,,,,,1.0,2.0,14.0,5.0,301.18220166594256,,,,,,,,,,,,,,,,,301.17337029089686,301.9714130409993,302.76655087491963,302.7556548329303,,,,,,,,,,,,,,,,,,,,,,,,,,,,,,,,,,,302.7592777078971,302.76655087491963,302.76655087491963,304.0077193749603,b,1.0,1.2289195420453325,,,,,,sub-071,1,stroop_test,,
,,,,15.0,3.0,1.0,,,,,,,,,,,,,gelb,yellow,g,1.0,g,1.0,1.3667677079793066,,,,,,,,,,1.0,3.0,15.0,11.0,304.01704358297866,,,,,,,,,,,,,,,,,304.0081755409483,304.8052737909602,305.600061624893,305.58946874993853,,,,,,,,,,,,,,,,,,,,,,,,,,,,,,,,,,,305.5927818329073,305.600061624893,305.600061624893,306.97297437500674,g,1.0,1.3667677079793066,,,,,,sub-071,1,stroop_test,,
,,,,16.0,4.0,1.0,,,,,,,,,,,,,blau,red,r,0.0,r,1.0,1.8658701669191944,,,,,,,,,,1.0,4.0,16.0,4.0,306.98150499991607,,,,,,,,,,,,,,,,,306.9733734159963,308.1716295829974,308.9669769159518,308.955535957939,,,,,,,,,,,,,,,,,,,,,,,,,,,,,,,,,,,308.9593897080049,308.9669769159518,308.9669769159518,310.8403955409304,r,1.0,1.8658701669191944,,,,,,sub-071,1,stroop_test,,
,,,,17.0,5.0,1.0,,,,,,,,,,,,,gelb,yellow,g,1.0,g,1.0,1.22476341703441,,,,,,,,,,1.0,5.0,17.0,10.0,310.8498238329776,,,,,,,,,,,,,,,,,310.8409548329655,310.93823441595305,311.7328881659778,311.72240658290684,,,,,,,,,,,,,,,,,,,,,,,,,,,,,,,,,,,311.7257724159863,311.7328881659778,311.7328881659778,312.9624480409548,g,1.0,1.22476341703441,,,,,,sub-071,1,stroop_test,,
,,,,18.0,6.0,1.0,,,,,,,,,,,,,rot,blue,b,0.0,b,1.0,0.7662402919959277,,,,,,,,,,1.0,6.0,18.0,2.0,312.97142520791385,,,,,,,,,,,,,,,,,312.96287112496793,313.06353766599204,313.8676473749801,313.8557026659837,,,,,,,,,,,,,,,,,,,,,,,,,,,,,,,,,,,313.8601716659032,313.8676473749801,313.8676473749801,314.64023508294486,b,1.0,0.7662402919959277,,,,,,sub-071,1,stroop_test,,
,,,,19.0,7.0,1.0,,,,,,,,,,,,,blau,blue,b,1.0,b,1.0,1.8636245840461925,,,,,,,,,,1.0,7.0,19.0,6.0,314.6494489159668,,,,,,,,,,,,,,,,,314.6407621660037,315.8389125409303,316.6334398329491,316.6224304579664,,,,,,,,,,,,,,,,,,,,,,,,,,,,,,,,,,,316.6260664159199,316.6334398329491,316.6334398329491,318.5076704159146,b,1.0,1.8636245840461925,,,,,,sub-071,1,stroop_test,,
,,,,20.0,8.0,1.0,,,,,,,,,,,,,rot,red,r,1.0,r,1.0,1.0906859579263255,,,,,,,,,,1.0,8.0,20.0,0.0,318.51673279097304,,,,,,,,,,,,,,,,,318.5081185409799,319.70572620793246,320.5007785409689,320.48935791593976,,,,,,,,,,,,,,,,,,,,,,,,,,,,,,,,,,,320.4930999999633,320.5007785409689,320.5007785409689,321.5961139999563,r,1.0,1.0906859579263255,,,,,,sub-071,1,stroop_test,,
,,,,21.0,9.0,1.0,,,,,,,,,,,,,rot,red,r,1.0,r,1.0,0.5895325409946963,,,,,,,,,,1.0,9.0,21.0,1.0,321.6053188329097,,,,,,,,,,,,,,,,,321.5965449579526,322.7957634580089,323.5883330409415,323.57885162497405,,,,,,,,,,,,,,,,,,,,,,,,,,,,,,,,,,,323.5795059999218,323.5883330409415,323.5883330409415,324.17992124997545,r,1.0,0.5895325409946963,,,,,,sub-071,1,stroop_test,,
,,,,22.0,10.0,1.0,,,,,,,,,,,,,rot,yellow,g,0.0,g,1.0,0.9120936250546948,,,,,,,,,,1.0,10.0,22.0,3.0,324.1921609579585,,,,,,,,,,,,,,,,,324.1803715409478,324.527678915998,325.32179008296225,325.3122189579299,,,,,,,,,,,,,,,,,,,,,,,,,,,,,,,,,,,325.31286237493623,325.32179008296225,325.32179008296225,326.2409089579014,g,1.0,0.9120936250546948,,,,,,sub-071,1,stroop_test,,
,,,,23.0,11.0,1.0,,,,,,,,,,,,,gelb,red,r,0.0,r,1.0,0.7413876670179889,,,,,,,,,,1.0,11.0,23.0,8.0,326.25006537500303,,,,,,,,,,,,,,,,,326.2414419580018,327.0390666659223,327.83452391589526,327.82355720794294,,,,,,,,,,,,,,,,,,,,,,,,,,,,,,,,,,,327.8271477499511,327.83452391589526,327.83452391589526,328.5795847909758,r,1.0,0.7413876670179889,,,,,,sub-071,1,stroop_test,,
,,,,24.0,0.0,2.0,,,,,,,,,,,,,gelb,blue,b,0.0,b,1.0,1.2175800419645384,,,,,,,,,,2.0,0.0,24.0,9.0,328.5886097080074,,,,,,,,,,,,,,,,,328.580019999994,329.37948083295487,330.1804878329858,330.17306866589934,,,,,,,,,,,,,,,,,,,,,,,,,,,,,,,,,,,330.173704415909,330.1804878329858,330.1804878329858,331.4110174999805,b,1.0,1.2175800419645384,,,,,,sub-071,1,stroop_test,,
,,,,25.0,1.0,2.0,,,,,,,,,,,,,gelb,yellow,g,1.0,g,1.0,1.2657621250255031,,,,,,,,,,2.0,1.0,25.0,10.0,331.42275066592265,,,,,,,,,,,,,,,,,331.4114616659936,332.20583137497306,332.9973967910046,332.98980495799333,,,,,,,,,,,,,,,,,,,,,,,,,,,,,,,,,,,332.9904584999895,332.9973967910046,332.9973967910046,334.2747016249923,g,1.0,1.2657621250255031,,,,,,sub-071,1,stroop_test,,
,,,,26.0,2.0,2.0,,,,,,,,,,,,,gelb,yellow,g,1.0,g,1.0,1.068058874923736,,,,,,,,,,2.0,2.0,26.0,11.0,334.28401974996086,,,,,,,,,,,,,,,,,334.27524279092904,335.0730910409475,335.86512133292854,335.8571754579898,,,,,,,,,,,,,,,,,,,,,,,,,,,,,,,,,,,335.85788016591687,335.86512133292854,335.86512133292854,336.9414527500048,g,1.0,1.068058874923736,,,,,,sub-071,1,stroop_test,,
,,,,27.0,3.0,2.0,,,,,,,,,,,,,rot,red,r,1.0,r,1.0,1.2499806659761816,,,,,,,,,,2.0,3.0,27.0,0.0,336.95072129089385,,,,,,,,,,,,,,,,,336.94189033296425,337.2893904999364,338.0848740829388,338.07332583295647,,,,,,,,,,,,,,,,,,,,,,,,,,,,,,,,,,,338.0770976659842,338.0848740829388,338.0848740829388,339.34095824998803,r,1.0,1.2499806659761816,,,,,,sub-071,1,stroop_test,,
,,,,28.0,4.0,2.0,,,,,,,,,,,,,rot,blue,b,0.0,b,1.0,1.5154057920444757,,,,,,,,,,2.0,4.0,28.0,2.0,339.3500493329484,,,,,,,,,,,,,,,,,339.34139895800035,340.53967479092535,341.3309101249324,341.32362133299466,,,,,,,,,,,,,,,,,,,,,,,,,,,,,,,,,,,341.32427262491547,341.3309101249324,341.3309101249324,342.8578836249653,b,1.0,1.5154057920444757,,,,,,sub-071,1,stroop_test,,
,,,,29.0,5.0,2.0,,,,,,,,,,,,,rot,yellow,g,0.0,r,0.0,1.0598326670005918,,,,,,,,,,2.0,5.0,29.0,3.0,342.8670399999246,,,,,,,,,,,,,,,,,342.8583156249952,343.65618879091926,344.448487207992,344.4410157499369,,,,,,,,,,,,,,,,,,,,,,,,,,,,,,,,,,,344.44166783289984,344.448487207992,344.448487207992,345.51392116595525,r,0.0,1.0598326670005918,,,,,,sub-071,1,stroop_test,,
,,,,30.0,6.0,2.0,,,,,,,,,,,,,blau,blue,b,1.0,b,1.0,2.1027837080182508,,,,,,,,,,2.0,6.0,30.0,6.0,345.522804374923,,,,,,,,,,,,,,,,,345.5143500409322,345.8615226659458,346.67230420792475,346.64637662493624,,,,,,,,,,,,,,,,,,,,,,,,,,,,,,,,,,,346.65004395798314,346.67230420792475,346.67230420792475,348.7828264159616,b,1.0,2.1027837080182508,,,,,,sub-071,1,stroop_test,,
,,,,31.0,7.0,2.0,,,,,,,,,,,,,gelb,red,r,0.0,r,1.0,1.1330069159157574,,,,,,,,,,2.0,7.0,31.0,8.0,348.7935960829491,,,,,,,,,,,,,,,,,348.7834162910003,349.13019420800265,349.9341962079052,349.9236912908964,,,,,,,,,,,,,,,,,,,,,,,,,,,,,,,,,,,349.9270243329229,349.9341962079052,349.9341962079052,351.07510379096493,r,1.0,1.1330069159157574,,,,,,sub-071,1,stroop_test,,
,,,,32.0,8.0,2.0,,,,,,,,,,,,,blau,yellow,g,0.0,g,1.0,1.4338690839940682,,,,,,,,,,2.0,8.0,32.0,7.0,351.0840023329947,,,,,,,,,,,,,,,,,351.0755539999809,351.17306212498806,351.9683913749177,351.9576299999608,,,,,,,,,,,,,,,,,,,,,,,,,,,,,,,,,,,351.9610317909392,351.9683913749177,351.9683913749177,353.40803320799023,g,1.0,1.4338690839940682,,,,,,sub-071,1,stroop_test,,
,,,,33.0,9.0,2.0,,,,,,,,,,,,,blau,blue,b,1.0,b,1.0,0.6358144170371816,,,,,,,,,,2.0,9.0,33.0,5.0,353.4173264999408,,,,,,,,,,,,,,,,,353.4084654999897,353.506655999925,354.2990583749488,354.29092824994586,,,,,,,,,,,,,,,,,,,,,,,,,,,,,,,,,,,354.29169204097707,354.2990583749488,354.2990583749488,354.9415074159624,b,1.0,0.6358144170371816,,,,,,sub-071,1,stroop_test,,
,,,,34.0,10.0,2.0,,,,,,,,,,,,,blau,red,r,0.0,r,1.0,0.8296938330167904,,,,,,,,,,2.0,10.0,34.0,4.0,354.9505302499747,,,,,,,,,,,,,,,,,354.9419250829378,355.7399648749269,356.53236308298074,356.5242977909511,,,,,,,,,,,,,,,,,,,,,,,,,,,,,,,,,,,356.5250327499816,356.53236308298074,356.53236308298074,357.3666512079071,r,1.0,0.8296938330167904,,,,,,sub-071,1,stroop_test,,
,,,,35.0,11.0,2.0,,,,,,,,,,,,,rot,red,r,1.0,r,1.0,0.9068967920029536,,,,,,,,,,2.0,11.0,35.0,1.0,357.3770886659622,,,,,,,,,,,,,,,,,357.3671832079999,358.5641452079872,359.3689585409593,359.35743362491485,,,,,,,,,,,,,,,,,,,,,,,,,,,,,,,,,,,359.36095079092775,359.3689585409593,359.3689585409593,360.28101241600234,r,1.0,0.9068967920029536,,,,,,sub-071,1,stroop_test,,
,,,,36.0,0.0,3.0,,,,,,,,,,,,,rot,red,r,1.0,r,1.0,0.7215601250063628,,,,,,,,,,3.0,0.0,36.0,0.0,360.2899722079746,,,,,,,,,,,,,,,,,360.2814399579074,360.3792422499973,361.1733331659343,361.162205957924,,,,,,,,,,,,,,,,,,,,,,,,,,,,,,,,,,,361.1628647079924,361.1733331659343,361.1733331659343,361.9088879158953,r,1.0,0.7215601250063628,,,,,,sub-071,1,stroop_test,,
,,,,37.0,1.0,3.0,,,,,,,,,,,,,gelb,yellow,g,1.0,g,1.0,0.8784777079708874,,,,,,,,,,3.0,1.0,37.0,10.0,361.9178071249044,,,,,,,,,,,,,,,,,361.9093075830024,362.70713249989785,363.5016447909875,363.490888249944,,,,,,,,,,,,,,,,,,,,,,,,,,,,,,,,,,,363.4944112079684,363.5016447909875,363.5016447909875,364.395971291,g,1.0,0.8784777079708874,,,,,,sub-071,1,stroop_test,,
,,,,38.0,2.0,3.0,,,,,,,,,,,,,rot,yellow,g,0.0,g,1.0,0.4417912499047816,,,,,,,,,,3.0,2.0,38.0,3.0,364.4065654579317,,,,,,,,,,,,,,,,,364.3964094159892,365.5903187079821,366.3847738750046,366.3741468329681,,,,,,,,,,,,,,,,,,,,,,,,,,,,,,,,,,,366.377558749984,366.3847738750046,366.3847738750046,366.831321290927,g,1.0,0.4417912499047816,,,,,,sub-071,1,stroop_test,,
,,,,39.0,3.0,3.0,,,,,,,,,,,,,gelb,yellow,g,1.0,g,1.0,1.7407850000308829,,,,,,,,,,3.0,3.0,39.0,11.0,366.84028095798567,,,,,,,,,,,,,,,,,366.8317437910009,367.1796999579528,367.97409641591366,367.9627003329806,,,,,,,,,,,,,,,,,,,,,,,,,,,,,,,,,,,367.9669427908957,367.97409641591366,367.97409641591366,369.7261759999674,g,1.0,1.7407850000308829,,,,,,sub-071,1,stroop_test,,
,,,,40.0,4.0,3.0,,,,,,,,,,,,,rot,red,r,1.0,r,1.0,1.4916431659366935,,,,,,,,,,3.0,4.0,40.0,1.0,369.7358884999994,,,,,,,,,,,,,,,,,369.72683012497146,369.8238096249988,370.619188832934,370.608261999907,,,,,,,,,,,,,,,,,,,,,,,,,,,,,,,,,,,370.6118925409392,370.619188832934,370.619188832934,372.1149229159346,r,1.0,1.4916431659366935,,,,,,sub-071,1,stroop_test,,
,,,,41.0,5.0,3.0,,,,,,,,,,,,,blau,red,r,0.0,r,1.0,2.035782374907285,,,,,,,,,,3.0,5.0,41.0,4.0,372.1238808749477,,,,,,,,,,,,,,,,,372.1153490409488,372.464659833,373.2688343329355,373.257943707984,,,,,,,,,,,,,,,,,,,,,,,,,,,,,,,,,,,373.2615457909415,373.2688343329355,373.2688343329355,375.3095979579957,r,1.0,2.035782374907285,,,,,,sub-071,1,stroop_test,,
,,,,42.0,6.0,3.0,,,,,,,,,,,,,blau,blue,b,1.0,b,1.0,0.929006165941246,,,,,,,,,,3.0,6.0,42.0,5.0,375.3186663748929,,,,,,,,,,,,,,,,,375.31005174992606,376.5073847079184,377.2991041250061,377.2914814999094,,,,,,,,,,,,,,,,,,,,,,,,,,,,,,,,,,,377.2921066249255,377.2991041250061,377.2991041250061,378.232002499979,b,1.0,0.929006165941246,,,,,,sub-071,1,stroop_test,,
,,,,43.0,7.0,3.0,,,,,,,,,,,,,gelb,red,r,0.0,r,1.0,1.20172975002788,,,,,,,,,,3.0,7.0,43.0,8.0,378.24110633297823,,,,,,,,,,,,,,,,,378.2324465829879,379.42908479098696,380.2236248329282,380.2139267909806,,,,,,,,,,,,,,,,,,,,,,,,,,,,,,,,,,,380.2152279999573,380.2236248329282,380.2236248329282,381.4314350829227,r,1.0,1.20172975002788,,,,,,sub-071,1,stroop_test,,
,,,,44.0,8.0,3.0,,,,,,,,,,,,,rot,blue,b,0.0,b,1.0,0.8400829170132056,,,,,,,,,,3.0,8.0,44.0,2.0,381.4404681659071,,,,,,,,,,,,,,,,,381.43186545791104,381.77986362494994,382.5739943329245,382.5633276659064,,,,,,,,,,,,,,,,,,,,,,,,,,,,,,,,,,,382.5665596249746,382.5739943329245,382.5739943329245,383.4260653329548,b,1.0,0.8400829170132056,,,,,,sub-071,1,stroop_test,,
,,,,45.0,9.0,3.0,,,,,,,,,,,,,blau,blue,b,1.0,b,1.0,0.6686071660369635,,,,,,,,,,3.0,9.0,45.0,6.0,383.43514658289496,,,,,,,,,,,,,,,,,383.4264792499598,383.774300249992,384.5697418329073,384.5585965409409,,,,,,,,,,,,,,,,,,,,,,,,,,,,,,,,,,,384.5624032499036,384.5697418329073,384.5697418329073,385.24327812495176,b,1.0,0.6686071660369635,,,,,,sub-071,1,stroop_test,,
,,,,46.0,10.0,3.0,,,,,,,,,,,,,blau,yellow,g,0.0,g,1.0,1.2796212920220569,,,,,,,,,,3.0,10.0,46.0,7.0,385.2526864579413,,,,,,,,,,,,,,,,,385.2438331249869,386.0411399579607,386.8328067079419,386.8249977499945,,,,,,,,,,,,,,,,,,,,,,,,,,,,,,,,,,,386.825663540978,386.8328067079419,386.8328067079419,388.11518808291294,g,1.0,1.2796212920220569,,,,,,sub-071,1,stroop_test,,
,,,,47.0,11.0,3.0,,,,,,,,,,,,,gelb,blue,b,0.0,b,1.0,1.569018792011775,,,,,,,,,,3.0,11.0,47.0,9.0,388.1242132079788,,,,,,,,,,,,,,,,,388.1156230829656,388.4632859579288,389.2586247079307,389.2470364579931,,,,,,,,,,,,,,,,,,,,,,,,,,,,,,,,,,,389.2513003749773,389.2586247079307,389.2586247079307,390.8320114579983,b,1.0,1.569018792011775,,,,,,sub-071,1,stroop_test,,
,,,,48.0,0.0,4.0,,,,,,,,,,,,,rot,red,r,1.0,r,1.0,1.474311291007325,,,,,,,,,,4.0,0.0,48.0,0.0,390.8410551249981,,,,,,,,,,,,,,,,,390.8324446659535,392.0302321659401,392.8246327498928,392.8136914159404,,,,,,,,,,,,,,,,,,,,,,,,,,,,,,,,,,,392.8171496659052,392.8246327498928,392.8246327498928,394.3108880409272,r,1.0,1.474311291007325,,,,,,sub-071,1,stroop_test,,
,,,,49.0,1.0,4.0,,,,,,,,,,,,,blau,red,r,0.0,r,1.0,1.2584739169105887,,,,,,,,,,4.0,1.0,49.0,4.0,394.3200594999362,,,,,,,,,,,,,,,,,394.3114300830057,394.4074968749192,395.20264987496193,395.1918007909553,,,,,,,,,,,,,,,,,,,,,,,,,,,,,,,,,,,395.1953452079324,395.20264987496193,395.20264987496193,396.4655874579912,r,1.0,1.2584739169105887,,,,,,sub-071,1,stroop_test,,
,,,,50.0,2.0,4.0,,,,,,,,,,,,,rot,blue,b,0.0,b,1.0,2.9188666250556707,,,,,,,,,,4.0,2.0,50.0,2.0,396.4745361249661,,,,,,,,,,,,,,,,,396.4660063330084,397.2636355829891,398.0583210829645,398.0474818329094,,,,,,,,,,,,,,,,,,,,,,,,,,,,,,,,,,,398.0509558749618,398.0583210829645,398.0583210829645,400.98255316598807,b,1.0,2.9188666250556707,,,,,,sub-071,1,stroop_test,,
,,,,51.0,3.0,4.0,,,,,,,,,,,,,gelb,yellow,g,1.0,g,1.0,0.6717668330529705,,,,,,,,,,4.0,3.0,51.0,10.0,400.9914477909915,,,,,,,,,,,,,,,,,400.9829812499229,401.7806225409731,402.5791122079827,402.5658751659794,,,,,,,,,,,,,,,,,,,,,,,,,,,,,,,,,,,402.56969666597433,402.5791122079827,402.5791122079827,403.2600521659479,g,1.0,0.6717668330529705,,,,,,sub-071,1,stroop_test,,
,,,,52.0,4.0,4.0,,,,,,,,,,,,,rot,red,r,1.0,r,1.0,0.9583660840289668,,,,,,,,,,4.0,4.0,52.0,1.0,403.2691072080052,,,,,,,,,,,,,,,,,403.2604811249767,404.0583525409456,404.8527903750073,404.84214679093566,,,,,,,,,,,,,,,,,,,,,,,,,,,,,,,,,,,404.8454665408936,404.8527903750073,404.8527903750073,405.8157597079408,r,1.0,0.9583660840289668,,,,,,sub-071,1,stroop_test,,
,,,,53.0,5.0,4.0,,,,,,,,,,,,,blau,blue,b,1.0,b,1.0,0.5729382080025971,,,,,,,,,,4.0,5.0,53.0,6.0,405.82470429094974,,,,,,,,,,,,,,,,,405.8161831249017,406.15843620791566,406.95461420796346,406.9429526249878,,,,,,,,,,,,,,,,,,,,,,,,,,,,,,,,,,,406.9473233749159,406.95461420796346,406.95461420796346,407.5327160829911,b,1.0,0.5729382080025971,,,,,,sub-071,1,stroop_test,,
,,,,54.0,6.0,4.0,,,,,,,,,,,,,blau,blue,b,1.0,b,1.0,0.5928959579905495,,,,,,,,,,4.0,6.0,54.0,5.0,407.5420631249435,,,,,,,,,,,,,,,,,407.5332423329819,408.7307192079024,409.524718707893,409.5141433329554,,,,,,,,,,,,,,,,,,,,,,,,,,,,,,,,,,,409.5147745829309,409.524718707893,409.524718707893,410.1273654999677,b,1.0,0.5928959579905495,,,,,,sub-071,1,stroop_test,,
,,,,55.0,7.0,4.0,,,,,,,,,,,,,gelb,blue,b,0.0,b,1.0,2.745722083025612,,,,,,,,,,4.0,7.0,55.0,9.0,410.1370020000031,,,,,,,,,,,,,,,,,410.1278971659485,410.475636582938,411.27219729090575,411.2594851659378,,,,,,,,,,,,,,,,,,,,,,,,,,,,,,,,,,,411.2653234999161,411.27219729090575,411.27219729090575,414.0274287499488,b,1.0,2.745722083025612,,,,,,sub-071,1,stroop_test,,
,,,,56.0,8.0,4.0,,,,,,,,,,,,,gelb,red,r,0.0,r,1.0,1.3296878329711035,,,,,,,,,,4.0,8.0,56.0,8.0,414.0367931659566,,,,,,,,,,,,,,,,,414.0279527079547,414.3756102499319,415.1673812499503,415.1594434159342,,,,,,,,,,,,,,,,,,,,,,,,,,,,,,,,,,,415.1600772079546,415.1673812499503,415.1673812499503,416.5000444999896,r,1.0,1.3296878329711035,,,,,,sub-071,1,stroop_test,,
,,,,57.0,9.0,4.0,,,,,,,,,,,,,gelb,yellow,g,1.0,g,1.0,1.935836833086796,,,,,,,,,,4.0,9.0,57.0,11.0,416.5253149579512,,,,,,,,,,,,,,,,,416.5005758329062,417.29767633299343,418.0916597909527,418.0813532079337,,,,,,,,,,,,,,,,,,,,,,,,,,,,,,,,,,,418.0819985829294,418.0916597909527,418.0916597909527,420.0334603749216,g,1.0,1.935836833086796,,,,,,sub-071,1,stroop_test,,
,,,,58.0,10.0,4.0,,,,,,,,,,,,,blau,yellow,g,0.0,g,1.0,1.1422070000553504,,,,,,,,,,4.0,10.0,58.0,7.0,420.0425774999894,,,,,,,,,,,,,,,,,420.0339934999356,420.83252454095054,421.6372587078949,421.6266614999622,,,,,,,,,,,,,,,,,,,,,,,,,,,,,,,,,,,421.62996924994513,421.6372587078949,421.6372587078949,422.7846692079911,g,1.0,1.1422070000553504,,,,,,sub-071,1,stroop_test,,
,,,,59.0,11.0,4.0,,,,,,,,,,,,,rot,yellow,g,0.0,g,1.0,1.3362503750249743,,,,,,,,,,4.0,11.0,59.0,3.0,422.80897191597614,,,,,,,,,,,,,,,,,422.785087624914,423.1311148749664,423.92561645794194,423.91489749995526,,,,,,,,,,,,,,,,,,,,,,,,,,,,,,,,,,,423.9183904159581,423.92561645794194,423.92561645794194,425.2666302080033,g,1.0,1.3362503750249743,,,,,,sub-071,1,stroop_test,,
,,,,60.0,0.0,5.0,,,,,,,,,,,,,rot,blue,b,0.0,b,1.0,0.6850756660569459,,,,,,,,,,5.0,0.0,60.0,2.0,425.2759123749565,,,,,,,,,,,,,,,,,425.2671522499295,426.0645617499249,426.8590407079319,426.8480800410034,,,,,,,,,,,,,,,,,,,,,,,,,,,,,,,,,,,426.8487081249477,426.8590407079319,426.8590407079319,427.5500299578998,b,1.0,0.6850756660569459,,,,,,sub-071,1,stroop_test,,
,,,,61.0,1.0,5.0,,,,,,,,,,,,,gelb,blue,b,0.0,b,1.0,0.593523291987367,,,,,,,,,,5.0,1.0,61.0,9.0,427.5591627910035,,,,,,,,,,,,,,,,,427.5504458328942,427.6509159998968,428.4538266659947,428.443235124927,,,,,,,,,,,,,,,,,,,,,,,,,,,,,,,,,,,428.44659170799423,428.4538266659947,428.4538266659947,429.0503339159768,b,1.0,0.593523291987367,,,,,,sub-071,1,stroop_test,,
,,,,62.0,2.0,5.0,,,,,,,,,,,,,blau,blue,b,1.0,b,1.0,0.3498308749403804,,,,,,,,,,5.0,2.0,62.0,6.0,429.0594766249415,,,,,,,,,,,,,,,,,429.0508573330008,429.84863833291456,430.6545960409567,430.6435384999495,,,,,,,,,,,,,,,,,,,,,,,,,,,,,,,,,,,430.6472778749885,430.6545960409567,430.6545960409567,431.0113494578982,b,1.0,0.3498308749403804,,,,,,sub-071,1,stroop_test,,
,,,,63.0,3.0,5.0,,,,,,,,,,,,,rot,red,r,1.0,r,1.0,0.6867923749377951,,,,,,,,,,5.0,3.0,63.0,1.0,431.0203477079049,,,,,,,,,,,,,,,,,431.0117666249862,431.35964291589335,432.1542877499014,432.1433261659695,,,,,,,,,,,,,,,,,,,,,,,,,,,,,,,,,,,432.14696941594593,432.1542877499014,432.1542877499014,432.844680457958,r,1.0,0.6867923749377951,,,,,,sub-071,1,stroop_test,,
,,,,64.0,4.0,5.0,,,,,,,,,,,,,gelb,yellow,g,1.0,g,1.0,0.8083110419102013,,,,,,,,,,5.0,4.0,64.0,10.0,432.85387491597794,,,,,,,,,,,,,,,,,432.845140999998,433.64260416594334,434.437601499958,434.4264503750019,,,,,,,,,,,,,,,,,,,,,,,,,,,,,,,,,,,434.4304162909975,434.437601499958,434.437601499958,435.2501212909119,g,1.0,0.8083110419102013,,,,,,sub-071,1,stroop_test,,
,,,,65.0,5.0,5.0,,,,,,,,,,,,,rot,red,r,1.0,r,1.0,0.5929261669516563,,,,,,,,,,5.0,5.0,65.0,0.0,435.25935583293904,,,,,,,,,,,,,,,,,435.2505368749844,436.4490125409793,437.2432050409261,437.2320407909574,,,,,,,,,,,,,,,,,,,,,,,,,,,,,,,,,,,437.2360462909565,437.2432050409261,437.2432050409261,437.844861832913,r,1.0,0.5929261669516563,,,,,,sub-071,1,stroop_test,,
,,,,66.0,6.0,5.0,,,,,,,,,,,,,gelb,yellow,g,1.0,g,1.0,1.7833640419412404,,,,,,,,,,5.0,6.0,66.0,11.0,437.8539462079061,,,,,,,,,,,,,,,,,437.8453144999221,439.0432131659472,439.837563082925,439.8268532908987,,,,,,,,,,,,,,,,,,,,,,,,,,,,,,,,,,,439.8304898329079,439.837563082925,439.837563082925,441.6281678749947,g,1.0,1.7833640419412404,,,,,,sub-071,1,stroop_test,,
,,,,67.0,7.0,5.0,,,,,,,,,,,,,gelb,red,r,0.0,r,1.0,2.3494634579401463,,,,,,,,,,5.0,7.0,67.0,8.0,441.6368506659055,,,,,,,,,,,,,,,,,441.6286085409811,442.8263124579098,443.6184267909266,443.6104084999533,,,,,,,,,,,,,,,,,,,,,,,,,,,,,,,,,,,443.6110408329405,443.6184267909266,443.6184267909266,445.9786979999626,r,1.0,2.3494634579401463,,,,,,sub-071,1,stroop_test,,
,,,,68.0,8.0,5.0,,,,,,,,,,,,,blau,red,r,0.0,r,1.0,0.9578575410414488,,,,,,,,,,5.0,8.0,68.0,4.0,445.9877740829252,,,,,,,,,,,,,,,,,445.9792249579914,446.3266862909077,447.1206216249848,447.1102620830061,,,,,,,,,,,,,,,,,,,,,,,,,,,,,,,,,,,447.1135852909647,447.1206216249848,447.1206216249848,448.0842637079768,r,1.0,0.9578575410414488,,,,,,sub-071,1,stroop_test,,
,,,,69.0,9.0,5.0,,,,,,,,,,,,,blau,yellow,g,0.0,g,1.0,1.6208275420358405,,,,,,,,,,5.0,9.0,69.0,7.0,448.0933602500008,,,,,,,,,,,,,,,,,448.0846814159304,449.2830469579203,450.0761905829422,450.0667578749126,,,,,,,,,,,,,,,,,,,,,,,,,,,,,,,,,,,450.0673771660077,450.0761905829422,450.0761905829422,451.70085166592617,g,1.0,1.6208275420358405,,,,,,sub-071,1,stroop_test,,
,,,,70.0,10.0,5.0,,,,,,,,,,,,,rot,yellow,g,0.0,g,1.0,1.39273800002411,,,,,,,,,,5.0,10.0,70.0,3.0,451.7100019159261,,,,,,,,,,,,,,,,,451.7013912079856,452.4995077078929,453.30517837498337,453.2941629159032,,,,,,,,,,,,,,,,,,,,,,,,,,,,,,,,,,,453.29781662498135,453.30517837498337,453.30517837498337,454.70151645794977,g,1.0,1.39273800002411,,,,,,sub-071,1,stroop_test,,
,,,,71.0,11.0,5.0,,,,,,,,,,,,,blau,blue,b,1.0,b,1.0,1.157638999982737,,,,,,,,,,5.0,11.0,71.0,5.0,454.726932499907,,,,,,,,,,,,,,,,,454.70208141591866,454.8006203749683,455.6058568749577,455.594700540998,,,,,,,,,,,,,,,,,,,,,,,,,,,,,,,,,,,455.5986856248928,455.6058568749577,455.6058568749577,456.767813290935,b,1.0,1.157638999982737,,,,,,sub-071,1,stroop_test,,
,,,,72.0,0.0,6.0,,,,,,,,,,,,,blau,blue,b,1.0,b,1.0,0.6544038330903277,,,,,,,,,,6.0,0.0,72.0,5.0,456.7765659999568,,,,,,,,,,,,,,,,,456.76823124999646,457.11736899998505,457.9192824579077,457.91128458292224,,,,,,,,,,,,,,,,,,,,,,,,,,,,,,,,,,,457.9119518329389,457.9192824579077,457.9192824579077,458.57888649997767,b,1.0,0.6544038330903277,,,,,,sub-071,1,stroop_test,,
,,,,73.0,1.0,6.0,,,,,,,,,,,,,blau,yellow,g,0.0,g,1.0,1.1414692079415545,,,,,,,,,,6.0,1.0,73.0,7.0,458.5879990409594,,,,,,,,,,,,,,,,,458.5794128329726,458.6770729159471,459.4698681249283,459.4617287910078,,,,,,,,,,,,,,,,,,,,,,,,,,,,,,,,,,,459.4623969160021,459.4698681249283,459.4698681249283,460.6178259579465,g,1.0,1.1414692079415545,,,,,,sub-071,1,stroop_test,,
,,,,74.0,2.0,6.0,,,,,,,,,,,,,gelb,yellow,g,1.0,g,1.0,0.5357968331081793,,,,,,,,,,6.0,2.0,74.0,11.0,460.6272922079079,,,,,,,,,,,,,,,,,460.6182603329653,461.4162338749738,462.2271912499564,462.20043370791245,,,,,,,,,,,,,,,,,,,,,,,,,,,,,,,,,,,462.2044713749783,462.2271912499564,462.2271912499564,462.7680875000078,g,1.0,0.5357968331081793,,,,,,sub-071,1,stroop_test,,
,,,,75.0,3.0,6.0,,,,,,,,,,,,,gelb,yellow,g,1.0,g,1.0,0.5670154170366004,,,,,,,,,,6.0,3.0,75.0,10.0,462.77775549993385,,,,,,,,,,,,,,,,,462.7685651659267,462.86011837492697,463.65179058292415,463.6445177079877,,,,,,,,,,,,,,,,,,,,,,,,,,,,,,,,,,,463.6452514999546,463.65179058292415,463.65179058292415,464.2288336249767,g,1.0,0.5670154170366004,,,,,,sub-071,1,stroop_test,,
,,,,76.0,4.0,6.0,,,,,,,,,,,,,gelb,blue,b,0.0,b,1.0,0.9194065839983524,,,,,,,,,,6.0,4.0,76.0,9.0,464.2387533748988,,,,,,,,,,,,,,,,,464.22942150000017,464.3267328329384,465.1195215409389,465.11132979090326,,,,,,,,,,,,,,,,,,,,,,,,,,,,,,,,,,,465.11199941590894,465.1195215409389,465.1195215409389,466.0462080409052,b,1.0,0.9194065839983524,,,,,,sub-071,1,stroop_test,,
,,,,77.0,5.0,6.0,,,,,,,,,,,,,rot,yellow,g,0.0,r,0.0,0.6312132499879226,,,,,,,,,,6.0,5.0,77.0,3.0,466.0564729579492,,,,,,,,,,,,,,,,,466.0468030829216,466.14354587497655,466.9391234579962,466.9276989999926,,,,,,,,,,,,,,,,,,,,,,,,,,,,,,,,,,,466.93170945800375,466.9391234579962,466.9391234579962,467.5794012499973,r,0.0,0.6312132499879226,,,,,,sub-071,1,stroop_test,,
,,,,78.0,6.0,6.0,,,,,,,,,,,,,gelb,red,r,0.0,r,1.0,1.0973737909225747,,,,,,,,,,6.0,6.0,78.0,8.0,467.5890192079824,,,,,,,,,,,,,,,,,467.57993995794095,467.6772324159974,468.4720401659142,468.4610859999666,,,,,,,,,,,,,,,,,,,,,,,,,,,,,,,,,,,468.4649220829597,468.4720401659142,468.4720401659142,469.580863332958,r,1.0,1.0973737909225747,,,,,,sub-071,1,stroop_test,,
,,,,79.0,7.0,6.0,,,,,,,,,,,,,blau,blue,b,1.0,b,1.0,1.3448865419486538,,,,,,,,,,6.0,7.0,79.0,6.0,469.5898718329845,,,,,,,,,,,,,,,,,469.5813079999061,469.67708637495525,470.47233470797073,470.4613549999194,,,,,,,,,,,,,,,,,,,,,,,,,,,,,,,,,,,470.4653131659143,470.47233470797073,470.47233470797073,471.8291731249774,b,1.0,1.3448865419486538,,,,,,sub-071,1,stroop_test,,
,,,,80.0,8.0,6.0,,,,,,,,,,,,,rot,red,r,1.0,r,1.0,0.7957063330104575,,,,,,,,,,6.0,8.0,80.0,0.0,471.8380408749217,,,,,,,,,,,,,,,,,471.8296076249098,472.1775564999552,472.9716503329109,472.9608297499362,,,,,,,,,,,,,,,,,,,,,,,,,,,,,,,,,,,472.964329999988,472.9716503329109,472.9716503329109,473.77887762489263,r,1.0,0.7957063330104575,,,,,,sub-071,1,stroop_test,,
,,,,81.0,9.0,6.0,,,,,,,,,,,,,rot,blue,b,0.0,b,1.0,1.1466638749698177,,,,,,,,,,6.0,9.0,81.0,2.0,473.7877386249602,,,,,,,,,,,,,,,,,473.7792949579889,473.877648958005,474.6693257499719,474.6614618749591,,,,,,,,,,,,,,,,,,,,,,,,,,,,,,,,,,,474.6620873749489,474.6693257499719,474.6693257499719,475.8186694999458,b,1.0,1.1466638749698177,,,,,,sub-071,1,stroop_test,,
,,,,82.0,10.0,6.0,,,,,,,,,,,,,rot,red,r,1.0,r,1.0,0.9261449170298874,,,,,,,,,,6.0,10.0,82.0,1.0,475.8273982499959,,,,,,,,,,,,,,,,,475.8191336249001,475.9160423749127,476.7103557079099,476.70099374989513,,,,,,,,,,,,,,,,,,,,,,,,,,,,,,,,,,,476.7016492079711,476.7103557079099,476.7103557079099,477.6457490409957,r,1.0,0.9261449170298874,,,,,,sub-071,1,stroop_test,,
,,,,83.0,11.0,6.0,,,,,,,,,,,,,blau,red,r,0.0,r,1.0,1.427392875077203,,,,,,,,,,6.0,11.0,83.0,4.0,477.65469154098537,,,,,,,,,,,,,,,,,477.6461632079445,478.4442409159383,479.2411055829143,479.22899945790414,,,,,,,,,,,,,,,,,,,,,,,,,,,,,,,,,,,479.2336158329854,479.2411055829143,479.2411055829143,480.6797767909011,r,1.0,1.427392875077203,,,,,,sub-071,1,stroop_test,,
,,,,84.0,0.0,7.0,,,,,,,,,,,,,rot,blue,b,0.0,b,1.0,1.0240688329795375,,,,,,,,,,7.0,0.0,84.0,2.0,480.68911474989727,,,,,,,,,,,,,,,,,480.6803156659007,481.4775802909862,482.2738492079079,482.2618411249714,,,,,,,,,,,,,,,,,,,,,,,,,,,,,,,,,,,482.26653933292255,482.2738492079079,482.2738492079079,483.3017198329326,b,1.0,1.0240688329795375,,,,,,sub-071,1,stroop_test,,
,,,,85.0,1.0,7.0,,,,,,,,,,,,,rot,red,r,1.0,r,1.0,1.2550701659638437,,,,,,,,,,7.0,1.0,85.0,1.0,483.3108065410052,,,,,,,,,,,,,,,,,483.3021454999689,484.10064195794985,484.90252770797815,484.8951671249233,,,,,,,,,,,,,,,,,,,,,,,,,,,,,,,,,,,484.8958174579311,484.90252770797815,484.90252770797815,486.1627408328932,r,1.0,1.2550701659638437,,,,,,sub-071,1,stroop_test,,
,,,,86.0,2.0,7.0,,,,,,,,,,,,,gelb,yellow,g,1.0,g,1.0,0.8338905409909785,,,,,,,,,,7.0,2.0,86.0,10.0,486.1717093329644,,,,,,,,,,,,,,,,,486.1631667909678,487.3612444999162,488.15603304095566,488.1451278749155,,,,,,,,,,,,,,,,,,,,,,,,,,,,,,,,,,,488.1489260409726,488.15603304095566,488.15603304095566,488.99639862496406,g,1.0,0.8338905409909785,,,,,,sub-071,1,stroop_test,,
,,,,87.0,3.0,7.0,,,,,,,,,,,,,gelb,yellow,g,1.0,g,1.0,0.5000090419780463,,,,,,,,,,7.0,3.0,87.0,11.0,489.0053107499844,,,,,,,,,,,,,,,,,488.9968374159653,489.7948783749016,490.5862607079325,490.5786275409628,,,,,,,,,,,,,,,,,,,,,,,,,,,,,,,,,,,490.57926108292304,490.5862607079325,490.5862607079325,491.0966537499335,g,1.0,0.5000090419780463,,,,,,sub-071,1,stroop_test,,
,,,,88.0,4.0,7.0,,,,,,,,,,,,,blau,red,r,0.0,r,1.0,1.1567090000025928,,,,,,,,,,7.0,4.0,88.0,4.0,491.1059384999098,,,,,,,,,,,,,,,,,491.0970788329141,491.1944886249257,491.98947204090655,491.9786126249237,,,,,,,,,,,,,,,,,,,,,,,,,,,,,,,,,,,491.9820867079543,491.98947204090655,491.98947204090655,493.1516704579117,r,1.0,1.1567090000025928,,,,,,sub-071,1,stroop_test,,
,,,,89.0,5.0,7.0,,,,,,,,,,,,,gelb,blue,b,0.0,b,1.0,1.2250977089861408,,,,,,,,,,7.0,5.0,89.0,9.0,493.1607346659293,,,,,,,,,,,,,,,,,493.1520907909144,493.5003985000076,494.29430700000376,494.2839234159328,,,,,,,,,,,,,,,,,,,,,,,,,,,,,,,,,,,494.2871566659305,494.29430700000376,494.29430700000376,495.53033599990886,b,1.0,1.2250977089861408,,,,,,sub-071,1,stroop_test,,
,,,,90.0,6.0,7.0,,,,,,,,,,,,,gelb,red,r,0.0,r,1.0,1.4785073330858722,,,,,,,,,,7.0,6.0,90.0,8.0,495.53966437489726,,,,,,,,,,,,,,,,,495.5308685409837,496.32828620797954,497.11947333300486,497.1120644159382,,,,,,,,,,,,,,,,,,,,,,,,,,,,,,,,,,,497.1126909159357,497.11947333300486,497.11947333300486,498.6020683749812,r,1.0,1.4785073330858722,,,,,,sub-071,1,stroop_test,,
,,,,91.0,7.0,7.0,,,,,,,,,,,,,rot,yellow,g,0.0,g,1.0,1.3188230829546228,,,,,,,,,,7.0,7.0,91.0,3.0,498.61100999999326,,,,,,,,,,,,,,,,,498.60247899999376,499.4009768329561,500.1955797499977,500.1842804159969,,,,,,,,,,,,,,,,,,,,,,,,,,,,,,,,,,,500.1881769159809,500.1955797499977,500.1955797499977,501.5191447079415,g,1.0,1.3188230829546228,,,,,,sub-071,1,stroop_test,,
,,,,92.0,8.0,7.0,,,,,,,,,,,,,blau,blue,b,1.0,b,1.0,0.6918252080213279,,,,,,,,,,7.0,8.0,92.0,5.0,501.5280559159583,,,,,,,,,,,,,,,,,501.51956549996976,502.3173880409449,503.1112965409411,503.10102266597096,,,,,,,,,,,,,,,,,,,,,,,,,,,,,,,,,,,503.1040294159902,503.1112965409411,503.1112965409411,503.81435170792975,b,1.0,0.6918252080213279,,,,,,sub-071,1,stroop_test,,
,,,,93.0,9.0,7.0,,,,,,,,,,,,,blau,blue,b,1.0,b,1.0,0.9611238749930636,,,,,,,,,,7.0,9.0,93.0,6.0,503.8238521249732,,,,,,,,,,,,,,,,,503.8149017499527,504.61169179098215,505.4028301659273,505.39564466592856,,,,,,,,,,,,,,,,,,,,,,,,,,,,,,,,,,,505.3961584579665,505.4028301659273,505.4028301659273,506.36907891591545,b,1.0,0.9611238749930636,,,,,,sub-071,1,stroop_test,,
,,,,94.0,10.0,7.0,,,,,,,,,,,,,blau,yellow,g,0.0,g,1.0,1.103083375026472,,,,,,,,,,7.0,10.0,94.0,7.0,506.3780190829421,,,,,,,,,,,,,,,,,506.3694964579772,507.1666735409526,507.9615110409213,507.95107862493023,,,,,,,,,,,,,,,,,,,,,,,,,,,,,,,,,,,507.9516969579272,507.9615110409213,507.9615110409213,509.06924274994526,g,1.0,1.103083375026472,,,,,,sub-071,1,stroop_test,,
,,,,95.0,11.0,7.0,,,,,,,,,,,,,rot,red,r,1.0,r,1.0,0.5463658340740949,,,,,,,,,,7.0,11.0,95.0,0.0,509.0783891249448,,,,,,,,,,,,,,,,,509.069660665933,509.41842837492,510.2287652079249,510.2017464999808,,,,,,,,,,,,,,,,,,,,,,,,,,,,,,,,,,,510.2058492499637,510.2287652079249,510.2287652079249,510.7801849578973,r,1.0,0.5463658340740949,,,,,,sub-071,1,stroop_test,,
,,,,96.0,0.0,8.0,,,,,,,,,,,,,gelb,yellow,g,1.0,g,1.0,1.2447663749335334,,,,,,,,,,8.0,0.0,96.0,10.0,510.7890611249022,,,,,,,,,,,,,,,,,510.7806078749709,511.12884041597135,511.9239360409556,511.91267833299935,,,,,,,,,,,,,,,,,,,,,,,,,,,,,,,,,,,511.9164721249836,511.9239360409556,511.9239360409556,513.1809068329167,g,1.0,1.2447663749335334,,,,,,sub-071,1,stroop_test,,
,,,,97.0,1.0,8.0,,,,,,,,,,,,,gelb,blue,b,0.0,b,1.0,0.3972273750696331,,,,,,,,,,8.0,1.0,97.0,9.0,513.190259915893,,,,,,,,,,,,,,,,,513.1814309579786,513.9787425409304,514.7713381249923,514.7631320829969,,,,,,,,,,,,,,,,,,,,,,,,,,,,,,,,,,,514.7637656249572,514.7713381249923,514.7713381249923,515.1804379579844,b,1.0,0.3972273750696331,,,,,,sub-071,1,stroop_test,,
,,,,98.0,2.0,8.0,,,,,,,,,,,,,rot,red,r,1.0,r,1.0,1.7838438340695577,,,,,,,,,,8.0,2.0,98.0,0.0,515.1894748329651,,,,,,,,,,,,,,,,,515.1808569160057,516.3790529159596,517.1732622080017,517.1627184579847,,,,,,,,,,,,,,,,,,,,,,,,,,,,,,,,,,,517.1660557909636,517.1732622080017,517.1732622080017,518.9641956249252,r,1.0,1.7838438340695577,,,,,,sub-071,1,stroop_test,,
,,,,99.0,3.0,8.0,,,,,,,,,,,,,gelb,red,r,0.0,r,1.0,1.1589386669220405,,,,,,,,,,8.0,3.0,99.0,8.0,518.9735454999609,,,,,,,,,,,,,,,,,518.9647272079019,520.1622881249059,520.957236749935,520.9462373330025,,,,,,,,,,,,,,,,,,,,,,,,,,,,,,,,,,,520.9500066658948,520.957236749935,520.957236749935,522.1201817078982,r,1.0,1.1589386669220405,,,,,,sub-071,1,stroop_test,,
,,,,100.0,4.0,8.0,,,,,,,,,,,,,gelb,yellow,g,1.0,g,1.0,1.2748679999494923,,,,,,,,,,8.0,4.0,100.0,11.0,522.1295094159432,,,,,,,,,,,,,,,,,522.1207398748957,522.4685761249857,523.2619543749606,523.2517111659981,,,,,,,,,,,,,,,,,,,,,,,,,,,,,,,,,,,523.2523646659683,523.2619543749606,523.2619543749606,524.5478497080039,g,1.0,1.2748679999494923,,,,,,sub-071,1,stroop_test,,
,,,,101.0,5.0,8.0,,,,,,,,,,,,,blau,blue,b,1.0,b,1.0,0.689380667055957,,,,,,,,,,8.0,5.0,101.0,6.0,524.557013707934,,,,,,,,,,,,,,,,,524.5482889999403,525.3457723750034,526.1417709579691,526.1303870829288,,,,,,,,,,,,,,,,,,,,,,,,,,,,,,,,,,,526.1346074579051,526.1417709579691,526.1417709579691,526.8369365409017,b,1.0,0.689380667055957,,,,,,sub-071,1,stroop_test,,
,,,,102.0,6.0,8.0,,,,,,,,,,,,,rot,blue,b,0.0,r,0.0,1.1360065420158207,,,,,,,,,,8.0,6.0,102.0,2.0,526.8460112079047,,,,,,,,,,,,,,,,,526.8374709999189,528.0347823749762,528.8287134160055,528.8181386250071,,,,,,,,,,,,,,,,,,,,,,,,,,,,,,,,,,,528.8213514579693,528.8287134160055,528.8287134160055,529.9718628328992,r,0.0,1.1360065420158207,,,,,,sub-071,1,stroop_test,,
,,,,103.0,7.0,8.0,,,,,,,,,,,,,blau,red,r,0.0,r,1.0,1.1919166250154376,,,,,,,,,,8.0,7.0,103.0,4.0,529.9826102500083,,,,,,,,,,,,,,,,,529.9724135409342,530.7689394579502,531.5751769579947,531.5633645829512,,,,,,,,,,,,,,,,,,,,,,,,,,,,,,,,,,,531.5679202500032,531.5751769579947,531.5751769579947,532.7700707080076,r,1.0,1.1919166250154376,,,,,,sub-071,1,stroop_test,,
,,,,104.0,8.0,8.0,,,,,,,,,,,,,blau,blue,b,1.0,b,1.0,1.577774958102964,,,,,,,,,,8.0,8.0,104.0,5.0,532.7792976659257,,,,,,,,,,,,,,,,,532.7704931659391,533.9693613329437,534.7623014159035,534.7523734580027,,,,,,,,,,,,,,,,,,,,,,,,,,,,,,,,,,,534.7530236250022,534.7623014159035,534.7623014159035,536.3484290409833,b,1.0,1.577774958102964,,,,,,sub-071,1,stroop_test,,
,,,,105.0,9.0,8.0,,,,,,,,,,,,,rot,red,r,1.0,r,1.0,0.9141171670053154,,,,,,,,,,8.0,9.0,105.0,1.0,536.3578419579426,,,,,,,,,,,,,,,,,536.3489567500073,537.5464257909916,538.3420751659432,538.3304468329297,,,,,,,,,,,,,,,,,,,,,,,,,,,,,,,,,,,538.3347075409256,538.3420751659432,538.3420751659432,539.2650270829909,r,1.0,0.9141171670053154,,,,,,sub-071,1,stroop_test,,
,,,,106.0,10.0,8.0,,,,,,,,,,,,,blau,yellow,g,0.0,g,1.0,1.0239724580897018,,,,,,,,,,8.0,10.0,106.0,7.0,539.2740716249682,,,,,,,,,,,,,,,,,539.2654570409795,540.0634345829021,540.8574787909165,540.8468632079894,,,,,,,,,,,,,,,,,,,,,,,,,,,,,,,,,,,540.8503617079696,540.8574787909165,540.8574787909165,541.8869136659196,g,1.0,1.0239724580897018,,,,,,sub-071,1,stroop_test,,
,,,,107.0,11.0,8.0,,,,,,,,,,,,,rot,yellow,g,0.0,g,1.0,1.8737385410349816,,,,,,,,,,8.0,11.0,107.0,3.0,541.8958938329015,,,,,,,,,,,,,,,,,541.8873255829094,542.230199207901,543.0244902909035,543.0137527909828,,,,,,,,,,,,,,,,,,,,,,,,,,,,,,,,,,,543.0173174999654,543.0244902909035,543.0244902909035,544.9032784159062,g,1.0,1.8737385410349816,,,,,,sub-071,1,stroop_test,,
,,,,108.0,0.0,9.0,,,,,,,,,,,,,blau,blue,b,1.0,b,1.0,0.9839634579839184,,,,,,,,,,9.0,0.0,108.0,6.0,544.9124148749979,,,,,,,,,,,,,,,,,544.903696666006,545.7029803749174,546.5079631659901,546.4971770409029,,,,,,,,,,,,,,,,,,,,,,,,,,,,,,,,,,,546.5008775829338,546.5079631659901,546.5079631659901,547.4985179579817,b,1.0,0.9839634579839184,,,,,,sub-071,1,stroop_test,,
,,,,109.0,1.0,9.0,,,,,,,,,,,,,gelb,red,r,0.0,r,1.0,0.7283268340397626,,,,,,,,,,9.0,1.0,109.0,8.0,547.5076307499548,,,,,,,,,,,,,,,,,547.4989453329472,548.6965592500055,549.4912995409686,549.4804051249521,,,,,,,,,,,,,,,,,,,,,,,,,,,,,,,,,,,549.4839951659087,549.4912995409686,549.4912995409686,550.2343373330077,r,1.0,0.7283268340397626,,,,,,sub-071,1,stroop_test,,
,,,,110.0,2.0,9.0,,,,,,,,,,,,,gelb,yellow,g,1.0,g,1.0,0.7602428750833496,,,,,,,,,,9.0,2.0,110.0,10.0,550.2467371659586,,,,,,,,,,,,,,,,,550.2347429159563,550.3301466249395,551.1220205829013,551.1140077909222,,,,,,,,,,,,,,,,,,,,,,,,,,,,,,,,,,,551.1148471249035,551.1220205829013,551.1220205829013,551.8874079579255,g,1.0,0.7602428750833496,,,,,,sub-071,1,stroop_test,,
,,,,111.0,3.0,9.0,,,,,,,,,,,,,blau,yellow,g,0.0,g,1.0,0.7663046249654144,,,,,,,,,,9.0,3.0,111.0,7.0,551.8970274999738,,,,,,,,,,,,,,,,,551.8879407499917,551.9891961659305,552.7927360408939,552.7806058749557,,,,,,,,,,,,,,,,,,,,,,,,,,,,,,,,,,,552.7855634159641,552.7927360408939,552.7927360408939,553.5652857079403,g,1.0,0.7663046249654144,,,,,,sub-071,1,stroop_test,,
,,,,112.0,4.0,9.0,,,,,,,,,,,,,blau,red,r,0.0,g,0.0,0.7504100420046598,,,,,,,,,,9.0,4.0,112.0,4.0,553.574443582911,,,,,,,,,,,,,,,,,553.5657019999344,553.6633828749182,554.4553791249637,554.4476628329139,,,,,,,,,,,,,,,,,,,,,,,,,,,,,,,,,,,554.4483317909762,554.4553791249637,554.4553791249637,555.2162609159714,g,0.0,0.7504100420046598,,,,,,sub-071,1,stroop_test,,
,,,,113.0,5.0,9.0,,,,,,,,,,,,,rot,red,r,1.0,r,1.0,0.7300109170610085,,,,,,,,,,9.0,5.0,113.0,1.0,555.2255734578939,,,,,,,,,,,,,,,,,555.2167824578937,555.3135919579072,556.1084794999333,556.0975217910018,,,,,,,,,,,,,,,,,,,,,,,,,,,,,,,,,,,556.1012633329956,556.1084794999333,556.1084794999333,556.8484917909373,r,1.0,0.7300109170610085,,,,,,sub-071,1,stroop_test,,
,,,,114.0,6.0,9.0,,,,,,,,,,,,,rot,yellow,g,0.0,g,1.0,1.2151090409606695,,,,,,,,,,9.0,6.0,114.0,3.0,556.8574443329126,,,,,,,,,,,,,,,,,556.84891641594,558.0471274160082,558.8393795829033,558.8310342909535,,,,,,,,,,,,,,,,,,,,,,,,,,,,,,,,,,,558.8316817079904,558.8393795829033,558.8393795829033,560.0657009999268,g,1.0,1.2151090409606695,,,,,,sub-071,1,stroop_test,,
,,,,115.0,7.0,9.0,,,,,,,,,,,,,gelb,yellow,g,1.0,g,1.0,1.2737108750734478,,,,,,,,,,9.0,7.0,115.0,11.0,560.0749304579804,,,,,,,,,,,,,,,,,560.0662345408928,560.1636250829324,560.9584775828989,560.9477675409289,,,,,,,,,,,,,,,,,,,,,,,,,,,,,,,,,,,560.9513257909566,560.9584775828989,560.9584775828989,562.2383610409452,g,1.0,1.2737108750734478,,,,,,sub-071,1,stroop_test,,
,,,,116.0,8.0,9.0,,,,,,,,,,,,,gelb,blue,b,0.0,b,1.0,1.1527349579846486,,,,,,,,,,9.0,8.0,116.0,9.0,562.2473421659088,,,,,,,,,,,,,,,,,562.2387839159928,563.0363110000035,563.830024707946,563.8204265409149,,,,,,,,,,,,,,,,,,,,,,,,,,,,,,,,,,,563.8210572499083,563.830024707946,563.830024707946,564.9877811250044,b,1.0,1.1527349579846486,,,,,,sub-071,1,stroop_test,,
,,,,117.0,9.0,9.0,,,,,,,,,,,,,rot,red,r,1.0,r,1.0,2.4687677500769496,,,,,,,,,,9.0,9.0,117.0,0.0,564.9970115829492,,,,,,,,,,,,,,,,,564.9881980000064,565.3358174159657,566.1472610000055,566.1211248330073,,,,,,,,,,,,,,,,,,,,,,,,,,,,,,,,,,,566.1243114999961,566.1472610000055,566.1472610000055,568.6220691659255,r,1.0,2.4687677500769496,,,,,,sub-071,1,stroop_test,,
,,,,118.0,10.0,9.0,,,,,,,,,,,,,blau,blue,b,1.0,b,1.0,1.024929334060289,,,,,,,,,,9.0,10.0,118.0,5.0,568.6475570829352,,,,,,,,,,,,,,,,,568.6226288329344,568.7137909579324,569.5084182079881,569.4979308749316,,,,,,,,,,,,,,,,,,,,,,,,,,,,,,,,,,,569.5012592079584,569.5084182079881,569.5084182079881,570.5379203750053,b,1.0,1.024929334060289,,,,,,sub-071,1,stroop_test,,
,,,,119.0,11.0,9.0,,,,,,,,,,,,,rot,blue,b,0.0,b,1.0,1.2208511249627918,,,,,,,,,,9.0,11.0,119.0,2.0,570.5467861659126,,,,,,,,,,,,,,,,,570.5383367909817,570.6361594579648,571.4306036249036,571.419638540945,,,,,,,,,,,,,,,,,,,,,,,,,,,,,,,,,,,571.423361041001,571.4306036249036,571.4306036249036,572.6548058749177,b,1.0,1.2208511249627918,,,,,,sub-071,1,stroop_test,,
,,,,,,,,,,,,,,,,,,,,,,,,,,,,,,,,,,,,,,,,,,,,,,,,,,,,,,,,,,,,,,,,,,,,,,,,,,,,,,,,,,,,,,,,,,,,,,,,,,,,,,572.6550467909547,572.6671245408943,577.6643246249296,577.655317540979,sub-071,1,stroop_test,,
