wordCTK,colorCTK,corrAnsCTK,congruentCTK,thisN,thisTrialN,thisRepN,keyResp_CTK.keys,keyResp_CTK.corr,keyResp_CTK.rt,keyResp_CTK.duration,wordPractice,colorPractice,corrAnsPractice,congruentPractice,respPractice.keys,respPractice.corr,respPractice.rt,respPractice.duration,word,color,corrAns,congruent,keyResp_test_run.keys,keyResp_test_run.corr,keyResp_test_run.rt,keyResp_test_run.duration,trials_CTK.thisRepN,trials_CTK.thisTrialN,trials_CTK.thisN,trials_CTK.thisIndex,trials_practice.thisRepN,trials_practice.thisTrialN,trials_practice.thisN,trials_practice.thisIndex,trials_test.thisRepN,trials_test.thisTrialN,trials_test.thisN,trials_test.thisIndex,thisRow.t,notes,instruction.started,instr_text.started,instr_image.started,instr_resp.started,instruction.stopped,instr_resp.keys,instr_resp.rt,instr_resp.duration,instr_color_to_key.started,instr_ctk.started,resp_ctk.started,instr_color_to_key.stopped,resp_ctk.keys,resp_ctk.rt,resp_ctk.duration,ITI.started,fixcross.started,fixcross.stopped,ITI.stopped,color_to_key_run.started,stimulus_CTK.started,keyResp_CTK.started,color_to_key_run.stopped,trials_CTK.keyResp_CTK.keys,trials_CTK.keyResp_CTK.corr,trials_CTK.keyResp_CTK.rt,trials_CTK.keyResp_CTK.duration,instr_practice.started,instr_practice_text.started,instr_practice_resp.started,instr_practice.stopped,instr_practice_resp.keys,instr_practice_resp.rt,instr_practice_resp.duration,practice_run.started,stimulus_practice.started,respPractice.started,practice_run.stopped,trials_practice.respPractice.keys,trials_practice.respPractice.corr,trials_practice.respPractice.rt,trials_practice.respPractice.duration,feedback.started,textFeedback.started,feedback.stopped,textFeedback.stopped,instr_test.started,instr_test_text.started,instr_test_resp.started,instr_test.stopped,instr_test_resp.keys,instr_test_resp.rt,instr_test_resp.duration,test_run.started,stimulus_test_run.started,keyResp_test_run.started,test_run.stopped,trials_test.keyResp_test_run.keys,trials_test.keyResp_test_run.corr,trials_test.keyResp_test_run.rt,trials_test.keyResp_test_run.duration,goodbye.started,textGoodbye.started,textGoodbye.stopped,goodbye.stopped,participant,session,expName,frameRate,Unnamed: 113
,,,,,,,,,,,,,,,,,,,,,,,,,,,,,,,,,,,,,,,,,0.0031036999989737,0.0265657999989343,0.0265657999989343,0.0265657999989343,29.676174700000047,space,29.63383590000012,,,,,,,,,,,,,,,,,,,,,,,,,,,,,,,,,,,,,,,,,,,,,,,,,,,,,,,,,,,sub-176,1,stroop_test,59.96717396880828,
,,,,,,,,,,,,,,,,,,,,,,,,,,,,,,,,,,,,,,,,,,,,,,,,,29.67628200000036,29.69139100000029,29.69139100000029,31.06048929999997,space,1.3653671000010943,,,,,,,,,,,,,,,,,,,,,,,,,,,,,,,,,,,,,,,,,,,,,,,,,,,,sub-176,1,stroop_test,59.96717396880828,
test,red,r,1.0,0.0,0.0,0.0,r,1.0,0.6502541999998357,,,,,,,,,,,,,,,,,,0.0,0.0,0.0,0.0,,,,,,,,,31.07624709999982,,,,,,,,,,,,,,,,,31.072857999999545,32.27455679999912,33.07487889999902,33.05902149999929,33.06753050000043,33.07487889999902,33.07487889999902,33.72875399999975,r,1.0,0.6502541999998357,,,,,,,,,,,,,,,,,,,,,,,,,,,,,,,,,,,,,,,,sub-176,1,stroop_test,59.96717396880828,
test,blue,b,1.0,1.0,1.0,0.0,b,1.0,0.7648955999993632,,,,,,,,,,,,,,,,,,0.0,1.0,1.0,2.0,,,,,,,,,33.741826699999365,,,,,,,,,,,,,,,,,33.729301499999565,34.54210079999939,35.342122399999425,35.3285407000003,35.32929709999917,35.342122399999425,35.342122399999425,36.114274899999145,b,1.0,0.7648955999993632,,,,,,,,,,,,,,,,,,,,,,,,,,,,,,,,,,,,,,,,sub-176,1,stroop_test,59.96717396880828,
test,yellow,g,1.0,2.0,2.0,0.0,g,1.0,0.431676599999264,,,,,,,,,,,,,,,,,,0.0,2.0,2.0,1.0,,,,,,,,,36.12996790000034,,,,,,,,,,,,,,,,,36.11460160000024,36.91409459999886,37.7142614000004,37.69915639999999,37.699907899999744,37.7142614000004,37.7142614000004,38.15064519999942,g,1.0,0.431676599999264,,,,,,,,,,,,,,,,,,,,,,,,,,,,,,,,,,,,,,,,sub-176,1,stroop_test,59.96717396880828,
test,blue,b,1.0,3.0,0.0,1.0,b,1.0,0.55125229999976,,,,,,,,,,,,,,,,,,1.0,0.0,3.0,2.0,,,,,,,,,38.16364880000037,,,,,,,,,,,,,,,,,38.15119579999919,39.36021509999955,40.15978340000038,40.14509840000028,40.145853899999565,40.15978340000038,40.15978340000038,40.72927139999956,b,1.0,0.55125229999976,,,,,,,,,,,,,,,,,,,,,,,,,,,,,,,,,,,,,,,,sub-176,1,stroop_test,59.96717396880828,
test,yellow,g,1.0,4.0,1.0,1.0,g,1.0,0.6533584000007977,,,,,,,,,,,,,,,,,,1.0,1.0,4.0,1.0,,,,,,,,,40.74315260000003,,,,,,,,,,,,,,,,,40.72983050000039,40.84337889999915,41.64360599999964,41.62758969999959,41.62839989999884,41.64360599999964,41.64360599999964,42.31245209999906,g,1.0,0.6533584000007977,,,,,,,,,,,,,,,,,,,,,,,,,,,,,,,,,,,,,,,,sub-176,1,stroop_test,59.96717396880828,
test,red,r,1.0,5.0,2.0,1.0,r,1.0,0.474390499999572,,,,,,,,,,,,,,,,,,1.0,2.0,5.0,0.0,,,,,,,,,42.327372800000376,,,,,,,,,,,,,,,,,42.31285989999924,43.52742740000031,44.32686610000019,44.31219349999992,44.31290809999882,44.32686610000019,44.32686610000019,44.81337539999913,r,1.0,0.474390499999572,,,,,,,,,,,,,,,,,,,,,,,,,,,,,,,,,,,,,,,,sub-176,1,stroop_test,59.96717396880828,
test,blue,b,1.0,6.0,0.0,2.0,b,1.0,0.6268282000000909,,,,,,,,,,,,,,,,,,2.0,0.0,6.0,2.0,,,,,,,,,44.82704509999894,,,,,,,,,,,,,,,,,44.81391579999945,45.17755170000055,45.97748379999939,45.96226439999919,45.9629305999988,45.97748379999939,45.97748379999939,46.61416250000002,b,1.0,0.6268282000000909,,,,,,,,,,,,,,,,,,,,,,,,,,,,,,,,,,,,,,,,sub-176,1,stroop_test,59.96717396880828,
test,yellow,g,1.0,7.0,1.0,2.0,g,1.0,0.471161999999822,,,,,,,,,,,,,,,,,,2.0,1.0,7.0,1.0,,,,,,,,,46.62799119999909,,,,,,,,,,,,,,,,,46.61470279999958,46.72781070000019,47.52774449999925,47.51269949999914,47.51342289999957,47.52774449999925,47.52774449999925,48.01385839999966,g,1.0,0.471161999999822,,,,,,,,,,,,,,,,,,,,,,,,,,,,,,,,,,,,,,,,sub-176,1,stroop_test,59.96717396880828,
test,red,r,1.0,8.0,2.0,2.0,r,1.0,0.3908881999996083,,,,,,,,,,,,,,,,,,2.0,2.0,8.0,0.0,,,,,,,,,48.02813429999878,,,,,,,,,,,,,,,,,48.01444179999999,48.828513599999496,49.62803069999973,49.61357599999974,49.614281299998765,49.62803069999973,49.62803069999973,50.030944799998906,r,1.0,0.3908881999996083,,,,,,,,,,,,,,,,,,,,,,,,,,,,,,,,,,,,,,,,sub-176,1,stroop_test,59.96717396880828,
test,blue,b,1.0,9.0,0.0,3.0,b,1.0,0.5084791000008408,,,,,,,,,,,,,,,,,,3.0,0.0,9.0,2.0,,,,,,,,,50.04484729999968,,,,,,,,,,,,,,,,,50.032055100000434,51.24621320000006,52.04563190000045,52.030231299999286,52.03130430000056,52.04563190000045,52.04563190000045,52.56527019999885,b,1.0,0.5084791000008408,,,,,,,,,,,,,,,,,,,,,,,,,,,,,,,,,,,,,,,,sub-176,1,stroop_test,59.96717396880828,
test,red,r,1.0,10.0,1.0,3.0,r,1.0,0.5267282999993768,,,,,,,,,,,,,,,,,,3.0,1.0,10.0,0.0,,,,,,,,,52.5790636999991,,,,,,,,,,,,,,,,,52.5656684000005,53.77924619999976,54.57922399999916,54.5636811000004,54.56524559999889,54.57922399999916,54.57922399999916,55.115858400000434,r,1.0,0.5267282999993768,,,,,,,,,,,,,,,,,,,,,,,,,,,,,,,,,,,,,,,,sub-176,1,stroop_test,59.96717396880828,
test,yellow,g,1.0,11.0,2.0,3.0,g,1.0,0.4188782000001083,,,,,,,,,,,,,,,,,,3.0,2.0,11.0,1.0,,,,,,,,,55.12931709999975,,,,,,,,,,,,,,,,,55.11630019999939,56.32946090000041,57.13019229999918,57.11566969999876,57.11639959999957,57.13019229999918,57.13019229999918,57.56480269999884,g,1.0,0.4188782000001083,,,,,,,,,,,,,,,,,,,,,,,,,,,,,,,,,,,,,,,,sub-176,1,stroop_test,59.96717396880828,
,,,,,,,,,,,,,,,,,,,,,,,,,,,,,,,,,,,,,,,,,,,,,,,,,,,,,,,,,,,,,,,,,,,,57.56505130000005,57.57931209999879,57.57931209999879,61.01636479999979,space,3.4230000999996264,,,,,,,,,,,,,,,,,,,,,,,,,,,,,,,,,sub-176,1,stroop_test,59.96717396880828,
,,,,0.0,0.0,0.0,,,,,gelb,yellow,g,1.0,g,1.0,1.1328406000011455,,,,,,,,,,,,,,0.0,0.0,0.0,11.0,,,,,61.03054329999941,,,,,,,,,,,,,,,,,61.02631459999975,61.82996370000001,62.631209499999386,62.615223900000274,,,,,,,,,,,,,,,,62.62612689999878,62.631209499999386,62.631209499999386,63.76790499999879,g,1.0,1.1328406000011455,,63.78262050000012,63.78931430000012,64.78186219999952,,,,,,,,,,,,,,,,,,,,,sub-176,1,stroop_test,59.96717396880828,
,,,,1.0,1.0,0.0,,,,,rot,blue,b,0.0,b,1.0,0.519590199999584,,,,,,,,,,,,,,0.0,1.0,1.0,2.0,,,,,64.79774349999934,,,,,,,,,,,,,,,,,64.78242099999989,64.88132740000037,65.68090479999955,65.66660849999971,,,,,,,,,,,,,,,,65.67440879999958,65.68090479999955,65.68090479999955,66.21721549999893,b,1.0,0.519590199999584,,66.2178974999988,66.23103900000024,67.21673809999993,67.23096129999976,,,,,,,,,,,,,,,,,,,,sub-176,1,stroop_test,59.96717396880828,
,,,,2.0,2.0,0.0,,,,,rot,yellow,g,0.0,g,1.0,0.9003766999994696,,,,,,,,,,,,,,0.0,2.0,2.0,3.0,,,,,67.23096129999976,,,,,,,,,,,,,,,,,67.21734069999911,67.33121000000028,68.13188739999896,68.11696780000057,,,,,,,,,,,,,,,,68.11788179999894,68.13188739999896,68.13188739999896,69.0369627,g,1.0,0.9003766999994696,,69.0376570999997,69.04879319999964,70.03401399999893,70.04943459999959,,,,,,,,,,,,,,,,,,,,sub-176,1,stroop_test,59.96717396880828,
,,,,3.0,3.0,0.0,,,,,blau,blue,b,1.0,b,1.0,0.6869619999997667,,,,,,,,,,,,,,0.0,3.0,3.0,5.0,,,,,70.04943459999959,,,,,,,,,,,,,,,,,70.03440839999894,70.39871270000003,71.20022049999898,71.1845702999999,,,,,,,,,,,,,,,,71.19487469999876,71.20022049999898,71.20022049999898,71.90190489999986,b,1.0,0.6869619999997667,,71.90259390000028,71.91509799999949,72.90014340000016,72.91565669999909,,,,,,,,,,,,,,,,,,,,sub-176,1,stroop_test,59.96717396880828,
,,,,4.0,4.0,0.0,,,,,rot,red,r,1.0,r,1.0,0.5516346000003978,,,,,,,,,,,,,,0.0,4.0,4.0,1.0,,,,,72.91565669999909,,,,,,,,,,,,,,,,,72.90056989999903,73.26582059999964,74.06618010000057,74.05216079999991,,,,,,,,,,,,,,,,74.05810240000028,74.06618010000057,74.06618010000057,74.63565259999996,r,1.0,0.5516346000003978,,74.63635559999966,74.64931849999994,75.63488429999961,75.64941709999948,,,,,,,,,,,,,,,,,,,,sub-176,1,stroop_test,59.96717396880828,
,,,,5.0,5.0,0.0,,,,,gelb,blue,b,0.0,b,1.0,0.4998157000009087,,,,,,,,,,,,,,0.0,5.0,5.0,9.0,,,,,75.64941709999948,,,,,,,,,,,,,,,,,75.63527459999932,75.7497457999998,76.54987169999913,76.53469779999978,,,,,,,,,,,,,,,,76.5397825,76.54987169999913,76.54987169999913,77.05390679999982,b,1.0,0.4998157000009087,,77.05457840000054,77.0664598000003,78.05259999999907,78.06668030000037,,,,,,,,,,,,,,,,,,,,sub-176,1,stroop_test,59.96717396880828,
,,,,6.0,6.0,0.0,,,,,rot,red,r,1.0,r,1.0,0.5331054999987828,,,,,,,,,,,,,,0.0,6.0,6.0,0.0,,,,,78.06668030000037,,,,,,,,,,,,,,,,,78.05335559999912,79.26688710000053,80.06697319999876,80.05247129999952,,,,,,,,,,,,,,,,80.0570243000002,80.06697319999876,80.06697319999876,80.60485479999988,r,1.0,0.5331054999987828,,80.60559069999908,80.61713860000054,81.60248820000015,81.61809989999892,,,,,,,,,,,,,,,,,,,,sub-176,1,stroop_test,59.96717396880828,
,,,,7.0,7.0,0.0,,,,,blau,red,r,0.0,r,1.0,0.9550268999992112,,,,,,,,,,,,,,0.0,7.0,7.0,4.0,,,,,81.61809989999892,,,,,,,,,,,,,,,,,81.6039937000005,81.9672329999994,82.76797479999914,82.75223079999887,,,,,,,,,,,,,,,,82.75665339999978,82.76797479999914,82.76797479999914,83.73633599999994,r,1.0,0.9550268999992112,,83.73720649999996,83.75103829999898,84.73656759999903,84.75087329999951,,,,,,,,,,,,,,,,,,,,sub-176,1,stroop_test,59.96717396880828,
,,,,8.0,8.0,0.0,,,,,blau,yellow,g,0.0,g,1.0,0.7143765000000712,,,,,,,,,,,,,,0.0,8.0,8.0,7.0,,,,,84.75087329999951,,,,,,,,,,,,,,,,,84.73707590000049,85.95093669999915,86.75165769999876,86.73778429999948,,,,,,,,,,,,,,,,86.7388133000004,86.75165769999876,86.75165769999876,87.47186750000037,g,1.0,0.7143765000000712,,87.47263899999962,87.48522729999968,88.47095939999963,88.48601319999943,,,,,,,,,,,,,,,,,,,,sub-176,1,stroop_test,59.96717396880828,
,,,,9.0,9.0,0.0,,,,,gelb,red,r,0.0,r,1.0,0.6969109999990906,,,,,,,,,,,,,,0.0,9.0,9.0,8.0,,,,,88.48601319999943,,,,,,,,,,,,,,,,,88.47151979999944,88.58511279999948,89.38508890000048,89.37067539999953,,,,,,,,,,,,,,,,89.3765900999988,89.38508890000048,89.38508890000048,90.08780660000048,r,1.0,0.6969109999990906,,90.08845839999958,90.10271759999888,91.0879303999991,91.10252260000016,,,,,,,,,,,,,,,,,,,,sub-176,1,stroop_test,59.96717396880828,
,,,,10.0,10.0,0.0,,,,,blau,blue,b,1.0,b,1.0,0.712885400000232,,,,,,,,,,,,,,0.0,10.0,10.0,6.0,,,,,91.10252260000016,,,,,,,,,,,,,,,,,91.08850869999878,91.45229549999932,92.2527511999997,92.2385634000002,,,,,,,,,,,,,,,,92.24349780000011,92.2527511999997,92.2527511999997,92.97374300000048,b,1.0,0.712885400000232,,92.97433329999876,92.98588609999932,93.97039109999967,93.98653980000016,,,,,,,,,,,,,,,,,,,,sub-176,1,stroop_test,59.96717396880828,
,,,,11.0,11.0,0.0,,,,,gelb,yellow,g,1.0,g,1.0,0.787339399999837,,,,,,,,,,,,,,0.0,11.0,11.0,10.0,,,,,93.98653980000016,,,,,,,,,,,,,,,,,93.9711296000005,94.78605219999918,95.58583309999996,95.57259569999952,,,,,,,,,,,,,,,,95.5776210999993,95.58583309999996,95.58583309999996,96.38905309999971,g,1.0,0.787339399999837,,96.39004589999968,96.40315809999991,97.38797369999884,97.40348640000047,,,,,,,,,,,,,,,,,,,,sub-176,1,stroop_test,59.96717396880828,
,,,,12.0,0.0,1.0,,,,,blau,yellow,g,0.0,g,1.0,0.8027427999986685,,,,,,,,,,,,,,1.0,0.0,12.0,7.0,,,,,97.40348640000047,,,,,,,,,,,,,,,,,97.3885424,98.20352459999958,99.00343099999918,98.98789029999898,,,,,,,,,,,,,,,,98.99211019999892,99.00343099999918,99.00343099999918,99.82333649999964,g,1.0,0.8027427999986685,,99.82434309999915,99.8369290999999,100.82143139999972,100.83692659999906,,,,,,,,,,,,,,,,,,,,sub-176,1,stroop_test,59.96717396880828,
,,,,13.0,1.0,1.0,,,,,blau,red,r,0.0,r,1.0,1.5732758000012836,,,,,,,,,,,,,,1.0,1.0,13.0,4.0,,,,,100.83692659999906,,,,,,,,,,,,,,,,,100.82172080000056,101.63741870000013,102.43741729999964,102.4232195000004,,,,,,,,,,,,,,,,102.42402430000038,102.43741729999964,102.43741729999964,104.02270490000046,r,1.0,1.5732758000012836,,104.02330799999982,104.03749629999948,105.02310009999928,105.03811809999934,,,,,,,,,,,,,,,,,,,,sub-176,1,stroop_test,59.96717396880828,
,,,,14.0,2.0,1.0,,,,,gelb,yellow,g,1.0,g,1.0,1.403703100000712,,,,,,,,,,,,,,1.0,2.0,14.0,11.0,,,,,105.03811809999934,,,,,,,,,,,,,,,,,105.0236160000004,105.1211827999996,105.92143620000024,105.90760760000012,,,,,,,,,,,,,,,,105.91159909999988,105.92143620000024,105.92143620000024,107.34190709999892,g,1.0,1.403703100000712,,107.3426361999991,107.35483810000004,108.34022689999983,108.35530379999908,,,,,,,,,,,,,,,,,,,,sub-176,1,stroop_test,59.96717396880828,
,,,,15.0,3.0,1.0,,,,,rot,red,r,1.0,r,1.0,0.5855463000007148,,,,,,,,,,,,,,1.0,3.0,15.0,0.0,,,,,108.35530379999908,,,,,,,,,,,,,,,,,108.34066259999965,108.70532509999975,109.50540439999897,109.49049579999884,,,,,,,,,,,,,,,,109.4962469000002,109.50540439999897,109.50540439999897,110.10797950000052,r,1.0,0.5855463000007148,,110.10872709999968,110.1225257999995,111.10731750000014,111.12243929999931,,,,,,,,,,,,,,,,,,,,sub-176,1,stroop_test,59.96717396880828,
,,,,16.0,4.0,1.0,,,,,gelb,yellow,g,1.0,g,1.0,0.6511487000007037,,,,,,,,,,,,,,1.0,4.0,16.0,10.0,,,,,111.12243929999931,,,,,,,,,,,,,,,,,111.1078239999988,111.4729957999989,112.2724930000004,112.25815460000013,,,,,,,,,,,,,,,,112.2638893000003,112.2724930000004,112.2724930000004,112.92624549999891,g,1.0,0.6511487000007037,,112.926959299999,112.93906779999998,113.9256903000005,113.93942099999911,,,,,,,,,,,,,,,,,,,,sub-176,1,stroop_test,59.96717396880828,
,,,,17.0,5.0,1.0,,,,,blau,blue,b,1.0,b,1.0,0.635455899999215,,,,,,,,,,,,,,1.0,5.0,17.0,6.0,,,,,113.93942099999911,,,,,,,,,,,,,,,,,113.92638069999884,114.7395505000004,115.53969929999948,115.52393409999968,,,,,,,,,,,,,,,,115.52846549999958,115.53969929999948,115.53969929999948,116.19214780000038,b,1.0,0.635455899999215,,116.19287040000016,116.20681510000033,117.19221730000028,117.2074180999989,,,,,,,,,,,,,,,,,,,,sub-176,1,stroop_test,59.96717396880828,
,,,,18.0,6.0,1.0,,,,,rot,red,r,1.0,r,1.0,0.5385438000012073,,,,,,,,,,,,,,1.0,6.0,18.0,1.0,,,,,117.2074180999989,,,,,,,,,,,,,,,,,117.19291259999954,117.5571044999997,118.3567439999988,118.34162629999992,,,,,,,,,,,,,,,,118.347359899999,118.3567439999988,118.3567439999988,118.90977749999912,r,1.0,0.5385438000012073,,118.91064899999948,118.92377139999915,119.9089356000004,119.92403170000034,,,,,,,,,,,,,,,,,,,,sub-176,1,stroop_test,59.96717396880828,
,,,,19.0,7.0,1.0,,,,,blau,blue,b,1.0,b,1.0,0.6946740000003047,,,,,,,,,,,,,,1.0,7.0,19.0,5.0,,,,,119.92403170000034,,,,,,,,,,,,,,,,,119.90946069999882,120.02424719999908,120.82395109999923,120.80925480000042,,,,,,,,,,,,,,,,120.81408609999926,120.82395109999923,120.82395109999923,121.5270464999994,b,1.0,0.6946740000003047,,121.52800229999956,121.5412080999995,122.5259559999995,122.54120299999886,,,,,,,,,,,,,,,,,,,,sub-176,1,stroop_test,59.96717396880828,
,,,,20.0,8.0,1.0,,,,,rot,blue,b,0.0,b,1.0,0.7925279999999475,,,,,,,,,,,,,,1.0,8.0,20.0,2.0,,,,,122.54120299999886,,,,,,,,,,,,,,,,,122.52642939999896,122.64170149999882,123.44111440000052,123.42649439999876,,,,,,,,,,,,,,,,123.43159439999908,123.44111440000052,123.44111440000052,124.24420160000044,b,1.0,0.7925279999999475,,124.24493260000054,124.25814899999932,125.24330149999878,125.25877919999948,,,,,,,,,,,,,,,,,,,,sub-176,1,stroop_test,59.96717396880828,
,,,,21.0,9.0,1.0,,,,,gelb,blue,b,0.0,b,1.0,0.9096779999999852,,,,,,,,,,,,,,1.0,9.0,21.0,9.0,,,,,125.25877919999948,,,,,,,,,,,,,,,,,125.24400699999931,126.0598441000002,126.87501689999954,126.86064559999976,,,,,,,,,,,,,,,,126.86704160000043,126.87501689999954,126.87501689999954,127.79496769999967,b,1.0,0.9096779999999852,,127.79554280000048,127.80847539999922,128.79393410000011,128.80873020000035,,,,,,,,,,,,,,,,,,,,sub-176,1,stroop_test,59.96717396880828,
,,,,22.0,10.0,1.0,,,,,rot,yellow,g,0.0,g,1.0,0.9650350000010804,,,,,,,,,,,,,,1.0,10.0,22.0,3.0,,,,,128.80873020000035,,,,,,,,,,,,,,,,,128.79438309999932,129.15934079999897,129.95913999999902,129.9436155000003,,,,,,,,,,,,,,,,129.9478521000001,129.95913999999902,129.95913999999902,130.92857899999944,g,1.0,0.9650350000010804,,130.92924680000033,130.94235039999876,131.92741449999994,131.94307859999935,,,,,,,,,,,,,,,,,,,,sub-176,1,stroop_test,59.96717396880828,
,,,,23.0,11.0,1.0,,,,,gelb,red,r,0.0,r,1.0,0.689829799999643,,,,,,,,,,,,,,1.0,11.0,23.0,8.0,,,,,131.94307859999935,,,,,,,,,,,,,,,,,131.92786779999915,132.74283470000046,133.54298319999907,133.52815999999984,,,,,,,,,,,,,,,,133.53341069999988,133.54298319999907,133.54298319999907,134.24721259999933,r,1.0,0.689829799999643,,134.24841699999888,134.25986919999923,135.24543110000013,135.26021880000008,,,,,,,,,,,,,,,,,,,,sub-176,1,stroop_test,59.96717396880828,
,,,,,,,,,,,,,,,,,,,,,,,,,,,,,,,,,,,,,,,,,,,,,,,,,,,,,,,,,,,,,,,,,,,,,,,,,,,,,,,,,,,,,,,135.24564680000003,135.26021880000008,135.26021880000008,147.5824690999998,space,12.306473800001186,,,,,,,,,,,,,,sub-176,1,stroop_test,59.96717396880828,
,,,,0.0,0.0,0.0,,,,,,,,,,,,,rot,yellow,g,0.0,g,1.0,0.4955288999990443,,,,,,,,,,0.0,0.0,0.0,3.0,147.59945770000013,,,,,,,,,,,,,,,,,147.5964666,148.39584920000016,149.1955402999993,149.1807418999997,,,,,,,,,,,,,,,,,,,,,,,,,,,,,,,,,,,149.18570659999932,149.1955402999993,149.1955402999993,149.69801720000032,g,1.0,0.4955288999990443,,,,,,sub-176,1,stroop_test,59.96717396880828,
,,,,1.0,1.0,0.0,,,,,,,,,,,,,gelb,blue,b,0.0,b,1.0,0.5906725000004371,,,,,,,,,,0.0,1.0,1.0,9.0,149.71275479999895,,,,,,,,,,,,,,,,,149.69860549999976,150.04596579999998,150.84613080000054,150.8316354999988,,,,,,,,,,,,,,,,,,,,,,,,,,,,,,,,,,,150.83702660000017,150.84613080000054,150.84613080000054,151.4503382999992,b,1.0,0.5906725000004371,,,,,,sub-176,1,stroop_test,59.96717396880828,
,,,,2.0,2.0,0.0,,,,,,,,,,,,,blau,blue,b,1.0,b,1.0,0.8351105000001553,,,,,,,,,,0.0,2.0,2.0,6.0,151.4629334000001,,,,,,,,,,,,,,,,,151.45076320000044,151.81298059999972,152.61287999999877,152.59870099999898,,,,,,,,,,,,,,,,,,,,,,,,,,,,,,,,,,,152.60455919999913,152.61287999999877,152.61287999999877,153.46633269999984,b,1.0,0.8351105000001553,,,,,,sub-176,1,stroop_test,59.96717396880828,
,,,,3.0,3.0,0.0,,,,,,,,,,,,,rot,red,r,1.0,r,1.0,0.525388699999894,,,,,,,,,,0.0,3.0,3.0,0.0,153.47978390000026,,,,,,,,,,,,,,,,,153.46692749999966,154.6803206000004,155.48069860000032,155.46466879999934,,,,,,,,,,,,,,,,,,,,,,,,,,,,,,,,,,,155.46884899999895,155.48069860000032,155.48069860000032,156.01596889999928,r,1.0,0.525388699999894,,,,,,sub-176,1,stroop_test,59.96717396880828,
,,,,4.0,4.0,0.0,,,,,,,,,,,,,blau,yellow,g,0.0,g,1.0,0.5281469999990804,,,,,,,,,,0.0,4.0,4.0,7.0,156.03097989999878,,,,,,,,,,,,,,,,,156.01652900000045,156.83054119999906,157.63135479999983,157.61590669999896,,,,,,,,,,,,,,,,,,,,,,,,,,,,,,,,,,,157.62042230000043,157.63135479999983,157.63135479999983,158.16728200000034,g,1.0,0.5281469999990804,,,,,,sub-176,1,stroop_test,59.96717396880828,
,,,,5.0,5.0,0.0,,,,,,,,,,,,,blau,red,r,0.0,r,1.0,0.5867265999986557,,,,,,,,,,0.0,5.0,5.0,4.0,158.180875,,,,,,,,,,,,,,,,,158.16778539999905,158.5311830999999,159.3312963999997,159.3167386999994,,,,,,,,,,,,,,,,,,,,,,,,,,,,,,,,,,,159.31740179999906,159.3312963999997,159.3312963999997,159.93374249999945,r,1.0,0.5867265999986557,,,,,,sub-176,1,stroop_test,59.96717396880828,
,,,,6.0,6.0,0.0,,,,,,,,,,,,,rot,blue,b,0.0,b,1.0,0.8696550999993633,,,,,,,,,,0.0,6.0,6.0,2.0,159.94755149999946,,,,,,,,,,,,,,,,,159.9342302999994,160.2978748000005,161.09789640000054,161.0821139999989,,,,,,,,,,,,,,,,,,,,,,,,,,,,,,,,,,,161.0883589999994,161.09789640000054,161.09789640000054,161.98507570000038,b,1.0,0.8696550999993633,,,,,,sub-176,1,stroop_test,59.96717396880828,
,,,,7.0,7.0,0.0,,,,,,,,,,,,,gelb,yellow,g,1.0,g,1.0,1.0588296999994782,,,,,,,,,,0.0,7.0,7.0,10.0,161.99860099999933,,,,,,,,,,,,,,,,,161.9856679000004,162.0980942999995,162.9000242000002,162.8829612999998,,,,,,,,,,,,,,,,,,,,,,,,,,,,,,,,,,,162.88680439999916,162.9000242000002,162.9000242000002,163.96777049999946,g,1.0,1.0588296999994782,,,,,,sub-176,1,stroop_test,59.96717396880828,
,,,,8.0,8.0,0.0,,,,,,,,,,,,,gelb,red,r,0.0,r,1.0,0.5420368000013696,,,,,,,,,,0.0,8.0,8.0,8.0,163.98191509999924,,,,,,,,,,,,,,,,,163.96834769999987,165.18207640000037,165.9824153999998,165.96781559999908,,,,,,,,,,,,,,,,,,,,,,,,,,,,,,,,,,,165.9683270000005,165.9824153999998,165.9824153999998,166.53608129999884,r,1.0,0.5420368000013696,,,,,,sub-176,1,stroop_test,59.96717396880828,
,,,,9.0,9.0,0.0,,,,,,,,,,,,,gelb,yellow,g,1.0,g,1.0,0.5994530999996641,,,,,,,,,,0.0,9.0,9.0,11.0,166.54888860000028,,,,,,,,,,,,,,,,,166.53741619999892,167.7489317999989,168.54931769999894,168.53459780000048,,,,,,,,,,,,,,,,,,,,,,,,,,,,,,,,,,,168.53527939999913,168.54931769999894,168.54931769999894,169.1537219999991,g,1.0,0.5994530999996641,,,,,,sub-176,1,stroop_test,59.96717396880828,
,,,,10.0,10.0,0.0,,,,,,,,,,,,,rot,red,r,1.0,r,1.0,0.4979915000003529,,,,,,,,,,0.0,10.0,10.0,1.0,169.1661009999989,,,,,,,,,,,,,,,,,169.1543631000004,170.36624699999993,171.16663870000048,171.15134670000043,,,,,,,,,,,,,,,,,,,,,,,,,,,,,,,,,,,171.15815780000048,171.16663870000048,171.16663870000048,171.66923700000007,r,1.0,0.4979915000003529,,,,,,sub-176,1,stroop_test,59.96717396880828,
,,,,11.0,11.0,0.0,,,,,,,,,,,,,blau,blue,b,1.0,b,1.0,0.5524702000002435,,,,,,,,,,0.0,11.0,11.0,5.0,171.68322520000038,,,,,,,,,,,,,,,,,171.66991599999892,172.8839771999992,173.6835343999992,173.66929679999885,,,,,,,,,,,,,,,,,,,,,,,,,,,,,,,,,,,173.6734935000004,173.6835343999992,173.6835343999992,174.25256199999967,b,1.0,0.5524702000002435,,,,,,sub-176,1,stroop_test,59.96717396880828,
,,,,12.0,0.0,1.0,,,,,,,,,,,,,rot,red,r,1.0,r,1.0,0.6487324000008812,,,,,,,,,,1.0,0.0,12.0,0.0,174.26840379999885,,,,,,,,,,,,,,,,,174.25309360000028,174.3669467999989,175.16715979999935,175.15199910000047,,,,,,,,,,,,,,,,,,,,,,,,,,,,,,,,,,,175.15660679999928,175.16715979999935,175.16715979999935,175.8206313999999,r,1.0,0.6487324000008812,,,,,,sub-176,1,stroop_test,59.96717396880828,
,,,,13.0,1.0,1.0,,,,,,,,,,,,,gelb,yellow,g,1.0,g,1.0,0.6208884999996371,,,,,,,,,,1.0,1.0,13.0,11.0,175.83373240000037,,,,,,,,,,,,,,,,,175.82115209999938,175.9342746000002,176.73451009999917,176.7192686999988,,,,,,,,,,,,,,,,,,,,,,,,,,,,,,,,,,,176.72498710000036,176.73451009999917,176.73451009999917,177.37155820000044,g,1.0,0.6208884999996371,,,,,,sub-176,1,stroop_test,59.96717396880828,
,,,,14.0,2.0,1.0,,,,,,,,,,,,,rot,red,r,1.0,r,1.0,0.5625469999995403,,,,,,,,,,1.0,2.0,14.0,1.0,177.38505409999925,,,,,,,,,,,,,,,,,177.37207469999885,177.73442719999912,178.53475699999944,178.52099559999988,,,,,,,,,,,,,,,,,,,,,,,,,,,,,,,,,,,178.52777369999967,178.53475699999944,178.53475699999944,179.10462059999918,r,1.0,0.5625469999995403,,,,,,sub-176,1,stroop_test,59.96717396880828,
,,,,15.0,3.0,1.0,,,,,,,,,,,,,rot,blue,b,0.0,b,1.0,0.799089100000856,,,,,,,,,,1.0,3.0,15.0,2.0,179.118371999999,,,,,,,,,,,,,,,,,179.10512539999945,179.4682630999996,180.26855299999988,180.2524983000003,,,,,,,,,,,,,,,,,,,,,,,,,,,,,,,,,,,180.25307760000032,180.26855299999988,180.26855299999988,181.0713323999989,b,1.0,0.799089100000856,,,,,,sub-176,1,stroop_test,59.96717396880828,
,,,,16.0,4.0,1.0,,,,,,,,,,,,,rot,yellow,g,0.0,g,1.0,0.6346668000005593,,,,,,,,,,1.0,4.0,16.0,3.0,181.0852417999995,,,,,,,,,,,,,,,,,181.07184769999915,181.18607560000052,181.9855631999999,181.9701747999989,,,,,,,,,,,,,,,,,,,,,,,,,,,,,,,,,,,181.97073549999917,181.9855631999999,181.9855631999999,182.63780450000013,g,1.0,0.6346668000005593,,,,,,sub-176,1,stroop_test,59.96717396880828,
,,,,17.0,5.0,1.0,,,,,,,,,,,,,blau,blue,b,1.0,b,1.0,0.4240860999998403,,,,,,,,,,1.0,5.0,17.0,6.0,182.6517832999998,,,,,,,,,,,,,,,,,182.63852459999907,183.00191939999968,183.80231540000025,183.78748019999875,,,,,,,,,,,,,,,,,,,,,,,,,,,,,,,,,,,183.791326999999,183.80231540000025,183.80231540000025,184.23837879999883,b,1.0,0.4240860999998403,,,,,,sub-176,1,stroop_test,59.96717396880828,
,,,,18.0,6.0,1.0,,,,,,,,,,,,,gelb,blue,b,0.0,b,1.0,0.5448684000002686,,,,,,,,,,1.0,6.0,18.0,9.0,184.2519173000001,,,,,,,,,,,,,,,,,184.2393744000001,184.35255999999936,185.15237279999928,185.13885970000047,,,,,,,,,,,,,,,,,,,,,,,,,,,,,,,,,,,185.143536399999,185.15237279999928,185.15237279999928,185.7056825,b,1.0,0.5448684000002686,,,,,,sub-176,1,stroop_test,59.96717396880828,
,,,,19.0,7.0,1.0,,,,,,,,,,,,,blau,blue,b,1.0,b,1.0,0.436543800000436,,,,,,,,,,1.0,7.0,19.0,5.0,185.7192677999992,,,,,,,,,,,,,,,,,185.70614919999932,185.8196257,186.61931919999915,186.6043393999989,,,,,,,,,,,,,,,,,,,,,,,,,,,,,,,,,,,186.6081608000004,186.61931919999915,186.61931919999915,187.0713684000002,b,1.0,0.436543800000436,,,,,,sub-176,1,stroop_test,59.96717396880828,
,,,,20.0,8.0,1.0,,,,,,,,,,,,,gelb,red,r,0.0,r,1.0,0.3865897000014229,,,,,,,,,,1.0,8.0,20.0,8.0,187.0860314000001,,,,,,,,,,,,,,,,,187.0719064999994,187.1859628000002,188.0730105999992,187.97055189999992,,,,,,,,,,,,,,,,,,,,,,,,,,,,,,,,,,,188.06743879999885,188.0730105999992,188.0730105999992,188.4727819,r,1.0,0.3865897000014229,,,,,,sub-176,1,stroop_test,59.96717396880828,
,,,,21.0,9.0,1.0,,,,,,,,,,,,,gelb,yellow,g,1.0,g,1.0,0.3864696000000549,,,,,,,,,,1.0,9.0,21.0,10.0,188.48647750000052,,,,,,,,,,,,,,,,,188.47335980000025,189.2880968999998,190.10329479999928,190.0880994999989,,,,,,,,,,,,,,,,,,,,,,,,,,,,,,,,,,,190.0886966999988,190.10329479999928,190.10329479999928,190.5055018999992,g,1.0,0.3864696000000549,,,,,,sub-176,1,stroop_test,59.96717396880828,
,,,,22.0,10.0,1.0,,,,,,,,,,,,,blau,red,r,0.0,r,1.0,0.4823949999990873,,,,,,,,,,1.0,10.0,22.0,4.0,190.51976719999948,,,,,,,,,,,,,,,,,190.50593279999885,190.6210802000005,191.42010870000013,191.4058425000003,,,,,,,,,,,,,,,,,,,,,,,,,,,,,,,,,,,191.4133958999992,191.42010870000013,191.42010870000013,191.90707099999963,r,1.0,0.4823949999990873,,,,,,sub-176,1,stroop_test,59.96717396880828,
,,,,23.0,11.0,1.0,,,,,,,,,,,,,blau,yellow,g,0.0,g,1.0,0.6205423999999766,,,,,,,,,,1.0,11.0,23.0,7.0,191.92001770000024,,,,,,,,,,,,,,,,,191.9075402999988,192.72043200000007,193.52075879999936,193.50600200000008,,,,,,,,,,,,,,,,,,,,,,,,,,,,,,,,,,,193.50658300000032,193.52075879999936,193.52075879999936,194.15647209999952,g,1.0,0.6205423999999766,,,,,,sub-176,1,stroop_test,59.96717396880828,
,,,,24.0,0.0,2.0,,,,,,,,,,,,,rot,blue,b,0.0,b,1.0,0.4380060000003141,,,,,,,,,,2.0,0.0,24.0,2.0,194.1705569000005,,,,,,,,,,,,,,,,,194.1568941000005,194.52102729999933,195.3205376000005,195.3057245,,,,,,,,,,,,,,,,,,,,,,,,,,,,,,,,,,,195.31153819999963,195.3205376000005,195.3205376000005,195.77353459999904,b,1.0,0.4380060000003141,,,,,,sub-176,1,stroop_test,59.96717396880828,
,,,,25.0,1.0,2.0,,,,,,,,,,,,,gelb,yellow,g,1.0,g,1.0,0.4969099000009009,,,,,,,,,,2.0,1.0,25.0,10.0,195.78761519999895,,,,,,,,,,,,,,,,,195.7740290999991,196.9879123999999,197.7883678999988,197.7739700000002,,,,,,,,,,,,,,,,,,,,,,,,,,,,,,,,,,,197.7794097000005,197.7883678999988,197.7883678999988,198.2910978,g,1.0,0.4969099000009009,,,,,,sub-176,1,stroop_test,59.96717396880828,
,,,,26.0,2.0,2.0,,,,,,,,,,,,,gelb,red,r,0.0,r,1.0,0.5354222000005393,,,,,,,,,,2.0,2.0,26.0,8.0,198.30472740000005,,,,,,,,,,,,,,,,,198.2915587999996,199.1047885999997,199.9050623999992,199.89104059999957,,,,,,,,,,,,,,,,,,,,,,,,,,,,,,,,,,,199.89174749999984,199.9050623999992,199.9050623999992,200.44334530000012,r,1.0,0.5354222000005393,,,,,,sub-176,1,stroop_test,59.96717396880828,
,,,,27.0,3.0,2.0,,,,,,,,,,,,,blau,blue,b,1.0,b,1.0,0.407629999999699,,,,,,,,,,2.0,3.0,27.0,6.0,200.4550798,,,,,,,,,,,,,,,,,200.44378890000007,201.65545930000008,202.4557676000004,202.4410924999993,,,,,,,,,,,,,,,,,,,,,,,,,,,,,,,,,,,202.44633479999905,202.4557676000004,202.4557676000004,202.8757035999988,b,1.0,0.407629999999699,,,,,,sub-176,1,stroop_test,59.96717396880828,
,,,,28.0,4.0,2.0,,,,,,,,,,,,,rot,red,r,1.0,r,1.0,0.4732534999984636,,,,,,,,,,2.0,4.0,28.0,0.0,202.8888494999992,,,,,,,,,,,,,,,,,202.87623429999985,203.68946250000045,204.4889493999999,204.47520470000015,,,,,,,,,,,,,,,,,,,,,,,,,,,,,,,,,,,204.48207249999905,204.4889493999999,204.4889493999999,204.97649219999948,r,1.0,0.4732534999984636,,,,,,sub-176,1,stroop_test,59.96717396880828,
,,,,29.0,5.0,2.0,,,,,,,,,,,,,gelb,blue,b,0.0,b,1.0,0.6583276000001206,,,,,,,,,,2.0,5.0,29.0,9.0,204.98941129999912,,,,,,,,,,,,,,,,,204.97712150000007,205.08983889999945,205.8891782999999,205.8749241000005,,,,,,,,,,,,,,,,,,,,,,,,,,,,,,,,,,,205.8810899,205.8891782999999,205.8891782999999,206.5591217000001,b,1.0,0.6583276000001206,,,,,,sub-176,1,stroop_test,59.96717396880828,
,,,,30.0,6.0,2.0,,,,,,,,,,,,,blau,blue,b,1.0,b,1.0,0.4952094000000215,,,,,,,,,,2.0,6.0,30.0,5.0,206.57294849999928,,,,,,,,,,,,,,,,,206.55973649999945,207.3731914999989,208.17266579999887,208.1577576,,,,,,,,,,,,,,,,,,,,,,,,,,,,,,,,,,,208.1639041999988,208.17266579999887,208.17266579999887,208.6755917999999,b,1.0,0.4952094000000215,,,,,,sub-176,1,stroop_test,59.96717396880828,
,,,,31.0,7.0,2.0,,,,,,,,,,,,,rot,red,r,1.0,r,1.0,0.4331875999996555,,,,,,,,,,2.0,7.0,31.0,1.0,208.6901323000002,,,,,,,,,,,,,,,,,208.6760553000004,209.8915681999988,210.68999169999915,210.6758847000001,,,,,,,,,,,,,,,,,,,,,,,,,,,,,,,,,,,210.68014849999963,210.68999169999915,210.68999169999915,211.12704999999917,r,1.0,0.4331875999996555,,,,,,sub-176,1,stroop_test,59.96717396880828,
,,,,32.0,8.0,2.0,,,,,,,,,,,,,blau,yellow,g,0.0,g,1.0,0.5135621999997966,,,,,,,,,,2.0,8.0,32.0,7.0,211.1405090999997,,,,,,,,,,,,,,,,,211.12764289999905,211.2403274999997,212.04084669999972,212.02668669999912,,,,,,,,,,,,,,,,,,,,,,,,,,,,,,,,,,,212.03395249999997,212.04084669999972,212.04084669999972,212.56035059999888,g,1.0,0.5135621999997966,,,,,,sub-176,1,stroop_test,59.96717396880828,
,,,,33.0,9.0,2.0,,,,,,,,,,,,,rot,yellow,g,0.0,g,1.0,0.4748200999983964,,,,,,,,,,2.0,9.0,33.0,3.0,212.5736739999993,,,,,,,,,,,,,,,,,212.56086180000057,212.6737374000004,213.4744102000004,213.45906639999885,,,,,,,,,,,,,,,,,,,,,,,,,,,,,,,,,,,213.46485869999924,213.4744102000004,213.4744102000004,213.96220960000028,g,1.0,0.4748200999983964,,,,,,sub-176,1,stroop_test,59.96717396880828,
,,,,34.0,10.0,2.0,,,,,,,,,,,,,blau,red,r,0.0,r,1.0,0.7404810999996698,,,,,,,,,,2.0,10.0,34.0,4.0,213.97463479999897,,,,,,,,,,,,,,,,,213.96304339999915,214.3241039000004,215.12450940000053,215.10999599999923,,,,,,,,,,,,,,,,,,,,,,,,,,,,,,,,,,,215.1141076999993,215.12450940000053,215.12450940000053,215.8755325000002,r,1.0,0.7404810999996698,,,,,,sub-176,1,stroop_test,59.96717396880828,
,,,,35.0,11.0,2.0,,,,,,,,,,,,,gelb,yellow,g,1.0,g,1.0,0.64487999999983,,,,,,,,,,2.0,11.0,35.0,11.0,215.89133690000017,,,,,,,,,,,,,,,,,215.8758988999998,215.99167189999932,216.79117919999956,216.7760373000001,,,,,,,,,,,,,,,,,,,,,,,,,,,,,,,,,,,216.7797276000001,216.79117919999956,216.79117919999956,217.44466099999957,g,1.0,0.64487999999983,,,,,,sub-176,1,stroop_test,59.96717396880828,
,,,,36.0,0.0,3.0,,,,,,,,,,,,,rot,red,r,1.0,r,1.0,0.53090820000034,,,,,,,,,,3.0,0.0,36.0,0.0,217.45818990000043,,,,,,,,,,,,,,,,,217.4452299000004,217.5584798,218.35804329999883,218.34357679999997,,,,,,,,,,,,,,,,,,,,,,,,,,,,,,,,,,,218.34969610000007,218.35804329999883,218.35804329999883,218.89462149999963,r,1.0,0.53090820000034,,,,,,sub-176,1,stroop_test,59.96717396880828,
,,,,37.0,1.0,3.0,,,,,,,,,,,,,gelb,yellow,g,1.0,g,1.0,0.502548399999796,,,,,,,,,,3.0,1.0,37.0,11.0,218.9083111,,,,,,,,,,,,,,,,,218.8950765999998,219.00806790000024,219.80845169999884,219.79327790000025,,,,,,,,,,,,,,,,,,,,,,,,,,,,,,,,,,,219.79921359999932,219.80845169999884,219.80845169999884,220.32860509999955,g,1.0,0.502548399999796,,,,,,sub-176,1,stroop_test,59.96717396880828,
,,,,38.0,2.0,3.0,,,,,,,,,,,,,gelb,blue,b,0.0,b,1.0,0.3894844999995257,,,,,,,,,,3.0,2.0,38.0,9.0,220.3422756,,,,,,,,,,,,,,,,,220.3292690999988,221.5425737000005,222.34245679999916,222.3275952999993,,,,,,,,,,,,,,,,,,,,,,,,,,,,,,,,,,,222.32835220000013,222.34245679999916,222.34245679999916,222.7446927000001,b,1.0,0.3894844999995257,,,,,,sub-176,1,stroop_test,59.96717396880828,
,,,,39.0,3.0,3.0,,,,,,,,,,,,,rot,yellow,g,0.0,g,1.0,0.8371334000003117,,,,,,,,,,3.0,3.0,39.0,3.0,222.76021589999985,,,,,,,,,,,,,,,,,222.74523099999897,223.10902119999992,223.9088914999993,223.89426230000024,,,,,,,,,,,,,,,,,,,,,,,,,,,,,,,,,,,223.9008065999988,223.9088914999993,223.9088914999993,224.7617449999998,g,1.0,0.8371334000003117,,,,,,sub-176,1,stroop_test,59.96717396880828,
,,,,40.0,4.0,3.0,,,,,,,,,,,,,rot,blue,b,0.0,b,1.0,0.7317139999995561,,,,,,,,,,3.0,4.0,40.0,2.0,224.77573739999931,,,,,,,,,,,,,,,,,224.7621734999993,225.57619539999905,226.3762784999999,226.3617610000001,,,,,,,,,,,,,,,,,,,,,,,,,,,,,,,,,,,226.36243079999983,226.3762784999999,226.3762784999999,227.11419810000007,b,1.0,0.7317139999995561,,,,,,sub-176,1,stroop_test,59.96717396880828,
,,,,41.0,5.0,3.0,,,,,,,,,,,,,blau,red,r,0.0,r,1.0,0.6302061999995203,,,,,,,,,,3.0,5.0,41.0,4.0,227.12656930000048,,,,,,,,,,,,,,,,,227.11460540000007,227.47632059999887,228.27692729999944,228.2617646999988,,,,,,,,,,,,,,,,,,,,,,,,,,,,,,,,,,,228.26671849999912,228.27692729999944,228.27692729999944,228.9123930000005,r,1.0,0.6302061999995203,,,,,,sub-176,1,stroop_test,59.96717396880828,
,,,,42.0,6.0,3.0,,,,,,,,,,,,,blau,blue,b,1.0,b,1.0,0.4704746999996132,,,,,,,,,,3.0,6.0,42.0,6.0,228.92666970000028,,,,,,,,,,,,,,,,,228.91285590000007,229.7271815999993,230.52722709999944,230.5131397000005,,,,,,,,,,,,,,,,,,,,,,,,,,,,,,,,,,,230.51407519999884,230.52722709999944,230.52722709999944,231.01380049999895,b,1.0,0.4704746999996132,,,,,,sub-176,1,stroop_test,59.96717396880828,
,,,,43.0,7.0,3.0,,,,,,,,,,,,,blau,blue,b,1.0,b,1.0,0.4337223999991693,,,,,,,,,,3.0,7.0,43.0,5.0,231.0271682999992,,,,,,,,,,,,,,,,,231.01430739999887,232.2275694999989,233.0275115000004,233.01258880000023,,,,,,,,,,,,,,,,,,,,,,,,,,,,,,,,,,,233.01322009999967,233.0275115000004,233.0275115000004,233.4645290999997,b,1.0,0.4337223999991693,,,,,,sub-176,1,stroop_test,59.96717396880828,
,,,,44.0,8.0,3.0,,,,,,,,,,,,,blau,yellow,g,0.0,g,1.0,0.9709043000002566,,,,,,,,,,3.0,8.0,44.0,7.0,233.4773850000001,,,,,,,,,,,,,,,,,233.4650561999988,234.6776265999997,235.47831459999907,235.4627139000004,,,,,,,,,,,,,,,,,,,,,,,,,,,,,,,,,,,235.46360660000028,235.47831459999907,235.47831459999907,236.464978,g,1.0,0.9709043000002566,,,,,,sub-176,1,stroop_test,59.96717396880828,
,,,,45.0,9.0,3.0,,,,,,,,,,,,,gelb,yellow,g,1.0,g,1.0,0.4854357999993226,,,,,,,,,,3.0,9.0,45.0,10.0,236.47831020000007,,,,,,,,,,,,,,,,,236.4655650000004,237.6782776,238.47832059999928,238.4638636999989,,,,,,,,,,,,,,,,,,,,,,,,,,,,,,,,,,,238.4685608,238.47832059999928,238.47832059999928,238.9802123999998,g,1.0,0.4854357999993226,,,,,,sub-176,1,stroop_test,59.96717396880828,
,,,,46.0,10.0,3.0,,,,,,,,,,,,,gelb,red,r,0.0,r,1.0,0.524129699999321,,,,,,,,,,3.0,10.0,46.0,8.0,238.9954297000004,,,,,,,,,,,,,,,,,238.9806506999994,239.329248,240.12879339999927,240.11396599999895,,,,,,,,,,,,,,,,,,,,,,,,,,,,,,,,,,,240.1147139000004,240.12879339999927,240.12879339999927,240.66477789999956,r,1.0,0.524129699999321,,,,,,sub-176,1,stroop_test,59.96717396880828,
,,,,47.0,11.0,3.0,,,,,,,,,,,,,rot,red,r,1.0,r,1.0,0.535166499999832,,,,,,,,,,3.0,11.0,47.0,1.0,240.67876570000044,,,,,,,,,,,,,,,,,240.66521889999967,240.7786822999988,241.57905279999977,241.5639814999995,,,,,,,,,,,,,,,,,,,,,,,,,,,,,,,,,,,241.5696651999988,241.57905279999977,241.57905279999977,242.1168832000003,r,1.0,0.535166499999832,,,,,,sub-176,1,stroop_test,59.96717396880828,
,,,,48.0,0.0,4.0,,,,,,,,,,,,,blau,yellow,g,0.0,g,1.0,0.5619982999996864,,,,,,,,,,4.0,0.0,48.0,7.0,242.1288812999992,,,,,,,,,,,,,,,,,242.1174962999994,242.9290351,243.72934559999885,243.71510709999893,,,,,,,,,,,,,,,,,,,,,,,,,,,,,,,,,,,243.72095219999937,243.72934559999885,243.72934559999885,244.29852829999984,g,1.0,0.5619982999996864,,,,,,sub-176,1,stroop_test,59.96717396880828,
,,,,49.0,1.0,4.0,,,,,,,,,,,,,rot,blue,b,0.0,b,1.0,0.5423812999997608,,,,,,,,,,4.0,1.0,49.0,2.0,244.31308799999897,,,,,,,,,,,,,,,,,244.29907699999967,244.66305830000056,245.4628092000003,245.4494118999992,,,,,,,,,,,,,,,,,,,,,,,,,,,,,,,,,,,245.45448149999905,245.4628092000003,245.4628092000003,246.0161919000002,b,1.0,0.5423812999997608,,,,,,sub-176,1,stroop_test,59.96717396880828,
,,,,50.0,2.0,4.0,,,,,,,,,,,,,blau,blue,b,1.0,b,1.0,0.5319373000002088,,,,,,,,,,4.0,2.0,50.0,5.0,246.03017929999987,,,,,,,,,,,,,,,,,246.0166529999988,246.38061969999944,247.18003169999972,247.16605940000045,,,,,,,,,,,,,,,,,,,,,,,,,,,,,,,,,,,247.1713796000004,247.18003169999972,247.18003169999972,247.71589850000052,b,1.0,0.5319373000002088,,,,,,sub-176,1,stroop_test,59.96717396880828,
,,,,51.0,3.0,4.0,,,,,,,,,,,,,gelb,red,r,0.0,r,1.0,0.7286961000008887,,,,,,,,,,4.0,3.0,51.0,8.0,247.72997609999948,,,,,,,,,,,,,,,,,247.71634780000025,248.0803450000003,248.88017339999897,248.86560420000023,,,,,,,,,,,,,,,,,,,,,,,,,,,,,,,,,,,248.86970259999907,248.88017339999897,248.88017339999897,249.6167934000005,r,1.0,0.7286961000008887,,,,,,sub-176,1,stroop_test,59.96717396880828,
,,,,52.0,4.0,4.0,,,,,,,,,,,,,gelb,yellow,g,1.0,g,1.0,0.5072158000002673,,,,,,,,,,4.0,4.0,52.0,10.0,249.63049109999884,,,,,,,,,,,,,,,,,249.6173689999996,249.9805481000003,250.78099669999935,250.76554140000007,,,,,,,,,,,,,,,,,,,,,,,,,,,,,,,,,,,250.76648249999928,250.78099669999935,250.78099669999935,251.30014859999935,g,1.0,0.5072158000002673,,,,,,sub-176,1,stroop_test,59.96717396880828,
,,,,53.0,5.0,4.0,,,,,,,,,,,,,gelb,yellow,g,1.0,g,1.0,0.6234645000004093,,,,,,,,,,4.0,5.0,53.0,11.0,251.31409200000053,,,,,,,,,,,,,,,,,251.30063039999916,251.41425019999951,252.2139976999988,252.20125910000024,,,,,,,,,,,,,,,,,,,,,,,,,,,,,,,,,,,252.20198309999975,252.2139976999988,252.2139976999988,252.8505382000003,g,1.0,0.6234645000004093,,,,,,sub-176,1,stroop_test,59.96717396880828,
,,,,54.0,6.0,4.0,,,,,,,,,,,,,rot,yellow,g,0.0,g,1.0,0.4555489999984274,,,,,,,,,,4.0,6.0,54.0,3.0,252.86410579999935,,,,,,,,,,,,,,,,,252.85111200000028,254.0649317999996,254.86458069999932,254.85052390000052,,,,,,,,,,,,,,,,,,,,,,,,,,,,,,,,,,,254.8575815000004,254.86458069999932,254.86458069999932,255.33443420000003,g,1.0,0.4555489999984274,,,,,,sub-176,1,stroop_test,59.96717396880828,
,,,,55.0,7.0,4.0,,,,,,,,,,,,,rot,red,r,1.0,r,1.0,0.6165015999995376,,,,,,,,,,4.0,7.0,55.0,1.0,255.34811769999945,,,,,,,,,,,,,,,,,255.3349715000004,255.4480752999989,256.2480971999994,256.2329121999992,,,,,,,,,,,,,,,,,,,,,,,,,,,,,,,,,,,256.23349190000044,256.2480971999994,256.2480971999994,256.8690179999994,r,1.0,0.6165015999995376,,,,,,sub-176,1,stroop_test,59.96717396880828,
,,,,56.0,8.0,4.0,,,,,,,,,,,,,gelb,blue,b,0.0,b,1.0,0.6594781999992847,,,,,,,,,,4.0,8.0,56.0,9.0,256.8815359,,,,,,,,,,,,,,,,,256.8695191999996,256.9818737000005,257.7822981999998,257.7673840999996,,,,,,,,,,,,,,,,,,,,,,,,,,,,,,,,,,,257.7718968999998,257.7822981999998,257.7822981999998,258.4517811000005,b,1.0,0.6594781999992847,,,,,,sub-176,1,stroop_test,59.96717396880828,
,,,,57.0,9.0,4.0,,,,,,,,,,,,,blau,red,r,0.0,r,1.0,0.7352707999998529,,,,,,,,,,4.0,9.0,57.0,4.0,258.46537119999994,,,,,,,,,,,,,,,,,258.4524268999994,259.6656432999989,260.46551179999915,260.45127329999923,,,,,,,,,,,,,,,,,,,,,,,,,,,,,,,,,,,260.4570378999997,260.46551179999915,260.46551179999915,261.2190004000004,r,1.0,0.7352707999998529,,,,,,sub-176,1,stroop_test,59.96717396880828,
,,,,58.0,10.0,4.0,,,,,,,,,,,,,blau,blue,b,1.0,b,1.0,0.540621199999805,,,,,,,,,,4.0,10.0,58.0,6.0,261.23252030000003,,,,,,,,,,,,,,,,,261.21956189999946,262.0327144999992,262.8325698999997,262.8174698999992,,,,,,,,,,,,,,,,,,,,,,,,,,,,,,,,,,,262.81806829999914,262.8325698999997,262.8325698999997,263.3855599999988,b,1.0,0.540621199999805,,,,,,sub-176,1,stroop_test,59.96717396880828,
,,,,59.0,11.0,4.0,,,,,,,,,,,,,rot,red,r,1.0,r,1.0,0.5100326000010682,,,,,,,,,,4.0,11.0,59.0,0.0,263.3997263000001,,,,,,,,,,,,,,,,,263.3869386999995,264.59999269999935,265.3996776999993,265.38595369999894,,,,,,,,,,,,,,,,,,,,,,,,,,,,,,,,,,,265.39259779999884,265.3996776999993,265.3996776999993,265.9212097999989,r,1.0,0.5100326000010682,,,,,,sub-176,1,stroop_test,59.96717396880828,
,,,,60.0,0.0,5.0,,,,,,,,,,,,,rot,blue,b,0.0,b,1.0,0.6197652000009839,,,,,,,,,,5.0,0.0,60.0,2.0,265.93351839999923,,,,,,,,,,,,,,,,,265.9217377999994,266.2835740999999,267.0832219999993,267.06990589999987,,,,,,,,,,,,,,,,,,,,,,,,,,,,,,,,,,,267.0706236999995,267.0832219999993,267.0832219999993,267.7211229000004,b,1.0,0.6197652000009839,,,,,,sub-176,1,stroop_test,59.96717396880828,
,,,,61.0,1.0,5.0,,,,,,,,,,,,,gelb,red,r,0.0,r,1.0,0.5135929999996733,,,,,,,,,,5.0,1.0,61.0,8.0,267.73354350000045,,,,,,,,,,,,,,,,,267.72171399999934,268.9340523999999,269.73482200000035,269.7193712999997,,,,,,,,,,,,,,,,,,,,,,,,,,,,,,,,,,,269.7267241999998,269.73482200000035,269.73482200000035,270.2539840999998,r,1.0,0.5135929999996733,,,,,,sub-176,1,stroop_test,59.96717396880828,
,,,,62.0,2.0,5.0,,,,,,,,,,,,,blau,blue,b,1.0,b,1.0,0.597885099999985,,,,,,,,,,5.0,2.0,62.0,6.0,270.2677958999993,,,,,,,,,,,,,,,,,270.2544595999989,270.6176985000002,271.4175111000004,271.4034847999992,,,,,,,,,,,,,,,,,,,,,,,,,,,,,,,,,,,271.4106644000003,271.4175111000004,271.4175111000004,272.02143309999883,b,1.0,0.597885099999985,,,,,,sub-176,1,stroop_test,59.96717396880828,
,,,,63.0,3.0,5.0,,,,,,,,,,,,,rot,red,r,1.0,r,1.0,0.481347499999174,,,,,,,,,,5.0,3.0,63.0,1.0,272.03429159999905,,,,,,,,,,,,,,,,,272.0220064999994,273.2346519999992,274.0346690999995,274.02014359999885,,,,,,,,,,,,,,,,,,,,,,,,,,,,,,,,,,,274.0245842000004,274.0346690999995,274.0346690999995,274.51972899999964,r,1.0,0.481347499999174,,,,,,sub-176,1,stroop_test,59.96717396880828,
,,,,64.0,4.0,5.0,,,,,,,,,,,,,blau,red,r,0.0,r,1.0,0.5848330000007991,,,,,,,,,,5.0,4.0,64.0,4.0,274.5357196999994,,,,,,,,,,,,,,,,,274.5201221999996,275.3353009000002,276.1350120999996,276.1200487999995,,,,,,,,,,,,,,,,,,,,,,,,,,,,,,,,,,,276.1250645999989,276.1350120999996,276.1350120999996,276.73860070000046,r,1.0,0.5848330000007991,,,,,,sub-176,1,stroop_test,59.96717396880828,
,,,,65.0,5.0,5.0,,,,,,,,,,,,,rot,red,r,1.0,r,1.0,0.6163742000007915,,,,,,,,,,5.0,5.0,65.0,0.0,276.7520511999992,,,,,,,,,,,,,,,,,276.7391952999988,276.8518910999992,277.6524301999998,277.6377403999996,,,,,,,,,,,,,,,,,,,,,,,,,,,,,,,,,,,277.6435624000005,277.6524301999998,277.6524301999998,278.2713093000002,r,1.0,0.6163742000007915,,,,,,sub-176,1,stroop_test,59.96717396880828,
,,,,66.0,6.0,5.0,,,,,,,,,,,,,gelb,yellow,g,1.0,g,1.0,0.6282834999983606,,,,,,,,,,5.0,6.0,66.0,10.0,278.2857313000004,,,,,,,,,,,,,,,,,278.2717886999999,279.08589369999936,279.88594100000046,279.8709244999991,,,,,,,,,,,,,,,,,,,,,,,,,,,,,,,,,,,279.8749864000001,279.88594100000046,279.88594100000046,280.52174299999933,g,1.0,0.6282834999983606,,,,,,sub-176,1,stroop_test,59.96717396880828,
,,,,67.0,7.0,5.0,,,,,,,,,,,,,rot,yellow,g,0.0,g,1.0,0.860655599999518,,,,,,,,,,5.0,7.0,67.0,3.0,280.53562539999984,,,,,,,,,,,,,,,,,280.52218039999934,280.88603820000026,281.6862449,281.67135549999875,,,,,,,,,,,,,,,,,,,,,,,,,,,,,,,,,,,281.6763284999997,281.6862449,281.6862449,282.5550210000001,g,1.0,0.860655599999518,,,,,,sub-176,1,stroop_test,59.96717396880828,
,,,,68.0,8.0,5.0,,,,,,,,,,,,,blau,yellow,g,0.0,g,1.0,0.5647911999985809,,,,,,,,,,5.0,8.0,68.0,7.0,282.5698063999989,,,,,,,,,,,,,,,,,282.5554463999997,282.6700363,283.4701924000001,283.45483500000046,,,,,,,,,,,,,,,,,,,,,,,,,,,,,,,,,,,283.46012789999986,283.4701924000001,283.4701924000001,284.03965529999914,g,1.0,0.5647911999985809,,,,,,sub-176,1,stroop_test,59.96717396880828,
,,,,69.0,9.0,5.0,,,,,,,,,,,,,gelb,blue,b,0.0,b,1.0,0.53558189999967,,,,,,,,,,5.0,9.0,69.0,9.0,284.0533297000002,,,,,,,,,,,,,,,,,284.0402044999992,284.1531863,284.9534635,284.93954099999974,,,,,,,,,,,,,,,,,,,,,,,,,,,,,,,,,,,284.9440126999998,284.9534635,284.9534635,285.5066432000003,b,1.0,0.53558189999967,,,,,,sub-176,1,stroop_test,59.96717396880828,
,,,,70.0,10.0,5.0,,,,,,,,,,,,,blau,blue,b,1.0,b,1.0,0.5732686999999714,,,,,,,,,,5.0,10.0,70.0,5.0,285.5205535999994,,,,,,,,,,,,,,,,,285.50719240000035,286.3205591999995,287.1205635999995,287.1053665999989,,,,,,,,,,,,,,,,,,,,,,,,,,,,,,,,,,,287.10937360000025,287.1205635999995,287.1205635999995,287.7065772999995,b,1.0,0.5732686999999714,,,,,,sub-176,1,stroop_test,59.96717396880828,
,,,,71.0,11.0,5.0,,,,,,,,,,,,,gelb,yellow,g,1.0,g,1.0,0.5189444000006915,,,,,,,,,,5.0,11.0,71.0,11.0,287.72057490000043,,,,,,,,,,,,,,,,,287.7071225,287.82111819999955,288.6210372000005,288.6058585999999,,,,,,,,,,,,,,,,,,,,,,,,,,,,,,,,,,,288.6113745999992,288.6210372000005,288.6210372000005,289.15783349999947,g,1.0,0.5189444000006915,,,,,,sub-176,1,stroop_test,59.96717396880828,
,,,,72.0,0.0,6.0,,,,,,,,,,,,,rot,red,r,1.0,r,1.0,0.4324252000005799,,,,,,,,,,6.0,0.0,72.0,1.0,289.1707821,,,,,,,,,,,,,,,,,289.1583950000004,289.5216418,290.32099410000046,290.3064560999992,,,,,,,,,,,,,,,,,,,,,,,,,,,,,,,,,,,290.31259599999976,290.32099410000046,290.32099410000046,290.7572712000001,r,1.0,0.4324252000005799,,,,,,sub-176,1,stroop_test,59.96717396880828,
,,,,73.0,1.0,6.0,,,,,,,,,,,,,blau,blue,b,1.0,b,1.0,0.6044517999998789,,,,,,,,,,6.0,1.0,73.0,6.0,290.7715277999996,,,,,,,,,,,,,,,,,290.7578218999988,291.12132389999897,291.92134160000023,291.9071129999993,,,,,,,,,,,,,,,,,,,,,,,,,,,,,,,,,,,291.9119066000003,291.92134160000023,291.92134160000023,292.5415530999999,b,1.0,0.6044517999998789,,,,,,sub-176,1,stroop_test,59.96717396880828,
,,,,74.0,2.0,6.0,,,,,,,,,,,,,gelb,red,r,0.0,r,1.0,0.6576920999996219,,,,,,,,,,6.0,2.0,74.0,8.0,292.55474030000005,,,,,,,,,,,,,,,,,292.54215320000003,292.6546247999995,293.455029499999,293.4411693999991,,,,,,,,,,,,,,,,,,,,,,,,,,,,,,,,,,,293.44635319999907,293.455029499999,293.455029499999,294.12498479999886,r,1.0,0.6576920999996219,,,,,,sub-176,1,stroop_test,59.96717396880828,
,,,,75.0,3.0,6.0,,,,,,,,,,,,,gelb,blue,b,0.0,b,1.0,0.5600813000000926,,,,,,,,,,6.0,3.0,75.0,9.0,294.13889629999903,,,,,,,,,,,,,,,,,294.12537299999894,294.4883762999998,295.2888547999992,295.27486599999975,,,,,,,,,,,,,,,,,,,,,,,,,,,,,,,,,,,295.27588189999915,295.2888547999992,295.2888547999992,295.85796949999894,b,1.0,0.5600813000000926,,,,,,sub-176,1,stroop_test,59.96717396880828,
,,,,76.0,4.0,6.0,,,,,,,,,,,,,gelb,yellow,g,1.0,g,1.0,0.6851664000005258,,,,,,,,,,6.0,4.0,76.0,11.0,295.8717364999993,,,,,,,,,,,,,,,,,295.85853490000045,296.6723294000003,297.47304950000034,297.4572546999989,,,,,,,,,,,,,,,,,,,,,,,,,,,,,,,,,,,297.45787999999993,297.47304950000034,297.47304950000034,298.1607205,g,1.0,0.6851664000005258,,,,,,sub-176,1,stroop_test,59.96717396880828,
,,,,77.0,5.0,6.0,,,,,,,,,,,,,gelb,yellow,g,1.0,g,1.0,0.5174511999994138,,,,,,,,,,6.0,5.0,77.0,10.0,298.1728882999996,,,,,,,,,,,,,,,,,298.16125420000026,298.27284859999963,299.0726034999989,299.05681229999936,,,,,,,,,,,,,,,,,,,,,,,,,,,,,,,,,,,299.05734759999905,299.0726034999989,299.0726034999989,299.59290859999965,g,1.0,0.5174511999994138,,,,,,sub-176,1,stroop_test,59.96717396880828,
,,,,78.0,6.0,6.0,,,,,,,,,,,,,rot,red,r,1.0,r,1.0,0.5238360000003013,,,,,,,,,,6.0,6.0,78.0,0.0,299.60617420000017,,,,,,,,,,,,,,,,,299.5933207999988,300.8061739999994,301.6067390999997,301.59110899999905,,,,,,,,,,,,,,,,,,,,,,,,,,,,,,,,,,,301.59548619999987,301.6067390999997,301.6067390999997,302.14204959999915,r,1.0,0.5238360000003013,,,,,,sub-176,1,stroop_test,59.96717396880828,
,,,,79.0,7.0,6.0,,,,,,,,,,,,,rot,blue,b,0.0,b,1.0,0.5530302000006486,,,,,,,,,,6.0,7.0,79.0,2.0,302.1570135000002,,,,,,,,,,,,,,,,,302.1425201999991,303.3574344999997,304.1569416000002,304.1415123999996,,,,,,,,,,,,,,,,,,,,,,,,,,,,,,,,,,,304.1420328999993,304.1569416000002,304.1569416000002,304.7274624000001,b,1.0,0.5530302000006486,,,,,,sub-176,1,stroop_test,59.96717396880828,
,,,,80.0,8.0,6.0,,,,,,,,,,,,,rot,yellow,g,0.0,g,1.0,1.561630400001377,,,,,,,,,,6.0,8.0,80.0,3.0,304.7403517999992,,,,,,,,,,,,,,,,,304.72793660000025,305.5405860999999,306.3407138999992,306.32556979999936,,,,,,,,,,,,,,,,,,,,,,,,,,,,,,,,,,,306.3263191999995,306.3407138999992,306.3407138999992,307.91035849999935,g,1.0,1.561630400001377,,,,,,sub-176,1,stroop_test,59.96717396880828,
,,,,81.0,9.0,6.0,,,,,,,,,,,,,blau,red,r,0.0,r,1.0,0.6525001999998494,,,,,,,,,,6.0,9.0,81.0,4.0,307.9242959000003,,,,,,,,,,,,,,,,,307.91080299999885,308.02446450000025,308.8247902999992,308.8104476999997,,,,,,,,,,,,,,,,,,,,,,,,,,,,,,,,,,,308.8164018999996,308.8247902999992,308.8247902999992,309.49396650000017,r,1.0,0.6525001999998494,,,,,,sub-176,1,stroop_test,59.96717396880828,
,,,,82.0,10.0,6.0,,,,,,,,,,,,,blau,yellow,g,0.0,g,1.0,0.7225508999999875,,,,,,,,,,6.0,10.0,82.0,7.0,309.5076606999992,,,,,,,,,,,,,,,,,309.4945475999993,310.30886400000054,311.1079807000005,311.09352729999955,,,,,,,,,,,,,,,,,,,,,,,,,,,,,,,,,,,311.09450409999954,311.1079807000005,311.1079807000005,311.8446122999994,g,1.0,0.7225508999999875,,,,,,sub-176,1,stroop_test,59.96717396880828,
,,,,83.0,11.0,6.0,,,,,,,,,,,,,blau,blue,b,1.0,b,1.0,0.5388007999990805,,,,,,,,,,6.0,11.0,83.0,5.0,311.8580409999995,,,,,,,,,,,,,,,,,311.84505960000024,312.6598574,313.4586316999994,313.4444822000005,,,,,,,,,,,,,,,,,,,,,,,,,,,,,,,,,,,313.44533169999886,313.4586316999994,313.4586316999994,314.01233349999893,b,1.0,0.5388007999990805,,,,,,sub-176,1,stroop_test,59.96717396880828,
,,,,84.0,0.0,7.0,,,,,,,,,,,,,rot,red,r,1.0,r,1.0,0.5889530000004015,,,,,,,,,,7.0,0.0,84.0,0.0,314.0257884999992,,,,,,,,,,,,,,,,,314.01271540000016,314.8257623999998,315.6264384999995,315.61049269999967,,,,,,,,,,,,,,,,,,,,,,,,,,,,,,,,,,,315.6151231999993,315.6264384999995,315.6264384999995,316.22854109999935,r,1.0,0.5889530000004015,,,,,,sub-176,1,stroop_test,59.96717396880828,
,,,,85.0,1.0,7.0,,,,,,,,,,,,,blau,yellow,g,0.0,g,1.0,0.5986900000007154,,,,,,,,,,7.0,1.0,85.0,7.0,316.24228779999976,,,,,,,,,,,,,,,,,316.2289576999992,316.5929534999996,317.3926664999999,317.37790139999925,,,,,,,,,,,,,,,,,,,,,,,,,,,,,,,,,,,317.38486530000046,317.3926664999999,317.3926664999999,317.9956287999994,g,1.0,0.5986900000007154,,,,,,sub-176,1,stroop_test,59.96717396880828,
,,,,86.0,2.0,7.0,,,,,,,,,,,,,rot,yellow,g,0.0,g,1.0,0.5467554999995627,,,,,,,,,,7.0,2.0,86.0,3.0,318.0102062999995,,,,,,,,,,,,,,,,,317.9964526999993,318.3593963000003,319.1597942999997,319.14451369999915,,,,,,,,,,,,,,,,,,,,,,,,,,,,,,,,,,,319.14888119999887,319.1597942999997,319.1597942999997,319.7121255999991,g,1.0,0.5467554999995627,,,,,,sub-176,1,stroop_test,59.96717396880828,
,,,,87.0,3.0,7.0,,,,,,,,,,,,,rot,blue,b,0.0,b,1.0,0.582407100000637,,,,,,,,,,7.0,3.0,87.0,2.0,319.7263368999993,,,,,,,,,,,,,,,,,319.7126059000002,320.0769182999993,320.8764873,320.8616306999993,,,,,,,,,,,,,,,,,,,,,,,,,,,,,,,,,,,320.8623138999992,320.8764873,320.8764873,321.4630235000004,b,1.0,0.582407100000637,,,,,,sub-176,1,stroop_test,59.96717396880828,
,,,,88.0,4.0,7.0,,,,,,,,,,,,,blau,blue,b,1.0,b,1.0,0.5184287000010954,,,,,,,,,,7.0,4.0,88.0,6.0,321.4768310999989,,,,,,,,,,,,,,,,,321.4634542999993,321.5766674999996,322.3768695999988,322.362667899999,,,,,,,,,,,,,,,,,,,,,,,,,,,,,,,,,,,322.3688820999996,322.3768695999988,322.3768695999988,322.9126219999998,b,1.0,0.5184287000010954,,,,,,sub-176,1,stroop_test,59.96717396880828,
,,,,89.0,5.0,7.0,,,,,,,,,,,,,blau,red,r,0.0,r,1.0,0.5036227000000508,,,,,,,,,,7.0,5.0,89.0,4.0,322.9271167999996,,,,,,,,,,,,,,,,,322.9130974,323.72877229999904,324.54372539999895,324.5289250000005,,,,,,,,,,,,,,,,,,,,,,,,,,,,,,,,,,,324.52952150000056,324.54372539999895,324.54372539999895,325.06435500000043,r,1.0,0.5036227000000508,,,,,,sub-176,1,stroop_test,59.96717396880828,
,,,,90.0,6.0,7.0,,,,,,,,,,,,,rot,red,r,1.0,r,1.0,0.4904987999998411,,,,,,,,,,7.0,6.0,90.0,1.0,325.0768509999998,,,,,,,,,,,,,,,,,325.0648115999993,326.2776546999994,327.0777027000004,327.0626288000003,,,,,,,,,,,,,,,,,,,,,,,,,,,,,,,,,,,327.0669390999992,327.0777027000004,327.0777027000004,327.58095519999915,r,1.0,0.4904987999998411,,,,,,sub-176,1,stroop_test,59.96717396880828,
,,,,91.0,7.0,7.0,,,,,,,,,,,,,blau,blue,b,1.0,b,1.0,0.504301699998905,,,,,,,,,,7.0,7.0,91.0,5.0,327.59432279999965,,,,,,,,,,,,,,,,,327.58156280000003,328.7943852999997,329.59478970000055,329.580301,,,,,,,,,,,,,,,,,,,,,,,,,,,,,,,,,,,329.5849782999994,329.59478970000055,329.59478970000055,330.11376779999955,b,1.0,0.504301699998905,,,,,,sub-176,1,stroop_test,59.96717396880828,
,,,,92.0,8.0,7.0,,,,,,,,,,,,,gelb,yellow,g,1.0,g,1.0,0.5658975000005739,,,,,,,,,,7.0,8.0,92.0,10.0,330.12856509999983,,,,,,,,,,,,,,,,,330.11427249999906,330.47838599999886,331.2782944999999,331.2636846000005,,,,,,,,,,,,,,,,,,,,,,,,,,,,,,,,,,,331.270568599999,331.2782944999999,331.2782944999999,331.84881940000014,g,1.0,0.5658975000005739,,,,,,sub-176,1,stroop_test,59.96717396880828,
,,,,93.0,9.0,7.0,,,,,,,,,,,,,gelb,yellow,g,1.0,g,1.0,0.5183862000012596,,,,,,,,,,7.0,9.0,93.0,11.0,331.8619282,,,,,,,,,,,,,,,,,331.8493989999988,333.0620239,333.86258739999903,333.84805550000056,,,,,,,,,,,,,,,,,,,,,,,,,,,,,,,,,,,333.8487660999999,333.86258739999903,333.86258739999903,334.3981683000002,g,1.0,0.5183862000012596,,,,,,sub-176,1,stroop_test,59.96717396880828,
,,,,94.0,10.0,7.0,,,,,,,,,,,,,gelb,red,r,0.0,r,1.0,0.5983732999993663,,,,,,,,,,7.0,10.0,94.0,8.0,334.4121350000005,,,,,,,,,,,,,,,,,334.39871589999893,334.5122195000004,335.3125509999991,335.29811680000057,,,,,,,,,,,,,,,,,,,,,,,,,,,,,,,,,,,335.2993041999998,335.3125509999991,335.3125509999991,335.9157214999996,r,1.0,0.5983732999993663,,,,,,sub-176,1,stroop_test,59.96717396880828,
,,,,95.0,11.0,7.0,,,,,,,,,,,,,gelb,blue,b,0.0,b,1.0,0.5377253999995446,,,,,,,,,,7.0,11.0,95.0,9.0,335.92933099999937,,,,,,,,,,,,,,,,,335.9162496999997,337.129336,337.9299221000001,337.9150993000003,,,,,,,,,,,,,,,,,,,,,,,,,,,,,,,,,,,337.9159817,337.9299221000001,337.9299221000001,338.4837489999991,b,1.0,0.5377253999995446,,,,,,sub-176,1,stroop_test,59.96717396880828,
,,,,96.0,0.0,8.0,,,,,,,,,,,,,blau,blue,b,1.0,b,1.0,0.4239711000009265,,,,,,,,,,8.0,0.0,96.0,5.0,338.49614870000005,,,,,,,,,,,,,,,,,338.48430089999965,339.2966586999992,340.09621849999894,340.082776199999,,,,,,,,,,,,,,,,,,,,,,,,,,,,,,,,,,,340.0883095999998,340.09621849999894,340.09621849999894,340.53391679999913,b,1.0,0.4239711000009265,,,,,,sub-176,1,stroop_test,59.96717396880828,
,,,,97.0,1.0,8.0,,,,,,,,,,,,,rot,blue,b,0.0,r,0.0,0.6352074999995239,,,,,,,,,,8.0,1.0,97.0,2.0,340.5466257999997,,,,,,,,,,,,,,,,,340.53456279999955,340.6466505999997,341.4470258000001,341.4315372000001,,,,,,,,,,,,,,,,,,,,,,,,,,,,,,,,,,,341.43546249999963,341.4470258000001,341.4470258000001,342.0997893999993,r,0.0,0.6352074999995239,,,,,,sub-176,1,stroop_test,59.96717396880828,
,,,,98.0,2.0,8.0,,,,,,,,,,,,,blau,blue,b,1.0,b,1.0,0.8069266999991669,,,,,,,,,,8.0,2.0,98.0,6.0,342.11341829999947,,,,,,,,,,,,,,,,,342.1004176999995,342.21427330000006,343.01390489999903,342.99933409999903,,,,,,,,,,,,,,,,,,,,,,,,,,,,,,,,,,,343.0034625999997,343.01390489999903,343.01390489999903,343.8336029000002,b,1.0,0.8069266999991669,,,,,,sub-176,1,stroop_test,59.96717396880828,
,,,,99.0,3.0,8.0,,,,,,,,,,,,,rot,red,r,1.0,r,1.0,0.5941002999988996,,,,,,,,,,8.0,3.0,99.0,0.0,343.8474389999992,,,,,,,,,,,,,,,,,343.8341366000004,343.9469195999991,344.74741749999885,344.73340800000005,,,,,,,,,,,,,,,,,,,,,,,,,,,,,,,,,,,344.739510899999,344.74741749999885,344.74741749999885,345.3501164999998,r,1.0,0.5941002999988996,,,,,,sub-176,1,stroop_test,59.96717396880828,
,,,,100.0,4.0,8.0,,,,,,,,,,,,,blau,yellow,g,0.0,g,1.0,1.0534991000004084,,,,,,,,,,8.0,4.0,100.0,7.0,345.36435229999915,,,,,,,,,,,,,,,,,345.35061850000056,346.5645483999997,347.3643682000002,347.34922039999947,,,,,,,,,,,,,,,,,,,,,,,,,,,,,,,,,,,347.35370729999886,347.3643682000002,347.3643682000002,348.4339457000005,g,1.0,1.0534991000004084,,,,,,sub-176,1,stroop_test,59.96717396880828,
,,,,101.0,5.0,8.0,,,,,,,,,,,,,gelb,yellow,g,1.0,g,1.0,0.6761024000006728,,,,,,,,,,8.0,5.0,101.0,11.0,348.4481629999991,,,,,,,,,,,,,,,,,348.4354076999989,349.2482751999996,350.0484123999995,350.0340250999998,,,,,,,,,,,,,,,,,,,,,,,,,,,,,,,,,,,350.0391500000005,350.0484123999995,350.0484123999995,350.7355095999992,g,1.0,0.6761024000006728,,,,,,sub-176,1,stroop_test,59.96717396880828,
,,,,102.0,6.0,8.0,,,,,,,,,,,,,rot,yellow,g,0.0,g,1.0,1.035768100000496,,,,,,,,,,8.0,6.0,102.0,3.0,350.7487146000003,,,,,,,,,,,,,,,,,350.7360571999998,350.8487435999996,351.6484574999995,351.63446470000054,,,,,,,,,,,,,,,,,,,,,,,,,,,,,,,,,,,351.63906769999994,351.6484574999995,351.6484574999995,352.7019478000002,g,1.0,1.035768100000496,,,,,,sub-176,1,stroop_test,59.96717396880828,
,,,,103.0,7.0,8.0,,,,,,,,,,,,,blau,red,r,0.0,r,1.0,0.8322683000005782,,,,,,,,,,8.0,7.0,103.0,4.0,352.7157363999995,,,,,,,,,,,,,,,,,352.7032084999992,352.81543839999904,353.61563079999905,353.6009080999993,,,,,,,,,,,,,,,,,,,,,,,,,,,,,,,,,,,353.6065565999997,353.61563079999905,353.61563079999905,354.4520438,r,1.0,0.8322683000005782,,,,,,sub-176,1,stroop_test,59.96717396880828,
,,,,104.0,8.0,8.0,,,,,,,,,,,,,gelb,red,r,0.0,r,1.0,1.9970233000003643,,,,,,,,,,8.0,8.0,104.0,8.0,354.4660659000001,,,,,,,,,,,,,,,,,354.45245350000005,355.66609659999995,356.46717940000053,356.45107239999925,,,,,,,,,,,,,,,,,,,,,,,,,,,,,,,,,,,356.4579283000003,356.46717940000053,356.46717940000053,358.4705660999989,r,1.0,1.9970233000003643,,,,,,sub-176,1,stroop_test,59.96717396880828,
,,,,105.0,9.0,8.0,,,,,,,,,,,,,gelb,yellow,g,1.0,g,1.0,1.0434590000004391,,,,,,,,,,8.0,9.0,105.0,10.0,358.48312069999884,,,,,,,,,,,,,,,,,358.47121010000046,359.28362109999944,360.0843875999999,360.0681636999998,,,,,,,,,,,,,,,,,,,,,,,,,,,,,,,,,,,360.0688458000004,360.0843875999999,360.0843875999999,361.1376772000003,g,1.0,1.0434590000004391,,,,,,sub-176,1,stroop_test,59.96717396880828,
,,,,106.0,10.0,8.0,,,,,,,,,,,,,rot,red,r,1.0,r,1.0,0.6702186000002257,,,,,,,,,,8.0,10.0,106.0,1.0,361.1504222000003,,,,,,,,,,,,,,,,,361.1383367999988,361.25039819999984,362.0505988999994,362.0357060999995,,,,,,,,,,,,,,,,,,,,,,,,,,,,,,,,,,,362.0407806999992,362.0505988999994,362.0505988999994,362.7372135000005,r,1.0,0.6702186000002257,,,,,,sub-176,1,stroop_test,59.96717396880828,
,,,,107.0,11.0,8.0,,,,,,,,,,,,,gelb,blue,b,0.0,b,1.0,0.5969594999987748,,,,,,,,,,8.0,11.0,107.0,9.0,362.75075879999895,,,,,,,,,,,,,,,,,362.7376669999994,363.10050559999945,363.90102769999976,363.8869448000005,,,,,,,,,,,,,,,,,,,,,,,,,,,,,,,,,,,363.8915479999996,363.90102769999976,363.90102769999976,364.5036006999999,b,1.0,0.5969594999987748,,,,,,sub-176,1,stroop_test,59.96717396880828,
,,,,108.0,0.0,9.0,,,,,,,,,,,,,gelb,red,r,0.0,r,1.0,0.5597262000010232,,,,,,,,,,9.0,0.0,108.0,8.0,364.51786399999946,,,,,,,,,,,,,,,,,364.5041774999991,365.7180833999992,366.5178333000004,366.5034273000001,,,,,,,,,,,,,,,,,,,,,,,,,,,,,,,,,,,366.5044591999995,366.5178333000004,366.5178333000004,367.0882175999996,r,1.0,0.5597262000010232,,,,,,sub-176,1,stroop_test,59.96717396880828,
,,,,109.0,1.0,9.0,,,,,,,,,,,,,blau,blue,b,1.0,b,1.0,0.6944628000001103,,,,,,,,,,9.0,1.0,109.0,5.0,367.1015179999995,,,,,,,,,,,,,,,,,367.08888819999993,367.90129759999945,368.7015544000005,368.6874506999993,,,,,,,,,,,,,,,,,,,,,,,,,,,,,,,,,,,368.69263580000006,368.7015544000005,368.7015544000005,369.40420540000014,b,1.0,0.6944628000001103,,,,,,sub-176,1,stroop_test,59.96717396880828,
,,,,110.0,2.0,9.0,,,,,,,,,,,,,blau,yellow,g,0.0,g,1.0,0.7894503000006807,,,,,,,,,,9.0,2.0,110.0,7.0,369.4185386999998,,,,,,,,,,,,,,,,,369.4047124999997,370.2188583999996,371.0186947999992,371.0034309999992,,,,,,,,,,,,,,,,,,,,,,,,,,,,,,,,,,,371.0042171999994,371.0186947999992,371.0186947999992,371.822376099999,g,1.0,0.7894503000006807,,,,,,sub-176,1,stroop_test,59.96717396880828,
,,,,111.0,3.0,9.0,,,,,,,,,,,,,rot,yellow,g,0.0,g,1.0,1.105097300000125,,,,,,,,,,9.0,3.0,111.0,3.0,371.8355481999988,,,,,,,,,,,,,,,,,371.8229176000005,373.03572840000015,373.8366927999996,373.8218823999996,,,,,,,,,,,,,,,,,,,,,,,,,,,,,,,,,,,373.82788470000014,373.8366927999996,373.8366927999996,374.95610809999926,g,1.0,1.105097300000125,,,,,,sub-176,1,stroop_test,59.96717396880828,
,,,,112.0,4.0,9.0,,,,,,,,,,,,,blau,blue,b,1.0,b,1.0,0.6375931000002311,,,,,,,,,,9.0,4.0,112.0,6.0,374.9691332999992,,,,,,,,,,,,,,,,,374.956623099999,375.3197296999988,376.1204141999988,376.1056009999993,,,,,,,,,,,,,,,,,,,,,,,,,,,,,,,,,,,376.1116879000001,376.1204141999988,376.1204141999988,376.7730350999991,b,1.0,0.6375931000002311,,,,,,sub-176,1,stroop_test,59.96717396880828,
,,,,113.0,5.0,9.0,,,,,,,,,,,,,gelb,yellow,g,1.0,g,1.0,0.8876098999990063,,,,,,,,,,9.0,5.0,113.0,11.0,376.7864525999994,,,,,,,,,,,,,,,,,376.77351760000056,377.9873738999995,378.78839849999895,378.7726301000002,,,,,,,,,,,,,,,,,,,,,,,,,,,,,,,,,,,378.7799892000003,378.78839849999895,378.78839849999895,379.6907216999989,g,1.0,0.8876098999990063,,,,,,sub-176,1,stroop_test,59.96717396880828,
,,,,114.0,6.0,9.0,,,,,,,,,,,,,blau,red,r,0.0,r,1.0,0.6511835000001156,,,,,,,,,,9.0,6.0,114.0,4.0,379.7037889000003,,,,,,,,,,,,,,,,,379.69134060000033,380.5036421999994,381.3037877999996,381.2894961000002,,,,,,,,,,,,,,,,,,,,,,,,,,,,,,,,,,,381.2952218999999,381.3037877999996,381.3037877999996,381.9734532000002,r,1.0,0.6511835000001156,,,,,,sub-176,1,stroop_test,59.96717396880828,
,,,,115.0,7.0,9.0,,,,,,,,,,,,,rot,red,r,1.0,r,1.0,0.6757807999983925,,,,,,,,,,9.0,7.0,115.0,0.0,381.9875063999989,,,,,,,,,,,,,,,,,381.9739494999994,382.7874840000004,383.5874339999991,383.5735101999999,,,,,,,,,,,,,,,,,,,,,,,,,,,,,,,,,,,383.57968529999926,383.5874339999991,383.5874339999991,384.27492879999954,r,1.0,0.6757807999983925,,,,,,sub-176,1,stroop_test,59.96717396880828,
,,,,116.0,8.0,9.0,,,,,,,,,,,,,gelb,blue,b,0.0,b,1.0,0.7885322000001906,,,,,,,,,,9.0,8.0,116.0,9.0,384.28767849999895,,,,,,,,,,,,,,,,,384.2755422999999,385.4884487,386.28807609999967,386.2743582000003,,,,,,,,,,,,,,,,,,,,,,,,,,,,,,,,,,,386.2788277,386.28807609999967,386.28807609999967,387.0918435000003,b,1.0,0.7885322000001906,,,,,,sub-176,1,stroop_test,59.96717396880828,
,,,,117.0,9.0,9.0,,,,,,,,,,,,,rot,red,r,1.0,r,1.0,0.4998078000007808,,,,,,,,,,9.0,9.0,117.0,1.0,387.1051212000002,,,,,,,,,,,,,,,,,387.0923332999992,387.90492859999904,388.706430799999,388.6905759999991,,,,,,,,,,,,,,,,,,,,,,,,,,,,,,,,,,,388.69577690000006,388.706430799999,388.706430799999,389.20963029999984,r,1.0,0.4998078000007808,,,,,,sub-176,1,stroop_test,59.96717396880828,
,,,,118.0,10.0,9.0,,,,,,,,,,,,,gelb,yellow,g,1.0,g,1.0,0.4718910999999934,,,,,,,,,,9.0,10.0,118.0,10.0,389.222081599999,,,,,,,,,,,,,,,,,389.21013929999935,390.422313699999,391.2223130999992,391.2074410999994,,,,,,,,,,,,,,,,,,,,,,,,,,,,,,,,,,,391.2115193999998,391.2223130999992,391.2223130999992,391.70852939999895,g,1.0,0.4718910999999934,,,,,,sub-176,1,stroop_test,59.96717396880828,
,,,,119.0,11.0,9.0,,,,,,,,,,,,,rot,blue,b,0.0,b,1.0,0.7740564999985509,,,,,,,,,,9.0,11.0,119.0,2.0,391.72259490000033,,,,,,,,,,,,,,,,,391.7092527999994,392.522578099999,393.32284400000026,393.3072500999988,,,,,,,,,,,,,,,,,,,,,,,,,,,,,,,,,,,393.3116302999988,393.32284400000026,393.32284400000026,394.10992780000015,b,1.0,0.7740564999985509,,,,,,sub-176,1,stroop_test,59.96717396880828,
,,,,,,,,,,,,,,,,,,,,,,,,,,,,,,,,,,,,,,,,,,,,,,,,,,,,,,,,,,,,,,,,,,,,,,,,,,,,,,,,,,,,,,,,,,,,,,,,,,,,,,394.11020439999993,394.1238892000001,399.1239716,399.1089747999995,sub-176,1,stroop_test,59.96717396880828,
