wordCTK,colorCTK,corrAnsCTK,congruentCTK,thisN,thisTrialN,thisRepN,keyResp_CTK.keys,keyResp_CTK.corr,keyResp_CTK.rt,keyResp_CTK.duration,wordPractice,colorPractice,corrAnsPractice,congruentPractice,respPractice.keys,respPractice.corr,respPractice.rt,respPractice.duration,word,color,corrAns,congruent,keyResp_test_run.keys,keyResp_test_run.corr,keyResp_test_run.rt,keyResp_test_run.duration,trials_CTK.thisRepN,trials_CTK.thisTrialN,trials_CTK.thisN,trials_CTK.thisIndex,trials_practice.thisRepN,trials_practice.thisTrialN,trials_practice.thisN,trials_practice.thisIndex,trials_test.thisRepN,trials_test.thisTrialN,trials_test.thisN,trials_test.thisIndex,thisRow.t,notes,instruction.started,instr_text.started,instr_image.started,instr_resp.started,instruction.stopped,instr_resp.keys,instr_resp.rt,instr_resp.duration,instr_color_to_key.started,instr_ctk.started,resp_ctk.started,instr_color_to_key.stopped,resp_ctk.keys,resp_ctk.rt,resp_ctk.duration,ITI.started,fixcross.started,fixcross.stopped,ITI.stopped,color_to_key_run.started,stimulus_CTK.started,keyResp_CTK.started,color_to_key_run.stopped,trials_CTK.keyResp_CTK.keys,trials_CTK.keyResp_CTK.corr,trials_CTK.keyResp_CTK.rt,trials_CTK.keyResp_CTK.duration,instr_practice.started,instr_practice_text.started,instr_practice_resp.started,instr_practice.stopped,instr_practice_resp.keys,instr_practice_resp.rt,instr_practice_resp.duration,practice_run.started,stimulus_practice.started,respPractice.started,practice_run.stopped,trials_practice.respPractice.keys,trials_practice.respPractice.corr,trials_practice.respPractice.rt,trials_practice.respPractice.duration,feedback.started,textFeedback.started,feedback.stopped,textFeedback.stopped,instr_test.started,instr_test_text.started,instr_test_resp.started,instr_test.stopped,instr_test_resp.keys,instr_test_resp.rt,instr_test_resp.duration,test_run.started,stimulus_test_run.started,keyResp_test_run.started,test_run.stopped,trials_test.keyResp_test_run.keys,trials_test.keyResp_test_run.corr,trials_test.keyResp_test_run.rt,trials_test.keyResp_test_run.duration,goodbye.started,textGoodbye.started,textGoodbye.stopped,goodbye.stopped,participant,session,expName,frameRate,Unnamed: 113
,,,,,,,,,,,,,,,,,,,,,,,,,,,,,,,,,,,,,,,,,0.0032238999847322,0.1285070999874733,0.1285070999874733,0.1285070999874733,46.9471835999866,space,46.72847869998077,,,,,,,,,,,,,,,,,,,,,,,,,,,,,,,,,,,,,,,,,,,,,,,,,,,,,,,,,,,sub-061,1,stroop_test,60.112879950737714,
,,,,,,,,,,,,,,,,,,,,,,,,,,,,,,,,,,,,,,,,,,,,,,,,,46.94729539996479,46.9559608999989,46.9559608999989,60.60124599997653,space,13.630835900024977,,,,,,,,,,,,,,,,,,,,,,,,,,,,,,,,,,,,,,,,,,,,,,,,,,,,sub-061,1,stroop_test,60.112879950737714,
test,blue,b,1.0,0.0,0.0,0.0,b,1.0,0.9208222000161186,,,,,,,,,,,,,,,,,,0.0,0.0,0.0,2.0,,,,,,,,,60.660176199977286,,,,,,,,,,,,,,,,,60.65708129998529,61.41613059997326,62.2449123999686,62.20081259997096,62.23885299998801,62.2449123999686,62.2449123999686,63.16853219998302,b,1.0,0.9208222000161186,,,,,,,,,,,,,,,,,,,,,,,,,,,,,,,,,,,,,,,,sub-061,1,stroop_test,60.112879950737714,
test,red,r,1.0,1.0,1.0,0.0,r,1.0,2.0093427000101656,,,,,,,,,,,,,,,,,,0.0,1.0,1.0,0.0,,,,,,,,,63.18300699995598,,,,,,,,,,,,,,,,,63.16916210000636,63.283272199973,64.08319380000466,64.06763229996432,64.06836669996846,64.08319380000466,64.08319380000466,66.10244919999968,r,1.0,2.0093427000101656,,,,,,,,,,,,,,,,,,,,,,,,,,,,,,,,,,,,,,,,sub-061,1,stroop_test,60.112879950737714,
test,yellow,g,1.0,2.0,2.0,0.0,g,1.0,1.1272469000541605,,,,,,,,,,,,,,,,,,0.0,2.0,2.0,1.0,,,,,,,,,66.11673609999707,,,,,,,,,,,,,,,,,66.10297869995702,66.91666359995725,67.71682079997845,67.70098239998333,67.70152639999287,67.71682079997845,67.71682079997845,68.85208839998813,g,1.0,1.1272469000541605,,,,,,,,,,,,,,,,,,,,,,,,,,,,,,,,,,,,,,,,sub-061,1,stroop_test,60.112879950737714,
test,yellow,g,1.0,3.0,0.0,1.0,g,1.0,0.5637713000178337,,,,,,,,,,,,,,,,,,1.0,0.0,3.0,1.0,,,,,,,,,68.86679100000765,,,,,,,,,,,,,,,,,68.85254489997169,70.06707049999386,70.86723499995423,70.8514809999615,70.8524400999886,70.86723499995423,70.86723499995423,71.43676889996277,g,1.0,0.5637713000178337,,,,,,,,,,,,,,,,,,,,,,,,,,,,,,,,,,,,,,,,sub-061,1,stroop_test,60.112879950737714,
test,red,r,1.0,4.0,1.0,1.0,r,1.0,0.4728368999785743,,,,,,,,,,,,,,,,,,1.0,1.0,4.0,0.0,,,,,,,,,71.45030510000652,,,,,,,,,,,,,,,,,71.4377343999804,71.80066379997879,72.6007074000081,72.58524339995347,72.58603539998876,72.6007074000081,72.6007074000081,73.08644729998196,r,1.0,0.4728368999785743,,,,,,,,,,,,,,,,,,,,,,,,,,,,,,,,,,,,,,,,sub-061,1,stroop_test,60.112879950737714,
test,blue,b,1.0,5.0,2.0,1.0,b,1.0,0.5466611000010744,,,,,,,,,,,,,,,,,,1.0,2.0,5.0,2.0,,,,,,,,,73.10065759997815,,,,,,,,,,,,,,,,,73.08690369996475,73.45104749995517,74.2506537999725,74.23518839996541,74.23582249996252,74.2506537999725,74.2506537999725,74.80317059997469,b,1.0,0.5466611000010744,,,,,,,,,,,,,,,,,,,,,,,,,,,,,,,,,,,,,,,,sub-061,1,stroop_test,60.112879950737714,
test,yellow,g,1.0,6.0,0.0,2.0,g,1.0,1.0328029000083916,,,,,,,,,,,,,,,,,,2.0,0.0,6.0,1.0,,,,,,,,,74.8172726999619,,,,,,,,,,,,,,,,,74.80371479998576,74.91749899997376,75.71754519996466,75.70217459998094,75.70284559996799,75.71754519996466,75.71754519996466,76.75337109999964,g,1.0,1.0328029000083916,,,,,,,,,,,,,,,,,,,,,,,,,,,,,,,,,,,,,,,,sub-061,1,stroop_test,60.112879950737714,
test,blue,b,1.0,7.0,1.0,2.0,b,1.0,0.6776728000259027,,,,,,,,,,,,,,,,,,2.0,1.0,7.0,2.0,,,,,,,,,76.76757769996766,,,,,,,,,,,,,,,,,76.75385149999056,76.86755809996976,77.66786409995984,77.65221390000079,77.65293749998091,77.66786409995984,77.66786409995984,78.35385309997946,b,1.0,0.6776728000259027,,,,,,,,,,,,,,,,,,,,,,,,,,,,,,,,,,,,,,,,sub-061,1,stroop_test,60.112879950737714,
test,red,r,1.0,8.0,2.0,2.0,r,1.0,0.5223045999882743,,,,,,,,,,,,,,,,,,2.0,2.0,8.0,0.0,,,,,,,,,78.36780000000726,,,,,,,,,,,,,,,,,78.35435029998189,78.46782199997688,79.26788709999528,79.25271599995904,79.25343300000532,79.26788709999528,79.26788709999528,79.80321280000499,r,1.0,0.5223045999882743,,,,,,,,,,,,,,,,,,,,,,,,,,,,,,,,,,,,,,,,sub-061,1,stroop_test,60.112879950737714,
test,yellow,g,1.0,9.0,0.0,3.0,g,1.0,0.5501495000207797,,,,,,,,,,,,,,,,,,3.0,0.0,9.0,1.0,,,,,,,,,79.81771779997507,,,,,,,,,,,,,,,,,79.8037495999597,81.01808139996137,81.81812919996446,81.80246589996386,81.80325789999915,81.81812919996446,81.81812919996446,82.37083420000272,g,1.0,0.5501495000207797,,,,,,,,,,,,,,,,,,,,,,,,,,,,,,,,,,,,,,,,sub-061,1,stroop_test,60.112879950737714,
test,blue,b,1.0,10.0,1.0,3.0,b,1.0,0.6421463000006042,,,,,,,,,,,,,,,,,,3.0,1.0,10.0,2.0,,,,,,,,,82.3847588999779,,,,,,,,,,,,,,,,,82.37145639996743,82.48458269995172,83.2849026999902,83.26970429997891,83.27038489998085,83.2849026999902,83.2849026999902,83.93685409997124,b,1.0,0.6421463000006042,,,,,,,,,,,,,,,,,,,,,,,,,,,,,,,,,,,,,,,,sub-061,1,stroop_test,60.112879950737714,
test,red,r,1.0,11.0,2.0,3.0,r,1.0,0.6004835999920033,,,,,,,,,,,,,,,,,,3.0,2.0,11.0,0.0,,,,,,,,,83.95170839998173,,,,,,,,,,,,,,,,,83.93738779996056,84.30159449996427,85.10145969997393,85.08606449997751,85.08679109998047,85.10145969997393,85.10145969997393,85.7043290999718,r,1.0,0.6004835999920033,,,,,,,,,,,,,,,,,,,,,,,,,,,,,,,,,,,,,,,,sub-061,1,stroop_test,60.112879950737714,
,,,,,,,,,,,,,,,,,,,,,,,,,,,,,,,,,,,,,,,,,,,,,,,,,,,,,,,,,,,,,,,,,,,,85.70454239996616,85.71833249996416,85.71833249996416,91.5881095000077,space,5.857151800009888,,,,,,,,,,,,,,,,,,,,,,,,,,,,,,,,,sub-061,1,stroop_test,60.112879950737714,
,,,,0.0,0.0,0.0,,,,,blau,red,r,0.0,r,1.0,0.7748888999922201,,,,,,,,,,,,,,0.0,0.0,0.0,4.0,,,,,91.6089925999986,,,,,,,,,,,,,,,,,91.60410249995766,91.70315379998648,92.51103989995318,92.48702010000125,,,,,,,,,,,,,,,,92.50481660000514,92.51103989995318,92.51103989995318,93.28886669996427,r,1.0,0.7748888999922201,,93.30987719999392,93.31842440000035,94.30269869999027,,,,,,,,,,,,,,,,,,,,,sub-061,1,stroop_test,60.112879950737714,
,,,,1.0,1.0,0.0,,,,,gelb,yellow,g,1.0,g,1.0,0.3913494999869726,,,,,,,,,,,,,,0.0,1.0,1.0,10.0,,,,,94.31914739997592,,,,,,,,,,,,,,,,,94.30329259997234,95.50280349998502,96.30298219999533,96.28758629999356,,,,,,,,,,,,,,,,96.29369429999495,96.30298219999533,96.30298219999533,96.70489999995334,g,1.0,0.3913494999869726,,96.70562510000308,96.71926829998849,97.70410209998954,97.71938889997546,,,,,,,,,,,,,,,,,,,,sub-061,1,stroop_test,60.112879950737714,
,,,,2.0,2.0,0.0,,,,,rot,blue,b,0.0,b,1.0,0.6661744000157341,,,,,,,,,,,,,,0.0,2.0,2.0,2.0,,,,,97.71938889997546,,,,,,,,,,,,,,,,,97.70462279999629,97.81962099997328,98.62053009995724,98.60418619995473,,,,,,,,,,,,,,,,98.61384859995452,98.62053009995724,98.62053009995724,99.28897279995726,b,1.0,0.6661744000157341,,99.29008750000504,99.30309669999406,100.2877479000017,100.30319909995887,,,,,,,,,,,,,,,,,,,,sub-061,1,stroop_test,60.112879950737714,
,,,,3.0,3.0,0.0,,,,,rot,yellow,g,0.0,g,1.0,0.4259633999899961,,,,,,,,,,,,,,0.0,3.0,3.0,3.0,,,,,100.30319909995887,,,,,,,,,,,,,,,,,100.28819069999736,100.4032622000086,101.20323619997362,101.18761259998428,,,,,,,,,,,,,,,,101.18837429996348,101.20323619997362,101.20323619997362,101.63952470000368,g,1.0,0.4259633999899961,,101.64065779995872,101.6533159999526,102.63798529998166,102.65350709995256,,,,,,,,,,,,,,,,,,,,sub-061,1,stroop_test,60.112879950737714,
,,,,4.0,4.0,0.0,,,,,gelb,red,r,0.0,r,1.0,0.3934527999954298,,,,,,,,,,,,,,0.0,4.0,4.0,8.0,,,,,102.65350709995256,,,,,,,,,,,,,,,,,102.63854159996843,102.753303400008,103.55332879995694,103.5380244999542,,,,,,,,,,,,,,,,103.54410519998056,103.55332879995694,103.55332879995694,103.9558102999581,r,1.0,0.3934527999954298,,103.95655719999922,103.9699571999954,104.9549779999652,104.96994229999837,,,,,,,,,,,,,,,,,,,,sub-061,1,stroop_test,60.112879950737714,
,,,,5.0,5.0,0.0,,,,,blau,yellow,g,0.0,g,1.0,0.3207520000287331,,,,,,,,,,,,,,0.0,5.0,5.0,7.0,,,,,104.96994229999837,,,,,,,,,,,,,,,,,104.95541639998557,105.77028060000156,106.57032959995558,106.55504329997348,,,,,,,,,,,,,,,,106.56012479995844,106.57032959995558,106.57032959995558,106.90557889995398,g,1.0,0.3207520000287331,,106.90640539996092,106.92062469996743,107.9053195999586,107.92045599996344,,,,,,,,,,,,,,,,,,,,sub-061,1,stroop_test,60.112879950737714,
,,,,6.0,6.0,0.0,,,,,rot,red,r,1.0,r,1.0,0.4591232999810017,,,,,,,,,,,,,,0.0,6.0,6.0,1.0,,,,,107.92045599996344,,,,,,,,,,,,,,,,,107.9058191999793,108.27053969999542,109.0705517999595,109.0552592999884,,,,,,,,,,,,,,,,109.06223599996883,109.0705517999595,109.0705517999595,109.53921729995636,r,1.0,0.4591232999810017,,109.5399325999897,109.55396869999822,110.53842150000855,110.55431989999488,,,,,,,,,,,,,,,,,,,,sub-061,1,stroop_test,60.112879950737714,
,,,,7.0,7.0,0.0,,,,,blau,blue,b,1.0,b,1.0,0.4086913000210188,,,,,,,,,,,,,,0.0,7.0,7.0,6.0,,,,,110.55431989999488,,,,,,,,,,,,,,,,,110.5388223999762,110.65398399997504,111.4542964999564,111.43868229998044,,,,,,,,,,,,,,,,111.44451649999246,111.4542964999564,111.4542964999564,111.87300169997616,b,1.0,0.4086913000210188,,111.8737117999699,111.88749930000633,112.8723831999814,112.88746149995131,,,,,,,,,,,,,,,,,,,,sub-061,1,stroop_test,60.112879950737714,
,,,,8.0,8.0,0.0,,,,,gelb,yellow,g,1.0,g,1.0,0.3442631000070832,,,,,,,,,,,,,,0.0,8.0,8.0,11.0,,,,,112.88746149995131,,,,,,,,,,,,,,,,,112.87287729996024,112.98749440000392,113.78759849997004,113.7723316999618,,,,,,,,,,,,,,,,113.77841159998206,113.78759849997004,113.78759849997004,114.1397825999884,g,1.0,0.3442631000070832,,114.14058299997124,114.15436609997414,115.1394767999882,115.15434479998656,,,,,,,,,,,,,,,,,,,,sub-061,1,stroop_test,60.112879950737714,
,,,,9.0,9.0,0.0,,,,,blau,blue,b,1.0,b,1.0,0.435332799970638,,,,,,,,,,,,,,0.0,9.0,9.0,5.0,,,,,115.15434479998656,,,,,,,,,,,,,,,,,115.1399228000082,115.50446369999554,116.30462779995288,116.2892096999567,,,,,,,,,,,,,,,,116.2945902000065,116.30462779995288,116.30462779995288,116.7566696999711,b,1.0,0.435332799970638,,116.7575511999894,116.77140199998394,117.75600809999742,117.77137659996517,,,,,,,,,,,,,,,,,,,,sub-061,1,stroop_test,60.112879950737714,
,,,,10.0,10.0,0.0,,,,,gelb,blue,b,0.0,b,1.0,0.5263100000447594,,,,,,,,,,,,,,0.0,10.0,10.0,9.0,,,,,117.77137659996517,,,,,,,,,,,,,,,,,117.75647319998824,118.12129239999922,118.9220252999803,118.9061565999873,,,,,,,,,,,,,,,,118.9121274999925,118.9220252999803,118.9220252999803,119.45680759998504,b,1.0,0.5263100000447594,,119.45752090000316,119.4716167000006,120.45615379995434,120.47142969997368,,,,,,,,,,,,,,,,,,,,sub-061,1,stroop_test,60.112879950737714,
,,,,11.0,11.0,0.0,,,,,rot,red,r,1.0,r,1.0,0.3712388999992981,,,,,,,,,,,,,,0.0,11.0,11.0,0.0,,,,,120.47142969997368,,,,,,,,,,,,,,,,,120.45674449997024,120.57152599998516,121.37158509995788,121.35642379999626,,,,,,,,,,,,,,,,121.3626669999794,121.37158509995788,121.37158509995788,121.75791179999942,r,1.0,0.3712388999992981,,121.7588168999646,121.77189939998787,122.75641039997572,122.77185309998458,,,,,,,,,,,,,,,,,,,,sub-061,1,stroop_test,60.112879950737714,
,,,,12.0,0.0,1.0,,,,,gelb,yellow,g,1.0,g,1.0,0.4479053999530151,,,,,,,,,,,,,,1.0,0.0,12.0,11.0,,,,,122.77185309998458,,,,,,,,,,,,,,,,,122.75695309997536,123.57179269997869,124.3719743999536,124.35627009999008,,,,,,,,,,,,,,,,124.36219159996836,124.3719743999536,124.3719743999536,124.82490010000764,g,1.0,0.4479053999530151,,124.82579249999252,124.8385782999685,125.82369549997384,125.83869800000684,,,,,,,,,,,,,,,,,,,,sub-061,1,stroop_test,60.112879950737714,
,,,,13.0,1.0,1.0,,,,,rot,red,r,1.0,r,1.0,0.4053696999908425,,,,,,,,,,,,,,1.0,1.0,13.0,0.0,,,,,125.83869800000684,,,,,,,,,,,,,,,,,125.82421940000496,125.93869699997596,126.73933670000406,126.7234388999641,,,,,,,,,,,,,,,,126.72890230000483,126.73933670000406,126.73933670000406,127.15765349997672,r,1.0,0.4053696999908425,,127.1583950999775,127.172480899957,128.15691009996226,128.17212319996906,,,,,,,,,,,,,,,,,,,,sub-061,1,stroop_test,60.112879950737714,
,,,,14.0,2.0,1.0,,,,,gelb,yellow,g,1.0,g,1.0,0.5985270999954082,,,,,,,,,,,,,,1.0,2.0,14.0,10.0,,,,,128.17212319996906,,,,,,,,,,,,,,,,,128.15747469995404,128.9724344999995,129.77249199996004,129.7571151999873,,,,,,,,,,,,,,,,129.76307819999056,129.77249199996004,129.77249199996004,130.37446739996085,g,1.0,0.5985270999954082,,130.37530509999488,130.38919229997555,131.3736693999963,131.3892226999742,,,,,,,,,,,,,,,,,,,,sub-061,1,stroop_test,60.112879950737714,
,,,,15.0,3.0,1.0,,,,,blau,red,r,0.0,r,1.0,0.4665476999944076,,,,,,,,,,,,,,1.0,3.0,15.0,4.0,,,,,131.3892226999742,,,,,,,,,,,,,,,,,131.37420949997613,132.5892359999707,133.38922039995668,133.37388039997313,,,,,,,,,,,,,,,,133.37900879996596,133.38922039995668,133.38922039995668,133.85872439999366,r,1.0,0.4665476999944076,,133.85944209998706,133.87311939999927,134.85768079996342,134.87280449998798,,,,,,,,,,,,,,,,,,,,sub-061,1,stroop_test,60.112879950737714,
,,,,16.0,4.0,1.0,,,,,gelb,blue,b,0.0,b,1.0,0.3064669999876059,,,,,,,,,,,,,,1.0,4.0,16.0,9.0,,,,,134.87280449998798,,,,,,,,,,,,,,,,,134.85818939999444,134.97288249997655,135.7728379999753,135.75785719999112,,,,,,,,,,,,,,,,135.76594769995427,135.7728379999753,135.7728379999753,136.092441899993,b,1.0,0.3064669999876059,,136.09314879996236,136.10639169998467,137.0909549999633,137.10656260000542,,,,,,,,,,,,,,,,,,,,sub-061,1,stroop_test,60.112879950737714,
,,,,17.0,5.0,1.0,,,,,blau,blue,b,1.0,b,1.0,0.4030312999966554,,,,,,,,,,,,,,1.0,5.0,17.0,6.0,,,,,137.10656260000542,,,,,,,,,,,,,,,,,137.09145969996462,137.90669739997247,138.70669479999924,138.69121469999664,,,,,,,,,,,,,,,,138.69636999996146,138.70669479999924,138.70669479999924,139.12523949996103,b,1.0,0.4030312999966554,,139.12604639999336,139.13995949999662,140.12462369998684,140.13998509995872,,,,,,,,,,,,,,,,,,,,sub-061,1,stroop_test,60.112879950737714,
,,,,18.0,6.0,1.0,,,,,blau,yellow,g,0.0,g,1.0,0.348525499983225,,,,,,,,,,,,,,1.0,6.0,18.0,7.0,,,,,140.13998509995872,,,,,,,,,,,,,,,,,140.12518350000028,140.49014000000898,141.29014409997035,141.27463259996148,,,,,,,,,,,,,,,,141.27532949997112,141.29014409997035,141.29014409997035,141.6419869000092,g,1.0,0.348525499983225,,141.64271019998705,141.65702129999408,142.64168669999344,142.6567671999801,,,,,,,,,,,,,,,,,,,,sub-061,1,stroop_test,60.112879950737714,
,,,,19.0,7.0,1.0,,,,,rot,red,r,1.0,r,1.0,0.339475599990692,,,,,,,,,,,,,,1.0,7.0,19.0,1.0,,,,,142.6567671999801,,,,,,,,,,,,,,,,,142.6421618000022,143.8568554999656,144.65707399998792,144.6417615999817,,,,,,,,,,,,,,,,144.6478364999639,144.65707399998792,144.65707399998792,145.0090274999966,r,1.0,0.339475599990692,,145.00982079998357,145.02394779998576,146.00822009996045,146.0238837999641,,,,,,,,,,,,,,,,,,,,sub-061,1,stroop_test,60.112879950737714,
,,,,20.0,8.0,1.0,,,,,blau,blue,b,1.0,b,1.0,0.4221861999831162,,,,,,,,,,,,,,1.0,8.0,20.0,5.0,,,,,146.0238837999641,,,,,,,,,,,,,,,,,146.008731000009,146.37384229997406,147.1740029999637,147.15821789996698,,,,,,,,,,,,,,,,147.16326129995286,147.1740029999637,147.1740029999637,147.60957349999808,b,1.0,0.4221861999831162,,147.61049739998998,147.62405270000454,148.6088471999974,148.62471569998888,,,,,,,,,,,,,,,,,,,,sub-061,1,stroop_test,60.112879950737714,
,,,,21.0,9.0,1.0,,,,,gelb,red,r,0.0,r,1.0,0.656050099991262,,,,,,,,,,,,,,1.0,9.0,21.0,8.0,,,,,148.62471569998888,,,,,,,,,,,,,,,,,148.60928839998087,148.97397869999986,149.77441179996822,149.75877399998717,,,,,,,,,,,,,,,,149.76457289996324,149.77441179996822,149.77441179996822,150.44363529997645,r,1.0,0.656050099991262,,150.44439819996478,150.45762469997862,151.44220119999954,151.45772819995182,,,,,,,,,,,,,,,,,,,,sub-061,1,stroop_test,60.112879950737714,
,,,,22.0,10.0,1.0,,,,,rot,blue,b,0.0,b,1.0,0.420000699989032,,,,,,,,,,,,,,1.0,10.0,22.0,2.0,,,,,151.45772819995182,,,,,,,,,,,,,,,,,151.44266449997667,151.80796079995343,152.60783180000726,152.59249720000662,,,,,,,,,,,,,,,,152.59861519996775,152.60783180000726,152.60783180000726,153.04336499999044,b,1.0,0.420000699989032,,153.0441883999738,153.0579671000014,154.0427267999621,154.05784169997787,,,,,,,,,,,,,,,,,,,,sub-061,1,stroop_test,60.112879950737714,
,,,,23.0,11.0,1.0,,,,,rot,yellow,g,0.0,g,1.0,0.3463653000071645,,,,,,,,,,,,,,1.0,11.0,23.0,3.0,,,,,154.05784169997787,,,,,,,,,,,,,,,,,154.0432620999636,154.40806929999962,155.2079827999696,155.1925762000028,,,,,,,,,,,,,,,,155.19323899998562,155.2079827999696,155.2079827999696,155.56006809999235,g,1.0,0.3463653000071645,,155.56098319997545,155.5746869999566,156.5593561999849,156.5745995999896,,,,,,,,,,,,,,,,,,,,sub-061,1,stroop_test,60.112879950737714,
,,,,,,,,,,,,,,,,,,,,,,,,,,,,,,,,,,,,,,,,,,,,,,,,,,,,,,,,,,,,,,,,,,,,,,,,,,,,,,,,,,,,,,,156.5595328999916,156.5745995999896,156.5745995999896,184.72961799998305,space,28.138347000000067,,,,,,,,,,,,,,sub-061,1,stroop_test,60.112879950737714,
,,,,0.0,0.0,0.0,,,,,,,,,,,,,gelb,yellow,g,1.0,r,0.0,0.4967694999650121,,,,,,,,,,0.0,0.0,0.0,10.0,184.75203699996928,,,,,,,,,,,,,,,,,184.74854419997428,184.8441841999884,185.64412079995964,185.6284558000043,,,,,,,,,,,,,,,,,,,,,,,,,,,,,,,,,,,185.63435720000416,185.64412079995964,185.64412079995964,186.14637599996055,r,0.0,0.4967694999650121,,,,,,sub-061,1,stroop_test,60.112879950737714,
,,,,1.0,1.0,0.0,,,,,,,,,,,,,gelb,yellow,g,1.0,g,1.0,1.175762399972882,,,,,,,,,,0.0,1.0,1.0,11.0,186.1608661999926,,,,,,,,,,,,,,,,,186.1469058999792,187.36095770000247,188.1609826000058,188.14576439996017,,,,,,,,,,,,,,,,,,,,,,,,,,,,,,,,,,,188.14655899995705,188.1609826000058,188.1609826000058,189.34645759995328,g,1.0,1.175762399972882,,,,,,sub-061,1,stroop_test,60.112879950737714,
,,,,2.0,2.0,0.0,,,,,,,,,,,,,rot,red,r,1.0,r,1.0,0.4553015999845229,,,,,,,,,,0.0,2.0,2.0,1.0,189.36127399996624,,,,,,,,,,,,,,,,,189.3470554999658,190.16119209997123,190.96133709995772,190.94610559998543,,,,,,,,,,,,,,,,,,,,,,,,,,,,,,,,,,,190.95233749999895,190.96133709995772,190.96133709995772,191.43067909998356,r,1.0,0.4553015999845229,,,,,,sub-061,1,stroop_test,60.112879950737714,
,,,,3.0,3.0,0.0,,,,,,,,,,,,,rot,blue,b,0.0,b,1.0,0.5609513999661431,,,,,,,,,,0.0,3.0,3.0,2.0,191.44492399995212,,,,,,,,,,,,,,,,,191.4312203999725,191.7944321999676,192.5946816999931,192.579410300008,,,,,,,,,,,,,,,,,,,,,,,,,,,,,,,,,,,192.5800654999912,192.5946816999931,192.5946816999931,193.16374150000047,b,1.0,0.5609513999661431,,,,,,sub-061,1,stroop_test,60.112879950737714,
,,,,4.0,4.0,0.0,,,,,,,,,,,,,blau,blue,b,1.0,b,1.0,0.5167284999624826,,,,,,,,,,0.0,4.0,4.0,5.0,193.17814839998027,,,,,,,,,,,,,,,,,193.1642660999787,194.378194799996,195.17840669996804,195.1628492999589,,,,,,,,,,,,,,,,,,,,,,,,,,,,,,,,,,,195.16777100000763,195.17840669996804,195.17840669996804,195.6980608999729,b,1.0,0.5167284999624826,,,,,,sub-061,1,stroop_test,60.112879950737714,
,,,,5.0,5.0,0.0,,,,,,,,,,,,,blau,red,r,0.0,r,1.0,0.3997864000266418,,,,,,,,,,0.0,5.0,5.0,4.0,195.71190890000435,,,,,,,,,,,,,,,,,195.6985772000044,196.5118198999553,197.31198929995296,197.29632759996457,,,,,,,,,,,,,,,,,,,,,,,,,,,,,,,,,,,197.2970803999924,197.31198929995296,197.31198929995296,197.71545039996272,r,1.0,0.3997864000266418,,,,,,sub-061,1,stroop_test,60.112879950737714,
,,,,6.0,6.0,0.0,,,,,,,,,,,,,rot,yellow,g,0.0,g,1.0,0.2950664000236429,,,,,,,,,,0.0,6.0,6.0,3.0,197.7286151999724,,,,,,,,,,,,,,,,,197.71601609996287,198.52858290000583,199.32881169999015,199.31327809998768,,,,,,,,,,,,,,,,,,,,,,,,,,,,,,,,,,,199.31922519998625,199.32881169999015,199.32881169999015,199.6309188999585,g,1.0,0.2950664000236429,,,,,,sub-061,1,stroop_test,60.112879950737714,
,,,,7.0,7.0,0.0,,,,,,,,,,,,,blau,yellow,g,0.0,g,1.0,0.5465360999805853,,,,,,,,,,0.0,7.0,7.0,7.0,199.64534659998023,,,,,,,,,,,,,,,,,199.63152959995205,199.9957180999918,200.79537559999156,200.7802908999729,,,,,,,,,,,,,,,,,,,,,,,,,,,,,,,,,,,200.78535199997717,200.79537559999156,200.79537559999156,201.3474477999844,g,1.0,0.5465360999805853,,,,,,sub-061,1,stroop_test,60.112879950737714,
,,,,8.0,8.0,0.0,,,,,,,,,,,,,rot,red,r,1.0,r,1.0,0.2946696000290103,,,,,,,,,,0.0,8.0,8.0,0.0,201.3622431999538,,,,,,,,,,,,,,,,,201.3480211999849,202.16254099999787,202.96247399999996,202.94717649999075,,,,,,,,,,,,,,,,,,,,,,,,,,,,,,,,,,,202.9528510999517,202.96247399999996,202.96247399999996,203.26478559995303,r,1.0,0.2946696000290103,,,,,,sub-061,1,stroop_test,60.112879950737714,
,,,,9.0,9.0,0.0,,,,,,,,,,,,,blau,blue,b,1.0,b,1.0,0.3717189999879338,,,,,,,,,,0.0,9.0,9.0,6.0,203.2791098000016,,,,,,,,,,,,,,,,,203.26529309997568,204.47923269995957,205.2792145999847,205.2639910999569,,,,,,,,,,,,,,,,,,,,,,,,,,,,,,,,,,,205.2696067999932,205.2792145999847,205.2792145999847,205.66515189997156,b,1.0,0.3717189999879338,,,,,,sub-061,1,stroop_test,60.112879950737714,
,,,,10.0,10.0,0.0,,,,,,,,,,,,,gelb,blue,b,0.0,b,1.0,0.5105372999678366,,,,,,,,,,0.0,10.0,10.0,9.0,205.67914889997337,,,,,,,,,,,,,,,,,205.66574279998892,206.8794571000035,207.67957589996516,207.6640793999541,,,,,,,,,,,,,,,,,,,,,,,,,,,,,,,,,,,207.6701600999804,207.67957589996516,207.67957589996516,208.198361799994,b,1.0,0.5105372999678366,,,,,,sub-061,1,stroop_test,60.112879950737714,
,,,,11.0,11.0,0.0,,,,,,,,,,,,,gelb,red,r,0.0,r,1.0,0.5355125999776646,,,,,,,,,,0.0,11.0,11.0,8.0,208.21318699995757,,,,,,,,,,,,,,,,,208.19947259995388,209.4129341999651,210.2131071999902,210.19766169996,,,,,,,,,,,,,,,,,,,,,,,,,,,,,,,,,,,210.1984875999624,210.2131071999902,210.2131071999902,210.7649745999952,r,1.0,0.5355125999776646,,,,,,sub-061,1,stroop_test,60.112879950737714,
,,,,12.0,0.0,1.0,,,,,,,,,,,,,gelb,yellow,g,1.0,g,1.0,0.4350589000387117,,,,,,,,,,1.0,0.0,12.0,11.0,210.77966359996933,,,,,,,,,,,,,,,,,210.7655346999527,210.87987249996516,211.6800155999954,211.66436870000325,,,,,,,,,,,,,,,,,,,,,,,,,,,,,,,,,,,211.66506199998548,211.6800155999954,211.6800155999954,212.13200389995475,g,1.0,0.4350589000387117,,,,,,sub-061,1,stroop_test,60.112879950737714,
,,,,13.0,1.0,1.0,,,,,,,,,,,,,rot,yellow,g,0.0,g,1.0,0.5451877999585122,,,,,,,,,,1.0,1.0,13.0,3.0,212.14641929999925,,,,,,,,,,,,,,,,,212.1325503999833,212.24663569999396,213.04660349996996,213.03139659995213,,,,,,,,,,,,,,,,,,,,,,,,,,,,,,,,,,,213.03734360000817,213.04660349996996,213.04660349996996,213.59883279999485,g,1.0,0.5451877999585122,,,,,,sub-061,1,stroop_test,60.112879950737714,
,,,,14.0,2.0,1.0,,,,,,,,,,,,,blau,blue,b,1.0,b,1.0,0.4635730000445619,,,,,,,,,,1.0,2.0,14.0,6.0,213.6136073999805,,,,,,,,,,,,,,,,,213.59938390000025,213.7135164999636,214.51344799995425,214.4978697999613,,,,,,,,,,,,,,,,,,,,,,,,,,,,,,,,,,,214.50271359999897,214.51344799995425,214.51344799995425,214.98240079998504,b,1.0,0.4635730000445619,,,,,,sub-061,1,stroop_test,60.112879950737714,
,,,,15.0,3.0,1.0,,,,,,,,,,,,,rot,red,r,1.0,r,1.0,0.3583235000260174,,,,,,,,,,1.0,3.0,15.0,0.0,214.99707409995608,,,,,,,,,,,,,,,,,214.98296920000573,215.09632670000428,215.8974917999585,215.88184679998085,,,,,,,,,,,,,,,,,,,,,,,,,,,,,,,,,,,215.8874996000086,215.8974917999585,215.8974917999585,216.26575969997796,r,1.0,0.3583235000260174,,,,,,sub-061,1,stroop_test,60.112879950737714,
,,,,16.0,4.0,1.0,,,,,,,,,,,,,gelb,red,r,0.0,r,1.0,0.983524099981878,,,,,,,,,,1.0,4.0,16.0,8.0,216.28014409996103,,,,,,,,,,,,,,,,,216.2662652999861,217.4803289999836,218.28040389996025,218.26493750000373,,,,,,,,,,,,,,,,,,,,,,,,,,,,,,,,,,,218.2716625999892,218.28040389996025,218.28040389996025,219.26707090000852,r,1.0,0.983524099981878,,,,,,sub-061,1,stroop_test,60.112879950737714,
,,,,17.0,5.0,1.0,,,,,,,,,,,,,rot,blue,b,0.0,b,1.0,0.4398418999626301,,,,,,,,,,1.0,5.0,17.0,2.0,219.28069210000103,,,,,,,,,,,,,,,,,219.26784039998893,220.0808783999528,220.88044569996416,220.86528549995276,,,,,,,,,,,,,,,,,,,,,,,,,,,,,,,,,,,220.87137089995667,220.88044569996416,220.88044569996416,221.33305339998333,b,1.0,0.4398418999626301,,,,,,sub-061,1,stroop_test,60.112879950737714,
,,,,18.0,6.0,1.0,,,,,,,,,,,,,blau,blue,b,1.0,b,1.0,0.5191088999854401,,,,,,,,,,1.0,6.0,18.0,5.0,221.34728230000476,,,,,,,,,,,,,,,,,221.33359019999625,222.1473857999663,222.9476027999772,222.9322794000036,,,,,,,,,,,,,,,,,,,,,,,,,,,,,,,,,,,222.93733609997437,222.9476027999772,222.9476027999772,223.48351019999245,b,1.0,0.5191088999854401,,,,,,sub-061,1,stroop_test,60.112879950737714,
,,,,19.0,7.0,1.0,,,,,,,,,,,,,blau,yellow,g,0.0,g,1.0,0.6437396000255831,,,,,,,,,,1.0,7.0,19.0,7.0,223.4977278999868,,,,,,,,,,,,,,,,,223.4841535000014,223.59766649996163,224.3974964999943,224.3822953999625,,,,,,,,,,,,,,,,,,,,,,,,,,,,,,,,,,,224.38293209997937,224.3974964999943,224.3974964999943,225.0499278999632,g,1.0,0.6437396000255831,,,,,,sub-061,1,stroop_test,60.112879950737714,
,,,,20.0,8.0,1.0,,,,,,,,,,,,,blau,red,r,0.0,r,1.0,0.3238487999769859,,,,,,,,,,1.0,8.0,20.0,4.0,225.0644420000026,,,,,,,,,,,,,,,,,225.05049709999005,225.16434409999056,225.9646809999831,225.94934429996647,,,,,,,,,,,,,,,,,,,,,,,,,,,,,,,,,,,225.95008539996343,225.9646809999831,225.9646809999831,226.29979439999445,r,1.0,0.3238487999769859,,,,,,sub-061,1,stroop_test,60.112879950737714,
,,,,21.0,9.0,1.0,,,,,,,,,,,,,gelb,blue,b,0.0,b,1.0,0.5251869999920018,,,,,,,,,,1.0,9.0,21.0,9.0,226.314418199996,,,,,,,,,,,,,,,,,226.3003147999989,227.1145208000089,227.91467999998716,227.89919649995863,,,,,,,,,,,,,,,,,,,,,,,,,,,,,,,,,,,227.90529359999343,227.91467999998716,227.91467999998716,228.45004520000657,b,1.0,0.5251869999920018,,,,,,sub-061,1,stroop_test,60.112879950737714,
,,,,22.0,10.0,1.0,,,,,,,,,,,,,gelb,yellow,g,1.0,g,1.0,0.4312921999953687,,,,,,,,,,1.0,10.0,22.0,10.0,228.46469120000256,,,,,,,,,,,,,,,,,228.45062550000148,229.2647846000036,230.06523609999567,230.0496138999588,,,,,,,,,,,,,,,,,,,,,,,,,,,,,,,,,,,230.0506870999816,230.06523609999567,230.06523609999567,230.5003975,g,1.0,0.4312921999953687,,,,,,sub-061,1,stroop_test,60.112879950737714,
,,,,23.0,11.0,1.0,,,,,,,,,,,,,rot,red,r,1.0,r,1.0,0.2804667999735102,,,,,,,,,,1.0,11.0,23.0,1.0,230.5147747999872,,,,,,,,,,,,,,,,,230.50098399998387,231.31507099996088,232.1151024999563,232.09967599995437,,,,,,,,,,,,,,,,,,,,,,,,,,,,,,,,,,,232.10663679998837,232.1151024999563,232.1151024999563,232.40065199998207,r,1.0,0.2804667999735102,,,,,,sub-061,1,stroop_test,60.112879950737714,
,,,,24.0,0.0,2.0,,,,,,,,,,,,,gelb,blue,b,0.0,b,1.0,1.0623014000011608,,,,,,,,,,2.0,0.0,24.0,9.0,232.41507779998935,,,,,,,,,,,,,,,,,232.40116559999296,232.7650257999776,233.5652962999884,233.5498839999782,,,,,,,,,,,,,,,,,,,,,,,,,,,,,,,,,,,233.5554390999605,233.5652962999884,233.5652962999884,234.63395649997983,b,1.0,1.0623014000011608,,,,,,sub-061,1,stroop_test,60.112879950737714,
,,,,25.0,1.0,2.0,,,,,,,,,,,,,rot,yellow,g,0.0,g,1.0,0.3388761999667622,,,,,,,,,,2.0,1.0,25.0,3.0,234.6486440000008,,,,,,,,,,,,,,,,,234.63446489995115,235.448746799957,236.24859629996357,236.2331511999946,,,,,,,,,,,,,,,,,,,,,,,,,,,,,,,,,,,236.2386501999572,236.24859629996357,236.24859629996357,236.60057329997653,g,1.0,0.3388761999667622,,,,,,sub-061,1,stroop_test,60.112879950737714,
,,,,26.0,2.0,2.0,,,,,,,,,,,,,gelb,yellow,g,1.0,g,1.0,0.4095068000024184,,,,,,,,,,2.0,2.0,26.0,11.0,236.61535009997897,,,,,,,,,,,,,,,,,236.60109199996805,237.8157611999777,238.6156357,238.6003615999944,,,,,,,,,,,,,,,,,,,,,,,,,,,,,,,,,,,238.6068555999664,238.6156357,238.6156357,239.0345016999636,g,1.0,0.4095068000024184,,,,,,sub-061,1,stroop_test,60.112879950737714,
,,,,27.0,3.0,2.0,,,,,,,,,,,,,gelb,red,r,0.0,r,1.0,0.3349720999831334,,,,,,,,,,2.0,3.0,27.0,8.0,239.04889649996767,,,,,,,,,,,,,,,,,239.03502279997335,239.398868499964,240.1990761999623,240.18409379996592,,,,,,,,,,,,,,,,,,,,,,,,,,,,,,,,,,,240.18476149998605,240.1990761999623,240.1990761999623,240.55119759996887,r,1.0,0.3349720999831334,,,,,,sub-061,1,stroop_test,60.112879950737714,
,,,,28.0,4.0,2.0,,,,,,,,,,,,,blau,blue,b,1.0,b,1.0,0.3316584000131115,,,,,,,,,,2.0,4.0,28.0,5.0,240.5659514999716,,,,,,,,,,,,,,,,,240.55170789995464,240.91577959997807,241.71608709997963,241.70039399998493,,,,,,,,,,,,,,,,,,,,,,,,,,,,,,,,,,,241.706177999964,241.71608709997963,241.71608709997963,242.0513912999886,b,1.0,0.3316584000131115,,,,,,sub-061,1,stroop_test,60.112879950737714,
,,,,29.0,5.0,2.0,,,,,,,,,,,,,blau,red,r,0.0,r,1.0,0.5973105999873951,,,,,,,,,,2.0,5.0,29.0,4.0,242.06583749997665,,,,,,,,,,,,,,,,,242.05200079997303,242.86605129996315,243.6661113000009,243.6505173000041,,,,,,,,,,,,,,,,,,,,,,,,,,,,,,,,,,,243.65124609996565,243.6661113000009,243.6661113000009,244.267947299988,r,1.0,0.5973105999873951,,,,,,sub-061,1,stroop_test,60.112879950737714,
,,,,30.0,6.0,2.0,,,,,,,,,,,,,gelb,yellow,g,1.0,g,1.0,0.4560982000548392,,,,,,,,,,2.0,6.0,30.0,10.0,244.2828038999578,,,,,,,,,,,,,,,,,244.2685423999792,244.3829945999896,245.1829653999885,245.16764060000423,,,,,,,,,,,,,,,,,,,,,,,,,,,,,,,,,,,245.17451649997383,245.1829653999885,245.1829653999885,245.65201469999735,g,1.0,0.4560982000548392,,,,,,sub-061,1,stroop_test,60.112879950737714,
,,,,31.0,7.0,2.0,,,,,,,,,,,,,blau,blue,b,1.0,b,1.0,0.3672182000009343,,,,,,,,,,2.0,7.0,31.0,6.0,245.6661196000059,,,,,,,,,,,,,,,,,245.6525294999592,246.01622130000032,246.8163492999738,246.80050059995847,,,,,,,,,,,,,,,,,,,,,,,,,,,,,,,,,,,246.80608259997095,246.8163492999738,246.8163492999738,247.20086469996025,b,1.0,0.3672182000009343,,,,,,sub-061,1,stroop_test,60.112879950737714,
,,,,32.0,8.0,2.0,,,,,,,,,,,,,rot,blue,b,0.0,b,1.0,0.5213229999644682,,,,,,,,,,2.0,8.0,32.0,2.0,247.2160990999546,,,,,,,,,,,,,,,,,247.2013822000008,248.41653819999192,249.21639620000497,249.2013837999548,,,,,,,,,,,,,,,,,,,,,,,,,,,,,,,,,,,249.2095311000012,249.21639620000497,249.21639620000497,249.75198449997697,b,1.0,0.5213229999644682,,,,,,sub-061,1,stroop_test,60.112879950737714,
,,,,33.0,9.0,2.0,,,,,,,,,,,,,blau,yellow,g,0.0,g,1.0,0.5577030000276864,,,,,,,,,,2.0,9.0,33.0,7.0,249.76641399995424,,,,,,,,,,,,,,,,,249.7527341999812,250.96656450000592,251.76673979999032,251.75165150000248,,,,,,,,,,,,,,,,,,,,,,,,,,,,,,,,,,,251.7564826000016,251.76673979999032,251.76673979999032,252.33571529999608,g,1.0,0.5577030000276864,,,,,,sub-061,1,stroop_test,60.112879950737714,
,,,,34.0,10.0,2.0,,,,,,,,,,,,,rot,red,r,1.0,r,1.0,0.4547495000297203,,,,,,,,,,2.0,10.0,34.0,0.0,252.35017140000127,,,,,,,,,,,,,,,,,252.3369055999792,252.45030749996656,253.25034430000235,253.2348646000028,,,,,,,,,,,,,,,,,,,,,,,,,,,,,,,,,,,253.24084330000915,253.25034430000235,253.25034430000235,253.7185026999796,r,1.0,0.4547495000297203,,,,,,sub-061,1,stroop_test,60.112879950737714,
,,,,35.0,11.0,2.0,,,,,,,,,,,,,rot,red,r,1.0,r,1.0,0.4509897999814711,,,,,,,,,,2.0,11.0,35.0,1.0,253.7333265999914,,,,,,,,,,,,,,,,,253.7190777999931,254.53341739997268,255.3337623999687,255.31846509996103,,,,,,,,,,,,,,,,,,,,,,,,,,,,,,,,,,,255.31909319997067,255.3337623999687,255.3337623999687,255.78704629995627,r,1.0,0.4509897999814711,,,,,,sub-061,1,stroop_test,60.112879950737714,
,,,,36.0,0.0,3.0,,,,,,,,,,,,,blau,red,r,0.0,r,1.0,0.4746056000003591,,,,,,,,,,3.0,0.0,36.0,4.0,255.800940599991,,,,,,,,,,,,,,,,,255.7877082999912,255.90058719995432,256.70045199996093,256.6846009999863,,,,,,,,,,,,,,,,,,,,,,,,,,,,,,,,,,,256.6894856999861,256.70045199996093,256.70045199996093,257.1859669999685,r,1.0,0.4746056000003591,,,,,,sub-061,1,stroop_test,60.112879950737714,
,,,,37.0,1.0,3.0,,,,,,,,,,,,,blau,blue,b,1.0,b,1.0,0.3993378999875858,,,,,,,,,,3.0,1.0,37.0,5.0,257.2008122999687,,,,,,,,,,,,,,,,,257.18651390000014,257.5506386999623,258.3510904999566,258.33534619997954,,,,,,,,,,,,,,,,,,,,,,,,,,,,,,,,,,,258.33608119998826,258.3510904999566,258.3510904999566,258.75327689998085,b,1.0,0.3993378999875858,,,,,,sub-061,1,stroop_test,60.112879950737714,
,,,,38.0,2.0,3.0,,,,,,,,,,,,,blau,blue,b,1.0,b,1.0,0.4532793000107631,,,,,,,,,,3.0,2.0,38.0,6.0,258.76759189995937,,,,,,,,,,,,,,,,,258.7539307999541,259.96733359998325,260.76761290000286,260.752146999992,,,,,,,,,,,,,,,,,,,,,,,,,,,,,,,,,,,260.75288779998664,260.76761290000286,260.76761290000286,261.2362575999577,b,1.0,0.4532793000107631,,,,,,sub-061,1,stroop_test,60.112879950737714,
,,,,39.0,3.0,3.0,,,,,,,,,,,,,gelb,blue,b,0.0,b,1.0,0.437430799996946,,,,,,,,,,3.0,3.0,39.0,9.0,261.250966099964,,,,,,,,,,,,,,,,,261.2368186999811,261.6009639999829,262.4008934999584,262.3857675999752,,,,,,,,,,,,,,,,,,,,,,,,,,,,,,,,,,,262.39104709995445,262.4008934999584,262.4008934999584,262.85258509998675,b,1.0,0.437430799996946,,,,,,sub-061,1,stroop_test,60.112879950737714,
,,,,40.0,4.0,3.0,,,,,,,,,,,,,rot,red,r,1.0,r,1.0,0.3946798999677412,,,,,,,,,,3.0,4.0,40.0,0.0,262.8676771000028,,,,,,,,,,,,,,,,,262.8529178999597,262.9679276999668,263.76810399995884,263.7526643999736,,,,,,,,,,,,,,,,,,,,,,,,,,,,,,,,,,,263.757887499989,263.76810399995884,263.76810399995884,264.17014289996587,r,1.0,0.3946798999677412,,,,,,sub-061,1,stroop_test,60.112879950737714,
,,,,41.0,5.0,3.0,,,,,,,,,,,,,gelb,yellow,g,1.0,g,1.0,0.491366799979005,,,,,,,,,,3.0,5.0,41.0,11.0,264.1847249999992,,,,,,,,,,,,,,,,,264.17069020000054,264.5345707999659,265.33465739997337,265.3194858999923,,,,,,,,,,,,,,,,,,,,,,,,,,,,,,,,,,,265.3256407000008,265.33465739997337,265.33465739997337,265.8367963999626,g,1.0,0.491366799979005,,,,,,sub-061,1,stroop_test,60.112879950737714,
,,,,42.0,6.0,3.0,,,,,,,,,,,,,rot,yellow,g,0.0,g,1.0,0.2822011000243947,,,,,,,,,,3.0,6.0,42.0,3.0,265.85138000000734,,,,,,,,,,,,,,,,,265.837311899988,266.2015686999657,267.0015955999843,266.9862365999725,,,,,,,,,,,,,,,,,,,,,,,,,,,,,,,,,,,266.99289090000093,267.0015955999843,267.0015955999843,267.28712479997193,g,1.0,0.2822011000243947,,,,,,sub-061,1,stroop_test,60.112879950737714,
,,,,43.0,7.0,3.0,,,,,,,,,,,,,rot,red,r,1.0,r,1.0,0.4218281999928877,,,,,,,,,,3.0,7.0,43.0,1.0,267.30140199995367,,,,,,,,,,,,,,,,,267.287646199984,267.6516725999536,268.4515086999745,268.4369286999572,,,,,,,,,,,,,,,,,,,,,,,,,,,,,,,,,,,268.4379384999629,268.4515086999745,268.4515086999745,268.8871065999847,r,1.0,0.4218281999928877,,,,,,sub-061,1,stroop_test,60.112879950737714,
,,,,44.0,8.0,3.0,,,,,,,,,,,,,rot,blue,b,0.0,b,1.0,0.4992819000035524,,,,,,,,,,3.0,8.0,44.0,2.0,268.90171389997704,,,,,,,,,,,,,,,,,268.8877468999708,270.1017174999579,270.90206699998816,270.8866825999576,,,,,,,,,,,,,,,,,,,,,,,,,,,,,,,,,,,270.8874691000092,270.90206699998816,270.90206699998816,271.4044119999744,b,1.0,0.4992819000035524,,,,,,sub-061,1,stroop_test,60.112879950737714,
,,,,45.0,9.0,3.0,,,,,,,,,,,,,gelb,red,r,0.0,r,1.0,0.5453655000310391,,,,,,,,,,3.0,9.0,45.0,8.0,271.4186207999592,,,,,,,,,,,,,,,,,271.40493919997243,272.2187350000022,273.01864500000374,273.003273899958,,,,,,,,,,,,,,,,,,,,,,,,,,,,,,,,,,,273.0089560999768,273.01864500000374,273.01864500000374,273.5708001999883,r,1.0,0.5453655000310391,,,,,,sub-061,1,stroop_test,60.112879950737714,
,,,,46.0,10.0,3.0,,,,,,,,,,,,,gelb,yellow,g,1.0,g,1.0,0.3160406000097282,,,,,,,,,,3.0,10.0,46.0,10.0,273.58533480000915,,,,,,,,,,,,,,,,,273.5713620999595,273.68554229999427,274.48566020000726,274.4702715000021,,,,,,,,,,,,,,,,,,,,,,,,,,,,,,,,,,,274.47094539995305,274.48566020000726,274.48566020000726,274.8050929000019,g,1.0,0.3160406000097282,,,,,,sub-061,1,stroop_test,60.112879950737714,
,,,,47.0,11.0,3.0,,,,,,,,,,,,,blau,yellow,g,0.0,g,1.0,0.4125081000383943,,,,,,,,,,3.0,11.0,47.0,7.0,274.8189784999704,,,,,,,,,,,,,,,,,274.80562249996,275.6191146000056,276.4189484999515,276.4038300999673,,,,,,,,,,,,,,,,,,,,,,,,,,,,,,,,,,,276.4089236999862,276.4189484999515,276.4189484999515,276.8375855999766,g,1.0,0.4125081000383943,,,,,,sub-061,1,stroop_test,60.112879950737714,
,,,,48.0,0.0,4.0,,,,,,,,,,,,,rot,blue,b,0.0,b,1.0,0.4685019999742508,,,,,,,,,,4.0,0.0,48.0,2.0,276.8521141000092,,,,,,,,,,,,,,,,,276.83820070000365,278.0526106999605,278.8531896999921,278.8368104999536,,,,,,,,,,,,,,,,,,,,,,,,,,,,,,,,,,,278.8405988999875,278.8531896999921,278.8531896999921,279.3385355999926,b,1.0,0.4685019999742508,,,,,,sub-061,1,stroop_test,60.112879950737714,
,,,,49.0,1.0,4.0,,,,,,,,,,,,,gelb,yellow,g,1.0,g,1.0,0.6231155000277795,,,,,,,,,,4.0,1.0,49.0,11.0,279.3524117000052,,,,,,,,,,,,,,,,,279.3393498999649,279.4523244999582,280.2526487999712,280.2367996999528,,,,,,,,,,,,,,,,,,,,,,,,,,,,,,,,,,,280.2405396999675,280.2526487999712,280.2526487999712,280.88791910000145,g,1.0,0.6231155000277795,,,,,,sub-061,1,stroop_test,60.112879950737714,
,,,,50.0,2.0,4.0,,,,,,,,,,,,,blau,yellow,g,0.0,g,1.0,0.5068856999860145,,,,,,,,,,4.0,2.0,50.0,7.0,280.902692499978,,,,,,,,,,,,,,,,,280.888450199971,282.1028044999693,282.90294379997067,282.8877934999764,,,,,,,,,,,,,,,,,,,,,,,,,,,,,,,,,,,282.89358029997675,282.90294379997067,282.90294379997067,283.42303659999743,g,1.0,0.5068856999860145,,,,,,sub-061,1,stroop_test,60.112879950737714,
,,,,51.0,3.0,4.0,,,,,,,,,,,,,blau,blue,b,1.0,b,1.0,0.4983591000200249,,,,,,,,,,4.0,3.0,51.0,5.0,283.43639739998616,,,,,,,,,,,,,,,,,283.4238861000049,284.6365554999793,285.4365266999812,285.42114809999475,,,,,,,,,,,,,,,,,,,,,,,,,,,,,,,,,,,285.42188649997115,285.4365266999812,285.4365266999812,285.9387361999834,b,1.0,0.4983591000200249,,,,,,sub-061,1,stroop_test,60.112879950737714,
,,,,52.0,4.0,4.0,,,,,,,,,,,,,gelb,blue,b,0.0,b,1.0,0.7128421000088565,,,,,,,,,,4.0,4.0,52.0,9.0,285.95316319999984,,,,,,,,,,,,,,,,,285.9393446999602,286.30317149998154,287.1034369999543,287.08798620000016,,,,,,,,,,,,,,,,,,,,,,,,,,,,,,,,,,,287.09425959998043,287.1034369999543,287.1034369999543,287.8224409999675,b,1.0,0.7128421000088565,,,,,,sub-061,1,stroop_test,60.112879950737714,
,,,,53.0,5.0,4.0,,,,,,,,,,,,,blau,red,r,0.0,r,1.0,0.3514157000463456,,,,,,,,,,4.0,5.0,53.0,4.0,287.8366160999867,,,,,,,,,,,,,,,,,287.82320230000187,287.93676660000347,288.736746999959,288.7215317999944,,,,,,,,,,,,,,,,,,,,,,,,,,,,,,,,,,,288.7269015999628,288.736746999959,288.736746999959,289.1054677999928,r,1.0,0.3514157000463456,,,,,,sub-061,1,stroop_test,60.112879950737714,
,,,,54.0,6.0,4.0,,,,,,,,,,,,,rot,red,r,1.0,r,1.0,0.4905284999986179,,,,,,,,,,4.0,6.0,54.0,0.0,289.1202729999786,,,,,,,,,,,,,,,,,289.1060302999685,289.92063559999224,290.7203556000022,290.70490650000283,,,,,,,,,,,,,,,,,,,,,,,,,,,,,,,,,,,290.7109480999643,290.7203556000022,290.7203556000022,291.2222936999751,r,1.0,0.4905284999986179,,,,,,sub-061,1,stroop_test,60.112879950737714,
,,,,55.0,7.0,4.0,,,,,,,,,,,,,rot,red,r,1.0,r,1.0,0.4122544000274502,,,,,,,,,,4.0,7.0,55.0,1.0,291.2371325999848,,,,,,,,,,,,,,,,,291.2228306999896,291.5871337999706,292.3870287999744,292.3717744000023,,,,,,,,,,,,,,,,,,,,,,,,,,,,,,,,,,,292.37245319999056,292.3870287999744,292.3870287999744,292.8061005999916,r,1.0,0.4122544000274502,,,,,,sub-061,1,stroop_test,60.112879950737714,
,,,,56.0,8.0,4.0,,,,,,,,,,,,,gelb,red,r,0.0,r,1.0,0.5179437999613583,,,,,,,,,,4.0,8.0,56.0,8.0,292.8203588000033,,,,,,,,,,,,,,,,,292.80676339997444,294.0205720999511,294.82080549997045,294.80532619997393,,,,,,,,,,,,,,,,,,,,,,,,,,,,,,,,,,,294.81095939996885,294.82080549997045,294.82080549997045,295.3408058999921,r,1.0,0.5179437999613583,,,,,,sub-061,1,stroop_test,60.112879950737714,
,,,,57.0,9.0,4.0,,,,,,,,,,,,,rot,yellow,g,0.0,g,1.0,0.3197409000131301,,,,,,,,,,4.0,9.0,57.0,3.0,295.3540612999932,,,,,,,,,,,,,,,,,295.34134779998567,295.7042341000051,296.5042451999616,296.4885601999704,,,,,,,,,,,,,,,,,,,,,,,,,,,,,,,,,,,296.4943568999879,296.5042451999616,296.5042451999616,296.8395580999786,g,1.0,0.3197409000131301,,,,,,sub-061,1,stroop_test,60.112879950737714,
,,,,58.0,10.0,4.0,,,,,,,,,,,,,blau,blue,b,1.0,b,1.0,0.3564180000103079,,,,,,,,,,4.0,10.0,58.0,6.0,296.85432059998857,,,,,,,,,,,,,,,,,296.84012619999703,296.9541156999767,297.754274100007,297.7388742999756,,,,,,,,,,,,,,,,,,,,,,,,,,,,,,,,,,,297.7438850000035,297.754274100007,297.754274100007,298.12241650000215,b,1.0,0.3564180000103079,,,,,,sub-061,1,stroop_test,60.112879950737714,
,,,,59.0,11.0,4.0,,,,,,,,,,,,,gelb,yellow,g,1.0,g,1.0,0.4317369999480434,,,,,,,,,,4.0,11.0,59.0,10.0,298.13727119995747,,,,,,,,,,,,,,,,,298.12295589997666,298.487922100001,299.2877256000065,299.2727707999875,,,,,,,,,,,,,,,,,,,,,,,,,,,,,,,,,,,299.2786746000056,299.2877256000065,299.2877256000065,299.72336760000326,g,1.0,0.4317369999480434,,,,,,sub-061,1,stroop_test,60.112879950737714,
,,,,60.0,0.0,5.0,,,,,,,,,,,,,rot,red,r,1.0,r,1.0,0.482502700004261,,,,,,,,,,5.0,0.0,60.0,1.0,299.7379086999572,,,,,,,,,,,,,,,,,299.72411999996984,300.53806960000657,301.3381060999818,301.32266209996305,,,,,,,,,,,,,,,,,,,,,,,,,,,,,,,,,,,301.3280075999792,301.3381060999818,301.3381060999818,301.8236707999604,r,1.0,0.482502700004261,,,,,,sub-061,1,stroop_test,60.112879950737714,
,,,,61.0,1.0,5.0,,,,,,,,,,,,,rot,blue,b,0.0,b,1.0,0.4670175000210292,,,,,,,,,,5.0,1.0,61.0,2.0,301.838057499961,,,,,,,,,,,,,,,,,301.82419509999454,301.93788789998507,302.7380209999974,302.722954900004,,,,,,,,,,,,,,,,,,,,,,,,,,,,,,,,,,,302.7235990999616,302.7380209999974,302.7380209999974,303.2076301999623,b,1.0,0.4670175000210292,,,,,,sub-061,1,stroop_test,60.112879950737714,
,,,,62.0,2.0,5.0,,,,,,,,,,,,,gelb,yellow,g,1.0,g,1.0,0.6416600000229664,,,,,,,,,,5.0,2.0,62.0,10.0,303.221667899983,,,,,,,,,,,,,,,,,303.2081431999686,303.32145769998897,304.12176059995545,304.1061563999974,,,,,,,,,,,,,,,,,,,,,,,,,,,,,,,,,,,304.11457679996965,304.12176059995545,304.12176059995545,304.7726369999582,g,1.0,0.6416600000229664,,,,,,sub-061,1,stroop_test,60.112879950737714,
,,,,63.0,3.0,5.0,,,,,,,,,,,,,blau,yellow,g,0.0,g,1.0,0.47132439998677,,,,,,,,,,5.0,3.0,63.0,7.0,304.7878327000072,,,,,,,,,,,,,,,,,304.7730948999524,305.13793079997413,305.93836139998166,305.9229038999765,,,,,,,,,,,,,,,,,,,,,,,,,,,,,,,,,,,305.9279067000025,305.93836139998166,305.93836139998166,306.42401939997217,g,1.0,0.47132439998677,,,,,,sub-061,1,stroop_test,60.112879950737714,
,,,,64.0,4.0,5.0,,,,,,,,,,,,,blau,blue,b,1.0,b,1.0,0.5074065999942832,,,,,,,,,,5.0,4.0,64.0,5.0,306.43861939996714,,,,,,,,,,,,,,,,,306.4245421999949,306.7882115999819,307.58839839999564,307.57306059997063,,,,,,,,,,,,,,,,,,,,,,,,,,,,,,,,,,,307.57382429996505,307.58839839999564,307.58839839999564,308.10726779996185,b,1.0,0.5074065999942832,,,,,,sub-061,1,stroop_test,60.112879950737714,
,,,,65.0,5.0,5.0,,,,,,,,,,,,,gelb,red,r,0.0,r,1.0,0.2936536999768577,,,,,,,,,,5.0,5.0,65.0,8.0,308.1220265000011,,,,,,,,,,,,,,,,,308.1078418999677,309.32199249998666,310.1221378999762,310.1077407999546,,,,,,,,,,,,,,,,,,,,,,,,,,,,,,,,,,,310.11305549996905,310.1221378999762,310.1221378999762,310.4246882000007,r,1.0,0.2936536999768577,,,,,,sub-061,1,stroop_test,60.112879950737714,
,,,,66.0,6.0,5.0,,,,,,,,,,,,,rot,red,r,1.0,r,1.0,0.5511892999638803,,,,,,,,,,5.0,6.0,66.0,0.0,310.4385956999613,,,,,,,,,,,,,,,,,310.4253059999901,311.63849969999865,312.43895859998884,312.4239399000071,,,,,,,,,,,,,,,,,,,,,,,,,,,,,,,,,,,312.4311045999639,312.43895859998884,312.43895859998884,313.00769569998374,r,1.0,0.5511892999638803,,,,,,sub-061,1,stroop_test,60.112879950737714,
,,,,67.0,7.0,5.0,,,,,,,,,,,,,gelb,blue,b,0.0,b,1.0,0.4347187000093981,,,,,,,,,,5.0,7.0,67.0,9.0,313.0220250999555,,,,,,,,,,,,,,,,,313.0084030999569,314.22256579995155,315.0225244999747,315.0072017000057,,,,,,,,,,,,,,,,,,,,,,,,,,,,,,,,,,,315.0132743999711,315.0225244999747,315.0225244999747,315.4749332999927,b,1.0,0.4347187000093981,,,,,,sub-061,1,stroop_test,60.112879950737714,
,,,,68.0,8.0,5.0,,,,,,,,,,,,,gelb,yellow,g,1.0,g,1.0,0.3804290000116452,,,,,,,,,,5.0,8.0,68.0,11.0,315.4891927999561,,,,,,,,,,,,,,,,,315.47545239998726,316.28938089997973,317.0895042999764,317.0744209999684,,,,,,,,,,,,,,,,,,,,,,,,,,,,,,,,,,,317.07519709999906,317.0895042999764,317.0895042999764,317.47561389999464,g,1.0,0.3804290000116452,,,,,,sub-061,1,stroop_test,60.112879950737714,
,,,,69.0,9.0,5.0,,,,,,,,,,,,,blau,blue,b,1.0,b,1.0,0.4788691999856382,,,,,,,,,,5.0,9.0,69.0,6.0,317.4897090999875,,,,,,,,,,,,,,,,,317.47614300000714,318.2894593999954,319.08992249995936,319.07420959998854,,,,,,,,,,,,,,,,,,,,,,,,,,,,,,,,,,,319.0803341999999,319.08992249995936,319.08992249995936,319.57551100000273,b,1.0,0.4788691999856382,,,,,,sub-061,1,stroop_test,60.112879950737714,
,,,,70.0,10.0,5.0,,,,,,,,,,,,,blau,red,r,0.0,r,1.0,0.608594199991785,,,,,,,,,,5.0,10.0,70.0,4.0,319.5895717999665,,,,,,,,,,,,,,,,,319.5760202999809,319.68976009998005,320.48978609999176,320.4746295000077,,,,,,,,,,,,,,,,,,,,,,,,,,,,,,,,,,,320.47529559995746,320.48978609999176,320.48978609999176,321.1088869999512,r,1.0,0.608594199991785,,,,,,sub-061,1,stroop_test,60.112879950737714,
,,,,71.0,11.0,5.0,,,,,,,,,,,,,rot,yellow,g,0.0,g,1.0,0.5516102999681607,,,,,,,,,,5.0,11.0,71.0,3.0,321.123183699965,,,,,,,,,,,,,,,,,321.1094058000017,321.2231513999868,322.02309739997145,322.007787199982,,,,,,,,,,,,,,,,,,,,,,,,,,,,,,,,,,,322.01357289997395,322.02309739997145,322.02309739997145,322.59220139996614,g,1.0,0.5516102999681607,,,,,,sub-061,1,stroop_test,60.112879950737714,
,,,,72.0,0.0,6.0,,,,,,,,,,,,,gelb,yellow,g,1.0,g,1.0,0.5961762999650091,,,,,,,,,,6.0,0.0,72.0,10.0,322.6065410999581,,,,,,,,,,,,,,,,,322.5927753999713,323.40660559997195,324.2063818000024,324.1905441999552,,,,,,,,,,,,,,,,,,,,,,,,,,,,,,,,,,,324.193827399984,324.2063818000024,324.2063818000024,324.80821250000736,g,1.0,0.5961762999650091,,,,,,sub-061,1,stroop_test,60.112879950737714,
,,,,73.0,1.0,6.0,,,,,,,,,,,,,blau,red,r,0.0,r,1.0,0.5366161999991164,,,,,,,,,,6.0,1.0,73.0,4.0,324.8231679999735,,,,,,,,,,,,,,,,,324.8087434999761,326.02332659997046,326.82338059996255,326.80770929995924,,,,,,,,,,,,,,,,,,,,,,,,,,,,,,,,,,,326.812545599998,326.82338059996255,326.82338059996255,327.37497299996903,r,1.0,0.5366161999991164,,,,,,sub-061,1,stroop_test,60.112879950737714,
,,,,74.0,2.0,6.0,,,,,,,,,,,,,blau,blue,b,1.0,b,1.0,0.4679653000202961,,,,,,,,,,6.0,2.0,74.0,5.0,327.3900045999908,,,,,,,,,,,,,,,,,327.3755103999865,327.48998559999745,328.2901301999809,328.27451109996764,,,,,,,,,,,,,,,,,,,,,,,,,,,,,,,,,,,328.2753095999942,328.2901301999809,328.2901301999809,328.7753489000024,b,1.0,0.4679653000202961,,,,,,sub-061,1,stroop_test,60.112879950737714,
,,,,75.0,3.0,6.0,,,,,,,,,,,,,rot,blue,b,0.0,b,1.0,0.6087181000038981,,,,,,,,,,6.0,3.0,75.0,2.0,328.7900354999583,,,,,,,,,,,,,,,,,328.77570299996296,328.8902132000076,329.6905697999755,329.67515530000674,,,,,,,,,,,,,,,,,,,,,,,,,,,,,,,,,,,329.68050239997683,329.6905697999755,329.6905697999755,330.30943079997087,b,1.0,0.6087181000038981,,,,,,sub-061,1,stroop_test,60.112879950737714,
,,,,76.0,4.0,6.0,,,,,,,,,,,,,rot,red,r,1.0,r,1.0,0.5217954000108875,,,,,,,,,,6.0,4.0,76.0,1.0,330.32427399995504,,,,,,,,,,,,,,,,,330.3099554000073,331.12416289997054,331.92401399998926,331.9085533999605,,,,,,,,,,,,,,,,,,,,,,,,,,,,,,,,,,,331.90926379995653,331.92401399998926,331.92401399998926,332.4603667999618,r,1.0,0.5217954000108875,,,,,,sub-061,1,stroop_test,60.112879950737714,
,,,,77.0,5.0,6.0,,,,,,,,,,,,,rot,yellow,g,0.0,g,1.0,0.4820462000207044,,,,,,,,,,6.0,5.0,77.0,3.0,332.47423409996554,,,,,,,,,,,,,,,,,332.46128869999666,333.2741786999977,334.0744861999992,334.0590860999655,,,,,,,,,,,,,,,,,,,,,,,,,,,,,,,,,,,334.05986320000375,334.0744861999992,334.0744861999992,334.56034929997986,g,1.0,0.4820462000207044,,,,,,sub-061,1,stroop_test,60.112879950737714,
,,,,78.0,6.0,6.0,,,,,,,,,,,,,blau,yellow,g,0.0,g,1.0,0.4019825999857858,,,,,,,,,,6.0,6.0,78.0,7.0,334.5742884000065,,,,,,,,,,,,,,,,,334.5609492000076,334.67460699996445,335.4746220999514,335.45886710000923,,,,,,,,,,,,,,,,,,,,,,,,,,,,,,,,,,,335.4639434999553,335.4746220999514,335.4746220999514,335.89319319999777,g,1.0,0.4019825999857858,,,,,,sub-061,1,stroop_test,60.112879950737714,
,,,,79.0,7.0,6.0,,,,,,,,,,,,,gelb,blue,b,0.0,b,1.0,0.4485160999465734,,,,,,,,,,6.0,7.0,79.0,9.0,335.9076212999644,,,,,,,,,,,,,,,,,335.89379709999776,337.1080992000061,337.9080297999899,337.8926142999553,,,,,,,,,,,,,,,,,,,,,,,,,,,,,,,,,,,337.89836180000566,337.9080297999899,337.9080297999899,338.36003749998054,b,1.0,0.4485160999465734,,,,,,sub-061,1,stroop_test,60.112879950737714,
,,,,80.0,8.0,6.0,,,,,,,,,,,,,gelb,red,r,0.0,r,1.0,0.5455250000231899,,,,,,,,,,6.0,8.0,80.0,8.0,338.37486089998856,,,,,,,,,,,,,,,,,338.36062659998424,338.4747345999931,339.2749178999802,339.2597003999981,,,,,,,,,,,,,,,,,,,,,,,,,,,,,,,,,,,339.26035589998355,339.2749178999802,339.2749178999802,339.8270564999548,r,1.0,0.5455250000231899,,,,,,sub-061,1,stroop_test,60.112879950737714,
,,,,81.0,9.0,6.0,,,,,,,,,,,,,blau,blue,b,1.0,b,1.0,0.493182500009425,,,,,,,,,,6.0,9.0,81.0,6.0,339.84148369997274,,,,,,,,,,,,,,,,,339.8277239999734,339.9418207999552,340.7418053000001,340.7260920999688,,,,,,,,,,,,,,,,,,,,,,,,,,,,,,,,,,,340.73110819997964,340.7418053000001,340.7418053000001,341.2437702000025,b,1.0,0.493182500009425,,,,,,sub-061,1,stroop_test,60.112879950737714,
,,,,82.0,10.0,6.0,,,,,,,,,,,,,rot,red,r,1.0,r,1.0,0.4050527000217698,,,,,,,,,,6.0,10.0,82.0,0.0,341.25815259997034,,,,,,,,,,,,,,,,,341.2442824000027,342.0584710999974,342.8583745000069,342.8429926999961,,,,,,,,,,,,,,,,,,,,,,,,,,,,,,,,,,,342.84905429999344,342.8583745000069,342.8583745000069,343.27720680000493,r,1.0,0.4050527000217698,,,,,,sub-061,1,stroop_test,60.112879950737714,
,,,,83.0,11.0,6.0,,,,,,,,,,,,,gelb,yellow,g,1.0,g,1.0,0.3894025000045076,,,,,,,,,,6.0,11.0,83.0,11.0,343.2918320999597,,,,,,,,,,,,,,,,,343.27779590000864,343.392013899982,344.191994599998,344.1766054999898,,,,,,,,,,,,,,,,,,,,,,,,,,,,,,,,,,,344.18271520000417,344.191994599998,344.191994599998,344.5939452999737,g,1.0,0.3894025000045076,,,,,,sub-061,1,stroop_test,60.112879950737714,
,,,,84.0,0.0,7.0,,,,,,,,,,,,,rot,red,r,1.0,r,1.0,0.4552657000022009,,,,,,,,,,7.0,0.0,84.0,1.0,344.6084772999748,,,,,,,,,,,,,,,,,344.59452889999375,344.95880699995905,345.75871709996136,345.74331489996985,,,,,,,,,,,,,,,,,,,,,,,,,,,,,,,,,,,345.7508808999555,345.75871709996136,345.75871709996136,346.2274059999618,r,1.0,0.4552657000022009,,,,,,sub-061,1,stroop_test,60.112879950737714,
,,,,85.0,1.0,7.0,,,,,,,,,,,,,rot,yellow,g,0.0,g,1.0,0.3781893000123091,,,,,,,,,,7.0,1.0,85.0,3.0,346.2421033999999,,,,,,,,,,,,,,,,,346.2279520999873,347.44246399996337,348.2422211999656,348.2269882999826,,,,,,,,,,,,,,,,,,,,,,,,,,,,,,,,,,,348.22766319999937,348.2422211999656,348.2422211999656,348.62744640000165,g,1.0,0.3781893000123091,,,,,,sub-061,1,stroop_test,60.112879950737714,
,,,,86.0,2.0,7.0,,,,,,,,,,,,,gelb,blue,b,0.0,b,1.0,0.4198639999958686,,,,,,,,,,7.0,2.0,86.0,9.0,348.64222969999537,,,,,,,,,,,,,,,,,348.6280513999518,348.7422368999687,349.5425281999633,349.5269475999521,,,,,,,,,,,,,,,,,,,,,,,,,,,,,,,,,,,349.53255020000506,349.5425281999633,349.5425281999633,349.9776428999612,b,1.0,0.4198639999958686,,,,,,sub-061,1,stroop_test,60.112879950737714,
,,,,87.0,3.0,7.0,,,,,,,,,,,,,rot,blue,b,0.0,b,1.0,0.7111620000214316,,,,,,,,,,7.0,3.0,87.0,2.0,349.99254049995216,,,,,,,,,,,,,,,,,349.97818819998065,350.3425411999924,351.14267269999254,351.1275175999617,,,,,,,,,,,,,,,,,,,,,,,,,,,,,,,,,,,351.1327828000067,351.14267269999254,351.14267269999254,351.86128189996816,b,1.0,0.7111620000214316,,,,,,sub-061,1,stroop_test,60.112879950737714,
,,,,88.0,4.0,7.0,,,,,,,,,,,,,blau,yellow,g,0.0,g,1.0,0.5697183000156656,,,,,,,,,,7.0,4.0,88.0,7.0,351.87589709996246,,,,,,,,,,,,,,,,,351.8618437999976,353.0759684999939,353.8763300999999,353.8609829999623,,,,,,,,,,,,,,,,,,,,,,,,,,,,,,,,,,,353.86626009998145,353.8763300999999,353.8763300999999,354.4614952999982,g,1.0,0.5697183000156656,,,,,,sub-061,1,stroop_test,60.112879950737714,
,,,,89.0,5.0,7.0,,,,,,,,,,,,,gelb,yellow,g,1.0,g,1.0,0.3396239000139758,,,,,,,,,,7.0,5.0,89.0,10.0,354.4762725000037,,,,,,,,,,,,,,,,,354.46207449998474,355.2761677999515,356.07631739997305,356.0609879999538,,,,,,,,,,,,,,,,,,,,,,,,,,,,,,,,,,,356.066927799955,356.07631739997305,356.07631739997305,356.42861369997263,g,1.0,0.3396239000139758,,,,,,sub-061,1,stroop_test,60.112879950737714,
,,,,90.0,6.0,7.0,,,,,,,,,,,,,blau,blue,b,1.0,b,1.0,0.534412200038787,,,,,,,,,,7.0,6.0,90.0,5.0,356.4429753999575,,,,,,,,,,,,,,,,,356.429193799966,356.5429674999905,357.34311129996786,357.327777199971,,,,,,,,,,,,,,,,,,,,,,,,,,,,,,,,,,,357.33373919996666,357.34311129996786,357.34311129996786,357.8798802999663,b,1.0,0.534412200038787,,,,,,sub-061,1,stroop_test,60.112879950737714,
,,,,91.0,7.0,7.0,,,,,,,,,,,,,gelb,red,r,0.0,r,1.0,0.3824746000464074,,,,,,,,,,7.0,7.0,91.0,8.0,357.89334199996665,,,,,,,,,,,,,,,,,357.8804308999679,358.69320679997327,359.51252559997374,359.4780019999598,,,,,,,,,,,,,,,,,,,,,,,,,,,,,,,,,,,359.5044728000066,359.51252559997374,359.51252559997374,359.9122317999718,r,1.0,0.3824746000464074,,,,,,sub-061,1,stroop_test,60.112879950737714,
,,,,92.0,8.0,7.0,,,,,,,,,,,,,gelb,yellow,g,1.0,g,1.0,0.4441644999897107,,,,,,,,,,7.0,8.0,92.0,11.0,359.926638600009,,,,,,,,,,,,,,,,,359.9127528999816,360.7265862000058,361.5268077999936,361.5117463999777,,,,,,,,,,,,,,,,,,,,,,,,,,,,,,,,,,,361.5124723999761,361.5268077999936,361.5268077999936,361.9787947000005,g,1.0,0.4441644999897107,,,,,,sub-061,1,stroop_test,60.112879950737714,
,,,,93.0,9.0,7.0,,,,,,,,,,,,,rot,red,r,1.0,r,1.0,0.4786459999741055,,,,,,,,,,7.0,9.0,93.0,0.0,361.9934883999522,,,,,,,,,,,,,,,,,361.9793819999904,362.34425520000514,363.14360379998107,363.1282849999843,,,,,,,,,,,,,,,,,,,,,,,,,,,,,,,,,,,363.1344932999928,363.14360379998107,363.14360379998107,363.6290165999672,r,1.0,0.4786459999741055,,,,,,sub-061,1,stroop_test,60.112879950737714,
,,,,94.0,10.0,7.0,,,,,,,,,,,,,blau,red,r,0.0,r,1.0,0.8234417000203393,,,,,,,,,,7.0,10.0,94.0,4.0,363.6436839000089,,,,,,,,,,,,,,,,,363.6295944000012,363.74374800000805,364.5437269999529,364.52884059998905,,,,,,,,,,,,,,,,,,,,,,,,,,,,,,,,,,,364.5340797999525,364.5437269999529,364.5437269999529,365.3793943999917,r,1.0,0.8234417000203393,,,,,,sub-061,1,stroop_test,60.112879950737714,
,,,,95.0,11.0,7.0,,,,,,,,,,,,,blau,blue,b,1.0,b,1.0,0.5000505999778397,,,,,,,,,,7.0,11.0,95.0,6.0,365.393820199999,,,,,,,,,,,,,,,,,365.3799833999946,365.4938797999639,366.2939822999761,366.2784403999685,,,,,,,,,,,,,,,,,,,,,,,,,,,,,,,,,,,366.2791539999889,366.2939822999761,366.2939822999761,366.79655299999285,b,1.0,0.5000505999778397,,,,,,sub-061,1,stroop_test,60.112879950737714,
,,,,96.0,0.0,8.0,,,,,,,,,,,,,blau,red,r,0.0,r,1.0,0.4431997999781742,,,,,,,,,,8.0,0.0,96.0,4.0,366.8107204999542,,,,,,,,,,,,,,,,,366.797120800009,367.6106928999652,368.410927799996,368.3953598999651,,,,,,,,,,,,,,,,,,,,,,,,,,,,,,,,,,,368.39599419996375,368.410927799996,368.410927799996,368.8626384999952,r,1.0,0.4431997999781742,,,,,,sub-061,1,stroop_test,60.112879950737714,
,,,,97.0,1.0,8.0,,,,,,,,,,,,,gelb,yellow,g,1.0,g,1.0,0.4488089000224136,,,,,,,,,,8.0,1.0,97.0,11.0,368.87751879997086,,,,,,,,,,,,,,,,,368.8631948999828,369.22742499999,370.0274968000013,370.0123080000049,,,,,,,,,,,,,,,,,,,,,,,,,,,,,,,,,,,370.0189795999904,370.0274968000013,370.0274968000013,370.47986469999887,g,1.0,0.4488089000224136,,,,,,sub-061,1,stroop_test,60.112879950737714,
,,,,98.0,2.0,8.0,,,,,,,,,,,,,rot,blue,b,0.0,b,1.0,0.3345955000258982,,,,,,,,,,8.0,2.0,98.0,2.0,370.4942054999992,,,,,,,,,,,,,,,,,370.48054179997416,370.84426240000175,371.6444274999667,371.6289080999559,,,,,,,,,,,,,,,,,,,,,,,,,,,,,,,,,,,371.6347240000032,371.6444274999667,371.6444274999667,371.9813569999533,b,1.0,0.3345955000258982,,,,,,sub-061,1,stroop_test,60.112879950737714,
,,,,99.0,3.0,8.0,,,,,,,,,,,,,rot,yellow,g,0.0,r,0.0,0.425708599970676,,,,,,,,,,8.0,3.0,99.0,3.0,371.99465089995647,,,,,,,,,,,,,,,,,371.9819628999685,373.194657999964,373.9945337999961,373.97917189996224,,,,,,,,,,,,,,,,,,,,,,,,,,,,,,,,,,,373.97983679996105,373.9945337999961,373.9945337999961,374.43124539998826,r,0.0,0.425708599970676,,,,,,sub-061,1,stroop_test,60.112879950737714,
,,,,100.0,4.0,8.0,,,,,,,,,,,,,blau,yellow,g,0.0,r,0.0,0.7927184000145644,,,,,,,,,,8.0,4.0,100.0,7.0,374.4446447999799,,,,,,,,,,,,,,,,,374.431913999957,375.6450219999533,376.445001999964,376.4296162999817,,,,,,,,,,,,,,,,,,,,,,,,,,,,,,,,,,,376.4344539999729,376.445001999964,376.445001999964,377.2471678999718,r,0.0,0.7927184000145644,,,,,,sub-061,1,stroop_test,60.112879950737714,
,,,,101.0,5.0,8.0,,,,,,,,,,,,,gelb,red,r,0.0,r,1.0,0.6425295000080951,,,,,,,,,,8.0,5.0,101.0,8.0,377.2614848999656,,,,,,,,,,,,,,,,,377.2478936999687,378.0618345999974,378.8618230999564,378.8468595999875,,,,,,,,,,,,,,,,,,,,,,,,,,,,,,,,,,,378.8533208000008,378.8618230999564,378.8618230999564,379.51412419998087,r,1.0,0.6425295000080951,,,,,,sub-061,1,stroop_test,60.112879950737714,
,,,,102.0,6.0,8.0,,,,,,,,,,,,,gelb,yellow,g,1.0,g,1.0,0.4996026000007987,,,,,,,,,,8.0,6.0,102.0,10.0,379.5285419999855,,,,,,,,,,,,,,,,,379.5146572999656,379.8784351999639,380.6785307999817,380.6630503999768,,,,,,,,,,,,,,,,,,,,,,,,,,,,,,,,,,,380.66380779998144,380.6785307999817,380.6785307999817,381.1813042999711,g,1.0,0.4996026000007987,,,,,,sub-061,1,stroop_test,60.112879950737714,
,,,,103.0,7.0,8.0,,,,,,,,,,,,,blau,blue,b,1.0,b,1.0,0.4827026999555528,,,,,,,,,,8.0,7.0,103.0,6.0,381.1953155999654,,,,,,,,,,,,,,,,,381.1818047999986,381.9952831999981,382.7954994000029,382.7799413999892,,,,,,,,,,,,,,,,,,,,,,,,,,,,,,,,,,,382.7848863999825,382.7954994000029,382.7954994000029,383.2816258999519,b,1.0,0.4827026999555528,,,,,,sub-061,1,stroop_test,60.112879950737714,
,,,,104.0,8.0,8.0,,,,,,,,,,,,,rot,red,r,1.0,r,1.0,0.4972045000176877,,,,,,,,,,8.0,8.0,104.0,0.0,383.29542759998,,,,,,,,,,,,,,,,,383.2821730999858,383.39613469998585,384.1954845999717,384.1799577999627,,,,,,,,,,,,,,,,,,,,,,,,,,,,,,,,,,,384.1863469000091,384.1954845999717,384.1954845999717,384.69739980000304,r,1.0,0.4972045000176877,,,,,,sub-061,1,stroop_test,60.112879950737714,
,,,,105.0,9.0,8.0,,,,,,,,,,,,,gelb,blue,b,0.0,b,1.0,0.6776034000213258,,,,,,,,,,8.0,9.0,105.0,9.0,384.7124406999792,,,,,,,,,,,,,,,,,384.6979435999529,384.81248299998697,385.612263899995,385.59686180000426,,,,,,,,,,,,,,,,,,,,,,,,,,,,,,,,,,,385.6029985999921,385.612263899995,385.612263899995,386.2977309999988,b,1.0,0.6776034000213258,,,,,,sub-061,1,stroop_test,60.112879950737714,
,,,,106.0,10.0,8.0,,,,,,,,,,,,,rot,red,r,1.0,r,1.0,0.5097915999940597,,,,,,,,,,8.0,10.0,106.0,1.0,386.31255569995847,,,,,,,,,,,,,,,,,386.2982334999833,387.51254319999134,388.3127495999797,388.297116199974,,,,,,,,,,,,,,,,,,,,,,,,,,,,,,,,,,,388.3032366999541,388.3127495999797,388.3127495999797,388.8316166999866,r,1.0,0.5097915999940597,,,,,,sub-061,1,stroop_test,60.112879950737714,
,,,,107.0,11.0,8.0,,,,,,,,,,,,,blau,blue,b,1.0,b,1.0,0.4398273000260815,,,,,,,,,,8.0,11.0,107.0,5.0,388.8461690999684,,,,,,,,,,,,,,,,,388.83216769999126,389.1961028999649,389.9960842999863,389.9810235999757,,,,,,,,,,,,,,,,,,,,,,,,,,,,,,,,,,,389.9863789000083,389.9960842999863,389.9960842999863,390.4490413999884,b,1.0,0.4398273000260815,,,,,,sub-061,1,stroop_test,60.112879950737714,
,,,,108.0,0.0,9.0,,,,,,,,,,,,,blau,red,r,0.0,r,1.0,0.6161606999812648,,,,,,,,,,9.0,0.0,108.0,4.0,390.4627801000024,,,,,,,,,,,,,,,,,390.44966409995686,391.6628256999538,392.4629673999734,392.4474424999789,,,,,,,,,,,,,,,,,,,,,,,,,,,,,,,,,,,392.448232499999,392.4629673999734,392.4629673999734,393.0828831999679,r,1.0,0.6161606999812648,,,,,,sub-061,1,stroop_test,60.112879950737714,
,,,,109.0,1.0,9.0,,,,,,,,,,,,,blau,blue,b,1.0,b,1.0,0.4379902000073343,,,,,,,,,,9.0,1.0,109.0,6.0,393.09628719999455,,,,,,,,,,,,,,,,,393.08346080000047,393.4463859999669,394.2464997000061,394.2309968000045,,,,,,,,,,,,,,,,,,,,,,,,,,,,,,,,,,,394.231708999956,394.2464997000061,394.2464997000061,394.6985023999586,b,1.0,0.4379902000073343,,,,,,sub-061,1,stroop_test,60.112879950737714,
,,,,110.0,2.0,9.0,,,,,,,,,,,,,blau,yellow,g,0.0,g,1.0,0.3401569999987259,,,,,,,,,,9.0,2.0,110.0,7.0,394.7132378999959,,,,,,,,,,,,,,,,,394.6990117999958,394.8131431000074,395.6131963999942,395.5979954999639,,,,,,,,,,,,,,,,,,,,,,,,,,,,,,,,,,,395.5986512999516,395.6131963999942,395.6131963999942,395.9654012999963,g,1.0,0.3401569999987259,,,,,,sub-061,1,stroop_test,60.112879950737714,
,,,,111.0,3.0,9.0,,,,,,,,,,,,,blau,blue,b,1.0,b,1.0,0.488743300025817,,,,,,,,,,9.0,3.0,111.0,5.0,395.9798134999583,,,,,,,,,,,,,,,,,395.9659396999632,397.180224199954,397.9800673999707,397.9652710999944,,,,,,,,,,,,,,,,,,,,,,,,,,,,,,,,,,,397.96597610000754,397.9800673999707,397.9800673999707,398.48309569997946,b,1.0,0.488743300025817,,,,,,sub-061,1,stroop_test,60.112879950737714,
,,,,112.0,4.0,9.0,,,,,,,,,,,,,gelb,yellow,g,1.0,g,1.0,0.3934066999936476,,,,,,,,,,9.0,4.0,112.0,10.0,398.4967022999772,,,,,,,,,,,,,,,,,398.4836381999776,399.6967445999617,400.4970178999938,400.4818820999935,,,,,,,,,,,,,,,,,,,,,,,,,,,,,,,,,,,400.4882025999832,400.4970178999938,400.4970178999938,400.89949549996527,g,1.0,0.3934066999936476,,,,,,sub-061,1,stroop_test,60.112879950737714,
,,,,113.0,5.0,9.0,,,,,,,,,,,,,gelb,blue,b,0.0,b,1.0,0.5274573999922723,,,,,,,,,,9.0,5.0,113.0,9.0,400.91367499995977,,,,,,,,,,,,,,,,,400.899999199959,401.2636728999787,402.0639539999538,402.0484432000085,,,,,,,,,,,,,,,,,,,,,,,,,,,,,,,,,,,402.04940799996257,402.0639539999538,402.0639539999538,402.59992409998085,b,1.0,0.5274573999922723,,,,,,sub-061,1,stroop_test,60.112879950737714,
,,,,114.0,6.0,9.0,,,,,,,,,,,,,rot,yellow,g,0.0,g,1.0,0.8543579999823123,,,,,,,,,,9.0,6.0,114.0,3.0,402.61386689997744,,,,,,,,,,,,,,,,,402.6004708999535,403.8140659999917,404.6139365999843,404.5987507999525,,,,,,,,,,,,,,,,,,,,,,,,,,,,,,,,,,,404.6044229999534,404.6139365999843,404.6139365999843,405.4821949999896,g,1.0,0.8543579999823123,,,,,,sub-061,1,stroop_test,60.112879950737714,
,,,,115.0,7.0,9.0,,,,,,,,,,,,,gelb,red,r,0.0,r,1.0,0.4536877999780699,,,,,,,,,,9.0,7.0,115.0,8.0,405.4975167000084,,,,,,,,,,,,,,,,,405.4825975999702,405.84759039996425,406.6474368000054,406.6320664999657,,,,,,,,,,,,,,,,,,,,,,,,,,,,,,,,,,,406.6380566000007,406.6474368000054,406.6474368000054,407.1166959999828,r,1.0,0.4536877999780699,,,,,,sub-061,1,stroop_test,60.112879950737714,
,,,,116.0,8.0,9.0,,,,,,,,,,,,,rot,red,r,1.0,r,1.0,0.5449181000003591,,,,,,,,,,9.0,8.0,116.0,1.0,407.130971000006,,,,,,,,,,,,,,,,,407.117226900009,408.3310227000038,409.13115009997273,409.11583759996574,,,,,,,,,,,,,,,,,,,,,,,,,,,,,,,,,,,409.1217448999523,409.13115009997273,409.13115009997273,409.68324330000905,r,1.0,0.5449181000003591,,,,,,sub-061,1,stroop_test,60.112879950737714,
,,,,117.0,9.0,9.0,,,,,,,,,,,,,rot,blue,b,0.0,b,1.0,0.5820760000497103,,,,,,,,,,9.0,9.0,117.0,2.0,409.6978374999599,,,,,,,,,,,,,,,,,409.6838480999577,410.49821879999945,411.298037200002,411.28283199999714,,,,,,,,,,,,,,,,,,,,,,,,,,,,,,,,,,,411.2835300999577,411.298037200002,411.298037200002,411.8834292999818,b,1.0,0.5820760000497103,,,,,,sub-061,1,stroop_test,60.112879950737714,
,,,,118.0,10.0,9.0,,,,,,,,,,,,,rot,red,r,1.0,r,1.0,0.4659769999561831,,,,,,,,,,9.0,10.0,118.0,0.0,411.8979422999546,,,,,,,,,,,,,,,,,411.8840083999676,412.248004299996,413.0483030999894,413.032728799968,,,,,,,,,,,,,,,,,,,,,,,,,,,,,,,,,,,413.0334817999974,413.0483030999894,413.0483030999894,413.5171047999757,r,1.0,0.4659769999561831,,,,,,sub-061,1,stroop_test,60.112879950737714,
,,,,119.0,11.0,9.0,,,,,,,,,,,,,gelb,yellow,g,1.0,g,1.0,0.3483670999994501,,,,,,,,,,9.0,11.0,119.0,11.0,413.5316915999865,,,,,,,,,,,,,,,,,413.51768689998426,413.63153219997184,414.4319251999841,414.41692829999374,,,,,,,,,,,,,,,,,,,,,,,,,,,,,,,,,,,414.4226130999741,414.4319251999841,414.4319251999841,414.7838420000044,g,1.0,0.3483670999994501,,,,,,sub-061,1,stroop_test,60.112879950737714,
,,,,,,,,,,,,,,,,,,,,,,,,,,,,,,,,,,,,,,,,,,,,,,,,,,,,,,,,,,,,,,,,,,,,,,,,,,,,,,,,,,,,,,,,,,,,,,,,,,,,,,414.7840947000077,414.7984626999824,419.7989269999671,419.78356859995984,sub-061,1,stroop_test,60.112879950737714,
