wordCTK,colorCTK,corrAnsCTK,congruentCTK,thisN,thisTrialN,thisRepN,keyResp_CTK.keys,keyResp_CTK.corr,keyResp_CTK.rt,keyResp_CTK.duration,wordPractice,colorPractice,corrAnsPractice,congruentPractice,respPractice.keys,respPractice.corr,respPractice.rt,respPractice.duration,word,color,corrAns,congruent,keyResp_test_run.keys,keyResp_test_run.corr,keyResp_test_run.rt,keyResp_test_run.duration,trials_CTK.thisRepN,trials_CTK.thisTrialN,trials_CTK.thisN,trials_CTK.thisIndex,trials_practice.thisRepN,trials_practice.thisTrialN,trials_practice.thisN,trials_practice.thisIndex,trials_test.thisRepN,trials_test.thisTrialN,trials_test.thisN,trials_test.thisIndex,thisRow.t,notes,instruction.started,instr_text.started,instr_image.started,instr_resp.started,instruction.stopped,instr_resp.keys,instr_resp.rt,instr_resp.duration,instr_color_to_key.started,instr_ctk.started,resp_ctk.started,instr_color_to_key.stopped,resp_ctk.keys,resp_ctk.rt,resp_ctk.duration,ITI.started,fixcross.started,fixcross.stopped,ITI.stopped,color_to_key_run.started,stimulus_CTK.started,keyResp_CTK.started,color_to_key_run.stopped,trials_CTK.keyResp_CTK.keys,trials_CTK.keyResp_CTK.corr,trials_CTK.keyResp_CTK.rt,trials_CTK.keyResp_CTK.duration,instr_practice.started,instr_practice_text.started,instr_practice_resp.started,instr_practice.stopped,instr_practice_resp.keys,instr_practice_resp.rt,instr_practice_resp.duration,practice_run.started,stimulus_practice.started,respPractice.started,practice_run.stopped,trials_practice.respPractice.keys,trials_practice.respPractice.corr,trials_practice.respPractice.rt,trials_practice.respPractice.duration,feedback.started,textFeedback.started,feedback.stopped,textFeedback.stopped,instr_test.started,instr_test_text.started,instr_test_resp.started,instr_test.stopped,instr_test_resp.keys,instr_test_resp.rt,instr_test_resp.duration,test_run.started,stimulus_test_run.started,keyResp_test_run.started,test_run.stopped,trials_test.keyResp_test_run.keys,trials_test.keyResp_test_run.corr,trials_test.keyResp_test_run.rt,trials_test.keyResp_test_run.duration,goodbye.started,textGoodbye.started,textGoodbye.stopped,goodbye.stopped,participant,session,expName,frameRate,Unnamed: 113
,,,,,,,,,,,,,,,,,,,,,,,,,,,,,,,,,,,,,,,,,0.0071111249999376,0.01379395800177,0.01379395800177,0.01379395800177,44.359698624990415,space,44.30877095799951,,,,,,,,,,,,,,,,,,,,,,,,,,,,,,,,,,,,,,,,,,,,,,,,,,,,,,,,,,,sub-058,1,stroop_test,121.71823596447284,
,,,,,,,,,,,,,,,,,,,,,,,,,,,,,,,,,,,,,,,,,,,,,,,,,44.35976570799539,44.39217237499543,44.39217237499543,49.8039482079912,space,5.4090255839983,,,,,,,,,,,,,,,,,,,,,,,,,,,,,,,,,,,,,,,,,,,,,,,,,,,,sub-058,1,stroop_test,121.71823596447284,
test,yellow,g,1.0,0.0,0.0,0.0,g,1.0,1.9055318330065347,,,,,,,,,,,,,,,,,,0.0,0.0,0.0,1.0,,,,,,,,,49.835831416989095,,,,,,,,,,,,,,,,,49.82026183299604,49.90179474999604,50.70628708299773,50.69105045800097,50.697986957995454,50.70628708299773,50.70628708299773,52.62054312499822,g,1.0,1.9055318330065347,,,,,,,,,,,,,,,,,,,,,,,,,,,,,,,,,,,,,,,,sub-058,1,stroop_test,121.71823596447284,
test,blue,b,1.0,1.0,1.0,0.0,b,1.0,0.6636457910062745,,,,,,,,,,,,,,,,,,0.0,1.0,1.0,2.0,,,,,,,,,52.631160749995615,,,,,,,,,,,,,,,,,52.62113233299169,52.71786708300351,53.50976554199588,53.50180662499042,53.50238929199986,53.50976554199588,53.50976554199588,54.17673116699734,b,1.0,0.6636457910062745,,,,,,,,,,,,,,,,,,,,,,,,,,,,,,,,,,,,,,,,sub-058,1,stroop_test,121.71823596447284,
test,red,r,1.0,2.0,2.0,0.0,r,1.0,0.8527829999948153,,,,,,,,,,,,,,,,,,0.0,2.0,2.0,0.0,,,,,,,,,54.18716754199704,,,,,,,,,,,,,,,,,54.177256166993175,54.97574466699734,55.77769745799014,55.76889070800098,55.7698666669894,55.77769745799014,55.77769745799014,56.63695091700356,r,1.0,0.8527829999948153,,,,,,,,,,,,,,,,,,,,,,,,,,,,,,,,,,,,,,,,sub-058,1,stroop_test,121.71823596447284,
test,blue,b,1.0,3.0,0.0,1.0,g,0.0,0.5451358340069419,,,,,,,,,,,,,,,,,,1.0,0.0,3.0,2.0,,,,,,,,,56.64756079200015,,,,,,,,,,,,,,,,,56.6375137080031,56.98473275000288,57.77731954200135,57.76877508299367,57.76949995799805,57.77731954200135,57.77731954200135,58.326586041992414,g,0.0,0.5451358340069419,,,,,,,,,,,,,,,,,,,,,,,,,,,,,,,,,,,,,,,,sub-058,1,stroop_test,121.71823596447284,
test,yellow,g,1.0,4.0,1.0,1.0,g,1.0,0.3574773330037715,,,,,,,,,,,,,,,,,,1.0,1.0,4.0,1.0,,,,,,,,,58.33725625000079,,,,,,,,,,,,,,,,,58.32711112499237,59.52519004199712,60.31772412499413,60.30896958299854,60.30958291699062,60.31772412499413,60.31772412499413,60.68689425000048,g,1.0,0.3574773330037715,,,,,,,,,,,,,,,,,,,,,,,,,,,,,,,,,,,,,,,,sub-058,1,stroop_test,121.71823596447284,
test,red,r,1.0,5.0,2.0,1.0,r,1.0,1.0127393750008196,,,,,,,,,,,,,,,,,,1.0,2.0,5.0,0.0,,,,,,,,,60.6975050829933,,,,,,,,,,,,,,,,,60.687427750002826,61.48465766699519,62.27724433300318,62.2687137920002,62.2694145830028,62.27724433300318,62.27724433300318,63.29298216699681,r,1.0,1.0127393750008196,,,,,,,,,,,,,,,,,,,,,,,,,,,,,,,,,,,,,,,,sub-058,1,stroop_test,121.71823596447284,
test,blue,b,1.0,6.0,0.0,2.0,b,1.0,0.3444671659963205,,,,,,,,,,,,,,,,,,2.0,0.0,6.0,2.0,,,,,,,,,63.30400062499393,,,,,,,,,,,,,,,,,63.29352087499865,64.49206233299628,65.29307879199041,65.2850765829935,65.2856254169892,65.29307879199041,65.29307879199041,65.6416389169899,b,1.0,0.3444671659963205,,,,,,,,,,,,,,,,,,,,,,,,,,,,,,,,,,,,,,,,sub-058,1,stroop_test,121.71823596447284,
test,yellow,g,1.0,7.0,1.0,2.0,g,1.0,0.4581293749943143,,,,,,,,,,,,,,,,,,2.0,1.0,7.0,1.0,,,,,,,,,65.65272633299173,,,,,,,,,,,,,,,,,65.64216699999815,66.44124991699937,67.23423912499857,67.2257213749981,67.22635395800171,67.23423912499857,67.23423912499857,67.6954215829901,g,1.0,0.4581293749943143,,,,,,,,,,,,,,,,,,,,,,,,,,,,,,,,,,,,,,,,sub-058,1,stroop_test,121.71823596447284,
test,red,r,1.0,8.0,2.0,2.0,r,1.0,0.4012749170069583,,,,,,,,,,,,,,,,,,2.0,2.0,8.0,0.0,,,,,,,,,67.70606945799955,,,,,,,,,,,,,,,,,67.69595549999212,68.89160812499176,69.68353470799047,69.67491950000112,69.67548679199535,69.68353470799047,69.68353470799047,70.08857599999465,r,1.0,0.4012749170069583,,,,,,,,,,,,,,,,,,,,,,,,,,,,,,,,,,,,,,,,sub-058,1,stroop_test,121.71823596447284,
test,blue,b,1.0,9.0,0.0,3.0,b,1.0,0.3312257500074338,,,,,,,,,,,,,,,,,,3.0,0.0,9.0,2.0,,,,,,,,,70.09941374999471,,,,,,,,,,,,,,,,,70.08919241699914,70.88475312499213,71.67739850000362,71.66871537499537,71.6694377919921,71.67739850000362,71.67739850000362,72.0114093329903,b,1.0,0.3312257500074338,,,,,,,,,,,,,,,,,,,,,,,,,,,,,,,,,,,,,,,,sub-058,1,stroop_test,121.71823596447284,
test,red,r,1.0,10.0,1.0,3.0,r,1.0,0.4383930419862736,,,,,,,,,,,,,,,,,,3.0,1.0,10.0,0.0,,,,,,,,,72.02208183299808,,,,,,,,,,,,,,,,,72.01196237499244,73.20881562499562,74.00107699999353,73.99238420800248,73.9930106249958,74.00107699999353,74.00107699999353,74.44317079200118,r,1.0,0.4383930419862736,,,,,,,,,,,,,,,,,,,,,,,,,,,,,,,,,,,,,,,,sub-058,1,stroop_test,121.71823596447284,
test,yellow,g,1.0,11.0,2.0,3.0,g,1.0,0.3294044159993063,,,,,,,,,,,,,,,,,,3.0,2.0,11.0,1.0,,,,,,,,,74.45400612500089,,,,,,,,,,,,,,,,,74.44374979200074,75.64137683299487,76.43357262499921,76.42492479199427,76.42551558300329,76.43357262499921,76.43357262499921,76.77014812499692,g,1.0,0.3294044159993063,,,,,,,,,,,,,,,,,,,,,,,,,,,,,,,,,,,,,,,,sub-058,1,stroop_test,121.71823596447284,
,,,,,,,,,,,,,,,,,,,,,,,,,,,,,,,,,,,,,,,,,,,,,,,,,,,,,,,,,,,,,,,,,,,,76.77040500000294,76.78256862499984,76.78256862499984,80.4751674579893,space,3.6864209580089664,,,,,,,,,,,,,,,,,,,,,,,,,,,,,,,,,sub-058,1,stroop_test,121.71823596447284,
,,,,0.0,0.0,0.0,,,,,blau,red,r,0.0,r,1.0,0.3987015419988893,,,,,,,,,,,,,,0.0,0.0,0.0,4.0,,,,,80.49436604199582,,,,,,,,,,,,,,,,,80.48743349999131,80.81797704199562,81.61947854199389,81.6020719579974,,,,,,,,,,,,,,,,81.61174862500047,81.61947854199389,81.61947854199389,82.02125541699934,r,1.0,0.3987015419988893,,82.02865220799868,82.03857224999228,83.02410062499985,,,,,,,,,,,,,,,,,,,,,sub-058,1,stroop_test,121.71823596447284,
,,,,1.0,1.0,0.0,,,,,blau,blue,b,1.0,b,1.0,0.4299079580086982,,,,,,,,,,,,,,0.0,1.0,1.0,5.0,,,,,83.03484949999256,,,,,,,,,,,,,,,,,83.02456912500202,83.81831608299399,84.61096083300072,84.602161332994,,,,,,,,,,,,,,,,84.60311629199714,84.61096083300072,84.61096083300072,85.04359379199741,b,1.0,0.4299079580086982,,85.0444062500028,85.05625283299014,86.04174775000138,86.05128595799033,,,,,,,,,,,,,,,,,,,,sub-058,1,stroop_test,121.71823596447284,
,,,,2.0,2.0,0.0,,,,,gelb,yellow,g,1.0,g,1.0,0.5078666249901289,,,,,,,,,,,,,,0.0,2.0,2.0,11.0,,,,,86.05128595799033,,,,,,,,,,,,,,,,,86.04215204199136,86.39213462499902,87.19664249999914,87.18526308299624,,,,,,,,,,,,,,,,87.18877941700339,87.19664249999914,87.19664249999914,87.70973870799935,g,1.0,0.5078666249901289,,87.71052670798963,87.72060295799747,88.70816066699626,88.71814524999354,,,,,,,,,,,,,,,,,,,,sub-058,1,stroop_test,121.71823596447284,
,,,,3.0,3.0,0.0,,,,,blau,yellow,g,0.0,g,1.0,0.4351350000069942,,,,,,,,,,,,,,0.0,3.0,3.0,7.0,,,,,88.71814524999354,,,,,,,,,,,,,,,,,88.70853816698946,89.0577799169987,89.85342816699995,89.84179954200226,,,,,,,,,,,,,,,,89.84520850000263,89.85342816699995,89.85342816699995,90.29365754200262,g,1.0,0.4351350000069942,,90.29448841699924,90.30645191700025,91.29169537499548,91.30126599999494,,,,,,,,,,,,,,,,,,,,sub-058,1,stroop_test,121.71823596447284,
,,,,4.0,4.0,0.0,,,,,gelb,blue,b,0.0,b,1.0,0.8200628749909811,,,,,,,,,,,,,,0.0,4.0,4.0,9.0,,,,,91.30126599999494,,,,,,,,,,,,,,,,,91.29208729199308,91.64214529198944,92.4482216250035,92.4356041669962,,,,,,,,,,,,,,,,92.44054850000248,92.4482216250035,92.4482216250035,93.27173716700054,b,1.0,0.8200628749909811,,93.2725544999994,93.28468920799789,94.26865487499164,94.27475387499726,,,,,,,,,,,,,,,,,,,,sub-058,1,stroop_test,121.71823596447284,
,,,,5.0,5.0,0.0,,,,,rot,red,r,1.0,r,1.0,0.4949851249984931,,,,,,,,,,,,,,0.0,5.0,5.0,1.0,,,,,94.27475387499726,,,,,,,,,,,,,,,,,94.269040166997,94.6181595419912,95.41822949999188,95.40209750000211,,,,,,,,,,,,,,,,95.40708137500042,95.41822949999188,95.41822949999188,95.92022091700346,r,1.0,0.4949851249984931,,95.9210398330033,95.93288524998934,96.91898166699684,96.92579666699748,,,,,,,,,,,,,,,,,,,,sub-058,1,stroop_test,121.71823596447284,
,,,,6.0,6.0,0.0,,,,,rot,yellow,g,0.0,g,1.0,0.6851830829982646,,,,,,,,,,,,,,0.0,6.0,6.0,3.0,,,,,96.92579666699748,,,,,,,,,,,,,,,,,96.9196795829921,97.01789887499764,97.81095145799918,97.80240883299848,,,,,,,,,,,,,,,,97.80314366699896,97.81095145799918,97.81095145799918,98.50370779199876,g,1.0,0.6851830829982646,,98.50448408299415,98.51505504199304,99.50203216700174,99.50808800000232,,,,,,,,,,,,,,,,,,,,sub-058,1,stroop_test,121.71823596447284,
,,,,7.0,7.0,0.0,,,,,rot,blue,b,0.0,b,1.0,0.3373995420115534,,,,,,,,,,,,,,0.0,7.0,7.0,2.0,,,,,99.50808800000232,,,,,,,,,,,,,,,,,99.50240770800156,100.30143754200252,101.09491554199484,101.08605716699094,,,,,,,,,,,,,,,,101.08708416699665,101.09491554199484,101.09491554199484,101.43620424999972,b,1.0,0.3373995420115534,,101.4371833329933,101.4490172079968,102.43558466699324,102.44238999999652,,,,,,,,,,,,,,,,,,,,sub-058,1,stroop_test,121.71823596447284,
,,,,8.0,8.0,0.0,,,,,gelb,yellow,g,1.0,r,0.0,0.4203371250041527,,,,,,,,,,,,,,0.0,8.0,8.0,10.0,,,,,102.44238999999652,,,,,,,,,,,,,,,,,102.43628858299051,102.5349262499949,103.33132758300052,103.31885095799224,,,,,,,,,,,,,,,,103.32327095798972,103.33132758300052,103.33132758300052,103.75491429200338,r,0.0,0.4203371250041527,,103.76045395799156,103.77245195799333,104.7581699579896,,,,,,,,,,,,,,,,,,,,,sub-058,1,stroop_test,121.71823596447284,
,,,,9.0,9.0,0.0,,,,,gelb,red,r,0.0,r,1.0,0.4984864590078359,,,,,,,,,,,,,,0.0,9.0,9.0,8.0,,,,,104.76822316698964,,,,,,,,,,,,,,,,,104.75853754200216,105.55168704199605,106.3438590829901,106.33548104199872,,,,,,,,,,,,,,,,106.3362392919953,106.3438590829901,106.3438590829901,106.84496049999144,r,1.0,0.4984864590078359,,106.84949875000166,106.8619827079965,107.85172316699754,,,,,,,,,,,,,,,,,,,,,sub-058,1,stroop_test,121.71823596447284,
,,,,10.0,10.0,0.0,,,,,rot,red,r,1.0,r,1.0,0.5410264999954961,,,,,,,,,,,,,,0.0,10.0,10.0,0.0,,,,,107.85845304199027,,,,,,,,,,,,,,,,,107.85229037499812,108.1920574169926,108.98881587499636,108.9753831249982,,,,,,,,,,,,,,,,108.9789142919908,108.98881587499636,108.98881587499636,109.53621108300284,r,1.0,0.5410264999954961,,109.53707474999828,109.54866099999344,110.53494166699238,110.54138912499184,,,,,,,,,,,,,,,,,,,,sub-058,1,stroop_test,121.71823596447284,
,,,,11.0,11.0,0.0,,,,,blau,blue,b,1.0,b,1.0,0.4661875419988064,,,,,,,,,,,,,,0.0,11.0,11.0,6.0,,,,,110.54138912499184,,,,,,,,,,,,,,,,,110.53536304199952,110.63491329200042,111.4318604579894,111.41896329200245,,,,,,,,,,,,,,,,111.42402574999142,111.4318604579894,111.4318604579894,111.9039058329945,b,1.0,0.4661875419988064,,111.90477549999196,111.91684141699808,112.90212033299032,112.9084287500009,,,,,,,,,,,,,,,,,,,,sub-058,1,stroop_test,121.71823596447284,
,,,,12.0,0.0,1.0,,,,,blau,blue,b,1.0,b,1.0,0.4828492499946151,,,,,,,,,,,,,,1.0,0.0,12.0,6.0,,,,,112.9084287500009,,,,,,,,,,,,,,,,,112.90258533299492,113.00141845799226,113.79337908299932,113.78540475000044,,,,,,,,,,,,,,,,113.78599424999264,113.79337908299932,113.79337908299932,114.28709833299216,b,1.0,0.4828492499946151,,114.28791758300213,114.30011783300142,115.2857557499956,115.2926918329904,,,,,,,,,,,,,,,,,,,,sub-058,1,stroop_test,121.71823596447284,
,,,,13.0,1.0,1.0,,,,,rot,red,r,1.0,r,1.0,1.190091750002466,,,,,,,,,,,,,,1.0,1.0,13.0,1.0,,,,,115.2926918329904,,,,,,,,,,,,,,,,,115.28641116699146,116.48508333299831,117.2855825000006,117.2689379999938,,,,,,,,,,,,,,,,117.2737593329948,117.2855825000006,117.2855825000006,118.4881948330003,r,1.0,1.190091750002466,,118.48907570799928,118.5014755000011,119.48559054199724,119.49176699999953,,,,,,,,,,,,,,,,,,,,sub-058,1,stroop_test,121.71823596447284,
,,,,14.0,2.0,1.0,,,,,gelb,red,r,0.0,r,1.0,1.0688138749974314,,,,,,,,,,,,,,1.0,2.0,14.0,8.0,,,,,119.49176699999953,,,,,,,,,,,,,,,,,119.4860107919958,119.58508970799448,120.38043695800296,120.36872329199105,,,,,,,,,,,,,,,,120.37269629199,120.38043695800296,120.38043695800296,121.45391587499762,r,1.0,1.0688138749974314,,121.4547341669968,121.46683195799416,122.45204950000334,122.4584222919948,,,,,,,,,,,,,,,,,,,,sub-058,1,stroop_test,121.71823596447284,
,,,,15.0,3.0,1.0,,,,,gelb,blue,b,0.0,b,1.0,0.8504471659980481,,,,,,,,,,,,,,1.0,3.0,15.0,9.0,,,,,122.4584222919948,,,,,,,,,,,,,,,,,122.45243729199863,123.2516294579982,124.0445689999906,124.0359359580034,,,,,,,,,,,,,,,,124.03686649999872,124.0445689999906,124.0445689999906,124.90411120800128,b,1.0,0.8504471659980481,,124.90496879199054,124.91703054199752,125.9016934169922,125.9079289999936,,,,,,,,,,,,,,,,,,,,sub-058,1,stroop_test,121.71823596447284,
,,,,16.0,4.0,1.0,,,,,blau,blue,b,1.0,b,1.0,0.5120611659949645,,,,,,,,,,,,,,1.0,4.0,16.0,5.0,,,,,125.9079289999936,,,,,,,,,,,,,,,,,125.9020937919995,127.10168454199447,127.89813999999024,127.88579008298984,,,,,,,,,,,,,,,,127.8905658750009,127.89813999999024,127.89813999999024,128.42049466699245,b,1.0,0.5120611659949645,,128.42136533299345,128.43357966699114,129.4190107500035,129.425420457992,,,,,,,,,,,,,,,,,,,,sub-058,1,stroop_test,121.71823596447284,
,,,,17.0,5.0,1.0,,,,,blau,yellow,g,0.0,g,1.0,0.5151460420020157,,,,,,,,,,,,,,1.0,5.0,17.0,7.0,,,,,129.425420457992,,,,,,,,,,,,,,,,,129.41937495800084,129.51820354200026,130.3109722079971,130.30246008299582,,,,,,,,,,,,,,,,130.30317749999813,130.3109722079971,130.3109722079971,130.8293049579952,g,1.0,0.5151460420020157,,130.83018195799377,130.8420266250032,131.82628770799784,131.83352408299106,,,,,,,,,,,,,,,,,,,,sub-058,1,stroop_test,121.71823596447284,
,,,,18.0,6.0,1.0,,,,,rot,red,r,1.0,r,1.0,0.3413794170046458,,,,,,,,,,,,,,1.0,6.0,18.0,0.0,,,,,131.83352408299106,,,,,,,,,,,,,,,,,131.8266114579892,133.02479499999026,133.82196204199863,133.8089946669934,,,,,,,,,,,,,,,,133.8123437500035,133.82196204199863,133.82196204199863,134.17046149999078,r,1.0,0.3413794170046458,,134.17135854199296,134.1835978750023,135.1691414169909,135.1758574169944,,,,,,,,,,,,,,,,,,,,sub-058,1,stroop_test,121.71823596447284,
,,,,19.0,7.0,1.0,,,,,rot,yellow,g,0.0,g,1.0,0.5083120420022169,,,,,,,,,,,,,,1.0,7.0,19.0,3.0,,,,,135.1758574169944,,,,,,,,,,,,,,,,,135.16964195799665,136.36829937499715,137.16035970799567,137.15235533298983,,,,,,,,,,,,,,,,137.1529467079963,137.16035970799567,137.16035970799567,137.67174350000278,g,1.0,0.5083120420022169,,137.67255745799048,137.6848272079951,138.66885474999435,138.67497924999043,,,,,,,,,,,,,,,,,,,,sub-058,1,stroop_test,121.71823596447284,
,,,,20.0,8.0,1.0,,,,,rot,blue,b,0.0,b,1.0,0.5173114169883775,,,,,,,,,,,,,,1.0,8.0,20.0,2.0,,,,,138.67497924999043,,,,,,,,,,,,,,,,,138.6692389999953,139.4682966669934,140.26106774999062,140.2525003329938,,,,,,,,,,,,,,,,140.25345716699667,140.26106774999062,140.26106774999062,140.7872944999981,b,1.0,0.5173114169883775,,140.7881010419951,140.7994315830001,141.78569379200053,141.79244949998974,,,,,,,,,,,,,,,,,,,,sub-058,1,stroop_test,121.71823596447284,
,,,,21.0,9.0,1.0,,,,,gelb,yellow,g,1.0,g,1.0,0.490850957998191,,,,,,,,,,,,,,1.0,9.0,21.0,11.0,,,,,141.79244949998974,,,,,,,,,,,,,,,,,141.78623420798976,142.58499891699466,143.38064533300349,143.3687216249964,,,,,,,,,,,,,,,,143.3730297079892,143.38064533300349,143.38064533300349,143.8768442080036,g,1.0,0.490850957998191,,143.87765037499776,143.88942254199355,144.87570070799848,144.88357620799798,,,,,,,,,,,,,,,,,,,,sub-058,1,stroop_test,121.71823596447284,
,,,,22.0,10.0,1.0,,,,,blau,red,r,0.0,r,1.0,0.3306535000010626,,,,,,,,,,,,,,1.0,10.0,22.0,4.0,,,,,144.88357620799798,,,,,,,,,,,,,,,,,144.87618112500058,144.9757647919905,145.77075120799418,145.75913887500064,,,,,,,,,,,,,,,,145.7628170829994,145.77075120799418,145.77075120799418,146.1042523329961,r,1.0,0.3306535000010626,,146.10505099999136,146.11686437499884,147.1022402499948,147.10859016700124,,,,,,,,,,,,,,,,,,,,sub-058,1,stroop_test,121.71823596447284,
,,,,23.0,11.0,1.0,,,,,gelb,yellow,g,1.0,g,1.0,0.554862167002284,,,,,,,,,,,,,,1.0,11.0,23.0,10.0,,,,,147.10859016700124,,,,,,,,,,,,,,,,,147.10271491699675,148.30165887500334,149.0969622919947,149.08553729199048,,,,,,,,,,,,,,,,149.08938912500162,149.0969622919947,149.0969622919947,149.65459670800192,g,1.0,0.554862167002284,,149.65539529199305,149.66711820800265,150.6521051669988,150.6601389169955,,,,,,,,,,,,,,,,,,,,sub-058,1,stroop_test,121.71823596447284,
,,,,,,,,,,,,,,,,,,,,,,,,,,,,,,,,,,,,,,,,,,,,,,,,,,,,,,,,,,,,,,,,,,,,,,,,,,,,,,,,,,,,,,,150.65224012499675,150.6601389169955,150.6601389169955,159.79382445800002,space,9.12839158299903,,,,,,,,,,,,,,sub-058,1,stroop_test,121.71823596447284,
,,,,0.0,0.0,0.0,,,,,,,,,,,,,rot,red,r,1.0,r,1.0,1.0300802080018912,,,,,,,,,,0.0,0.0,0.0,1.0,159.8149754999904,,,,,,,,,,,,,,,,,159.80742316700344,160.9922407080012,161.7884119579976,161.7752063329972,,,,,,,,,,,,,,,,,,,,,,,,,,,,,,,,,,,161.77867595799034,161.7884119579976,161.7884119579976,162.82189308298985,r,1.0,1.0300802080018912,,,,,,sub-058,1,stroop_test,121.71823596447284,
,,,,1.0,1.0,0.0,,,,,,,,,,,,,blau,red,r,0.0,b,0.0,0.5548845409939531,,,,,,,,,,0.0,1.0,1.0,4.0,162.83203449999564,,,,,,,,,,,,,,,,,162.82249191700248,162.9183521669911,163.71502379199956,163.70242612498987,,,,,,,,,,,,,,,,,,,,,,,,,,,,,,,,,,,163.70725995799876,163.71502379199956,163.71502379199956,164.2772729999997,b,0.0,0.5548845409939531,,,,,,sub-058,1,stroop_test,121.71823596447284,
,,,,2.0,2.0,0.0,,,,,,,,,,,,,blau,yellow,g,0.0,g,1.0,0.5777844580006786,,,,,,,,,,0.0,2.0,2.0,7.0,164.28760399999737,,,,,,,,,,,,,,,,,164.27786137499788,164.6256475830014,165.41742733299907,165.408718916995,,,,,,,,,,,,,,,,,,,,,,,,,,,,,,,,,,,165.40923920799105,165.41742733299907,165.41742733299907,166.0031709169998,g,1.0,0.5777844580006786,,,,,,sub-058,1,stroop_test,121.71823596447284,
,,,,3.0,3.0,0.0,,,,,,,,,,,,,rot,red,r,1.0,r,1.0,0.5313483750069281,,,,,,,,,,0.0,3.0,3.0,0.0,166.01115820799896,,,,,,,,,,,,,,,,,166.0036889579933,166.80182345799403,167.60366783299833,167.5861790420022,,,,,,,,,,,,,,,,,,,,,,,,,,,,,,,,,,,167.5916772079945,167.60366783299833,167.60366783299833,168.13777258299524,r,1.0,0.5313483750069281,,,,,,sub-058,1,stroop_test,121.71823596447284,
,,,,4.0,4.0,0.0,,,,,,,,,,,,,blau,blue,b,1.0,b,1.0,0.4680344160005916,,,,,,,,,,0.0,4.0,4.0,5.0,168.1484008749976,,,,,,,,,,,,,,,,,168.13838133300305,168.23501520800346,169.0306531249953,169.01885316699918,,,,,,,,,,,,,,,,,,,,,,,,,,,,,,,,,,,169.0228199580015,169.0306531249953,169.0306531249953,169.50339029199677,b,1.0,0.4680344160005916,,,,,,sub-058,1,stroop_test,121.71823596447284,
,,,,5.0,5.0,0.0,,,,,,,,,,,,,rot,blue,b,0.0,b,1.0,0.6266890840051929,,,,,,,,,,0.0,5.0,5.0,2.0,169.5141639999929,,,,,,,,,,,,,,,,,169.50400324999646,169.85182216699468,170.65086308299215,170.63522491700132,,,,,,,,,,,,,,,,,,,,,,,,,,,,,,,,,,,170.63903374999063,170.65086308299215,170.65086308299215,171.28714812498947,b,1.0,0.6266890840051929,,,,,,sub-058,1,stroop_test,121.71823596447284,
,,,,6.0,6.0,0.0,,,,,,,,,,,,,gelb,red,r,0.0,g,0.0,0.614145917003043,,,,,,,,,,0.0,6.0,6.0,8.0,171.297930582994,,,,,,,,,,,,,,,,,171.2877434999973,172.48517508299847,173.28045087499777,173.2689428750018,,,,,,,,,,,,,,,,,,,,,,,,,,,,,,,,,,,173.27274975000182,173.28045087499777,173.28045087499777,173.90372179199767,g,0.0,0.614145917003043,,,,,,sub-058,1,stroop_test,121.71823596447284,
,,,,7.0,7.0,0.0,,,,,,,,,,,,,gelb,blue,b,0.0,b,1.0,0.899539874997572,,,,,,,,,,0.0,7.0,7.0,9.0,173.91443925000203,,,,,,,,,,,,,,,,,173.9043154999963,174.00151183299022,174.7942155829951,174.7854616669938,,,,,,,,,,,,,,,,,,,,,,,,,,,,,,,,,,,174.78641479198996,174.7942155829951,174.7942155829951,175.7035892080021,b,1.0,0.899539874997572,,,,,,sub-058,1,stroop_test,121.71823596447284,
,,,,8.0,8.0,0.0,,,,,,,,,,,,,gelb,yellow,g,1.0,g,1.0,0.4693542919994797,,,,,,,,,,0.0,8.0,8.0,11.0,175.71411862499372,,,,,,,,,,,,,,,,,175.70418920800148,176.90176645800238,177.69443350000074,177.68590541699086,,,,,,,,,,,,,,,,,,,,,,,,,,,,,,,,,,,177.68672899999365,177.69443350000074,177.69443350000074,178.17028358299285,g,1.0,0.4693542919994797,,,,,,sub-058,1,stroop_test,121.71823596447284,
,,,,9.0,9.0,0.0,,,,,,,,,,,,,gelb,yellow,g,1.0,g,1.0,0.4249883749871515,,,,,,,,,,0.0,9.0,9.0,10.0,178.180814249994,,,,,,,,,,,,,,,,,178.17086229199776,179.3683710829937,180.16150941699743,180.1528151669918,,,,,,,,,,,,,,,,,,,,,,,,,,,,,,,,,,,180.15378933299507,180.16150941699743,180.16150941699743,180.5934619999898,g,1.0,0.4249883749871515,,,,,,sub-058,1,stroop_test,121.71823596447284,
,,,,10.0,10.0,0.0,,,,,,,,,,,,,blau,blue,b,1.0,b,1.0,0.454168958007358,,,,,,,,,,0.0,10.0,10.0,6.0,180.60428137499548,,,,,,,,,,,,,,,,,180.5940595830034,181.3924011670024,182.1870288749924,182.17539741699875,,,,,,,,,,,,,,,,,,,,,,,,,,,,,,,,,,,182.178855457998,182.1870288749924,182.1870288749924,182.64393974999257,b,1.0,0.454168958007358,,,,,,sub-058,1,stroop_test,121.71823596447284,
,,,,11.0,11.0,0.0,,,,,,,,,,,,,rot,yellow,g,0.0,g,1.0,0.8788478750066133,,,,,,,,,,0.0,11.0,11.0,3.0,182.6543642499892,,,,,,,,,,,,,,,,,182.6445335419994,182.74494004200096,183.55076383300184,183.5355064579926,,,,,,,,,,,,,,,,,,,,,,,,,,,,,,,,,,,183.53957383299712,183.55076383300184,183.55076383300184,184.43772195799104,g,1.0,0.8788478750066133,,,,,,sub-058,1,stroop_test,121.71823596447284,
,,,,12.0,0.0,1.0,,,,,,,,,,,,,blau,blue,b,1.0,b,1.0,0.4371609169902513,,,,,,,,,,1.0,0.0,12.0,5.0,184.4484739999898,,,,,,,,,,,,,,,,,184.43832487499455,184.53377845798968,185.3316184169962,185.3191332080023,,,,,,,,,,,,,,,,,,,,,,,,,,,,,,,,,,,185.32383783299883,185.3316184169962,185.3316184169962,185.7716665420012,b,1.0,0.4371609169902513,,,,,,sub-058,1,stroop_test,121.71823596447284,
,,,,13.0,1.0,1.0,,,,,,,,,,,,,gelb,red,r,0.0,r,1.0,0.3758745829982217,,,,,,,,,,1.0,1.0,13.0,8.0,185.782171999992,,,,,,,,,,,,,,,,,185.77226804199745,186.5685107079917,187.36509066699364,187.3529475830001,,,,,,,,,,,,,,,,,,,,,,,,,,,,,,,,,,,187.3573406249925,187.36509066699364,187.36509066699364,187.74350008300095,r,1.0,0.3758745829982217,,,,,,sub-058,1,stroop_test,121.71823596447284,
,,,,14.0,2.0,1.0,,,,,,,,,,,,,gelb,yellow,g,1.0,g,1.0,0.3263105000078212,,,,,,,,,,1.0,2.0,14.0,10.0,187.75421929199365,,,,,,,,,,,,,,,,,187.7440988329909,188.5423417080019,189.3342211249983,189.32547916698968,,,,,,,,,,,,,,,,,,,,,,,,,,,,,,,,,,,189.32602133299224,189.3342211249983,189.3342211249983,189.66957370800085,g,1.0,0.3263105000078212,,,,,,sub-058,1,stroop_test,121.71823596447284,
,,,,15.0,3.0,1.0,,,,,,,,,,,,,gelb,blue,b,0.0,b,1.0,0.3409595419943798,,,,,,,,,,1.0,3.0,15.0,9.0,189.6801452919899,,,,,,,,,,,,,,,,,189.670160499998,190.8686031249963,191.6610082499974,191.65257666699472,,,,,,,,,,,,,,,,,,,,,,,,,,,,,,,,,,,191.65331324998988,191.6610082499974,191.6610082499974,192.00483333299053,b,1.0,0.3409595419943798,,,,,,sub-058,1,stroop_test,121.71823596447284,
,,,,16.0,4.0,1.0,,,,,,,,,,,,,blau,yellow,g,0.0,g,1.0,0.7880789169867057,,,,,,,,,,1.0,4.0,16.0,7.0,192.0153447079938,,,,,,,,,,,,,,,,,192.00544649999935,192.80195541700232,193.5973582079896,193.5858262499969,,,,,,,,,,,,,,,,,,,,,,,,,,,,,,,,,,,193.58969912499012,193.5973582079896,193.5973582079896,194.3884279999911,g,1.0,0.7880789169867057,,,,,,sub-058,1,stroop_test,121.71823596447284,
,,,,17.0,5.0,1.0,,,,,,,,,,,,,rot,yellow,g,0.0,g,1.0,0.4692405829991912,,,,,,,,,,1.0,5.0,17.0,3.0,194.3990477079933,,,,,,,,,,,,,,,,,194.3890204579948,195.18505312499477,195.9838507079985,195.96895791699356,,,,,,,,,,,,,,,,,,,,,,,,,,,,,,,,,,,195.97242683300283,195.9838507079985,195.9838507079985,196.4609358329908,g,1.0,0.4692405829991912,,,,,,sub-058,1,stroop_test,121.71823596447284,
,,,,18.0,6.0,1.0,,,,,,,,,,,,,gelb,yellow,g,1.0,g,1.0,0.3502148749976186,,,,,,,,,,1.0,6.0,18.0,11.0,196.47118070800207,,,,,,,,,,,,,,,,,196.4615304579929,196.80930204199103,197.60419583300245,197.59253199999512,,,,,,,,,,,,,,,,,,,,,,,,,,,,,,,,,,,197.5960359579913,197.60419583300245,197.60419583300245,197.96110000000044,g,1.0,0.3502148749976186,,,,,,sub-058,1,stroop_test,121.71823596447284,
,,,,19.0,7.0,1.0,,,,,,,,,,,,,blau,blue,b,1.0,b,1.0,0.5373513330123387,,,,,,,,,,1.0,7.0,19.0,6.0,197.971438166991,,,,,,,,,,,,,,,,,197.9616800829972,198.058326917002,198.854222916998,198.84277233299508,,,,,,,,,,,,,,,,,,,,,,,,,,,,,,,,,,,198.84658545799903,198.854222916998,198.854222916998,199.3941468749981,b,1.0,0.5373513330123387,,,,,,sub-058,1,stroop_test,121.71823596447284,
,,,,20.0,8.0,1.0,,,,,,,,,,,,,blau,red,r,0.0,r,1.0,0.3283879999944474,,,,,,,,,,1.0,8.0,20.0,4.0,199.40463062499475,,,,,,,,,,,,,,,,,199.3947634170036,200.5923822499899,201.38400537500277,201.3754159999953,,,,,,,,,,,,,,,,,,,,,,,,,,,,,,,,,,,201.3759027920023,201.38400537500277,201.38400537500277,201.72085620799044,r,1.0,0.3283879999944474,,,,,,sub-058,1,stroop_test,121.71823596447284,
,,,,21.0,9.0,1.0,,,,,,,,,,,,,rot,blue,b,0.0,b,1.0,0.4445051250077085,,,,,,,,,,1.0,9.0,21.0,2.0,201.7314725829929,,,,,,,,,,,,,,,,,201.7214645829954,202.51865604199705,203.31846016699276,203.30221408299985,,,,,,,,,,,,,,,,,,,,,,,,,,,,,,,,,,,203.30683929199583,203.31846016699276,203.31846016699276,203.77011699999275,b,1.0,0.4445051250077085,,,,,,sub-058,1,stroop_test,121.71823596447284,
,,,,22.0,10.0,1.0,,,,,,,,,,,,,rot,red,r,1.0,r,1.0,0.68365433299914,,,,,,,,,,1.0,10.0,22.0,0.0,203.7789829579997,,,,,,,,,,,,,,,,,203.7706579579972,204.9685325419996,205.76155212499725,205.7526358749892,,,,,,,,,,,,,,,,,,,,,,,,,,,,,,,,,,,205.75338875000307,205.76155212499725,205.76155212499725,206.4537843750004,r,1.0,0.68365433299914,,,,,,sub-058,1,stroop_test,121.71823596447284,
,,,,23.0,11.0,1.0,,,,,,,,,,,,,rot,red,r,1.0,r,1.0,0.4718935420096386,,,,,,,,,,1.0,11.0,23.0,1.0,206.4645014169946,,,,,,,,,,,,,,,,,206.45438458299031,206.80189929199696,207.5932998329954,207.5855348329933,,,,,,,,,,,,,,,,,,,,,,,,,,,,,,,,,,,207.5861099169997,207.5932998329954,207.5932998329954,208.07063324999763,r,1.0,0.4718935420096386,,,,,,sub-058,1,stroop_test,121.71823596447284,
,,,,24.0,0.0,2.0,,,,,,,,,,,,,gelb,yellow,g,1.0,g,1.0,0.3227266250032699,,,,,,,,,,2.0,0.0,24.0,10.0,208.0814707919926,,,,,,,,,,,,,,,,,208.07124666699383,208.8684607500036,209.66340299999865,209.6520583329984,,,,,,,,,,,,,,,,,,,,,,,,,,,,,,,,,,,209.65565200000128,209.66340299999865,209.66340299999865,209.99382316699484,g,1.0,0.3227266250032699,,,,,,sub-058,1,stroop_test,121.71823596447284,
,,,,25.0,1.0,2.0,,,,,,,,,,,,,blau,blue,b,1.0,b,1.0,0.4192902920040069,,,,,,,,,,2.0,1.0,25.0,6.0,210.00447212500148,,,,,,,,,,,,,,,,,209.9944439579995,210.34199941699623,211.13721766699743,211.1251443749934,,,,,,,,,,,,,,,,,,,,,,,,,,,,,,,,,,,211.1287464999914,211.13721766699743,211.13721766699743,211.56068070798935,b,1.0,0.4192902920040069,,,,,,sub-058,1,stroop_test,121.71823596447284,
,,,,26.0,2.0,2.0,,,,,,,,,,,,,rot,red,r,1.0,r,1.0,0.4763194999977713,,,,,,,,,,2.0,2.0,26.0,1.0,211.57113516700335,,,,,,,,,,,,,,,,,211.56127379200188,212.35881033299663,213.15626829199027,213.1424716249894,,,,,,,,,,,,,,,,,,,,,,,,,,,,,,,,,,,213.14643670798975,213.15626829199027,213.15626829199027,213.6373428329971,r,1.0,0.4763194999977713,,,,,,sub-058,1,stroop_test,121.71823596447284,
,,,,27.0,3.0,2.0,,,,,,,,,,,,,rot,yellow,g,0.0,g,1.0,0.5301340000005439,,,,,,,,,,2.0,3.0,27.0,3.0,213.6476389169984,,,,,,,,,,,,,,,,,213.63793270799212,213.98540454199247,214.7772597919975,214.7691065830004,,,,,,,,,,,,,,,,,,,,,,,,,,,,,,,,,,,214.7697288329946,214.7772597919975,214.7772597919975,215.31032720798976,g,1.0,0.5301340000005439,,,,,,sub-058,1,stroop_test,121.71823596447284,
,,,,28.0,4.0,2.0,,,,,,,,,,,,,blau,blue,b,1.0,b,1.0,0.4676296249963343,,,,,,,,,,2.0,4.0,28.0,5.0,215.32107933299267,,,,,,,,,,,,,,,,,215.31093249999685,216.50853325000207,217.3042000419955,217.29227099999844,,,,,,,,,,,,,,,,,,,,,,,,,,,,,,,,,,,217.2958896249911,217.3042000419955,217.3042000419955,217.77725154199288,b,1.0,0.4676296249963343,,,,,,sub-058,1,stroop_test,121.71823596447284,
,,,,29.0,5.0,2.0,,,,,,,,,,,,,gelb,red,r,0.0,r,1.0,0.620770542009268,,,,,,,,,,2.0,5.0,29.0,8.0,217.78771129199595,,,,,,,,,,,,,,,,,217.77786108299915,218.12531279199172,218.9207222080004,218.90919054199185,,,,,,,,,,,,,,,,,,,,,,,,,,,,,,,,,,,218.9125014579913,218.9207222080004,218.9207222080004,219.54407341699695,r,1.0,0.620770542009268,,,,,,sub-058,1,stroop_test,121.71823596447284,
,,,,30.0,6.0,2.0,,,,,,,,,,,,,gelb,blue,b,0.0,b,1.0,0.4277368339971872,,,,,,,,,,2.0,6.0,30.0,9.0,219.5546446669905,,,,,,,,,,,,,,,,,219.54469020800025,220.741983874992,221.53493416699348,221.5264532919973,,,,,,,,,,,,,,,,,,,,,,,,,,,,,,,,,,,221.52697674999945,221.53493416699348,221.53493416699348,221.9708340419893,b,1.0,0.4277368339971872,,,,,,sub-058,1,stroop_test,121.71823596447284,
,,,,31.0,7.0,2.0,,,,,,,,,,,,,gelb,yellow,g,1.0,g,1.0,0.3763550000003306,,,,,,,,,,2.0,7.0,31.0,11.0,221.98126420799235,,,,,,,,,,,,,,,,,221.97141433299112,222.76853941699665,223.5606721669901,223.5525378750026,,,,,,,,,,,,,,,,,,,,,,,,,,,,,,,,,,,223.55328212499444,223.5606721669901,223.5606721669901,223.94384883299065,g,1.0,0.3763550000003306,,,,,,sub-058,1,stroop_test,121.71823596447284,
,,,,32.0,8.0,2.0,,,,,,,,,,,,,blau,red,r,0.0,r,1.0,0.6162857919989619,,,,,,,,,,2.0,8.0,32.0,4.0,223.95448904199293,,,,,,,,,,,,,,,,,223.9444608749909,224.74243341699184,225.54910583299352,225.5367229580006,,,,,,,,,,,,,,,,,,,,,,,,,,,,,,,,,,,225.54123962500307,225.54910583299352,225.54910583299352,226.17095029199845,r,1.0,0.6162857919989619,,,,,,sub-058,1,stroop_test,121.71823596447284,
,,,,33.0,9.0,2.0,,,,,,,,,,,,,rot,blue,b,0.0,b,1.0,0.6568743329989957,,,,,,,,,,2.0,9.0,33.0,2.0,226.18143333299668,,,,,,,,,,,,,,,,,226.1714917920035,226.9685584169929,227.76865033298964,227.75291129200195,,,,,,,,,,,,,,,,,,,,,,,,,,,,,,,,,,,227.75703316699943,227.76865033298964,227.76865033298964,228.42839158300197,b,1.0,0.6568743329989957,,,,,,sub-058,1,stroop_test,121.71823596447284,
,,,,34.0,10.0,2.0,,,,,,,,,,,,,blau,yellow,g,0.0,g,1.0,0.5276426250056829,,,,,,,,,,2.0,10.0,34.0,7.0,228.4385988330032,,,,,,,,,,,,,,,,,228.42901554200216,229.6250636670011,230.42092049999337,230.4090562499914,,,,,,,,,,,,,,,,,,,,,,,,,,,,,,,,,,,230.4124605419929,230.42092049999337,230.42092049999337,230.95432641699156,g,1.0,0.5276426250056829,,,,,,sub-058,1,stroop_test,121.71823596447284,
,,,,35.0,11.0,2.0,,,,,,,,,,,,,rot,red,r,1.0,r,1.0,0.8247006659948966,,,,,,,,,,2.0,11.0,35.0,0.0,230.96491616699493,,,,,,,,,,,,,,,,,230.95491225000296,231.30200591699395,232.1056471670017,232.09171779199096,,,,,,,,,,,,,,,,,,,,,,,,,,,,,,,,,,,232.0953736669908,232.1056471670017,232.1056471670017,232.93758920799883,r,1.0,0.8247006659948966,,,,,,sub-058,1,stroop_test,121.71823596447284,
,,,,36.0,0.0,3.0,,,,,,,,,,,,,rot,red,r,1.0,r,1.0,0.8184854999999516,,,,,,,,,,3.0,0.0,36.0,1.0,232.9482790829934,,,,,,,,,,,,,,,,,232.9382098329952,234.1354270419979,234.92739512499247,234.91899279199424,,,,,,,,,,,,,,,,,,,,,,,,,,,,,,,,,,,234.9196910829924,234.92739512499247,234.92739512499247,235.75424691700027,r,1.0,0.8184854999999516,,,,,,sub-058,1,stroop_test,121.71823596447284,
,,,,37.0,1.0,3.0,,,,,,,,,,,,,blau,blue,b,1.0,b,1.0,0.4048361669993028,,,,,,,,,,3.0,1.0,37.0,6.0,235.7642076249904,,,,,,,,,,,,,,,,,235.75482633299544,236.95202858299308,237.7474099999963,237.73590904199227,,,,,,,,,,,,,,,,,,,,,,,,,,,,,,,,,,,237.7396716249932,237.7474099999963,237.7474099999963,238.15997495799093,b,1.0,0.4048361669993028,,,,,,sub-058,1,stroop_test,121.71823596447284,
,,,,38.0,2.0,3.0,,,,,,,,,,,,,gelb,red,r,0.0,r,1.0,0.7534648339933483,,,,,,,,,,3.0,2.0,38.0,8.0,238.17097962499247,,,,,,,,,,,,,,,,,238.16057141700003,238.9589534580009,239.75405858299928,239.74198612499455,,,,,,,,,,,,,,,,,,,,,,,,,,,,,,,,,,,239.7455548750004,239.75405858299928,239.75405858299928,240.51110599999083,r,1.0,0.7534648339933483,,,,,,sub-058,1,stroop_test,121.71823596447284,
,,,,39.0,3.0,3.0,,,,,,,,,,,,,rot,red,r,1.0,r,1.0,0.4271971249982016,,,,,,,,,,3.0,3.0,39.0,0.0,240.52140304200293,,,,,,,,,,,,,,,,,240.51168929199048,241.30994270800147,242.11825729199336,242.1025227920036,,,,,,,,,,,,,,,,,,,,,,,,,,,,,,,,,,,242.10686379199612,242.11825729199336,242.11825729199336,242.5542009999917,r,1.0,0.4271971249982016,,,,,,sub-058,1,stroop_test,121.71823596447284,
,,,,40.0,4.0,3.0,,,,,,,,,,,,,blau,blue,b,1.0,b,1.0,0.426762332994258,,,,,,,,,,3.0,4.0,40.0,5.0,242.56506279199675,,,,,,,,,,,,,,,,,242.55482133298935,243.3520287499996,244.14825062500316,244.13591533299768,,,,,,,,,,,,,,,,,,,,,,,,,,,,,,,,,,,244.1404042919894,244.14825062500316,244.14825062500316,244.57774795799924,b,1.0,0.426762332994258,,,,,,sub-058,1,stroop_test,121.71823596447284,
,,,,41.0,5.0,3.0,,,,,,,,,,,,,blau,red,r,0.0,b,0.0,0.5902396669989685,,,,,,,,,,3.0,5.0,41.0,4.0,244.58816545800076,,,,,,,,,,,,,,,,,244.5783538329997,244.67300566699123,245.46738758299037,245.4584624999989,,,,,,,,,,,,,,,,,,,,,,,,,,,,,,,,,,,245.45905479199428,245.46738758299037,245.46738758299037,246.06067045799864,b,0.0,0.5902396669989685,,,,,,sub-058,1,stroop_test,121.71823596447284,
,,,,42.0,6.0,3.0,,,,,,,,,,,,,rot,yellow,g,0.0,g,1.0,0.7909425830002874,,,,,,,,,,3.0,6.0,42.0,3.0,246.07127087499248,,,,,,,,,,,,,,,,,246.06132049999724,246.8594454999984,247.66854549999695,247.6526854169933,,,,,,,,,,,,,,,,,,,,,,,,,,,,,,,,,,,247.65722333299345,247.66854549999695,247.66854549999695,248.4710893750016,g,1.0,0.7909425830002874,,,,,,sub-058,1,stroop_test,121.71823596447284,
,,,,43.0,7.0,3.0,,,,,,,,,,,,,gelb,yellow,g,1.0,g,1.0,0.5828901670029154,,,,,,,,,,3.0,7.0,43.0,11.0,248.48191329199472,,,,,,,,,,,,,,,,,248.471751124991,249.6684417499928,250.4648200419906,250.4527647079958,,,,,,,,,,,,,,,,,,,,,,,,,,,,,,,,,,,250.45733687499887,250.4648200419906,250.4648200419906,251.0543380829913,g,1.0,0.5828901670029154,,,,,,sub-058,1,stroop_test,121.71823596447284,
,,,,44.0,8.0,3.0,,,,,,,,,,,,,rot,blue,b,0.0,b,1.0,0.4439770000026328,,,,,,,,,,3.0,8.0,44.0,2.0,251.0648602079891,,,,,,,,,,,,,,,,,251.05491545799305,251.40202629199484,252.20227008299844,252.18632312500267,,,,,,,,,,,,,,,,,,,,,,,,,,,,,,,,,,,252.19102425000165,252.20227008299844,252.20227008299844,252.65431354199245,b,1.0,0.4439770000026328,,,,,,sub-058,1,stroop_test,121.71823596447284,
,,,,45.0,9.0,3.0,,,,,,,,,,,,,blau,yellow,g,0.0,b,0.0,0.3924494160019094,,,,,,,,,,3.0,9.0,45.0,7.0,252.664259666999,,,,,,,,,,,,,,,,,252.65498258300067,253.4517834579892,254.2488602079975,254.23629424998944,,,,,,,,,,,,,,,,,,,,,,,,,,,,,,,,,,,254.2409495000029,254.2488602079975,254.2488602079975,254.64422062499216,b,0.0,0.3924494160019094,,,,,,sub-058,1,stroop_test,121.71823596447284,
,,,,46.0,10.0,3.0,,,,,,,,,,,,,gelb,yellow,g,1.0,g,1.0,0.5077818330028094,,,,,,,,,,3.0,10.0,46.0,10.0,254.6546266249934,,,,,,,,,,,,,,,,,254.6448211669922,254.74173533299472,255.53699100000085,255.52521312500176,,,,,,,,,,,,,,,,,,,,,,,,,,,,,,,,,,,255.52874441699527,255.53699100000085,255.53699100000085,256.05430408299435,g,1.0,0.5077818330028094,,,,,,sub-058,1,stroop_test,121.71823596447284,
,,,,47.0,11.0,3.0,,,,,,,,,,,,,gelb,blue,b,0.0,b,1.0,0.5602240419975715,,,,,,,,,,3.0,11.0,47.0,9.0,256.0649762499961,,,,,,,,,,,,,,,,,256.0548693329911,256.1520515000011,256.9440488749969,256.9360333749937,,,,,,,,,,,,,,,,,,,,,,,,,,,,,,,,,,,256.9366606249969,256.9440488749969,256.9440488749969,257.510700874991,b,1.0,0.5602240419975715,,,,,,sub-058,1,stroop_test,121.71823596447284,
,,,,48.0,0.0,4.0,,,,,,,,,,,,,blau,red,r,0.0,r,1.0,0.4055171249929117,,,,,,,,,,4.0,0.0,48.0,4.0,257.52120925000054,,,,,,,,,,,,,,,,,257.51125754199165,257.6079798749997,258.404687000002,258.39226429199334,,,,,,,,,,,,,,,,,,,,,,,,,,,,,,,,,,,258.3961103749898,258.404687000002,258.404687000002,258.8206231669901,r,1.0,0.4055171249929117,,,,,,sub-058,1,stroop_test,121.71823596447284,
,,,,49.0,1.0,4.0,,,,,,,,,,,,,gelb,yellow,g,1.0,g,1.0,0.5726303749979706,,,,,,,,,,4.0,1.0,49.0,10.0,258.82928774999164,,,,,,,,,,,,,,,,,258.8212259169959,260.0186777079944,260.8166040419892,260.80295895799645,,,,,,,,,,,,,,,,,,,,,,,,,,,,,,,,,,,260.80871862499043,260.8166040419892,260.8166040419892,261.3931982919894,g,1.0,0.5726303749979706,,,,,,sub-058,1,stroop_test,121.71823596447284,
,,,,50.0,2.0,4.0,,,,,,,,,,,,,rot,red,r,1.0,r,1.0,0.5953387500048848,,,,,,,,,,4.0,2.0,50.0,0.0,261.4017041249899,,,,,,,,,,,,,,,,,261.3937384579913,262.59287074999884,263.4012800420023,263.3860717920033,,,,,,,,,,,,,,,,,,,,,,,,,,,,,,,,,,,263.3901446249947,263.4012800420023,263.4012800420023,264.00367408299644,r,1.0,0.5953387500048848,,,,,,sub-058,1,stroop_test,121.71823596447284,
,,,,51.0,3.0,4.0,,,,,,,,,,,,,gelb,yellow,g,1.0,g,1.0,0.5217522499879124,,,,,,,,,,4.0,3.0,51.0,11.0,264.01387162499304,,,,,,,,,,,,,,,,,264.00425862499105,264.11874054199143,264.91435462499794,264.9027879579953,,,,,,,,,,,,,,,,,,,,,,,,,,,,,,,,,,,264.90696216699143,264.91435462499794,264.91435462499794,265.443699083,g,1.0,0.5217522499879124,,,,,,sub-058,1,stroop_test,121.71823596447284,
,,,,52.0,4.0,4.0,,,,,,,,,,,,,blau,yellow,g,0.0,g,1.0,0.5412496249919059,,,,,,,,,,4.0,4.0,52.0,7.0,265.45454150000296,,,,,,,,,,,,,,,,,265.444268457999,265.542397792,266.3378591669898,266.3261477499909,,,,,,,,,,,,,,,,,,,,,,,,,,,,,,,,,,,266.32997112500016,266.3378591669898,266.3378591669898,266.8875890420022,g,1.0,0.5412496249919059,,,,,,sub-058,1,stroop_test,121.71823596447284,
,,,,53.0,5.0,4.0,,,,,,,,,,,,,blau,blue,b,1.0,b,1.0,0.4803581669984851,,,,,,,,,,4.0,5.0,53.0,6.0,266.8981842499925,,,,,,,,,,,,,,,,,266.88817374999053,266.98530074999144,267.7772623329947,267.7693754170032,,,,,,,,,,,,,,,,,,,,,,,,,,,,,,,,,,,267.770100416994,267.7772623329947,267.7772623329947,268.2716021249944,b,1.0,0.4803581669984851,,,,,,sub-058,1,stroop_test,121.71823596447284,
,,,,54.0,6.0,4.0,,,,,,,,,,,,,rot,blue,b,0.0,b,1.0,0.4575802080071298,,,,,,,,,,4.0,6.0,54.0,2.0,268.285621374991,,,,,,,,,,,,,,,,,268.2720350000018,268.61880045800353,269.4177934170002,269.4028569999937,,,,,,,,,,,,,,,,,,,,,,,,,,,,,,,,,,,269.4070446669939,269.4177934170002,269.4177934170002,269.88804233299743,b,1.0,0.4575802080071298,,,,,,sub-058,1,stroop_test,121.71823596447284,
,,,,55.0,7.0,4.0,,,,,,,,,,,,,rot,yellow,g,0.0,g,1.0,0.530333458998939,,,,,,,,,,4.0,7.0,55.0,3.0,269.89846395800123,,,,,,,,,,,,,,,,,269.8886108329898,270.68521070799034,271.4774607500003,271.4691404999903,,,,,,,,,,,,,,,,,,,,,,,,,,,,,,,,,,,271.46977679200063,271.4774607500003,271.4774607500003,272.010315291991,g,1.0,0.530333458998939,,,,,,sub-058,1,stroop_test,121.71823596447284,
,,,,56.0,8.0,4.0,,,,,,,,,,,,,gelb,blue,b,0.0,b,1.0,0.5307960829959484,,,,,,,,,,4.0,8.0,56.0,9.0,272.02119200000016,,,,,,,,,,,,,,,,,272.0108884999936,272.8084126670001,273.6044228749961,273.5927002499957,,,,,,,,,,,,,,,,,,,,,,,,,,,,,,,,,,,273.5964092499926,273.6044228749961,273.6044228749961,274.1388205830008,b,1.0,0.5307960829959484,,,,,,sub-058,1,stroop_test,121.71823596447284,
,,,,57.0,9.0,4.0,,,,,,,,,,,,,blau,blue,b,1.0,b,1.0,0.4474947499984409,,,,,,,,,,4.0,9.0,57.0,5.0,274.14953716700256,,,,,,,,,,,,,,,,,274.1394952080009,274.235706958003,275.0322147919942,275.0193622079969,,,,,,,,,,,,,,,,,,,,,,,,,,,,,,,,,,,275.02463558300224,275.0322147919942,275.0322147919942,275.4877881249995,b,1.0,0.4474947499984409,,,,,,sub-058,1,stroop_test,121.71823596447284,
,,,,58.0,10.0,4.0,,,,,,,,,,,,,rot,red,r,1.0,r,1.0,0.4699523750023218,,,,,,,,,,4.0,10.0,58.0,1.0,275.49860129199806,,,,,,,,,,,,,,,,,275.4884413749969,276.6855147079914,277.484159582993,277.46943637500226,,,,,,,,,,,,,,,,,,,,,,,,,,,,,,,,,,,277.4733179579925,277.484159582993,277.484159582993,277.9592201249907,r,1.0,0.4699523750023218,,,,,,sub-058,1,stroop_test,121.71823596447284,
,,,,59.0,11.0,4.0,,,,,,,,,,,,,gelb,red,r,0.0,r,1.0,0.3370074999984354,,,,,,,,,,4.0,11.0,59.0,8.0,277.9701225829922,,,,,,,,,,,,,,,,,277.95980124999187,279.151999291993,279.9485961669998,279.9363929169922,,,,,,,,,,,,,,,,,,,,,,,,,,,,,,,,,,,279.9404318329907,279.9485961669998,279.9485961669998,280.288343082997,r,1.0,0.3370074999984354,,,,,,sub-058,1,stroop_test,121.71823596447284,
,,,,60.0,0.0,5.0,,,,,,,,,,,,,rot,yellow,g,0.0,g,1.0,0.5439495839964366,,,,,,,,,,5.0,0.0,60.0,3.0,280.2986673749984,,,,,,,,,,,,,,,,,280.2889303330012,280.3853685420036,281.1823297919909,281.1690817499912,,,,,,,,,,,,,,,,,,,,,,,,,,,,,,,,,,,281.17220241700124,281.1823297919909,281.1823297919909,281.7372338330024,g,1.0,0.5439495839964366,,,,,,sub-058,1,stroop_test,121.71823596447284,
,,,,61.0,1.0,5.0,,,,,,,,,,,,,blau,red,r,0.0,r,1.0,0.6709201250050683,,,,,,,,,,5.0,1.0,61.0,4.0,281.74749633300235,,,,,,,,,,,,,,,,,281.73783499999263,281.8353267079947,282.63118399999803,282.6195077919984,,,,,,,,,,,,,,,,,,,,,,,,,,,,,,,,,,,282.62373341700004,282.63118399999803,282.63118399999803,283.30525325000053,r,1.0,0.6709201250050683,,,,,,sub-058,1,stroop_test,121.71823596447284,
,,,,62.0,2.0,5.0,,,,,,,,,,,,,blau,blue,b,1.0,b,1.0,0.5313698329991894,,,,,,,,,,5.0,2.0,62.0,5.0,283.3158494579984,,,,,,,,,,,,,,,,,283.30583912499424,283.6520799169957,284.44427949999226,284.435942666998,,,,,,,,,,,,,,,,,,,,,,,,,,,,,,,,,,,284.4366471669928,284.44427949999226,284.44427949999226,284.98897824999585,b,1.0,0.5313698329991894,,,,,,sub-058,1,stroop_test,121.71823596447284,
,,,,63.0,3.0,5.0,,,,,,,,,,,,,blau,yellow,g,0.0,g,1.0,0.6014714589982759,,,,,,,,,,5.0,3.0,63.0,7.0,285.00210537499515,,,,,,,,,,,,,,,,,284.9894105830026,286.1852989170002,286.9784032919997,286.9695310829993,,,,,,,,,,,,,,,,,,,,,,,,,,,,,,,,,,,286.97046529199,286.9784032919997,286.9784032919997,287.5873528329976,g,1.0,0.6014714589982759,,,,,,sub-058,1,stroop_test,121.71823596447284,
,,,,64.0,4.0,5.0,,,,,,,,,,,,,gelb,blue,b,0.0,b,1.0,0.4213085410010535,,,,,,,,,,5.0,4.0,64.0,9.0,287.5975552079908,,,,,,,,,,,,,,,,,287.58791416700114,288.38529679199564,289.18112870799087,289.1694373329956,,,,,,,,,,,,,,,,,,,,,,,,,,,,,,,,,,,289.1737187499966,289.18112870799087,289.18112870799087,289.6061187079904,b,1.0,0.4213085410010535,,,,,,sub-058,1,stroop_test,121.71823596447284,
,,,,65.0,5.0,5.0,,,,,,,,,,,,,rot,red,r,1.0,r,1.0,0.3772790410002926,,,,,,,,,,5.0,5.0,65.0,0.0,289.6171289999911,,,,,,,,,,,,,,,,,289.606797667002,290.40206108299026,291.20362045799266,291.18633574999694,,,,,,,,,,,,,,,,,,,,,,,,,,,,,,,,,,,291.1933739579981,291.20362045799266,291.20362045799266,291.58792595799605,r,1.0,0.3772790410002926,,,,,,sub-058,1,stroop_test,121.71823596447284,
,,,,66.0,6.0,5.0,,,,,,,,,,,,,rot,red,r,1.0,r,1.0,0.5641954169987002,,,,,,,,,,5.0,6.0,66.0,1.0,291.59866145800333,,,,,,,,,,,,,,,,,291.588567874991,291.93538916700345,292.7271087499976,292.7193307080015,,,,,,,,,,,,,,,,,,,,,,,,,,,,,,,,,,,292.72002037499624,292.7271087499976,292.7271087499976,293.2949985000014,r,1.0,0.5641954169987002,,,,,,sub-058,1,stroop_test,121.71823596447284,
,,,,67.0,7.0,5.0,,,,,,,,,,,,,gelb,yellow,g,1.0,g,1.0,0.4352538749953965,,,,,,,,,,5.0,7.0,67.0,10.0,293.3056134579965,,,,,,,,,,,,,,,,,293.2955805829988,293.39244670799235,294.19776537499274,294.1859376249922,,,,,,,,,,,,,,,,,,,,,,,,,,,,,,,,,,,294.1900490419939,294.19776537499274,294.19776537499274,294.63755304199003,g,1.0,0.4352538749953965,,,,,,sub-058,1,stroop_test,121.71823596447284,
,,,,68.0,8.0,5.0,,,,,,,,,,,,,rot,blue,b,0.0,b,1.0,0.6560690000042086,,,,,,,,,,5.0,8.0,68.0,2.0,294.6478972079931,,,,,,,,,,,,,,,,,294.6381248749967,294.98553925000306,295.7841653749929,295.7695014579949,,,,,,,,,,,,,,,,,,,,,,,,,,,,,,,,,,,295.7733148330008,295.7841653749929,295.7841653749929,296.4445122920006,b,1.0,0.6560690000042086,,,,,,sub-058,1,stroop_test,121.71823596447284,
,,,,69.0,9.0,5.0,,,,,,,,,,,,,gelb,red,r,0.0,r,1.0,1.4593587079871213,,,,,,,,,,5.0,9.0,69.0,8.0,296.45455920799577,,,,,,,,,,,,,,,,,296.4450761670014,296.7923771249916,297.5881211669912,297.5760547499958,,,,,,,,,,,,,,,,,,,,,,,,,,,,,,,,,,,297.5801627079927,297.5881211669912,297.5881211669912,299.05438533300185,r,1.0,1.4593587079871213,,,,,,sub-058,1,stroop_test,121.71823596447284,
,,,,70.0,10.0,5.0,,,,,,,,,,,,,gelb,yellow,g,1.0,g,1.0,0.3408859579940326,,,,,,,,,,5.0,10.0,70.0,11.0,299.06478737499856,,,,,,,,,,,,,,,,,299.0549579169892,299.40221670799656,300.1950462919922,300.18633320799563,,,,,,,,,,,,,,,,,,,,,,,,,,,,,,,,,,,300.1872617499903,300.1950462919922,300.1950462919922,300.53945837500214,g,1.0,0.3408859579940326,,,,,,sub-058,1,stroop_test,121.71823596447284,
,,,,71.0,11.0,5.0,,,,,,,,,,,,,blau,blue,b,1.0,b,1.0,0.4825128329975996,,,,,,,,,,5.0,11.0,71.0,6.0,300.550588625003,,,,,,,,,,,,,,,,,300.5401512919925,301.7355267499952,302.53066254199075,302.51937645800353,,,,,,,,,,,,,,,,,,,,,,,,,,,,,,,,,,,302.52319329199963,302.53066254199075,302.53066254199075,303.0212791249942,b,1.0,0.4825128329975996,,,,,,sub-058,1,stroop_test,121.71823596447284,
,,,,72.0,0.0,6.0,,,,,,,,,,,,,rot,blue,b,0.0,b,1.0,0.66969304200029,,,,,,,,,,6.0,0.0,72.0,2.0,303.0320417920011,,,,,,,,,,,,,,,,,303.02192504199047,304.21765783299634,305.01783816699754,305.002974832998,,,,,,,,,,,,,,,,,,,,,,,,,,,,,,,,,,,305.007143291994,305.01783816699754,305.01783816699754,305.69450554199284,b,1.0,0.66969304200029,,,,,,sub-058,1,stroop_test,121.71823596447284,
,,,,73.0,1.0,6.0,,,,,,,,,,,,,rot,red,r,1.0,r,1.0,0.4589122500037774,,,,,,,,,,6.0,1.0,73.0,1.0,305.704702499992,,,,,,,,,,,,,,,,,305.69507258299564,306.49171312499675,307.28483054199023,307.2762505830033,,,,,,,,,,,,,,,,,,,,,,,,,,,,,,,,,,,307.2769313329918,307.28483054199023,307.28483054199023,307.7545669169922,r,1.0,0.4589122500037774,,,,,,sub-058,1,stroop_test,121.71823596447284,
,,,,74.0,2.0,6.0,,,,,,,,,,,,,rot,red,r,1.0,r,1.0,0.377534083003411,,,,,,,,,,6.0,2.0,74.0,0.0,307.7650992919953,,,,,,,,,,,,,,,,,307.7552263329999,307.85214866699243,308.64487187500345,308.636195375002,,,,,,,,,,,,,,,,,,,,,,,,,,,,,,,,,,,308.6371027080022,308.64487187500345,308.64487187500345,309.02740208299656,r,1.0,0.377534083003411,,,,,,sub-058,1,stroop_test,121.71823596447284,
,,,,75.0,3.0,6.0,,,,,,,,,,,,,blau,red,r,0.0,r,1.0,0.3722995830030413,,,,,,,,,,6.0,3.0,75.0,4.0,309.0379759579955,,,,,,,,,,,,,,,,,309.0279606249969,309.8251785419998,310.6216118329903,310.6094437499996,,,,,,,,,,,,,,,,,,,,,,,,,,,,,,,,,,,310.6141918749927,310.6216118329903,310.6216118329903,311.00420083299105,r,1.0,0.3722995830030413,,,,,,sub-058,1,stroop_test,121.71823596447284,
,,,,76.0,4.0,6.0,,,,,,,,,,,,,gelb,yellow,g,1.0,g,1.0,0.3893990000069607,,,,,,,,,,6.0,4.0,76.0,11.0,311.014597166999,,,,,,,,,,,,,,,,,311.0047611670016,311.1021265419986,311.8982247499953,311.88639608299127,,,,,,,,,,,,,,,,,,,,,,,,,,,,,,,,,,,311.89062054199167,311.8982247499953,311.8982247499953,312.2941145829973,g,1.0,0.3893990000069607,,,,,,sub-058,1,stroop_test,121.71823596447284,
,,,,77.0,5.0,6.0,,,,,,,,,,,,,gelb,yellow,g,1.0,g,1.0,0.6064898750046268,,,,,,,,,,6.0,5.0,77.0,10.0,312.30479166698933,,,,,,,,,,,,,,,,,312.29467833299714,313.49244595799246,314.2843541249895,314.27549120799813,,,,,,,,,,,,,,,,,,,,,,,,,,,,,,,,,,,314.27604029199574,314.2843541249895,314.2843541249895,314.8937739169924,g,1.0,0.6064898750046268,,,,,,sub-058,1,stroop_test,121.71823596447284,
,,,,78.0,6.0,6.0,,,,,,,,,,,,,blau,blue,b,1.0,b,1.0,0.4492163329996401,,,,,,,,,,6.0,6.0,78.0,6.0,314.9045799579908,,,,,,,,,,,,,,,,,314.8943360830017,314.99251099998946,315.7879632080003,315.77622499999416,,,,,,,,,,,,,,,,,,,,,,,,,,,,,,,,,,,315.78022950000013,315.7879632080003,315.7879632080003,316.2450173749967,b,1.0,0.4492163329996401,,,,,,sub-058,1,stroop_test,121.71823596447284,
,,,,79.0,7.0,6.0,,,,,,,,,,,,,rot,yellow,g,0.0,g,1.0,0.763680916003068,,,,,,,,,,6.0,7.0,79.0,3.0,316.25504312499834,,,,,,,,,,,,,,,,,316.2455812499975,317.04162874999747,317.8386043749924,317.8255336669972,,,,,,,,,,,,,,,,,,,,,,,,,,,,,,,,,,,317.8287689169956,317.8386043749924,317.8386043749924,318.60524550000264,g,1.0,0.763680916003068,,,,,,sub-058,1,stroop_test,121.71823596447284,
,,,,80.0,8.0,6.0,,,,,,,,,,,,,gelb,red,r,0.0,r,1.0,0.7044791249936679,,,,,,,,,,6.0,8.0,80.0,8.0,318.6155850419891,,,,,,,,,,,,,,,,,318.60582312499173,319.80227995799214,320.5978756669938,320.5862140829995,,,,,,,,,,,,,,,,,,,,,,,,,,,,,,,,,,,320.5904110830015,320.5978756669938,320.5978756669938,321.3054429170006,r,1.0,0.7044791249936679,,,,,,sub-058,1,stroop_test,121.71823596447284,
,,,,81.0,9.0,6.0,,,,,,,,,,,,,gelb,blue,b,0.0,b,1.0,0.5185476250044303,,,,,,,,,,6.0,9.0,81.0,9.0,321.31582133300253,,,,,,,,,,,,,,,,,321.30612024999573,321.4022603749909,322.194656666994,322.18625616699865,,,,,,,,,,,,,,,,,,,,,,,,,,,,,,,,,,,322.18691866699373,322.194656666994,322.194656666994,322.722225666992,b,1.0,0.5185476250044303,,,,,,sub-058,1,stroop_test,121.71823596447284,
,,,,82.0,10.0,6.0,,,,,,,,,,,,,blau,yellow,g,0.0,g,1.0,0.7844181250111433,,,,,,,,,,6.0,10.0,82.0,7.0,322.73256687499816,,,,,,,,,,,,,,,,,322.72280279199185,322.8185322079953,323.6134205830021,323.60257883300073,,,,,,,,,,,,,,,,,,,,,,,,,,,,,,,,,,,323.60593512500054,323.6134205830021,323.6134205830021,324.40530574999866,g,1.0,0.7844181250111433,,,,,,sub-058,1,stroop_test,121.71823596447284,
,,,,83.0,11.0,6.0,,,,,,,,,,,,,blau,blue,b,1.0,b,1.0,0.4919986250024522,,,,,,,,,,6.0,11.0,83.0,5.0,324.41579208298936,,,,,,,,,,,,,,,,,324.4059544999909,324.50217245800013,325.2949002499954,325.2863475829945,,,,,,,,,,,,,,,,,,,,,,,,,,,,,,,,,,,325.28723070799606,325.2949002499954,325.2949002499954,325.7943151669897,b,1.0,0.4919986250024522,,,,,,sub-058,1,stroop_test,121.71823596447284,
,,,,84.0,0.0,7.0,,,,,,,,,,,,,rot,red,r,1.0,r,1.0,0.5097971670038532,,,,,,,,,,7.0,0.0,84.0,1.0,325.80477287499525,,,,,,,,,,,,,,,,,325.7948797080025,325.89268129199627,326.70244045800064,326.68638299999293,,,,,,,,,,,,,,,,,,,,,,,,,,,,,,,,,,,326.691671499997,326.70244045800064,326.70244045800064,327.2210401249904,r,1.0,0.5097971670038532,,,,,,sub-058,1,stroop_test,121.71823596447284,
,,,,85.0,1.0,7.0,,,,,,,,,,,,,gelb,yellow,g,1.0,g,1.0,0.4570083750004414,,,,,,,,,,7.0,1.0,85.0,10.0,327.2313581670023,,,,,,,,,,,,,,,,,327.22160774999065,328.01909999999043,328.8149985420023,328.8031143749977,,,,,,,,,,,,,,,,,,,,,,,,,,,,,,,,,,,328.80745112500153,328.8149985420023,328.8149985420023,329.27757904199825,g,1.0,0.4570083750004414,,,,,,sub-058,1,stroop_test,121.71823596447284,
,,,,86.0,2.0,7.0,,,,,,,,,,,,,blau,blue,b,1.0,b,1.0,0.4473819999984698,,,,,,,,,,7.0,2.0,86.0,6.0,329.28808749999735,,,,,,,,,,,,,,,,,329.27814354198927,330.0752882499946,330.87155491700105,330.85956616699696,,,,,,,,,,,,,,,,,,,,,,,,,,,,,,,,,,,330.8633977499994,330.87155491700105,330.87155491700105,331.32201274999534,b,1.0,0.4473819999984698,,,,,,sub-058,1,stroop_test,121.71823596447284,
,,,,87.0,3.0,7.0,,,,,,,,,,,,,blau,blue,b,1.0,b,1.0,0.381338124992908,,,,,,,,,,7.0,3.0,87.0,5.0,331.33257720799884,,,,,,,,,,,,,,,,,331.3226679999934,331.6688604999945,332.4617028329958,332.45311483299884,,,,,,,,,,,,,,,,,,,,,,,,,,,,,,,,,,,332.4539948329912,332.4617028329958,332.4617028329958,332.84604308300186,b,1.0,0.381338124992908,,,,,,sub-058,1,stroop_test,121.71823596447284,
,,,,88.0,4.0,7.0,,,,,,,,,,,,,gelb,red,r,0.0,g,0.0,0.5397044169949368,,,,,,,,,,7.0,4.0,88.0,8.0,332.85716699999466,,,,,,,,,,,,,,,,,332.84667145799904,333.19171108299633,334.0017163750017,333.97502499999246,,,,,,,,,,,,,,,,,,,,,,,,,,,,,,,,,,,333.9786295419908,334.0017163750017,334.0017163750017,334.5439983749966,g,0.0,0.5397044169949368,,,,,,sub-058,1,stroop_test,121.71823596447284,
,,,,89.0,5.0,7.0,,,,,,,,,,,,,gelb,blue,b,0.0,b,1.0,0.4866003329952946,,,,,,,,,,7.0,5.0,89.0,9.0,334.5548576669971,,,,,,,,,,,,,,,,,334.5445844170026,335.3425511249952,336.13437716699264,336.12566204200266,,,,,,,,,,,,,,,,,,,,,,,,,,,,,,,,,,,336.1263267500035,336.13437716699264,336.13437716699264,336.6277909999917,b,1.0,0.4866003329952946,,,,,,sub-058,1,stroop_test,121.71823596447284,
,,,,90.0,6.0,7.0,,,,,,,,,,,,,gelb,yellow,g,1.0,g,1.0,0.5107692919991678,,,,,,,,,,7.0,6.0,90.0,11.0,336.6381202079938,,,,,,,,,,,,,,,,,336.6283487079927,337.4258814999921,338.217741542001,338.2089350000024,,,,,,,,,,,,,,,,,,,,,,,,,,,,,,,,,,,338.2096392079984,338.217741542001,338.217741542001,338.73775549999846,g,1.0,0.5107692919991678,,,,,,sub-058,1,stroop_test,121.71823596447284,
,,,,91.0,7.0,7.0,,,,,,,,,,,,,rot,yellow,g,0.0,g,1.0,0.5028505840018624,,,,,,,,,,7.0,7.0,91.0,3.0,338.7480907499994,,,,,,,,,,,,,,,,,338.7383284579992,339.53564620799443,340.3347588329925,340.3197051669995,,,,,,,,,,,,,,,,,,,,,,,,,,,,,,,,,,,340.32410425000126,340.3347588329925,340.3347588329925,340.8426436669979,g,1.0,0.5028505840018624,,,,,,sub-058,1,stroop_test,121.71823596447284,
,,,,92.0,8.0,7.0,,,,,,,,,,,,,blau,red,r,0.0,r,1.0,0.619768832999398,,,,,,,,,,7.0,8.0,92.0,4.0,340.8535699579952,,,,,,,,,,,,,,,,,340.84320816700347,340.9413208749902,341.73753870799555,341.72578745799547,,,,,,,,,,,,,,,,,,,,,,,,,,,,,,,,,,,341.7292867919896,341.73753870799555,341.73753870799555,342.3614187499916,r,1.0,0.619768832999398,,,,,,sub-058,1,stroop_test,121.71823596447284,
,,,,93.0,9.0,7.0,,,,,,,,,,,,,blau,yellow,g,0.0,g,1.0,0.5769360830017831,,,,,,,,,,7.0,9.0,93.0,7.0,342.37159941699065,,,,,,,,,,,,,,,,,342.3620139580016,343.558866249994,344.3510702499916,344.3430162919976,,,,,,,,,,,,,,,,,,,,,,,,,,,,,,,,,,,344.343478625,344.3510702499916,344.3510702499916,344.9375894580008,g,1.0,0.5769360830017831,,,,,,sub-058,1,stroop_test,121.71823596447284,
,,,,94.0,10.0,7.0,,,,,,,,,,,,,rot,red,r,1.0,r,1.0,0.8209708750073332,,,,,,,,,,7.0,10.0,94.0,0.0,344.9481148329942,,,,,,,,,,,,,,,,,344.93815629200253,346.1357214169984,346.9357915829896,346.91971566699794,,,,,,,,,,,,,,,,,,,,,,,,,,,,,,,,,,,346.92495658299595,346.9357915829896,346.9357915829896,347.76092054200126,r,1.0,0.8209708750073332,,,,,,sub-058,1,stroop_test,121.71823596447284,
,,,,95.0,11.0,7.0,,,,,,,,,,,,,rot,blue,b,0.0,b,1.0,0.4345277499960502,,,,,,,,,,7.0,11.0,95.0,2.0,347.77167187500163,,,,,,,,,,,,,,,,,347.7614848749945,348.1095462499943,348.9107997919928,348.902818417002,,,,,,,,,,,,,,,,,,,,,,,,,,,,,,,,,,,348.90352887500194,348.9107997919928,348.9107997919928,349.3546045830008,b,1.0,0.4345277499960502,,,,,,sub-058,1,stroop_test,121.71823596447284,
,,,,96.0,0.0,8.0,,,,,,,,,,,,,blau,blue,b,1.0,b,1.0,0.3749717080063419,,,,,,,,,,8.0,0.0,96.0,5.0,349.36514370799705,,,,,,,,,,,,,,,,,349.3552553749905,349.4522774169891,350.2474800420023,350.2360822920018,,,,,,,,,,,,,,,,,,,,,,,,,,,,,,,,,,,350.23990191699704,350.2474800420023,350.2474800420023,350.62771699999576,b,1.0,0.3749717080063419,,,,,,sub-058,1,stroop_test,121.71823596447284,
,,,,97.0,1.0,8.0,,,,,,,,,,,,,rot,yellow,g,0.0,g,1.0,0.7698282909987029,,,,,,,,,,8.0,1.0,97.0,3.0,350.63804487499874,,,,,,,,,,,,,,,,,350.6283064579912,350.97585974998947,351.7726934999955,351.75974850000057,,,,,,,,,,,,,,,,,,,,,,,,,,,,,,,,,,,351.76314504200127,351.7726934999955,351.7726934999955,352.54552491699,g,1.0,0.7698282909987029,,,,,,sub-058,1,stroop_test,121.71823596447284,
,,,,98.0,2.0,8.0,,,,,,,,,,,,,rot,red,r,1.0,r,1.0,0.4806315839960007,,,,,,,,,,8.0,2.0,98.0,1.0,352.55577662499854,,,,,,,,,,,,,,,,,352.54609558299126,352.89211033299216,353.6843184169993,353.6756522079959,,,,,,,,,,,,,,,,,,,,,,,,,,,,,,,,,,,353.6763169999904,353.6843184169993,353.6843184169993,354.1715166669892,r,1.0,0.4806315839960007,,,,,,sub-058,1,stroop_test,121.71823596447284,
,,,,99.0,3.0,8.0,,,,,,,,,,,,,gelb,yellow,g,1.0,g,1.0,0.4911087919899728,,,,,,,,,,8.0,3.0,99.0,11.0,354.18214449999505,,,,,,,,,,,,,,,,,354.1721622079931,355.3692319999973,356.16432549999445,356.1529810829961,,,,,,,,,,,,,,,,,,,,,,,,,,,,,,,,,,,356.1568972079985,356.16432549999445,356.16432549999445,356.66066333299386,g,1.0,0.4911087919899728,,,,,,sub-058,1,stroop_test,121.71823596447284,
,,,,100.0,4.0,8.0,,,,,,,,,,,,,gelb,blue,b,0.0,b,1.0,0.4620608749974053,,,,,,,,,,8.0,4.0,100.0,9.0,356.67142949999834,,,,,,,,,,,,,,,,,356.6612193329929,357.4593659169914,358.2512373329955,358.2424458329915,,,,,,,,,,,,,,,,,,,,,,,,,,,,,,,,,,,358.24311987499823,358.2512373329955,358.2512373329955,358.72102879200247,b,1.0,0.4620608749974053,,,,,,sub-058,1,stroop_test,121.71823596447284,
,,,,101.0,5.0,8.0,,,,,,,,,,,,,gelb,yellow,g,1.0,g,1.0,0.4798074169957544,,,,,,,,,,8.0,5.0,101.0,10.0,358.7313445000036,,,,,,,,,,,,,,,,,358.72161395799776,359.518835875002,360.3111048330029,360.3030109169922,,,,,,,,,,,,,,,,,,,,,,,,,,,,,,,,,,,360.3036927919893,360.3111048330029,360.3111048330029,360.7935805829911,g,1.0,0.4798074169957544,,,,,,sub-058,1,stroop_test,121.71823596447284,
,,,,102.0,6.0,8.0,,,,,,,,,,,,,blau,yellow,g,0.0,g,1.0,0.4832261249976,,,,,,,,,,8.0,6.0,102.0,7.0,360.8044675419951,,,,,,,,,,,,,,,,,360.7941546669899,361.5928939579899,362.398054749996,362.3864632920013,,,,,,,,,,,,,,,,,,,,,,,,,,,,,,,,,,,362.39064854200114,362.398054749996,362.398054749996,362.8890461669944,g,1.0,0.4832261249976,,,,,,sub-058,1,stroop_test,121.71823596447284,
,,,,103.0,7.0,8.0,,,,,,,,,,,,,blau,red,r,0.0,r,1.0,0.7139334999956191,,,,,,,,,,8.0,7.0,103.0,4.0,362.89974108299066,,,,,,,,,,,,,,,,,362.88970120799786,363.6856412920024,364.4776752079924,364.4695267079951,,,,,,,,,,,,,,,,,,,,,,,,,,,,,,,,,,,364.4702177500003,364.4776752079924,364.4776752079924,365.19485633299337,r,1.0,0.7139334999956191,,,,,,sub-058,1,stroop_test,121.71823596447284,
,,,,104.0,8.0,8.0,,,,,,,,,,,,,rot,blue,b,0.0,b,1.0,0.552039166999748,,,,,,,,,,8.0,8.0,104.0,2.0,365.2048762499908,,,,,,,,,,,,,,,,,365.1954174999992,365.991817874994,366.7919262079959,366.77645241699065,,,,,,,,,,,,,,,,,,,,,,,,,,,,,,,,,,,366.78126604200224,366.7919262079959,366.7919262079959,367.3544469999906,b,1.0,0.552039166999748,,,,,,sub-058,1,stroop_test,121.71823596447284,
,,,,105.0,9.0,8.0,,,,,,,,,,,,,rot,red,r,1.0,r,1.0,0.9088992909964873,,,,,,,,,,8.0,9.0,105.0,0.0,367.36481441700016,,,,,,,,,,,,,,,,,367.3550087920012,368.152365832997,368.94502620799176,368.9363477919978,,,,,,,,,,,,,,,,,,,,,,,,,,,,,,,,,,,368.9372749169997,368.94502620799176,368.94502620799176,369.8617747919925,r,1.0,0.9088992909964873,,,,,,sub-058,1,stroop_test,121.71823596447284,
,,,,106.0,10.0,8.0,,,,,,,,,,,,,blau,blue,b,1.0,b,1.0,0.5173811249987921,,,,,,,,,,8.0,10.0,106.0,6.0,369.8719159579923,,,,,,,,,,,,,,,,,369.8623464169941,370.6594072500011,371.46472941699903,371.4531974580023,,,,,,,,,,,,,,,,,,,,,,,,,,,,,,,,,,,371.45730629199534,371.46472941699903,371.46472941699903,371.9883110829978,b,1.0,0.5173811249987921,,,,,,sub-058,1,stroop_test,121.71823596447284,
,,,,107.0,11.0,8.0,,,,,,,,,,,,,gelb,red,r,0.0,g,0.0,0.4916404579998925,,,,,,,,,,8.0,11.0,107.0,8.0,371.99905574999866,,,,,,,,,,,,,,,,,371.9889639169997,372.7855817919917,373.5817018749949,373.56999870800064,,,,,,,,,,,,,,,,,,,,,,,,,,,,,,,,,,,373.5742059999902,373.5817018749949,373.5817018749949,374.07707908299926,g,0.0,0.4916404579998925,,,,,,sub-058,1,stroop_test,121.71823596447284,
,,,,108.0,0.0,9.0,,,,,,,,,,,,,blau,blue,b,1.0,b,1.0,0.4995244169986108,,,,,,,,,,9.0,0.0,108.0,5.0,374.0878733749996,,,,,,,,,,,,,,,,,374.0776489580021,374.8769174170011,375.6806682500028,375.6696686669893,,,,,,,,,,,,,,,,,,,,,,,,,,,,,,,,,,,375.6729629579932,375.6806682500028,375.6806682500028,376.1881863750023,b,1.0,0.4995244169986108,,,,,,sub-058,1,stroop_test,121.71823596447284,
,,,,109.0,1.0,9.0,,,,,,,,,,,,,rot,blue,b,0.0,b,1.0,0.6137304580042837,,,,,,,,,,9.0,1.0,109.0,2.0,376.1987868750002,,,,,,,,,,,,,,,,,376.1887855419918,376.9858587499912,377.783554374997,377.7696710829914,,,,,,,,,,,,,,,,,,,,,,,,,,,,,,,,,,,377.7731755419954,377.783554374997,377.783554374997,378.4050864579913,b,1.0,0.6137304580042837,,,,,,sub-058,1,stroop_test,121.71823596447284,
,,,,110.0,2.0,9.0,,,,,,,,,,,,,rot,red,r,1.0,r,1.0,0.6643708330084337,,,,,,,,,,9.0,2.0,110.0,1.0,378.4153892079921,,,,,,,,,,,,,,,,,378.40565020799113,379.6023025829927,380.3946873329987,380.38657666699146,,,,,,,,,,,,,,,,,,,,,,,,,,,,,,,,,,,380.3872456669924,380.3946873329987,380.3946873329987,381.06183979198977,r,1.0,0.6643708330084337,,,,,,sub-058,1,stroop_test,121.71823596447284,
,,,,111.0,3.0,9.0,,,,,,,,,,,,,rot,yellow,g,0.0,g,1.0,0.5462585420027608,,,,,,,,,,9.0,3.0,111.0,3.0,381.07170912499714,,,,,,,,,,,,,,,,,381.0624197500001,382.2588287499966,383.0515200419904,383.04295337499934,,,,,,,,,,,,,,,,,,,,,,,,,,,,,,,,,,,383.04362758299976,383.0515200419904,383.0515200419904,383.60390987498977,g,1.0,0.5462585420027608,,,,,,sub-058,1,stroop_test,121.71823596447284,
,,,,112.0,4.0,9.0,,,,,,,,,,,,,gelb,blue,b,0.0,b,1.0,0.5156259590003174,,,,,,,,,,9.0,4.0,112.0,9.0,383.6143477500009,,,,,,,,,,,,,,,,,383.6045632919995,383.70263262499066,384.49866741699225,384.4865882079903,,,,,,,,,,,,,,,,,,,,,,,,,,,,,,,,,,,384.4912205419969,384.49866741699225,384.49866741699225,385.0216822079965,b,1.0,0.5156259590003174,,,,,,sub-058,1,stroop_test,121.71823596447284,
,,,,113.0,5.0,9.0,,,,,,,,,,,,,blau,blue,b,1.0,b,1.0,0.4774681669950951,,,,,,,,,,9.0,5.0,113.0,6.0,385.032231707999,,,,,,,,,,,,,,,,,385.0223384580022,385.1190554579953,385.9161295419908,385.90338808299566,,,,,,,,,,,,,,,,,,,,,,,,,,,,,,,,,,,385.9087823329901,385.9161295419908,385.9161295419908,386.404815832997,b,1.0,0.4774681669950951,,,,,,sub-058,1,stroop_test,121.71823596447284,
,,,,114.0,6.0,9.0,,,,,,,,,,,,,blau,yellow,g,0.0,g,1.0,0.5366077090002364,,,,,,,,,,9.0,6.0,114.0,7.0,386.4153437079949,,,,,,,,,,,,,,,,,386.4054457919992,387.2024362499942,387.9952526669949,387.9867429579899,,,,,,,,,,,,,,,,,,,,,,,,,,,,,,,,,,,387.9877318329964,387.9952526669949,387.9952526669949,388.5380500829924,g,1.0,0.5366077090002364,,,,,,sub-058,1,stroop_test,121.71823596447284,
,,,,115.0,7.0,9.0,,,,,,,,,,,,,blau,red,r,0.0,r,1.0,0.8183030000072904,,,,,,,,,,9.0,7.0,115.0,4.0,388.5484683329996,,,,,,,,,,,,,,,,,388.5386188330013,389.3356783329946,390.1270576669922,390.1195290829928,,,,,,,,,,,,,,,,,,,,,,,,,,,,,,,,,,,390.1200847500004,390.1270576669922,390.1270576669922,390.95448770798976,r,1.0,0.8183030000072904,,,,,,sub-058,1,stroop_test,121.71823596447284,
,,,,116.0,8.0,9.0,,,,,,,,,,,,,rot,red,r,1.0,r,1.0,0.4422913750022417,,,,,,,,,,9.0,8.0,116.0,0.0,390.964822791997,,,,,,,,,,,,,,,,,390.955057041996,391.75236670799495,392.5502132919937,392.5364216250018,,,,,,,,,,,,,,,,,,,,,,,,,,,,,,,,,,,392.54000829199504,392.5502132919937,392.5502132919937,392.9950629999949,r,1.0,0.4422913750022417,,,,,,sub-058,1,stroop_test,121.71823596447284,
,,,,117.0,9.0,9.0,,,,,,,,,,,,,gelb,yellow,g,1.0,g,1.0,0.517926291009644,,,,,,,,,,9.0,9.0,117.0,11.0,393.00505704199895,,,,,,,,,,,,,,,,,392.9956329580018,393.7932007499912,394.5881736250012,394.5767392919952,,,,,,,,,,,,,,,,,,,,,,,,,,,,,,,,,,,394.5802633749991,394.5881736250012,394.5881736250012,395.1112102079933,g,1.0,0.517926291009644,,,,,,sub-058,1,stroop_test,121.71823596447284,
,,,,118.0,10.0,9.0,,,,,,,,,,,,,gelb,red,r,0.0,r,1.0,0.8921476669929689,,,,,,,,,,9.0,10.0,118.0,8.0,395.1217659579997,,,,,,,,,,,,,,,,,395.1117779579945,396.30965812499926,397.10130370799743,397.0925665419927,,,,,,,,,,,,,,,,,,,,,,,,,,,,,,,,,,,397.09322483299184,397.10130370799743,397.10130370799743,397.9964904579974,r,1.0,0.8921476669929689,,,,,,sub-058,1,stroop_test,121.71823596447284,
,,,,119.0,11.0,9.0,,,,,,,,,,,,,gelb,yellow,g,1.0,g,1.0,0.5841151249915129,,,,,,,,,,9.0,11.0,119.0,10.0,398.0069806669926,,,,,,,,,,,,,,,,,397.9970718330005,398.3428736249916,399.13515379199816,399.12655033299234,,,,,,,,,,,,,,,,,,,,,,,,,,,,,,,,,,,399.1271738329961,399.13515379199816,399.13515379199816,399.722322207992,g,1.0,0.5841151249915129,,,,,,sub-058,1,stroop_test,121.71823596447284,
,,,,,,,,,,,,,,,,,,,,,,,,,,,,,,,,,,,,,,,,,,,,,,,,,,,,,,,,,,,,,,,,,,,,,,,,,,,,,,,,,,,,,,,,,,,,,,,,,,,,,,399.7226514999929,399.7352634999989,404.725580792001,404.720003082999,sub-058,1,stroop_test,121.71823596447284,
