wordCTK,colorCTK,corrAnsCTK,congruentCTK,thisN,thisTrialN,thisRepN,keyResp_CTK.keys,keyResp_CTK.corr,keyResp_CTK.rt,keyResp_CTK.duration,wordPractice,colorPractice,corrAnsPractice,congruentPractice,respPractice.keys,respPractice.corr,respPractice.rt,respPractice.duration,word,color,corrAns,congruent,keyResp_test_run.keys,keyResp_test_run.corr,keyResp_test_run.rt,keyResp_test_run.duration,trials_CTK.thisRepN,trials_CTK.thisTrialN,trials_CTK.thisN,trials_CTK.thisIndex,trials_practice.thisRepN,trials_practice.thisTrialN,trials_practice.thisN,trials_practice.thisIndex,trials_test.thisRepN,trials_test.thisTrialN,trials_test.thisN,trials_test.thisIndex,thisRow.t,notes,instruction.started,instr_text.started,instr_image.started,instr_resp.started,instruction.stopped,instr_resp.keys,instr_resp.rt,instr_resp.duration,instr_color_to_key.started,instr_ctk.started,resp_ctk.started,instr_color_to_key.stopped,resp_ctk.keys,resp_ctk.rt,resp_ctk.duration,ITI.started,fixcross.started,fixcross.stopped,ITI.stopped,color_to_key_run.started,stimulus_CTK.started,keyResp_CTK.started,color_to_key_run.stopped,trials_CTK.keyResp_CTK.keys,trials_CTK.keyResp_CTK.corr,trials_CTK.keyResp_CTK.rt,trials_CTK.keyResp_CTK.duration,instr_practice.started,instr_practice_text.started,instr_practice_resp.started,instr_practice.stopped,instr_practice_resp.keys,instr_practice_resp.rt,instr_practice_resp.duration,practice_run.started,stimulus_practice.started,respPractice.started,practice_run.stopped,trials_practice.respPractice.keys,trials_practice.respPractice.corr,trials_practice.respPractice.rt,trials_practice.respPractice.duration,feedback.started,textFeedback.started,feedback.stopped,textFeedback.stopped,instr_test.started,instr_test_text.started,instr_test_resp.started,instr_test.stopped,instr_test_resp.keys,instr_test_resp.rt,instr_test_resp.duration,test_run.started,stimulus_test_run.started,keyResp_test_run.started,test_run.stopped,trials_test.keyResp_test_run.keys,trials_test.keyResp_test_run.corr,trials_test.keyResp_test_run.rt,trials_test.keyResp_test_run.duration,goodbye.started,textGoodbye.started,goodbye.stopped,participant,session,expName,frameRate,Unnamed: 112
,,,,,,,,,,,,,,,,,,,,,,,,,,,,,,,,,,,,,,,,,0.0023649998474866,0.0169944998342543,0.0169944998342543,0.0169944998342543,49.08410189999268,space,48.97525629983284,,,,,,,,,,,,,,,,,,,,,,,,,,,,,,,,,,,,,,,,,,,,,,,,,,,,,,,,,,sub-217,1,stroop_test,59.98307280158803,
,,,,,,,,,,,,,,,,,,,,,,,,,,,,,,,,,,,,,,,,,,,,,,,,,49.08420119993389,49.09020769991912,49.09020769991912,70.45391709986143,space,21.352556499885395,,,,,,,,,,,,,,,,,,,,,,,,,,,,,,,,,,,,,,,,,,,,,,,,,,,sub-217,1,stroop_test,59.98307280158803,
test,yellow,g,1.0,0.0,0.0,0.0,g,1.0,1.067404800094664,,,,,,,,,,,,,,,,,,0.0,0.0,0.0,1.0,,,,,,,,,70.47702619992197,,,,,,,,,,,,,,,,,70.4734680999536,71.66943639982492,72.46909509995021,72.45327179995365,72.46217620000243,72.46909509995021,72.46909509995021,73.53918169997633,g,1.0,1.067404800094664,,,,,,,,,,,,,,,,,,,,,,,,,,,,,,,,,,,,,,,sub-217,1,stroop_test,59.98307280158803,
test,blue,b,1.0,1.0,1.0,0.0,b,1.0,0.6545361999887973,,,,,,,,,,,,,,,,,,0.0,1.0,1.0,2.0,,,,,,,,,73.55332800000906,,,,,,,,,,,,,,,,,73.53974119992927,74.35270239994861,75.152454999974,75.13653140002862,75.13713539997116,75.152454999974,75.152454999974,75.82064349995926,b,1.0,0.6545361999887973,,,,,,,,,,,,,,,,,,,,,,,,,,,,,,,,,,,,,,,sub-217,1,stroop_test,59.98307280158803,
test,red,r,1.0,2.0,2.0,0.0,r,1.0,0.8191963001154363,,,,,,,,,,,,,,,,,,0.0,2.0,2.0,0.0,,,,,,,,,75.83562429994345,,,,,,,,,,,,,,,,,75.82110009994358,75.93576419982128,76.73575429990888,76.7196704999078,76.72028280002996,76.73575429990888,76.73575429990888,77.57086889981292,r,1.0,0.8191963001154363,,,,,,,,,,,,,,,,,,,,,,,,,,,,,,,,,,,,,,,sub-217,1,stroop_test,59.98307280158803,
test,yellow,g,1.0,3.0,0.0,1.0,g,1.0,0.6136433000210673,,,,,,,,,,,,,,,,,,1.0,0.0,3.0,1.0,,,,,,,,,77.58580100000836,,,,,,,,,,,,,,,,,77.57137369993143,77.68560419999994,78.48567599989474,78.47036289982498,78.47100569983013,78.48567599989474,78.48567599989474,79.10459019988775,g,1.0,0.6136433000210673,,,,,,,,,,,,,,,,,,,,,,,,,,,,,,,,,,,,,,,sub-217,1,stroop_test,59.98307280158803,
test,red,r,1.0,4.0,1.0,1.0,r,1.0,0.8490359999705106,,,,,,,,,,,,,,,,,,1.0,1.0,4.0,0.0,,,,,,,,,79.11896350001916,,,,,,,,,,,,,,,,,79.1051025998313,79.46890869992785,80.26887679984793,80.25353679992259,80.25424899999052,80.26887679984793,80.26887679984793,81.12053789990023,r,1.0,0.8490359999705106,,,,,,,,,,,,,,,,,,,,,,,,,,,,,,,,,,,,,,,sub-217,1,stroop_test,59.98307280158803,
test,blue,b,1.0,5.0,2.0,1.0,b,1.0,0.4356410999316722,,,,,,,,,,,,,,,,,,1.0,2.0,5.0,2.0,,,,,,,,,81.13553539989516,,,,,,,,,,,,,,,,,81.12097279983573,81.93565299990587,82.73543799994513,82.7198280999437,82.72051659994759,82.73543799994513,82.73543799994513,83.18747360003181,b,1.0,0.4356410999316722,,,,,,,,,,,,,,,,,,,,,,,,,,,,,,,,,,,,,,,sub-217,1,stroop_test,59.98307280158803,
test,red,r,1.0,6.0,0.0,2.0,r,1.0,0.4962931999471038,,,,,,,,,,,,,,,,,,2.0,0.0,6.0,0.0,,,,,,,,,83.20235239993781,,,,,,,,,,,,,,,,,83.18795459996909,84.0019878000021,84.80215339991264,84.7867199999746,84.78739980002865,84.80215339991264,84.80215339991264,85.30357380001806,r,1.0,0.4962931999471038,,,,,,,,,,,,,,,,,,,,,,,,,,,,,,,,,,,,,,,sub-217,1,stroop_test,59.98307280158803,
test,yellow,g,1.0,7.0,1.0,2.0,g,1.0,0.5684807000216097,,,,,,,,,,,,,,,,,,2.0,1.0,7.0,1.0,,,,,,,,,85.31883189990185,,,,,,,,,,,,,,,,,85.3039968998637,85.65195599989966,86.4518219998572,86.43603620002978,86.43664480000734,86.4518219998572,86.4518219998572,87.03710119985044,g,1.0,0.5684807000216097,,,,,,,,,,,,,,,,,,,,,,,,,,,,,,,,,,,,,,,sub-217,1,stroop_test,59.98307280158803,
test,blue,b,1.0,8.0,2.0,2.0,b,1.0,0.5063813000451773,,,,,,,,,,,,,,,,,,2.0,2.0,8.0,2.0,,,,,,,,,87.05169290001504,,,,,,,,,,,,,,,,,87.0376003999263,88.25244989991188,89.0519030999858,89.03602200001478,89.03667369997129,89.0519030999858,89.0519030999858,89.5703266998753,b,1.0,0.5063813000451773,,,,,,,,,,,,,,,,,,,,,,,,,,,,,,,,,,,,,,,sub-217,1,stroop_test,59.98307280158803,
test,red,r,1.0,9.0,0.0,3.0,r,1.0,1.2862502001225948,,,,,,,,,,,,,,,,,,3.0,0.0,9.0,0.0,,,,,,,,,89.58556949999183,,,,,,,,,,,,,,,,,89.57075900002383,90.38499569986016,91.18530669994652,91.16940969997086,91.17006309982388,91.18530669994652,91.18530669994652,92.48636520002036,r,1.0,1.2862502001225948,,,,,,,,,,,,,,,,,,,,,,,,,,,,,,,,,,,,,,,sub-217,1,stroop_test,59.98307280158803,
test,blue,b,1.0,10.0,1.0,3.0,b,1.0,0.6281144998501986,,,,,,,,,,,,,,,,,,3.0,1.0,10.0,2.0,,,,,,,,,92.5015944999177,,,,,,,,,,,,,,,,,92.4868333998602,93.2848803999368,94.08479739981703,94.06928029982372,94.0699346999172,94.08479739981703,94.08479739981703,94.71955059980974,b,1.0,0.6281144998501986,,,,,,,,,,,,,,,,,,,,,,,,,,,,,,,,,,,,,,,sub-217,1,stroop_test,59.98307280158803,
test,yellow,g,1.0,11.0,2.0,3.0,g,1.0,0.5081853000447154,,,,,,,,,,,,,,,,,,3.0,2.0,11.0,1.0,,,,,,,,,94.73479749984108,,,,,,,,,,,,,,,,,94.71995689999312,95.53595219994897,96.35213999985716,96.33580149989577,96.33640669984744,96.35213999985716,96.35213999985716,96.8707987999078,g,1.0,0.5081853000447154,,,,,,,,,,,,,,,,,,,,,,,,,,,,,,,,,,,,,,,sub-217,1,stroop_test,59.98307280158803,
,,,,,,,,,,,,,,,,,,,,,,,,,,,,,,,,,,,,,,,,,,,,,,,,,,,,,,,,,,,,,,,,,,,,96.8709954000078,96.88563839998096,96.88563839998096,105.58574280003086,space,8.690164500148967,,,,,,,,,,,,,,,,,,,,,,,,,,,,,,,,sub-217,1,stroop_test,59.98307280158803,
,,,,0.0,0.0,0.0,,,,,blau,blue,b,1.0,b,1.0,0.8662679998669773,,,,,,,,,,,,,,0.0,0.0,0.0,6.0,,,,,105.60096989991143,,,,,,,,,,,,,,,,,105.59731199988164,105.70127369998954,106.50182310002856,106.48537389980628,,,,,,,,,,,,,,,,106.49567479989491,106.50182310002856,106.50182310002856,107.37034959997982,b,1.0,0.8662679998669773,,107.38180979993194,107.38701299997048,108.38467649999076,,,,,,,,,,,,,,,,,,,,sub-217,1,stroop_test,59.98307280158803,
,,,,1.0,1.0,0.0,,,,,gelb,yellow,g,1.0,g,1.0,0.6873884000815451,,,,,,,,,,,,,,0.0,1.0,1.0,11.0,,,,,108.4011737999972,,,,,,,,,,,,,,,,,108.38524720002896,109.58431559987366,110.38420660002156,110.36841959995218,,,,,,,,,,,,,,,,110.373324399814,110.38420660002156,110.38420660002156,111.08830319996925,g,1.0,0.6873884000815451,,111.08903369982728,111.10086219990626,112.08508049999364,112.10048879985698,,,,,,,,,,,,,,,,,,,sub-217,1,stroop_test,59.98307280158803,
,,,,2.0,2.0,0.0,,,,,gelb,red,r,0.0,r,1.0,0.9095243997871876,,,,,,,,,,,,,,0.0,2.0,2.0,8.0,,,,,112.10048879985698,,,,,,,,,,,,,,,,,112.08549369988032,113.30117069999687,114.10069229989313,114.0847850998398,,,,,,,,,,,,,,,,114.0853718998842,114.10069229989313,114.10069229989313,115.01910359994508,r,1.0,0.9095243997871876,,115.01977829984388,115.03385379980318,116.01858929987064,116.03394169989042,,,,,,,,,,,,,,,,,,,sub-217,1,stroop_test,59.98307280158803,
,,,,3.0,3.0,0.0,,,,,gelb,yellow,g,1.0,g,1.0,0.89220040012151,,,,,,,,,,,,,,0.0,3.0,3.0,10.0,,,,,116.03394169989042,,,,,,,,,,,,,,,,,116.01912549999544,116.3677465999499,117.16725989989936,117.15201089996845,,,,,,,,,,,,,,,,117.15267949993722,117.16725989989936,117.16725989989936,118.0686873998493,g,1.0,0.89220040012151,,118.06932759983464,118.08378889993764,119.068110199878,119.08422989980318,,,,,,,,,,,,,,,,,,,sub-217,1,stroop_test,59.98307280158803,
,,,,4.0,4.0,0.0,,,,,blau,red,r,0.0,r,1.0,0.6806642001029104,,,,,,,,,,,,,,0.0,4.0,4.0,4.0,,,,,119.08422989980318,,,,,,,,,,,,,,,,,119.06855119997635,119.43376889987849,120.23407799983396,120.21821479988284,,,,,,,,,,,,,,,,120.22168229985982,120.23407799983396,120.23407799983396,120.91870439983904,r,1.0,0.6806642001029104,,120.91935470001772,120.9339107000269,121.91818259982392,121.9346921998076,,,,,,,,,,,,,,,,,,,sub-217,1,stroop_test,59.98307280158803,
,,,,5.0,5.0,0.0,,,,,rot,yellow,g,0.0,g,1.0,0.556867300067097,,,,,,,,,,,,,,0.0,5.0,5.0,3.0,,,,,121.9346921998076,,,,,,,,,,,,,,,,,121.9186757998541,122.0340930998791,122.83344689989462,122.8181568,,,,,,,,,,,,,,,,122.825300199911,122.83344689989462,122.83344689989462,123.40217609982938,g,1.0,0.556867300067097,,123.40288920002058,123.41675390000457,124.40143859991804,124.41771789989434,,,,,,,,,,,,,,,,,,,sub-217,1,stroop_test,59.98307280158803,
,,,,6.0,6.0,0.0,,,,,blau,yellow,g,0.0,g,1.0,0.6242242001462728,,,,,,,,,,,,,,0.0,6.0,6.0,7.0,,,,,124.41771789989434,,,,,,,,,,,,,,,,,124.40186630003154,125.61771389981732,126.41776129999198,126.40144989988768,,,,,,,,,,,,,,,,126.40668919985184,126.41776129999198,126.41776129999198,127.05318729998544,g,1.0,0.6242242001462728,,127.0538897998631,127.06703239982016,128.05121989990585,128.0666423998773,,,,,,,,,,,,,,,,,,,sub-217,1,stroop_test,59.98307280158803,
,,,,7.0,7.0,0.0,,,,,gelb,blue,b,0.0,b,1.0,0.8816970000043511,,,,,,,,,,,,,,0.0,7.0,7.0,9.0,,,,,128.0666423998773,,,,,,,,,,,,,,,,,128.05164209986106,128.16678259987384,128.96663739997894,128.9508532998152,,,,,,,,,,,,,,,,128.9553468998056,128.96663739997894,128.96663739997894,129.85205679992214,b,1.0,0.8816970000043511,,129.8528332998976,129.86655219993554,130.85060789994895,130.86681239982136,,,,,,,,,,,,,,,,,,,sub-217,1,stroop_test,59.98307280158803,
,,,,8.0,8.0,0.0,,,,,rot,red,r,1.0,r,1.0,0.6612801000010222,,,,,,,,,,,,,,0.0,8.0,8.0,0.0,,,,,130.86681239982136,,,,,,,,,,,,,,,,,130.85099849989638,131.66673129983246,132.4667352999095,132.4506683999207,,,,,,,,,,,,,,,,132.45550559996627,132.4667352999095,132.4667352999095,133.13473029993474,r,1.0,0.6612801000010222,,133.1353964000009,133.14966519991867,134.13392980000935,134.1496319998987,,,,,,,,,,,,,,,,,,,sub-217,1,stroop_test,59.98307280158803,
,,,,9.0,9.0,0.0,,,,,blau,blue,b,1.0,b,1.0,0.5351326998788863,,,,,,,,,,,,,,0.0,9.0,9.0,5.0,,,,,134.1496319998987,,,,,,,,,,,,,,,,,134.1343531999737,134.49978700000793,135.300752799958,135.28453149995767,,,,,,,,,,,,,,,,135.287962900009,135.300752799958,135.300752799958,135.8520088000223,b,1.0,0.5351326998788863,,135.8526977999136,135.86769109987654,136.8666459999513,,,,,,,,,,,,,,,,,,,,sub-217,1,stroop_test,59.98307280158803,
,,,,10.0,10.0,0.0,,,,,rot,red,r,1.0,r,1.0,0.951387699926272,,,,,,,,,,,,,,0.0,10.0,10.0,1.0,,,,,136.88283689995296,,,,,,,,,,,,,,,,,136.8670748998411,137.66710189986043,138.46656490000896,138.45255839987658,,,,,,,,,,,,,,,,138.45721979998052,138.46656490000896,138.46656490000896,139.43492079991847,r,1.0,0.951387699926272,,139.43552429997362,139.44990699994378,140.43364529986866,140.44957860000432,,,,,,,,,,,,,,,,,,,sub-217,1,stroop_test,59.98307280158803,
,,,,11.0,11.0,0.0,,,,,rot,blue,b,0.0,b,1.0,0.7262695000972599,,,,,,,,,,,,,,0.0,11.0,11.0,2.0,,,,,140.44957860000432,,,,,,,,,,,,,,,,,140.43406599992886,141.24933699984103,142.04912359989248,142.03346970002167,,,,,,,,,,,,,,,,142.03408729983494,142.04912359989248,142.04912359989248,142.78422749997117,b,1.0,0.7262695000972599,,142.78489280003123,142.79923519981094,143.78359689982608,143.79929649992846,,,,,,,,,,,,,,,,,,,sub-217,1,stroop_test,59.98307280158803,
,,,,12.0,0.0,1.0,,,,,gelb,yellow,g,1.0,g,1.0,0.62569549982436,,,,,,,,,,,,,,1.0,0.0,12.0,11.0,,,,,143.79929649992846,,,,,,,,,,,,,,,,,143.78401399985887,144.14947379985824,144.94929879996926,144.934775599977,,,,,,,,,,,,,,,,144.93988889991306,144.94929879996926,144.94929879996926,145.58469629986212,g,1.0,0.62569549982436,,145.58531509991735,145.59938099980354,146.58372240001336,146.5992677998729,,,,,,,,,,,,,,,,,,,sub-217,1,stroop_test,59.98307280158803,
,,,,13.0,1.0,1.0,,,,,blau,yellow,g,0.0,g,1.0,0.8995515999849886,,,,,,,,,,,,,,1.0,1.0,13.0,7.0,,,,,146.5992677998729,,,,,,,,,,,,,,,,,146.58412489993498,147.39940579980612,148.19949719985016,148.18348569981754,,,,,,,,,,,,,,,,148.18744499981403,148.19949719985016,148.19949719985016,149.10183369996955,g,1.0,0.8995515999849886,,149.10262309992686,149.11640669987537,150.10054589994252,150.11539869988337,,,,,,,,,,,,,,,,,,,sub-217,1,stroop_test,59.98307280158803,
,,,,14.0,2.0,1.0,,,,,rot,red,r,1.0,r,1.0,0.8995171000715345,,,,,,,,,,,,,,1.0,2.0,14.0,0.0,,,,,150.11539869988337,,,,,,,,,,,,,,,,,150.10098390001804,150.9155939000193,151.7156915999949,151.69978589983657,,,,,,,,,,,,,,,,151.70463970000856,151.7156915999949,151.7156915999949,152.61784680001438,r,1.0,0.8995171000715345,,152.61859459988773,152.63220709981397,153.61671489989385,153.6327016998548,,,,,,,,,,,,,,,,,,,sub-217,1,stroop_test,59.98307280158803,
,,,,15.0,3.0,1.0,,,,,rot,yellow,g,0.0,g,1.0,0.4790849999990314,,,,,,,,,,,,,,1.0,3.0,15.0,3.0,,,,,153.6327016998548,,,,,,,,,,,,,,,,,153.61721379985102,154.8321258998476,155.6329371999018,155.6166192998644,,,,,,,,,,,,,,,,155.61773119983263,155.6329371999018,155.6329371999018,156.11757729994133,g,1.0,0.4790849999990314,,156.1185609998647,156.1321609998122,157.11608859989792,157.1318455999717,,,,,,,,,,,,,,,,,,,sub-217,1,stroop_test,59.98307280158803,
,,,,16.0,4.0,1.0,,,,,rot,red,r,1.0,r,1.0,0.4363714000210166,,,,,,,,,,,,,,1.0,4.0,16.0,1.0,,,,,157.1318455999717,,,,,,,,,,,,,,,,,157.116508099949,158.33267349982634,159.13169279997237,159.11586469993927,,,,,,,,,,,,,,,,159.11613640002906,159.13169279997237,159.13169279997237,159.58345899987034,r,1.0,0.4363714000210166,,159.58411529986188,159.59900669986382,160.58299559983425,160.59844859992154,,,,,,,,,,,,,,,,,,,sub-217,1,stroop_test,59.98307280158803,
,,,,17.0,5.0,1.0,,,,,blau,blue,b,1.0,b,1.0,0.4809848999138921,,,,,,,,,,,,,,1.0,5.0,17.0,5.0,,,,,160.59844859992154,,,,,,,,,,,,,,,,,160.58344949991442,161.79822489991784,162.5986338998191,162.58286849991418,,,,,,,,,,,,,,,,162.58609239989892,162.5986338998191,162.5986338998191,163.0831530999858,b,1.0,0.4809848999138921,,163.08377019991167,163.09839689987712,164.08246289985254,164.09905069996603,,,,,,,,,,,,,,,,,,,sub-217,1,stroop_test,59.98307280158803,
,,,,18.0,6.0,1.0,,,,,rot,blue,b,0.0,b,1.0,0.5412125000730157,,,,,,,,,,,,,,1.0,6.0,18.0,2.0,,,,,164.09905069996603,,,,,,,,,,,,,,,,,164.08280700002797,164.19925069995224,164.999300400028,164.98285799985752,,,,,,,,,,,,,,,,164.98657840001397,164.999300400028,164.999300400028,165.54946310003288,b,1.0,0.5412125000730157,,165.54990089987405,165.56528500001878,166.54884659987874,166.56496929982677,,,,,,,,,,,,,,,,,,,sub-217,1,stroop_test,59.98307280158803,
,,,,19.0,7.0,1.0,,,,,gelb,blue,b,0.0,b,1.0,0.5020175001118332,,,,,,,,,,,,,,1.0,7.0,19.0,9.0,,,,,166.56496929982677,,,,,,,,,,,,,,,,,166.54914329992607,167.7481327999849,168.54895369987935,168.53254990000278,,,,,,,,,,,,,,,,168.53856589994393,168.54895369987935,168.54895369987935,169.0657130999025,b,1.0,0.5020175001118332,,169.06632749992423,169.08118440001272,170.06565220002085,170.08191549987532,,,,,,,,,,,,,,,,,,,sub-217,1,stroop_test,59.98307280158803,
,,,,20.0,8.0,1.0,,,,,blau,blue,b,1.0,b,1.0,0.4698047998826951,,,,,,,,,,,,,,1.0,8.0,20.0,6.0,,,,,170.08191549987532,,,,,,,,,,,,,,,,,170.06605799985118,171.28124879999086,172.08129609981552,172.06571380002424,,,,,,,,,,,,,,,,172.06962700001895,172.08129609981552,172.08129609981552,172.5661787998397,b,1.0,0.4698047998826951,,172.56686039990743,172.5812702998519,173.56636939989403,173.5811960999854,,,,,,,,,,,,,,,,,,,sub-217,1,stroop_test,59.98307280158803,
,,,,21.0,9.0,1.0,,,,,blau,red,r,0.0,r,1.0,0.9509533001109958,,,,,,,,,,,,,,1.0,9.0,21.0,4.0,,,,,173.5811960999854,,,,,,,,,,,,,,,,,173.5668382998556,174.38174570002593,175.1814231998287,175.16578909987584,,,,,,,,,,,,,,,,175.1664458999876,175.1814231998287,175.1814231998287,176.1496050998103,r,1.0,0.9509533001109958,,176.1505121998489,176.16459549986757,177.14872009982355,177.16470399987884,,,,,,,,,,,,,,,,,,,sub-217,1,stroop_test,59.98307280158803,
,,,,22.0,10.0,1.0,,,,,gelb,red,r,0.0,r,1.0,0.86840740009211,,,,,,,,,,,,,,1.0,10.0,22.0,8.0,,,,,177.16470399987884,,,,,,,,,,,,,,,,,177.14916579984128,177.96416129986756,178.7642091999296,178.7485298998654,,,,,,,,,,,,,,,,178.75316469999962,178.7642091999296,178.7642091999296,179.64944009995088,r,1.0,0.86840740009211,,179.65010929992422,179.66455959994346,180.64858379983343,180.66424439987168,,,,,,,,,,,,,,,,,,,sub-217,1,stroop_test,59.98307280158803,
,,,,23.0,11.0,1.0,,,,,gelb,yellow,g,1.0,g,1.0,0.7089060998987406,,,,,,,,,,,,,,1.0,11.0,23.0,10.0,,,,,180.66424439987168,,,,,,,,,,,,,,,,,180.64902979996987,181.46460399986245,182.2641506998334,182.24834399996325,,,,,,,,,,,,,,,,182.24894779990427,182.2641506998334,182.2641506998334,182.9822972000111,g,1.0,0.7089060998987406,,182.98293189983812,182.9977376998868,183.9822148999665,183.99791129981168,,,,,,,,,,,,,,,,,,,sub-217,1,stroop_test,59.98307280158803,
,,,,,,,,,,,,,,,,,,,,,,,,,,,,,,,,,,,,,,,,,,,,,,,,,,,,,,,,,,,,,,,,,,,,,,,,,,,,,,,,,,,,,,,183.9823941998184,183.99791129981168,183.99791129981168,189.36593879992145,space,5.363022500183433,,,,,,,,,,,,,sub-217,1,stroop_test,59.98307280158803,
,,,,0.0,0.0,0.0,,,,,,,,,,,,,rot,red,r,1.0,r,1.0,0.5328492000699043,,,,,,,,,,0.0,0.0,0.0,0.0,189.38634299999103,,,,,,,,,,,,,,,,,189.38265249994583,190.1805044999346,190.98040140001103,190.9652267999481,,,,,,,,,,,,,,,,,,,,,,,,,,,,,,,,,,,190.97000620001927,190.98040140001103,190.98040140001103,191.5173762999475,r,1.0,0.5328492000699043,,,,,sub-217,1,stroop_test,59.98307280158803,
,,,,1.0,1.0,0.0,,,,,,,,,,,,,blau,yellow,g,0.0,g,1.0,0.5742769001517445,,,,,,,,,,0.0,1.0,1.0,7.0,191.53070909995583,,,,,,,,,,,,,,,,,191.5181625999976,191.88090600003488,192.6806373000145,192.6649125998374,,,,,,,,,,,,,,,,,,,,,,,,,,,,,,,,,,,192.6689832999837,192.6806373000145,192.6806373000145,193.26589909987524,g,1.0,0.5742769001517445,,,,,sub-217,1,stroop_test,59.98307280158803,
,,,,2.0,2.0,0.0,,,,,,,,,,,,,rot,blue,b,0.0,b,1.0,0.4607141001615673,,,,,,,,,,0.0,2.0,2.0,2.0,193.2801498998888,,,,,,,,,,,,,,,,,193.26638829987496,194.48038969980556,195.28025790001263,195.26436189981175,,,,,,,,,,,,,,,,,,,,,,,,,,,,,,,,,,,195.26877279998732,195.28025790001263,195.28025790001263,195.7486113999039,b,1.0,0.4607141001615673,,,,,sub-217,1,stroop_test,59.98307280158803,
,,,,3.0,3.0,0.0,,,,,,,,,,,,,blau,red,r,0.0,r,1.0,0.809142200043425,,,,,,,,,,0.0,3.0,3.0,4.0,195.76367869996463,,,,,,,,,,,,,,,,,195.7493207999505,196.563315999927,197.36369419982657,197.3478569998406,,,,,,,,,,,,,,,,,,,,,,,,,,,,,,,,,,,197.35177029995248,197.36369419982657,197.36369419982657,198.18206759984605,r,1.0,0.809142200043425,,,,,sub-217,1,stroop_test,59.98307280158803,
,,,,4.0,4.0,0.0,,,,,,,,,,,,,gelb,red,r,0.0,r,1.0,0.5681380999740213,,,,,,,,,,0.0,4.0,4.0,8.0,198.1967391998041,,,,,,,,,,,,,,,,,198.18251389986835,198.54672709992155,199.34658569982275,199.33100929996,,,,,,,,,,,,,,,,,,,,,,,,,,,,,,,,,,,199.33532639988695,199.34658569982275,199.34658569982275,199.932426400017,r,1.0,0.5681380999740213,,,,,sub-217,1,stroop_test,59.98307280158803,
,,,,5.0,5.0,0.0,,,,,,,,,,,,,blau,blue,b,1.0,b,1.0,0.8056223001331091,,,,,,,,,,0.0,5.0,5.0,6.0,199.94662399985828,,,,,,,,,,,,,,,,,199.9329319000244,201.14653559983708,201.94678779994135,201.93134709983133,,,,,,,,,,,,,,,,,,,,,,,,,,,,,,,,,,,201.934437799966,201.94678779994135,201.94678779994135,202.76381109980863,b,1.0,0.8056223001331091,,,,,sub-217,1,stroop_test,59.98307280158803,
,,,,6.0,6.0,0.0,,,,,,,,,,,,,gelb,blue,b,0.0,b,1.0,0.5917402999475598,,,,,,,,,,0.0,6.0,6.0,9.0,202.77988069993444,,,,,,,,,,,,,,,,,202.7640735998284,203.56306739989668,204.3630537998397,204.3471017000265,,,,,,,,,,,,,,,,,,,,,,,,,,,,,,,,,,,204.35271889995784,204.3630537998397,204.3630537998397,204.96460229996592,b,1.0,0.5917402999475598,,,,,sub-217,1,stroop_test,59.98307280158803,
,,,,7.0,7.0,0.0,,,,,,,,,,,,,gelb,yellow,g,1.0,g,1.0,0.5059132999740541,,,,,,,,,,0.0,7.0,7.0,11.0,204.97969639999792,,,,,,,,,,,,,,,,,204.9650643998757,206.1797809000127,206.9795581998769,206.9639158998616,,,,,,,,,,,,,,,,,,,,,,,,,,,,,,,,,,,206.96456260001287,206.9795581998769,206.9795581998769,207.4983707999345,g,1.0,0.5059132999740541,,,,,sub-217,1,stroop_test,59.98307280158803,
,,,,8.0,8.0,0.0,,,,,,,,,,,,,blau,blue,b,1.0,b,1.0,0.5270072999410331,,,,,,,,,,0.0,8.0,8.0,5.0,207.5130998999812,,,,,,,,,,,,,,,,,207.49883099994625,208.3129229999613,209.11289819981903,209.09730349993333,,,,,,,,,,,,,,,,,,,,,,,,,,,,,,,,,,,209.1013249999378,209.11289819981903,209.11289819981903,209.64849079982375,b,1.0,0.5270072999410331,,,,,sub-217,1,stroop_test,59.98307280158803,
,,,,9.0,9.0,0.0,,,,,,,,,,,,,rot,red,r,1.0,r,1.0,0.698763000080362,,,,,,,,,,0.0,9.0,9.0,1.0,209.6627674999181,,,,,,,,,,,,,,,,,209.6490056999028,209.7633106999565,210.56279609980996,210.54717229981907,,,,,,,,,,,,,,,,,,,,,,,,,,,,,,,,,,,210.55185529985465,210.56279609980996,210.56279609980996,211.2644950998947,r,1.0,0.698763000080362,,,,,sub-217,1,stroop_test,59.98307280158803,
,,,,10.0,10.0,0.0,,,,,,,,,,,,,gelb,yellow,g,1.0,g,1.0,0.6425572999287397,,,,,,,,,,0.0,10.0,10.0,10.0,211.27943719993343,,,,,,,,,,,,,,,,,211.26497699995525,211.3632114999928,212.16283419984396,212.1474778000265,,,,,,,,,,,,,,,,,,,,,,,,,,,,,,,,,,,212.15286699985157,212.16283419984396,212.16283419984396,212.81430549989452,g,1.0,0.6425572999287397,,,,,sub-217,1,stroop_test,59.98307280158803,
,,,,11.0,11.0,0.0,,,,,,,,,,,,,rot,yellow,g,0.0,r,0.0,0.6878098999150097,,,,,,,,,,0.0,11.0,11.0,3.0,212.82940969988704,,,,,,,,,,,,,,,,,212.81476500001736,212.9297593999654,213.73026879993267,213.7136863998603,,,,,,,,,,,,,,,,,,,,,,,,,,,,,,,,,,,213.7181278998032,213.73026879993267,213.73026879993267,214.43058799998835,r,0.0,0.6878098999150097,,,,,sub-217,1,stroop_test,59.98307280158803,
,,,,12.0,0.0,1.0,,,,,,,,,,,,,rot,red,r,1.0,r,1.0,0.8654160001315176,,,,,,,,,,1.0,0.0,12.0,1.0,214.44583029998464,,,,,,,,,,,,,,,,,214.43104619998485,214.52910369983877,215.32975219981745,215.3131669999566,,,,,,,,,,,,,,,,,,,,,,,,,,,,,,,,,,,215.3137767999433,215.32975219981745,215.32975219981745,216.19887820002623,r,1.0,0.8654160001315176,,,,,sub-217,1,stroop_test,59.98307280158803,
,,,,13.0,1.0,1.0,,,,,,,,,,,,,blau,blue,b,1.0,b,1.0,0.5849578999914229,,,,,,,,,,1.0,1.0,13.0,6.0,216.2125497998204,,,,,,,,,,,,,,,,,216.1997441998683,217.01346939988437,217.81266119983047,217.797151299892,,,,,,,,,,,,,,,,,,,,,,,,,,,,,,,,,,,217.80186240002516,217.81266119983047,217.81266119983047,218.4139651998412,b,1.0,0.5849578999914229,,,,,sub-217,1,stroop_test,59.98307280158803,
,,,,14.0,2.0,1.0,,,,,,,,,,,,,gelb,yellow,g,1.0,g,1.0,0.6176827000454068,,,,,,,,,,1.0,2.0,14.0,11.0,218.4306573998183,,,,,,,,,,,,,,,,,218.41468609985893,219.2291897998657,220.02897650003436,220.01334899989888,,,,,,,,,,,,,,,,,,,,,,,,,,,,,,,,,,,220.0178890998941,220.02897650003436,220.02897650003436,220.66372839990072,g,1.0,0.6176827000454068,,,,,sub-217,1,stroop_test,59.98307280158803,
,,,,15.0,3.0,1.0,,,,,,,,,,,,,blau,blue,b,1.0,b,1.0,0.5955006000585854,,,,,,,,,,1.0,3.0,15.0,5.0,220.6789245000109,,,,,,,,,,,,,,,,,220.66421830002216,221.862733299844,222.66224500001408,222.64651829982176,,,,,,,,,,,,,,,,,,,,,,,,,,,,,,,,,,,222.65042079985145,222.66224500001408,222.66224500001408,223.2641972999554,b,1.0,0.5955006000585854,,,,,sub-217,1,stroop_test,59.98307280158803,
,,,,16.0,4.0,1.0,,,,,,,,,,,,,gelb,yellow,g,1.0,g,1.0,0.8382359000388533,,,,,,,,,,1.0,4.0,16.0,10.0,223.2789218998514,,,,,,,,,,,,,,,,,223.2646922999993,224.07919749990103,224.87939099990763,224.86309989984147,,,,,,,,,,,,,,,,,,,,,,,,,,,,,,,,,,,224.86768949986435,224.87939099990763,224.87939099990763,225.7302378998138,g,1.0,0.8382359000388533,,,,,sub-217,1,stroop_test,59.98307280158803,
,,,,17.0,5.0,1.0,,,,,,,,,,,,,rot,yellow,g,0.0,g,1.0,0.8451894000172615,,,,,,,,,,1.0,5.0,17.0,3.0,225.74583249981515,,,,,,,,,,,,,,,,,225.730725399917,225.8454162999988,226.64576260000467,226.6297632998321,,,,,,,,,,,,,,,,,,,,,,,,,,,,,,,,,,,226.63455639989115,226.64576260000467,226.64576260000467,227.49657179997303,g,1.0,0.8451894000172615,,,,,sub-217,1,stroop_test,59.98307280158803,
,,,,18.0,6.0,1.0,,,,,,,,,,,,,gelb,blue,b,0.0,b,1.0,0.5480331000871956,,,,,,,,,,1.0,6.0,18.0,9.0,227.51188099989668,,,,,,,,,,,,,,,,,227.49731989996508,228.7121706998441,229.5116149999667,229.49546379991807,,,,,,,,,,,,,,,,,,,,,,,,,,,,,,,,,,,229.49724599998444,229.5116149999667,229.5116149999667,230.06491279997863,b,1.0,0.5480331000871956,,,,,sub-217,1,stroop_test,59.98307280158803,
,,,,19.0,7.0,1.0,,,,,,,,,,,,,rot,blue,b,0.0,b,1.0,0.578371100127697,,,,,,,,,,1.0,7.0,19.0,2.0,230.0786766000092,,,,,,,,,,,,,,,,,230.06540409987792,231.27864179993048,232.0789673998952,232.06260329997167,,,,,,,,,,,,,,,,,,,,,,,,,,,,,,,,,,,232.06714549986648,232.0789673998952,232.0789673998952,232.664084199816,b,1.0,0.578371100127697,,,,,sub-217,1,stroop_test,59.98307280158803,
,,,,20.0,8.0,1.0,,,,,,,,,,,,,gelb,red,r,0.0,r,1.0,0.8995248000137508,,,,,,,,,,1.0,8.0,20.0,8.0,232.67946819984357,,,,,,,,,,,,,,,,,232.6649775998667,233.47864099987785,234.27830070001076,234.26254879985936,,,,,,,,,,,,,,,,,,,,,,,,,,,,,,,,,,,234.26720030000436,234.27830070001076,234.27830070001076,235.180329099996,r,1.0,0.8995248000137508,,,,,sub-217,1,stroop_test,59.98307280158803,
,,,,21.0,9.0,1.0,,,,,,,,,,,,,rot,red,r,1.0,r,1.0,0.6447569001466036,,,,,,,,,,1.0,9.0,21.0,0.0,235.19575369986703,,,,,,,,,,,,,,,,,235.1808344000019,235.9950506000314,236.79497779998928,236.77974949986677,,,,,,,,,,,,,,,,,,,,,,,,,,,,,,,,,,,236.7847287999466,236.79497779998928,236.79497779998928,237.4468153000344,r,1.0,0.6447569001466036,,,,,sub-217,1,stroop_test,59.98307280158803,
,,,,22.0,10.0,1.0,,,,,,,,,,,,,blau,red,r,0.0,r,1.0,0.6523407001513988,,,,,,,,,,1.0,10.0,22.0,4.0,237.4617055999115,,,,,,,,,,,,,,,,,237.44737279997207,237.5615838000085,238.36152389994825,238.34590839990412,,,,,,,,,,,,,,,,,,,,,,,,,,,,,,,,,,,238.35015429998748,238.36152389994825,238.36152389994825,239.0295390998945,r,1.0,0.6523407001513988,,,,,sub-217,1,stroop_test,59.98307280158803,
,,,,23.0,11.0,1.0,,,,,,,,,,,,,blau,yellow,g,0.0,g,1.0,0.6058883999940008,,,,,,,,,,1.0,11.0,23.0,7.0,239.04476620000787,,,,,,,,,,,,,,,,,239.03004939993843,239.845322499983,240.64459559996607,240.6291278998833,,,,,,,,,,,,,,,,,,,,,,,,,,,,,,,,,,,240.6297667999752,240.64459559996607,240.64459559996607,241.26296860002915,g,1.0,0.6058883999940008,,,,,sub-217,1,stroop_test,59.98307280158803,
,,,,24.0,0.0,2.0,,,,,,,,,,,,,gelb,blue,b,0.0,b,1.0,0.7363168001174927,,,,,,,,,,2.0,0.0,24.0,9.0,241.27801109990105,,,,,,,,,,,,,,,,,241.2635033999104,241.3782678998541,242.17831889982332,242.16273999982516,,,,,,,,,,,,,,,,,,,,,,,,,,,,,,,,,,,242.16850689984855,242.17831889982332,242.17831889982332,242.9296601000242,b,1.0,0.7363168001174927,,,,,sub-217,1,stroop_test,59.98307280158803,
,,,,25.0,1.0,2.0,,,,,,,,,,,,,blau,blue,b,1.0,b,1.0,0.5846936998423189,,,,,,,,,,2.0,1.0,25.0,6.0,242.94507869984955,,,,,,,,,,,,,,,,,242.93042190000412,243.29462079983205,244.09463829989545,244.0790591998957,,,,,,,,,,,,,,,,,,,,,,,,,,,,,,,,,,,244.0838479998056,244.09463829989545,244.09463829989545,244.6960448999889,b,1.0,0.5846936998423189,,,,,sub-217,1,stroop_test,59.98307280158803,
,,,,26.0,2.0,2.0,,,,,,,,,,,,,rot,blue,b,0.0,b,1.0,0.6455298999790102,,,,,,,,,,2.0,2.0,26.0,2.0,244.71127879992127,,,,,,,,,,,,,,,,,244.69652380002665,244.7947271999437,245.5945435999893,245.57919549988583,,,,,,,,,,,,,,,,,,,,,,,,,,,,,,,,,,,245.58453019987792,245.5945435999893,245.5945435999893,246.24703409988436,b,1.0,0.6455298999790102,,,,,sub-217,1,stroop_test,59.98307280158803,
,,,,27.0,3.0,2.0,,,,,,,,,,,,,gelb,red,r,0.0,r,1.0,0.8470387998968363,,,,,,,,,,2.0,3.0,27.0,8.0,246.261397899827,,,,,,,,,,,,,,,,,246.24748809984885,247.46120479982343,248.2610759998206,248.24542930000464,,,,,,,,,,,,,,,,,,,,,,,,,,,,,,,,,,,248.25040789996277,248.2610759998206,248.2610759998206,249.1130249998532,r,1.0,0.8470387998968363,,,,,sub-217,1,stroop_test,59.98307280158803,
,,,,28.0,4.0,2.0,,,,,,,,,,,,,rot,red,r,1.0,r,1.0,0.6710741999559104,,,,,,,,,,2.0,4.0,28.0,0.0,249.12767269997855,,,,,,,,,,,,,,,,,249.11354129994288,249.47772610001263,250.27767909993415,250.26200259989128,,,,,,,,,,,,,,,,,,,,,,,,,,,,,,,,,,,250.2665394998621,250.27767909993415,250.27767909993415,250.96254360000603,r,1.0,0.6710741999559104,,,,,sub-217,1,stroop_test,59.98307280158803,
,,,,29.0,5.0,2.0,,,,,,,,,,,,,rot,red,r,1.0,r,1.0,0.4908320000395179,,,,,,,,,,2.0,5.0,29.0,1.0,250.9786488998216,,,,,,,,,,,,,,,,,250.96347289998084,251.3279389999807,252.12785729998723,252.11240640003237,,,,,,,,,,,,,,,,,,,,,,,,,,,,,,,,,,,252.11314399982805,252.12785729998723,252.12785729998723,252.62903849990107,r,1.0,0.4908320000395179,,,,,sub-217,1,stroop_test,59.98307280158803,
,,,,30.0,6.0,2.0,,,,,,,,,,,,,rot,yellow,g,0.0,g,1.0,0.6837446000427008,,,,,,,,,,2.0,6.0,30.0,3.0,252.6443113998976,,,,,,,,,,,,,,,,,252.6297470999416,252.74413879984056,253.54413799988103,253.5284882998094,,,,,,,,,,,,,,,,,,,,,,,,,,,,,,,,,,,253.52906899992377,253.54413799988103,253.54413799988103,254.229260499822,g,1.0,0.6837446000427008,,,,,sub-217,1,stroop_test,59.98307280158803,
,,,,31.0,7.0,2.0,,,,,,,,,,,,,gelb,yellow,g,1.0,g,1.0,0.5310384000185877,,,,,,,,,,2.0,7.0,31.0,10.0,254.24386619986035,,,,,,,,,,,,,,,,,254.2294815999921,254.59376179985705,255.3938531000167,255.3786592998076,,,,,,,,,,,,,,,,,,,,,,,,,,,,,,,,,,,255.384192999918,255.3938531000167,255.3938531000167,255.92974870000037,g,1.0,0.5310384000185877,,,,,sub-217,1,stroop_test,59.98307280158803,
,,,,32.0,8.0,2.0,,,,,,,,,,,,,gelb,yellow,g,1.0,g,1.0,0.3662599998060614,,,,,,,,,,2.0,8.0,32.0,11.0,255.9443779999856,,,,,,,,,,,,,,,,,255.9303009998985,256.74400359997526,257.5439766999334,257.5281452999916,,,,,,,,,,,,,,,,,,,,,,,,,,,,,,,,,,,257.52877520001493,257.5439766999334,257.5439766999334,257.9138352998998,g,1.0,0.3662599998060614,,,,,sub-217,1,stroop_test,59.98307280158803,
,,,,33.0,9.0,2.0,,,,,,,,,,,,,blau,yellow,g,0.0,g,1.0,0.4920117000583559,,,,,,,,,,2.0,9.0,33.0,7.0,257.92740249983035,,,,,,,,,,,,,,,,,257.9143430998083,258.2773884998169,259.077287199907,259.06202870002016,,,,,,,,,,,,,,,,,,,,,,,,,,,,,,,,,,,259.0657505998388,259.077287199907,259.077287199907,259.5790774000343,g,1.0,0.4920117000583559,,,,,sub-217,1,stroop_test,59.98307280158803,
,,,,34.0,10.0,2.0,,,,,,,,,,,,,blau,blue,b,1.0,b,1.0,0.588281000033021,,,,,,,,,,2.0,10.0,34.0,5.0,259.59422309999354,,,,,,,,,,,,,,,,,259.5795711998362,259.6783052999526,260.4775229999796,260.46219319989905,,,,,,,,,,,,,,,,,,,,,,,,,,,,,,,,,,,260.46281599998474,260.4775229999796,260.4775229999796,261.07880789996125,b,1.0,0.588281000033021,,,,,sub-217,1,stroop_test,59.98307280158803,
,,,,35.0,11.0,2.0,,,,,,,,,,,,,blau,red,r,0.0,r,1.0,0.5980307999998331,,,,,,,,,,2.0,11.0,35.0,4.0,261.09490629984066,,,,,,,,,,,,,,,,,261.0795602998696,261.19437289983034,261.9937942000106,261.9787053000182,,,,,,,,,,,,,,,,,,,,,,,,,,,,,,,,,,,261.97955419984646,261.9937942000106,261.9937942000106,262.5957539000083,r,1.0,0.5980307999998331,,,,,sub-217,1,stroop_test,59.98307280158803,
,,,,36.0,0.0,3.0,,,,,,,,,,,,,blau,yellow,g,0.0,g,1.0,0.6816987998317927,,,,,,,,,,3.0,0.0,36.0,7.0,262.61070109996945,,,,,,,,,,,,,,,,,262.596302599879,262.7106443999801,263.51054449984804,263.4948683998082,,,,,,,,,,,,,,,,,,,,,,,,,,,,,,,,,,,263.4955027999822,263.51054449984804,263.51054449984804,264.1955456000287,g,1.0,0.6816987998317927,,,,,sub-217,1,stroop_test,59.98307280158803,
,,,,37.0,1.0,3.0,,,,,,,,,,,,,gelb,yellow,g,1.0,g,1.0,0.5881546000018716,,,,,,,,,,3.0,1.0,37.0,11.0,264.2104207000229,,,,,,,,,,,,,,,,,264.1962641000282,264.560486999806,265.3606936999131,265.3448601998389,,,,,,,,,,,,,,,,,,,,,,,,,,,,,,,,,,,265.3491797999013,265.3606936999131,265.3606936999131,265.9624962999951,g,1.0,0.5881546000018716,,,,,sub-217,1,stroop_test,59.98307280158803,
,,,,38.0,2.0,3.0,,,,,,,,,,,,,rot,yellow,g,0.0,g,1.0,0.6630573000293225,,,,,,,,,,3.0,2.0,38.0,3.0,265.9774767998606,,,,,,,,,,,,,,,,,265.9629826999735,266.777664499823,267.5767979999073,267.56089209998026,,,,,,,,,,,,,,,,,,,,,,,,,,,,,,,,,,,267.5653313000221,267.5767979999073,267.5767979999073,268.2456422999967,g,1.0,0.6630573000293225,,,,,sub-217,1,stroop_test,59.98307280158803,
,,,,39.0,3.0,3.0,,,,,,,,,,,,,blau,blue,b,1.0,b,1.0,0.6086452000308782,,,,,,,,,,3.0,3.0,39.0,5.0,268.2608878000174,,,,,,,,,,,,,,,,,268.24613749980927,268.3604641999118,269.16038999985904,269.1446815999225,,,,,,,,,,,,,,,,,,,,,,,,,,,,,,,,,,,269.14842989994213,269.16038999985904,269.16038999985904,269.7787830999587,b,1.0,0.6086452000308782,,,,,sub-217,1,stroop_test,59.98307280158803,
,,,,40.0,4.0,3.0,,,,,,,,,,,,,blau,blue,b,1.0,b,1.0,0.507907000137493,,,,,,,,,,3.0,4.0,40.0,6.0,269.79376779985614,,,,,,,,,,,,,,,,,269.7793199999724,270.14370170002803,270.9434134999756,270.9279829999432,,,,,,,,,,,,,,,,,,,,,,,,,,,,,,,,,,,270.92860269988887,270.9434134999756,270.9434134999756,271.4617280999664,b,1.0,0.507907000137493,,,,,sub-217,1,stroop_test,59.98307280158803,
,,,,41.0,5.0,3.0,,,,,,,,,,,,,blau,red,r,0.0,r,1.0,0.5052233999595046,,,,,,,,,,3.0,5.0,41.0,4.0,271.47687489981763,,,,,,,,,,,,,,,,,271.46218619984575,271.826645599911,272.62717140000314,272.6114656999707,,,,,,,,,,,,,,,,,,,,,,,,,,,,,,,,,,,272.6121725998819,272.62717140000314,272.62717140000314,273.1451872999314,r,1.0,0.5052233999595046,,,,,sub-217,1,stroop_test,59.98307280158803,
,,,,42.0,6.0,3.0,,,,,,,,,,,,,rot,red,r,1.0,r,1.0,0.5892825999762863,,,,,,,,,,3.0,6.0,42.0,0.0,273.160234299954,,,,,,,,,,,,,,,,,273.14566379995085,273.51027620001696,274.3099998999387,274.2946553998627,,,,,,,,,,,,,,,,,,,,,,,,,,,,,,,,,,,274.29991359985434,274.3099998999387,274.3099998999387,274.9113970999606,r,1.0,0.5892825999762863,,,,,sub-217,1,stroop_test,59.98307280158803,
,,,,43.0,7.0,3.0,,,,,,,,,,,,,rot,blue,b,0.0,b,1.0,0.955098999897018,,,,,,,,,,3.0,7.0,43.0,2.0,274.92678029998206,,,,,,,,,,,,,,,,,274.91187349986285,275.0266145998612,275.82629569992423,275.8107767999172,,,,,,,,,,,,,,,,,,,,,,,,,,,,,,,,,,,275.8114010998979,275.82629569992423,275.82629569992423,276.7950267000124,b,1.0,0.955098999897018,,,,,sub-217,1,stroop_test,59.98307280158803,
,,,,44.0,8.0,3.0,,,,,,,,,,,,,gelb,red,r,0.0,r,1.0,0.9850309998728336,,,,,,,,,,3.0,8.0,44.0,8.0,276.81018169992603,,,,,,,,,,,,,,,,,276.7955155998934,277.60981019982137,278.41013569990173,278.3949199998751,,,,,,,,,,,,,,,,,,,,,,,,,,,,,,,,,,,278.400102699874,278.41013569990173,278.41013569990173,279.41155239986256,r,1.0,0.9850309998728336,,,,,sub-217,1,stroop_test,59.98307280158803,
,,,,45.0,9.0,3.0,,,,,,,,,,,,,gelb,blue,b,0.0,b,1.0,0.6023122000042349,,,,,,,,,,3.0,9.0,45.0,9.0,279.42710209987126,,,,,,,,,,,,,,,,,279.4120674999431,280.22618849994615,281.02594619989395,281.01050959993154,,,,,,,,,,,,,,,,,,,,,,,,,,,,,,,,,,,281.01124329981394,281.02594619989395,281.02594619989395,281.64463849994354,b,1.0,0.6023122000042349,,,,,sub-217,1,stroop_test,59.98307280158803,
,,,,46.0,10.0,3.0,,,,,,,,,,,,,rot,red,r,1.0,r,1.0,0.6496613998897374,,,,,,,,,,3.0,10.0,46.0,1.0,281.6595503999852,,,,,,,,,,,,,,,,,281.64513859990984,282.0094796998892,282.8104701000266,282.7942548999563,,,,,,,,,,,,,,,,,,,,,,,,,,,,,,,,,,,282.79847759986296,282.8104701000266,282.8104701000266,283.46329479990527,r,1.0,0.6496613998897374,,,,,sub-217,1,stroop_test,59.98307280158803,
,,,,47.0,11.0,3.0,,,,,,,,,,,,,gelb,yellow,g,1.0,g,1.0,0.7217492000199854,,,,,,,,,,3.0,11.0,47.0,10.0,283.47678949986584,,,,,,,,,,,,,,,,,283.4638930999208,283.5770167999435,284.37617790000513,284.3609021999873,,,,,,,,,,,,,,,,,,,,,,,,,,,,,,,,,,,284.3654267999809,284.37617790000513,284.37617790000513,285.1113809000235,g,1.0,0.7217492000199854,,,,,sub-217,1,stroop_test,59.98307280158803,
,,,,48.0,0.0,4.0,,,,,,,,,,,,,blau,yellow,g,0.0,g,1.0,0.9095870999153703,,,,,,,,,,4.0,0.0,48.0,7.0,285.12637159996666,,,,,,,,,,,,,,,,,285.1119343999308,285.4767988999374,286.2760683998931,286.2613960998133,,,,,,,,,,,,,,,,,,,,,,,,,,,,,,,,,,,286.2662002998404,286.2760683998931,286.2760683998931,287.1945724999532,g,1.0,0.9095870999153703,,,,,sub-217,1,stroop_test,59.98307280158803,
,,,,49.0,1.0,4.0,,,,,,,,,,,,,rot,yellow,g,0.0,r,0.0,0.8500198000110686,,,,,,,,,,4.0,1.0,49.0,3.0,287.2093125998508,,,,,,,,,,,,,,,,,287.1950293998234,287.3101364998147,288.1098229000345,288.0934989999514,,,,,,,,,,,,,,,,,,,,,,,,,,,,,,,,,,,288.09773009992205,288.1098229000345,288.1098229000345,288.96225239988416,r,0.0,0.8500198000110686,,,,,sub-217,1,stroop_test,59.98307280158803,
,,,,50.0,2.0,4.0,,,,,,,,,,,,,gelb,yellow,g,1.0,g,1.0,0.8518989998847246,,,,,,,,,,4.0,2.0,50.0,11.0,288.9776918999851,,,,,,,,,,,,,,,,,288.96275329985656,290.175810799934,290.9759561999236,290.96065789996646,,,,,,,,,,,,,,,,,,,,,,,,,,,,,,,,,,,290.96596129983664,290.9759561999236,290.9759561999236,291.8443460999988,g,1.0,0.8518989998847246,,,,,sub-217,1,stroop_test,59.98307280158803,
,,,,51.0,3.0,4.0,,,,,,,,,,,,,gelb,yellow,g,1.0,g,1.0,0.5042646999936551,,,,,,,,,,4.0,3.0,51.0,10.0,291.8593093999661,,,,,,,,,,,,,,,,,291.845073599834,293.06010299990885,293.8754245999735,293.8596549998037,,,,,,,,,,,,,,,,,,,,,,,,,,,,,,,,,,,293.86025819997303,293.8754245999735,293.8754245999735,294.3938866998069,g,1.0,0.5042646999936551,,,,,sub-217,1,stroop_test,59.98307280158803,
,,,,52.0,4.0,4.0,,,,,,,,,,,,,rot,red,r,1.0,r,1.0,0.7619711000006646,,,,,,,,,,4.0,4.0,52.0,1.0,294.4093747998122,,,,,,,,,,,,,,,,,294.3945137998089,295.60930250003,296.40905339992605,296.3933286999818,,,,,,,,,,,,,,,,,,,,,,,,,,,,,,,,,,,296.3949976998847,296.40905339992605,296.40905339992605,297.1777504000347,r,1.0,0.7619711000006646,,,,,sub-217,1,stroop_test,59.98307280158803,
,,,,53.0,5.0,4.0,,,,,,,,,,,,,gelb,blue,b,0.0,b,1.0,0.7683729999698699,,,,,,,,,,4.0,5.0,53.0,9.0,297.19245760003105,,,,,,,,,,,,,,,,,297.1782147998456,297.292223099852,298.09218459995463,298.0764656998217,,,,,,,,,,,,,,,,,,,,,,,,,,,,,,,,,,,298.08077699993737,298.09218459995463,298.09218459995463,298.87839249987155,b,1.0,0.7683729999698699,,,,,sub-217,1,stroop_test,59.98307280158803,
,,,,54.0,6.0,4.0,,,,,,,,,,,,,blau,blue,b,1.0,b,1.0,0.7399983000941575,,,,,,,,,,4.0,6.0,54.0,6.0,298.8926416998729,,,,,,,,,,,,,,,,,298.8789150000084,298.99276189995,299.7921003999654,299.77715629991144,,,,,,,,,,,,,,,,,,,,,,,,,,,,,,,,,,,299.7816250999458,299.7921003999654,299.7921003999654,300.5437148998026,b,1.0,0.7399983000941575,,,,,sub-217,1,stroop_test,59.98307280158803,
,,,,55.0,7.0,4.0,,,,,,,,,,,,,rot,red,r,1.0,r,1.0,1.351724499836564,,,,,,,,,,4.0,7.0,55.0,0.0,300.5591527998913,,,,,,,,,,,,,,,,,300.544200199889,300.6593086000066,301.4584681999404,301.44315980002284,,,,,,,,,,,,,,,,,,,,,,,,,,,,,,,,,,,301.4478329999838,301.4584681999404,301.4584681999404,302.82704879995435,r,1.0,1.351724499836564,,,,,sub-217,1,stroop_test,59.98307280158803,
,,,,56.0,8.0,4.0,,,,,,,,,,,,,blau,blue,b,1.0,b,1.0,0.8178133999463171,,,,,,,,,,4.0,8.0,56.0,5.0,302.8422449999489,,,,,,,,,,,,,,,,,302.82754580001347,304.0421643999871,304.8421522998251,304.82619209983386,,,,,,,,,,,,,,,,,,,,,,,,,,,,,,,,,,,304.8299745998811,304.8421522998251,304.8421522998251,305.6774681999814,b,1.0,0.8178133999463171,,,,,sub-217,1,stroop_test,59.98307280158803,
,,,,57.0,9.0,4.0,,,,,,,,,,,,,rot,blue,b,0.0,b,1.0,1.087250899989158,,,,,,,,,,4.0,9.0,57.0,2.0,305.69172020000406,,,,,,,,,,,,,,,,,305.6779736999888,305.79169310000725,306.5919947999064,306.5759915998205,,,,,,,,,,,,,,,,,,,,,,,,,,,,,,,,,,,306.58114010002464,306.5919947999064,306.5919947999064,307.6938038999215,b,1.0,1.087250899989158,,,,,sub-217,1,stroop_test,59.98307280158803,
,,,,58.0,10.0,4.0,,,,,,,,,,,,,blau,red,r,0.0,r,1.0,1.303734399843961,,,,,,,,,,4.0,10.0,58.0,4.0,307.7083842998836,,,,,,,,,,,,,,,,,307.6942818998359,308.5082918999251,309.30826369998977,309.29261339991353,,,,,,,,,,,,,,,,,,,,,,,,,,,,,,,,,,,309.29653029982,309.30826369998977,309.30826369998977,310.6265341998078,r,1.0,1.303734399843961,,,,,sub-217,1,stroop_test,59.98307280158803,
,,,,59.0,11.0,4.0,,,,,,,,,,,,,gelb,red,r,0.0,r,1.0,1.0130945001728833,,,,,,,,,,4.0,11.0,59.0,8.0,310.64169909991324,,,,,,,,,,,,,,,,,310.6269871999976,311.441404099809,312.2413445999846,312.22552899993025,,,,,,,,,,,,,,,,,,,,,,,,,,,,,,,,,,,312.2303636998404,312.2413445999846,312.2413445999846,313.25991009990685,r,1.0,1.0130945001728833,,,,,sub-217,1,stroop_test,59.98307280158803,
,,,,60.0,0.0,5.0,,,,,,,,,,,,,blau,blue,b,1.0,b,1.0,0.8529182998463511,,,,,,,,,,5.0,0.0,60.0,5.0,313.2746681999415,,,,,,,,,,,,,,,,,313.26036079996265,314.07576469983906,314.89166489988565,314.8764736999292,,,,,,,,,,,,,,,,,,,,,,,,,,,,,,,,,,,314.88202549982816,314.89166489988565,314.89166489988565,315.75931059988216,b,1.0,0.8529182998463511,,,,,sub-217,1,stroop_test,59.98307280158803,
,,,,61.0,1.0,5.0,,,,,,,,,,,,,rot,red,r,1.0,r,1.0,0.9721830999478698,,,,,,,,,,5.0,1.0,61.0,1.0,315.7748663998209,,,,,,,,,,,,,,,,,315.75978409987874,315.8744170998689,316.67472240002826,316.658869799925,,,,,,,,,,,,,,,,,,,,,,,,,,,,,,,,,,,316.6627678999212,316.67472240002826,316.67472240002826,317.6595906999428,r,1.0,0.9721830999478698,,,,,sub-217,1,stroop_test,59.98307280158803,
,,,,62.0,2.0,5.0,,,,,,,,,,,,,blau,yellow,g,0.0,g,1.0,0.6727687001693994,,,,,,,,,,5.0,2.0,62.0,7.0,317.6746461999137,,,,,,,,,,,,,,,,,317.6600377999712,318.87455199984834,319.67479559988715,319.65945079992525,,,,,,,,,,,,,,,,,,,,,,,,,,,,,,,,,,,319.6636206000112,319.67479559988715,319.67479559988715,320.35973909986205,g,1.0,0.6727687001693994,,,,,sub-217,1,stroop_test,59.98307280158803,
,,,,63.0,3.0,5.0,,,,,,,,,,,,,gelb,red,r,0.0,r,1.0,0.7498748002108186,,,,,,,,,,5.0,3.0,63.0,8.0,320.37455950002186,,,,,,,,,,,,,,,,,320.3602263999637,321.1745654998813,321.97581569990143,321.9591315998696,,,,,,,,,,,,,,,,,,,,,,,,,,,,,,,,,,,321.963792799972,321.97581569990143,321.97581569990143,322.7425913999323,r,1.0,0.7498748002108186,,,,,sub-217,1,stroop_test,59.98307280158803,
,,,,64.0,4.0,5.0,,,,,,,,,,,,,rot,yellow,g,0.0,g,1.0,1.0467364999931306,,,,,,,,,,5.0,4.0,64.0,3.0,322.7578357998282,,,,,,,,,,,,,,,,,322.7430803999305,323.10741829988547,323.90790360001847,323.8921366999857,,,,,,,,,,,,,,,,,,,,,,,,,,,,,,,,,,,323.8972376999445,323.90790360001847,323.90790360001847,324.95978319994174,g,1.0,1.0467364999931306,,,,,sub-217,1,stroop_test,59.98307280158803,
,,,,65.0,5.0,5.0,,,,,,,,,,,,,rot,red,r,1.0,r,1.0,1.2599710000213236,,,,,,,,,,5.0,5.0,65.0,0.0,324.9741607999895,,,,,,,,,,,,,,,,,324.9602714998182,326.17480259994045,326.9746636999771,326.9586080999579,,,,,,,,,,,,,,,,,,,,,,,,,,,,,,,,,,,326.9593358000275,326.9746636999771,326.9746636999771,328.2424590999726,r,1.0,1.2599710000213236,,,,,sub-217,1,stroop_test,59.98307280158803,
,,,,66.0,6.0,5.0,,,,,,,,,,,,,blau,blue,b,1.0,b,1.0,0.6703709999565035,,,,,,,,,,5.0,6.0,66.0,6.0,328.2575599998236,,,,,,,,,,,,,,,,,328.242927899817,329.45726439985447,330.257822799962,330.2418951999862,,,,,,,,,,,,,,,,,,,,,,,,,,,,,,,,,,,330.2467381998431,330.257822799962,330.257822799962,330.9425280999858,b,1.0,0.6703709999565035,,,,,sub-217,1,stroop_test,59.98307280158803,
,,,,67.0,7.0,5.0,,,,,,,,,,,,,rot,blue,b,0.0,b,1.0,0.7559348000213504,,,,,,,,,,5.0,7.0,67.0,2.0,330.9576083000284,,,,,,,,,,,,,,,,,330.9430368000176,332.1568912998773,332.95699899992906,332.9415725998115,,,,,,,,,,,,,,,,,,,,,,,,,,,,,,,,,,,332.946609799983,332.95699899992906,332.95699899992906,333.725579299964,b,1.0,0.7559348000213504,,,,,sub-217,1,stroop_test,59.98307280158803,
,,,,68.0,8.0,5.0,,,,,,,,,,,,,gelb,yellow,g,1.0,g,1.0,1.2141053001396358,,,,,,,,,,5.0,8.0,68.0,10.0,333.7404731998686,,,,,,,,,,,,,,,,,333.72608989989385,334.0907279998064,334.89047009986825,334.8760004998185,,,,,,,,,,,,,,,,,,,,,,,,,,,,,,,,,,,334.8816755998414,334.89047009986825,334.89047009986825,336.10889819986187,g,1.0,1.2141053001396358,,,,,sub-217,1,stroop_test,59.98307280158803,
,,,,69.0,9.0,5.0,,,,,,,,,,,,,gelb,yellow,g,1.0,g,1.0,0.5831242999993265,,,,,,,,,,5.0,9.0,69.0,11.0,336.12368829990737,,,,,,,,,,,,,,,,,336.10944079980254,336.47376649989747,337.27352219983004,337.25834889989346,,,,,,,,,,,,,,,,,,,,,,,,,,,,,,,,,,,337.2589857999701,337.27352219983004,337.27352219983004,337.85913320002146,g,1.0,0.5831242999993265,,,,,sub-217,1,stroop_test,59.98307280158803,
,,,,70.0,10.0,5.0,,,,,,,,,,,,,blau,red,r,0.0,r,1.0,0.964653099887073,,,,,,,,,,5.0,10.0,70.0,4.0,337.8734992998652,,,,,,,,,,,,,,,,,337.85967029980384,337.97409979999065,338.77381969988346,338.7582802998368,,,,,,,,,,,,,,,,,,,,,,,,,,,,,,,,,,,338.7626051998232,338.77381969988346,338.77381969988346,339.74301679991186,r,1.0,0.964653099887073,,,,,sub-217,1,stroop_test,59.98307280158803,
,,,,71.0,11.0,5.0,,,,,,,,,,,,,gelb,blue,b,0.0,b,1.0,0.6344381000380963,,,,,,,,,,5.0,11.0,71.0,9.0,339.7568995000329,,,,,,,,,,,,,,,,,339.7435097999405,340.5569276998285,341.3569139998872,341.3413095998112,,,,,,,,,,,,,,,,,,,,,,,,,,,,,,,,,,,341.34580049989745,341.3569139998872,341.3569139998872,342.0080305999145,b,1.0,0.6344381000380963,,,,,sub-217,1,stroop_test,59.98307280158803,
,,,,72.0,0.0,6.0,,,,,,,,,,,,,rot,blue,b,0.0,b,1.0,0.5195548997726291,,,,,,,,,,6.0,0.0,72.0,2.0,342.02371239988133,,,,,,,,,,,,,,,,,342.008512099972,342.8234548999462,343.62318099988624,343.6074641998857,,,,,,,,,,,,,,,,,,,,,,,,,,,,,,,,,,,343.6148378998041,343.62318099988624,343.62318099988624,344.15950850001536,b,1.0,0.5195548997726291,,,,,sub-217,1,stroop_test,59.98307280158803,
,,,,73.0,1.0,6.0,,,,,,,,,,,,,rot,red,r,1.0,r,1.0,0.9099183999933302,,,,,,,,,,6.0,1.0,73.0,1.0,344.1738917999901,,,,,,,,,,,,,,,,,344.1601262998301,344.2733131998684,345.0733910999261,345.0581225999631,,,,,,,,,,,,,,,,,,,,,,,,,,,,,,,,,,,345.05883989995345,345.0733910999261,345.0733910999261,345.9914528999944,r,1.0,0.9099183999933302,,,,,sub-217,1,stroop_test,59.98307280158803,
,,,,74.0,2.0,6.0,,,,,,,,,,,,,blau,blue,b,1.0,b,1.0,0.5418432001024485,,,,,,,,,,6.0,2.0,74.0,6.0,346.00686979992315,,,,,,,,,,,,,,,,,345.99193849996664,347.20646879985,348.00664159981534,347.9908327998128,,,,,,,,,,,,,,,,,,,,,,,,,,,,,,,,,,,347.99480719980784,348.00664159981534,348.00664159981534,348.55821789987385,b,1.0,0.5418432001024485,,,,,sub-217,1,stroop_test,59.98307280158803,
,,,,75.0,3.0,6.0,,,,,,,,,,,,,gelb,yellow,g,1.0,g,1.0,1.487188600003719,,,,,,,,,,6.0,3.0,75.0,11.0,348.5731293000281,,,,,,,,,,,,,,,,,348.55873019993305,348.9234809000045,349.7230811000336,349.7080959000159,,,,,,,,,,,,,,,,,,,,,,,,,,,,,,,,,,,349.71282529993914,349.7230811000336,349.7230811000336,351.22488450002857,g,1.0,1.487188600003719,,,,,sub-217,1,stroop_test,59.98307280158803,
,,,,76.0,4.0,6.0,,,,,,,,,,,,,blau,red,r,0.0,r,1.0,0.8925484998617321,,,,,,,,,,6.0,4.0,76.0,4.0,351.23980189999565,,,,,,,,,,,,,,,,,351.225487299962,351.5898294998333,352.3893649999518,352.37364609981887,,,,,,,,,,,,,,,,,,,,,,,,,,,,,,,,,,,352.3777683998924,352.3893649999518,352.3893649999518,353.2913008998148,r,1.0,0.8925484998617321,,,,,sub-217,1,stroop_test,59.98307280158803,
,,,,77.0,5.0,6.0,,,,,,,,,,,,,blau,yellow,g,0.0,g,1.0,1.054883799981326,,,,,,,,,,6.0,5.0,77.0,7.0,353.30657189991325,,,,,,,,,,,,,,,,,353.29179269983433,353.406351499958,354.2061647998635,354.1904276998248,,,,,,,,,,,,,,,,,,,,,,,,,,,,,,,,,,,354.1910949999001,354.2061647998635,354.2061647998635,355.2744707998354,g,1.0,1.054883799981326,,,,,sub-217,1,stroop_test,59.98307280158803,
,,,,78.0,6.0,6.0,,,,,,,,,,,,,gelb,yellow,g,1.0,g,1.0,0.4996584001928568,,,,,,,,,,6.0,6.0,78.0,10.0,355.2905891998671,,,,,,,,,,,,,,,,,355.2749593998305,355.37288809986785,356.1730267999228,356.15702779986896,,,,,,,,,,,,,,,,,,,,,,,,,,,,,,,,,,,356.16143419989385,356.1730267999228,356.1730267999228,356.6763478999492,g,1.0,0.4996584001928568,,,,,sub-217,1,stroop_test,59.98307280158803,
,,,,79.0,7.0,6.0,,,,,,,,,,,,,gelb,blue,b,0.0,b,1.0,0.4595031999051571,,,,,,,,,,6.0,7.0,79.0,9.0,356.68975130002946,,,,,,,,,,,,,,,,,356.6768835999537,357.4899775998201,358.2894835998304,358.27396949986,,,,,,,,,,,,,,,,,,,,,,,,,,,,,,,,,,,358.27464269986376,358.2894835998304,358.2894835998304,358.7575234998949,b,1.0,0.4595031999051571,,,,,sub-217,1,stroop_test,59.98307280158803,
,,,,80.0,8.0,6.0,,,,,,,,,,,,,rot,yellow,g,0.0,g,1.0,0.995688599999994,,,,,,,,,,6.0,8.0,80.0,3.0,358.7725940998644,,,,,,,,,,,,,,,,,358.7579930999782,359.57242490001954,360.37288889987394,360.3576549999416,,,,,,,,,,,,,,,,,,,,,,,,,,,,,,,,,,,360.36324819992296,360.37288889987394,360.37288889987394,361.3753337999806,g,1.0,0.995688599999994,,,,,sub-217,1,stroop_test,59.98307280158803,
,,,,81.0,9.0,6.0,,,,,,,,,,,,,rot,red,r,1.0,r,1.0,0.6343142001423985,,,,,,,,,,6.0,9.0,81.0,0.0,361.38930979999714,,,,,,,,,,,,,,,,,361.37594809988514,362.19153159996495,363.0058328998275,362.99147479981184,,,,,,,,,,,,,,,,,,,,,,,,,,,,,,,,,,,362.9921597000212,363.0058328998275,363.0058328998275,363.65699389996007,r,1.0,0.6343142001423985,,,,,sub-217,1,stroop_test,59.98307280158803,
,,,,82.0,10.0,6.0,,,,,,,,,,,,,blau,blue,b,1.0,b,1.0,0.56629170011729,,,,,,,,,,6.0,10.0,82.0,5.0,363.6737736000214,,,,,,,,,,,,,,,,,363.6574772000313,364.8725397998933,365.6722937999293,365.65682989987545,,,,,,,,,,,,,,,,,,,,,,,,,,,,,,,,,,,365.6603937000036,365.6722937999293,365.6722937999293,366.2425732999109,b,1.0,0.56629170011729,,,,,sub-217,1,stroop_test,59.98307280158803,
,,,,83.0,11.0,6.0,,,,,,,,,,,,,gelb,red,r,0.0,r,1.0,0.7047693999484181,,,,,,,,,,6.0,11.0,83.0,8.0,366.2560388999991,,,,,,,,,,,,,,,,,366.2430828998331,366.6068055999931,367.4223081998061,367.40679419995286,,,,,,,,,,,,,,,,,,,,,,,,,,,,,,,,,,,367.4112118999474,367.4223081998061,367.4223081998061,368.1409710999578,r,1.0,0.7047693999484181,,,,,sub-217,1,stroop_test,59.98307280158803,
,,,,84.0,0.0,7.0,,,,,,,,,,,,,gelb,blue,b,0.0,b,1.0,0.6325409000273794,,,,,,,,,,7.0,0.0,84.0,9.0,368.15561929997057,,,,,,,,,,,,,,,,,368.1414514000062,368.5065812999383,369.3222701998893,369.3067232000176,,,,,,,,,,,,,,,,,,,,,,,,,,,,,,,,,,,369.3073476999998,369.3222701998893,369.3222701998893,369.9585802999791,b,1.0,0.6325409000273794,,,,,sub-217,1,stroop_test,59.98307280158803,
,,,,85.0,1.0,7.0,,,,,,,,,,,,,gelb,yellow,g,1.0,g,1.0,1.104180300142616,,,,,,,,,,7.0,1.0,85.0,10.0,369.9721784999128,,,,,,,,,,,,,,,,,369.959078299813,370.7730184998363,371.57241699984297,371.5570036999416,,,,,,,,,,,,,,,,,,,,,,,,,,,,,,,,,,,371.5577769000083,371.57241699984297,371.57241699984297,372.6903730998747,g,1.0,1.104180300142616,,,,,sub-217,1,stroop_test,59.98307280158803,
,,,,86.0,2.0,7.0,,,,,,,,,,,,,blau,blue,b,1.0,b,1.0,0.682562300004065,,,,,,,,,,7.0,2.0,86.0,6.0,372.706003600033,,,,,,,,,,,,,,,,,372.6908572998364,373.0556094998028,373.8556309998967,373.8398723998107,,,,,,,,,,,,,,,,,,,,,,,,,,,,,,,,,,,373.8436821999494,373.8556309998967,373.8556309998967,374.541244099848,b,1.0,0.682562300004065,,,,,sub-217,1,stroop_test,59.98307280158803,
,,,,87.0,3.0,7.0,,,,,,,,,,,,,gelb,red,r,0.0,r,1.0,0.8024949000682682,,,,,,,,,,7.0,3.0,87.0,8.0,374.55542210000567,,,,,,,,,,,,,,,,,374.5417359999847,374.65529249981046,375.4553235999774,375.43988629989326,,,,,,,,,,,,,,,,,,,,,,,,,,,,,,,,,,,375.4443510998972,375.4553235999774,375.4553235999774,376.2735582999885,r,1.0,0.8024949000682682,,,,,sub-217,1,stroop_test,59.98307280158803,
,,,,88.0,4.0,7.0,,,,,,,,,,,,,rot,red,r,1.0,r,1.0,0.6971583999693394,,,,,,,,,,7.0,4.0,88.0,1.0,376.2886957998853,,,,,,,,,,,,,,,,,376.2741439999081,377.071904100012,377.8723326998297,377.8563925998751,,,,,,,,,,,,,,,,,,,,,,,,,,,,,,,,,,,377.8619994998444,377.8723326998297,377.8723326998297,378.5737544000149,r,1.0,0.6971583999693394,,,,,sub-217,1,stroop_test,59.98307280158803,
,,,,89.0,5.0,7.0,,,,,,,,,,,,,blau,blue,b,1.0,b,1.0,0.5393517001066357,,,,,,,,,,7.0,5.0,89.0,5.0,378.58868369995616,,,,,,,,,,,,,,,,,378.5742819998413,378.9389945999719,379.7382803999353,379.7234747998882,,,,,,,,,,,,,,,,,,,,,,,,,,,,,,,,,,,379.7274420999456,379.7382803999353,379.7382803999353,380.2902185998392,b,1.0,0.5393517001066357,,,,,sub-217,1,stroop_test,59.98307280158803,
,,,,90.0,6.0,7.0,,,,,,,,,,,,,blau,red,r,0.0,r,1.0,0.9254250999074428,,,,,,,,,,7.0,6.0,90.0,4.0,380.30532689997926,,,,,,,,,,,,,,,,,380.2906992000062,381.1053362998646,381.9049080000259,381.88917159987614,,,,,,,,,,,,,,,,,,,,,,,,,,,,,,,,,,,381.8897700998932,381.9049080000259,381.9049080000259,382.83973929984495,r,1.0,0.9254250999074428,,,,,sub-217,1,stroop_test,59.98307280158803,
,,,,91.0,7.0,7.0,,,,,,,,,,,,,rot,yellow,g,0.0,g,1.0,1.3708514000754803,,,,,,,,,,7.0,7.0,91.0,3.0,382.8550058000256,,,,,,,,,,,,,,,,,382.84021119982935,383.6565766998101,384.4713810998946,384.455918099964,,,,,,,,,,,,,,,,,,,,,,,,,,,,,,,,,,,384.4598957998678,384.4713810998946,384.4713810998946,385.8560676998459,g,1.0,1.3708514000754803,,,,,sub-217,1,stroop_test,59.98307280158803,
,,,,92.0,8.0,7.0,,,,,,,,,,,,,blau,yellow,g,0.0,g,1.0,0.7248851999174803,,,,,,,,,,7.0,8.0,92.0,7.0,385.8713749998715,,,,,,,,,,,,,,,,,385.8565214998089,387.07159799989313,387.8715580999851,387.855629599886,,,,,,,,,,,,,,,,,,,,,,,,,,,,,,,,,,,387.85922660003416,387.8715580999851,387.8715580999851,388.6072308998555,g,1.0,0.7248851999174803,,,,,sub-217,1,stroop_test,59.98307280158803,
,,,,93.0,9.0,7.0,,,,,,,,,,,,,rot,blue,b,0.0,b,1.0,0.9768101999070496,,,,,,,,,,7.0,9.0,93.0,2.0,388.6218754998408,,,,,,,,,,,,,,,,,388.6077427000273,388.97149849985726,389.7715624999255,389.7560262000188,,,,,,,,,,,,,,,,,,,,,,,,,,,,,,,,,,,389.76009559980594,389.7715624999255,389.7715624999255,390.75667259981856,b,1.0,0.9768101999070496,,,,,sub-217,1,stroop_test,59.98307280158803,
,,,,94.0,10.0,7.0,,,,,,,,,,,,,rot,red,r,1.0,r,1.0,0.6273896000348032,,,,,,,,,,7.0,10.0,94.0,0.0,390.7712095999159,,,,,,,,,,,,,,,,,390.7571932999417,391.57112089986913,392.3710980999749,392.35586729994975,,,,,,,,,,,,,,,,,,,,,,,,,,,,,,,,,,,392.35655919997953,392.3710980999749,392.3710980999749,393.00611789990216,r,1.0,0.6273896000348032,,,,,sub-217,1,stroop_test,59.98307280158803,
,,,,95.0,11.0,7.0,,,,,,,,,,,,,gelb,yellow,g,1.0,g,1.0,1.1118507999926803,,,,,,,,,,7.0,11.0,95.0,11.0,393.0225792999845,,,,,,,,,,,,,,,,,393.0067584000062,393.3712136999238,394.1714818000328,394.15542119997554,,,,,,,,,,,,,,,,,,,,,,,,,,,,,,,,,,,394.16071829991415,394.1714818000328,394.1714818000328,395.2897385000251,g,1.0,1.1118507999926803,,,,,sub-217,1,stroop_test,59.98307280158803,
,,,,96.0,0.0,8.0,,,,,,,,,,,,,gelb,yellow,g,1.0,g,1.0,0.5423892999533564,,,,,,,,,,8.0,0.0,96.0,11.0,395.3043462999631,,,,,,,,,,,,,,,,,395.29030269989744,396.1040595998056,396.9042721998412,396.8881818000227,,,,,,,,,,,,,,,,,,,,,,,,,,,,,,,,,,,396.8887835999485,396.9042721998412,396.9042721998412,397.4554059999064,g,1.0,0.5423892999533564,,,,,sub-217,1,stroop_test,59.98307280158803,
,,,,97.0,1.0,8.0,,,,,,,,,,,,,rot,red,r,1.0,r,1.0,1.462149600032717,,,,,,,,,,8.0,1.0,97.0,1.0,397.4706602999941,,,,,,,,,,,,,,,,,397.4558974998072,397.820795699954,398.62134379986674,398.6056541998405,,,,,,,,,,,,,,,,,,,,,,,,,,,,,,,,,,,398.6102797000203,398.62134379986674,398.62134379986674,400.08970329980366,r,1.0,1.462149600032717,,,,,sub-217,1,stroop_test,59.98307280158803,
,,,,98.0,2.0,8.0,,,,,,,,,,,,,gelb,yellow,g,1.0,g,1.0,0.8675854001194239,,,,,,,,,,8.0,2.0,98.0,10.0,400.1042888998054,,,,,,,,,,,,,,,,,400.09045599983074,400.2042165999301,401.0042393999174,400.98861999996006,,,,,,,,,,,,,,,,,,,,,,,,,,,,,,,,,,,400.9930112999864,401.0042393999174,401.0042393999174,401.8887980999425,g,1.0,0.8675854001194239,,,,,sub-217,1,stroop_test,59.98307280158803,
,,,,99.0,3.0,8.0,,,,,,,,,,,,,gelb,blue,b,0.0,b,1.0,0.4735444001853466,,,,,,,,,,8.0,3.0,99.0,9.0,401.9041508999653,,,,,,,,,,,,,,,,,401.88935059984215,402.704412400024,403.5041550998576,403.48995329998434,,,,,,,,,,,,,,,,,,,,,,,,,,,,,,,,,,,403.4909303998575,403.5041550998576,403.5041550998576,403.9888319999445,b,1.0,0.4735444001853466,,,,,sub-217,1,stroop_test,59.98307280158803,
,,,,100.0,4.0,8.0,,,,,,,,,,,,,blau,blue,b,1.0,b,1.0,0.651567499851808,,,,,,,,,,8.0,4.0,100.0,5.0,404.00404159980826,,,,,,,,,,,,,,,,,403.9893335998058,405.2040644998197,406.0036398000084,405.9883045000024,,,,,,,,,,,,,,,,,,,,,,,,,,,,,,,,,,,405.9921875998844,406.0036398000084,406.0036398000084,406.67157269991,b,1.0,0.651567499851808,,,,,sub-217,1,stroop_test,59.98307280158803,
,,,,101.0,5.0,8.0,,,,,,,,,,,,,rot,red,r,1.0,r,1.0,1.7445628000423312,,,,,,,,,,8.0,5.0,101.0,0.0,406.6869296999648,,,,,,,,,,,,,,,,,406.6720857999753,407.4870970000047,408.287767799804,408.271802800009,,,,,,,,,,,,,,,,,,,,,,,,,,,,,,,,,,,408.2764107999392,408.287767799804,408.287767799804,410.0392183999065,r,1.0,1.7445628000423312,,,,,sub-217,1,stroop_test,59.98307280158803,
,,,,102.0,6.0,8.0,,,,,,,,,,,,,blau,red,r,0.0,r,1.0,0.8552285998594016,,,,,,,,,,8.0,6.0,102.0,4.0,410.05406149988994,,,,,,,,,,,,,,,,,410.0397640999872,410.85382670001127,411.6538543999195,411.63805239996873,,,,,,,,,,,,,,,,,,,,,,,,,,,,,,,,,,,411.6438489998691,411.6538543999195,411.6538543999195,412.52163739991374,r,1.0,0.8552285998594016,,,,,sub-217,1,stroop_test,59.98307280158803,
,,,,103.0,7.0,8.0,,,,,,,,,,,,,rot,blue,b,0.0,b,1.0,1.0741860000416636,,,,,,,,,,8.0,7.0,103.0,2.0,412.5371513999999,,,,,,,,,,,,,,,,,412.52221770002507,413.736834899988,414.5367727000266,414.5211670999415,,,,,,,,,,,,,,,,,,,,,,,,,,,,,,,,,,,414.5263370999601,414.5367727000266,414.5367727000266,415.6214103000239,b,1.0,1.0741860000416636,,,,,sub-217,1,stroop_test,59.98307280158803,
,,,,104.0,8.0,8.0,,,,,,,,,,,,,blau,blue,b,1.0,b,1.0,0.6948855998925865,,,,,,,,,,8.0,8.0,104.0,6.0,415.63642259989865,,,,,,,,,,,,,,,,,415.6218838999048,415.7374521000311,416.5368679999374,416.5213642998133,,,,,,,,,,,,,,,,,,,,,,,,,,,,,,,,,,,416.5251022998709,416.5368679999374,416.5368679999374,417.23881719983183,b,1.0,0.6948855998925865,,,,,sub-217,1,stroop_test,59.98307280158803,
,,,,105.0,9.0,8.0,,,,,,,,,,,,,rot,yellow,g,0.0,g,1.0,0.7509196000173688,,,,,,,,,,8.0,9.0,105.0,3.0,417.2550898999907,,,,,,,,,,,,,,,,,417.23933379980735,417.3536636999343,418.1537788999267,418.1376145000104,,,,,,,,,,,,,,,,,,,,,,,,,,,,,,,,,,,418.1424033998046,418.1537788999267,418.1537788999267,418.9070709999651,g,1.0,0.7509196000173688,,,,,sub-217,1,stroop_test,59.98307280158803,
,,,,106.0,10.0,8.0,,,,,,,,,,,,,blau,yellow,g,0.0,g,1.0,0.5716451001353562,,,,,,,,,,8.0,10.0,106.0,7.0,418.9199522000272,,,,,,,,,,,,,,,,,418.9076433000155,419.01991759985685,419.81980389985256,419.8040230998304,,,,,,,,,,,,,,,,,,,,,,,,,,,,,,,,,,,419.807813399937,419.81980389985256,419.81980389985256,420.40498310001567,g,1.0,0.5716451001353562,,,,,sub-217,1,stroop_test,59.98307280158803,
,,,,107.0,11.0,8.0,,,,,,,,,,,,,gelb,red,r,0.0,r,1.0,0.65494339982979,,,,,,,,,,8.0,11.0,107.0,8.0,420.4198316999245,,,,,,,,,,,,,,,,,420.4054601998069,421.21989519987255,422.0196989998221,422.0044040000066,,,,,,,,,,,,,,,,,,,,,,,,,,,,,,,,,,,422.0091510999482,422.0196989998221,422.0196989998221,422.6878457998391,r,1.0,0.65494339982979,,,,,sub-217,1,stroop_test,59.98307280158803,
,,,,108.0,0.0,9.0,,,,,,,,,,,,,gelb,yellow,g,1.0,g,1.0,0.5779671999625862,,,,,,,,,,9.0,0.0,108.0,10.0,422.7029870999977,,,,,,,,,,,,,,,,,422.68854559981264,423.0527925998904,423.8544675000012,423.83733629994094,,,,,,,,,,,,,,,,,,,,,,,,,,,,,,,,,,,423.83796399994753,423.8544675000012,423.8544675000012,424.4387749999296,g,1.0,0.5779671999625862,,,,,sub-217,1,stroop_test,59.98307280158803,
,,,,109.0,1.0,9.0,,,,,,,,,,,,,blau,yellow,g,0.0,g,1.0,0.6319665999617428,,,,,,,,,,9.0,1.0,109.0,7.0,424.4534312998876,,,,,,,,,,,,,,,,,424.4392841998488,424.5529407998547,425.35344839980826,425.3380513000302,,,,,,,,,,,,,,,,,,,,,,,,,,,,,,,,,,,425.34260189998895,425.35344839980826,425.35344839980826,425.988176099956,g,1.0,0.6319665999617428,,,,,sub-217,1,stroop_test,59.98307280158803,
,,,,110.0,2.0,9.0,,,,,,,,,,,,,blau,blue,b,1.0,b,1.0,0.7934852000325918,,,,,,,,,,9.0,2.0,110.0,6.0,426.0028317999095,,,,,,,,,,,,,,,,,425.9889440999832,427.2031476998236,428.0027975998819,427.9871704999823,,,,,,,,,,,,,,,,,,,,,,,,,,,,,,,,,,,427.9878010000102,428.0027975998819,428.0027975998819,428.8042027000338,b,1.0,0.7934852000325918,,,,,sub-217,1,stroop_test,59.98307280158803,
,,,,111.0,3.0,9.0,,,,,,,,,,,,,blau,red,r,0.0,r,1.0,0.9546244000084698,,,,,,,,,,9.0,3.0,111.0,4.0,428.8196252998896,,,,,,,,,,,,,,,,,428.8046873998828,430.01928919996135,430.81931499997154,430.803960399935,,,,,,,,,,,,,,,,,,,,,,,,,,,,,,,,,,,430.8046035999432,430.81931499997154,430.81931499997154,431.7877048999071,r,1.0,0.9546244000084698,,,,,sub-217,1,stroop_test,59.98307280158803,
,,,,112.0,4.0,9.0,,,,,,,,,,,,,rot,yellow,g,0.0,g,1.0,0.8450102999340743,,,,,,,,,,9.0,4.0,112.0,3.0,431.8027125999797,,,,,,,,,,,,,,,,,431.7882326999679,433.00240669981577,433.8022038999479,433.7876049999613,,,,,,,,,,,,,,,,,,,,,,,,,,,,,,,,,,,433.7920499998145,433.8022038999479,433.8022038999479,434.65426179999486,g,1.0,0.8450102999340743,,,,,sub-217,1,stroop_test,59.98307280158803,
,,,,113.0,5.0,9.0,,,,,,,,,,,,,blau,blue,b,1.0,b,1.0,0.4583769000601023,,,,,,,,,,9.0,5.0,113.0,5.0,434.6701407998335,,,,,,,,,,,,,,,,,434.6549823000096,435.4698006999679,436.2694170000032,436.2536832999904,,,,,,,,,,,,,,,,,,,,,,,,,,,,,,,,,,,436.257339600008,436.2694170000032,436.2694170000032,436.7378354999237,b,1.0,0.4583769000601023,,,,,sub-217,1,stroop_test,59.98307280158803,
,,,,114.0,6.0,9.0,,,,,,,,,,,,,rot,blue,b,0.0,b,1.0,0.582298600114882,,,,,,,,,,9.0,6.0,114.0,2.0,436.7525662998669,,,,,,,,,,,,,,,,,436.7382918000221,437.9525067999493,438.75258219987154,438.73687799996696,,,,,,,,,,,,,,,,,,,,,,,,,,,,,,,,,,,438.74156919983216,438.75258219987154,438.75258219987154,439.3384085998405,b,1.0,0.582298600114882,,,,,sub-217,1,stroop_test,59.98307280158803,
,,,,115.0,7.0,9.0,,,,,,,,,,,,,gelb,yellow,g,1.0,g,1.0,1.0413907000329343,,,,,,,,,,9.0,7.0,115.0,11.0,439.35266889980994,,,,,,,,,,,,,,,,,439.3388927998021,440.5526872999035,441.3526614999864,441.3367115999572,,,,,,,,,,,,,,,,,,,,,,,,,,,,,,,,,,,441.3408581998665,441.3526614999864,441.3526614999864,442.4035242998507,g,1.0,1.0413907000329343,,,,,sub-217,1,stroop_test,59.98307280158803,
,,,,116.0,8.0,9.0,,,,,,,,,,,,,rot,red,r,1.0,r,1.0,0.8458281001076102,,,,,,,,,,9.0,8.0,116.0,0.0,442.4187119998969,,,,,,,,,,,,,,,,,442.4038555999287,442.5195437998045,443.3192800998222,443.3034591998439,,,,,,,,,,,,,,,,,,,,,,,,,,,,,,,,,,,443.3091998000164,443.3192800998222,443.3192800998222,444.1712507000193,r,1.0,0.8458281001076102,,,,,sub-217,1,stroop_test,59.98307280158803,
,,,,117.0,9.0,9.0,,,,,,,,,,,,,gelb,blue,b,0.0,b,1.0,1.04305289988406,,,,,,,,,,9.0,9.0,117.0,9.0,444.1853485999163,,,,,,,,,,,,,,,,,444.17178480001166,444.985461599892,445.7860069000162,445.7695204999764,,,,,,,,,,,,,,,,,,,,,,,,,,,,,,,,,,,445.77189709991217,445.7860069000162,445.7860069000162,446.8372108999174,b,1.0,1.04305289988406,,,,,sub-217,1,stroop_test,59.98307280158803,
,,,,118.0,10.0,9.0,,,,,,,,,,,,,gelb,red,r,0.0,r,1.0,0.6083732999395579,,,,,,,,,,9.0,10.0,118.0,8.0,446.85289939981885,,,,,,,,,,,,,,,,,446.8376600998454,447.65313220000826,448.4522092998959,448.4364903999958,,,,,,,,,,,,,,,,,,,,,,,,,,,,,,,,,,,448.4370690998621,448.4522092998959,448.4522092998959,449.0700356999878,r,1.0,0.6083732999395579,,,,,sub-217,1,stroop_test,59.98307280158803,
,,,,119.0,11.0,9.0,,,,,,,,,,,,,rot,red,r,1.0,r,1.0,0.8358050000388175,,,,,,,,,,9.0,11.0,119.0,1.0,449.0857909999322,,,,,,,,,,,,,,,,,449.0704888999462,449.1689261998981,449.9694578999188,449.9531558000017,,,,,,,,,,,,,,,,,,,,,,,,,,,,,,,,,,,449.9576455999632,449.9694578999188,449.9694578999188,450.8200827999972,r,1.0,0.8358050000388175,,,,,sub-217,1,stroop_test,59.98307280158803,
,,,,,,,,,,,,,,,,,,,,,,,,,,,,,,,,,,,,,,,,,,,,,,,,,,,,,,,,,,,,,,,,,,,,,,,,,,,,,,,,,,,,,,,,,,,,,,,,,,,,,,450.8202794999816,450.8363937998656,455.83590629999526,sub-217,1,stroop_test,59.98307280158803,
