wordCTK,colorCTK,corrAnsCTK,congruentCTK,thisN,thisTrialN,thisRepN,keyResp_CTK.keys,keyResp_CTK.corr,keyResp_CTK.rt,keyResp_CTK.duration,wordPractice,colorPractice,corrAnsPractice,congruentPractice,respPractice.keys,respPractice.corr,respPractice.rt,respPractice.duration,word,color,corrAns,congruent,keyResp_test_run.keys,keyResp_test_run.corr,keyResp_test_run.rt,keyResp_test_run.duration,trials_CTK.thisRepN,trials_CTK.thisTrialN,trials_CTK.thisN,trials_CTK.thisIndex,trials_practice.thisRepN,trials_practice.thisTrialN,trials_practice.thisN,trials_practice.thisIndex,trials_test.thisRepN,trials_test.thisTrialN,trials_test.thisN,trials_test.thisIndex,thisRow.t,notes,instruction.started,instr_text.started,instr_image.started,instr_resp.started,instruction.stopped,instr_resp.keys,instr_resp.rt,instr_resp.duration,instr_color_to_key.started,instr_ctk.started,resp_ctk.started,instr_color_to_key.stopped,resp_ctk.keys,resp_ctk.rt,resp_ctk.duration,ITI.started,fixcross.started,fixcross.stopped,ITI.stopped,color_to_key_run.started,stimulus_CTK.started,keyResp_CTK.started,color_to_key_run.stopped,trials_CTK.keyResp_CTK.keys,trials_CTK.keyResp_CTK.corr,trials_CTK.keyResp_CTK.rt,trials_CTK.keyResp_CTK.duration,instr_practice.started,instr_practice_text.started,instr_practice_resp.started,instr_practice.stopped,instr_practice_resp.keys,instr_practice_resp.rt,instr_practice_resp.duration,practice_run.started,stimulus_practice.started,respPractice.started,practice_run.stopped,trials_practice.respPractice.keys,trials_practice.respPractice.corr,trials_practice.respPractice.rt,trials_practice.respPractice.duration,feedback.started,textFeedback.started,textFeedback.stopped,feedback.stopped,instr_test.started,instr_test_text.started,instr_test_resp.started,instr_test.stopped,instr_test_resp.keys,instr_test_resp.rt,instr_test_resp.duration,test_run.started,stimulus_test_run.started,keyResp_test_run.started,test_run.stopped,trials_test.keyResp_test_run.keys,trials_test.keyResp_test_run.corr,trials_test.keyResp_test_run.rt,trials_test.keyResp_test_run.duration,goodbye.started,textGoodbye.started,goodbye.stopped,participant,session,expName,frameRate,Unnamed: 112
,,,,,,,,,,,,,,,,,,,,,,,,,,,,,,,,,,,,,,,,,0.0094513000221923,0.0406029999721795,0.0406029999721795,0.0406029999721795,29.653989600017667,space,29.53496640000958,,,,,,,,,,,,,,,,,,,,,,,,,,,,,,,,,,,,,,,,,,,,,,,,,,,,,,,,,,sub-201,1,stroop_test,59.70552042793784,
,,,,,,,,,,,,,,,,,,,,,,,,,,,,,,,,,,,,,,,,,,,,,,,,,29.654052699916065,29.675115899997763,29.675115899997763,41.30259949993342,space,11.61198719998356,,,,,,,,,,,,,,,,,,,,,,,,,,,,,,,,,,,,,,,,,,,,,,,,,,,sub-201,1,stroop_test,59.70552042793784,
test,blue,b,1.0,0.0,0.0,0.0,b,1.0,0.8534936999203637,,,,,,,,,,,,,,,,,,0.0,0.0,0.0,2.0,,,,,,,,,41.318751999991946,,,,,,,,,,,,,,,,,41.3137322999537,42.50284560001455,43.31751710001845,43.28665369993541,43.30329920002259,43.31751710001845,43.31751710001845,44.184139899909496,b,1.0,0.8534936999203637,,,,,,,,,,,,,,,,,,,,,,,,,,,,,,,,,,,,,,,sub-201,1,stroop_test,59.70552042793784,
test,yellow,g,1.0,1.0,1.0,0.0,r,0.0,0.6739827999845147,,,,,,,,,,,,,,,,,,0.0,1.0,1.0,1.0,,,,,,,,,44.20021599996835,,,,,,,,,,,,,,,,,44.1844226999674,44.99937350000255,45.799274099990726,45.782878599944524,45.78330929996446,45.799274099990726,45.799274099990726,46.482900099945255,r,0.0,0.6739827999845147,,,,,,,,,,,,,,,,,,,,,,,,,,,,,,,,,,,,,,,sub-201,1,stroop_test,59.70552042793784,
test,red,r,1.0,2.0,2.0,0.0,r,1.0,0.9434010999975726,,,,,,,,,,,,,,,,,,0.0,2.0,2.0,0.0,,,,,,,,,46.49863159994129,,,,,,,,,,,,,,,,,46.48314869997557,46.83195329993032,47.63171639991924,47.61514010000974,47.6155657999916,47.63171639991924,47.63171639991924,48.58204819995444,r,1.0,0.9434010999975726,,,,,,,,,,,,,,,,,,,,,,,,,,,,,,,,,,,,,,,sub-201,1,stroop_test,59.70552042793784,
test,blue,b,1.0,3.0,0.0,1.0,b,1.0,0.7761521999491379,,,,,,,,,,,,,,,,,,1.0,0.0,3.0,2.0,,,,,,,,,48.59740259998944,,,,,,,,,,,,,,,,,48.58231710002292,49.39737279992551,50.1969219999155,50.18044109991752,50.18093319993932,50.1969219999155,50.1969219999155,50.98124669992831,b,1.0,0.7761521999491379,,,,,,,,,,,,,,,,,,,,,,,,,,,,,,,,,,,,,,,sub-201,1,stroop_test,59.70552042793784,
test,red,r,1.0,4.0,1.0,1.0,r,1.0,0.7623913999414071,,,,,,,,,,,,,,,,,,1.0,1.0,4.0,0.0,,,,,,,,,50.99609169992618,,,,,,,,,,,,,,,,,50.981508899945766,51.79644970002119,52.59581279999111,52.579443399910815,52.57986529998016,52.59581279999111,52.59581279999111,53.36265449994244,r,1.0,0.7623913999414071,,,,,,,,,,,,,,,,,,,,,,,,,,,,,,,,,,,,,,,sub-201,1,stroop_test,59.70552042793784,
test,yellow,g,1.0,5.0,2.0,1.0,g,1.0,0.7574332999065518,,,,,,,,,,,,,,,,,,1.0,2.0,5.0,1.0,,,,,,,,,53.37902579992078,,,,,,,,,,,,,,,,,53.36290409998037,53.7282110999804,54.52832049992867,54.51249090000056,54.51299710001331,54.52832049992867,54.52832049992867,55.295480699976906,g,1.0,0.7574332999065518,,,,,,,,,,,,,,,,,,,,,,,,,,,,,,,,,,,,,,,sub-201,1,stroop_test,59.70552042793784,
test,red,r,1.0,6.0,0.0,2.0,r,1.0,0.9105750999879092,,,,,,,,,,,,,,,,,,2.0,0.0,6.0,0.0,,,,,,,,,55.31085849995725,,,,,,,,,,,,,,,,,55.29573020001408,55.6608741999371,56.45999629993457,56.44439600000624,56.44481499993708,56.45999629993457,56.45999629993457,57.37740409991238,r,1.0,0.9105750999879092,,,,,,,,,,,,,,,,,,,,,,,,,,,,,,,,,,,,,,,sub-201,1,stroop_test,59.70552042793784,
test,yellow,g,1.0,7.0,1.0,2.0,g,1.0,0.7091826999094337,,,,,,,,,,,,,,,,,,2.0,1.0,7.0,1.0,,,,,,,,,57.39304779993836,,,,,,,,,,,,,,,,,57.37767049996182,57.49312389991246,58.29257359995973,58.27603219996672,58.27658920001704,58.29257359995973,58.29257359995973,59.0103990000207,g,1.0,0.7091826999094337,,,,,,,,,,,,,,,,,,,,,,,,,,,,,,,,,,,,,,,sub-201,1,stroop_test,59.70552042793784,
test,blue,b,1.0,8.0,2.0,2.0,b,1.0,0.5729792000493035,,,,,,,,,,,,,,,,,,2.0,2.0,8.0,2.0,,,,,,,,,59.02560940000694,,,,,,,,,,,,,,,,,59.01071119995322,60.22526789992117,61.0412353000138,61.025214699911885,61.02559109998401,61.0412353000138,61.0412353000138,61.6251797999721,b,1.0,0.5729792000493035,,,,,,,,,,,,,,,,,,,,,,,,,,,,,,,,,,,,,,,sub-201,1,stroop_test,59.70552042793784,
test,yellow,g,1.0,9.0,0.0,3.0,g,1.0,1.5443876999197528,,,,,,,,,,,,,,,,,,3.0,0.0,9.0,1.0,,,,,,,,,61.64096210000571,,,,,,,,,,,,,,,,,61.62543509993702,62.440168499946594,63.24029169999994,63.22400309995282,63.22440299997106,63.24029169999994,63.24029169999994,64.79033029999118,g,1.0,1.5443876999197528,,,,,,,,,,,,,,,,,,,,,,,,,,,,,,,,,,,,,,,sub-201,1,stroop_test,59.70552042793784,
test,blue,b,1.0,10.0,1.0,3.0,b,1.0,0.7052185999928042,,,,,,,,,,,,,,,,,,3.0,1.0,10.0,2.0,,,,,,,,,64.8061158999335,,,,,,,,,,,,,,,,,64.79069319996051,65.605396799976,66.40512090001721,66.38879360002466,66.38920179998968,66.40512090001721,66.40512090001721,67.12233879999258,b,1.0,0.7052185999928042,,,,,,,,,,,,,,,,,,,,,,,,,,,,,,,,,,,,,,,sub-201,1,stroop_test,59.70552042793784,
test,red,r,1.0,11.0,2.0,3.0,r,1.0,0.684769699932076,,,,,,,,,,,,,,,,,,3.0,2.0,11.0,0.0,,,,,,,,,67.1377481999807,,,,,,,,,,,,,,,,,67.12258440000005,68.33780709991697,69.13692790002096,69.12130959995557,69.12181279994547,69.13692790002096,69.13692790002096,69.83802719996311,r,1.0,0.684769699932076,,,,,,,,,,,,,,,,,,,,,,,,,,,,,,,,,,,,,,,sub-201,1,stroop_test,59.70552042793784,
,,,,,,,,,,,,,,,,,,,,,,,,,,,,,,,,,,,,,,,,,,,,,,,,,,,,,,,,,,,,,,,,,,,,69.83814749994781,69.8533494999865,69.8533494999865,86.37918779999018,space,16.510568299912848,,,,,,,,,,,,,,,,,,,,,,,,,,,,,,,,sub-201,1,stroop_test,59.70552042793784,
,,,,0.0,0.0,0.0,,,,,gelb,red,r,0.0,g,0.0,1.423565799952485,,,,,,,,,,,,,,0.0,0.0,0.0,8.0,,,,,86.39456779998727,,,,,,,,,,,,,,,,,86.38724479998928,87.19428499997593,87.99426499998663,87.9779228999978,,,,,,,,,,,,,,,,87.98231459991075,87.99426499998663,87.99426499998663,89.42708890000358,g,0.0,1.423565799952485,,89.43329299998004,89.44320699991658,90.44219229998998,90.42607869999485,,,,,,,,,,,,,,,,,,,sub-201,1,stroop_test,59.70552042793784,
,,,,1.0,1.0,0.0,,,,,rot,red,r,1.0,r,1.0,1.346050800057128,,,,,,,,,,,,,,0.0,1.0,1.0,0.0,,,,,90.44219229998998,,,,,,,,,,,,,,,,,90.42632019997107,91.6417882000096,92.44178959995044,92.42554789991118,,,,,,,,,,,,,,,,92.42932529991958,92.44178959995044,92.44178959995044,93.79162419994827,r,1.0,1.346050800057128,,93.7955912000034,93.80785099999048,,94.8073335000081,,,,,,,,,,,,,,,,,,,sub-201,1,stroop_test,59.70552042793784,
,,,,2.0,2.0,0.0,,,,,blau,blue,b,1.0,b,1.0,0.6623458999674767,,,,,,,,,,,,,,0.0,2.0,2.0,5.0,,,,,94.82371999998576,,,,,,,,,,,,,,,,,94.80763890000526,95.15665649995208,95.95614129991736,95.940070200013,,,,,,,,,,,,,,,,95.94358650001232,95.95614129991736,95.95614129991736,96.62377900001592,b,1.0,0.6623458999674767,,96.62433699995744,96.63920989993494,97.63863790000325,97.62272659991868,,,,,,,,,,,,,,,,,,,sub-201,1,stroop_test,59.70552042793784,
,,,,3.0,3.0,0.0,,,,,blau,yellow,g,0.0,g,1.0,1.8923518999945368,,,,,,,,,,,,,,0.0,3.0,3.0,7.0,,,,,97.63863790000325,,,,,,,,,,,,,,,,,97.62310490000527,98.8379561000038,99.6384353999747,99.62178639997728,,,,,,,,,,,,,,,,99.62224079994483,99.6384353999747,99.6384353999747,101.53974169993307,g,1.0,1.8923518999945368,,101.54030789993703,101.5555262999842,102.55478210002184,102.53891619993374,,,,,,,,,,,,,,,,,,,sub-201,1,stroop_test,59.70552042793784,
,,,,4.0,4.0,0.0,,,,,gelb,blue,b,0.0,b,1.0,1.2839393001049757,,,,,,,,,,,,,,0.0,4.0,4.0,9.0,,,,,102.55478210002184,,,,,,,,,,,,,,,,,102.53919509996194,103.737821699935,104.53737979999278,104.5210488999728,,,,,,,,,,,,,,,,104.5232943999581,104.53737979999278,104.53737979999278,105.83781449997332,b,1.0,1.2839393001049757,,105.83825889998116,105.85310119995847,106.8528607999906,106.83667210000569,,,,,,,,,,,,,,,,,,,sub-201,1,stroop_test,59.70552042793784,
,,,,5.0,5.0,0.0,,,,,gelb,yellow,g,1.0,g,1.0,1.8674232999328524,,,,,,,,,,,,,,0.0,5.0,5.0,11.0,,,,,106.8528607999906,,,,,,,,,,,,,,,,,106.83691299997736,108.05211950000376,108.85163980000652,108.83552169997712,,,,,,,,,,,,,,,,108.83590339997318,108.85163980000652,108.85163980000652,110.7352261999622,g,1.0,1.8674232999328524,,110.73566999996548,110.75069589994382,111.7502300000051,111.73415239993484,,,,,,,,,,,,,,,,,,,sub-201,1,stroop_test,59.70552042793784,
,,,,6.0,6.0,0.0,,,,,blau,blue,b,1.0,b,1.0,0.9452739000553264,,,,,,,,,,,,,,0.0,6.0,6.0,6.0,,,,,111.7502300000051,,,,,,,,,,,,,,,,,111.73441349994393,111.85037729993928,112.64978099998552,112.63370789994951,,,,,,,,,,,,,,,,112.63636619993486,112.64978099998552,112.64978099998552,113.60020979994442,b,1.0,0.9452739000553264,,113.6006306000054,113.6159274999518,114.6151965999743,114.59918449993712,,,,,,,,,,,,,,,,,,,sub-201,1,stroop_test,59.70552042793784,
,,,,7.0,7.0,0.0,,,,,rot,yellow,g,0.0,g,1.0,1.859687600051984,,,,,,,,,,,,,,0.0,7.0,7.0,3.0,,,,,114.6151965999743,,,,,,,,,,,,,,,,,114.59952409996184,114.96549849992152,115.76492310001048,115.74862680002116,,,,,,,,,,,,,,,,115.75112929998431,115.76492310001048,115.76492310001048,117.63173259992618,g,1.0,1.859687600051984,,117.63216709997504,117.64692389999982,118.64657759992406,118.63033139996696,,,,,,,,,,,,,,,,,,,sub-201,1,stroop_test,59.70552042793784,
,,,,8.0,8.0,0.0,,,,,gelb,yellow,g,1.0,g,1.0,1.007304699975066,,,,,,,,,,,,,,0.0,8.0,8.0,10.0,,,,,118.64657759992406,,,,,,,,,,,,,,,,,118.63058200001252,118.7462931999471,119.54593279992696,119.52987389999907,,,,,,,,,,,,,,,,119.53197499993256,119.54593279992696,119.54593279992696,120.563233199995,g,1.0,1.007304699975066,,120.56366999994498,120.57875759992748,121.57831649994478,121.56241709995084,,,,,,,,,,,,,,,,,,,sub-201,1,stroop_test,59.70552042793784,
,,,,9.0,9.0,0.0,,,,,rot,blue,b,0.0,b,1.0,1.0446104999864474,,,,,,,,,,,,,,0.0,9.0,9.0,2.0,,,,,121.57831649994478,,,,,,,,,,,,,,,,,121.56295910000335,121.92816319991834,122.7278947000159,122.71156540000813,,,,,,,,,,,,,,,,122.71387179999148,122.7278947000159,122.7278947000159,123.77861109992956,b,1.0,1.0446104999864474,,123.77903689991216,123.79397539992353,124.793465499999,124.77759119996335,,,,,,,,,,,,,,,,,,,sub-201,1,stroop_test,59.70552042793784,
,,,,10.0,10.0,0.0,,,,,blau,red,r,0.0,r,1.0,1.334580900031142,,,,,,,,,,,,,,0.0,10.0,10.0,4.0,,,,,124.793465499999,,,,,,,,,,,,,,,,,124.77784889994656,125.1432718000142,125.94272459996864,125.92645749996882,,,,,,,,,,,,,,,,125.9288362999214,125.94272459996864,125.94272459996864,127.29365679994226,r,1.0,1.334580900031142,,127.29408959997818,127.3086661999114,128.30835409997962,128.29206130001694,,,,,,,,,,,,,,,,,,,sub-201,1,stroop_test,59.70552042793784,
,,,,11.0,11.0,0.0,,,,,rot,red,r,1.0,r,1.0,1.1005234000040218,,,,,,,,,,,,,,0.0,11.0,11.0,1.0,,,,,128.30835409997962,,,,,,,,,,,,,,,,,128.29233289998956,129.5076406999724,130.3072149999207,130.29103919991758,,,,,,,,,,,,,,,,130.29367179994006,130.3072149999207,130.3072149999207,131.42451079993043,r,1.0,1.1005234000040218,,131.4249734999612,131.43984160001855,132.4395234999247,132.42341029993258,,,,,,,,,,,,,,,,,,,sub-201,1,stroop_test,59.70552042793784,
,,,,12.0,0.0,1.0,,,,,rot,yellow,g,0.0,g,1.0,1.2213714000536129,,,,,,,,,,,,,,1.0,0.0,12.0,3.0,,,,,132.4395234999247,,,,,,,,,,,,,,,,,132.4237409000052,133.63880630000494,134.43830559996422,134.42220859997906,,,,,,,,,,,,,,,,134.42275089991745,134.43830559996422,134.43830559996422,135.67214219993912,g,1.0,1.2213714000536129,,135.67262510000728,135.68784649996087,136.68702069995925,136.6706586999353,,,,,,,,,,,,,,,,,,,sub-201,1,stroop_test,59.70552042793784,
,,,,13.0,1.0,1.0,,,,,blau,yellow,g,0.0,g,1.0,0.9080110000213608,,,,,,,,,,,,,,1.0,1.0,13.0,7.0,,,,,136.68702069995925,,,,,,,,,,,,,,,,,136.67091889993753,136.78713219997007,137.58679039997514,137.5705217999639,,,,,,,,,,,,,,,,137.5726950999815,137.58679039997514,137.58679039997514,138.50378399994224,g,1.0,0.9080110000213608,,138.50422449992038,138.5194182000123,139.5192119999556,139.5032268000068,,,,,,,,,,,,,,,,,,,sub-201,1,stroop_test,59.70552042793784,
,,,,14.0,2.0,1.0,,,,,blau,blue,b,1.0,b,1.0,0.9170193000463768,,,,,,,,,,,,,,1.0,2.0,14.0,6.0,,,,,139.5192119999556,,,,,,,,,,,,,,,,,139.5036487999605,140.31876409996767,141.11836720001884,141.10228039999492,,,,,,,,,,,,,,,,141.1027678999817,141.11836720001884,141.11836720001884,142.05245899991132,b,1.0,0.9170193000463768,,142.0530531000113,142.06748379999772,143.06715080002323,143.0511811999604,,,,,,,,,,,,,,,,,,,sub-201,1,stroop_test,59.70552042793784,
,,,,15.0,3.0,1.0,,,,,rot,blue,b,0.0,b,1.0,0.9256779999705032,,,,,,,,,,,,,,1.0,3.0,15.0,2.0,,,,,143.06715080002323,,,,,,,,,,,,,,,,,143.05147339997347,143.16723439993802,143.9667689999333,143.9508238999406,,,,,,,,,,,,,,,,143.95313699997496,143.9667689999333,143.9667689999333,144.9005571999587,b,1.0,0.9256779999705032,,144.90097939991392,144.91609989991412,145.91583149996586,145.89943649992347,,,,,,,,,,,,,,,,,,,sub-201,1,stroop_test,59.70552042793784,
,,,,16.0,4.0,1.0,,,,,rot,red,r,1.0,r,1.0,0.8239852999104187,,,,,,,,,,,,,,1.0,4.0,16.0,1.0,,,,,145.91583149996586,,,,,,,,,,,,,,,,,145.89967529999558,146.71526720002294,147.51486829994246,147.4986717000138,,,,,,,,,,,,,,,,147.49939569993876,147.51486829994246,147.51486829994246,148.34869719995186,r,1.0,0.8239852999104187,,148.3491762999911,148.3643596000038,149.3636291999137,149.34812460001558,,,,,,,,,,,,,,,,,,,sub-201,1,stroop_test,59.70552042793784,
,,,,17.0,5.0,1.0,,,,,blau,red,r,0.0,r,1.0,1.003313499968499,,,,,,,,,,,,,,1.0,5.0,17.0,4.0,,,,,149.3636291999137,,,,,,,,,,,,,,,,,149.34835879993625,149.46378230000846,150.26342999993358,150.24761670001317,,,,,,,,,,,,,,,,150.24977070000023,150.26342999993358,150.26342999993358,151.28031709999777,r,1.0,1.003313499968499,,151.2807138999924,151.29622229991946,152.29547229991294,152.27965609997045,,,,,,,,,,,,,,,,,,,sub-201,1,stroop_test,59.70552042793784,
,,,,18.0,6.0,1.0,,,,,gelb,red,r,0.0,r,1.0,1.0604541000211611,,,,,,,,,,,,,,1.0,6.0,18.0,8.0,,,,,152.29547229991294,,,,,,,,,,,,,,,,,152.2799059000099,153.09505070000887,153.8946029000217,153.8789253999712,,,,,,,,,,,,,,,,153.8810885999119,153.8946029000217,153.8946029000217,154.96259319991805,r,1.0,1.0604541000211611,,154.96300139999948,154.97758690000046,155.97712900000624,155.96090089995414,,,,,,,,,,,,,,,,,,,sub-201,1,stroop_test,59.70552042793784,
,,,,19.0,7.0,1.0,,,,,blau,blue,b,1.0,b,1.0,0.8022496999474242,,,,,,,,,,,,,,1.0,7.0,19.0,5.0,,,,,155.97712900000624,,,,,,,,,,,,,,,,,155.96125139994547,157.17664299998432,157.97614479996264,157.95974019996356,,,,,,,,,,,,,,,,157.9624313999666,157.97614479996264,157.97614479996264,158.79312159994151,b,1.0,0.8022496999474242,,158.79354649991728,158.80888989998493,159.80860709992703,159.79230059997644,,,,,,,,,,,,,,,,,,,sub-201,1,stroop_test,59.70552042793784,
,,,,20.0,8.0,1.0,,,,,gelb,blue,b,0.0,b,1.0,0.8700581999728456,,,,,,,,,,,,,,1.0,8.0,20.0,9.0,,,,,159.80860709992703,,,,,,,,,,,,,,,,,159.7927654000232,159.90832659997977,160.70777619990986,160.69203889998607,,,,,,,,,,,,,,,,160.69414579996374,160.70777619990986,160.70777619990986,161.5918933999492,b,1.0,0.8700581999728456,,161.59232529997826,161.60744990000967,162.60713429993484,162.59079799999017,,,,,,,,,,,,,,,,,,,sub-201,1,stroop_test,59.70552042793784,
,,,,21.0,9.0,1.0,,,,,rot,red,r,1.0,r,1.0,0.7618113999487832,,,,,,,,,,,,,,1.0,9.0,21.0,0.0,,,,,162.60713429993484,,,,,,,,,,,,,,,,,162.59107999992557,163.8064550999552,164.60615889995825,164.58982699993066,,,,,,,,,,,,,,,,164.59228989994153,164.60615889995825,164.60615889995825,165.3731298999628,r,1.0,0.7618113999487832,,165.3735303999856,165.3887362999376,166.3884269999107,166.37218950001989,,,,,,,,,,,,,,,,,,,sub-201,1,stroop_test,59.70552042793784,
,,,,22.0,10.0,1.0,,,,,gelb,yellow,g,1.0,g,1.0,1.1907581000123173,,,,,,,,,,,,,,1.0,10.0,22.0,10.0,,,,,166.3884269999107,,,,,,,,,,,,,,,,,166.37269099999685,167.5877879000036,168.38725959998555,168.3709216999123,,,,,,,,,,,,,,,,168.37295150000136,168.38725959998555,168.38725959998555,169.58757650002372,g,1.0,1.1907581000123173,,169.5879697999917,169.6032226999523,170.60278880002443,170.58678000001237,,,,,,,,,,,,,,,,,,,sub-201,1,stroop_test,59.70552042793784,
,,,,23.0,11.0,1.0,,,,,gelb,yellow,g,1.0,g,1.0,0.6402253999840468,,,,,,,,,,,,,,1.0,11.0,23.0,11.0,,,,,170.60278880002443,,,,,,,,,,,,,,,,,170.58719039999414,171.80217349994928,172.60181389993522,172.58539379993454,,,,,,,,,,,,,,,,172.58578389999457,172.60181389993522,172.60181389993522,173.2523072999902,g,1.0,0.6402253999840468,,173.25281139998697,173.26799089997075,174.26768529997207,174.25144030002411,,,,,,,,,,,,,,,,,,,sub-201,1,stroop_test,59.70552042793784,
,,,,,,,,,,,,,,,,,,,,,,,,,,,,,,,,,,,,,,,,,,,,,,,,,,,,,,,,,,,,,,,,,,,,,,,,,,,,,,,,,,,,,,,174.2515930000227,174.26768529997207,174.26768529997207,207.40056619991083,space,33.12339399999473,,,,,,,,,,,,,sub-201,1,stroop_test,59.70552042793784,
,,,,0.0,0.0,0.0,,,,,,,,,,,,,rot,red,r,1.0,r,1.0,0.7705157999880612,,,,,,,,,,0.0,0.0,0.0,0.0,207.41631739994045,,,,,,,,,,,,,,,,,207.4102106000064,207.51590999995824,208.31565040000717,208.29954909998924,,,,,,,,,,,,,,,,,,,,,,,,,,,,,,,,,,,208.3021657000063,208.31565040000717,208.31565040000717,209.0996038999874,r,1.0,0.7705157999880612,,,,,sub-201,1,stroop_test,59.70552042793784,
,,,,1.0,1.0,0.0,,,,,,,,,,,,,rot,yellow,g,0.0,r,0.0,2.0584578999551013,,,,,,,,,,0.0,1.0,1.0,3.0,209.1150674999226,,,,,,,,,,,,,,,,,209.10000899992883,209.46562579995955,210.2811959999381,210.2652712999843,,,,,,,,,,,,,,,,,,,,,,,,,,,,,,,,,,,210.2656779999379,210.2811959999381,210.2811959999381,212.34787920000963,r,0.0,2.0584578999551013,,,,,sub-201,1,stroop_test,59.70552042793784,
,,,,2.0,2.0,0.0,,,,,,,,,,,,,gelb,red,r,0.0,g,0.0,1.8080704000312835,,,,,,,,,,0.0,2.0,2.0,8.0,212.363344399957,,,,,,,,,,,,,,,,,212.34818099997935,213.56280979991425,214.36230389995035,214.346474400023,,,,,,,,,,,,,,,,,,,,,,,,,,,,,,,,,,,214.34868299996012,214.36230389995035,214.36230389995035,216.17931989999488,g,0.0,1.8080704000312835,,,,,sub-201,1,stroop_test,59.70552042793784,
,,,,3.0,3.0,0.0,,,,,,,,,,,,,blau,red,r,0.0,b,0.0,0.5586077999323606,,,,,,,,,,0.0,3.0,3.0,4.0,216.19480449997357,,,,,,,,,,,,,,,,,216.17963689996395,216.54486719996203,217.3442034999607,217.3282563999528,,,,,,,,,,,,,,,,,,,,,,,,,,,,,,,,,,,217.3304081999231,217.3442034999607,217.3442034999607,217.91183080000337,b,0.0,0.5586077999323606,,,,,sub-201,1,stroop_test,59.70552042793784,
,,,,4.0,4.0,0.0,,,,,,,,,,,,,gelb,yellow,g,1.0,g,1.0,0.8191128999460489,,,,,,,,,,0.0,4.0,4.0,11.0,217.92735599994197,,,,,,,,,,,,,,,,,217.9121127999388,218.7272420999361,219.52634209999812,219.51078459993005,,,,,,,,,,,,,,,,,,,,,,,,,,,,,,,,,,,219.5128645999357,219.52634209999812,219.52634209999812,220.3604996999493,g,1.0,0.8191128999460489,,,,,sub-201,1,stroop_test,59.70552042793784,
,,,,5.0,5.0,0.0,,,,,,,,,,,,,gelb,blue,b,0.0,g,0.0,0.8214969999389723,,,,,,,,,,0.0,5.0,5.0,9.0,220.3758279000176,,,,,,,,,,,,,,,,,220.360847099917,221.17586239997763,221.9751324999379,221.95925019995772,,,,,,,,,,,,,,,,,,,,,,,,,,,,,,,,,,,221.9596767999465,221.9751324999379,221.9751324999379,222.8092518999474,g,0.0,0.8214969999389723,,,,,sub-201,1,stroop_test,59.70552042793784,
,,,,6.0,6.0,0.0,,,,,,,,,,,,,gelb,yellow,g,1.0,g,1.0,0.7085702000185847,,,,,,,,,,0.0,6.0,6.0,10.0,222.8246814999729,,,,,,,,,,,,,,,,,222.809681899962,224.02398269996047,224.82361969992053,224.80785099999048,,,,,,,,,,,,,,,,,,,,,,,,,,,,,,,,,,,224.80828140000813,224.82361969992053,224.82361969992053,225.54094719991556,g,1.0,0.7085702000185847,,,,,sub-201,1,stroop_test,59.70552042793784,
,,,,7.0,7.0,0.0,,,,,,,,,,,,,blau,blue,b,1.0,b,1.0,0.5880874999566004,,,,,,,,,,0.0,7.0,7.0,5.0,225.5566545999609,,,,,,,,,,,,,,,,,225.54125679994468,226.35623859998304,227.1560044999933,227.13964760000815,,,,,,,,,,,,,,,,,,,,,,,,,,,,,,,,,,,227.1419600999216,227.1560044999933,227.1560044999933,227.75630030001048,b,1.0,0.5880874999566004,,,,,sub-201,1,stroop_test,59.70552042793784,
,,,,8.0,8.0,0.0,,,,,,,,,,,,,blau,blue,b,1.0,b,1.0,0.5825666000600904,,,,,,,,,,0.0,8.0,8.0,6.0,227.7721105000237,,,,,,,,,,,,,,,,,227.75661599996965,227.8554642000236,228.65502379997636,228.63906379998664,,,,,,,,,,,,,,,,,,,,,,,,,,,,,,,,,,,228.63952650001735,228.65502379997636,228.65502379997636,229.2395709999837,b,1.0,0.5825666000600904,,,,,sub-201,1,stroop_test,59.70552042793784,
,,,,9.0,9.0,0.0,,,,,,,,,,,,,rot,red,r,1.0,r,1.0,0.7355325999669731,,,,,,,,,,0.0,9.0,9.0,1.0,229.25469480000905,,,,,,,,,,,,,,,,,229.2399570000125,230.0543298999546,230.85387889994308,230.83784980000928,,,,,,,,,,,,,,,,,,,,,,,,,,,,,,,,,,,230.840154799982,230.85387889994308,230.85387889994308,231.6047967999475,r,1.0,0.7355325999669731,,,,,sub-201,1,stroop_test,59.70552042793784,
,,,,10.0,10.0,0.0,,,,,,,,,,,,,rot,blue,b,0.0,r,0.0,0.9313091000076384,,,,,,,,,,0.0,10.0,10.0,2.0,231.6201821999857,,,,,,,,,,,,,,,,,231.6051178999478,232.819637699984,233.61918359994888,233.6028446999844,,,,,,,,,,,,,,,,,,,,,,,,,,,,,,,,,,,233.60336900001855,233.61918359994888,233.61918359994888,234.55301969998985,r,0.0,0.9313091000076384,,,,,sub-201,1,stroop_test,59.70552042793784,
,,,,11.0,11.0,0.0,,,,,,,,,,,,,blau,yellow,g,0.0,b,0.0,0.7902161999372765,,,,,,,,,,0.0,11.0,11.0,7.0,234.56855069997252,,,,,,,,,,,,,,,,,234.5533069999656,234.91833389992823,235.71817339991685,235.7019793000072,,,,,,,,,,,,,,,,,,,,,,,,,,,,,,,,,,,235.70479079999492,235.71817339991685,235.71817339991685,236.5184253000189,b,0.0,0.7902161999372765,,,,,sub-201,1,stroop_test,59.70552042793784,
,,,,12.0,0.0,1.0,,,,,,,,,,,,,blau,red,r,0.0,b,0.0,0.6917891000630334,,,,,,,,,,1.0,0.0,12.0,4.0,236.5342749999836,,,,,,,,,,,,,,,,,236.51871329999997,236.61745179991703,237.41704899992328,237.4013059999561,,,,,,,,,,,,,,,,,,,,,,,,,,,,,,,,,,,237.4016959000146,237.41704899992328,237.41704899992328,238.11784379999156,b,0.0,0.6917891000630334,,,,,sub-201,1,stroop_test,59.70552042793784,
,,,,13.0,1.0,1.0,,,,,,,,,,,,,blau,blue,b,1.0,b,1.0,0.5915324999950826,,,,,,,,,,1.0,1.0,13.0,6.0,238.13341020001096,,,,,,,,,,,,,,,,,238.11812439991627,238.23341450002044,239.03348220000044,239.0168924999889,,,,,,,,,,,,,,,,,,,,,,,,,,,,,,,,,,,239.0173294999404,239.03348220000044,239.03348220000044,239.63423540000804,b,1.0,0.5915324999950826,,,,,sub-201,1,stroop_test,59.70552042793784,
,,,,14.0,2.0,1.0,,,,,,,,,,,,,blau,yellow,g,0.0,b,0.0,0.5943922000005841,,,,,,,,,,1.0,2.0,14.0,7.0,239.64930459996685,,,,,,,,,,,,,,,,,239.6345694999909,240.44878440001048,241.24839520000387,241.2325045999605,,,,,,,,,,,,,,,,,,,,,,,,,,,,,,,,,,,241.23289109999317,241.24839520000387,241.24839520000387,241.8490804999601,b,0.0,0.5943922000005841,,,,,sub-201,1,stroop_test,59.70552042793784,
,,,,15.0,3.0,1.0,,,,,,,,,,,,,rot,red,r,1.0,r,1.0,1.5024309000000358,,,,,,,,,,1.0,3.0,15.0,1.0,241.8646973000141,,,,,,,,,,,,,,,,,241.84939529991243,242.2144514999818,243.0146249999525,242.9986004999373,,,,,,,,,,,,,,,,,,,,,,,,,,,,,,,,,,,243.00078379991464,243.0146249999525,243.0146249999525,244.53133339993656,r,1.0,1.5024309000000358,,,,,sub-201,1,stroop_test,59.70552042793784,
,,,,16.0,4.0,1.0,,,,,,,,,,,,,rot,red,r,1.0,r,1.0,0.5318991000531241,,,,,,,,,,1.0,4.0,16.0,0.0,244.54675580002367,,,,,,,,,,,,,,,,,244.5316431999672,244.64670759998265,245.4463157999562,245.43006509996485,,,,,,,,,,,,,,,,,,,,,,,,,,,,,,,,,,,245.43057640001643,245.4463157999562,245.4463157999562,245.9808310000226,r,1.0,0.5318991000531241,,,,,sub-201,1,stroop_test,59.70552042793784,
,,,,17.0,5.0,1.0,,,,,,,,,,,,,rot,blue,b,0.0,r,0.0,0.5186083000153303,,,,,,,,,,1.0,5.0,17.0,2.0,245.9961501000216,,,,,,,,,,,,,,,,,245.9811069999123,246.79540379997343,247.5953749999171,247.578989099944,,,,,,,,,,,,,,,,,,,,,,,,,,,,,,,,,,,247.57938799995463,247.5953749999171,247.5953749999171,248.12943420000371,r,0.0,0.5186083000153303,,,,,sub-201,1,stroop_test,59.70552042793784,
,,,,18.0,6.0,1.0,,,,,,,,,,,,,rot,yellow,g,0.0,r,0.0,0.5297556000296026,,,,,,,,,,1.0,6.0,18.0,3.0,248.14484819991048,,,,,,,,,,,,,,,,,248.1297099000076,248.9444825999672,249.7440529000014,249.7279860000126,,,,,,,,,,,,,,,,,,,,,,,,,,,,,,,,,,,249.72837709996384,249.7440529000014,249.7440529000014,250.2779529999243,r,0.0,0.5297556000296026,,,,,sub-201,1,stroop_test,59.70552042793784,
,,,,19.0,7.0,1.0,,,,,,,,,,,,,gelb,red,r,0.0,g,0.0,1.4089608000358569,,,,,,,,,,1.0,7.0,19.0,8.0,250.29369439999573,,,,,,,,,,,,,,,,,250.2782561000204,250.39446769992355,251.2100316999713,251.19392250000965,,,,,,,,,,,,,,,,,,,,,,,,,,,,,,,,,,,251.19613960001152,251.2100316999713,251.2100316999713,252.6267264999915,g,0.0,1.4089608000358569,,,,,sub-201,1,stroop_test,59.70552042793784,
,,,,20.0,8.0,1.0,,,,,,,,,,,,,gelb,yellow,g,1.0,g,1.0,0.5293736000312492,,,,,,,,,,1.0,8.0,20.0,11.0,252.6425678000087,,,,,,,,,,,,,,,,,252.62705160002224,253.442013300024,254.2415887999814,254.22602049994748,,,,,,,,,,,,,,,,,,,,,,,,,,,,,,,,,,,254.2264030999504,254.2415887999814,254.2415887999814,254.77554179995784,g,1.0,0.5293736000312492,,,,,sub-201,1,stroop_test,59.70552042793784,
,,,,21.0,9.0,1.0,,,,,,,,,,,,,blau,blue,b,1.0,b,1.0,0.8960565999150276,,,,,,,,,,1.0,9.0,21.0,5.0,254.7914258999517,,,,,,,,,,,,,,,,,254.77584399993063,254.87473119993228,255.6743726999266,255.658380299923,,,,,,,,,,,,,,,,,,,,,,,,,,,,,,,,,,,255.6608801999828,255.6743726999266,255.6743726999266,256.5749858999625,b,1.0,0.8960565999150276,,,,,sub-201,1,stroop_test,59.70552042793784,
,,,,22.0,10.0,1.0,,,,,,,,,,,,,gelb,yellow,g,1.0,g,1.0,0.628676199936308,,,,,,,,,,1.0,10.0,22.0,10.0,256.5903368999716,,,,,,,,,,,,,,,,,256.575342199998,256.9400694000069,257.73997469991446,257.7239767999854,,,,,,,,,,,,,,,,,,,,,,,,,,,,,,,,,,,257.72608940000646,257.73997469991446,257.73997469991446,258.3739393999567,g,1.0,0.628676199936308,,,,,sub-201,1,stroop_test,59.70552042793784,
,,,,23.0,11.0,1.0,,,,,,,,,,,,,gelb,blue,b,0.0,g,0.0,1.2835585001157597,,,,,,,,,,1.0,11.0,23.0,9.0,258.3895586999133,,,,,,,,,,,,,,,,,258.3742154999636,259.588930399972,260.3884891999187,260.3722358000232,,,,,,,,,,,,,,,,,,,,,,,,,,,,,,,,,,,260.3726639000233,260.3884891999187,260.3884891999187,261.6889216999989,g,0.0,1.2835585001157597,,,,,sub-201,1,stroop_test,59.70552042793784,
,,,,24.0,0.0,2.0,,,,,,,,,,,,,blau,blue,b,1.0,b,1.0,1.074788499972783,,,,,,,,,,2.0,0.0,24.0,5.0,261.7043043000158,,,,,,,,,,,,,,,,,261.6892838999629,261.8043619999662,262.604140899959,262.5880832999246,,,,,,,,,,,,,,,,,,,,,,,,,,,,,,,,,,,262.5907905999338,262.604140899959,262.604140899959,263.68780910002533,b,1.0,1.074788499972783,,,,,sub-201,1,stroop_test,59.70552042793784,
,,,,25.0,1.0,2.0,,,,,,,,,,,,,gelb,red,r,0.0,g,0.0,1.0429117999738082,,,,,,,,,,2.0,1.0,25.0,8.0,263.7032519999193,,,,,,,,,,,,,,,,,263.6881234999746,263.8033329999307,264.6028428999707,264.5869580999715,,,,,,,,,,,,,,,,,,,,,,,,,,,,,,,,,,,264.5890307999216,264.6028428999707,264.6028428999707,265.65364529995713,g,0.0,1.0429117999738082,,,,,sub-201,1,stroop_test,59.70552042793784,
,,,,26.0,2.0,2.0,,,,,,,,,,,,,rot,red,r,1.0,r,1.0,0.8385681000072509,,,,,,,,,,2.0,2.0,26.0,1.0,265.66895229998045,,,,,,,,,,,,,,,,,265.6539614999201,265.7690672000172,266.5685944999568,266.5524077999871,,,,,,,,,,,,,,,,,,,,,,,,,,,,,,,,,,,266.5547357000178,266.5685944999568,266.5685944999568,267.4193024999695,r,1.0,0.8385681000072509,,,,,sub-201,1,stroop_test,59.70552042793784,
,,,,27.0,3.0,2.0,,,,,,,,,,,,,rot,yellow,g,0.0,r,0.0,0.654361900058575,,,,,,,,,,2.0,3.0,27.0,3.0,267.4349031000165,,,,,,,,,,,,,,,,,267.41962189995684,268.63423019996844,269.433819299913,269.4175216999138,,,,,,,,,,,,,,,,,,,,,,,,,,,,,,,,,,,269.4179144999944,269.433819299913,269.433819299913,270.1011499000015,r,0.0,0.654361900058575,,,,,sub-201,1,stroop_test,59.70552042793784,
,,,,28.0,4.0,2.0,,,,,,,,,,,,,blau,red,r,0.0,b,0.0,0.5576042999746278,,,,,,,,,,2.0,4.0,28.0,4.0,270.1166345999809,,,,,,,,,,,,,,,,,270.1014444999164,270.9162233999232,271.7158666999312,271.6999308000086,,,,,,,,,,,,,,,,,,,,,,,,,,,,,,,,,,,271.7025568999816,271.7158666999312,271.7158666999312,272.2833368999418,b,0.0,0.5576042999746278,,,,,sub-201,1,stroop_test,59.70552042793784,
,,,,29.0,5.0,2.0,,,,,,,,,,,,,gelb,blue,b,0.0,g,0.0,0.787774599972181,,,,,,,,,,2.0,5.0,29.0,9.0,272.2989715000149,,,,,,,,,,,,,,,,,272.28362469992135,272.64869429997634,273.44826289999764,273.4323900999734,,,,,,,,,,,,,,,,,,,,,,,,,,,,,,,,,,,273.4345838999143,273.44826289999764,273.44826289999764,274.2487512999214,g,0.0,0.787774599972181,,,,,sub-201,1,stroop_test,59.70552042793784,
,,,,30.0,6.0,2.0,,,,,,,,,,,,,gelb,yellow,g,1.0,g,1.0,0.5150319000240415,,,,,,,,,,2.0,6.0,30.0,11.0,274.2646430999739,,,,,,,,,,,,,,,,,274.2490406999132,274.61432249995414,275.4140067999251,275.3978764999192,,,,,,,,,,,,,,,,,,,,,,,,,,,,,,,,,,,275.3983738999814,275.4140067999251,275.4140067999251,275.9314437999856,g,1.0,0.5150319000240415,,,,,sub-201,1,stroop_test,59.70552042793784,
,,,,31.0,7.0,2.0,,,,,,,,,,,,,gelb,yellow,g,1.0,g,1.0,0.3858571999007836,,,,,,,,,,2.0,7.0,31.0,10.0,275.94695369992405,,,,,,,,,,,,,,,,,275.93173750001006,276.0305984999286,276.8297469000099,276.81374819995835,,,,,,,,,,,,,,,,,,,,,,,,,,,,,,,,,,,276.81419349997304,276.8297469000099,276.8297469000099,277.2310813999502,g,1.0,0.3858571999007836,,,,,sub-201,1,stroop_test,59.70552042793784,
,,,,32.0,8.0,2.0,,,,,,,,,,,,,rot,red,r,1.0,r,1.0,0.6511522999498993,,,,,,,,,,2.0,8.0,32.0,0.0,277.2463148999959,,,,,,,,,,,,,,,,,277.2314098000061,278.0458681000164,278.8455996999983,278.8291906999657,,,,,,,,,,,,,,,,,,,,,,,,,,,,,,,,,,,278.8314840999665,278.8455996999983,278.8455996999983,279.5130132000195,r,1.0,0.6511522999498993,,,,,sub-201,1,stroop_test,59.70552042793784,
,,,,33.0,9.0,2.0,,,,,,,,,,,,,blau,blue,b,1.0,b,1.0,0.6608005999587476,,,,,,,,,,2.0,9.0,33.0,6.0,279.52858339995146,,,,,,,,,,,,,,,,,279.5133729999652,280.7279715000186,281.52765069995075,281.51143319997936,,,,,,,,,,,,,,,,,,,,,,,,,,,,,,,,,,,281.51469290000387,281.52765069995075,281.52765069995075,282.1950009999564,b,1.0,0.6608005999587476,,,,,sub-201,1,stroop_test,59.70552042793784,
,,,,34.0,10.0,2.0,,,,,,,,,,,,,rot,blue,b,0.0,r,0.0,0.6152266999706626,,,,,,,,,,2.0,10.0,34.0,2.0,282.2107930999482,,,,,,,,,,,,,,,,,282.1953087999718,283.01024340000004,283.8096840999788,283.793450600002,,,,,,,,,,,,,,,,,,,,,,,,,,,,,,,,,,,283.79561539995484,283.8096840999788,283.8096840999788,284.42716039996594,r,0.0,0.6152266999706626,,,,,sub-201,1,stroop_test,59.70552042793784,
,,,,35.0,11.0,2.0,,,,,,,,,,,,,blau,yellow,g,0.0,b,0.0,0.5971298000076786,,,,,,,,,,2.0,11.0,35.0,7.0,284.4424697000068,,,,,,,,,,,,,,,,,284.4274507999653,285.2420161999762,286.0420799999265,286.0256818999769,,,,,,,,,,,,,,,,,,,,,,,,,,,,,,,,,,,286.0280429999111,286.0420799999265,286.0420799999265,286.6426691999659,b,0.0,0.5971298000076786,,,,,sub-201,1,stroop_test,59.70552042793784,
,,,,36.0,0.0,3.0,,,,,,,,,,,,,rot,blue,b,0.0,r,0.0,0.735212399973534,,,,,,,,,,3.0,0.0,36.0,2.0,286.6581813999219,,,,,,,,,,,,,,,,,286.642961799982,287.0080564999953,287.8080765999621,287.79118990001734,,,,,,,,,,,,,,,,,,,,,,,,,,,,,,,,,,,287.79341729998123,287.8080765999621,287.8080765999621,288.55798969999887,r,0.0,0.735212399973534,,,,,sub-201,1,stroop_test,59.70552042793784,
,,,,37.0,1.0,3.0,,,,,,,,,,,,,gelb,blue,b,0.0,g,0.0,0.7589256000937894,,,,,,,,,,3.0,1.0,37.0,9.0,288.5739412999246,,,,,,,,,,,,,,,,,288.55831779993605,289.35672389995307,290.15636189992074,290.14007790002506,,,,,,,,,,,,,,,,,,,,,,,,,,,,,,,,,,,290.14217489992734,290.15636189992074,290.15636189992074,290.92349909991026,g,0.0,0.7589256000937894,,,,,sub-201,1,stroop_test,59.70552042793784,
,,,,38.0,2.0,3.0,,,,,,,,,,,,,blau,yellow,g,0.0,b,0.0,0.6642777000088245,,,,,,,,,,3.0,2.0,38.0,7.0,290.9390535999555,,,,,,,,,,,,,,,,,290.9238094999455,291.03919689997565,291.83870879991446,291.82276769995224,,,,,,,,,,,,,,,,,,,,,,,,,,,,,,,,,,,291.8251566999825,291.83870879991446,291.83870879991446,292.5065145000117,b,0.0,0.6642777000088245,,,,,sub-201,1,stroop_test,59.70552042793784,
,,,,39.0,3.0,3.0,,,,,,,,,,,,,blau,blue,b,1.0,b,1.0,0.694089199998416,,,,,,,,,,3.0,3.0,39.0,5.0,292.5217120000161,,,,,,,,,,,,,,,,,292.50691399991047,293.32142489997204,294.12093679991085,294.10513749998063,,,,,,,,,,,,,,,,,,,,,,,,,,,,,,,,,,,294.10563010000624,294.12093679991085,294.12093679991085,294.8215481999796,b,1.0,0.694089199998416,,,,,sub-201,1,stroop_test,59.70552042793784,
,,,,40.0,4.0,3.0,,,,,,,,,,,,,rot,red,r,1.0,r,1.0,0.5881048000883311,,,,,,,,,,3.0,4.0,40.0,1.0,294.8373544999631,,,,,,,,,,,,,,,,,294.821870099986,295.6369731000159,296.43643130001146,296.420197499916,,,,,,,,,,,,,,,,,,,,,,,,,,,,,,,,,,,296.42282879992854,296.43643130001146,296.43643130001146,297.03700809995644,r,1.0,0.5881048000883311,,,,,sub-201,1,stroop_test,59.70552042793784,
,,,,41.0,5.0,3.0,,,,,,,,,,,,,gelb,yellow,g,1.0,g,1.0,0.6246565999463201,,,,,,,,,,3.0,5.0,41.0,10.0,297.0527653999161,,,,,,,,,,,,,,,,,297.03732110001147,297.152677499922,297.9522947999649,297.93603859993163,,,,,,,,,,,,,,,,,,,,,,,,,,,,,,,,,,,297.9381200999487,297.9522947999649,297.9522947999649,298.58607029996347,g,1.0,0.6246565999463201,,,,,sub-201,1,stroop_test,59.70552042793784,
,,,,42.0,6.0,3.0,,,,,,,,,,,,,blau,red,r,0.0,b,0.0,0.5913668998982757,,,,,,,,,,3.0,6.0,42.0,4.0,298.6019407999702,,,,,,,,,,,,,,,,,298.58636239997577,298.9351790000219,299.734732599929,299.71849629993085,,,,,,,,,,,,,,,,,,,,,,,,,,,,,,,,,,,299.7206803999143,299.734732599929,299.734732599929,300.3352312999777,b,0.0,0.5913668998982757,,,,,sub-201,1,stroop_test,59.70552042793784,
,,,,43.0,7.0,3.0,,,,,,,,,,,,,rot,yellow,g,0.0,r,0.0,0.6267327999230474,,,,,,,,,,3.0,7.0,43.0,3.0,300.3510713999858,,,,,,,,,,,,,,,,,300.3355245999992,300.45106539991684,301.250597700011,301.2342577999225,,,,,,,,,,,,,,,,,,,,,,,,,,,,,,,,,,,301.23665649991017,301.250597700011,301.250597700011,301.8845756999217,r,0.0,0.6267327999230474,,,,,sub-201,1,stroop_test,59.70552042793784,
,,,,44.0,8.0,3.0,,,,,,,,,,,,,rot,red,r,1.0,r,1.0,0.585718399961479,,,,,,,,,,3.0,8.0,44.0,0.0,301.9002686999738,,,,,,,,,,,,,,,,,301.8849076000042,302.69972799997777,303.50544649991207,303.48344550002366,,,,,,,,,,,,,,,,,,,,,,,,,,,,,,,,,,,303.4838595999172,303.50544649991207,303.50544649991207,304.10032819991466,r,1.0,0.585718399961479,,,,,sub-201,1,stroop_test,59.70552042793784,
,,,,45.0,9.0,3.0,,,,,,,,,,,,,gelb,red,r,0.0,g,0.0,0.6788953000213951,,,,,,,,,,3.0,9.0,45.0,8.0,304.1156661999412,,,,,,,,,,,,,,,,,304.100677200011,305.31496290001087,306.114810399944,306.0993888999801,,,,,,,,,,,,,,,,,,,,,,,,,,,,,,,,,,,306.1018896999303,306.114810399944,306.114810399944,306.798896699911,g,0.0,0.6788953000213951,,,,,sub-201,1,stroop_test,59.70552042793784,
,,,,46.0,10.0,3.0,,,,,,,,,,,,,blau,blue,b,1.0,b,1.0,0.6706220000050962,,,,,,,,,,3.0,10.0,46.0,6.0,306.814074599999,,,,,,,,,,,,,,,,,306.79917469993234,307.6140011999523,308.4136590999551,308.397441899986,,,,,,,,,,,,,,,,,,,,,,,,,,,,,,,,,,,308.40000699996017,308.4136590999551,308.4136590999551,309.09731069998816,b,1.0,0.6706220000050962,,,,,sub-201,1,stroop_test,59.70552042793784,
,,,,47.0,11.0,3.0,,,,,,,,,,,,,gelb,yellow,g,1.0,g,1.0,0.5116414000513032,,,,,,,,,,3.0,11.0,47.0,11.0,309.1131387000205,,,,,,,,,,,,,,,,,309.09761159995105,309.4461836999981,310.24567450000905,310.22970789996907,,,,,,,,,,,,,,,,,,,,,,,,,,,,,,,,,,,310.2318379000062,310.24567450000905,310.24567450000905,310.7632572000148,g,1.0,0.5116414000513032,,,,,sub-201,1,stroop_test,59.70552042793784,
,,,,48.0,0.0,4.0,,,,,,,,,,,,,blau,red,r,0.0,b,0.0,0.6311705000698566,,,,,,,,,,4.0,0.0,48.0,4.0,310.7788072999101,,,,,,,,,,,,,,,,,310.76356280001346,311.12881189992186,311.92855620000046,311.91206140001304,,,,,,,,,,,,,,,,,,,,,,,,,,,,,,,,,,,311.9151044000173,311.92855620000046,311.92855620000046,312.5621408999432,b,0.0,0.6311705000698566,,,,,sub-201,1,stroop_test,59.70552042793784,
,,,,49.0,1.0,4.0,,,,,,,,,,,,,blau,yellow,g,0.0,b,0.0,0.6078146999934688,,,,,,,,,,4.0,1.0,49.0,7.0,312.5779497999465,,,,,,,,,,,,,,,,,312.5624274999136,312.92764599993825,313.7274794999976,313.71145249996334,,,,,,,,,,,,,,,,,,,,,,,,,,,,,,,,,,,313.71182530000806,313.7274794999976,313.7274794999976,314.3447769000195,b,0.0,0.6078146999934688,,,,,sub-201,1,stroop_test,59.70552042793784,
,,,,50.0,2.0,4.0,,,,,,,,,,,,,gelb,blue,b,0.0,b,1.0,0.5819513000315055,,,,,,,,,,4.0,2.0,50.0,9.0,314.3604370999383,,,,,,,,,,,,,,,,,314.3450792999938,314.7101566999918,315.50971809995826,315.4939103999641,,,,,,,,,,,,,,,,,,,,,,,,,,,,,,,,,,,315.4958918999182,315.50971809995826,315.50971809995826,316.09397179994266,b,1.0,0.5819513000315055,,,,,sub-201,1,stroop_test,59.70552042793784,
,,,,51.0,3.0,4.0,,,,,,,,,,,,,rot,red,r,1.0,r,1.0,0.6585080999648198,,,,,,,,,,4.0,3.0,51.0,1.0,316.1095389999682,,,,,,,,,,,,,,,,,316.0942548000021,316.45937149995007,317.2589002000168,317.2426089999499,,,,,,,,,,,,,,,,,,,,,,,,,,,,,,,,,,,317.2449920999352,317.2589002000168,317.2589002000168,317.9261265000096,r,1.0,0.6585080999648198,,,,,sub-201,1,stroop_test,59.70552042793784,
,,,,52.0,4.0,4.0,,,,,,,,,,,,,gelb,red,r,0.0,g,0.0,0.5912883999990299,,,,,,,,,,4.0,4.0,52.0,8.0,317.9416395999724,,,,,,,,,,,,,,,,,317.9264748999849,318.2917819999857,319.09138999995776,319.0754877999425,,,,,,,,,,,,,,,,,,,,,,,,,,,,,,,,,,,319.07770229992457,319.09138999995776,319.09138999995776,319.6922227999894,g,0.0,0.5912883999990299,,,,,sub-201,1,stroop_test,59.70552042793784,
,,,,53.0,5.0,4.0,,,,,,,,,,,,,gelb,yellow,g,1.0,g,1.0,0.620792799978517,,,,,,,,,,4.0,5.0,53.0,10.0,319.7076904999558,,,,,,,,,,,,,,,,,319.6926020999672,320.90704879991245,321.7066650999477,321.69041879998986,,,,,,,,,,,,,,,,,,,,,,,,,,,,,,,,,,,321.6910902999807,321.7066650999477,321.7066650999477,322.3404749999754,g,1.0,0.620792799978517,,,,,sub-201,1,stroop_test,59.70552042793784,
,,,,54.0,6.0,4.0,,,,,,,,,,,,,blau,blue,b,1.0,b,1.0,0.5616054000565782,,,,,,,,,,4.0,6.0,54.0,5.0,322.3561020999914,,,,,,,,,,,,,,,,,322.34075560001656,323.5554271999281,324.3550683999201,324.3392947999528,,,,,,,,,,,,,,,,,,,,,,,,,,,,,,,,,,,324.34171189996414,324.3550683999201,324.3550683999201,324.9226087999996,b,1.0,0.5616054000565782,,,,,sub-201,1,stroop_test,59.70552042793784,
,,,,55.0,7.0,4.0,,,,,,,,,,,,,gelb,yellow,g,1.0,g,1.0,0.6029887000331655,,,,,,,,,,4.0,7.0,55.0,11.0,324.9381490999367,,,,,,,,,,,,,,,,,324.9228878999129,326.1375504999887,326.9370762999169,326.9210504000075,,,,,,,,,,,,,,,,,,,,,,,,,,,,,,,,,,,326.9231476999121,326.9370762999169,326.9370762999169,327.55426409991924,g,1.0,0.6029887000331655,,,,,sub-201,1,stroop_test,59.70552042793784,
,,,,56.0,8.0,4.0,,,,,,,,,,,,,rot,red,r,1.0,r,1.0,0.4152438000310212,,,,,,,,,,4.0,8.0,56.0,0.0,327.5702642999822,,,,,,,,,,,,,,,,,327.5546612999169,327.90339300001506,328.7031247999985,328.6867410999257,,,,,,,,,,,,,,,,,,,,,,,,,,,,,,,,,,,328.68951870000456,328.7031247999985,328.7031247999985,329.1205980000086,r,1.0,0.4152438000310212,,,,,sub-201,1,stroop_test,59.70552042793784,
,,,,57.0,9.0,4.0,,,,,,,,,,,,,blau,blue,b,1.0,b,1.0,0.6780003999592736,,,,,,,,,,4.0,9.0,57.0,6.0,329.13600820000283,,,,,,,,,,,,,,,,,329.12095339992084,329.93561429996043,330.7351105000125,330.7190945999464,,,,,,,,,,,,,,,,,,,,,,,,,,,,,,,,,,,330.72123229992576,330.7351105000125,330.7351105000125,331.419258799986,b,1.0,0.6780003999592736,,,,,sub-201,1,stroop_test,59.70552042793784,
,,,,58.0,10.0,4.0,,,,,,,,,,,,,rot,blue,b,0.0,r,0.0,0.6729977999348193,,,,,,,,,,4.0,10.0,58.0,2.0,331.43475399992894,,,,,,,,,,,,,,,,,331.4195508999983,331.7844229999464,332.5841339000035,332.5680276999483,,,,,,,,,,,,,,,,,,,,,,,,,,,,,,,,,,,332.57057079998776,332.5841339000035,332.5841339000035,333.2680621999316,r,0.0,0.6729977999348193,,,,,sub-201,1,stroop_test,59.70552042793784,
,,,,59.0,11.0,4.0,,,,,,,,,,,,,rot,yellow,g,0.0,r,0.0,0.5464237999403849,,,,,,,,,,4.0,11.0,59.0,3.0,333.2840023000026,,,,,,,,,,,,,,,,,333.26838489994407,334.0835056999931,334.8833552999422,334.8668011999689,,,,,,,,,,,,,,,,,,,,,,,,,,,,,,,,,,,334.8671719999984,334.8833552999422,334.8833552999422,335.4336216999218,r,0.0,0.5464237999403849,,,,,sub-201,1,stroop_test,59.70552042793784,
,,,,60.0,0.0,5.0,,,,,,,,,,,,,rot,blue,b,0.0,r,0.0,0.550622700015083,,,,,,,,,,5.0,0.0,60.0,2.0,335.44935479993,,,,,,,,,,,,,,,,,335.43393569998443,335.799124400015,336.5987415999407,336.5824136999436,,,,,,,,,,,,,,,,,,,,,,,,,,,,,,,,,,,336.5827876999974,336.5987415999407,336.5987415999407,337.16595209995285,r,0.0,0.550622700015083,,,,,sub-201,1,stroop_test,59.70552042793784,
,,,,61.0,1.0,5.0,,,,,,,,,,,,,rot,red,r,1.0,r,1.0,0.5144010001095012,,,,,,,,,,5.0,1.0,61.0,1.0,337.18168159993365,,,,,,,,,,,,,,,,,337.1662629999919,337.98168620001525,338.7809958999278,338.7646456999937,,,,,,,,,,,,,,,,,,,,,,,,,,,,,,,,,,,338.76500389992725,338.7809958999278,338.7809958999278,339.2984170999844,r,1.0,0.5144010001095012,,,,,sub-201,1,stroop_test,59.70552042793784,
,,,,62.0,2.0,5.0,,,,,,,,,,,,,gelb,yellow,g,1.0,g,1.0,0.6304814999457449,,,,,,,,,,5.0,2.0,62.0,10.0,339.3140743999975,,,,,,,,,,,,,,,,,339.29871110001113,340.1136478999397,340.91321899998,340.89712689991575,,,,,,,,,,,,,,,,,,,,,,,,,,,,,,,,,,,340.89914889994543,340.91321899998,340.91321899998,341.5471637999872,g,1.0,0.6304814999457449,,,,,sub-201,1,stroop_test,59.70552042793784,
,,,,63.0,3.0,5.0,,,,,,,,,,,,,gelb,blue,b,0.0,g,0.0,0.740792499971576,,,,,,,,,,5.0,3.0,63.0,9.0,341.56297650001943,,,,,,,,,,,,,,,,,341.5474506999599,341.91276949993335,342.71248039999045,342.69634309993125,,,,,,,,,,,,,,,,,,,,,,,,,,,,,,,,,,,342.6967395999236,342.71248039999045,342.71248039999045,343.4630696999375,g,0.0,0.740792499971576,,,,,sub-201,1,stroop_test,59.70552042793784,
,,,,64.0,4.0,5.0,,,,,,,,,,,,,gelb,red,r,0.0,g,0.0,0.5684034000150859,,,,,,,,,,5.0,4.0,64.0,8.0,343.4787345000077,,,,,,,,,,,,,,,,,343.46335719991475,344.67808019998483,345.4779571999097,345.46130580001045,,,,,,,,,,,,,,,,,,,,,,,,,,,,,,,,,,,345.4617794000078,345.4779571999097,345.4779571999097,346.06125119992066,g,0.0,0.5684034000150859,,,,,sub-201,1,stroop_test,59.70552042793784,
,,,,65.0,5.0,5.0,,,,,,,,,,,,,blau,blue,b,1.0,b,1.0,0.6515684999758378,,,,,,,,,,5.0,5.0,65.0,6.0,346.0772649999708,,,,,,,,,,,,,,,,,346.0615531000076,347.27647479996085,348.0762096999679,348.0602751999395,,,,,,,,,,,,,,,,,,,,,,,,,,,,,,,,,,,348.0624970999779,348.0762096999679,348.0762096999679,348.7433823000174,b,1.0,0.6515684999758378,,,,,sub-201,1,stroop_test,59.70552042793784,
,,,,66.0,6.0,5.0,,,,,,,,,,,,,blau,red,r,0.0,b,0.0,0.5941915999865159,,,,,,,,,,5.0,6.0,66.0,4.0,348.759082900011,,,,,,,,,,,,,,,,,348.7436851999955,349.5588923000032,350.35831019992474,350.342091599945,,,,,,,,,,,,,,,,,,,,,,,,,,,,,,,,,,,350.3424780999776,350.35831019992474,350.35831019992474,350.9591958000092,b,0.0,0.5941915999865159,,,,,sub-201,1,stroop_test,59.70552042793784,
,,,,67.0,7.0,5.0,,,,,,,,,,,,,rot,yellow,g,0.0,r,0.0,0.5559744000202045,,,,,,,,,,5.0,7.0,67.0,3.0,350.97474139998667,,,,,,,,,,,,,,,,,350.9594971999759,351.3244123000186,352.12406950001605,352.10804009996355,,,,,,,,,,,,,,,,,,,,,,,,,,,,,,,,,,,352.11076109996065,352.12406950001605,352.12406950001605,352.6914043999277,r,0.0,0.5559744000202045,,,,,sub-201,1,stroop_test,59.70552042793784,
,,,,68.0,8.0,5.0,,,,,,,,,,,,,blau,yellow,g,0.0,b,0.0,0.5494976000627503,,,,,,,,,,5.0,8.0,68.0,7.0,352.70699229999445,,,,,,,,,,,,,,,,,352.6916938999202,353.489760599914,354.28964169998653,354.27375609998126,,,,,,,,,,,,,,,,,,,,,,,,,,,,,,,,,,,354.27619180001784,354.28964169998653,354.28964169998653,354.8406920999987,b,0.0,0.5494976000627503,,,,,sub-201,1,stroop_test,59.70552042793784,
,,,,69.0,9.0,5.0,,,,,,,,,,,,,rot,red,r,1.0,r,1.0,0.589727699989453,,,,,,,,,,5.0,9.0,69.0,0.0,354.8560554999858,,,,,,,,,,,,,,,,,354.84098229999654,356.0553792999126,356.8549074999755,356.8386346999323,,,,,,,,,,,,,,,,,,,,,,,,,,,,,,,,,,,356.8414198999526,356.8549074999755,356.8549074999755,357.4555301999208,r,1.0,0.589727699989453,,,,,sub-201,1,stroop_test,59.70552042793784,
,,,,70.0,10.0,5.0,,,,,,,,,,,,,blau,blue,b,1.0,b,1.0,0.4374803999671712,,,,,,,,,,5.0,10.0,70.0,5.0,357.4711523000151,,,,,,,,,,,,,,,,,357.45580779993907,357.5544556999812,358.35411029995885,358.3382484000176,,,,,,,,,,,,,,,,,,,,,,,,,,,,,,,,,,,358.34057969995774,358.35411029995885,358.35411029995885,358.80474269995466,b,1.0,0.4374803999671712,,,,,sub-201,1,stroop_test,59.70552042793784,
,,,,71.0,11.0,5.0,,,,,,,,,,,,,gelb,yellow,g,1.0,g,1.0,0.5240194998914376,,,,,,,,,,5.0,11.0,71.0,11.0,358.8205982999644,,,,,,,,,,,,,,,,,358.80506869999226,359.6202220999403,360.41980039991904,360.4036842000205,,,,,,,,,,,,,,,,,,,,,,,,,,,,,,,,,,,360.4058475999627,360.41980039991904,360.41980039991904,360.9536866999697,g,1.0,0.5240194998914376,,,,,sub-201,1,stroop_test,59.70552042793784,
,,,,72.0,0.0,6.0,,,,,,,,,,,,,gelb,red,r,0.0,g,0.0,0.7056722999550402,,,,,,,,,,6.0,0.0,72.0,8.0,360.9692240000004,,,,,,,,,,,,,,,,,360.9539637999842,361.3194172999356,362.1189667999279,362.1044562999159,,,,,,,,,,,,,,,,,,,,,,,,,,,,,,,,,,,362.1048274999485,362.1189667999279,362.1189667999279,362.8358869999647,g,0.0,0.7056722999550402,,,,,sub-201,1,stroop_test,59.70552042793784,
,,,,73.0,1.0,6.0,,,,,,,,,,,,,gelb,blue,b,0.0,g,0.0,0.503924599965103,,,,,,,,,,6.0,1.0,73.0,9.0,362.8518009999534,,,,,,,,,,,,,,,,,362.8362901000073,363.1850154999411,363.9846475999802,363.9685499999905,,,,,,,,,,,,,,,,,,,,,,,,,,,,,,,,,,,363.9689238999272,363.9846475999802,363.9846475999802,364.5018754999619,g,0.0,0.503924599965103,,,,,sub-201,1,stroop_test,59.70552042793784,
,,,,74.0,2.0,6.0,,,,,,,,,,,,,rot,blue,b,0.0,r,0.0,0.6302946999203414,,,,,,,,,,6.0,2.0,74.0,2.0,364.51762009994127,,,,,,,,,,,,,,,,,364.5022030000109,364.8675387999974,365.667136700009,365.6507349999156,,,,,,,,,,,,,,,,,,,,,,,,,,,,,,,,,,,365.6529729999602,365.667136700009,365.667136700009,366.3010646000039,r,0.0,0.6302946999203414,,,,,sub-201,1,stroop_test,59.70552042793784,
,,,,75.0,3.0,6.0,,,,,,,,,,,,,blau,yellow,g,0.0,b,0.0,0.6170738000655547,,,,,,,,,,6.0,3.0,75.0,7.0,366.3165179999778,,,,,,,,,,,,,,,,,366.301394399954,367.5159333000192,368.3154972000048,368.2995836000191,,,,,,,,,,,,,,,,,,,,,,,,,,,,,,,,,,,368.302392099984,368.3154972000048,368.3154972000048,368.9493294999702,b,0.0,0.6170738000655547,,,,,sub-201,1,stroop_test,59.70552042793784,
,,,,76.0,4.0,6.0,,,,,,,,,,,,,gelb,yellow,g,1.0,g,1.0,0.7342035000910982,,,,,,,,,,6.0,4.0,76.0,10.0,368.965319699957,,,,,,,,,,,,,,,,,368.9496854000026,370.1646370999515,370.96440379996784,370.9479808999458,,,,,,,,,,,,,,,,,,,,,,,,,,,,,,,,,,,370.9503214999568,370.96440379996784,370.96440379996784,371.7147730999859,g,1.0,0.7342035000910982,,,,,sub-201,1,stroop_test,59.70552042793784,
,,,,77.0,5.0,6.0,,,,,,,,,,,,,rot,red,r,1.0,r,1.0,0.6215784000232816,,,,,,,,,,6.0,5.0,77.0,1.0,371.7305927999551,,,,,,,,,,,,,,,,,371.7150638999883,372.0803611999145,372.8799948999658,372.8640014999546,,,,,,,,,,,,,,,,,,,,,,,,,,,,,,,,,,,372.8661960000172,372.8799948999658,372.8799948999658,373.5139127000002,r,1.0,0.6215784000232816,,,,,sub-201,1,stroop_test,59.70552042793784,
,,,,78.0,6.0,6.0,,,,,,,,,,,,,gelb,yellow,g,1.0,g,1.0,0.711597100016661,,,,,,,,,,6.0,6.0,78.0,11.0,373.5294621000066,,,,,,,,,,,,,,,,,373.5142677000258,373.6128099999624,374.4124373999657,374.39625240000896,,,,,,,,,,,,,,,,,,,,,,,,,,,,,,,,,,,374.3985106999753,374.4124373999657,374.4124373999657,375.1297907999251,g,1.0,0.711597100016661,,,,,sub-201,1,stroop_test,59.70552042793784,
,,,,79.0,7.0,6.0,,,,,,,,,,,,,blau,blue,b,1.0,b,1.0,0.6784879000624642,,,,,,,,,,6.0,7.0,79.0,5.0,375.1453733999515,,,,,,,,,,,,,,,,,375.1302048999351,375.49530920002144,376.2948764999164,376.2785827999469,,,,,,,,,,,,,,,,,,,,,,,,,,,,,,,,,,,376.2808651999803,376.2948764999164,376.2948764999164,376.9787724999478,b,1.0,0.6784879000624642,,,,,sub-201,1,stroop_test,59.70552042793784,
,,,,80.0,8.0,6.0,,,,,,,,,,,,,blau,blue,b,1.0,b,1.0,0.6695323999738321,,,,,,,,,,6.0,8.0,80.0,6.0,376.9943825999508,,,,,,,,,,,,,,,,,376.97910360002425,377.344044999918,378.1443417000119,378.12760959996376,,,,,,,,,,,,,,,,,,,,,,,,,,,,,,,,,,,378.1280301000224,378.1443417000119,378.1443417000119,378.8282324000029,b,1.0,0.6695323999738321,,,,,sub-201,1,stroop_test,59.70552042793784,
,,,,81.0,9.0,6.0,,,,,,,,,,,,,rot,red,r,1.0,r,1.0,0.6158366999588907,,,,,,,,,,6.0,9.0,81.0,0.0,378.8434236999601,,,,,,,,,,,,,,,,,378.8285334999673,378.9433192999568,379.7428964999272,379.7269162000157,,,,,,,,,,,,,,,,,,,,,,,,,,,,,,,,,,,379.729096999974,379.7428964999272,379.7428964999272,380.3607153999619,r,1.0,0.6158366999588907,,,,,sub-201,1,stroop_test,59.70552042793784,
,,,,82.0,10.0,6.0,,,,,,,,,,,,,rot,yellow,g,0.0,r,0.0,0.5632661000126973,,,,,,,,,,6.0,10.0,82.0,3.0,380.3758776999312,,,,,,,,,,,,,,,,,380.360988499946,381.5752694000257,382.3748398999451,382.3588893999113,,,,,,,,,,,,,,,,,,,,,,,,,,,,,,,,,,,382.3593241999624,382.3748398999451,382.3748398999451,382.94258949998766,r,0.0,0.5632661000126973,,,,,sub-201,1,stroop_test,59.70552042793784,
,,,,83.0,11.0,6.0,,,,,,,,,,,,,blau,red,r,0.0,b,0.0,0.5827367000747472,,,,,,,,,,6.0,11.0,83.0,4.0,382.9579132000217,,,,,,,,,,,,,,,,,382.9429050999461,384.157234699931,384.9568990999833,384.9407286000205,,,,,,,,,,,,,,,,,,,,,,,,,,,,,,,,,,,384.9434530999279,384.9568990999833,384.9568990999833,385.541832500021,b,0.0,0.5827367000747472,,,,,sub-201,1,stroop_test,59.70552042793784,
,,,,84.0,0.0,7.0,,,,,,,,,,,,,rot,red,r,1.0,r,1.0,0.6699257999425754,,,,,,,,,,7.0,0.0,84.0,0.0,385.5568016999168,,,,,,,,,,,,,,,,,385.5421220000135,386.75608969992027,387.55570649995934,387.539443799993,,,,,,,,,,,,,,,,,,,,,,,,,,,,,,,,,,,387.5417115999153,387.55570649995934,387.55570649995934,388.2397279000143,r,1.0,0.6699257999425754,,,,,sub-201,1,stroop_test,59.70552042793784,
,,,,85.0,1.0,7.0,,,,,,,,,,,,,blau,blue,b,1.0,b,1.0,0.5980542999459431,,,,,,,,,,7.0,1.0,85.0,5.0,388.2553104999242,,,,,,,,,,,,,,,,,388.240178899956,389.0548811999615,389.8544330999721,389.8385166999651,,,,,,,,,,,,,,,,,,,,,,,,,,,,,,,,,,,389.8409619999584,389.8544330999721,389.8544330999721,390.4551180999261,b,1.0,0.5980542999459431,,,,,sub-201,1,stroop_test,59.70552042793784,
,,,,86.0,2.0,7.0,,,,,,,,,,,,,rot,red,r,1.0,r,1.0,0.5714808000484481,,,,,,,,,,7.0,2.0,86.0,1.0,390.4705586999189,,,,,,,,,,,,,,,,,390.4554713999387,391.6699011999881,392.4695204999298,392.4535235000076,,,,,,,,,,,,,,,,,,,,,,,,,,,,,,,,,,,392.455807399936,392.4695204999298,392.4695204999298,393.0535035999492,r,1.0,0.5714808000484481,,,,,sub-201,1,stroop_test,59.70552042793784,
,,,,87.0,3.0,7.0,,,,,,,,,,,,,blau,red,r,0.0,b,0.0,0.5187305000144988,,,,,,,,,,7.0,3.0,87.0,4.0,393.0693984000245,,,,,,,,,,,,,,,,,393.0538220999297,393.4192260999698,394.21873640001286,394.2028674000176,,,,,,,,,,,,,,,,,,,,,,,,,,,,,,,,,,,394.2051465999102,394.21873640001286,394.21873640001286,394.7528021999169,b,0.0,0.5187305000144988,,,,,sub-201,1,stroop_test,59.70552042793784,
,,,,88.0,4.0,7.0,,,,,,,,,,,,,blau,yellow,g,0.0,b,0.0,0.7291449999902397,,,,,,,,,,7.0,4.0,88.0,7.0,394.768431799952,,,,,,,,,,,,,,,,,394.7530883,394.8682173999259,395.66782109998167,395.6518548999448,,,,,,,,,,,,,,,,,,,,,,,,,,,,,,,,,,,395.6522535999538,395.66782109998167,395.66782109998167,396.4021342999768,b,0.0,0.7291449999902397,,,,,sub-201,1,stroop_test,59.70552042793784,
,,,,89.0,5.0,7.0,,,,,,,,,,,,,blau,blue,b,1.0,b,1.0,0.4617826999165118,,,,,,,,,,7.0,5.0,89.0,6.0,396.4176211999729,,,,,,,,,,,,,,,,,396.4024201999418,397.6170740999514,398.4166326000122,398.4002768999199,,,,,,,,,,,,,,,,,,,,,,,,,,,,,,,,,,,398.4006346999668,398.4166326000122,398.4166326000122,398.8838113999227,b,1.0,0.4617826999165118,,,,,sub-201,1,stroop_test,59.70552042793784,
,,,,90.0,6.0,7.0,,,,,,,,,,,,,gelb,yellow,g,1.0,g,1.0,0.6103614000603557,,,,,,,,,,7.0,6.0,90.0,10.0,398.8996712999651,,,,,,,,,,,,,,,,,398.8841172999237,399.2493879999965,400.0490077999421,400.0328597999178,,,,,,,,,,,,,,,,,,,,,,,,,,,,,,,,,,,400.0349976000143,400.0490077999421,400.0490077999421,400.6668052999303,g,1.0,0.6103614000603557,,,,,sub-201,1,stroop_test,59.70552042793784,
,,,,91.0,7.0,7.0,,,,,,,,,,,,,rot,yellow,g,0.0,r,0.0,0.6130431999918073,,,,,,,,,,7.0,7.0,91.0,3.0,400.68205599999055,,,,,,,,,,,,,,,,,400.6670897000004,401.03184049995616,401.8313726999331,401.8153572999872,,,,,,,,,,,,,,,,,,,,,,,,,,,,,,,,,,,401.8179920999101,401.8313726999331,401.8313726999331,402.4487337999744,r,0.0,0.6130431999918073,,,,,sub-201,1,stroop_test,59.70552042793784,
,,,,92.0,8.0,7.0,,,,,,,,,,,,,gelb,blue,b,0.0,g,0.0,0.7109286000486463,,,,,,,,,,7.0,8.0,92.0,9.0,402.4645106999669,,,,,,,,,,,,,,,,,402.4490092999768,403.6638089999324,404.4634938000236,404.4473705999553,,,,,,,,,,,,,,,,,,,,,,,,,,,,,,,,,,,404.44972959999,404.4634938000236,404.4634938000236,405.1806945999852,g,0.0,0.7109286000486463,,,,,sub-201,1,stroop_test,59.70552042793784,
,,,,93.0,9.0,7.0,,,,,,,,,,,,,gelb,red,r,0.0,g,0.0,0.5925225999671966,,,,,,,,,,7.0,9.0,93.0,8.0,405.19619279995095,,,,,,,,,,,,,,,,,405.1809740000172,406.39566559996456,407.1951343999244,407.1791970999912,,,,,,,,,,,,,,,,,,,,,,,,,,,,,,,,,,,407.17960119992495,407.1951343999244,407.1951343999244,407.7960897999583,g,0.0,0.5925225999671966,,,,,sub-201,1,stroop_test,59.70552042793784,
,,,,94.0,10.0,7.0,,,,,,,,,,,,,gelb,yellow,g,1.0,g,1.0,0.580354499979876,,,,,,,,,,7.0,10.0,94.0,11.0,407.8118044999428,,,,,,,,,,,,,,,,,407.7964012000011,408.6113234999357,409.41094470000826,409.3946198999183,,,,,,,,,,,,,,,,,,,,,,,,,,,,,,,,,,,409.3949995000148,409.41094470000826,409.41094470000826,409.9949799999594,g,1.0,0.580354499979876,,,,,sub-201,1,stroop_test,59.70552042793784,
,,,,95.0,11.0,7.0,,,,,,,,,,,,,rot,blue,b,0.0,r,0.0,0.7516111000441015,,,,,,,,,,7.0,11.0,95.0,2.0,410.0105642999988,,,,,,,,,,,,,,,,,409.9953100999119,410.1104978999356,410.9100926999236,410.8940788999898,,,,,,,,,,,,,,,,,,,,,,,,,,,,,,,,,,,410.8968804000178,410.9100926999236,410.9100926999236,411.6773011999903,r,0.0,0.7516111000441015,,,,,sub-201,1,stroop_test,59.70552042793784,
,,,,96.0,0.0,8.0,,,,,,,,,,,,,gelb,yellow,g,1.0,g,1.0,0.6367626999272034,,,,,,,,,,8.0,0.0,96.0,11.0,411.692790400004,,,,,,,,,,,,,,,,,411.6775868999539,412.8921963999746,413.6918298000237,413.6759303999133,,,,,,,,,,,,,,,,,,,,,,,,,,,,,,,,,,,413.6780513999984,413.6918298000237,413.6918298000237,414.34303499991074,g,1.0,0.6367626999272034,,,,,sub-201,1,stroop_test,59.70552042793784,
,,,,97.0,1.0,8.0,,,,,,,,,,,,,gelb,blue,b,0.0,g,0.0,0.5921563999727368,,,,,,,,,,8.0,1.0,97.0,9.0,414.3584096999839,,,,,,,,,,,,,,,,,414.34333619999234,415.5577790000243,416.3570634999778,416.3410998999607,,,,,,,,,,,,,,,,,,,,,,,,,,,,,,,,,,,416.3414680999704,416.3570634999778,416.3570634999778,416.95781059993897,g,0.0,0.5921563999727368,,,,,sub-201,1,stroop_test,59.70552042793784,
,,,,98.0,2.0,8.0,,,,,,,,,,,,,blau,yellow,g,0.0,b,0.0,1.029697599937208,,,,,,,,,,8.0,2.0,98.0,7.0,416.9735677000135,,,,,,,,,,,,,,,,,416.9581278999103,418.17308129998855,418.9726554999361,418.9562713999767,,,,,,,,,,,,,,,,,,,,,,,,,,,,,,,,,,,418.9585734999273,418.9726554999361,418.9726554999361,420.0064851000207,b,0.0,1.029697599937208,,,,,sub-201,1,stroop_test,59.70552042793784,
,,,,99.0,3.0,8.0,,,,,,,,,,,,,blau,red,r,0.0,b,0.0,0.481080999947153,,,,,,,,,,8.0,3.0,99.0,4.0,420.0219075999921,,,,,,,,,,,,,,,,,420.0068159999792,420.3716849000193,421.17131030000746,421.1552273000125,,,,,,,,,,,,,,,,,,,,,,,,,,,,,,,,,,,421.1556220999919,421.17131030000746,421.17131030000746,421.655664299964,b,0.0,0.481080999947153,,,,,sub-201,1,stroop_test,59.70552042793784,
,,,,100.0,4.0,8.0,,,,,,,,,,,,,rot,red,r,1.0,r,1.0,0.5736681000562385,,,,,,,,,,8.0,4.0,100.0,0.0,421.6711031999439,,,,,,,,,,,,,,,,,421.65599320002366,421.7711282999953,422.5706364000216,422.55443499994,,,,,,,,,,,,,,,,,,,,,,,,,,,,,,,,,,,422.5578294999432,422.5706364000216,422.5706364000216,423.1546939999098,r,1.0,0.5736681000562385,,,,,sub-201,1,stroop_test,59.70552042793784,
,,,,101.0,5.0,8.0,,,,,,,,,,,,,gelb,yellow,g,1.0,g,1.0,0.6433168000075966,,,,,,,,,,8.0,5.0,101.0,10.0,423.17012119991705,,,,,,,,,,,,,,,,,423.15498879994266,423.52029639994726,424.3197726999642,424.30361079995055,,,,,,,,,,,,,,,,,,,,,,,,,,,,,,,,,,,424.3055394999683,424.3197726999642,424.3197726999642,424.9706095999573,g,1.0,0.6433168000075966,,,,,sub-201,1,stroop_test,59.70552042793784,
,,,,102.0,6.0,8.0,,,,,,,,,,,,,gelb,red,r,0.0,g,0.0,0.5891545999329537,,,,,,,,,,8.0,6.0,102.0,8.0,424.9860866999952,,,,,,,,,,,,,,,,,424.9709169999696,425.0859312999528,425.88558899995405,425.869936699979,,,,,,,,,,,,,,,,,,,,,,,,,,,,,,,,,,,425.8705783999758,425.88558899995405,425.88558899995405,426.4866455999436,g,0.0,0.5891545999329537,,,,,sub-201,1,stroop_test,59.70552042793784,
,,,,103.0,7.0,8.0,,,,,,,,,,,,,rot,red,r,1.0,r,1.0,0.5728047000011429,,,,,,,,,,8.0,7.0,103.0,1.0,426.502028399962,,,,,,,,,,,,,,,,,426.4869650999317,427.3028702000156,428.1177919999464,428.1022149999626,,,,,,,,,,,,,,,,,,,,,,,,,,,,,,,,,,,428.1045009000227,428.1177919999464,428.1177919999464,428.7018284000224,r,1.0,0.5728047000011429,,,,,sub-201,1,stroop_test,59.70552042793784,
,,,,104.0,8.0,8.0,,,,,,,,,,,,,rot,yellow,g,0.0,r,0.0,0.6509767000097781,,,,,,,,,,8.0,8.0,104.0,3.0,428.7174343999941,,,,,,,,,,,,,,,,,428.70223409996834,429.9168365999358,430.7165358000202,430.70076089992654,,,,,,,,,,,,,,,,,,,,,,,,,,,,,,,,,,,430.7012786999112,430.7165358000202,430.7165358000202,431.3838033999782,r,0.0,0.6509767000097781,,,,,sub-201,1,stroop_test,59.70552042793784,
,,,,105.0,9.0,8.0,,,,,,,,,,,,,blau,blue,b,1.0,b,1.0,0.5126442000037059,,,,,,,,,,8.0,9.0,105.0,6.0,431.39968309993856,,,,,,,,,,,,,,,,,431.3841082999716,432.5985241999151,433.3984167999588,433.3823002999416,,,,,,,,,,,,,,,,,,,,,,,,,,,,,,,,,,,433.3856531999773,433.3984167999588,433.3984167999588,433.9155989999417,b,1.0,0.5126442000037059,,,,,sub-201,1,stroop_test,59.70552042793784,
,,,,106.0,10.0,8.0,,,,,,,,,,,,,rot,blue,b,0.0,r,0.0,0.8095679999096319,,,,,,,,,,8.0,10.0,106.0,2.0,433.9314601999941,,,,,,,,,,,,,,,,,433.915890699951,434.2812093999237,435.0808323000092,435.0646321999375,,,,,,,,,,,,,,,,,,,,,,,,,,,,,,,,,,,435.06698589993175,435.0808323000092,435.0808323000092,435.8980521999765,r,0.0,0.8095679999096319,,,,,sub-201,1,stroop_test,59.70552042793784,
,,,,107.0,11.0,8.0,,,,,,,,,,,,,blau,blue,b,1.0,b,1.0,0.5463976000901312,,,,,,,,,,8.0,11.0,107.0,5.0,435.914320699987,,,,,,,,,,,,,,,,,435.8984458999476,437.1130014000228,437.9126043999568,437.89639090001583,,,,,,,,,,,,,,,,,,,,,,,,,,,,,,,,,,,437.8989154999144,437.9126043999568,437.9126043999568,438.4633474999573,b,1.0,0.5463976000901312,,,,,sub-201,1,stroop_test,59.70552042793784,
,,,,108.0,0.0,9.0,,,,,,,,,,,,,rot,red,r,1.0,r,1.0,0.729344499995932,,,,,,,,,,9.0,0.0,108.0,0.0,438.4788613999263,,,,,,,,,,,,,,,,,438.4636748000048,438.5789533000207,439.3784781999421,439.3621913000243,,,,,,,,,,,,,,,,,,,,,,,,,,,,,,,,,,,439.36474779993296,439.3784781999421,439.3784781999421,440.113030700013,r,1.0,0.729344499995932,,,,,sub-201,1,stroop_test,59.70552042793784,
,,,,109.0,1.0,9.0,,,,,,,,,,,,,gelb,blue,b,0.0,g,0.0,0.8133341999491677,,,,,,,,,,9.0,1.0,109.0,9.0,440.1280267999973,,,,,,,,,,,,,,,,,440.1134187999414,440.2281526000006,441.027667599963,441.0114235000219,,,,,,,,,,,,,,,,,,,,,,,,,,,,,,,,,,,441.0136517999927,441.027667599963,441.027667599963,441.8450344000012,g,0.0,0.8133341999491677,,,,,sub-201,1,stroop_test,59.70552042793784,
,,,,110.0,2.0,9.0,,,,,,,,,,,,,blau,blue,b,1.0,b,1.0,0.8091962001053616,,,,,,,,,,9.0,2.0,110.0,5.0,441.8606355999364,,,,,,,,,,,,,,,,,441.8453158999328,442.2102641999954,443.0102169999154,442.9938234000001,,,,,,,,,,,,,,,,,,,,,,,,,,,,,,,,,,,442.9960228999844,443.0102169999154,443.0102169999154,443.8273128999863,b,1.0,0.8091962001053616,,,,,sub-201,1,stroop_test,59.70552042793784,
,,,,111.0,3.0,9.0,,,,,,,,,,,,,rot,yellow,g,0.0,r,0.0,0.8061258000088856,,,,,,,,,,9.0,3.0,111.0,3.0,443.8429460999323,,,,,,,,,,,,,,,,,443.8276568999281,443.943021700019,444.74255989992525,444.72635639994405,,,,,,,,,,,,,,,,,,,,,,,,,,,,,,,,,,,444.7287421999499,444.74255989992525,444.74255989992525,445.5597667000257,r,0.0,0.8061258000088856,,,,,sub-201,1,stroop_test,59.70552042793784,
,,,,112.0,4.0,9.0,,,,,,,,,,,,,rot,blue,b,0.0,g,0.0,0.4981277999468148,,,,,,,,,,9.0,4.0,112.0,2.0,445.5753779999213,,,,,,,,,,,,,,,,,445.56016899994574,445.6754827999976,446.4749886000063,446.45865950000007,,,,,,,,,,,,,,,,,,,,,,,,,,,,,,,,,,,446.4590686999727,446.4749886000063,446.4749886000063,446.9755455999402,g,0.0,0.4981277999468148,,,,,sub-201,1,stroop_test,59.70552042793784,
,,,,113.0,5.0,9.0,,,,,,,,,,,,,gelb,red,r,0.0,g,0.0,0.9784469000296668,,,,,,,,,,9.0,5.0,113.0,8.0,446.9912919999333,,,,,,,,,,,,,,,,,446.97583120001946,447.0744766999269,447.8740624999628,447.8581680000061,,,,,,,,,,,,,,,,,,,,,,,,,,,,,,,,,,,447.8603039999725,447.8740624999628,447.8740624999628,448.8579350999789,g,0.0,0.9784469000296668,,,,,sub-201,1,stroop_test,59.70552042793784,
,,,,114.0,6.0,9.0,,,,,,,,,,,,,blau,yellow,g,0.0,b,0.0,0.6471548998961225,,,,,,,,,,9.0,6.0,114.0,7.0,448.8737336000195,,,,,,,,,,,,,,,,,448.8582256999798,449.6732003999641,450.4728898999747,450.4566500999499,,,,,,,,,,,,,,,,,,,,,,,,,,,,,,,,,,,450.4588114999933,450.4728898999747,450.4728898999747,451.1238595999312,b,0.0,0.6471548998961225,,,,,sub-201,1,stroop_test,59.70552042793784,
,,,,115.0,7.0,9.0,,,,,,,,,,,,,blau,red,r,0.0,b,0.0,0.5536371000343934,,,,,,,,,,9.0,7.0,115.0,4.0,451.1391220999649,,,,,,,,,,,,,,,,,451.124151899945,451.9386777000036,452.7382933999179,452.7221592999995,,,,,,,,,,,,,,,,,,,,,,,,,,,,,,,,,,,452.7226574999513,452.7382933999179,452.7382933999179,453.3055618000217,b,0.0,0.5536371000343934,,,,,sub-201,1,stroop_test,59.70552042793784,
,,,,116.0,8.0,9.0,,,,,,,,,,,,,gelb,yellow,g,1.0,g,1.0,1.0714795000385493,,,,,,,,,,9.0,8.0,116.0,11.0,453.3212634000229,,,,,,,,,,,,,,,,,453.30595199996606,454.5206880000187,455.3204441999551,455.30434529995546,,,,,,,,,,,,,,,,,,,,,,,,,,,,,,,,,,,455.3073741999688,455.3204441999551,455.3204441999551,456.4038181999931,g,1.0,1.0714795000385493,,,,,sub-201,1,stroop_test,59.70552042793784,
,,,,117.0,9.0,9.0,,,,,,,,,,,,,gelb,yellow,g,1.0,g,1.0,0.5246488000266254,,,,,,,,,,9.0,9.0,117.0,10.0,456.41973849991336,,,,,,,,,,,,,,,,,456.4041247999994,456.7531749999616,457.5524620999349,457.5362579999492,,,,,,,,,,,,,,,,,,,,,,,,,,,,,,,,,,,457.53662569995504,457.5524620999349,457.5524620999349,458.0865022999933,g,1.0,0.5246488000266254,,,,,sub-201,1,stroop_test,59.70552042793784,
,,,,118.0,10.0,9.0,,,,,,,,,,,,,rot,red,r,1.0,r,1.0,0.5066159999696538,,,,,,,,,,9.0,10.0,118.0,1.0,458.1020247999113,,,,,,,,,,,,,,,,,458.0868243000005,459.3014227999374,460.1011152999709,460.0850374000147,,,,,,,,,,,,,,,,,,,,,,,,,,,,,,,,,,,460.0874250999186,460.1011152999709,460.1011152999709,460.618457900011,r,1.0,0.5066159999696538,,,,,sub-201,1,stroop_test,59.70552042793784,
,,,,119.0,11.0,9.0,,,,,,,,,,,,,blau,blue,b,1.0,b,1.0,0.6790554999606684,,,,,,,,,,9.0,11.0,119.0,6.0,460.6339677999495,,,,,,,,,,,,,,,,,460.6188353999751,460.7339370999253,461.5339313999284,461.51722659997176,,,,,,,,,,,,,,,,,,,,,,,,,,,,,,,,,,,461.5195626999485,461.5339313999284,461.5339313999284,462.21776229992975,b,1.0,0.6790554999606684,,,,,sub-201,1,stroop_test,59.70552042793784,
,,,,,,,,,,,,,,,,,,,,,,,,,,,,,,,,,,,,,,,,,,,,,,,,,,,,,,,,,,,,,,,,,,,,,,,,,,,,,,,,,,,,,,,,,,,,,,,,,,,,,,462.2179008999374,462.2331910999492,467.2307501999894,sub-201,1,stroop_test,59.70552042793784,
