wordCTK,colorCTK,corrAnsCTK,congruentCTK,thisN,thisTrialN,thisRepN,keyResp_CTK.keys,keyResp_CTK.corr,keyResp_CTK.rt,keyResp_CTK.duration,wordPractice,colorPractice,corrAnsPractice,congruentPractice,respPractice.keys,respPractice.corr,respPractice.rt,respPractice.duration,word,color,corrAns,congruent,keyResp_test_run.keys,keyResp_test_run.corr,keyResp_test_run.rt,keyResp_test_run.duration,trials_CTK.thisRepN,trials_CTK.thisTrialN,trials_CTK.thisN,trials_CTK.thisIndex,trials_practice.thisRepN,trials_practice.thisTrialN,trials_practice.thisN,trials_practice.thisIndex,trials_test.thisRepN,trials_test.thisTrialN,trials_test.thisN,trials_test.thisIndex,thisRow.t,notes,instruction.started,instr_text.started,instr_image.started,instr_resp.started,instruction.stopped,instr_resp.keys,instr_resp.rt,instr_resp.duration,instr_color_to_key.started,instr_ctk.started,resp_ctk.started,instr_color_to_key.stopped,resp_ctk.keys,resp_ctk.rt,resp_ctk.duration,ITI.started,fixcross.started,fixcross.stopped,ITI.stopped,color_to_key_run.started,stimulus_CTK.started,keyResp_CTK.started,color_to_key_run.stopped,trials_CTK.keyResp_CTK.keys,trials_CTK.keyResp_CTK.corr,trials_CTK.keyResp_CTK.rt,trials_CTK.keyResp_CTK.duration,instr_practice.started,instr_practice_text.started,instr_practice_resp.started,instr_practice.stopped,instr_practice_resp.keys,instr_practice_resp.rt,instr_practice_resp.duration,practice_run.started,stimulus_practice.started,respPractice.started,practice_run.stopped,trials_practice.respPractice.keys,trials_practice.respPractice.corr,trials_practice.respPractice.rt,trials_practice.respPractice.duration,feedback.started,textFeedback.started,feedback.stopped,textFeedback.stopped,instr_test.started,instr_test_text.started,instr_test_resp.started,instr_test.stopped,instr_test_resp.keys,instr_test_resp.rt,instr_test_resp.duration,test_run.started,stimulus_test_run.started,keyResp_test_run.started,test_run.stopped,trials_test.keyResp_test_run.keys,trials_test.keyResp_test_run.corr,trials_test.keyResp_test_run.rt,trials_test.keyResp_test_run.duration,goodbye.started,textGoodbye.started,goodbye.stopped,participant,session,expName,frameRate,Unnamed: 112
,,,,,,,,,,,,,,,,,,,,,,,,,,,,,,,,,,,,,,,,,0.0031096000166144,0.0692055000108666,0.0692055000108666,0.0692055000108666,22.579458400025032,space,22.38055159998476,,,,,,,,,,,,,,,,,,,,,,,,,,,,,,,,,,,,,,,,,,,,,,,,,,,,,,,,,,sub-216,1,stroop_test,59.90430885715196,
,,,,,,,,,,,,,,,,,,,,,,,,,,,,,,,,,,,,,,,,,,,,,,,,,22.57953800001997,22.584345600014785,22.584345600014785,28.804804000013974,space,6.212229600001592,,,,,,,,,,,,,,,,,,,,,,,,,,,,,,,,,,,,,,,,,,,,,,,,,,,sub-216,1,stroop_test,59.90430885715196,
test,red,r,1.0,0.0,0.0,0.0,r,1.0,0.95663489997969,,,,,,,,,,,,,,,,,,0.0,0.0,0.0,0.0,,,,,,,,,28.856568600022,,,,,,,,,,,,,,,,,28.852570500021105,30.02009900001576,30.82135790001485,30.805270900018517,30.815649900003336,30.82135790001485,30.82135790001485,31.79042279999703,r,1.0,0.95663489997969,,,,,,,,,,,,,,,,,,,,,,,,,,,,,,,,,,,,,,,sub-216,1,stroop_test,59.90430885715196,
test,blue,b,1.0,1.0,1.0,0.0,b,1.0,0.8930112000089139,,,,,,,,,,,,,,,,,,0.0,1.0,1.0,2.0,,,,,,,,,31.804897499998333,,,,,,,,,,,,,,,,,31.79088360001333,32.60566120001022,33.40626250000787,33.39080890000332,33.3914506000001,33.40626250000787,33.40626250000787,34.309018100000685,b,1.0,0.8930112000089139,,,,,,,,,,,,,,,,,,,,,,,,,,,,,,,,,,,,,,,sub-216,1,stroop_test,59.90430885715196,
test,yellow,g,1.0,2.0,2.0,0.0,g,1.0,0.663548600015929,,,,,,,,,,,,,,,,,,0.0,2.0,2.0,1.0,,,,,,,,,34.32359010001528,,,,,,,,,,,,,,,,,34.309458400006406,34.67404430001625,35.47485480000614,35.459179700003006,35.4598004000145,35.47485480000614,35.47485480000614,36.143908199999714,g,1.0,0.663548600015929,,,,,,,,,,,,,,,,,,,,,,,,,,,,,,,,,,,,,,,sub-216,1,stroop_test,59.90430885715196,
test,red,r,1.0,3.0,0.0,1.0,r,1.0,0.5491553999891039,,,,,,,,,,,,,,,,,,1.0,0.0,3.0,0.0,,,,,,,,,36.15860100000282,,,,,,,,,,,,,,,,,36.14432710001711,36.25858570000855,37.05953220001538,37.04395849999855,37.04458230000455,37.05953220001538,37.05953220001538,37.611467000009725,r,1.0,0.5491553999891039,,,,,,,,,,,,,,,,,,,,,,,,,,,,,,,,,,,,,,,sub-216,1,stroop_test,59.90430885715196,
test,yellow,g,1.0,4.0,1.0,1.0,g,1.0,1.1085161000082735,,,,,,,,,,,,,,,,,,1.0,1.0,4.0,1.0,,,,,,,,,37.62641180001083,,,,,,,,,,,,,,,,,37.61193450001883,38.81061960000079,39.61160870001186,39.5959316000226,39.5965484000044,39.61160870001186,39.61160870001186,40.73104160002549,g,1.0,1.1085161000082735,,,,,,,,,,,,,,,,,,,,,,,,,,,,,,,,,,,,,,,sub-216,1,stroop_test,59.90430885715196,
test,blue,b,1.0,5.0,2.0,1.0,b,1.0,0.6412003000150435,,,,,,,,,,,,,,,,,,1.0,2.0,5.0,2.0,,,,,,,,,40.74568320001708,,,,,,,,,,,,,,,,,40.73146090001683,41.096117100009,41.89663440000732,41.88116820002324,41.88183580001351,41.89663440000732,41.89663440000732,42.549168600002304,b,1.0,0.6412003000150435,,,,,,,,,,,,,,,,,,,,,,,,,,,,,,,,,,,,,,,sub-216,1,stroop_test,59.90430885715196,
test,blue,b,1.0,6.0,0.0,2.0,b,1.0,0.5261099000053946,,,,,,,,,,,,,,,,,,2.0,0.0,6.0,2.0,,,,,,,,,42.56385830001091,,,,,,,,,,,,,,,,,42.54960749999736,43.36460990001797,44.16505830001552,44.14970910002012,44.15039300001808,44.16505830001552,44.16505830001552,44.70085850000032,b,1.0,0.5261099000053946,,,,,,,,,,,,,,,,,,,,,,,,,,,,,,,,,,,,,,,sub-216,1,stroop_test,59.90430885715196,
test,red,r,1.0,7.0,1.0,2.0,r,1.0,0.537316700007068,,,,,,,,,,,,,,,,,,2.0,1.0,7.0,0.0,,,,,,,,,44.71567780000623,,,,,,,,,,,,,,,,,44.70141910001985,45.516431099997135,46.31700830001501,46.301433100015856,46.302407100010896,46.31700830001501,46.31700830001501,46.86938300001202,r,1.0,0.537316700007068,,,,,,,,,,,,,,,,,,,,,,,,,,,,,,,,,,,,,,,sub-216,1,stroop_test,59.90430885715196,
test,yellow,g,1.0,8.0,2.0,2.0,g,1.0,0.4249873000080697,,,,,,,,,,,,,,,,,,2.0,2.0,8.0,1.0,,,,,,,,,46.88418910000473,,,,,,,,,,,,,,,,,46.86981490001199,48.08503149999888,48.8858470999985,48.870249200001126,48.87092770001618,48.8858470999985,48.8858470999985,49.32156229999964,g,1.0,0.4249873000080697,,,,,,,,,,,,,,,,,,,,,,,,,,,,,,,,,,,,,,,sub-216,1,stroop_test,59.90430885715196,
test,yellow,g,1.0,9.0,0.0,3.0,g,1.0,0.4377783999952953,,,,,,,,,,,,,,,,,,3.0,0.0,9.0,1.0,,,,,,,,,49.33607680001296,,,,,,,,,,,,,,,,,49.322004200017545,50.136778900021454,50.937620400014566,50.92197700001998,50.92265340001904,50.937620400014566,50.937620400014566,51.38953460002085,g,1.0,0.4377783999952953,,,,,,,,,,,,,,,,,,,,,,,,,,,,,,,,,,,,,,,sub-216,1,stroop_test,59.90430885715196,
test,blue,b,1.0,10.0,1.0,3.0,b,1.0,0.4443404999910854,,,,,,,,,,,,,,,,,,3.0,1.0,10.0,2.0,,,,,,,,,51.404539500013925,,,,,,,,,,,,,,,,,51.3899536000099,52.20535210001981,53.00583370000823,52.990385100012645,52.99103689999902,53.00583370000823,53.00583370000823,53.45838039999944,b,1.0,0.4443404999910854,,,,,,,,,,,,,,,,,,,,,,,,,,,,,,,,,,,,,,,sub-216,1,stroop_test,59.90430885715196,
test,red,r,1.0,11.0,2.0,3.0,r,1.0,0.6374388999829534,,,,,,,,,,,,,,,,,,3.0,2.0,11.0,0.0,,,,,,,,,53.472923000023,,,,,,,,,,,,,,,,,53.45882950001396,53.57301020002342,54.37346770000295,54.35769590002019,54.35816400000476,54.37346770000295,54.37346770000295,55.02625510000507,r,1.0,0.6374388999829534,,,,,,,,,,,,,,,,,,,,,,,,,,,,,,,,,,,,,,,sub-216,1,stroop_test,59.90430885715196,
,,,,,,,,,,,,,,,,,,,,,,,,,,,,,,,,,,,,,,,,,,,,,,,,,,,,,,,,,,,,,,,,,,,,55.026449400000274,55.04078870001831,55.04078870001831,60.16436570000951,space,5.121452999999747,,,,,,,,,,,,,,,,,,,,,,,,,,,,,,,,sub-216,1,stroop_test,59.90430885715196,
,,,,0.0,0.0,0.0,,,,,blau,blue,b,1.0,b,1.0,0.6343921000079717,,,,,,,,,,,,,,0.0,0.0,0.0,6.0,,,,,60.20729280001251,,,,,,,,,,,,,,,,,60.2030060000252,60.97913430002518,61.78088980002212,61.76423820000491,,,,,,,,,,,,,,,,61.77487700001802,61.78088980002212,61.78088980002212,62.43225569999777,b,1.0,0.6343921000079717,,62.44673000002513,62.452914800000144,63.44810540002072,,,,,,,,,,,,,,,,,,,,sub-216,1,stroop_test,59.90430885715196,
,,,,1.0,1.0,0.0,,,,,gelb,red,r,0.0,g,0.0,0.6314301999809686,,,,,,,,,,,,,,0.0,1.0,1.0,8.0,,,,,63.46466980001424,,,,,,,,,,,,,,,,,63.44857360000606,64.63202950000414,65.43285360001028,65.41707980001229,,,,,,,,,,,,,,,,65.42187570000533,65.43285360001028,65.43285360001028,66.06881290001911,g,0.0,0.6314301999809686,,66.07703820001916,66.08433949999744,67.06884310001624,67.08420730000944,,,,,,,,,,,,,,,,,,,sub-216,1,stroop_test,59.90430885715196,
,,,,2.0,2.0,0.0,,,,,rot,yellow,g,0.0,g,1.0,1.1834900999965612,,,,,,,,,,,,,,0.0,2.0,2.0,3.0,,,,,67.08420730000944,,,,,,,,,,,,,,,,,67.06928150000749,67.4346742000198,68.2350927000225,68.21968560002279,,,,,,,,,,,,,,,,68.22711840001284,68.2350927000225,68.2350927000225,69.42180400001234,g,1.0,1.1834900999965612,,69.42698240000755,69.4359844000137,70.42180080001708,70.43704340001568,,,,,,,,,,,,,,,,,,,sub-216,1,stroop_test,59.90430885715196,
,,,,3.0,3.0,0.0,,,,,blau,red,r,0.0,r,1.0,1.015039699996123,,,,,,,,,,,,,,0.0,3.0,3.0,4.0,,,,,70.43704340001568,,,,,,,,,,,,,,,,,70.4222160000063,71.22097980001126,72.02161190001061,72.0061088000075,,,,,,,,,,,,,,,,72.01101230000495,72.02161190001061,72.02161190001061,73.04164390001097,r,1.0,1.015039699996123,,73.04229390001274,73.05588060000446,74.0412045000121,74.05663860001368,,,,,,,,,,,,,,,,,,,sub-216,1,stroop_test,59.90430885715196,
,,,,4.0,4.0,0.0,,,,,blau,blue,b,1.0,b,1.0,0.9626633999869229,,,,,,,,,,,,,,0.0,4.0,4.0,5.0,,,,,74.05663860001368,,,,,,,,,,,,,,,,,74.04161539999768,75.24103689999902,76.04157220001798,76.02627180001582,,,,,,,,,,,,,,,,76.02689680000185,76.04157220001798,76.04157220001798,77.01120320000337,b,1.0,0.9626633999869229,,77.01188740000362,77.02581449999707,78.011209600023,78.02667890000157,,,,,,,,,,,,,,,,,,,sub-216,1,stroop_test,59.90430885715196,
,,,,5.0,5.0,0.0,,,,,gelb,yellow,g,1.0,g,1.0,1.4312307000218425,,,,,,,,,,,,,,0.0,5.0,5.0,11.0,,,,,78.02667890000157,,,,,,,,,,,,,,,,,78.01161330001196,78.81074720001197,79.61126920001698,79.59589090000372,,,,,,,,,,,,,,,,79.60089440000593,79.61126920001698,79.61126920001698,81.04790710000088,g,1.0,1.4312307000218425,,81.04856230001315,81.0625383000006,82.0480033000058,82.06312970002182,,,,,,,,,,,,,,,,,,,sub-216,1,stroop_test,59.90430885715196,
,,,,6.0,6.0,0.0,,,,,gelb,yellow,g,1.0,g,1.0,0.730599299975438,,,,,,,,,,,,,,0.0,6.0,6.0,10.0,,,,,82.06312970002182,,,,,,,,,,,,,,,,,82.04842200002167,82.41350260001491,83.21452270000009,83.19856060002348,,,,,,,,,,,,,,,,83.1992612000031,83.21452270000009,83.21452270000009,83.95023700001184,g,1.0,0.730599299975438,,83.95089570002165,83.96513760002563,84.95026280000457,84.96561060001841,,,,,,,,,,,,,,,,,,,sub-216,1,stroop_test,59.90430885715196,
,,,,7.0,7.0,0.0,,,,,rot,red,r,1.0,r,1.0,0.4852052000060212,,,,,,,,,,,,,,0.0,7.0,7.0,1.0,,,,,84.96561060001841,,,,,,,,,,,,,,,,,84.95069520000834,86.15001100001973,86.95056650001789,86.93518719999702,,,,,,,,,,,,,,,,86.9421325000003,86.95056650001789,86.95056650001789,87.45300580002367,r,1.0,0.4852052000060212,,87.45370800001547,87.4679790000082,88.45296940000844,88.46836790000089,,,,,,,,,,,,,,,,,,,sub-216,1,stroop_test,59.90430885715196,
,,,,8.0,8.0,0.0,,,,,blau,yellow,g,0.0,g,1.0,0.9738723000045866,,,,,,,,,,,,,,0.0,8.0,8.0,7.0,,,,,88.46836790000089,,,,,,,,,,,,,,,,,88.45338310001534,88.80224390001968,89.6028132000065,89.58740530000068,,,,,,,,,,,,,,,,89.59149810002418,89.6028132000065,89.6028132000065,90.58909390002373,g,1.0,0.9738723000045866,,90.58979030000046,90.60379500000272,91.58903670002474,91.60454140001092,,,,,,,,,,,,,,,,,,,sub-216,1,stroop_test,59.90430885715196,
,,,,9.0,9.0,0.0,,,,,rot,red,r,1.0,r,1.0,0.9413349000096788,,,,,,,,,,,,,,0.0,9.0,9.0,0.0,,,,,91.60454140001092,,,,,,,,,,,,,,,,,91.58951400002115,91.95480090001364,92.755532900017,92.7401766999974,,,,,,,,,,,,,,,,92.7454319000244,92.755532900017,92.755532900017,93.70828800002346,r,1.0,0.9413349000096788,,93.70896220000576,93.72300610001548,94.7083518000145,94.72353220000514,,,,,,,,,,,,,,,,,,,sub-216,1,stroop_test,59.90430885715196,
,,,,10.0,10.0,0.0,,,,,rot,blue,b,0.0,b,1.0,0.9413997000083328,,,,,,,,,,,,,,0.0,10.0,10.0,2.0,,,,,94.72353220000514,,,,,,,,,,,,,,,,,94.70875950000482,95.90792050000164,96.70882530001109,96.69324030002464,,,,,,,,,,,,,,,,96.69386020000093,96.70882530001109,96.70882530001109,97.66165680001724,b,1.0,0.9413997000083328,,97.66268990002573,97.67626279999968,98.66183090000412,98.6769908000133,,,,,,,,,,,,,,,,,,,sub-216,1,stroop_test,59.90430885715196,
,,,,11.0,11.0,0.0,,,,,gelb,blue,b,0.0,b,1.0,0.9496405000099912,,,,,,,,,,,,,,0.0,11.0,11.0,9.0,,,,,98.6769908000133,,,,,,,,,,,,,,,,,98.66228270001012,98.777153300005,99.57779219999792,99.56240850000177,,,,,,,,,,,,,,,,99.56751470000016,99.57779219999792,99.57779219999792,100.53062610002236,b,1.0,0.9496405000099912,,100.53130670002427,100.54506400000535,101.53117810000548,101.54591730001266,,,,,,,,,,,,,,,,,,,sub-216,1,stroop_test,59.90430885715196,
,,,,12.0,0.0,1.0,,,,,gelb,blue,b,0.0,b,1.0,0.6662049000151455,,,,,,,,,,,,,,1.0,0.0,12.0,9.0,,,,,101.54591730001266,,,,,,,,,,,,,,,,,101.53162940000766,101.64622250001412,102.44679050002014,102.43143430000056,,,,,,,,,,,,,,,,102.43206300001476,102.44679050002014,102.44679050002014,103.11626239999896,b,1.0,0.6662049000151455,,103.1169730000256,103.1308387000172,104.11615120002534,104.13155370001914,,,,,,,,,,,,,,,,,,,sub-216,1,stroop_test,59.90430885715196,
,,,,13.0,1.0,1.0,,,,,gelb,red,r,0.0,r,1.0,0.9000026999856345,,,,,,,,,,,,,,1.0,1.0,13.0,8.0,,,,,104.13155370001914,,,,,,,,,,,,,,,,,104.11660890001804,104.91555700000026,105.71618430002128,105.70069730002432,,,,,,,,,,,,,,,,105.70142759999726,105.71618430002128,105.71618430002128,106.61913010000715,r,1.0,0.9000026999856345,,106.61980070002028,106.63374240000849,107.61930380002012,107.63452130000223,,,,,,,,,,,,,,,,,,,sub-216,1,stroop_test,59.90430885715196,
,,,,14.0,2.0,1.0,,,,,blau,blue,b,1.0,b,1.0,0.7946601000148803,,,,,,,,,,,,,,1.0,2.0,14.0,6.0,,,,,107.63452130000223,,,,,,,,,,,,,,,,,107.61972700001206,107.98486920000867,108.7855218000186,108.76984980000998,,,,,,,,,,,,,,,,108.77383479999844,108.7855218000186,108.7855218000186,109.58829390001485,b,1.0,0.7946601000148803,,109.58897230000002,109.6029110000236,110.58815690001938,110.60356590000448,,,,,,,,,,,,,,,,,,,sub-216,1,stroop_test,59.90430885715196,
,,,,15.0,3.0,1.0,,,,,rot,yellow,g,0.0,g,1.0,0.7358806999982335,,,,,,,,,,,,,,1.0,3.0,15.0,3.0,,,,,110.60356590000448,,,,,,,,,,,,,,,,,110.58858730000792,110.70379349999712,111.504277,111.48901380001917,,,,,,,,,,,,,,,,111.49392990002524,111.504277,111.504277,112.25699170000736,g,1.0,0.7358806999982335,,112.25769200001378,112.27151580000644,113.25700569999752,113.27254400000676,,,,,,,,,,,,,,,,,,,sub-216,1,stroop_test,59.90430885715196,
,,,,16.0,4.0,1.0,,,,,gelb,yellow,g,1.0,g,1.0,0.5661670999834314,,,,,,,,,,,,,,1.0,4.0,16.0,10.0,,,,,113.27254400000676,,,,,,,,,,,,,,,,,113.25742180002273,113.60618870001052,114.40666390000844,114.39138860002276,,,,,,,,,,,,,,,,114.39702240002224,114.40666390000844,114.40666390000844,114.97605950001162,g,1.0,0.5661670999834314,,114.97672580002109,114.99063600000228,115.9759558000078,115.99146840002504,,,,,,,,,,,,,,,,,,,sub-216,1,stroop_test,59.90430885715196,
,,,,17.0,5.0,1.0,,,,,blau,blue,b,1.0,b,1.0,0.63994689998799,,,,,,,,,,,,,,1.0,5.0,17.0,5.0,,,,,115.99146840002504,,,,,,,,,,,,,,,,,115.97640760001376,116.77556590002496,117.576048500021,117.56058869999832,,,,,,,,,,,,,,,,117.5645230000082,117.576048500021,117.576048500021,118.22871960001066,b,1.0,0.63994689998799,,118.22939230001066,118.24330170001484,119.22871830000076,119.2441794000042,,,,,,,,,,,,,,,,,,,sub-216,1,stroop_test,59.90430885715196,
,,,,18.0,6.0,1.0,,,,,gelb,yellow,g,1.0,g,1.0,0.5721660999988671,,,,,,,,,,,,,,1.0,6.0,18.0,11.0,,,,,119.2441794000042,,,,,,,,,,,,,,,,,119.22913730001892,119.34416930002044,120.14489730002242,120.12924530002056,,,,,,,,,,,,,,,,120.13426640001126,120.14489730002242,120.14489730002242,120.73081920002004,g,1.0,0.5721660999988671,,120.73149140001624,120.7454360999982,121.73080300001313,121.7461098000058,,,,,,,,,,,,,,,,,,,sub-216,1,stroop_test,59.90430885715196,
,,,,19.0,7.0,1.0,,,,,rot,blue,b,0.0,b,1.0,0.6919342000037432,,,,,,,,,,,,,,1.0,7.0,19.0,2.0,,,,,121.7461098000058,,,,,,,,,,,,,,,,,121.73126339999726,122.93059170001652,123.73112690000562,123.71570950001478,,,,,,,,,,,,,,,,123.72086240001954,123.73112690000562,123.73112690000562,124.4340574000089,b,1.0,0.6919342000037432,,124.43476160001592,124.4483986000123,125.4334072000056,125.44894560001558,,,,,,,,,,,,,,,,,,,sub-216,1,stroop_test,59.90430885715196,
,,,,20.0,8.0,1.0,,,,,rot,red,r,1.0,b,0.0,0.6462503999937326,,,,,,,,,,,,,,1.0,8.0,20.0,1.0,,,,,125.44894560001558,,,,,,,,,,,,,,,,,125.43386260000987,125.79972430001362,126.60031860001618,126.58469650000916,,,,,,,,,,,,,,,,126.58536399999866,126.60031860001618,126.60031860001618,127.25285820002318,b,0.0,0.6462503999937326,,127.2586671000172,127.26732100002118,128.25292590001482,128.26837000000523,,,,,,,,,,,,,,,,,,,sub-216,1,stroop_test,59.90430885715196,
,,,,21.0,9.0,1.0,,,,,blau,red,r,0.0,r,1.0,0.8595929000002798,,,,,,,,,,,,,,1.0,9.0,21.0,4.0,,,,,128.26837000000523,,,,,,,,,,,,,,,,,128.25334310001926,129.4528130000108,130.25333400000818,130.2378269000037,,,,,,,,,,,,,,,,130.2427994000027,130.25333400000818,130.25333400000818,131.12242330002482,r,1.0,0.8595929000002798,,131.12803750002058,131.1374460000079,132.1226140000217,132.13802520002355,,,,,,,,,,,,,,,,,,,sub-216,1,stroop_test,59.90430885715196,
,,,,22.0,10.0,1.0,,,,,blau,yellow,g,0.0,g,1.0,0.8045826000161469,,,,,,,,,,,,,,1.0,10.0,22.0,7.0,,,,,132.13802520002355,,,,,,,,,,,,,,,,,132.12315910001053,133.32242000001133,134.1228492000082,134.1076669000031,,,,,,,,,,,,,,,,134.1083207000047,134.1228492000082,134.1228492000082,134.94221300000208,g,1.0,0.8045826000161469,,134.9432093000214,134.95732070002123,135.94180790000246,135.95797860002494,,,,,,,,,,,,,,,,,,,sub-216,1,stroop_test,59.90430885715196,
,,,,23.0,11.0,1.0,,,,,rot,red,r,1.0,r,1.0,0.702123000024585,,,,,,,,,,,,,,1.0,11.0,23.0,0.0,,,,,135.95797860002494,,,,,,,,,,,,,,,,,135.9422470999998,136.75849740000558,137.55938230000902,137.54369130000123,,,,,,,,,,,,,,,,137.5483086000022,137.55938230000902,137.55938230000902,138.2784899000253,r,1.0,0.702123000024585,,138.27919719999772,138.29377230000682,139.27862379999715,139.29404600002454,,,,,,,,,,,,,,,,,,,sub-216,1,stroop_test,59.90430885715196,
,,,,,,,,,,,,,,,,,,,,,,,,,,,,,,,,,,,,,,,,,,,,,,,,,,,,,,,,,,,,,,,,,,,,,,,,,,,,,,,,,,,,,,,139.27878880000208,139.29404600002454,139.29404600002454,142.6492741999973,space,3.3384111000050325,,,,,,,,,,,,,sub-216,1,stroop_test,59.90430885715196,
,,,,0.0,0.0,0.0,,,,,,,,,,,,,gelb,yellow,g,1.0,g,1.0,0.7498653999937233,,,,,,,,,,0.0,0.0,0.0,11.0,142.6914214999997,,,,,,,,,,,,,,,,,142.68771070000366,143.86465339999995,144.66642240001238,144.64993790001608,,,,,,,,,,,,,,,,,,,,,,,,,,,,,,,,,,,144.65803000002052,144.66642240001238,144.66642240001238,145.4181726000097,g,1.0,0.7498653999937233,,,,,sub-216,1,stroop_test,59.90430885715196,
,,,,1.0,1.0,0.0,,,,,,,,,,,,,blau,yellow,g,0.0,g,1.0,0.7355394999904092,,,,,,,,,,0.0,1.0,1.0,7.0,145.43242009999813,,,,,,,,,,,,,,,,,145.41864640000858,145.78289380000206,146.58354210000834,146.56797470001038,,,,,,,,,,,,,,,,,,,,,,,,,,,,,,,,,,,146.5719888000167,146.58354210000834,146.58354210000834,147.33614700002363,g,1.0,0.7355394999904092,,,,,sub-216,1,stroop_test,59.90430885715196,
,,,,2.0,2.0,0.0,,,,,,,,,,,,,rot,blue,b,0.0,r,0.0,0.6994490000070073,,,,,,,,,,0.0,2.0,2.0,2.0,147.35082220000913,,,,,,,,,,,,,,,,,147.33664190000854,148.15140880001127,148.95213140000124,148.9365867000015,,,,,,,,,,,,,,,,,,,,,,,,,,,,,,,,,,,148.9433441000001,148.95213140000124,148.95213140000124,149.65489190001972,r,0.0,0.6994490000070073,,,,,sub-216,1,stroop_test,59.90430885715196,
,,,,3.0,3.0,0.0,,,,,,,,,,,,,gelb,blue,b,0.0,b,1.0,0.9002711000212003,,,,,,,,,,0.0,3.0,3.0,9.0,149.66922710000654,,,,,,,,,,,,,,,,,149.65535139999702,150.01962910001748,150.82037520001177,150.80478500001482,,,,,,,,,,,,,,,,,,,,,,,,,,,,,,,,,,,150.80959910000092,150.82037520001177,150.82037520001177,151.72283340001013,b,1.0,0.9002711000212003,,,,,sub-216,1,stroop_test,59.90430885715196,
,,,,4.0,4.0,0.0,,,,,,,,,,,,,blau,blue,b,1.0,b,1.0,0.6818293999822345,,,,,,,,,,0.0,4.0,4.0,5.0,151.73744180001086,,,,,,,,,,,,,,,,,151.72338450001553,152.9385087999981,153.739533200016,153.72385280000162,,,,,,,,,,,,,,,,,,,,,,,,,,,,,,,,,,,153.72776550002163,153.739533200016,153.739533200016,154.42542610000237,b,1.0,0.6818293999822345,,,,,sub-216,1,stroop_test,59.90430885715196,
,,,,5.0,5.0,0.0,,,,,,,,,,,,,blau,blue,b,1.0,b,1.0,0.4798020000162069,,,,,,,,,,0.0,5.0,5.0,6.0,154.4399419000256,,,,,,,,,,,,,,,,,154.42605300000287,155.64076140001998,156.4418500000029,156.42630869999994,,,,,,,,,,,,,,,,,,,,,,,,,,,,,,,,,,,156.42695780002396,156.4418500000029,156.4418500000029,156.92768800002523,b,1.0,0.4798020000162069,,,,,sub-216,1,stroop_test,59.90430885715196,
,,,,6.0,6.0,0.0,,,,,,,,,,,,,blau,red,r,0.0,r,1.0,0.8658579000039026,,,,,,,,,,0.0,6.0,6.0,4.0,156.94192380001186,,,,,,,,,,,,,,,,,156.92838670001947,157.2924503000104,158.09308570000576,158.07755860002362,,,,,,,,,,,,,,,,,,,,,,,,,,,,,,,,,,,158.07818150002277,158.09308570000576,158.09308570000576,158.96272239999962,r,1.0,0.8658579000039026,,,,,sub-216,1,stroop_test,59.90430885715196,
,,,,7.0,7.0,0.0,,,,,,,,,,,,,rot,yellow,g,0.0,g,1.0,0.5827585999795701,,,,,,,,,,0.0,7.0,7.0,3.0,158.97710509999888,,,,,,,,,,,,,,,,,158.96320620001643,160.17810990000726,160.97872710000956,160.96347550000064,,,,,,,,,,,,,,,,,,,,,,,,,,,,,,,,,,,160.96866530002444,160.97872710000956,160.97872710000956,161.56460520002292,g,1.0,0.5827585999795701,,,,,sub-216,1,stroop_test,59.90430885715196,
,,,,8.0,8.0,0.0,,,,,,,,,,,,,gelb,red,r,0.0,r,1.0,0.8025587000011001,,,,,,,,,,0.0,8.0,8.0,8.0,161.57916600001045,,,,,,,,,,,,,,,,,161.56507630000124,162.78028490001452,163.5808090000064,163.5653527000104,,,,,,,,,,,,,,,,,,,,,,,,,,,,,,,,,,,163.5708283999993,163.5808090000064,163.5808090000064,164.40007260002312,r,1.0,0.8025587000011001,,,,,sub-216,1,stroop_test,59.90430885715196,
,,,,9.0,9.0,0.0,,,,,,,,,,,,,gelb,yellow,g,1.0,g,1.0,0.6242478999774903,,,,,,,,,,0.0,9.0,9.0,10.0,164.4148862000147,,,,,,,,,,,,,,,,,164.40054580001743,165.61597740001162,166.41640570000163,166.40096020000055,,,,,,,,,,,,,,,,,,,,,,,,,,,,,,,,,,,166.40158950001933,166.41640570000163,166.41640570000163,167.05259950002073,g,1.0,0.6242478999774903,,,,,sub-216,1,stroop_test,59.90430885715196,
,,,,10.0,10.0,0.0,,,,,,,,,,,,,rot,red,r,1.0,r,1.0,0.6897221999824978,,,,,,,,,,0.0,10.0,10.0,0.0,167.06704439999885,,,,,,,,,,,,,,,,,167.0530689000152,167.4174420000054,168.28347210001084,168.2025346000155,,,,,,,,,,,,,,,,,,,,,,,,,,,,,,,,,,,168.2790451000037,168.28347210001084,168.28347210001084,168.98728950001532,r,1.0,0.6897221999824978,,,,,sub-216,1,stroop_test,59.90430885715196,
,,,,11.0,11.0,0.0,,,,,,,,,,,,,rot,red,r,1.0,r,1.0,0.6168012999987695,,,,,,,,,,0.0,11.0,11.0,1.0,169.0019947999972,,,,,,,,,,,,,,,,,168.98776160000125,169.80275030000485,170.60338690000935,170.5877059000195,,,,,,,,,,,,,,,,,,,,,,,,,,,,,,,,,,,170.58831849999842,170.60338690000935,170.60338690000935,171.22295520000625,r,1.0,0.6168012999987695,,,,,sub-216,1,stroop_test,59.90430885715196,
,,,,12.0,0.0,1.0,,,,,,,,,,,,,gelb,yellow,g,1.0,g,1.0,0.5762359999935143,,,,,,,,,,1.0,0.0,12.0,11.0,171.2373498000088,,,,,,,,,,,,,,,,,171.2236009000044,172.43829499999993,173.2390551000135,173.22344359999988,,,,,,,,,,,,,,,,,,,,,,,,,,,,,,,,,,,173.2283462000196,173.2390551000135,173.2390551000135,173.8246728000231,g,1.0,0.5762359999935143,,,,,sub-216,1,stroop_test,59.90430885715196,
,,,,13.0,1.0,1.0,,,,,,,,,,,,,blau,blue,b,1.0,b,1.0,0.4694663000118453,,,,,,,,,,1.0,1.0,13.0,5.0,173.83928480002214,,,,,,,,,,,,,,,,,173.8251458000159,174.64009710002574,175.44060010000248,175.4253422000038,,,,,,,,,,,,,,,,,,,,,,,,,,,,,,,,,,,175.42921270002262,175.44060010000248,175.44060010000248,175.92636300000595,b,1.0,0.4694663000118453,,,,,sub-216,1,stroop_test,59.90430885715196,
,,,,14.0,2.0,1.0,,,,,,,,,,,,,rot,red,r,1.0,r,1.0,0.5764799000171479,,,,,,,,,,1.0,2.0,14.0,1.0,175.94110710002133,,,,,,,,,,,,,,,,,175.92683770001167,176.04106940000202,176.84181300000637,176.82636010000715,,,,,,,,,,,,,,,,,,,,,,,,,,,,,,,,,,,176.83191060001263,176.84181300000637,176.84181300000637,177.42744650001987,r,1.0,0.5764799000171479,,,,,sub-216,1,stroop_test,59.90430885715196,
,,,,15.0,3.0,1.0,,,,,,,,,,,,,blau,red,r,0.0,r,1.0,0.7933489999850281,,,,,,,,,,1.0,3.0,15.0,4.0,177.44231040001614,,,,,,,,,,,,,,,,,177.42809130001115,178.24300570000196,179.04379890000564,179.0282278000086,,,,,,,,,,,,,,,,,,,,,,,,,,,,,,,,,,,179.03210360000958,179.04379890000564,179.04379890000564,179.8463515000185,r,1.0,0.7933489999850281,,,,,sub-216,1,stroop_test,59.90430885715196,
,,,,16.0,4.0,1.0,,,,,,,,,,,,,rot,red,r,1.0,r,1.0,0.4469748999981675,,,,,,,,,,1.0,4.0,16.0,0.0,179.86114200000884,,,,,,,,,,,,,,,,,179.84685180001543,181.06224580001435,181.86267860000956,181.84716289999776,,,,,,,,,,,,,,,,,,,,,,,,,,,,,,,,,,,181.8521568000142,181.86267860000956,181.86267860000956,182.31511280001723,r,1.0,0.4469748999981675,,,,,sub-216,1,stroop_test,59.90430885715196,
,,,,17.0,5.0,1.0,,,,,,,,,,,,,gelb,red,r,0.0,g,0.0,0.615005800005747,,,,,,,,,,1.0,5.0,17.0,8.0,182.3297816000122,,,,,,,,,,,,,,,,,182.31560610001907,183.53056199999992,184.33153100000345,184.31609560002107,,,,,,,,,,,,,,,,,,,,,,,,,,,,,,,,,,,184.3210315000033,184.33153100000345,184.33153100000345,184.95083300000988,g,0.0,0.615005800005747,,,,,sub-216,1,stroop_test,59.90430885715196,
,,,,18.0,6.0,1.0,,,,,,,,,,,,,gelb,yellow,g,1.0,g,1.0,0.5240053000161424,,,,,,,,,,1.0,6.0,18.0,10.0,184.965254300012,,,,,,,,,,,,,,,,,184.95132720001857,185.0652922000154,185.8661205000244,185.8505020000157,,,,,,,,,,,,,,,,,,,,,,,,,,,,,,,,,,,185.85112790000855,185.8661205000244,185.8661205000244,186.40200580001687,g,1.0,0.5240053000161424,,,,,sub-216,1,stroop_test,59.90430885715196,
,,,,19.0,7.0,1.0,,,,,,,,,,,,,rot,yellow,g,0.0,g,1.0,0.8556458999810275,,,,,,,,,,1.0,7.0,19.0,3.0,186.4163958000136,,,,,,,,,,,,,,,,,186.40252620002136,187.6174702999997,188.41821390000405,188.40279010002268,,,,,,,,,,,,,,,,,,,,,,,,,,,,,,,,,,,188.4075384000025,188.41821390000405,188.41821390000405,189.2873929000052,g,1.0,0.8556458999810275,,,,,sub-216,1,stroop_test,59.90430885715196,
,,,,20.0,8.0,1.0,,,,,,,,,,,,,blau,blue,b,1.0,b,1.0,0.6376116000174079,,,,,,,,,,1.0,8.0,20.0,6.0,189.30209110002036,,,,,,,,,,,,,,,,,189.2878716000123,190.50317110001924,191.30383050002277,191.28837650001515,,,,,,,,,,,,,,,,,,,,,,,,,,,,,,,,,,,191.29286000001596,191.30383050002277,191.30383050002277,191.95667530002535,b,1.0,0.6376116000174079,,,,,sub-216,1,stroop_test,59.90430885715196,
,,,,21.0,9.0,1.0,,,,,,,,,,,,,gelb,blue,b,0.0,b,1.0,0.6537417999934405,,,,,,,,,,1.0,9.0,21.0,9.0,191.97104689999836,,,,,,,,,,,,,,,,,191.9571482000174,192.0710442000127,192.8715657000139,192.8559978000121,,,,,,,,,,,,,,,,,,,,,,,,,,,,,,,,,,,192.86146020001613,192.8715657000139,192.8715657000139,193.54122590000043,b,1.0,0.6537417999934405,,,,,sub-216,1,stroop_test,59.90430885715196,
,,,,22.0,10.0,1.0,,,,,,,,,,,,,blau,yellow,g,0.0,g,1.0,0.7322091000096407,,,,,,,,,,1.0,10.0,22.0,7.0,193.5557910000207,,,,,,,,,,,,,,,,,193.54172440001275,194.3563837000111,195.15707780001685,195.14147560001584,,,,,,,,,,,,,,,,,,,,,,,,,,,,,,,,,,,195.14566270000068,195.15707780001685,195.15707780001685,195.89222249999875,g,1.0,0.7322091000096407,,,,,sub-216,1,stroop_test,59.90430885715196,
,,,,23.0,11.0,1.0,,,,,,,,,,,,,rot,blue,b,0.0,b,1.0,1.010021299996879,,,,,,,,,,1.0,11.0,23.0,2.0,195.9074756000191,,,,,,,,,,,,,,,,,195.892663000006,197.0920639000251,197.8926718000148,197.87710300000617,,,,,,,,,,,,,,,,,,,,,,,,,,,,,,,,,,,197.8828992000199,197.8926718000148,197.8926718000148,198.9121144000092,b,1.0,1.010021299996879,,,,,sub-216,1,stroop_test,59.90430885715196,
,,,,24.0,0.0,2.0,,,,,,,,,,,,,blau,red,r,0.0,r,1.0,1.027378900005715,,,,,,,,,,2.0,0.0,24.0,4.0,198.9265837999992,,,,,,,,,,,,,,,,,198.912604800018,199.02693320001708,199.8277526000165,199.81207530002573,,,,,,,,,,,,,,,,,,,,,,,,,,,,,,,,,,,199.8159229000157,199.8277526000165,199.8277526000165,200.86366950001684,r,1.0,1.027378900005715,,,,,sub-216,1,stroop_test,59.90430885715196,
,,,,25.0,1.0,2.0,,,,,,,,,,,,,gelb,red,r,0.0,r,1.0,1.1827371999970635,,,,,,,,,,2.0,1.0,25.0,8.0,200.87848260000465,,,,,,,,,,,,,,,,,200.8642127000203,201.22865420000744,202.02949440001976,202.01413799999864,,,,,,,,,,,,,,,,,,,,,,,,,,,,,,,,,,,202.01967360000708,202.02949440001976,202.02949440001976,203.2157213000173,r,1.0,1.1827371999970635,,,,,sub-216,1,stroop_test,59.90430885715196,
,,,,26.0,2.0,2.0,,,,,,,,,,,,,rot,red,r,1.0,r,1.0,0.6603136000048835,,,,,,,,,,2.0,2.0,26.0,1.0,203.23010380001503,,,,,,,,,,,,,,,,,203.21634790001556,203.3306256000069,204.1311898000131,204.115701600007,,,,,,,,,,,,,,,,,,,,,,,,,,,,,,,,,,,204.12237170001023,204.1311898000131,204.1311898000131,204.80043060000756,r,1.0,0.6603136000048835,,,,,sub-216,1,stroop_test,59.90430885715196,
,,,,27.0,3.0,2.0,,,,,,,,,,,,,rot,yellow,g,0.0,g,1.0,0.7167799999879207,,,,,,,,,,2.0,3.0,27.0,3.0,204.81499660000557,,,,,,,,,,,,,,,,,204.80093360002505,205.6157729999977,206.41633040001037,206.40089869999792,,,,,,,,,,,,,,,,,,,,,,,,,,,,,,,,,,,206.40155910002068,206.41633040001037,206.41633040001037,207.13579860000755,g,1.0,0.7167799999879207,,,,,sub-216,1,stroop_test,59.90430885715196,
,,,,28.0,4.0,2.0,,,,,,,,,,,,,gelb,yellow,g,1.0,g,1.0,0.8672063000267372,,,,,,,,,,2.0,4.0,28.0,11.0,207.150410000002,,,,,,,,,,,,,,,,,207.136326900014,207.50066020002123,208.30111310002397,208.28549560002284,,,,,,,,,,,,,,,,,,,,,,,,,,,,,,,,,,,208.29012340001643,208.30111310002397,208.30111310002397,209.17082140001003,g,1.0,0.8672063000267372,,,,,sub-216,1,stroop_test,59.90430885715196,
,,,,29.0,5.0,2.0,,,,,,,,,,,,,gelb,blue,b,0.0,b,1.0,0.7408150999981444,,,,,,,,,,2.0,5.0,29.0,9.0,209.18542030002573,,,,,,,,,,,,,,,,,209.1713209000009,209.98622810002416,210.7867857000092,210.7712505000236,,,,,,,,,,,,,,,,,,,,,,,,,,,,,,,,,,,210.7719418000197,210.7867857000092,210.7867857000092,211.5392375000229,b,1.0,0.7408150999981444,,,,,sub-216,1,stroop_test,59.90430885715196,
,,,,30.0,6.0,2.0,,,,,,,,,,,,,gelb,yellow,g,1.0,g,1.0,0.6654980999883264,,,,,,,,,,2.0,6.0,30.0,10.0,211.55393439999895,,,,,,,,,,,,,,,,,211.5397959999973,212.3541379000235,213.155003300024,213.13957160001155,,,,,,,,,,,,,,,,,,,,,,,,,,,,,,,,,,,213.14019310000003,213.155003300024,213.155003300024,213.824197000009,g,1.0,0.6654980999883264,,,,,sub-216,1,stroop_test,59.90430885715196,
,,,,31.0,7.0,2.0,,,,,,,,,,,,,blau,blue,b,1.0,b,1.0,0.6469756999867968,,,,,,,,,,2.0,7.0,31.0,6.0,213.8391101000016,,,,,,,,,,,,,,,,,213.82484630000545,215.0235348000133,215.82418910000703,215.80878530000336,,,,,,,,,,,,,,,,,,,,,,,,,,,,,,,,,,,215.81275810001532,215.82418910000703,215.82418910000703,216.47660039999755,b,1.0,0.6469756999867968,,,,,sub-216,1,stroop_test,59.90430885715196,
,,,,32.0,8.0,2.0,,,,,,,,,,,,,rot,red,r,1.0,r,1.0,0.6182890000054613,,,,,,,,,,2.0,8.0,32.0,0.0,216.4910887000151,,,,,,,,,,,,,,,,,216.4772644000186,216.84166020000703,217.6424180000031,217.6268659000052,,,,,,,,,,,,,,,,,,,,,,,,,,,,,,,,,,,217.63225010002495,217.6424180000031,217.6424180000031,218.27800700001532,r,1.0,0.6182890000054613,,,,,sub-216,1,stroop_test,59.90430885715196,
,,,,33.0,9.0,2.0,,,,,,,,,,,,,blau,yellow,g,0.0,g,1.0,0.7366540000075474,,,,,,,,,,2.0,9.0,33.0,7.0,218.292560300004,,,,,,,,,,,,,,,,,218.27878530000453,218.64321370000837,219.44393130001845,219.42825590001303,,,,,,,,,,,,,,,,,,,,,,,,,,,,,,,,,,,219.432383700012,219.44393130001845,219.44393130001845,220.19652510000745,g,1.0,0.7366540000075474,,,,,sub-216,1,stroop_test,59.90430885715196,
,,,,34.0,10.0,2.0,,,,,,,,,,,,,blau,blue,b,1.0,b,1.0,0.5562852000002749,,,,,,,,,,2.0,10.0,34.0,5.0,220.21118760001264,,,,,,,,,,,,,,,,,220.1969958000118,221.41200940002452,222.2127305000031,222.19721850001952,,,,,,,,,,,,,,,,,,,,,,,,,,,,,,,,,,,222.19786600000225,222.2127305000031,222.2127305000031,222.78225960000415,b,1.0,0.5562852000002749,,,,,sub-216,1,stroop_test,59.90430885715196,
,,,,35.0,11.0,2.0,,,,,,,,,,,,,rot,blue,b,0.0,r,0.0,0.8984925000113435,,,,,,,,,,2.0,11.0,35.0,2.0,222.7966285000148,,,,,,,,,,,,,,,,,222.78288470002008,222.8966727000079,223.6971709000063,223.6816877000092,,,,,,,,,,,,,,,,,,,,,,,,,,,,,,,,,,,223.6871455000073,223.6971709000063,223.6971709000063,224.6001545000181,r,0.0,0.8984925000113435,,,,,sub-216,1,stroop_test,59.90430885715196,
,,,,36.0,0.0,3.0,,,,,,,,,,,,,gelb,blue,b,0.0,b,1.0,0.9877876999962608,,,,,,,,,,3.0,0.0,36.0,9.0,224.61478670002543,,,,,,,,,,,,,,,,,224.6006519000221,225.81580640000172,226.61664020002357,226.6008842000156,,,,,,,,,,,,,,,,,,,,,,,,,,,,,,,,,,,226.60576230002331,226.61664020002357,226.61664020002357,227.619737800007,b,1.0,0.9877876999962608,,,,,sub-216,1,stroop_test,59.90430885715196,
,,,,37.0,1.0,3.0,,,,,,,,,,,,,blau,yellow,g,0.0,g,1.0,0.7247070999874268,,,,,,,,,,3.0,1.0,37.0,7.0,227.6340813999996,,,,,,,,,,,,,,,,,227.62026070000135,227.73407500001483,228.5349431000068,228.5194032000145,,,,,,,,,,,,,,,,,,,,,,,,,,,,,,,,,,,228.5237190000189,228.5349431000068,228.5349431000068,229.2708158000023,g,1.0,0.7247070999874268,,,,,sub-216,1,stroop_test,59.90430885715196,
,,,,38.0,2.0,3.0,,,,,,,,,,,,,gelb,yellow,g,1.0,g,1.0,0.571615799999563,,,,,,,,,,3.0,2.0,38.0,11.0,229.2851373000012,,,,,,,,,,,,,,,,,229.2715393000108,230.08592179999687,230.88675380000493,230.87115620000984,,,,,,,,,,,,,,,,,,,,,,,,,,,,,,,,,,,230.87636560000828,230.88675380000493,230.88675380000493,231.47257610000088,g,1.0,0.571615799999563,,,,,sub-216,1,stroop_test,59.90430885715196,
,,,,39.0,3.0,3.0,,,,,,,,,,,,,rot,yellow,g,0.0,g,1.0,0.6643098999920767,,,,,,,,,,3.0,3.0,39.0,3.0,231.48715000000084,,,,,,,,,,,,,,,,,231.47306720001507,232.28784420000736,233.08843790000537,233.07312790001745,,,,,,,,,,,,,,,,,,,,,,,,,,,,,,,,,,,233.0782989000145,233.08843790000537,233.08843790000537,233.75758500001396,g,1.0,0.6643098999920767,,,,,sub-216,1,stroop_test,59.90430885715196,
,,,,40.0,4.0,3.0,,,,,,,,,,,,,blau,red,r,0.0,r,1.0,0.683169199997792,,,,,,,,,,3.0,4.0,40.0,4.0,233.77263590000803,,,,,,,,,,,,,,,,,233.75807260000147,234.9567619000154,235.75738419999837,235.74196880002276,,,,,,,,,,,,,,,,,,,,,,,,,,,,,,,,,,,235.7470420000027,235.75738419999837,235.75738419999837,236.44350110000232,r,1.0,0.683169199997792,,,,,sub-216,1,stroop_test,59.90430885715196,
,,,,41.0,5.0,3.0,,,,,,,,,,,,,gelb,yellow,g,1.0,g,1.0,0.5598895000002813,,,,,,,,,,3.0,5.0,41.0,10.0,236.45798400000783,,,,,,,,,,,,,,,,,236.4439731000166,236.5580134000047,237.35896599999975,237.34328680002363,,,,,,,,,,,,,,,,,,,,,,,,,,,,,,,,,,,237.34876340001935,237.35896599999975,237.35896599999975,237.92787610000232,g,1.0,0.5598895000002813,,,,,sub-216,1,stroop_test,59.90430885715196,
,,,,42.0,6.0,3.0,,,,,,,,,,,,,rot,red,r,1.0,r,1.0,0.5106865999987349,,,,,,,,,,3.0,6.0,42.0,0.0,237.94265060001635,,,,,,,,,,,,,,,,,237.92834510002285,238.29282810000583,239.09372040000744,239.07805040001404,,,,,,,,,,,,,,,,,,,,,,,,,,,,,,,,,,,239.08327709999867,239.09372040000744,239.09372040000744,239.61282080001547,r,1.0,0.5106865999987349,,,,,sub-216,1,stroop_test,59.90430885715196,
,,,,43.0,7.0,3.0,,,,,,,,,,,,,gelb,red,r,0.0,r,1.0,0.7586949999968056,,,,,,,,,,3.0,7.0,43.0,8.0,239.62712560000364,,,,,,,,,,,,,,,,,239.6132901000092,240.8282691000204,241.62899620001556,241.6133153999981,,,,,,,,,,,,,,,,,,,,,,,,,,,,,,,,,,,241.61835270002484,241.62899620001556,241.62899620001556,242.39820160000815,r,1.0,0.7586949999968056,,,,,sub-216,1,stroop_test,59.90430885715196,
,,,,44.0,8.0,3.0,,,,,,,,,,,,,rot,blue,b,0.0,b,1.0,0.7752695000090171,,,,,,,,,,3.0,8.0,44.0,2.0,242.41302870001527,,,,,,,,,,,,,,,,,242.3987001000205,242.76332009999896,243.56383359999745,243.5483005999995,,,,,,,,,,,,,,,,,,,,,,,,,,,,,,,,,,,243.55354020002412,243.56383359999745,243.56383359999745,244.35002300000636,b,1.0,0.7752695000090171,,,,,sub-216,1,stroop_test,59.90430885715196,
,,,,45.0,9.0,3.0,,,,,,,,,,,,,rot,red,r,1.0,r,1.0,0.5484598999901209,,,,,,,,,,3.0,9.0,45.0,1.0,244.36437580001075,,,,,,,,,,,,,,,,,244.3505226999987,245.5655515000108,246.36620080002467,246.3508775000228,,,,,,,,,,,,,,,,,,,,,,,,,,,,,,,,,,,246.35156730000745,246.36620080002467,246.36620080002467,246.918608100008,r,1.0,0.5484598999901209,,,,,sub-216,1,stroop_test,59.90430885715196,
,,,,46.0,10.0,3.0,,,,,,,,,,,,,blau,blue,b,1.0,b,1.0,0.5242200999928173,,,,,,,,,,3.0,10.0,46.0,6.0,246.93328420000037,,,,,,,,,,,,,,,,,246.91922810001412,247.28391130000816,248.08425910002552,248.0688711000257,,,,,,,,,,,,,,,,,,,,,,,,,,,,,,,,,,,248.0741429000045,248.08425910002552,248.08425910002552,248.6200513000076,b,1.0,0.5242200999928173,,,,,sub-216,1,stroop_test,59.90430885715196,
,,,,47.0,11.0,3.0,,,,,,,,,,,,,blau,blue,b,1.0,b,1.0,0.4254805000091437,,,,,,,,,,3.0,11.0,47.0,5.0,248.6347302000213,,,,,,,,,,,,,,,,,248.62061780001383,249.43544990001828,250.23584490001667,250.220518200018,,,,,,,,,,,,,,,,,,,,,,,,,,,,,,,,,,,250.2211079999979,250.23584490001667,250.23584490001667,250.67206290000468,b,1.0,0.4254805000091437,,,,,sub-216,1,stroop_test,59.90430885715196,
,,,,48.0,0.0,4.0,,,,,,,,,,,,,blau,red,r,0.0,b,0.0,0.5522280000150204,,,,,,,,,,4.0,0.0,48.0,4.0,250.68656250002093,,,,,,,,,,,,,,,,,250.6725587999972,251.03681940000388,251.8373379000113,251.82190490001813,,,,,,,,,,,,,,,,,,,,,,,,,,,,,,,,,,,251.8224969000148,251.8373379000113,251.8373379000113,252.40669380000327,b,0.0,0.5522280000150204,,,,,sub-216,1,stroop_test,59.90430885715196,
,,,,49.0,1.0,4.0,,,,,,,,,,,,,blau,yellow,g,0.0,g,1.0,0.6434805000026245,,,,,,,,,,4.0,1.0,49.0,7.0,252.42121770000085,,,,,,,,,,,,,,,,,252.4071856000228,252.52122059999965,253.32209240001976,253.3064259000239,,,,,,,,,,,,,,,,,,,,,,,,,,,,,,,,,,,253.307037999999,253.32209240001976,253.32209240001976,253.97479740000563,g,1.0,0.6434805000026245,,,,,sub-216,1,stroop_test,59.90430885715196,
,,,,50.0,2.0,4.0,,,,,,,,,,,,,gelb,yellow,g,1.0,g,1.0,0.6311008000047877,,,,,,,,,,4.0,2.0,50.0,11.0,253.98908860000665,,,,,,,,,,,,,,,,,253.9752673000039,254.0893175000092,254.88996050000424,254.8743061000132,,,,,,,,,,,,,,,,,,,,,,,,,,,,,,,,,,,254.87908260000404,254.88996050000424,254.88996050000424,255.5258706000168,g,1.0,0.6311008000047877,,,,,sub-216,1,stroop_test,59.90430885715196,
,,,,51.0,3.0,4.0,,,,,,,,,,,,,gelb,blue,b,0.0,b,1.0,0.5968282999820076,,,,,,,,,,4.0,3.0,51.0,9.0,255.5404541000025,,,,,,,,,,,,,,,,,255.52632960001935,255.64069140001084,256.4412170000141,256.42579380000825,,,,,,,,,,,,,,,,,,,,,,,,,,,,,,,,,,,256.4264640000183,256.4412170000141,256.4412170000141,257.0436190000037,b,1.0,0.5968282999820076,,,,,sub-216,1,stroop_test,59.90430885715196,
,,,,52.0,4.0,4.0,,,,,,,,,,,,,rot,yellow,g,0.0,g,1.0,0.6645101999747567,,,,,,,,,,4.0,4.0,52.0,3.0,257.0583479000197,,,,,,,,,,,,,,,,,257.0441177000175,257.85917020001216,258.6598590000067,258.64430660000653,,,,,,,,,,,,,,,,,,,,,,,,,,,,,,,,,,,258.6494743000076,258.6598590000067,258.6598590000067,259.3291590000153,g,1.0,0.6645101999747567,,,,,sub-216,1,stroop_test,59.90430885715196,
,,,,53.0,5.0,4.0,,,,,,,,,,,,,rot,blue,b,0.0,g,0.0,0.5939443000243045,,,,,,,,,,4.0,5.0,53.0,2.0,259.34365080000134,,,,,,,,,,,,,,,,,259.3298013000167,259.4437193000049,260.2441275000165,260.22899570001755,,,,,,,,,,,,,,,,,,,,,,,,,,,,,,,,,,,260.229710900021,260.2441275000165,260.2441275000165,260.84674920002,g,0.0,0.5939443000243045,,,,,sub-216,1,stroop_test,59.90430885715196,
,,,,54.0,6.0,4.0,,,,,,,,,,,,,blau,blue,b,1.0,b,1.0,0.7336516999930609,,,,,,,,,,4.0,6.0,54.0,6.0,260.8614795000176,,,,,,,,,,,,,,,,,260.8472560000082,261.2117372000066,262.01248450001003,261.9969621000055,,,,,,,,,,,,,,,,,,,,,,,,,,,,,,,,,,,262.0006716000207,262.01248450001003,262.01248450001003,262.74849900000845,b,1.0,0.7336516999930609,,,,,sub-216,1,stroop_test,59.90430885715196,
,,,,55.0,7.0,4.0,,,,,,,,,,,,,rot,red,r,1.0,r,1.0,0.6991863000148442,,,,,,,,,,4.0,7.0,55.0,0.0,262.763047400018,,,,,,,,,,,,,,,,,262.74893910001265,263.5638253000216,264.36437940000906,264.348885000014,,,,,,,,,,,,,,,,,,,,,,,,,,,,,,,,,,,264.35466870001983,264.36437940000906,264.36437940000906,265.0667493000219,r,1.0,0.6991863000148442,,,,,sub-216,1,stroop_test,59.90430885715196,
,,,,56.0,8.0,4.0,,,,,,,,,,,,,blau,blue,b,1.0,b,1.0,0.6189822000160348,,,,,,,,,,4.0,8.0,56.0,5.0,265.08175250000204,,,,,,,,,,,,,,,,,265.06721700000344,265.88237150001805,266.68309890001547,266.6676713000052,,,,,,,,,,,,,,,,,,,,,,,,,,,,,,,,,,,266.67157090001274,266.68309890001547,266.68309890001547,267.3187414999993,b,1.0,0.6189822000160348,,,,,sub-216,1,stroop_test,59.90430885715196,
,,,,57.0,9.0,4.0,,,,,,,,,,,,,gelb,red,r,0.0,r,1.0,0.7236869999906048,,,,,,,,,,4.0,9.0,57.0,8.0,267.33355920002214,,,,,,,,,,,,,,,,,267.3192717000202,268.13386750000063,268.934513300017,268.9186754000257,,,,,,,,,,,,,,,,,,,,,,,,,,,,,,,,,,,268.92184360002284,268.934513300017,268.934513300017,269.6693855000194,r,1.0,0.7236869999906048,,,,,sub-216,1,stroop_test,59.90430885715196,
,,,,58.0,10.0,4.0,,,,,,,,,,,,,rot,red,r,1.0,r,1.0,0.5559554000210483,,,,,,,,,,4.0,10.0,58.0,1.0,269.6851642000256,,,,,,,,,,,,,,,,,269.6696884999983,270.4692680000153,271.2697650000045,271.2536736000038,,,,,,,,,,,,,,,,,,,,,,,,,,,,,,,,,,,271.2570446000027,271.2697650000045,271.2697650000045,271.8381337000173,r,1.0,0.5559554000210483,,,,,sub-216,1,stroop_test,59.90430885715196,
,,,,59.0,11.0,4.0,,,,,,,,,,,,,gelb,yellow,g,1.0,g,1.0,0.5352818000246771,,,,,,,,,,4.0,11.0,59.0,10.0,271.85369320001337,,,,,,,,,,,,,,,,,271.83860850002384,273.03810720000183,273.8385607000091,273.8232033000095,,,,,,,,,,,,,,,,,,,,,,,,,,,,,,,,,,,273.8271981000144,273.8385607000091,273.8385607000091,274.3906724000117,g,1.0,0.5352818000246771,,,,,sub-216,1,stroop_test,59.90430885715196,
,,,,60.0,0.0,5.0,,,,,,,,,,,,,rot,blue,b,0.0,b,1.0,0.8849553000181913,,,,,,,,,,5.0,0.0,60.0,2.0,274.4058686000062,,,,,,,,,,,,,,,,,274.39121480000904,275.5901576000033,276.39077100000577,276.37529399999767,,,,,,,,,,,,,,,,,,,,,,,,,,,,,,,,,,,276.38133140001446,276.39077100000577,276.39077100000577,277.2933437000029,b,1.0,0.8849553000181913,,,,,sub-216,1,stroop_test,59.90430885715196,
,,,,61.0,1.0,5.0,,,,,,,,,,,,,blau,blue,b,1.0,b,1.0,0.5265379000047687,,,,,,,,,,5.0,1.0,61.0,6.0,277.3083162000112,,,,,,,,,,,,,,,,,277.2939108000137,277.40845480002463,278.2092881000135,278.19345130000147,,,,,,,,,,,,,,,,,,,,,,,,,,,,,,,,,,,278.19764820000273,278.2092881000135,278.2092881000135,278.74451700001373,b,1.0,0.5265379000047687,,,,,sub-216,1,stroop_test,59.90430885715196,
,,,,62.0,2.0,5.0,,,,,,,,,,,,,gelb,yellow,g,1.0,g,1.0,0.5944696000078693,,,,,,,,,,5.0,2.0,62.0,10.0,278.7592463000037,,,,,,,,,,,,,,,,,278.74515880001127,279.56027380001615,280.3608070000191,280.3452850000176,,,,,,,,,,,,,,,,,,,,,,,,,,,,,,,,,,,280.34915570000885,280.3608070000191,280.3608070000191,280.9636296000099,g,1.0,0.5944696000078693,,,,,sub-216,1,stroop_test,59.90430885715196,
,,,,63.0,3.0,5.0,,,,,,,,,,,,,rot,red,r,1.0,r,1.0,0.5036585000052582,,,,,,,,,,5.0,3.0,63.0,0.0,280.9782091000234,,,,,,,,,,,,,,,,,280.9640972000197,281.77882120001595,282.57949120001285,282.5639201000158,,,,,,,,,,,,,,,,,,,,,,,,,,,,,,,,,,,282.5690121000225,282.57949120001285,282.57949120001285,283.0985057000071,r,1.0,0.5036585000052582,,,,,sub-216,1,stroop_test,59.90430885715196,
,,,,64.0,4.0,5.0,,,,,,,,,,,,,rot,red,r,1.0,r,1.0,0.5177600999886636,,,,,,,,,,5.0,4.0,64.0,1.0,283.1131416000135,,,,,,,,,,,,,,,,,283.0989713000017,283.4635888000193,284.26406919999863,284.2486678000132,,,,,,,,,,,,,,,,,,,,,,,,,,,,,,,,,,,284.24927930001286,284.26406919999863,284.26406919999863,284.783746000001,r,1.0,0.5177600999886636,,,,,sub-216,1,stroop_test,59.90430885715196,
,,,,65.0,5.0,5.0,,,,,,,,,,,,,gelb,blue,b,0.0,b,1.0,0.6540579000138678,,,,,,,,,,5.0,5.0,65.0,9.0,284.7980768000125,,,,,,,,,,,,,,,,,284.7842178000137,284.898164400016,285.6987904999987,285.68329380001524,,,,,,,,,,,,,,,,,,,,,,,,,,,,,,,,,,,285.6886182000162,285.6987904999987,285.6987904999987,286.3680471999978,b,1.0,0.6540579000138678,,,,,sub-216,1,stroop_test,59.90430885715196,
,,,,66.0,6.0,5.0,,,,,,,,,,,,,rot,yellow,g,0.0,g,1.0,0.6793267999892123,,,,,,,,,,5.0,6.0,66.0,3.0,286.38278290000744,,,,,,,,,,,,,,,,,286.3685124000185,287.58383750001667,288.38425370000186,288.3689178000204,,,,,,,,,,,,,,,,,,,,,,,,,,,,,,,,,,,288.3755017000076,288.38425370000186,288.38425370000186,289.0703216000111,g,1.0,0.6793267999892123,,,,,sub-216,1,stroop_test,59.90430885715196,
,,,,67.0,7.0,5.0,,,,,,,,,,,,,gelb,yellow,g,1.0,g,1.0,0.5620408999966457,,,,,,,,,,5.0,7.0,67.0,11.0,289.08502040000167,,,,,,,,,,,,,,,,,289.07100450000144,290.2857319000177,291.0865572000039,291.0713000000105,,,,,,,,,,,,,,,,,,,,,,,,,,,,,,,,,,,291.07655490000616,291.0865572000039,291.0865572000039,291.65589210001053,g,1.0,0.5620408999966457,,,,,sub-216,1,stroop_test,59.90430885715196,
,,,,68.0,8.0,5.0,,,,,,,,,,,,,blau,yellow,g,0.0,b,0.0,0.550095800019335,,,,,,,,,,5.0,8.0,68.0,7.0,291.6702544,,,,,,,,,,,,,,,,,291.6564164000156,292.47096460001194,293.2718995000177,293.25636820000364,,,,,,,,,,,,,,,,,,,,,,,,,,,,,,,,,,,293.26025859999936,293.2718995000177,293.2718995000177,293.8246584000008,b,0.0,0.550095800019335,,,,,sub-216,1,stroop_test,59.90430885715196,
,,,,69.0,9.0,5.0,,,,,,,,,,,,,blau,red,r,0.0,r,1.0,0.6516419999825303,,,,,,,,,,5.0,9.0,69.0,4.0,293.83883560000686,,,,,,,,,,,,,,,,,293.82519820000743,295.03989569999976,295.84069070001715,295.8249458000064,,,,,,,,,,,,,,,,,,,,,,,,,,,,,,,,,,,295.82558390000486,295.84069070001715,295.84069070001715,296.5098743000126,r,1.0,0.6516419999825303,,,,,sub-216,1,stroop_test,59.90430885715196,
,,,,70.0,10.0,5.0,,,,,,,,,,,,,gelb,red,r,0.0,r,1.0,0.7438090999785345,,,,,,,,,,5.0,10.0,70.0,8.0,296.52447770000435,,,,,,,,,,,,,,,,,296.5103609000216,297.3251642000105,298.125632100011,298.11038030000054,,,,,,,,,,,,,,,,,,,,,,,,,,,,,,,,,,,298.11628909999854,298.125632100011,298.125632100011,298.8788879000058,r,1.0,0.7438090999785345,,,,,sub-216,1,stroop_test,59.90430885715196,
,,,,71.0,11.0,5.0,,,,,,,,,,,,,blau,blue,b,1.0,b,1.0,0.5699446000216994,,,,,,,,,,5.0,11.0,71.0,5.0,298.8929180999985,,,,,,,,,,,,,,,,,298.8793603000231,298.9931005000253,299.7937948000035,299.77859120001085,,,,,,,,,,,,,,,,,,,,,,,,,,,,,,,,,,,299.78236870002,299.7937948000035,299.7937948000035,300.3799852000084,b,1.0,0.5699446000216994,,,,,sub-216,1,stroop_test,59.90430885715196,
,,,,72.0,0.0,6.0,,,,,,,,,,,,,gelb,red,r,0.0,g,0.0,0.9427884000178892,,,,,,,,,,6.0,0.0,72.0,8.0,300.3942187000066,,,,,,,,,,,,,,,,,300.38045180001063,301.1949870000244,301.99572130001616,301.9801386000181,,,,,,,,,,,,,,,,,,,,,,,,,,,,,,,,,,,301.98591170000145,301.99572130001616,301.99572130001616,302.94836790001136,g,0.0,0.9427884000178892,,,,,sub-216,1,stroop_test,59.90430885715196,
,,,,73.0,1.0,6.0,,,,,,,,,,,,,blau,red,r,0.0,b,0.0,0.6001637000008486,,,,,,,,,,6.0,1.0,73.0,4.0,302.96307700002217,,,,,,,,,,,,,,,,,302.9488357000228,304.16412450000644,304.9647518999991,304.94939510000404,,,,,,,,,,,,,,,,,,,,,,,,,,,,,,,,,,,304.9533691999968,304.9647518999991,304.9647518999991,305.5674960000033,b,0.0,0.6001637000008486,,,,,sub-216,1,stroop_test,59.90430885715196,
,,,,74.0,2.0,6.0,,,,,,,,,,,,,rot,blue,b,0.0,b,1.0,0.7558187000104226,,,,,,,,,,6.0,2.0,74.0,2.0,305.5817615000124,,,,,,,,,,,,,,,,,305.56800660002045,306.3826448000036,307.183296800009,307.1679033000255,,,,,,,,,,,,,,,,,,,,,,,,,,,,,,,,,,,307.1727577999991,307.183296800009,307.183296800009,307.95263100002194,b,1.0,0.7558187000104226,,,,,sub-216,1,stroop_test,59.90430885715196,
,,,,75.0,3.0,6.0,,,,,,,,,,,,,gelb,yellow,g,1.0,g,1.0,0.933545999985654,,,,,,,,,,6.0,3.0,75.0,10.0,307.96735020002234,,,,,,,,,,,,,,,,,307.9531895999972,308.0674009000068,308.86794490000466,308.8524954000022,,,,,,,,,,,,,,,,,,,,,,,,,,,,,,,,,,,308.8577187000192,308.86794490000466,308.86794490000466,309.8043613000191,g,1.0,0.933545999985654,,,,,sub-216,1,stroop_test,59.90430885715196,
,,,,76.0,4.0,6.0,,,,,,,,,,,,,blau,blue,b,1.0,b,1.0,0.5775842999864835,,,,,,,,,,6.0,4.0,76.0,6.0,309.81872480001766,,,,,,,,,,,,,,,,,309.8048942000023,310.6195164000092,311.42008140002145,311.404735100019,,,,,,,,,,,,,,,,,,,,,,,,,,,,,,,,,,,311.408676400024,311.42008140002145,311.42008140002145,312.00570690000313,b,1.0,0.5775842999864835,,,,,sub-216,1,stroop_test,59.90430885715196,
,,,,77.0,5.0,6.0,,,,,,,,,,,,,gelb,yellow,g,1.0,g,1.0,0.5685988999903202,,,,,,,,,,6.0,5.0,77.0,11.0,312.0205831000057,,,,,,,,,,,,,,,,,312.0061765999999,312.8212888000125,313.62215650000144,313.60632160000387,,,,,,,,,,,,,,,,,,,,,,,,,,,,,,,,,,,313.61151270000846,313.62215650000144,313.62215650000144,314.20792660000734,g,1.0,0.5685988999903202,,,,,sub-216,1,stroop_test,59.90430885715196,
,,,,78.0,6.0,6.0,,,,,,,,,,,,,rot,red,r,1.0,r,1.0,0.7386129000224173,,,,,,,,,,6.0,6.0,78.0,0.0,314.22247290000087,,,,,,,,,,,,,,,,,314.20841740001924,315.4234920000017,316.2240165000257,316.2085280000174,,,,,,,,,,,,,,,,,,,,,,,,,,,,,,,,,,,316.2140572000062,316.2240165000257,316.2240165000257,316.9768267000036,r,1.0,0.7386129000224173,,,,,sub-216,1,stroop_test,59.90430885715196,
,,,,79.0,7.0,6.0,,,,,,,,,,,,,gelb,blue,b,0.0,b,1.0,0.7929192000010516,,,,,,,,,,6.0,7.0,79.0,9.0,316.9915582000104,,,,,,,,,,,,,,,,,316.9773120000027,318.1922622999992,318.99302750002244,318.9774750000215,,,,,,,,,,,,,,,,,,,,,,,,,,,,,,,,,,,318.9824190000072,318.99302750002244,318.99302750002244,319.79582290002145,b,1.0,0.7929192000010516,,,,,sub-216,1,stroop_test,59.90430885715196,
,,,,80.0,8.0,6.0,,,,,,,,,,,,,blau,blue,b,1.0,b,1.0,0.5504428999847732,,,,,,,,,,6.0,8.0,80.0,5.0,319.8103639000037,,,,,,,,,,,,,,,,,319.79631010000594,320.611144399998,321.4117955000256,321.3963571000204,,,,,,,,,,,,,,,,,,,,,,,,,,,,,,,,,,,321.4003762000066,321.4117955000256,321.4117955000256,321.9643983000133,b,1.0,0.5504428999847732,,,,,sub-216,1,stroop_test,59.90430885715196,
,,,,81.0,9.0,6.0,,,,,,,,,,,,,rot,red,r,1.0,r,1.0,0.6269258999964222,,,,,,,,,,6.0,9.0,81.0,1.0,321.9788655000157,,,,,,,,,,,,,,,,,321.96491170002264,323.17968120001024,323.9805805000069,323.965041700023,,,,,,,,,,,,,,,,,,,,,,,,,,,,,,,,,,,323.9699360000086,323.9805805000069,323.9805805000069,324.61664280001423,r,1.0,0.6269258999964222,,,,,sub-216,1,stroop_test,59.90430885715196,
,,,,82.0,10.0,6.0,,,,,,,,,,,,,rot,yellow,g,0.0,g,1.0,0.6600322000158485,,,,,,,,,,6.0,10.0,82.0,3.0,324.63101780001307,,,,,,,,,,,,,,,,,324.6171286000172,325.43180560000474,326.23224740001024,326.21654220001074,,,,,,,,,,,,,,,,,,,,,,,,,,,,,,,,,,,326.21748079999816,326.23224740001024,326.23224740001024,326.9016577000148,g,1.0,0.6600322000158485,,,,,sub-216,1,stroop_test,59.90430885715196,
,,,,83.0,11.0,6.0,,,,,,,,,,,,,blau,yellow,g,0.0,g,1.0,0.7853412999829743,,,,,,,,,,6.0,11.0,83.0,7.0,326.9162055000197,,,,,,,,,,,,,,,,,326.90214910000213,328.1174027000088,328.91792700000224,328.9026786000177,,,,,,,,,,,,,,,,,,,,,,,,,,,,,,,,,,,328.90663559999666,328.91792700000224,328.91792700000224,329.7202887000167,g,1.0,0.7853412999829743,,,,,sub-216,1,stroop_test,59.90430885715196,
,,,,84.0,0.0,7.0,,,,,,,,,,,,,blau,yellow,g,0.0,b,0.0,0.7456407000136096,,,,,,,,,,7.0,0.0,84.0,7.0,329.7353874000255,,,,,,,,,,,,,,,,,329.72075780000887,330.9196437000064,331.72040210000705,331.7048836000031,,,,,,,,,,,,,,,,,,,,,,,,,,,,,,,,,,,331.7055281000212,331.72040210000705,331.72040210000705,332.4731189000013,b,0.0,0.7456407000136096,,,,,sub-216,1,stroop_test,59.90430885715196,
,,,,85.0,1.0,7.0,,,,,,,,,,,,,gelb,blue,b,0.0,b,1.0,0.7122928000171669,,,,,,,,,,7.0,1.0,85.0,9.0,332.4876998999971,,,,,,,,,,,,,,,,,332.4735744000063,333.2883763000136,334.0889203000115,334.0735632000142,,,,,,,,,,,,,,,,,,,,,,,,,,,,,,,,,,,334.0800095000013,334.0889203000115,334.0889203000115,334.8083705000172,b,1.0,0.7122928000171669,,,,,sub-216,1,stroop_test,59.90430885715196,
,,,,86.0,2.0,7.0,,,,,,,,,,,,,gelb,yellow,g,1.0,g,1.0,0.5502190999977756,,,,,,,,,,7.0,2.0,86.0,11.0,334.82274930001586,,,,,,,,,,,,,,,,,334.80883890000405,336.02383790002204,336.824429100001,336.80905260000145,,,,,,,,,,,,,,,,,,,,,,,,,,,,,,,,,,,336.8099035000196,336.824429100001,336.824429100001,337.37740840000333,g,1.0,0.5502190999977756,,,,,sub-216,1,stroop_test,59.90430885715196,
,,,,87.0,3.0,7.0,,,,,,,,,,,,,rot,red,r,1.0,r,1.0,0.5711760999984108,,,,,,,,,,7.0,3.0,87.0,0.0,337.39163730002474,,,,,,,,,,,,,,,,,337.3779146000161,337.74250250001205,338.5425729000126,338.52705130001414,,,,,,,,,,,,,,,,,,,,,,,,,,,,,,,,,,,338.5327555999975,338.5425729000126,338.5425729000126,339.1282369999972,r,1.0,0.5711760999984108,,,,,sub-216,1,stroop_test,59.90430885715196,
,,,,88.0,4.0,7.0,,,,,,,,,,,,,blau,blue,b,1.0,b,1.0,0.8606201000220608,,,,,,,,,,7.0,4.0,88.0,5.0,339.14303440001095,,,,,,,,,,,,,,,,,339.12873330002185,340.3274953000073,341.1280607000226,341.11251220002305,,,,,,,,,,,,,,,,,,,,,,,,,,,,,,,,,,,341.1164932000101,341.1280607000226,341.1280607000226,341.99732409999706,b,1.0,0.8606201000220608,,,,,sub-216,1,stroop_test,59.90430885715196,
,,,,89.0,5.0,7.0,,,,,,,,,,,,,gelb,yellow,g,1.0,g,1.0,0.6312143999966793,,,,,,,,,,7.0,5.0,89.0,10.0,342.01221559999976,,,,,,,,,,,,,,,,,341.9978295000037,342.3623845000111,343.1630761999986,343.1476512000081,,,,,,,,,,,,,,,,,,,,,,,,,,,,,,,,,,,343.1527518000221,343.1630761999986,343.1630761999986,343.7992556000245,g,1.0,0.6312143999966793,,,,,sub-216,1,stroop_test,59.90430885715196,
,,,,90.0,6.0,7.0,,,,,,,,,,,,,blau,blue,b,1.0,b,1.0,0.4948356999957468,,,,,,,,,,7.0,6.0,90.0,6.0,343.8134738000226,,,,,,,,,,,,,,,,,343.7998794000014,344.6143219000078,345.414964399999,345.3993976000056,,,,,,,,,,,,,,,,,,,,,,,,,,,,,,,,,,,345.4039398000168,345.414964399999,345.414964399999,345.9174937000207,b,1.0,0.4948356999957468,,,,,sub-216,1,stroop_test,59.90430885715196,
,,,,91.0,7.0,7.0,,,,,,,,,,,,,rot,yellow,g,0.0,g,1.0,0.6691133999847807,,,,,,,,,,7.0,7.0,91.0,3.0,345.932148300024,,,,,,,,,,,,,,,,,345.91797280000173,346.73242100002244,347.5333030000038,347.5179605000012,,,,,,,,,,,,,,,,,,,,,,,,,,,,,,,,,,,347.5234246000182,347.5333030000038,347.5333030000038,348.21930480000447,g,1.0,0.6691133999847807,,,,,sub-216,1,stroop_test,59.90430885715196,
,,,,92.0,8.0,7.0,,,,,,,,,,,,,blau,red,r,0.0,r,1.0,0.6357154000143055,,,,,,,,,,7.0,8.0,92.0,4.0,348.2339836000174,,,,,,,,,,,,,,,,,348.21977940000943,349.0347602000111,349.83523290001904,349.81970950000687,,,,,,,,,,,,,,,,,,,,,,,,,,,,,,,,,,,349.8248016000143,349.83523290001904,349.83523290001904,350.4878024000209,r,1.0,0.6357154000143055,,,,,sub-216,1,stroop_test,59.90430885715196,
,,,,93.0,9.0,7.0,,,,,,,,,,,,,rot,red,r,1.0,r,1.0,0.4921878000022843,,,,,,,,,,7.0,9.0,93.0,1.0,350.5024026000174,,,,,,,,,,,,,,,,,350.4883600000176,350.60259960000985,351.40323990001343,351.3879555000167,,,,,,,,,,,,,,,,,,,,,,,,,,,,,,,,,,,351.3929580000113,351.40323990001343,351.40323990001343,351.9055673000112,r,1.0,0.4921878000022843,,,,,sub-216,1,stroop_test,59.90430885715196,
,,,,94.0,10.0,7.0,,,,,,,,,,,,,gelb,red,r,0.0,r,1.0,0.8088589999824762,,,,,,,,,,7.0,10.0,94.0,8.0,351.9203317000065,,,,,,,,,,,,,,,,,351.9060510999989,352.27071250000154,353.0712783000199,353.05581700001494,,,,,,,,,,,,,,,,,,,,,,,,,,,,,,,,,,,353.0609927000187,353.0712783000199,353.0712783000199,353.890901900013,r,1.0,0.8088589999824762,,,,,sub-216,1,stroop_test,59.90430885715196,
,,,,95.0,11.0,7.0,,,,,,,,,,,,,rot,blue,b,0.0,b,1.0,0.502565400005551,,,,,,,,,,7.0,11.0,95.0,2.0,353.90529029999743,,,,,,,,,,,,,,,,,353.8913671000046,355.10633170002257,355.90697720000753,355.89153730002,,,,,,,,,,,,,,,,,,,,,,,,,,,,,,,,,,,355.89631579999696,355.90697720000753,355.90697720000753,356.4257303000195,b,1.0,0.502565400005551,,,,,sub-216,1,stroop_test,59.90430885715196,
,,,,96.0,0.0,8.0,,,,,,,,,,,,,rot,yellow,g,0.0,g,1.0,0.8643745000008494,,,,,,,,,,8.0,0.0,96.0,3.0,356.44060610001907,,,,,,,,,,,,,,,,,356.42620960000204,356.540809099999,357.3415698000172,357.32606570000644,,,,,,,,,,,,,,,,,,,,,,,,,,,,,,,,,,,357.32673840000643,357.3415698000172,357.3415698000172,358.21088950001285,g,1.0,0.8643745000008494,,,,,sub-216,1,stroop_test,59.90430885715196,
,,,,97.0,1.0,8.0,,,,,,,,,,,,,rot,blue,b,0.0,b,1.0,0.6920893000205979,,,,,,,,,,8.0,1.0,97.0,2.0,358.22554320000927,,,,,,,,,,,,,,,,,358.21135630001663,358.3259325000108,359.12619209999684,359.1107824000064,,,,,,,,,,,,,,,,,,,,,,,,,,,,,,,,,,,359.11172800001805,359.12619209999684,359.12619209999684,359.8288833000115,b,1.0,0.6920893000205979,,,,,sub-216,1,stroop_test,59.90430885715196,
,,,,98.0,2.0,8.0,,,,,,,,,,,,,rot,red,r,1.0,r,1.0,0.5731440999952611,,,,,,,,,,8.0,2.0,98.0,0.0,359.84366270000464,,,,,,,,,,,,,,,,,359.8294786000042,361.0446270000248,361.8451545000135,361.8298782000202,,,,,,,,,,,,,,,,,,,,,,,,,,,,,,,,,,,361.8305146000057,361.8451545000135,361.8451545000135,362.4310057000257,r,1.0,0.5731440999952611,,,,,sub-216,1,stroop_test,59.90430885715196,
,,,,99.0,3.0,8.0,,,,,,,,,,,,,gelb,yellow,g,1.0,g,1.0,0.5160833999980241,,,,,,,,,,8.0,3.0,99.0,11.0,362.44566940001096,,,,,,,,,,,,,,,,,362.431510800001,363.6300536000053,364.43072120001307,364.4151980000024,,,,,,,,,,,,,,,,,,,,,,,,,,,,,,,,,,,364.4210090000124,364.43072120001307,364.43072120001307,364.9498760999995,g,1.0,0.5160833999980241,,,,,sub-216,1,stroop_test,59.90430885715196,
,,,,100.0,4.0,8.0,,,,,,,,,,,,,gelb,yellow,g,1.0,g,1.0,0.4519683000107761,,,,,,,,,,8.0,4.0,100.0,10.0,364.9644694000017,,,,,,,,,,,,,,,,,364.9503288000124,366.1654608000245,366.9662052000058,366.9507260000101,,,,,,,,,,,,,,,,,,,,,,,,,,,,,,,,,,,366.95135390001815,366.9662052000058,366.9662052000058,367.4353416000085,g,1.0,0.4519683000107761,,,,,sub-216,1,stroop_test,59.90430885715196,
,,,,101.0,5.0,8.0,,,,,,,,,,,,,blau,blue,b,1.0,b,1.0,0.8890505000017583,,,,,,,,,,8.0,5.0,101.0,6.0,367.4498224999989,,,,,,,,,,,,,,,,,367.4358032000018,368.25067980002495,369.0513021000079,369.036158700008,,,,,,,,,,,,,,,,,,,,,,,,,,,,,,,,,,,369.0402237000235,369.0513021000079,369.0513021000079,369.9542040000088,b,1.0,0.8890505000017583,,,,,sub-216,1,stroop_test,59.90430885715196,
,,,,102.0,6.0,8.0,,,,,,,,,,,,,blau,red,r,0.0,r,1.0,0.7668613999849185,,,,,,,,,,8.0,6.0,102.0,4.0,369.9686160999991,,,,,,,,,,,,,,,,,369.9546910000208,370.068783100025,370.8692635000043,370.8540075000201,,,,,,,,,,,,,,,,,,,,,,,,,,,,,,,,,,,370.8546025000105,370.8692635000043,370.8692635000043,371.6390159000002,r,1.0,0.7668613999849185,,,,,sub-216,1,stroop_test,59.90430885715196,
,,,,103.0,7.0,8.0,,,,,,,,,,,,,gelb,red,r,0.0,r,1.0,0.7787807999993674,,,,,,,,,,8.0,7.0,103.0,8.0,371.6532185000251,,,,,,,,,,,,,,,,,371.639499300014,371.7534789000056,372.5542086000205,372.5384444000083,,,,,,,,,,,,,,,,,,,,,,,,,,,,,,,,,,,372.5436321000161,372.5542086000205,372.5542086000205,373.3402820000192,r,1.0,0.7787807999993674,,,,,sub-216,1,stroop_test,59.90430885715196,
,,,,104.0,8.0,8.0,,,,,,,,,,,,,rot,red,r,1.0,r,1.0,0.6586234999995213,,,,,,,,,,8.0,8.0,104.0,1.0,373.3544516000256,,,,,,,,,,,,,,,,,373.3407520000183,374.5557596000144,375.3563670000003,375.3411657999968,,,,,,,,,,,,,,,,,,,,,,,,,,,,,,,,,,,375.3461300000199,375.3563670000003,375.3563670000003,376.02551730000414,r,1.0,0.6586234999995213,,,,,sub-216,1,stroop_test,59.90430885715196,
,,,,105.0,9.0,8.0,,,,,,,,,,,,,gelb,blue,b,0.0,b,1.0,0.5848884000151884,,,,,,,,,,8.0,9.0,105.0,9.0,376.0403736000008,,,,,,,,,,,,,,,,,376.02605570000014,377.241271100007,378.0420583000232,378.026357499999,,,,,,,,,,,,,,,,,,,,,,,,,,,,,,,,,,,378.0314867999987,378.0420583000232,378.0420583000232,378.6443213000021,b,1.0,0.5848884000151884,,,,,sub-216,1,stroop_test,59.90430885715196,
,,,,106.0,10.0,8.0,,,,,,,,,,,,,blau,blue,b,1.0,b,1.0,0.5356853000121191,,,,,,,,,,8.0,10.0,106.0,5.0,378.65937609999673,,,,,,,,,,,,,,,,,378.64484180000727,379.459951900004,380.2607015000249,380.2448968000244,,,,,,,,,,,,,,,,,,,,,,,,,,,,,,,,,,,380.2493341000227,380.2607015000249,380.2607015000249,380.8132322000165,b,1.0,0.5356853000121191,,,,,sub-216,1,stroop_test,59.90430885715196,
,,,,107.0,11.0,8.0,,,,,,,,,,,,,blau,yellow,g,0.0,g,1.0,1.0152071999909822,,,,,,,,,,8.0,11.0,107.0,7.0,380.8276180000103,,,,,,,,,,,,,,,,,380.8137013000087,381.62833870001487,382.4290923000081,382.4135758000193,,,,,,,,,,,,,,,,,,,,,,,,,,,,,,,,,,,382.4142143000208,382.4290923000081,382.4290923000081,383.4485394000076,g,1.0,1.0152071999909822,,,,,sub-216,1,stroop_test,59.90430885715196,
,,,,108.0,0.0,9.0,,,,,,,,,,,,,blau,blue,b,1.0,b,1.0,0.6828388000139967,,,,,,,,,,9.0,0.0,108.0,5.0,383.4632939000148,,,,,,,,,,,,,,,,,383.4490005999978,383.5633081000124,384.3641206000175,384.34864260000177,,,,,,,,,,,,,,,,,,,,,,,,,,,,,,,,,,,384.3493076000013,384.3641206000175,384.3641206000175,385.05007710002246,b,1.0,0.6828388000139967,,,,,sub-216,1,stroop_test,59.90430885715196,
,,,,109.0,1.0,9.0,,,,,,,,,,,,,rot,blue,b,0.0,b,1.0,0.927648799988674,,,,,,,,,,9.0,1.0,109.0,2.0,385.06457740001497,,,,,,,,,,,,,,,,,385.0505470000208,386.2654954000027,387.06622970002354,387.0506603000104,,,,,,,,,,,,,,,,,,,,,,,,,,,,,,,,,,,387.0552583000099,387.06622970002354,387.06622970002354,388.00191880000057,b,1.0,0.927648799988674,,,,,sub-216,1,stroop_test,59.90430885715196,
,,,,110.0,2.0,9.0,,,,,,,,,,,,,blau,yellow,g,0.0,g,1.0,0.8573866999940947,,,,,,,,,,9.0,2.0,110.0,7.0,388.0167620000138,,,,,,,,,,,,,,,,,388.0025687000016,389.2012821000244,390.0019335000252,389.9865035000257,,,,,,,,,,,,,,,,,,,,,,,,,,,,,,,,,,,389.9906008999969,390.0019335000252,390.0019335000252,390.87135030000354,g,1.0,0.8573866999940947,,,,,sub-216,1,stroop_test,59.90430885715196,
,,,,111.0,3.0,9.0,,,,,,,,,,,,,gelb,yellow,g,1.0,g,1.0,0.5037565999955405,,,,,,,,,,9.0,3.0,111.0,11.0,390.8860570999968,,,,,,,,,,,,,,,,,390.8718146000174,391.2362817000249,392.0370135999983,392.0215236000077,,,,,,,,,,,,,,,,,,,,,,,,,,,,,,,,,,,392.0265093000198,392.0370135999983,392.0370135999983,392.55606770000304,g,1.0,0.5037565999955405,,,,,sub-216,1,stroop_test,59.90430885715196,
,,,,112.0,4.0,9.0,,,,,,,,,,,,,gelb,yellow,g,1.0,g,1.0,0.4871034999960102,,,,,,,,,,9.0,4.0,112.0,10.0,392.57079280001926,,,,,,,,,,,,,,,,,392.55654479999794,392.6708578999969,393.4714953000075,393.45595510001294,,,,,,,,,,,,,,,,,,,,,,,,,,,,,,,,,,,393.4565270000021,393.4714953000075,393.4714953000075,393.9737941000203,g,1.0,0.4871034999960102,,,,,sub-216,1,stroop_test,59.90430885715196,
,,,,113.0,5.0,9.0,,,,,,,,,,,,,gelb,blue,b,0.0,b,1.0,0.7085518999956548,,,,,,,,,,9.0,5.0,113.0,9.0,393.9885333999992,,,,,,,,,,,,,,,,,393.9742303000239,395.1728592000145,395.9736505000037,395.9580748000008,,,,,,,,,,,,,,,,,,,,,,,,,,,,,,,,,,,395.9586925000185,395.9736505000037,395.9736505000037,396.69270880002296,b,1.0,0.7085518999956548,,,,,sub-216,1,stroop_test,59.90430885715196,
,,,,114.0,6.0,9.0,,,,,,,,,,,,,blau,red,r,0.0,r,1.0,0.8860932999814395,,,,,,,,,,9.0,6.0,114.0,4.0,396.7074722000106,,,,,,,,,,,,,,,,,396.6931741000153,397.5081255999976,398.3088327000151,398.2932598000043,,,,,,,,,,,,,,,,,,,,,,,,,,,,,,,,,,,398.29717940001865,398.3088327000151,398.3088327000151,399.2114745000145,r,1.0,0.8860932999814395,,,,,sub-216,1,stroop_test,59.90430885715196,
,,,,115.0,7.0,9.0,,,,,,,,,,,,,rot,yellow,g,0.0,g,1.0,0.8551819999993313,,,,,,,,,,9.0,7.0,115.0,3.0,399.2263134000241,,,,,,,,,,,,,,,,,399.2119444000127,399.57647369999904,400.3772699999972,400.3619347000204,,,,,,,,,,,,,,,,,,,,,,,,,,,,,,,,,,,400.36796480001067,400.3772699999972,400.3772699999972,401.2466235000175,g,1.0,0.8551819999993313,,,,,sub-216,1,stroop_test,59.90430885715196,
,,,,116.0,8.0,9.0,,,,,,,,,,,,,gelb,red,r,0.0,r,1.0,0.6651848000183236,,,,,,,,,,9.0,8.0,116.0,8.0,401.2613325999992,,,,,,,,,,,,,,,,,401.247091600002,401.6115931000095,402.41234860001714,402.3966435000184,,,,,,,,,,,,,,,,,,,,,,,,,,,,,,,,,,,402.4015593000222,402.41234860001714,402.41234860001714,403.0812338000105,r,1.0,0.6651848000183236,,,,,sub-216,1,stroop_test,59.90430885715196,
,,,,117.0,9.0,9.0,,,,,,,,,,,,,rot,red,r,1.0,r,1.0,0.6116168000153266,,,,,,,,,,9.0,9.0,117.0,0.0,403.0960250000062,,,,,,,,,,,,,,,,,403.0817298000038,403.1961032000254,403.9969335000205,403.9812775000173,,,,,,,,,,,,,,,,,,,,,,,,,,,,,,,,,,,403.9861754000012,403.9969335000205,403.9969335000205,404.6161086000211,r,1.0,0.6116168000153266,,,,,sub-216,1,stroop_test,59.90430885715196,
,,,,118.0,10.0,9.0,,,,,,,,,,,,,blau,blue,b,1.0,b,1.0,0.8167180999880657,,,,,,,,,,9.0,10.0,118.0,6.0,404.63065950002056,,,,,,,,,,,,,,,,,404.61664380002185,404.7308526000125,405.5316168999998,405.5161505000142,,,,,,,,,,,,,,,,,,,,,,,,,,,,,,,,,,,405.52040249999845,405.5316168999998,405.5316168999998,406.3508009000216,b,1.0,0.8167180999880657,,,,,sub-216,1,stroop_test,59.90430885715196,
,,,,119.0,11.0,9.0,,,,,,,,,,,,,rot,red,r,1.0,r,1.0,0.5160548999847379,,,,,,,,,,9.0,11.0,119.0,1.0,406.3653939000215,,,,,,,,,,,,,,,,,406.3512985999987,406.71576930000447,407.516492499999,407.5009969000239,,,,,,,,,,,,,,,,,,,,,,,,,,,,,,,,,,,407.5057357000187,407.516492499999,407.516492499999,408.0358120000165,r,1.0,0.5160548999847379,,,,,sub-216,1,stroop_test,59.90430885715196,
,,,,,,,,,,,,,,,,,,,,,,,,,,,,,,,,,,,,,,,,,,,,,,,,,,,,,,,,,,,,,,,,,,,,,,,,,,,,,,,,,,,,,,,,,,,,,,,,,,,,,,408.0360600000131,408.0502850000048,413.0381589000172,sub-216,1,stroop_test,59.90430885715196,
