wordCTK,colorCTK,corrAnsCTK,congruentCTK,thisN,thisTrialN,thisRepN,keyResp_CTK.keys,keyResp_CTK.corr,keyResp_CTK.rt,keyResp_CTK.duration,wordPractice,colorPractice,corrAnsPractice,congruentPractice,respPractice.keys,respPractice.corr,respPractice.rt,respPractice.duration,word,color,corrAns,congruent,keyResp_test_run.keys,keyResp_test_run.corr,keyResp_test_run.rt,keyResp_test_run.duration,trials_CTK.thisRepN,trials_CTK.thisTrialN,trials_CTK.thisN,trials_CTK.thisIndex,trials_practice.thisRepN,trials_practice.thisTrialN,trials_practice.thisN,trials_practice.thisIndex,trials_test.thisRepN,trials_test.thisTrialN,trials_test.thisN,trials_test.thisIndex,thisRow.t,notes,instruction.started,instr_text.started,instr_image.started,instr_resp.started,instruction.stopped,instr_resp.keys,instr_resp.rt,instr_resp.duration,instr_color_to_key.started,instr_ctk.started,resp_ctk.started,instr_color_to_key.stopped,resp_ctk.keys,resp_ctk.rt,resp_ctk.duration,ITI.started,fixcross.started,fixcross.stopped,ITI.stopped,color_to_key_run.started,stimulus_CTK.started,keyResp_CTK.started,color_to_key_run.stopped,trials_CTK.keyResp_CTK.keys,trials_CTK.keyResp_CTK.corr,trials_CTK.keyResp_CTK.rt,trials_CTK.keyResp_CTK.duration,instr_practice.started,instr_practice_text.started,instr_practice_resp.started,instr_practice.stopped,instr_practice_resp.keys,instr_practice_resp.rt,instr_practice_resp.duration,practice_run.started,stimulus_practice.started,respPractice.started,practice_run.stopped,trials_practice.respPractice.keys,trials_practice.respPractice.corr,trials_practice.respPractice.rt,trials_practice.respPractice.duration,feedback.started,textFeedback.started,feedback.stopped,textFeedback.stopped,instr_test.started,instr_test_text.started,instr_test_resp.started,instr_test.stopped,instr_test_resp.keys,instr_test_resp.rt,instr_test_resp.duration,test_run.started,stimulus_test_run.started,keyResp_test_run.started,test_run.stopped,trials_test.keyResp_test_run.keys,trials_test.keyResp_test_run.corr,trials_test.keyResp_test_run.rt,trials_test.keyResp_test_run.duration,goodbye.started,textGoodbye.started,textGoodbye.stopped,goodbye.stopped,participant,session,expName,frameRate,Unnamed: 113
,,,,,,,,,,,,,,,,,,,,,,,,,,,,,,,,,,,,,,,,,0.0071524999948451,0.0156805000005988,0.0156805000005988,0.0156805000005988,7.625424957994255,space,7.487168542007566,,,,,,,,,,,,,,,,,,,,,,,,,,,,,,,,,,,,,,,,,,,,,,,,,,,,,,,,,,,sub-087,1,stroop_test,,
,,,,,,,,,,,,,,,,,,,,,,,,,,,,,,,,,,,,,,,,,,,,,,,,,7.625464583004941,7.651178582993452,7.651178582993452,8.980874625005526,space,1.32473987499543,,,,,,,,,,,,,,,,,,,,,,,,,,,,,,,,,,,,,,,,,,,,,,,,,,,,sub-087,1,stroop_test,,
test,blue,b,1.0,0.0,0.0,0.0,b,1.0,0.6183514159929473,,,,,,,,,,,,,,,,,,0.0,0.0,0.0,2.0,,,,,,,,,9.021666500004358,,,,,,,,,,,,,,,,,9.003574040994863,9.340371124999365,10.137668540992308,10.123324290994788,10.130832541006384,10.137668540992308,10.137668540992308,10.758073749995674,b,1.0,0.6183514159929473,,,,,,,,,,,,,,,,,,,,,,,,,,,,,,,,,,,,,,,,sub-087,1,stroop_test,,
test,yellow,g,1.0,1.0,1.0,0.0,g,1.0,0.4993461249978281,,,,,,,,,,,,,,,,,,0.0,1.0,1.0,1.0,,,,,,,,,10.7640927080065,,,,,,,,,,,,,,,,,10.75870695800404,11.556560875003925,12.347542207993683,12.339909207992603,12.3407167080004,12.347542207993683,12.347542207993683,12.85825091600418,g,1.0,0.4993461249978281,,,,,,,,,,,,,,,,,,,,,,,,,,,,,,,,,,,,,,,,sub-087,1,stroop_test,,
test,red,r,1.0,2.0,2.0,0.0,r,1.0,0.5349043750029523,,,,,,,,,,,,,,,,,,0.0,2.0,2.0,0.0,,,,,,,,,12.867509000003338,,,,,,,,,,,,,,,,,12.85882691599545,13.656315457992603,14.44801558299514,14.440140165999765,14.44095337500039,14.44801558299514,14.44801558299514,14.99197833299695,r,1.0,0.5349043750029523,,,,,,,,,,,,,,,,,,,,,,,,,,,,,,,,,,,,,,,,sub-087,1,stroop_test,,
test,yellow,g,1.0,3.0,0.0,1.0,g,1.0,0.5595512500003679,,,,,,,,,,,,,,,,,,1.0,0.0,3.0,1.0,,,,,,,,,15.00150612500147,,,,,,,,,,,,,,,,,14.992636041002696,15.789940375005244,16.582314250001218,16.573698416003026,16.57465370799764,16.582314250001218,16.582314250001218,17.147756874997867,g,1.0,0.5595512500003679,,,,,,,,,,,,,,,,,,,,,,,,,,,,,,,,,,,,,,,,sub-087,1,stroop_test,,
test,blue,b,1.0,4.0,1.0,1.0,b,1.0,0.2851825409888988,,,,,,,,,,,,,,,,,,1.0,1.0,4.0,2.0,,,,,,,,,17.158469415997388,,,,,,,,,,,,,,,,,17.14834337499633,18.347220625000773,19.14877912499651,19.140474707994144,19.141443290995085,19.14877912499651,19.14877912499651,19.441648041000008,b,1.0,0.2851825409888988,,,,,,,,,,,,,,,,,,,,,,,,,,,,,,,,,,,,,,,,sub-087,1,stroop_test,,
test,red,r,1.0,5.0,2.0,1.0,r,1.0,0.4983895829936955,,,,,,,,,,,,,,,,,,1.0,2.0,5.0,0.0,,,,,,,,,19.45077645800484,,,,,,,,,,,,,,,,,19.442232083005365,20.639835249996395,21.432467958002235,21.423997749996488,21.425004250006168,21.432467958002235,21.432467958002235,21.94199849999859,r,1.0,0.4983895829936955,,,,,,,,,,,,,,,,,,,,,,,,,,,,,,,,,,,,,,,,sub-087,1,stroop_test,,
test,red,r,1.0,6.0,0.0,2.0,r,1.0,0.4235515000036685,,,,,,,,,,,,,,,,,,2.0,0.0,6.0,0.0,,,,,,,,,21.951278541004285,,,,,,,,,,,,,,,,,21.942682833003342,22.28979949999484,23.081511708005564,23.073825290994137,23.07461937499465,23.081511708005564,23.081511708005564,23.50820537499385,r,1.0,0.4235515000036685,,,,,,,,,,,,,,,,,,,,,,,,,,,,,,,,,,,,,,,,sub-087,1,stroop_test,,
test,blue,b,1.0,7.0,1.0,2.0,b,1.0,0.4407843340013642,,,,,,,,,,,,,,,,,,2.0,1.0,7.0,2.0,,,,,,,,,23.518874125002185,,,,,,,,,,,,,,,,,23.50877920800121,24.70657037499768,25.498101165998374,25.49058770800184,25.4913979999983,25.498101165998374,25.498101165998374,25.94143320800504,b,1.0,0.4407843340013642,,,,,,,,,,,,,,,,,,,,,,,,,,,,,,,,,,,,,,,,sub-087,1,stroop_test,,
test,yellow,g,1.0,8.0,2.0,2.0,g,1.0,0.5208576250006445,,,,,,,,,,,,,,,,,,2.0,2.0,8.0,1.0,,,,,,,,,25.95081729099911,,,,,,,,,,,,,,,,,25.94198775000405,26.29001241599326,27.0820813330065,27.073913415995776,27.074757082998985,27.0820813330065,27.0820813330065,27.608337625002605,g,1.0,0.5208576250006445,,,,,,,,,,,,,,,,,,,,,,,,,,,,,,,,,,,,,,,,sub-087,1,stroop_test,,
test,blue,b,1.0,9.0,0.0,3.0,b,1.0,0.65686629099946,,,,,,,,,,,,,,,,,,3.0,0.0,9.0,2.0,,,,,,,,,27.617537290992917,,,,,,,,,,,,,,,,,27.608893915996305,28.80682179100404,29.5981179579976,29.590629750004155,29.5914486249967,29.5981179579976,29.5981179579976,30.258354125006008,b,1.0,0.65686629099946,,,,,,,,,,,,,,,,,,,,,,,,,,,,,,,,,,,,,,,,sub-087,1,stroop_test,,
test,yellow,g,1.0,10.0,1.0,3.0,g,1.0,0.5655383330013137,,,,,,,,,,,,,,,,,,3.0,1.0,10.0,1.0,,,,,,,,,30.267516666004667,,,,,,,,,,,,,,,,,30.25891429100011,30.606826375005767,31.39834370800236,31.390660207995097,31.39149029100372,31.39834370800236,31.39834370800236,31.97518549999222,g,1.0,0.5655383330013137,,,,,,,,,,,,,,,,,,,,,,,,,,,,,,,,,,,,,,,,sub-087,1,stroop_test,,
test,red,r,1.0,11.0,2.0,3.0,r,1.0,0.5061955410055816,,,,,,,,,,,,,,,,,,3.0,2.0,11.0,0.0,,,,,,,,,31.98424254100246,,,,,,,,,,,,,,,,,31.97577670800092,32.32381004099443,33.11576466599945,33.10746366600506,33.10843616600323,33.11576466599945,33.11576466599945,33.62535299999581,r,1.0,0.5061955410055816,,,,,,,,,,,,,,,,,,,,,,,,,,,,,,,,,,,,,,,,sub-087,1,stroop_test,,
,,,,,,,,,,,,,,,,,,,,,,,,,,,,,,,,,,,,,,,,,,,,,,,,,,,,,,,,,,,,,,,,,,,,33.62566858300124,33.63769512499857,33.63769512499857,34.425259583003935,space,0.7802151249925373,,,,,,,,,,,,,,,,,,,,,,,,,,,,,,,,,sub-087,1,stroop_test,,
,,,,0.0,0.0,0.0,,,,,blau,yellow,g,0.0,g,1.0,0.770012458000565,,,,,,,,,,,,,,0.0,0.0,0.0,7.0,,,,,34.447974624999915,,,,,,,,,,,,,,,,,34.44058316599694,34.773555583000416,35.572908457994345,35.55747391599289,,,,,,,,,,,,,,,,35.56635208299849,35.572908457994345,35.572908457994345,36.347381915998994,g,1.0,0.770012458000565,,36.35537366599601,36.36466974999348,37.35722545799217,,,,,,,,,,,,,,,,,,,,,sub-087,1,stroop_test,,
,,,,1.0,1.0,0.0,,,,,blau,red,r,0.0,r,1.0,0.7108592500007944,,,,,,,,,,,,,,0.0,1.0,1.0,4.0,,,,,37.36276220799482,,,,,,,,,,,,,,,,,37.35781537499861,38.54678479100403,39.34000433300389,39.33024070800457,,,,,,,,,,,,,,,,39.33115170800011,39.34000433300389,39.34000433300389,40.058804290994885,r,1.0,0.7108592500007944,,40.05966450000415,40.07029258299736,41.057727749997866,41.063454666000325,,,,,,,,,,,,,,,,,,,,sub-087,1,stroop_test,,
,,,,2.0,2.0,0.0,,,,,gelb,yellow,g,1.0,g,1.0,0.5848023750004359,,,,,,,,,,,,,,0.0,2.0,2.0,11.0,,,,,41.063454666000325,,,,,,,,,,,,,,,,,41.05836937499407,41.857150249998085,42.65326079100487,42.64095979099511,,,,,,,,,,,,,,,,42.64640370800044,42.65326079100487,42.65326079100487,43.242194791004295,g,1.0,0.5848023750004359,,43.24319774999458,43.253617958005634,44.24109004100319,44.24651466599608,,,,,,,,,,,,,,,,,,,,sub-087,1,stroop_test,,
,,,,3.0,3.0,0.0,,,,,rot,red,r,1.0,r,1.0,0.4858625000051688,,,,,,,,,,,,,,0.0,3.0,3.0,1.0,,,,,44.24651466599608,,,,,,,,,,,,,,,,,44.24165687500499,45.44061925000278,46.23709033300111,46.22412462500506,,,,,,,,,,,,,,,,46.23043483299261,46.23709033300111,46.23709033300111,46.725458375003655,r,1.0,0.4858625000051688,,46.72631295799511,46.73734362500545,47.72445687500294,47.73020458300016,,,,,,,,,,,,,,,,,,,,sub-087,1,stroop_test,,
,,,,4.0,4.0,0.0,,,,,gelb,yellow,g,1.0,g,1.0,0.4790317909937585,,,,,,,,,,,,,,0.0,4.0,4.0,10.0,,,,,47.73020458300016,,,,,,,,,,,,,,,,,47.72511329100234,48.07399995799642,48.869844332992216,48.85793370800093,,,,,,,,,,,,,,,,48.86272062499484,48.869844332992216,48.869844332992216,49.35901816599653,g,1.0,0.4790317909937585,,49.35979108299944,49.36954441599664,50.35806558300101,50.36393937500543,,,,,,,,,,,,,,,,,,,,sub-087,1,stroop_test,,
,,,,5.0,5.0,0.0,,,,,blau,blue,b,1.0,b,1.0,0.4253235000069253,,,,,,,,,,,,,,0.0,5.0,5.0,6.0,,,,,50.36393937500543,,,,,,,,,,,,,,,,,50.35874166600115,51.15781108300144,51.95357891599997,51.94111141600297,,,,,,,,,,,,,,,,51.94703170799767,51.95357891599997,51.95357891599997,52.38137824999285,b,1.0,0.4253235000069253,,52.382271416005096,52.39211650000652,53.38011704100063,53.39076266599295,,,,,,,,,,,,,,,,,,,,sub-087,1,stroop_test,,
,,,,6.0,6.0,0.0,,,,,gelb,blue,b,0.0,b,1.0,0.7248612080002204,,,,,,,,,,,,,,0.0,6.0,6.0,9.0,,,,,53.39076266599295,,,,,,,,,,,,,,,,,53.38063108299684,53.7312882910046,54.536015000005136,54.52462424999976,,,,,,,,,,,,,,,,54.52912804100197,54.536015000005136,54.536015000005136,55.26465679099783,b,1.0,0.7248612080002204,,55.26543425000273,55.27562445799413,56.26370816599229,56.27428379100456,,,,,,,,,,,,,,,,,,,,sub-087,1,stroop_test,,
,,,,7.0,7.0,0.0,,,,,rot,yellow,g,0.0,g,1.0,0.8880337500013411,,,,,,,,,,,,,,0.0,7.0,7.0,3.0,,,,,56.27428379100456,,,,,,,,,,,,,,,,,56.26426574999641,56.607507041000645,57.40375979100645,57.39117216599698,,,,,,,,,,,,,,,,57.396535541003686,57.40375979100645,57.40375979100645,58.29836583300494,g,1.0,0.8880337500013411,,58.29914212500444,58.30957675000536,59.29738112499763,59.30770779099839,,,,,,,,,,,,,,,,,,,,sub-087,1,stroop_test,,
,,,,8.0,8.0,0.0,,,,,rot,red,r,1.0,r,1.0,0.5847387079993496,,,,,,,,,,,,,,0.0,8.0,8.0,0.0,,,,,59.30770779099839,,,,,,,,,,,,,,,,,59.29796462500235,59.3981799579924,60.19905841599393,60.19143154099584,,,,,,,,,,,,,,,,60.19224220799515,60.19905841599393,60.19905841599393,60.79276199999731,r,1.0,0.5847387079993496,,60.793488166003954,60.803024041000754,61.79137629100296,61.796759749995545,,,,,,,,,,,,,,,,,,,,sub-087,1,stroop_test,,
,,,,9.0,9.0,0.0,,,,,gelb,red,r,0.0,r,1.0,1.3606108750100248,,,,,,,,,,,,,,0.0,9.0,9.0,8.0,,,,,61.796759749995545,,,,,,,,,,,,,,,,,61.79192979099753,62.99107879100484,63.786564541005646,63.774679041001946,,,,,,,,,,,,,,,,63.77970358300081,63.786564541005646,63.786564541005646,65.15947400000005,r,1.0,1.3606108750100248,,65.16028345799714,65.17058287499822,66.15817316599714,66.16383224999299,,,,,,,,,,,,,,,,,,,,sub-087,1,stroop_test,,
,,,,10.0,10.0,0.0,,,,,blau,blue,b,1.0,b,1.0,0.4531962499895599,,,,,,,,,,,,,,0.0,10.0,10.0,5.0,,,,,66.16383224999299,,,,,,,,,,,,,,,,,66.15883154100447,66.50809466600185,67.30353666600422,67.29168579100224,,,,,,,,,,,,,,,,67.29657520800538,67.30353666600422,67.30353666600422,67.75935262499843,b,1.0,0.4531962499895599,,67.76023416599492,67.77050374999817,68.75835645799816,68.7638015410048,,,,,,,,,,,,,,,,,,,,sub-087,1,stroop_test,,
,,,,11.0,11.0,0.0,,,,,rot,blue,b,0.0,b,1.0,0.7544256249966566,,,,,,,,,,,,,,0.0,11.0,11.0,2.0,,,,,68.7638015410048,,,,,,,,,,,,,,,,,68.75891995799611,69.1079852910043,69.90338324999902,69.89166549999209,,,,,,,,,,,,,,,,69.89594674999535,69.90338324999902,69.90338324999902,70.65918691600382,b,1.0,0.7544256249966566,,70.66020112499245,70.66970729100285,71.65837683300197,71.66374966599687,,,,,,,,,,,,,,,,,,,,sub-087,1,stroop_test,,
,,,,12.0,0.0,1.0,,,,,gelb,yellow,g,1.0,g,1.0,0.5185409159894334,,,,,,,,,,,,,,1.0,0.0,12.0,10.0,,,,,71.66374966599687,,,,,,,,,,,,,,,,,71.65894445800222,72.00833662500372,72.80333033300121,72.79139374999795,,,,,,,,,,,,,,,,72.79637062500115,72.80333033300121,72.80333033300121,73.32611125000403,g,1.0,0.5185409159894334,,73.32691041599901,73.33685141599562,74.32510433299467,74.33050583300064,,,,,,,,,,,,,,,,,,,,sub-087,1,stroop_test,,
,,,,13.0,1.0,1.0,,,,,blau,blue,b,1.0,b,1.0,0.4484978330001468,,,,,,,,,,,,,,1.0,1.0,13.0,5.0,,,,,74.33050583300064,,,,,,,,,,,,,,,,,74.32565250000334,75.52454229099385,76.32029591599712,76.30845933299861,,,,,,,,,,,,,,,,76.31316979099938,76.32029591599712,76.32029591599712,76.77644883299945,b,1.0,0.4484978330001468,,76.77726233299472,76.78799974999856,77.77521133300615,77.78100108299986,,,,,,,,,,,,,,,,,,,,sub-087,1,stroop_test,,
,,,,14.0,2.0,1.0,,,,,gelb,blue,b,0.0,b,1.0,0.8382576250005513,,,,,,,,,,,,,,1.0,2.0,14.0,9.0,,,,,77.78100108299986,,,,,,,,,,,,,,,,,77.77588991599623,78.12461970800359,78.92053074999421,78.90863708300458,,,,,,,,,,,,,,,,78.91329208300158,78.92053074999421,78.92053074999421,79.76561762500205,b,1.0,0.8382576250005513,,79.76643862499623,79.776823082997,80.76382233299955,80.77443995799695,,,,,,,,,,,,,,,,,,,,sub-087,1,stroop_test,,
,,,,15.0,3.0,1.0,,,,,rot,red,r,1.0,r,1.0,0.4567203749902546,,,,,,,,,,,,,,1.0,3.0,15.0,1.0,,,,,80.77443995799695,,,,,,,,,,,,,,,,,80.76443049999943,81.56450108300487,82.36002637499769,82.34796724999615,,,,,,,,,,,,,,,,82.35246308299247,82.36002637499769,82.36002637499769,82.82680245800293,r,1.0,0.4567203749902546,,82.82771091599716,82.83907937500044,83.8253698329936,83.83076087500376,,,,,,,,,,,,,,,,,,,,sub-087,1,stroop_test,,
,,,,16.0,4.0,1.0,,,,,rot,red,r,1.0,r,1.0,0.61533149999741,,,,,,,,,,,,,,1.0,4.0,16.0,0.0,,,,,83.83076087500376,,,,,,,,,,,,,,,,,83.82594354100002,85.02509308299341,85.81636687500577,85.80855179099308,,,,,,,,,,,,,,,,85.80933587500476,85.81636687500577,85.81636687500577,86.44301029099734,r,1.0,0.61533149999741,,86.44388216600055,86.45478208300483,87.44218199999887,87.44793125000433,,,,,,,,,,,,,,,,,,,,sub-087,1,stroop_test,,
,,,,17.0,5.0,1.0,,,,,gelb,red,r,0.0,r,1.0,1.0521325839945348,,,,,,,,,,,,,,1.0,5.0,17.0,8.0,,,,,87.44793125000433,,,,,,,,,,,,,,,,,87.44287724999595,88.24176045799686,89.03675145799934,89.02539066599275,,,,,,,,,,,,,,,,89.02996879100101,89.03675145799934,89.03675145799934,90.09338995799772,r,1.0,1.0521325839945348,,90.09439083299368,90.10576558299364,91.09212995799317,91.09763362500236,,,,,,,,,,,,,,,,,,,,sub-087,1,stroop_test,,
,,,,18.0,6.0,1.0,,,,,blau,red,r,0.0,b,0.0,0.458920124990982,,,,,,,,,,,,,,1.0,6.0,18.0,4.0,,,,,91.09763362500236,,,,,,,,,,,,,,,,,91.0926710000058,91.44207512499996,92.23680275000515,92.225400041003,,,,,,,,,,,,,,,,92.2299717499991,92.23680275000515,92.23680275000515,92.69888766600344,b,0.0,0.458920124990982,,92.7052967500058,92.71416195799247,93.69816004099266,93.70853658299892,,,,,,,,,,,,,,,,,,,,sub-087,1,stroop_test,,
,,,,19.0,7.0,1.0,,,,,blau,blue,b,1.0,b,1.0,0.5103568339982303,,,,,,,,,,,,,,1.0,7.0,19.0,6.0,,,,,93.70853658299892,,,,,,,,,,,,,,,,,93.69872029099496,93.79797437500385,94.59138458299276,94.58108695800183,,,,,,,,,,,,,,,,94.5818984159996,94.59138458299276,94.59138458299276,95.10985704099583,b,1.0,0.5103568339982303,,95.11411679099548,95.12362808300531,96.10890525000286,96.11429104099808,,,,,,,,,,,,,,,,,,,,sub-087,1,stroop_test,,
,,,,20.0,8.0,1.0,,,,,rot,blue,b,0.0,b,1.0,1.1474067919916706,,,,,,,,,,,,,,1.0,8.0,20.0,2.0,,,,,96.11429104099808,,,,,,,,,,,,,,,,,96.10946333299216,96.9085622499988,97.70535416599888,97.69234166599928,,,,,,,,,,,,,,,,97.697596375001,97.70535416599888,97.70535416599888,98.8602499999979,b,1.0,1.1474067919916706,,98.86114379100036,98.87232100000256,99.8588930410042,99.86424920799618,,,,,,,,,,,,,,,,,,,,sub-087,1,stroop_test,,
,,,,21.0,9.0,1.0,,,,,blau,yellow,g,0.0,g,1.0,0.843825291012763,,,,,,,,,,,,,,1.0,9.0,21.0,7.0,,,,,99.86424920799618,,,,,,,,,,,,,,,,,99.85946216600132,100.65851374999328,101.45402058299806,101.44242495800428,,,,,,,,,,,,,,,,101.44678037500124,101.45402058299806,101.45402058299806,102.29960770800244,g,1.0,0.843825291012763,,102.30039529099304,102.31095545800054,103.29808624999714,103.30878083300196,,,,,,,,,,,,,,,,,,,,sub-087,1,stroop_test,,
,,,,22.0,10.0,1.0,,,,,gelb,yellow,g,1.0,g,1.0,0.5602111670013983,,,,,,,,,,,,,,1.0,10.0,22.0,11.0,,,,,103.30878083300196,,,,,,,,,,,,,,,,,103.29865062500176,103.399530374998,104.20457329100464,104.19247820800229,,,,,,,,,,,,,,,,104.19746933299756,104.20457329100464,104.20457329100464,104.76639170800628,g,1.0,0.5602111670013983,,104.76714712499232,104.77754262500092,105.76510912500088,105.77535137499216,,,,,,,,,,,,,,,,,,,,sub-087,1,stroop_test,,
,,,,23.0,11.0,1.0,,,,,rot,yellow,g,0.0,g,1.0,0.7118422919884324,,,,,,,,,,,,,,1.0,11.0,23.0,3.0,,,,,105.77535137499216,,,,,,,,,,,,,,,,,105.76569775000098,106.56634633299836,107.37084524999956,107.35915945799206,,,,,,,,,,,,,,,,107.36364258300456,107.37084524999956,107.37084524999956,108.09378825000022,g,1.0,0.7118422919884324,,108.09458562500367,108.1053113329981,109.09264470799826,109.10069933299384,,,,,,,,,,,,,,,,,,,,sub-087,1,stroop_test,,
,,,,,,,,,,,,,,,,,,,,,,,,,,,,,,,,,,,,,,,,,,,,,,,,,,,,,,,,,,,,,,,,,,,,,,,,,,,,,,,,,,,,,,,109.09286858300038,109.10069933299384,109.10069933299384,110.08303245800198,space,0.9759557499928632,,,,,,,,,,,,,,sub-087,1,stroop_test,,
,,,,0.0,0.0,0.0,,,,,,,,,,,,,gelb,red,r,0.0,r,1.0,0.8323695410072105,,,,,,,,,,0.0,0.0,0.0,8.0,110.10651870799484,,,,,,,,,,,,,,,,,110.09927424999478,110.43278324999848,111.23940529099492,111.22591666599328,,,,,,,,,,,,,,,,,,,,,,,,,,,,,,,,,,,111.23268366599224,111.23940529099492,111.23940529099492,112.07703620799292,r,1.0,0.8323695410072105,,,,,,sub-087,1,stroop_test,,
,,,,1.0,1.0,0.0,,,,,,,,,,,,,blau,blue,b,1.0,b,1.0,0.4713023750082357,,,,,,,,,,0.0,1.0,1.0,6.0,112.08728491599322,,,,,,,,,,,,,,,,,112.07779195799958,112.17555945800268,112.97055883299618,112.95935812499374,,,,,,,,,,,,,,,,,,,,,,,,,,,,,,,,,,,112.963774207994,112.97055883299618,112.97055883299618,113.44402941600129,b,1.0,0.4713023750082357,,,,,,sub-087,1,stroop_test,,
,,,,2.0,2.0,0.0,,,,,,,,,,,,,gelb,blue,b,0.0,b,1.0,0.677233750000596,,,,,,,,,,0.0,2.0,2.0,9.0,113.4540672909934,,,,,,,,,,,,,,,,,113.44476887499331,114.24215445799928,115.03753566599336,115.02605295799732,,,,,,,,,,,,,,,,,,,,,,,,,,,,,,,,,,,115.03040358300495,115.03753566599336,115.03753566599336,115.7166985829972,b,1.0,0.677233750000596,,,,,,sub-087,1,stroop_test,,
,,,,3.0,3.0,0.0,,,,,,,,,,,,,blau,blue,b,1.0,b,1.0,0.5310970829887083,,,,,,,,,,0.0,3.0,3.0,5.0,115.74222054099664,,,,,,,,,,,,,,,,,115.71729566599242,116.91647700000613,117.72062341599668,117.70931933299288,,,,,,,,,,,,,,,,,,,,,,,,,,,,,,,,,,,117.713717000006,117.72062341599668,117.72062341599668,118.2605226250016,b,1.0,0.5310970829887083,,,,,,sub-087,1,stroop_test,,
,,,,4.0,4.0,0.0,,,,,,,,,,,,,gelb,yellow,g,1.0,g,1.0,0.6107504999963567,,,,,,,,,,0.0,4.0,4.0,10.0,118.26952395800618,,,,,,,,,,,,,,,,,118.26110575000348,118.60882212499564,119.40409204100432,119.39284891600256,,,,,,,,,,,,,,,,,,,,,,,,,,,,,,,,,,,119.39716129099544,119.40409204100432,119.40409204100432,120.02725229099453,g,1.0,0.6107504999963567,,,,,,sub-087,1,stroop_test,,
,,,,5.0,5.0,0.0,,,,,,,,,,,,,blau,red,r,0.0,r,1.0,0.8017505000025267,,,,,,,,,,0.0,5.0,5.0,4.0,120.03631079099432,,,,,,,,,,,,,,,,,120.0278852909978,121.22556500000064,122.0199691250018,122.00913474999834,,,,,,,,,,,,,,,,,,,,,,,,,,,,,,,,,,,122.01327962499636,122.0199691250018,122.0199691250018,122.82778900000268,r,1.0,0.8017505000025267,,,,,,sub-087,1,stroop_test,,
,,,,6.0,6.0,0.0,,,,,,,,,,,,,gelb,yellow,g,1.0,g,1.0,0.6854352089867461,,,,,,,,,,0.0,6.0,6.0,11.0,122.83835633299896,,,,,,,,,,,,,,,,,122.82854091600166,122.92604016599944,123.72339225000178,123.70963974999904,,,,,,,,,,,,,,,,,,,,,,,,,,,,,,,,,,,123.71624220800004,123.72339225000178,123.72339225000178,124.41095166599553,g,1.0,0.6854352089867461,,,,,,sub-087,1,stroop_test,,
,,,,7.0,7.0,0.0,,,,,,,,,,,,,rot,blue,b,0.0,b,1.0,0.8303461250034161,,,,,,,,,,0.0,7.0,7.0,2.0,124.41693574999226,,,,,,,,,,,,,,,,,124.41170825000154,124.75902458299242,125.55432620800276,125.54287404099888,,,,,,,,,,,,,,,,,,,,,,,,,,,,,,,,,,,125.5470988330053,125.55432620800276,125.55432620800276,126.39389624999605,b,1.0,0.8303461250034161,,,,,,sub-087,1,stroop_test,,
,,,,8.0,8.0,0.0,,,,,,,,,,,,,rot,red,r,1.0,r,1.0,0.5435364169970853,,,,,,,,,,0.0,8.0,8.0,0.0,126.40259779100596,,,,,,,,,,,,,,,,,126.39436620799825,126.7427710829943,127.53411891599536,127.52640375000192,,,,,,,,,,,,,,,,,,,,,,,,,,,,,,,,,,,127.52717895800016,127.53411891599536,127.53411891599536,128.08309333299985,r,1.0,0.5435364169970853,,,,,,sub-087,1,stroop_test,,
,,,,9.0,9.0,0.0,,,,,,,,,,,,,rot,red,r,1.0,r,1.0,0.5019107920088572,,,,,,,,,,0.0,9.0,9.0,1.0,128.0917804579949,,,,,,,,,,,,,,,,,128.08367379099946,129.28347237499838,130.0848441660055,130.07654275000095,,,,,,,,,,,,,,,,,,,,,,,,,,,,,,,,,,,130.07748020799772,130.0848441660055,130.0848441660055,130.59438358299667,r,1.0,0.5019107920088572,,,,,,sub-087,1,stroop_test,,
,,,,10.0,10.0,0.0,,,,,,,,,,,,,rot,yellow,g,0.0,g,1.0,0.5606695830065291,,,,,,,,,,0.0,10.0,10.0,3.0,130.60455512499902,,,,,,,,,,,,,,,,,130.59502808300022,131.39263045799453,132.18405174999498,132.1763619580015,,,,,,,,,,,,,,,,,,,,,,,,,,,,,,,,,,,132.1771724160062,132.18405174999498,132.18405174999498,132.75044820799667,g,1.0,0.5606695830065291,,,,,,sub-087,1,stroop_test,,
,,,,11.0,11.0,0.0,,,,,,,,,,,,,blau,yellow,g,0.0,b,0.0,0.6012584160052938,,,,,,,,,,0.0,11.0,11.0,7.0,132.77585887500027,,,,,,,,,,,,,,,,,132.75109416600026,133.10027075000107,133.90452558299876,133.89302429099916,,,,,,,,,,,,,,,,,,,,,,,,,,,,,,,,,,,133.89794854099455,133.90452558299876,133.90452558299876,134.51083770800324,b,0.0,0.6012584160052938,,,,,,sub-087,1,stroop_test,,
,,,,12.0,0.0,1.0,,,,,,,,,,,,,gelb,yellow,g,1.0,g,1.0,0.6331992090126732,,,,,,,,,,1.0,0.0,12.0,10.0,134.52053008299845,,,,,,,,,,,,,,,,,134.5114475409937,135.70936620800055,136.505560125006,136.4934110000031,,,,,,,,,,,,,,,,,,,,,,,,,,,,,,,,,,,136.49868662499648,136.505560125006,136.505560125006,137.1441327079956,g,1.0,0.6331992090126732,,,,,,sub-087,1,stroop_test,,
,,,,13.0,1.0,1.0,,,,,,,,,,,,,gelb,yellow,g,1.0,g,1.0,0.5818894169933628,,,,,,,,,,1.0,1.0,13.0,11.0,137.15330645799986,,,,,,,,,,,,,,,,,137.14476704099798,137.49312233300589,138.28477379100514,138.27669045800576,,,,,,,,,,,,,,,,,,,,,,,,,,,,,,,,,,,138.27767754100205,138.28477379100514,138.28477379100514,138.87827083299635,g,1.0,0.5818894169933628,,,,,,sub-087,1,stroop_test,,
,,,,14.0,2.0,1.0,,,,,,,,,,,,,rot,red,r,1.0,r,1.0,0.459618250009953,,,,,,,,,,1.0,2.0,14.0,1.0,138.88876454099957,,,,,,,,,,,,,,,,,138.87904941600573,139.22605862500495,140.02211137500126,140.010219082993,,,,,,,,,,,,,,,,,,,,,,,,,,,,,,,,,,,140.01482670799305,140.02211137500126,140.02211137500126,140.4833552909986,r,1.0,0.459618250009953,,,,,,sub-087,1,stroop_test,,
,,,,15.0,3.0,1.0,,,,,,,,,,,,,blau,red,r,0.0,r,1.0,0.8115305829996942,,,,,,,,,,1.0,3.0,15.0,4.0,140.4927356660046,,,,,,,,,,,,,,,,,140.48389445799694,140.5852642910031,141.38811975000135,141.37664750000113,,,,,,,,,,,,,,,,,,,,,,,,,,,,,,,,,,,141.38106466599857,141.38811975000135,141.38811975000135,142.21129654100514,r,1.0,0.8115305829996942,,,,,,sub-087,1,stroop_test,,
,,,,16.0,4.0,1.0,,,,,,,,,,,,,blau,yellow,g,0.0,g,1.0,0.6535560419870308,,,,,,,,,,1.0,4.0,16.0,7.0,142.22058066600584,,,,,,,,,,,,,,,,,142.21192833299574,143.4097253749933,144.2010947910021,144.19339437500457,,,,,,,,,,,,,,,,,,,,,,,,,,,,,,,,,,,144.19421633299498,144.2010947910021,144.2010947910021,144.8614707079978,g,1.0,0.6535560419870308,,,,,,sub-087,1,stroop_test,,
,,,,17.0,5.0,1.0,,,,,,,,,,,,,rot,blue,b,0.0,b,1.0,0.765899249992799,,,,,,,,,,1.0,5.0,17.0,2.0,144.8714976659976,,,,,,,,,,,,,,,,,144.86214658299286,145.65984691599442,146.4557872909936,146.44340112499776,,,,,,,,,,,,,,,,,,,,,,,,,,,,,,,,,,,146.44894800000475,146.4557872909936,146.4557872909936,147.22819941600028,b,1.0,0.765899249992799,,,,,,sub-087,1,stroop_test,,
,,,,18.0,6.0,1.0,,,,,,,,,,,,,gelb,red,r,0.0,r,1.0,0.8011452499922598,,,,,,,,,,1.0,6.0,18.0,8.0,147.2372902079951,,,,,,,,,,,,,,,,,147.22887579099915,147.5762775829935,148.37160749999748,148.36011670800508,,,,,,,,,,,,,,,,,,,,,,,,,,,,,,,,,,,148.3644851660065,148.37160749999748,148.37160749999748,149.177565082995,r,1.0,0.8011452499922598,,,,,,sub-087,1,stroop_test,,
,,,,19.0,7.0,1.0,,,,,,,,,,,,,rot,yellow,g,0.0,g,1.0,0.7434043749963166,,,,,,,,,,1.0,7.0,19.0,3.0,149.1870512500027,,,,,,,,,,,,,,,,,149.17819262499688,149.27659987499646,150.0723056660063,150.0601921250054,,,,,,,,,,,,,,,,,,,,,,,,,,,,,,,,,,,150.06518879100622,150.0723056660063,150.0723056660063,150.81750854100392,g,1.0,0.7434043749963166,,,,,,sub-087,1,stroop_test,,
,,,,20.0,8.0,1.0,,,,,,,,,,,,,gelb,blue,b,0.0,b,1.0,0.5501533750066301,,,,,,,,,,1.0,8.0,20.0,9.0,150.82627912500175,,,,,,,,,,,,,,,,,150.81810883300204,152.01729899999918,152.8225702500058,152.8104629580048,,,,,,,,,,,,,,,,,,,,,,,,,,,,,,,,,,,152.8155860830011,152.8225702500058,152.8225702500058,153.37779504100035,b,1.0,0.5501533750066301,,,,,,sub-087,1,stroop_test,,
,,,,21.0,9.0,1.0,,,,,,,,,,,,,rot,red,r,1.0,r,1.0,0.8028207500028657,,,,,,,,,,1.0,9.0,21.0,0.0,153.38727337500313,,,,,,,,,,,,,,,,,153.37842229100352,153.47656991600525,154.27200566600368,154.26015487499535,,,,,,,,,,,,,,,,,,,,,,,,,,,,,,,,,,,154.26501866600302,154.27200566600368,154.27200566600368,155.07813595799962,r,1.0,0.8028207500028657,,,,,,sub-087,1,stroop_test,,
,,,,22.0,10.0,1.0,,,,,,,,,,,,,blau,blue,b,1.0,b,1.0,0.4590654589992482,,,,,,,,,,1.0,10.0,22.0,6.0,155.08800316600536,,,,,,,,,,,,,,,,,155.07878433300357,156.2767630409944,157.07157416599512,157.0603905829921,,,,,,,,,,,,,,,,,,,,,,,,,,,,,,,,,,,157.06484799999453,157.07157416599512,157.07157416599512,157.5337969999964,b,1.0,0.4590654589992482,,,,,,sub-087,1,stroop_test,,
,,,,23.0,11.0,1.0,,,,,,,,,,,,,blau,blue,b,1.0,b,1.0,0.5821629169950029,,,,,,,,,,1.0,11.0,23.0,5.0,157.5427916250046,,,,,,,,,,,,,,,,,157.534324207998,157.8841619159939,158.68457529100124,158.67707379099738,,,,,,,,,,,,,,,,,,,,,,,,,,,,,,,,,,,158.67786166600126,158.68457529100124,158.68457529100124,159.27847137500066,b,1.0,0.5821629169950029,,,,,,sub-087,1,stroop_test,,
,,,,24.0,0.0,2.0,,,,,,,,,,,,,rot,blue,b,0.0,r,0.0,0.53188599999703,,,,,,,,,,2.0,0.0,24.0,2.0,159.28771516599227,,,,,,,,,,,,,,,,,159.27909620800347,159.3768323330005,160.17183433299942,160.16037183300068,,,,,,,,,,,,,,,,,,,,,,,,,,,,,,,,,,,160.16467566600477,160.17183433299942,160.17183433299942,160.71197883300192,r,0.0,0.53188599999703,,,,,,sub-087,1,stroop_test,,
,,,,25.0,1.0,2.0,,,,,,,,,,,,,gelb,yellow,g,1.0,g,1.0,0.5258871250116499,,,,,,,,,,2.0,1.0,25.0,11.0,160.7225504579983,,,,,,,,,,,,,,,,,160.71275087499816,161.0602844160021,161.85686012500082,161.84384037500422,,,,,,,,,,,,,,,,,,,,,,,,,,,,,,,,,,,161.85005191600067,161.85686012500082,161.85686012500082,162.39526666600432,g,1.0,0.5258871250116499,,,,,,sub-087,1,stroop_test,,
,,,,26.0,2.0,2.0,,,,,,,,,,,,,rot,yellow,g,0.0,g,1.0,0.7753826249972917,,,,,,,,,,2.0,2.0,26.0,3.0,162.40553299999738,,,,,,,,,,,,,,,,,162.39591429100255,162.7437962910044,163.53831041599915,163.52712870799587,,,,,,,,,,,,,,,,,,,,,,,,,,,,,,,,,,,163.5314935829956,163.53831041599915,163.53831041599915,164.31798962499306,g,1.0,0.7753826249972917,,,,,,sub-087,1,stroop_test,,
,,,,27.0,3.0,2.0,,,,,,,,,,,,,blau,blue,b,1.0,b,1.0,0.4649242919986136,,,,,,,,,,2.0,3.0,27.0,6.0,164.32870458299294,,,,,,,,,,,,,,,,,164.3186152910057,165.5167447910062,166.31179866599268,166.29991750000045,,,,,,,,,,,,,,,,,,,,,,,,,,,,,,,,,,,166.30446450000454,166.31179866599268,166.31179866599268,166.77843333300552,b,1.0,0.4649242919986136,,,,,,sub-087,1,stroop_test,,
,,,,28.0,4.0,2.0,,,,,,,,,,,,,gelb,red,r,0.0,r,1.0,0.7332214159978321,,,,,,,,,,2.0,4.0,28.0,8.0,166.78870099999767,,,,,,,,,,,,,,,,,166.77907575000427,167.12698425000417,167.92251041599957,167.91058075000183,,,,,,,,,,,,,,,,,,,,,,,,,,,,,,,,,,,167.91549766600656,167.92251041599957,167.92251041599957,168.6619335830037,r,1.0,0.7332214159978321,,,,,,sub-087,1,stroop_test,,
,,,,29.0,5.0,2.0,,,,,,,,,,,,,blau,blue,b,1.0,b,1.0,0.488908708008239,,,,,,,,,,2.0,5.0,29.0,5.0,168.67181391599297,,,,,,,,,,,,,,,,,168.66257570800371,168.76031391600554,169.55573737500526,169.54419116600184,,,,,,,,,,,,,,,,,,,,,,,,,,,,,,,,,,,169.54884712499916,169.55573737500526,169.55573737500526,170.05115704100172,b,1.0,0.488908708008239,,,,,,sub-087,1,stroop_test,,
,,,,30.0,6.0,2.0,,,,,,,,,,,,,rot,red,r,1.0,r,1.0,0.7580349999916507,,,,,,,,,,2.0,6.0,30.0,1.0,170.06031950000033,,,,,,,,,,,,,,,,,170.0517182909971,171.25128062500153,172.05663112500042,172.04419145800057,,,,,,,,,,,,,,,,,,,,,,,,,,,,,,,,,,,172.04917966600624,172.05663112500042,172.05663112500042,172.81758004099538,r,1.0,0.7580349999916507,,,,,,sub-087,1,stroop_test,,
,,,,31.0,7.0,2.0,,,,,,,,,,,,,blau,red,r,0.0,b,0.0,0.4776778329978697,,,,,,,,,,2.0,7.0,31.0,4.0,172.8262751250004,,,,,,,,,,,,,,,,,172.8181923749944,174.01779062500282,174.8230446249945,174.8107276249939,,,,,,,,,,,,,,,,,,,,,,,,,,,,,,,,,,,174.8159358749981,174.8230446249945,174.8230446249945,175.31207625000388,b,0.0,0.4776778329978697,,,,,,sub-087,1,stroop_test,,
,,,,32.0,8.0,2.0,,,,,,,,,,,,,rot,red,r,1.0,r,1.0,0.5413702500081854,,,,,,,,,,2.0,8.0,32.0,0.0,175.32159270800184,,,,,,,,,,,,,,,,,175.31271191600536,175.41040908299328,176.20633575000102,176.19416045800608,,,,,,,,,,,,,,,,,,,,,,,,,,,,,,,,,,,176.19959308300167,176.20633575000102,176.20633575000102,176.75155516600353,r,1.0,0.5413702500081854,,,,,,sub-087,1,stroop_test,,
,,,,33.0,9.0,2.0,,,,,,,,,,,,,gelb,yellow,g,1.0,g,1.0,0.5934792920015752,,,,,,,,,,2.0,9.0,33.0,10.0,176.77689908299362,,,,,,,,,,,,,,,,,176.75215204099368,176.85019108299457,177.66017587500392,177.6332125409972,,,,,,,,,,,,,,,,,,,,,,,,,,,,,,,,,,,177.63785112499318,177.66017587500392,177.66017587500392,178.26251425000373,g,1.0,0.5934792920015752,,,,,,sub-087,1,stroop_test,,
,,,,34.0,10.0,2.0,,,,,,,,,,,,,blau,yellow,g,0.0,g,1.0,1.247889209000277,,,,,,,,,,2.0,10.0,34.0,7.0,178.27060654100205,,,,,,,,,,,,,,,,,178.26303991599707,179.06035674999293,179.85582045800402,179.84432899999956,,,,,,,,,,,,,,,,,,,,,,,,,,,,,,,,,,,179.84874995799328,179.85582045800402,179.85582045800402,181.11230141599663,g,1.0,1.247889209000277,,,,,,sub-087,1,stroop_test,,
,,,,35.0,11.0,2.0,,,,,,,,,,,,,gelb,blue,b,0.0,b,1.0,0.755237000004854,,,,,,,,,,2.0,11.0,35.0,9.0,181.12177304099896,,,,,,,,,,,,,,,,,181.11297849999391,182.3106815409992,183.10635262499272,183.09437716599496,,,,,,,,,,,,,,,,,,,,,,,,,,,,,,,,,,,183.0994030409929,183.10635262499272,183.10635262499272,183.86789045800103,b,1.0,0.755237000004854,,,,,,sub-087,1,stroop_test,,
,,,,36.0,0.0,3.0,,,,,,,,,,,,,blau,blue,b,1.0,b,1.0,0.3910635420033941,,,,,,,,,,3.0,0.0,36.0,6.0,183.8768527499924,,,,,,,,,,,,,,,,,183.86855549999743,185.06775183300488,185.87260204099584,185.86117791599827,,,,,,,,,,,,,,,,,,,,,,,,,,,,,,,,,,,185.86553854099475,185.87260204099584,185.87260204099584,186.26775445799285,b,1.0,0.3910635420033941,,,,,,sub-087,1,stroop_test,,
,,,,37.0,1.0,3.0,,,,,,,,,,,,,blau,yellow,g,0.0,g,1.0,0.9600298750010552,,,,,,,,,,3.0,1.0,37.0,7.0,186.27657258299587,,,,,,,,,,,,,,,,,186.2683482499997,187.46829795799567,188.2695342079969,188.2612683329935,,,,,,,,,,,,,,,,,,,,,,,,,,,,,,,,,,,188.26223199999367,188.2695342079969,188.2695342079969,189.2346308749984,g,1.0,0.9600298750010552,,,,,,sub-087,1,stroop_test,,
,,,,38.0,2.0,3.0,,,,,,,,,,,,,gelb,red,r,0.0,r,1.0,0.5892964590020711,,,,,,,,,,3.0,2.0,38.0,8.0,189.2430155829934,,,,,,,,,,,,,,,,,189.23522558300465,190.0350058329932,190.83927899999253,190.8278666660044,,,,,,,,,,,,,,,,,,,,,,,,,,,,,,,,,,,190.832215500006,190.83927899999253,190.83927899999253,191.4347038749984,r,1.0,0.5892964590020711,,,,,,sub-087,1,stroop_test,,
,,,,39.0,3.0,3.0,,,,,,,,,,,,,rot,red,r,1.0,r,1.0,0.5235939580015838,,,,,,,,,,3.0,3.0,39.0,1.0,191.44384283300317,,,,,,,,,,,,,,,,,191.43524370799423,191.783971708006,192.57902975000616,192.56728212500457,,,,,,,,,,,,,,,,,,,,,,,,,,,,,,,,,,,192.57153462499264,192.57902975000616,192.57902975000616,193.11255333300505,r,1.0,0.5235939580015838,,,,,,sub-087,1,stroop_test,,
,,,,40.0,4.0,3.0,,,,,,,,,,,,,rot,red,r,1.0,r,1.0,0.4838607919955393,,,,,,,,,,3.0,4.0,40.0,0.0,193.12208187500076,,,,,,,,,,,,,,,,,193.11317583300115,193.9107152499928,194.70276687499427,194.69465508300345,,,,,,,,,,,,,,,,,,,,,,,,,,,,,,,,,,,194.6955857499997,194.70276687499427,194.70276687499427,195.19598141599272,r,1.0,0.4838607919955393,,,,,,sub-087,1,stroop_test,,
,,,,41.0,5.0,3.0,,,,,,,,,,,,,rot,blue,b,0.0,b,1.0,0.6758348339935765,,,,,,,,,,3.0,5.0,41.0,2.0,195.20542895799736,,,,,,,,,,,,,,,,,195.19666362499996,195.99413566599836,196.7867454999941,196.77813979100029,,,,,,,,,,,,,,,,,,,,,,,,,,,,,,,,,,,196.7789420000045,196.7867454999941,196.7867454999941,197.46837433299515,b,1.0,0.6758348339935765,,,,,,sub-087,1,stroop_test,,
,,,,42.0,6.0,3.0,,,,,,,,,,,,,rot,yellow,g,0.0,g,1.0,0.5406287080113543,,,,,,,,,,3.0,6.0,42.0,3.0,197.4771119159996,,,,,,,,,,,,,,,,,197.4691050410038,198.2684269159945,199.06906670800527,199.0613672909967,,,,,,,,,,,,,,,,,,,,,,,,,,,,,,,,,,,199.062170833,199.06906670800527,199.06906670800527,199.6124587079976,g,1.0,0.5406287080113543,,,,,,sub-087,1,stroop_test,,
,,,,43.0,7.0,3.0,,,,,,,,,,,,,gelb,blue,b,0.0,b,1.0,0.7168983750016196,,,,,,,,,,3.0,7.0,43.0,9.0,199.62203279099776,,,,,,,,,,,,,,,,,199.61307570799545,199.7112636249949,200.50679929100443,200.49469579099969,,,,,,,,,,,,,,,,,,,,,,,,,,,,,,,,,,,200.4996642079932,200.50679929100443,200.50679929100443,201.22929245799605,b,1.0,0.7168983750016196,,,,,,sub-087,1,stroop_test,,
,,,,44.0,8.0,3.0,,,,,,,,,,,,,blau,blue,b,1.0,b,1.0,0.5315582499897573,,,,,,,,,,3.0,8.0,44.0,5.0,201.23899533299848,,,,,,,,,,,,,,,,,201.2300363329996,201.32790074999505,202.1230998749961,202.1115696659981,,,,,,,,,,,,,,,,,,,,,,,,,,,,,,,,,,,202.11660687500265,202.1230998749961,202.1230998749961,202.6627765000012,b,1.0,0.5315582499897573,,,,,,sub-087,1,stroop_test,,
,,,,45.0,9.0,3.0,,,,,,,,,,,,,gelb,yellow,g,1.0,g,1.0,0.5498364590021083,,,,,,,,,,3.0,9.0,45.0,11.0,202.67127054100277,,,,,,,,,,,,,,,,,202.6634609579924,203.861092666004,204.6568177080044,204.6449577500025,,,,,,,,,,,,,,,,,,,,,,,,,,,,,,,,,,,204.6497469580063,204.6568177080044,204.6568177080044,205.21298529100025,g,1.0,0.5498364590021083,,,,,,sub-087,1,stroop_test,,
,,,,46.0,10.0,3.0,,,,,,,,,,,,,blau,red,r,0.0,b,0.0,0.7303154169931076,,,,,,,,,,3.0,10.0,46.0,4.0,205.22200199999497,,,,,,,,,,,,,,,,,205.21362495799255,205.3115248329996,206.1062534579978,206.09489758299603,,,,,,,,,,,,,,,,,,,,,,,,,,,,,,,,,,,206.09978400000543,206.1062534579978,206.1062534579978,206.8462999159965,b,0.0,0.7303154169931076,,,,,,sub-087,1,stroop_test,,
,,,,47.0,11.0,3.0,,,,,,,,,,,,,gelb,yellow,g,1.0,g,1.0,0.5100300420017447,,,,,,,,,,3.0,11.0,47.0,10.0,206.85526687500533,,,,,,,,,,,,,,,,,206.84696358299695,207.6445165000041,208.43957854100157,208.42844383299237,,,,,,,,,,,,,,,,,,,,,,,,,,,,,,,,,,,208.4328000829992,208.43957854100157,208.43957854100157,208.9519724999991,g,1.0,0.5100300420017447,,,,,,sub-087,1,stroop_test,,
,,,,48.0,0.0,4.0,,,,,,,,,,,,,rot,yellow,g,0.0,g,1.0,0.9274620829964988,,,,,,,,,,4.0,0.0,48.0,3.0,208.96082529099655,,,,,,,,,,,,,,,,,208.95250620800653,209.0512476250005,209.8611476660008,209.83392649999587,,,,,,,,,,,,,,,,,,,,,,,,,,,,,,,,,,,209.83827866599316,209.8611476660008,209.8611476660008,210.79620137499296,g,1.0,0.9274620829964988,,,,,,sub-087,1,stroop_test,,
,,,,49.0,1.0,4.0,,,,,,,,,,,,,rot,blue,b,0.0,b,1.0,0.6745985000015935,,,,,,,,,,4.0,1.0,49.0,2.0,210.80606408299357,,,,,,,,,,,,,,,,,210.7968246249948,211.994689625004,212.7860704579944,212.77840966600343,,,,,,,,,,,,,,,,,,,,,,,,,,,,,,,,,,,212.779190375004,212.7860704579944,212.7860704579944,213.4630414160056,b,1.0,0.6745985000015935,,,,,,sub-087,1,stroop_test,,
,,,,50.0,2.0,4.0,,,,,,,,,,,,,gelb,blue,b,0.0,g,0.0,0.5988687920034863,,,,,,,,,,4.0,2.0,50.0,9.0,213.472552332998,,,,,,,,,,,,,,,,,213.4636627500004,214.6611669580016,215.45881862500391,215.44543820800027,,,,,,,,,,,,,,,,,,,,,,,,,,,,,,,,,,,215.4516413329984,215.45881862500391,215.45881862500391,216.06281941599445,g,0.0,0.5988687920034863,,,,,,sub-087,1,stroop_test,,
,,,,51.0,3.0,4.0,,,,,,,,,,,,,gelb,yellow,g,1.0,g,1.0,0.5714275829959661,,,,,,,,,,4.0,3.0,51.0,11.0,216.0724967080023,,,,,,,,,,,,,,,,,216.0634481659945,216.861589291002,217.6530706659978,217.6453349999938,,,,,,,,,,,,,,,,,,,,,,,,,,,,,,,,,,,217.646125750005,217.6530706659978,217.6530706659978,218.2298763750005,g,1.0,0.5714275829959661,,,,,,sub-087,1,stroop_test,,
,,,,52.0,4.0,4.0,,,,,,,,,,,,,blau,red,r,0.0,r,1.0,0.7721599999931641,,,,,,,,,,4.0,4.0,52.0,4.0,218.23971004100167,,,,,,,,,,,,,,,,,218.2305260830035,218.578049290998,219.3734540000005,219.36187229100324,,,,,,,,,,,,,,,,,,,,,,,,,,,,,,,,,,,219.36624637499332,219.3734540000005,219.3734540000005,220.1523954159929,r,1.0,0.7721599999931641,,,,,,sub-087,1,stroop_test,,
,,,,53.0,5.0,4.0,,,,,,,,,,,,,rot,red,r,1.0,r,1.0,0.5626144589914475,,,,,,,,,,4.0,5.0,53.0,0.0,220.1609839159937,,,,,,,,,,,,,,,,,220.15306608300307,220.95122624999203,221.74703858299472,221.7343050000054,,,,,,,,,,,,,,,,,,,,,,,,,,,,,,,,,,,221.7390488329984,221.74703858299472,221.74703858299472,222.31313291599508,r,1.0,0.5626144589914475,,,,,,sub-087,1,stroop_test,,
,,,,54.0,6.0,4.0,,,,,,,,,,,,,gelb,red,r,0.0,r,1.0,0.8758280830079457,,,,,,,,,,4.0,6.0,54.0,8.0,222.32281445800615,,,,,,,,,,,,,,,,,222.3137693750032,223.51154987499467,224.3067809579952,224.29537620799965,,,,,,,,,,,,,,,,,,,,,,,,,,,,,,,,,,,224.2996483330062,224.3067809579952,224.3067809579952,225.18577866599665,r,1.0,0.8758280830079457,,,,,,sub-087,1,stroop_test,,
,,,,55.0,7.0,4.0,,,,,,,,,,,,,rot,red,r,1.0,r,1.0,0.5745829590014182,,,,,,,,,,4.0,7.0,55.0,1.0,225.19478420799717,,,,,,,,,,,,,,,,,225.18642904100125,225.2860044160043,226.0910664160037,226.07887266599573,,,,,,,,,,,,,,,,,,,,,,,,,,,,,,,,,,,226.08388158299203,226.0910664160037,226.0910664160037,226.6697245830001,r,1.0,0.5745829590014182,,,,,,sub-087,1,stroop_test,,
,,,,56.0,8.0,4.0,,,,,,,,,,,,,blau,blue,b,1.0,b,1.0,0.4662252920097671,,,,,,,,,,4.0,8.0,56.0,6.0,226.6804114999977,,,,,,,,,,,,,,,,,226.6703502080054,227.0190711659961,227.8232705410046,227.8120746659988,,,,,,,,,,,,,,,,,,,,,,,,,,,,,,,,,,,227.81638912500057,227.8232705410046,227.8232705410046,228.29668920800032,b,1.0,0.4662252920097671,,,,,,sub-087,1,stroop_test,,
,,,,57.0,9.0,4.0,,,,,,,,,,,,,blau,yellow,g,0.0,g,1.0,0.5610843330068747,,,,,,,,,,4.0,9.0,57.0,7.0,228.30672212499485,,,,,,,,,,,,,,,,,228.2973483329988,229.4950799999933,230.2865612500027,230.27890470800048,,,,,,,,,,,,,,,,,,,,,,,,,,,,,,,,,,,230.27966579099305,230.2865612500027,230.2865612500027,230.85274016599575,g,1.0,0.5610843330068747,,,,,,sub-087,1,stroop_test,,
,,,,58.0,10.0,4.0,,,,,,,,,,,,,blau,blue,b,1.0,b,1.0,0.5199030420044437,,,,,,,,,,4.0,10.0,58.0,5.0,230.8618145410001,,,,,,,,,,,,,,,,,230.8534336659941,230.95146695799485,231.74475524999437,231.7345480829972,,,,,,,,,,,,,,,,,,,,,,,,,,,,,,,,,,,231.73537591600325,231.74475524999437,231.74475524999437,232.26900658299564,b,1.0,0.5199030420044437,,,,,,sub-087,1,stroop_test,,
,,,,59.0,11.0,4.0,,,,,,,,,,,,,gelb,yellow,g,1.0,g,1.0,0.614763582998421,,,,,,,,,,4.0,11.0,59.0,10.0,232.2786469999992,,,,,,,,,,,,,,,,,232.26963700000488,233.469266125001,234.27382470799785,234.26239145800355,,,,,,,,,,,,,,,,,,,,,,,,,,,,,,,,,,,234.26750295799863,234.27382470799785,234.27382470799785,234.89695891599692,g,1.0,0.614763582998421,,,,,,sub-087,1,stroop_test,,
,,,,60.0,0.0,5.0,,,,,,,,,,,,,rot,yellow,g,0.0,g,1.0,0.7648886669921922,,,,,,,,,,5.0,0.0,60.0,3.0,234.9071683749935,,,,,,,,,,,,,,,,,234.89751549999343,236.09507337499235,236.890736500005,236.879081416002,,,,,,,,,,,,,,,,,,,,,,,,,,,,,,,,,,,236.883761582998,236.890736500005,236.890736500005,237.66363979100424,g,1.0,0.7648886669921922,,,,,,sub-087,1,stroop_test,,
,,,,61.0,1.0,5.0,,,,,,,,,,,,,gelb,yellow,g,1.0,g,1.0,0.714299667000887,,,,,,,,,,5.0,1.0,61.0,10.0,237.6729671659996,,,,,,,,,,,,,,,,,237.66427637499876,238.46209162499872,239.25733970799772,239.24585983299767,,,,,,,,,,,,,,,,,,,,,,,,,,,,,,,,,,,239.2502085830056,239.25733970799772,239.25733970799772,239.98053983300636,g,1.0,0.714299667000887,,,,,,sub-087,1,stroop_test,,
,,,,62.0,2.0,5.0,,,,,,,,,,,,,blau,yellow,g,0.0,g,1.0,0.8202363750024233,,,,,,,,,,5.0,2.0,62.0,7.0,239.99022762499223,,,,,,,,,,,,,,,,,239.98118641600013,240.0788955829921,240.87350941599288,240.8623894579941,,,,,,,,,,,,,,,,,,,,,,,,,,,,,,,,,,,240.86674829099505,240.87350941599288,240.87350941599288,241.6968889160053,g,1.0,0.8202363750024233,,,,,,sub-087,1,stroop_test,,
,,,,63.0,3.0,5.0,,,,,,,,,,,,,blau,blue,b,1.0,b,1.0,0.4822539580054581,,,,,,,,,,5.0,3.0,63.0,5.0,241.70631241600492,,,,,,,,,,,,,,,,,241.69749937500453,242.04536408299464,242.83731375000207,242.8291732499929,,,,,,,,,,,,,,,,,,,,,,,,,,,,,,,,,,,242.8300944160001,242.83731375000207,242.83731375000207,243.33071166599984,b,1.0,0.4822539580054581,,,,,,sub-087,1,stroop_test,,
,,,,64.0,4.0,5.0,,,,,,,,,,,,,blau,red,r,0.0,r,1.0,1.0164736659935445,,,,,,,,,,5.0,4.0,64.0,4.0,243.34101570799248,,,,,,,,,,,,,,,,,243.3314981250005,243.6786054999975,244.4700785830064,244.4625935410004,,,,,,,,,,,,,,,,,,,,,,,,,,,,,,,,,,,244.4634192079975,244.4700785830064,244.4700785830064,245.49726299999747,r,1.0,1.0164736659935445,,,,,,sub-087,1,stroop_test,,
,,,,65.0,5.0,5.0,,,,,,,,,,,,,blau,blue,b,1.0,b,1.0,0.5687496250029653,,,,,,,,,,5.0,5.0,65.0,6.0,245.50697354099248,,,,,,,,,,,,,,,,,245.49791641600316,245.84541108300616,246.6378331659944,246.62956912499797,,,,,,,,,,,,,,,,,,,,,,,,,,,,,,,,,,,246.63054970800292,246.6378331659944,246.6378331659944,247.213687416006,b,1.0,0.5687496250029653,,,,,,sub-087,1,stroop_test,,
,,,,66.0,6.0,5.0,,,,,,,,,,,,,gelb,red,r,0.0,r,1.0,0.661689499989734,,,,,,,,,,5.0,6.0,66.0,8.0,247.22274016600568,,,,,,,,,,,,,,,,,247.2143299580057,247.5623713749956,248.35698020800191,248.346014499999,,,,,,,,,,,,,,,,,,,,,,,,,,,,,,,,,,,248.3503331249958,248.35698020800191,248.35698020800191,249.03071824999645,r,1.0,0.661689499989734,,,,,,sub-087,1,stroop_test,,
,,,,67.0,7.0,5.0,,,,,,,,,,,,,gelb,yellow,g,1.0,g,1.0,0.650991292000981,,,,,,,,,,5.0,7.0,67.0,11.0,249.03993583300328,,,,,,,,,,,,,,,,,249.03135674999797,249.12901762500405,249.92057545800344,249.912914540997,,,,,,,,,,,,,,,,,,,,,,,,,,,,,,,,,,,249.91373487499368,249.92057545800344,249.92057545800344,250.58068995800568,g,1.0,0.650991292000981,,,,,,sub-087,1,stroop_test,,
,,,,68.0,8.0,5.0,,,,,,,,,,,,,rot,red,r,1.0,r,1.0,0.6134907500090776,,,,,,,,,,5.0,8.0,68.0,1.0,250.59083162499883,,,,,,,,,,,,,,,,,250.5813434159936,250.67907804099377,251.47610050000367,251.4626654580061,,,,,,,,,,,,,,,,,,,,,,,,,,,,,,,,,,,251.46877133300583,251.47610050000367,251.47610050000367,252.0973412500025,r,1.0,0.6134907500090776,,,,,,sub-087,1,stroop_test,,
,,,,69.0,9.0,5.0,,,,,,,,,,,,,rot,blue,b,0.0,b,1.0,0.6207861250004498,,,,,,,,,,5.0,9.0,69.0,2.0,252.10659812499944,,,,,,,,,,,,,,,,,252.09802462499647,252.44563004099476,253.23690154099316,253.22950874999515,,,,,,,,,,,,,,,,,,,,,,,,,,,,,,,,,,,253.23020137500131,253.23690154099316,253.23690154099316,253.86400079099985,b,1.0,0.6207861250004498,,,,,,sub-087,1,stroop_test,,
,,,,70.0,10.0,5.0,,,,,,,,,,,,,gelb,blue,b,0.0,b,1.0,1.106154583991156,,,,,,,,,,5.0,10.0,70.0,9.0,253.87358762499932,,,,,,,,,,,,,,,,,253.8646790000057,254.21223662499688,255.0083990830026,254.9963367080054,,,,,,,,,,,,,,,,,,,,,,,,,,,,,,,,,,,255.0018935410044,255.0083990830026,255.0083990830026,256.11997499999416,b,1.0,1.106154583991156,,,,,,sub-087,1,stroop_test,,
,,,,71.0,11.0,5.0,,,,,,,,,,,,,rot,red,r,1.0,r,1.0,0.4475087920000078,,,,,,,,,,5.0,11.0,71.0,0.0,256.1290743330028,,,,,,,,,,,,,,,,,256.1205489580025,256.21218041599786,257.0080688750022,256.9962876250065,,,,,,,,,,,,,,,,,,,,,,,,,,,,,,,,,,,257.0006262079987,257.0080688750022,257.0080688750022,257.46405066599254,r,1.0,0.4475087920000078,,,,,,sub-087,1,stroop_test,,
,,,,72.0,0.0,6.0,,,,,,,,,,,,,gelb,yellow,g,1.0,g,1.0,0.5890673749963753,,,,,,,,,,6.0,0.0,72.0,11.0,257.4721447500051,,,,,,,,,,,,,,,,,257.464557165993,258.26272995800537,259.05754824999894,259.04617504100315,,,,,,,,,,,,,,,,,,,,,,,,,,,,,,,,,,,259.0508606249932,259.05754824999894,259.05754824999894,259.65330145800544,g,1.0,0.5890673749963753,,,,,,sub-087,1,stroop_test,,
,,,,73.0,1.0,6.0,,,,,,,,,,,,,rot,red,r,1.0,r,1.0,0.5461500829987926,,,,,,,,,,6.0,1.0,73.0,1.0,259.66230445800466,,,,,,,,,,,,,,,,,259.65385137499834,259.75271858299675,260.5475633330061,260.5355902909941,,,,,,,,,,,,,,,,,,,,,,,,,,,,,,,,,,,260.54021166599705,260.5475633330061,260.5475633330061,261.0975391249958,r,1.0,0.5461500829987926,,,,,,sub-087,1,stroop_test,,
,,,,74.0,2.0,6.0,,,,,,,,,,,,,blau,red,r,0.0,r,1.0,0.924734250002075,,,,,,,,,,6.0,2.0,74.0,4.0,261.1060447500058,,,,,,,,,,,,,,,,,261.0981787079945,261.1956159580004,261.99081629099965,261.9798692909972,,,,,,,,,,,,,,,,,,,,,,,,,,,,,,,,,,,261.9840154160047,261.99081629099965,261.99081629099965,262.9201196249924,r,1.0,0.924734250002075,,,,,,sub-087,1,stroop_test,,
,,,,75.0,3.0,6.0,,,,,,,,,,,,,rot,yellow,g,0.0,g,1.0,0.5305637080018641,,,,,,,,,,6.0,3.0,75.0,3.0,262.929020208001,,,,,,,,,,,,,,,,,262.9206839160033,263.27013508300297,264.07499574999383,264.0630494579964,,,,,,,,,,,,,,,,,,,,,,,,,,,,,,,,,,,264.06790712500515,264.07499574999383,264.07499574999383,264.613966541001,g,1.0,0.5305637080018641,,,,,,sub-087,1,stroop_test,,
,,,,76.0,4.0,6.0,,,,,,,,,,,,,blau,blue,b,1.0,b,1.0,0.548990875002346,,,,,,,,,,6.0,4.0,76.0,6.0,264.62304424999456,,,,,,,,,,,,,,,,,264.61455029099307,264.71265366599255,265.5076239159971,265.496535415994,,,,,,,,,,,,,,,,,,,,,,,,,,,,,,,,,,,265.50087533300393,265.5076239159971,265.5076239159971,266.06466862499656,b,1.0,0.548990875002346,,,,,,sub-087,1,stroop_test,,
,,,,77.0,5.0,6.0,,,,,,,,,,,,,blau,blue,b,1.0,b,1.0,0.5644396669958951,,,,,,,,,,6.0,5.0,77.0,5.0,266.07473904099606,,,,,,,,,,,,,,,,,266.06540691599366,266.4128620830015,267.2041750000062,267.1966082500003,,,,,,,,,,,,,,,,,,,,,,,,,,,,,,,,,,,267.1973960000032,267.2041750000062,267.2041750000062,267.78088441600266,b,1.0,0.5644396669958951,,,,,,sub-087,1,stroop_test,,
,,,,78.0,6.0,6.0,,,,,,,,,,,,,rot,red,r,1.0,r,1.0,0.5341005830123322,,,,,,,,,,6.0,6.0,78.0,0.0,267.78931758299586,,,,,,,,,,,,,,,,,267.7814755409927,268.1294477079937,268.92652370799624,268.91348049999215,,,,,,,,,,,,,,,,,,,,,,,,,,,,,,,,,,,268.9193583330052,268.92652370799624,268.92652370799624,269.4643565409933,r,1.0,0.5341005830123322,,,,,,sub-087,1,stroop_test,,
,,,,79.0,7.0,6.0,,,,,,,,,,,,,gelb,blue,b,0.0,b,1.0,0.9207295829983196,,,,,,,,,,6.0,7.0,79.0,9.0,269.4749269159948,,,,,,,,,,,,,,,,,269.4650014579965,270.6630956659937,271.45789745799266,271.446759790997,,,,,,,,,,,,,,,,,,,,,,,,,,,,,,,,,,,271.4509294159943,271.45789745799266,271.45789745799266,272.3808855410025,b,1.0,0.9207295829983196,,,,,,sub-087,1,stroop_test,,
,,,,80.0,8.0,6.0,,,,,,,,,,,,,gelb,yellow,g,1.0,g,1.0,0.3853957079991232,,,,,,,,,,6.0,8.0,80.0,10.0,272.39054754099925,,,,,,,,,,,,,,,,,272.3815200829995,273.57965308299754,274.3711403750058,274.36347658300656,,,,,,,,,,,,,,,,,,,,,,,,,,,,,,,,,,,274.3642792500032,274.3711403750058,274.3711403750058,274.76444691600045,g,1.0,0.3853957079991232,,,,,,sub-087,1,stroop_test,,
,,,,81.0,9.0,6.0,,,,,,,,,,,,,rot,blue,b,0.0,b,1.0,0.6275139170029433,,,,,,,,,,6.0,9.0,81.0,2.0,274.7719846249965,,,,,,,,,,,,,,,,,274.7649543330044,275.9632129160018,276.7580909160024,276.74691291600175,,,,,,,,,,,,,,,,,,,,,,,,,,,,,,,,,,,276.7511689999956,276.7580909160024,276.7580909160024,277.38699562499824,b,1.0,0.6275139170029433,,,,,,sub-087,1,stroop_test,,
,,,,82.0,10.0,6.0,,,,,,,,,,,,,gelb,red,r,0.0,r,1.0,0.4431103340029949,,,,,,,,,,6.0,10.0,82.0,8.0,277.39618137500656,,,,,,,,,,,,,,,,,277.38752808299614,277.4882543749991,278.2925556249975,278.28020449999894,,,,,,,,,,,,,,,,,,,,,,,,,,,,,,,,,,,278.28536566600087,278.2925556249975,278.2925556249975,278.74811058299383,r,1.0,0.4431103340029949,,,,,,sub-087,1,stroop_test,,
,,,,83.0,11.0,6.0,,,,,,,,,,,,,blau,yellow,g,0.0,g,1.0,0.7783125420100987,,,,,,,,,,6.0,11.0,83.0,7.0,278.7574882909976,,,,,,,,,,,,,,,,,278.7487380829989,279.09623958299926,279.89129924999725,279.88011524999456,,,,,,,,,,,,,,,,,,,,,,,,,,,,,,,,,,,279.88444562499353,279.89129924999725,279.89129924999725,280.68140366599255,g,1.0,0.7783125420100987,,,,,,sub-087,1,stroop_test,,
,,,,84.0,0.0,7.0,,,,,,,,,,,,,gelb,yellow,g,1.0,g,1.0,0.5847462910023751,,,,,,,,,,7.0,0.0,84.0,11.0,280.6915353749937,,,,,,,,,,,,,,,,,280.68221754100523,281.87981858299463,282.6748682909965,282.6636021250015,,,,,,,,,,,,,,,,,,,,,,,,,,,,,,,,,,,282.66802437500155,282.6748682909965,282.6748682909965,283.2648840409965,g,1.0,0.5847462910023751,,,,,,sub-087,1,stroop_test,,
,,,,85.0,1.0,7.0,,,,,,,,,,,,,gelb,yellow,g,1.0,g,1.0,0.3876167919952422,,,,,,,,,,7.0,1.0,85.0,10.0,283.2750991659996,,,,,,,,,,,,,,,,,283.2656506659987,283.3632939160016,284.1548735830001,284.1469797500031,,,,,,,,,,,,,,,,,,,,,,,,,,,,,,,,,,,284.1477663330006,284.1548735830001,284.1548735830001,284.54769704099454,g,1.0,0.3876167919952422,,,,,,sub-087,1,stroop_test,,
,,,,86.0,2.0,7.0,,,,,,,,,,,,,gelb,blue,b,0.0,b,1.0,0.6420565000007628,,,,,,,,,,7.0,2.0,86.0,9.0,284.55606137499854,,,,,,,,,,,,,,,,,284.548393916004,284.64652862500225,285.4375650830043,285.43011825000576,,,,,,,,,,,,,,,,,,,,,,,,,,,,,,,,,,,285.4309323329944,285.4375650830043,285.4375650830043,286.0813198329997,b,1.0,0.6420565000007628,,,,,,sub-087,1,stroop_test,,
,,,,87.0,3.0,7.0,,,,,,,,,,,,,blau,red,r,0.0,r,1.0,0.8752610419905977,,,,,,,,,,7.0,3.0,87.0,4.0,286.0912018329982,,,,,,,,,,,,,,,,,286.0819752499956,286.1798049999925,286.97536287500407,286.963758583006,,,,,,,,,,,,,,,,,,,,,,,,,,,,,,,,,,,286.9689439579961,286.97536287500407,286.97536287500407,287.854020083003,r,1.0,0.8752610419905977,,,,,,sub-087,1,stroop_test,,
,,,,88.0,4.0,7.0,,,,,,,,,,,,,rot,red,r,1.0,r,1.0,0.5914835829898948,,,,,,,,,,7.0,4.0,88.0,1.0,287.8626496659999,,,,,,,,,,,,,,,,,287.8545406659978,289.0540149580047,289.85806470799434,289.84717712500424,,,,,,,,,,,,,,,,,,,,,,,,,,,,,,,,,,,289.8513346660038,289.85806470799434,289.85806470799434,290.453492916,r,1.0,0.5914835829898948,,,,,,sub-087,1,stroop_test,,
,,,,89.0,5.0,7.0,,,,,,,,,,,,,blau,blue,b,1.0,b,1.0,0.6982406250026543,,,,,,,,,,7.0,5.0,89.0,6.0,290.4629984579951,,,,,,,,,,,,,,,,,290.4539952500054,291.65401475000544,292.45831600000383,292.4470709580055,,,,,,,,,,,,,,,,,,,,,,,,,,,,,,,,,,,292.45133570799953,292.45831600000383,292.45831600000383,293.1649113750027,b,1.0,0.6982406250026543,,,,,,sub-087,1,stroop_test,,
,,,,90.0,6.0,7.0,,,,,,,,,,,,,blau,yellow,g,0.0,g,1.0,0.8606773750070715,,,,,,,,,,7.0,6.0,90.0,7.0,293.17365037499985,,,,,,,,,,,,,,,,,293.16546958299296,293.9631401660008,294.7548137080012,294.7471404579992,,,,,,,,,,,,,,,,,,,,,,,,,,,,,,,,,,,294.74792579100176,294.7548137080012,294.7548137080012,295.6211952080048,g,1.0,0.8606773750070715,,,,,,sub-087,1,stroop_test,,
,,,,91.0,7.0,7.0,,,,,,,,,,,,,rot,yellow,g,0.0,g,1.0,0.770977167005185,,,,,,,,,,7.0,7.0,91.0,3.0,295.630054082998,,,,,,,,,,,,,,,,,295.6217934580054,295.720907875002,296.525565457996,296.5139336659922,,,,,,,,,,,,,,,,,,,,,,,,,,,,,,,,,,,296.5185102910036,296.525565457996,296.525565457996,297.29824954099604,g,1.0,0.770977167005185,,,,,,sub-087,1,stroop_test,,
,,,,92.0,8.0,7.0,,,,,,,,,,,,,blau,blue,b,1.0,b,1.0,0.4437460000044666,,,,,,,,,,7.0,8.0,92.0,5.0,297.3087564580055,,,,,,,,,,,,,,,,,297.29890512500424,298.0967434579943,298.89178670800175,298.8806104999967,,,,,,,,,,,,,,,,,,,,,,,,,,,,,,,,,,,298.8849033330044,298.89178670800175,298.89178670800175,299.33782000000065,b,1.0,0.4437460000044666,,,,,,sub-087,1,stroop_test,,
,,,,93.0,9.0,7.0,,,,,,,,,,,,,rot,blue,b,0.0,b,1.0,0.8066828750015702,,,,,,,,,,7.0,9.0,93.0,2.0,299.348737124994,,,,,,,,,,,,,,,,,299.3384202080051,299.4367365829967,300.23181766600464,300.21946616600326,,,,,,,,,,,,,,,,,,,,,,,,,,,,,,,,,,,300.2247487080021,300.23181766600464,300.23181766600464,301.04849887499586,b,1.0,0.8066828750015702,,,,,,sub-087,1,stroop_test,,
,,,,94.0,10.0,7.0,,,,,,,,,,,,,gelb,red,r,0.0,r,1.0,0.6886169580102433,,,,,,,,,,7.0,10.0,94.0,8.0,301.0580439579935,,,,,,,,,,,,,,,,,301.0491382909968,301.3968800830044,302.191850874995,302.1806382079958,,,,,,,,,,,,,,,,,,,,,,,,,,,,,,,,,,,302.1848915830051,302.191850874995,302.191850874995,302.88752800000657,r,1.0,0.6886169580102433,,,,,,sub-087,1,stroop_test,,
,,,,95.0,11.0,7.0,,,,,,,,,,,,,rot,red,r,1.0,r,1.0,0.3358640840015141,,,,,,,,,,7.0,11.0,95.0,0.0,302.8963419579959,,,,,,,,,,,,,,,,,302.88814475000254,303.2375828749937,304.04373725000187,304.03089804100455,,,,,,,,,,,,,,,,,,,,,,,,,,,,,,,,,,,304.0365141660004,304.04373725000187,304.04373725000187,304.38172241600114,r,1.0,0.3358640840015141,,,,,,sub-087,1,stroop_test,,
,,,,96.0,0.0,8.0,,,,,,,,,,,,,gelb,yellow,g,1.0,g,1.0,0.455223750002915,,,,,,,,,,8.0,0.0,96.0,11.0,304.39078962500207,,,,,,,,,,,,,,,,,304.3823339579976,304.73009787499905,305.52526358299656,305.51387916599924,,,,,,,,,,,,,,,,,,,,,,,,,,,,,,,,,,,305.5184189580032,305.52526358299656,305.52526358299656,305.9876489159942,g,1.0,0.455223750002915,,,,,,sub-087,1,stroop_test,,
,,,,97.0,1.0,8.0,,,,,,,,,,,,,gelb,blue,b,0.0,b,1.0,0.6025653329998022,,,,,,,,,,8.0,1.0,97.0,9.0,305.9970291250065,,,,,,,,,,,,,,,,,305.9883139159938,306.0865509159921,306.87992670800304,306.86975850000454,,,,,,,,,,,,,,,,,,,,,,,,,,,,,,,,,,,306.8707321249967,306.87992670800304,306.87992670800304,307.48775041599583,b,1.0,0.6025653329998022,,,,,,sub-087,1,stroop_test,,
,,,,98.0,2.0,8.0,,,,,,,,,,,,,gelb,red,r,0.0,r,1.0,0.7952225409972016,,,,,,,,,,8.0,2.0,98.0,8.0,307.4960744160053,,,,,,,,,,,,,,,,,307.4884796660044,308.6878033749963,309.48927437499515,309.4809292909922,,,,,,,,,,,,,,,,,,,,,,,,,,,,,,,,,,,309.4819365830044,309.48927437499515,309.48927437499515,310.28722883299633,r,1.0,0.7952225409972016,,,,,,sub-087,1,stroop_test,,
,,,,99.0,3.0,8.0,,,,,,,,,,,,,rot,red,r,1.0,r,1.0,0.5662750830088044,,,,,,,,,,8.0,3.0,99.0,0.0,310.3134211249999,,,,,,,,,,,,,,,,,310.28784770799393,311.0877340830048,311.8922642499965,311.8809184999991,,,,,,,,,,,,,,,,,,,,,,,,,,,,,,,,,,,311.88544641599583,311.8922642499965,311.8922642499965,312.4652772080008,r,1.0,0.5662750830088044,,,,,,sub-087,1,stroop_test,,
,,,,100.0,4.0,8.0,,,,,,,,,,,,,blau,blue,b,1.0,b,1.0,0.4264605000062147,,,,,,,,,,8.0,4.0,100.0,5.0,312.47522616600327,,,,,,,,,,,,,,,,,312.4659240829933,313.263810000004,314.05903833299817,314.0476307909994,,,,,,,,,,,,,,,,,,,,,,,,,,,,,,,,,,,314.0522729999939,314.05903833299817,314.05903833299817,314.4876419159991,b,1.0,0.4264605000062147,,,,,,sub-087,1,stroop_test,,
,,,,101.0,5.0,8.0,,,,,,,,,,,,,blau,blue,b,1.0,b,1.0,0.5217642500065267,,,,,,,,,,8.0,5.0,101.0,6.0,314.49635316600325,,,,,,,,,,,,,,,,,314.4881553330051,315.2880492910044,316.0888090829976,316.0808600409946,,,,,,,,,,,,,,,,,,,,,,,,,,,,,,,,,,,316.081673875,316.0888090829976,316.0888090829976,316.6155914580013,b,1.0,0.5217642500065267,,,,,,sub-087,1,stroop_test,,
,,,,102.0,6.0,8.0,,,,,,,,,,,,,blau,yellow,g,0.0,g,1.0,0.8512899580091471,,,,,,,,,,8.0,6.0,102.0,7.0,316.6260060000059,,,,,,,,,,,,,,,,,316.61629879100656,317.81388054099807,318.60523141600424,318.59757475000515,,,,,,,,,,,,,,,,,,,,,,,,,,,,,,,,,,,318.5983872499928,318.60523141600424,318.60523141600424,319.4661647909961,g,1.0,0.8512899580091471,,,,,,sub-087,1,stroop_test,,
,,,,103.0,7.0,8.0,,,,,,,,,,,,,blau,red,r,0.0,r,1.0,0.7434053330071038,,,,,,,,,,8.0,7.0,103.0,4.0,319.4748072910006,,,,,,,,,,,,,,,,,319.4667292079976,319.81386933299655,320.60600949999935,320.5979139999981,,,,,,,,,,,,,,,,,,,,,,,,,,,,,,,,,,,320.59886866599845,320.60600949999935,320.60600949999935,321.35465266599203,r,1.0,0.7434053330071038,,,,,,sub-087,1,stroop_test,,
,,,,104.0,8.0,8.0,,,,,,,,,,,,,gelb,yellow,g,1.0,g,1.0,0.6179666660027578,,,,,,,,,,8.0,8.0,104.0,10.0,321.3633819579991,,,,,,,,,,,,,,,,,321.35528120800154,321.7045415409957,322.5096052080044,322.4978164579952,,,,,,,,,,,,,,,,,,,,,,,,,,,,,,,,,,,322.5024034999951,322.5096052080044,322.5096052080044,323.1321492910065,g,1.0,0.6179666660027578,,,,,,sub-087,1,stroop_test,,
,,,,105.0,9.0,8.0,,,,,,,,,,,,,rot,blue,b,0.0,b,1.0,0.7519756249967031,,,,,,,,,,8.0,9.0,105.0,2.0,323.1418601250043,,,,,,,,,,,,,,,,,323.13277991600626,323.2311210829939,324.0275692909927,324.01436433299386,,,,,,,,,,,,,,,,,,,,,,,,,,,,,,,,,,,324.0208687080012,324.0275692909927,324.0275692909927,324.78214483299234,b,1.0,0.7519756249967031,,,,,,sub-087,1,stroop_test,,
,,,,106.0,10.0,8.0,,,,,,,,,,,,,rot,red,r,1.0,r,1.0,0.7736677499924554,,,,,,,,,,8.0,10.0,106.0,1.0,324.7922799579974,,,,,,,,,,,,,,,,,324.78277041600086,325.1306402079936,325.9228368329932,325.9146374580014,,,,,,,,,,,,,,,,,,,,,,,,,,,,,,,,,,,325.91558200000145,325.9228368329932,325.9228368329932,326.6989345000038,r,1.0,0.7736677499924554,,,,,,sub-087,1,stroop_test,,
,,,,107.0,11.0,8.0,,,,,,,,,,,,,rot,yellow,g,0.0,g,1.0,0.7526519999955781,,,,,,,,,,8.0,11.0,107.0,3.0,326.7076944159926,,,,,,,,,,,,,,,,,326.69956850000017,326.79759474999446,327.5888040410064,327.5811332080048,,,,,,,,,,,,,,,,,,,,,,,,,,,,,,,,,,,327.5819336249988,327.5888040410064,327.5888040410064,328.3492344999977,g,1.0,0.7526519999955781,,,,,,sub-087,1,stroop_test,,
,,,,108.0,0.0,9.0,,,,,,,,,,,,,gelb,yellow,g,1.0,g,1.0,0.526639375006198,,,,,,,,,,9.0,0.0,108.0,10.0,328.35831633300404,,,,,,,,,,,,,,,,,328.34983649999776,328.44780174999323,329.24287337499845,329.23135141600505,,,,,,,,,,,,,,,,,,,,,,,,,,,,,,,,,,,329.2357293749956,329.24287337499845,329.24287337499845,329.7712141660013,g,1.0,0.526639375006198,,,,,,sub-087,1,stroop_test,,
,,,,109.0,1.0,9.0,,,,,,,,,,,,,blau,blue,b,1.0,b,1.0,0.4320960000040941,,,,,,,,,,9.0,1.0,109.0,6.0,329.78087795799365,,,,,,,,,,,,,,,,,329.77175512499525,330.5717393329978,331.3763626250002,331.3646555830055,,,,,,,,,,,,,,,,,,,,,,,,,,,,,,,,,,,331.3698021659948,331.3763626250002,331.3763626250002,331.81574220799666,b,1.0,0.4320960000040941,,,,,,sub-087,1,stroop_test,,
,,,,110.0,2.0,9.0,,,,,,,,,,,,,blau,red,r,0.0,r,1.0,0.6949177089991281,,,,,,,,,,9.0,2.0,110.0,4.0,331.8252623330045,,,,,,,,,,,,,,,,,331.81638791599835,331.91432145799627,332.70649066599435,332.6981567500043,,,,,,,,,,,,,,,,,,,,,,,,,,,,,,,,,,,332.6991188329994,332.70649066599435,332.70649066599435,333.40480233299604,r,1.0,0.6949177089991281,,,,,,sub-087,1,stroop_test,,
,,,,111.0,3.0,9.0,,,,,,,,,,,,,rot,red,r,1.0,r,1.0,0.4797299159981776,,,,,,,,,,9.0,3.0,111.0,0.0,333.4138049579924,,,,,,,,,,,,,,,,,333.4053253750026,334.60500462500204,335.4107642080053,335.3981706659979,,,,,,,,,,,,,,,,,,,,,,,,,,,,,,,,,,,335.40330049999466,335.4107642080053,335.4107642080053,335.899355290996,r,1.0,0.4797299159981776,,,,,,sub-087,1,stroop_test,,
,,,,112.0,4.0,9.0,,,,,,,,,,,,,rot,blue,b,0.0,b,1.0,0.5783512920024805,,,,,,,,,,9.0,4.0,112.0,2.0,335.90796404100547,,,,,,,,,,,,,,,,,335.8999195829965,337.0978493750008,337.88908520799305,337.8815710409981,,,,,,,,,,,,,,,,,,,,,,,,,,,,,,,,,,,337.88235245799297,337.88908520799305,337.88908520799305,338.4716944999964,b,1.0,0.5783512920024805,,,,,,sub-087,1,stroop_test,,
,,,,113.0,5.0,9.0,,,,,,,,,,,,,gelb,yellow,g,1.0,g,1.0,0.4381184579979162,,,,,,,,,,9.0,5.0,113.0,11.0,338.4807874580001,,,,,,,,,,,,,,,,,338.4723165829928,338.57204329100205,339.3772835830023,339.364904749993,,,,,,,,,,,,,,,,,,,,,,,,,,,,,,,,,,,339.3700923330034,339.3772835830023,339.3772835830023,339.82169779100514,g,1.0,0.4381184579979162,,,,,,sub-087,1,stroop_test,,
,,,,114.0,6.0,9.0,,,,,,,,,,,,,rot,red,r,1.0,r,1.0,0.4924155840126332,,,,,,,,,,9.0,6.0,114.0,1.0,339.8303144579986,,,,,,,,,,,,,,,,,339.8222222500044,341.021977041004,341.82605441600026,341.814916000003,,,,,,,,,,,,,,,,,,,,,,,,,,,,,,,,,,,341.81902679099585,341.82605441600026,341.82605441600026,342.3220979579928,r,1.0,0.4924155840126332,,,,,,sub-087,1,stroop_test,,
,,,,115.0,7.0,9.0,,,,,,,,,,,,,blau,blue,b,1.0,b,1.0,0.4635712500021327,,,,,,,,,,9.0,7.0,115.0,5.0,342.3476669579977,,,,,,,,,,,,,,,,,342.3226686660055,342.42187304099207,343.2268747079943,343.21487679099664,,,,,,,,,,,,,,,,,,,,,,,,,,,,,,,,,,,343.2201289999939,343.2268747079943,343.2268747079943,343.6997270830034,b,1.0,0.4635712500021327,,,,,,sub-087,1,stroop_test,,
,,,,116.0,8.0,9.0,,,,,,,,,,,,,rot,yellow,g,0.0,g,1.0,0.6194232499983627,,,,,,,,,,9.0,8.0,116.0,3.0,343.70927879099327,,,,,,,,,,,,,,,,,343.7003584579943,344.8977854160039,345.6930338329985,345.68159974999435,,,,,,,,,,,,,,,,,,,,,,,,,,,,,,,,,,,345.6859181250038,345.6930338329985,345.6930338329985,346.3159708750027,g,1.0,0.6194232499983627,,,,,,sub-087,1,stroop_test,,
,,,,117.0,9.0,9.0,,,,,,,,,,,,,blau,yellow,g,0.0,g,1.0,0.45366616701358,,,,,,,,,,9.0,9.0,117.0,7.0,346.3256598750013,,,,,,,,,,,,,,,,,346.31659829099954,347.11487104100524,347.9108265410032,347.8985960830032,,,,,,,,,,,,,,,,,,,,,,,,,,,,,,,,,,,347.9037545829924,347.9108265410032,347.9108265410032,348.3661939159938,g,1.0,0.45366616701358,,,,,,sub-087,1,stroop_test,,
,,,,118.0,10.0,9.0,,,,,,,,,,,,,gelb,red,r,0.0,r,1.0,0.6366834999935236,,,,,,,,,,9.0,10.0,118.0,8.0,348.371817791005,,,,,,,,,,,,,,,,,348.366800082993,348.71451866600546,349.5098349159962,349.49837841599947,,,,,,,,,,,,,,,,,,,,,,,,,,,,,,,,,,,349.50270083299256,349.5098349159962,349.5098349159962,350.1494481660048,r,1.0,0.6366834999935236,,,,,,sub-087,1,stroop_test,,
,,,,119.0,11.0,9.0,,,,,,,,,,,,,gelb,blue,b,0.0,b,1.0,0.4015945419960189,,,,,,,,,,9.0,11.0,119.0,9.0,350.15890812499856,,,,,,,,,,,,,,,,,350.15009387499595,351.3480049159989,352.13984041599906,352.13187833300617,,,,,,,,,,,,,,,,,,,,,,,,,,,,,,,,,,,352.1326740410004,352.13984041599906,352.13984041599906,352.5496196659951,b,1.0,0.4015945419960189,,,,,,sub-087,1,stroop_test,,
,,,,,,,,,,,,,,,,,,,,,,,,,,,,,,,,,,,,,,,,,,,,,,,,,,,,,,,,,,,,,,,,,,,,,,,,,,,,,,,,,,,,,,,,,,,,,,,,,,,,,,352.54990562499734,352.55959487499786,357.553333207994,357.54863141599344,sub-087,1,stroop_test,,
