wordCTK,colorCTK,corrAnsCTK,congruentCTK,thisN,thisTrialN,thisRepN,keyResp_CTK.keys,keyResp_CTK.corr,keyResp_CTK.rt,keyResp_CTK.duration,wordPractice,colorPractice,corrAnsPractice,congruentPractice,respPractice.keys,respPractice.corr,respPractice.rt,respPractice.duration,word,color,corrAns,congruent,keyResp_test_run.keys,keyResp_test_run.corr,keyResp_test_run.rt,keyResp_test_run.duration,trials_CTK.thisRepN,trials_CTK.thisTrialN,trials_CTK.thisN,trials_CTK.thisIndex,trials_practice.thisRepN,trials_practice.thisTrialN,trials_practice.thisN,trials_practice.thisIndex,trials_test.thisRepN,trials_test.thisTrialN,trials_test.thisN,trials_test.thisIndex,thisRow.t,notes,instruction.started,instr_text.started,instr_image.started,instr_resp.started,instruction.stopped,instr_resp.keys,instr_resp.rt,instr_resp.duration,instr_color_to_key.started,instr_ctk.started,resp_ctk.started,instr_color_to_key.stopped,resp_ctk.keys,resp_ctk.rt,resp_ctk.duration,ITI.started,fixcross.started,fixcross.stopped,ITI.stopped,color_to_key_run.started,stimulus_CTK.started,keyResp_CTK.started,color_to_key_run.stopped,trials_CTK.keyResp_CTK.keys,trials_CTK.keyResp_CTK.corr,trials_CTK.keyResp_CTK.rt,trials_CTK.keyResp_CTK.duration,instr_practice.started,instr_practice_text.started,instr_practice_resp.started,instr_practice.stopped,instr_practice_resp.keys,instr_practice_resp.rt,instr_practice_resp.duration,practice_run.started,stimulus_practice.started,respPractice.started,practice_run.stopped,trials_practice.respPractice.keys,trials_practice.respPractice.corr,trials_practice.respPractice.rt,trials_practice.respPractice.duration,feedback.started,textFeedback.started,feedback.stopped,textFeedback.stopped,instr_test.started,instr_test_text.started,instr_test_resp.started,instr_test.stopped,instr_test_resp.keys,instr_test_resp.rt,instr_test_resp.duration,test_run.started,stimulus_test_run.started,keyResp_test_run.started,test_run.stopped,trials_test.keyResp_test_run.keys,trials_test.keyResp_test_run.corr,trials_test.keyResp_test_run.rt,trials_test.keyResp_test_run.duration,goodbye.started,textGoodbye.started,textGoodbye.stopped,goodbye.stopped,participant,session,expName,frameRate,Unnamed: 113
,,,,,,,,,,,,,,,,,,,,,,,,,,,,,,,,,,,,,,,,,0.0042528000194579,0.0516515000490471,0.0516515000490471,0.0516515000490471,54.86188920005225,space,54.799775999970734,,,,,,,,,,,,,,,,,,,,,,,,,,,,,,,,,,,,,,,,,,,,,,,,,,,,,,,,,,,sub-236,2,stroop_test,60.028549571943216,
,,,,,,,,,,,,,,,,,,,,,,,,,,,,,,,,,,,,,,,,,,,,,,,,,54.86211240000557,54.87525759998243,54.87525759998243,61.26049790007528,space,6.38112379994709,,,,,,,,,,,,,,,,,,,,,,,,,,,,,,,,,,,,,,,,,,,,,,,,,,,,sub-236,2,stroop_test,60.028549571943216,
test,red,r,1.0,0.0,0.0,0.0,r,1.0,4.983290300006047,,,,,,,,,,,,,,,,,,0.0,0.0,0.0,0.0,,,,,,,,,61.304883099976,,,,,,,,,,,,,,,,,61.29861609998625,62.47418400004972,63.284572100033984,63.258919100044295,63.27554359997157,63.284572100033984,63.284572100033984,68.2761148000136,r,1.0,4.983290300006047,,,,,,,,,,,,,,,,,,,,,,,,,,,,,,,,,,,,,,,,sub-236,2,stroop_test,60.028549571943216,
test,blue,b,1.0,1.0,1.0,0.0,b,1.0,1.076736200018786,,,,,,,,,,,,,,,,,,0.0,1.0,1.0,2.0,,,,,,,,,68.29009150003549,,,,,,,,,,,,,,,,,68.27698940003756,68.64010040007997,69.43999400001485,69.42523619998246,69.42679980001412,69.43999400001485,69.43999400001485,70.52618360007182,b,1.0,1.076736200018786,,,,,,,,,,,,,,,,,,,,,,,,,,,,,,,,,,,,,,,,sub-236,2,stroop_test,60.028549571943216,
test,yellow,g,1.0,2.0,2.0,0.0,g,1.0,0.8646103000501171,,,,,,,,,,,,,,,,,,0.0,2.0,2.0,1.0,,,,,,,,,70.53963010001462,,,,,,,,,,,,,,,,,70.52700330002699,71.33957980002742,72.13951600005385,72.12432619999163,72.12568619998638,72.13951600005385,72.13951600005385,73.00902580004185,g,1.0,0.8646103000501171,,,,,,,,,,,,,,,,,,,,,,,,,,,,,,,,,,,,,,,,sub-236,2,stroop_test,60.028549571943216,
test,yellow,g,1.0,3.0,0.0,1.0,g,1.0,0.6085807000054047,,,,,,,,,,,,,,,,,,1.0,0.0,3.0,1.0,,,,,,,,,73.0227845000336,,,,,,,,,,,,,,,,,73.00981670001056,73.12275740003679,73.92259500001092,73.90743410005234,73.9087625000393,73.92259500001092,73.92259500001092,74.54194829997141,g,1.0,0.6085807000054047,,,,,,,,,,,,,,,,,,,,,,,,,,,,,,,,,,,,,,,,sub-236,2,stroop_test,60.028549571943216,
test,red,r,1.0,4.0,1.0,1.0,r,1.0,0.6372563999611884,,,,,,,,,,,,,,,,,,1.0,1.0,4.0,0.0,,,,,,,,,74.55592880002223,,,,,,,,,,,,,,,,,74.54272020002827,75.35579180007335,76.15565059997607,76.1404720999999,76.14180840004701,76.15565059997607,76.15565059997607,76.80827899998985,r,1.0,0.6372563999611884,,,,,,,,,,,,,,,,,,,,,,,,,,,,,,,,,,,,,,,,sub-236,2,stroop_test,60.028549571943216,
test,blue,b,1.0,5.0,2.0,1.0,b,1.0,0.4541943001095205,,,,,,,,,,,,,,,,,,1.0,2.0,5.0,2.0,,,,,,,,,76.82215090002865,,,,,,,,,,,,,,,,,76.80907349998597,77.62217340001371,78.42211100005079,78.40727550000884,78.40859450004064,78.42211100005079,78.42211100005079,78.89122830005363,b,1.0,0.4541943001095205,,,,,,,,,,,,,,,,,,,,,,,,,,,,,,,,,,,,,,,,sub-236,2,stroop_test,60.028549571943216,
test,blue,b,1.0,6.0,0.0,2.0,b,1.0,0.4869049999397248,,,,,,,,,,,,,,,,,,2.0,0.0,6.0,2.0,,,,,,,,,78.90522890002467,,,,,,,,,,,,,,,,,78.8920356000308,79.00520780007355,79.80520830000751,79.78992910007946,79.79121050005779,79.80520830000751,79.80520830000751,80.30796390003525,b,1.0,0.4869049999397248,,,,,,,,,,,,,,,,,,,,,,,,,,,,,,,,,,,,,,,,sub-236,2,stroop_test,60.028549571943216,
test,yellow,g,1.0,7.0,1.0,2.0,g,1.0,0.5651964000426233,,,,,,,,,,,,,,,,,,2.0,1.0,7.0,1.0,,,,,,,,,80.3217130000703,,,,,,,,,,,,,,,,,80.30875610001385,81.12168109999038,81.92153440008406,81.90650709997863,81.90790800005198,81.92153440008406,81.92153440008406,82.49080849997699,g,1.0,0.5651964000426233,,,,,,,,,,,,,,,,,,,,,,,,,,,,,,,,,,,,,,,,sub-236,2,stroop_test,60.028549571943216,
test,red,r,1.0,8.0,2.0,2.0,r,1.0,0.5299315000884235,,,,,,,,,,,,,,,,,,2.0,2.0,8.0,0.0,,,,,,,,,82.50483320001513,,,,,,,,,,,,,,,,,82.49162350001279,82.60490330005996,83.40469980007038,83.38968840008602,83.39104670006782,83.40469980007038,83.40469980007038,83.94149970007129,r,1.0,0.5299315000884235,,,,,,,,,,,,,,,,,,,,,,,,,,,,,,,,,,,,,,,,sub-236,2,stroop_test,60.028549571943216,
test,blue,b,1.0,9.0,0.0,3.0,b,1.0,1.1536036001052707,,,,,,,,,,,,,,,,,,3.0,0.0,9.0,2.0,,,,,,,,,83.95456760004163,,,,,,,,,,,,,,,,,83.94232929998543,84.30454050004482,85.10479640006088,85.08993300003931,85.0914031000575,85.10479640006088,85.10479640006088,86.27383090008516,b,1.0,1.1536036001052707,,,,,,,,,,,,,,,,,,,,,,,,,,,,,,,,,,,,,,,,sub-236,2,stroop_test,60.028549571943216,
test,yellow,g,1.0,10.0,1.0,3.0,g,1.0,0.5814628000371158,,,,,,,,,,,,,,,,,,3.0,1.0,10.0,1.0,,,,,,,,,86.28763260005508,,,,,,,,,,,,,,,,,86.27463810006157,87.0876323999837,87.88742749998346,87.87240100000054,87.87369749997742,87.88742749998346,87.88742749998346,88.47372160002124,g,1.0,0.5814628000371158,,,,,,,,,,,,,,,,,,,,,,,,,,,,,,,,,,,,,,,,sub-236,2,stroop_test,60.028549571943216,
test,red,r,1.0,11.0,2.0,3.0,r,1.0,0.7744399000657722,,,,,,,,,,,,,,,,,,3.0,2.0,11.0,0.0,,,,,,,,,88.48725840006955,,,,,,,,,,,,,,,,,88.474510799977,88.5875147000188,89.38734979997389,89.37210560007952,89.37338740006089,89.38734979997389,89.38734979997389,90.17334850004409,r,1.0,0.7744399000657722,,,,,,,,,,,,,,,,,,,,,,,,,,,,,,,,,,,,,,,,sub-236,2,stroop_test,60.028549571943216,
,,,,,,,,,,,,,,,,,,,,,,,,,,,,,,,,,,,,,,,,,,,,,,,,,,,,,,,,,,,,,,,,,,,,90.17372349998914,90.187371200067,90.187371200067,95.28956100007052,space,5.085446499986574,,,,,,,,,,,,,,,,,,,,,,,,,,,,,,,,,sub-236,2,stroop_test,60.028549571943216,
,,,,0.0,0.0,0.0,,,,,rot,blue,b,0.0,b,1.0,1.5307431999826804,,,,,,,,,,,,,,0.0,0.0,0.0,2.0,,,,,95.32104700000492,,,,,,,,,,,,,,,,,95.31594190001488,95.65307820006274,96.4612503000535,96.43793710006868,,,,,,,,,,,,,,,,96.4520112000173,96.4612503000535,96.4612503000535,98.00589779997244,b,1.0,1.5307431999826804,,98.02726430003533,98.0338241000427,99.01971840008628,,,,,,,,,,,,,,,,,,,,,sub-236,2,stroop_test,60.028549571943216,
,,,,1.0,1.0,0.0,,,,,gelb,blue,b,0.0,b,1.0,1.6715977999847382,,,,,,,,,,,,,,0.0,1.0,1.0,9.0,,,,,99.03602160001174,,,,,,,,,,,,,,,,,99.02052290004212,100.21916310000232,101.02924519998489,101.00396790006198,,,,,,,,,,,,,,,,101.01884809997864,101.02924519998489,101.02924519998489,102.70546119997744,b,1.0,1.6715977999847382,,102.706955700065,102.71891000005417,103.7038370000664,103.71867149998434,,,,,,,,,,,,,,,,,,,,sub-236,2,stroop_test,60.028549571943216,
,,,,2.0,2.0,0.0,,,,,rot,yellow,g,0.0,g,1.0,1.249347500037402,,,,,,,,,,,,,,0.0,2.0,2.0,3.0,,,,,103.71867149998434,,,,,,,,,,,,,,,,,103.70460330008063,104.06869790004566,104.87142740003765,104.85349690006116,,,,,,,,,,,,,,,,104.86183569999412,104.87142740003765,104.87142740003765,106.13804900005924,g,1.0,1.249347500037402,,106.13951470004396,106.15178010007368,107.1367506000679,107.15151780005544,,,,,,,,,,,,,,,,,,,,sub-236,2,stroop_test,60.028549571943216,
,,,,3.0,3.0,0.0,,,,,rot,red,r,1.0,r,1.0,0.9408935999963433,,,,,,,,,,,,,,0.0,3.0,3.0,1.0,,,,,107.15151780005544,,,,,,,,,,,,,,,,,107.1375379000092,107.2516859000316,108.0514606999932,108.03657570003998,,,,,,,,,,,,,,,,108.03808540001046,108.0514606999932,108.0514606999932,109.00409549998584,r,1.0,0.9408935999963433,,109.0055872000521,109.01797960000113,110.00294060003944,110.01797829999124,,,,,,,,,,,,,,,,,,,,sub-236,2,stroop_test,60.028549571943216,
,,,,4.0,4.0,0.0,,,,,gelb,yellow,g,1.0,g,1.0,1.3719258999917656,,,,,,,,,,,,,,0.0,4.0,4.0,10.0,,,,,110.01797829999124,,,,,,,,,,,,,,,,,110.00372640008572,110.11796489998233,110.92258440004662,110.9027078000363,,,,,,,,,,,,,,,,110.91217100003269,110.92258440004662,110.92258440004662,112.30422789999284,g,1.0,1.3719258999917656,,112.30565520003438,112.31764600006863,113.3024428000208,113.3174580000341,,,,,,,,,,,,,,,,,,,,sub-236,2,stroop_test,60.028549571943216,
,,,,5.0,5.0,0.0,,,,,blau,blue,b,1.0,b,1.0,0.5511317000491545,,,,,,,,,,,,,,0.0,5.0,5.0,6.0,,,,,113.3174580000341,,,,,,,,,,,,,,,,,113.3032273000572,113.66755080001894,114.47629889997188,114.452635499998,,,,,,,,,,,,,,,,114.46672610007226,114.47629889997188,114.47629889997188,115.03686900006142,b,1.0,0.5511317000491545,,115.03828430001158,115.05064090003724,116.0354657000862,116.0505263999803,,,,,,,,,,,,,,,,,,,,sub-236,2,stroop_test,60.028549571943216,
,,,,6.0,6.0,0.0,,,,,blau,red,r,0.0,r,1.0,1.0721045000245797,,,,,,,,,,,,,,0.0,6.0,6.0,4.0,,,,,116.0505263999803,,,,,,,,,,,,,,,,,116.0362590000732,117.25027930003124,118.05031469999813,118.03535510005896,,,,,,,,,,,,,,,,118.0368446999928,118.05031469999813,118.05031469999813,119.13621510006487,r,1.0,1.0721045000245797,,119.13769220001996,119.15006300003732,120.13497460004874,120.15001720003784,,,,,,,,,,,,,,,,,,,,sub-236,2,stroop_test,60.028549571943216,
,,,,7.0,7.0,0.0,,,,,gelb,yellow,g,1.0,g,1.0,1.1945859000552446,,,,,,,,,,,,,,0.0,7.0,7.0,11.0,,,,,120.15001720003784,,,,,,,,,,,,,,,,,120.135768200038,121.34990310005378,122.15468959999272,122.13487930002157,,,,,,,,,,,,,,,,122.14529020001646,122.15468959999272,122.15468959999272,123.3526254000608,g,1.0,1.1945859000552446,,123.35401960008312,123.3663592999801,124.35101169999687,124.36602110008243,,,,,,,,,,,,,,,,,,,,sub-236,2,stroop_test,60.028549571943216,
,,,,8.0,8.0,0.0,,,,,blau,blue,b,1.0,b,1.0,0.5111264999723062,,,,,,,,,,,,,,0.0,8.0,8.0,5.0,,,,,124.36602110008243,,,,,,,,,,,,,,,,,124.35180060006678,124.71598019998056,125.51764249999542,125.5007718000561,,,,,,,,,,,,,,,,125.50869849999437,125.51764249999542,125.51764249999542,126.03520829998888,b,1.0,0.5111264999723062,,126.03665000002366,126.04926970007364,127.03419180004856,127.04916200006846,,,,,,,,,,,,,,,,,,,,sub-236,2,stroop_test,60.028549571943216,
,,,,9.0,9.0,0.0,,,,,blau,yellow,g,0.0,g,1.0,1.195090799941681,,,,,,,,,,,,,,0.0,9.0,9.0,7.0,,,,,127.04916200006846,,,,,,,,,,,,,,,,,127.03495950007346,128.2489690000657,129.0488667000318,129.03455019998364,,,,,,,,,,,,,,,,129.03603870002553,129.0488667000318,129.0488667000318,130.25176630006172,g,1.0,1.195090799941681,,130.25307920004707,130.26529780006967,131.25024650001433,131.26507560000755,,,,,,,,,,,,,,,,,,,,sub-236,2,stroop_test,60.028549571943216,
,,,,10.0,10.0,0.0,,,,,gelb,red,r,0.0,r,1.0,0.8421419999795035,,,,,,,,,,,,,,0.0,10.0,10.0,8.0,,,,,131.26507560000755,,,,,,,,,,,,,,,,,131.2510450000409,131.6151299000485,132.42039810004644,132.39997610007413,,,,,,,,,,,,,,,,132.40934770007152,132.42039810004644,132.42039810004644,133.26788100006524,r,1.0,0.8421419999795035,,133.26927799999248,133.2816223000409,134.26636200002395,134.28140570002142,,,,,,,,,,,,,,,,,,,,sub-236,2,stroop_test,60.028549571943216,
,,,,11.0,11.0,0.0,,,,,rot,red,r,1.0,r,1.0,1.363558099954389,,,,,,,,,,,,,,0.0,11.0,11.0,0.0,,,,,134.28140570002142,,,,,,,,,,,,,,,,,134.2671556000132,135.4813986000372,136.28399959998205,136.2660660999827,,,,,,,,,,,,,,,,136.27428989997134,136.28399959998205,136.28399959998205,137.65101280005183,r,1.0,1.363558099954389,,137.65239980001934,137.66447040007915,138.6491446000291,138.66412219998892,,,,,,,,,,,,,,,,,,,,sub-236,2,stroop_test,60.028549571943216,
,,,,12.0,0.0,1.0,,,,,rot,blue,b,0.0,b,1.0,0.8822833999292925,,,,,,,,,,,,,,1.0,0.0,12.0,2.0,,,,,138.66412219998892,,,,,,,,,,,,,,,,,138.6499339999864,139.0141133000143,139.81406360003166,139.79939280007966,,,,,,,,,,,,,,,,139.80094800004736,139.81406360003166,139.81406360003166,140.70027690008283,b,1.0,0.8822833999292925,,140.7017332999967,140.71396239998285,141.69893299997784,141.713866300066,,,,,,,,,,,,,,,,,,,,sub-236,2,stroop_test,60.028549571943216,
,,,,13.0,1.0,1.0,,,,,blau,blue,b,1.0,b,1.0,1.233400300028734,,,,,,,,,,,,,,1.0,1.0,13.0,5.0,,,,,141.713866300066,,,,,,,,,,,,,,,,,141.699661700055,142.9136268000584,143.7163850000361,143.6987678000005,,,,,,,,,,,,,,,,143.7070274000289,143.7163850000361,143.7163850000361,144.96631909999996,b,1.0,1.233400300028734,,144.9678230000427,144.98004449997097,145.96482760005165,145.97991890006233,,,,,,,,,,,,,,,,,,,,sub-236,2,stroop_test,60.028549571943216,
,,,,14.0,2.0,1.0,,,,,gelb,blue,b,0.0,b,1.0,1.13423970004078,,,,,,,,,,,,,,1.0,2.0,14.0,9.0,,,,,145.97991890006233,,,,,,,,,,,,,,,,,145.9655736000277,146.07997730001807,146.88481700001284,146.86474860005546,,,,,,,,,,,,,,,,146.87434660003055,146.88481700001284,146.88481700001284,148.0326127000153,b,1.0,1.13423970004078,,148.0340362000279,148.04634830006398,149.03112230007537,149.04636729997583,,,,,,,,,,,,,,,,,,,,sub-236,2,stroop_test,60.028549571943216,
,,,,15.0,3.0,1.0,,,,,blau,yellow,g,0.0,g,1.0,1.3441740999696776,,,,,,,,,,,,,,1.0,3.0,15.0,7.0,,,,,149.04636729997583,,,,,,,,,,,,,,,,,149.0319396000123,149.39609880000353,150.20070679998025,150.1810167999938,,,,,,,,,,,,,,,,150.1912734999787,150.20070679998025,150.20070679998025,151.5489530999912,g,1.0,1.3441740999696776,,151.5503316000104,151.56259169999976,152.54731350007933,152.5624581000302,,,,,,,,,,,,,,,,,,,,sub-236,2,stroop_test,60.028549571943216,
,,,,16.0,4.0,1.0,,,,,rot,yellow,g,0.0,g,1.0,0.9169068000046536,,,,,,,,,,,,,,1.0,4.0,16.0,3.0,,,,,152.5624581000302,,,,,,,,,,,,,,,,,152.54811800003517,153.76256050006486,154.56604050006715,154.54761380003765,,,,,,,,,,,,,,,,154.55660280003212,154.56604050006715,154.56604050006715,155.4982716999948,g,1.0,0.9169068000046536,,155.499739699997,155.5121876000194,156.49681190005504,156.5118191000074,,,,,,,,,,,,,,,,,,,,sub-236,2,stroop_test,60.028549571943216,
,,,,17.0,5.0,1.0,,,,,gelb,yellow,g,1.0,g,1.0,0.9718085000058636,,,,,,,,,,,,,,1.0,5.0,17.0,10.0,,,,,156.5118191000074,,,,,,,,,,,,,,,,,156.497573700035,157.31181109999306,158.11704200005624,158.09703649999574,,,,,,,,,,,,,,,,158.10618170001544,158.11704200005624,158.11704200005624,159.0977058999706,g,1.0,0.9718085000058636,,159.09909420006443,159.11152390006464,160.09636119997597,160.11138330004178,,,,,,,,,,,,,,,,,,,,sub-236,2,stroop_test,60.028549571943216,
,,,,18.0,6.0,1.0,,,,,gelb,yellow,g,1.0,g,1.0,0.6461848999606445,,,,,,,,,,,,,,1.0,6.0,18.0,11.0,,,,,160.11138330004178,,,,,,,,,,,,,,,,,160.09710630006157,161.31150710000657,162.11133310000878,162.09613850002643,,,,,,,,,,,,,,,,162.09748660004698,162.11133310000878,162.11133310000878,162.76396700006444,g,1.0,0.6461848999606445,,162.76543310005218,162.77781090000644,163.7625728000421,163.77763500006404,,,,,,,,,,,,,,,,,,,,sub-236,2,stroop_test,60.028549571943216,
,,,,19.0,7.0,1.0,,,,,gelb,red,r,0.0,r,1.0,0.6895134000806138,,,,,,,,,,,,,,1.0,7.0,19.0,8.0,,,,,163.77763500006404,,,,,,,,,,,,,,,,,163.7633544000564,164.57749699999113,165.37758189998567,165.36228840006515,,,,,,,,,,,,,,,,165.3636387999868,165.37758189998567,165.37758189998567,166.080128600006,r,1.0,0.6895134000806138,,166.08154599997215,166.09400010004174,167.07871090003755,167.0938707999885,,,,,,,,,,,,,,,,,,,,sub-236,2,stroop_test,60.028549571943216,
,,,,20.0,8.0,1.0,,,,,blau,red,r,0.0,r,1.0,1.0574246000032872,,,,,,,,,,,,,,1.0,8.0,20.0,4.0,,,,,167.0938707999885,,,,,,,,,,,,,,,,,167.07950380002148,167.19384570000693,167.99555390002206,167.97862110007554,,,,,,,,,,,,,,,,167.9867077000672,167.99555390002206,167.99555390002206,169.06313140003476,r,1.0,1.0574246000032872,,169.064549600007,169.07687810005154,170.06170980003662,170.0767172999913,,,,,,,,,,,,,,,,,,,,sub-236,2,stroop_test,60.028549571943216,
,,,,21.0,9.0,1.0,,,,,blau,blue,b,1.0,b,1.0,0.7531193000031635,,,,,,,,,,,,,,1.0,9.0,21.0,6.0,,,,,170.0767172999913,,,,,,,,,,,,,,,,,170.0624989999924,170.876814700081,171.6767706000246,171.66131049999967,,,,,,,,,,,,,,,,171.6626302000368,171.6767706000246,171.6767706000246,172.44575579999946,b,1.0,0.7531193000031635,,172.4472590000369,172.45977499999572,173.44507620006334,173.45974520000163,,,,,,,,,,,,,,,,,,,,sub-236,2,stroop_test,60.028549571943216,
,,,,22.0,10.0,1.0,,,,,rot,red,r,1.0,r,1.0,0.94337810005527,,,,,,,,,,,,,,1.0,10.0,22.0,1.0,,,,,173.45974520000163,,,,,,,,,,,,,,,,,173.44597400003113,174.65939450007863,175.4606930000009,175.44423160003498,,,,,,,,,,,,,,,,175.45185050007422,175.4606930000009,175.4606930000009,176.41208769998048,r,1.0,0.94337810005527,,176.41346010006964,176.42596700007562,177.41094530001283,177.4259828000795,,,,,,,,,,,,,,,,,,,,sub-236,2,stroop_test,60.028549571943216,
,,,,23.0,11.0,1.0,,,,,rot,red,r,1.0,r,1.0,1.193174000014551,,,,,,,,,,,,,,1.0,11.0,23.0,0.0,,,,,177.4259828000795,,,,,,,,,,,,,,,,,177.41171700006817,178.62578950007446,179.42571960005444,179.41075560008176,,,,,,,,,,,,,,,,179.41243909997866,179.42571960005444,179.42571960005444,180.628548800014,r,1.0,1.193174000014551,,180.63012440002055,180.64214960008397,181.626856100047,181.6420868000714,,,,,,,,,,,,,,,,,,,,sub-236,2,stroop_test,60.028549571943216,
,,,,,,,,,,,,,,,,,,,,,,,,,,,,,,,,,,,,,,,,,,,,,,,,,,,,,,,,,,,,,,,,,,,,,,,,,,,,,,,,,,,,,,,181.62718180008235,181.6420868000714,181.6420868000714,187.4445829000324,space,5.797570899943821,,,,,,,,,,,,,,sub-236,2,stroop_test,60.028549571943216,
,,,,0.0,0.0,0.0,,,,,,,,,,,,,rot,yellow,g,0.0,g,1.0,1.2381885999348017,,,,,,,,,,0.0,0.0,0.0,3.0,187.4811984000262,,,,,,,,,,,,,,,,,187.47513789997905,188.2579051000066,189.06054520001635,189.04261080001012,,,,,,,,,,,,,,,,,,,,,,,,,,,,,,,,,,,189.05102310003716,189.06054520001635,189.06054520001635,190.3105098999804,g,1.0,1.2381885999348017,,,,,,sub-236,2,stroop_test,60.028549571943216,
,,,,1.0,1.0,0.0,,,,,,,,,,,,,rot,blue,b,0.0,b,1.0,0.8290177999297157,,,,,,,,,,0.0,1.0,1.0,2.0,190.32431080006063,,,,,,,,,,,,,,,,,190.31139250006527,190.6742695000721,191.47410170000512,191.45901220000812,,,,,,,,,,,,,,,,,,,,,,,,,,,,,,,,,,,191.4602889000671,191.47410170000512,191.47410170000512,192.3099180000136,b,1.0,0.8290177999297157,,,,,,sub-236,2,stroop_test,60.028549571943216,
,,,,2.0,2.0,0.0,,,,,,,,,,,,,blau,red,r,0.0,r,1.0,1.069319300004281,,,,,,,,,,0.0,2.0,2.0,4.0,192.3238304000115,,,,,,,,,,,,,,,,,192.31084370007736,193.12381570006252,193.925759500009,193.9085580999963,,,,,,,,,,,,,,,,,,,,,,,,,,,,,,,,,,,193.91666860005355,193.925759500009,193.925759500009,195.00996629998556,r,1.0,1.069319300004281,,,,,,sub-236,2,stroop_test,60.028549571943216,
,,,,3.0,3.0,0.0,,,,,,,,,,,,,rot,red,r,1.0,r,1.0,0.9233303000219166,,,,,,,,,,0.0,3.0,3.0,0.0,195.0235816000495,,,,,,,,,,,,,,,,,195.01091020007152,196.2235077000223,197.0259907,197.00843510008417,,,,,,,,,,,,,,,,,,,,,,,,,,,,,,,,,,,197.01659840007775,197.0259907,197.0259907,197.9591211000225,r,1.0,0.9233303000219166,,,,,,sub-236,2,stroop_test,60.028549571943216,
,,,,4.0,4.0,0.0,,,,,,,,,,,,,rot,red,r,1.0,r,1.0,0.7647047999780625,,,,,,,,,,0.0,4.0,4.0,1.0,197.97316110006068,,,,,,,,,,,,,,,,,197.9600454000756,199.17322420002893,199.97302150004543,199.95791540003847,,,,,,,,,,,,,,,,,,,,,,,,,,,,,,,,,,,199.9592152000405,199.97302150004543,199.97302150004543,200.74292810005136,r,1.0,0.7647047999780625,,,,,,sub-236,2,stroop_test,60.028549571943216,
,,,,5.0,5.0,0.0,,,,,,,,,,,,,blau,yellow,g,0.0,g,1.0,1.2085742000490427,,,,,,,,,,0.0,5.0,5.0,7.0,200.75632340007,,,,,,,,,,,,,,,,,200.74383809999563,201.55600460001733,202.35775289998853,202.3408412000863,,,,,,,,,,,,,,,,,,,,,,,,,,,,,,,,,,,202.3485627999762,202.35775289998853,202.35775289998853,203.57561910001093,g,1.0,1.2085742000490427,,,,,,sub-236,2,stroop_test,60.028549571943216,
,,,,6.0,6.0,0.0,,,,,,,,,,,,,gelb,red,r,0.0,r,1.0,0.6897769999923185,,,,,,,,,,0.0,6.0,6.0,8.0,203.58905629999936,,,,,,,,,,,,,,,,,203.5765874000499,203.68906000000425,204.49315740005116,204.4738756000297,,,,,,,,,,,,,,,,,,,,,,,,,,,,,,,,,,,204.48324480000883,204.49315740005116,204.49315740005116,205.19179750001055,r,1.0,0.6897769999923185,,,,,,sub-236,2,stroop_test,60.028549571943216,
,,,,7.0,7.0,0.0,,,,,,,,,,,,,gelb,yellow,g,1.0,g,1.0,1.7743333999533206,,,,,,,,,,0.0,7.0,7.0,11.0,205.20559650007635,,,,,,,,,,,,,,,,,205.19270470004997,206.4054104000097,207.2054980000248,207.19020130007996,,,,,,,,,,,,,,,,,,,,,,,,,,,,,,,,,,,207.19156740000471,207.2054980000248,207.2054980000248,208.99149949999992,g,1.0,1.7743333999533206,,,,,,sub-236,2,stroop_test,60.028549571943216,
,,,,8.0,8.0,0.0,,,,,,,,,,,,,gelb,yellow,g,1.0,g,1.0,0.6950992000056431,,,,,,,,,,0.0,8.0,8.0,10.0,209.00503450003453,,,,,,,,,,,,,,,,,208.9924530000426,209.35504270007368,210.15504870004952,210.13984219997656,,,,,,,,,,,,,,,,,,,,,,,,,,,,,,,,,,,210.1411628000205,210.15504870004952,210.15504870004952,210.8576729000779,g,1.0,0.6950992000056431,,,,,,sub-236,2,stroop_test,60.028549571943216,
,,,,9.0,9.0,0.0,,,,,,,,,,,,,blau,blue,b,1.0,b,1.0,0.6926582000451162,,,,,,,,,,0.0,9.0,9.0,5.0,210.87167190003677,,,,,,,,,,,,,,,,,210.85864520003088,210.97146909998264,211.7738651999971,211.7562978999922,,,,,,,,,,,,,,,,,,,,,,,,,,,,,,,,,,,211.7649702000199,211.7738651999971,211.7738651999971,212.47419420001097,b,1.0,0.6926582000451162,,,,,,sub-236,2,stroop_test,60.028549571943216,
,,,,10.0,10.0,0.0,,,,,,,,,,,,,blau,blue,b,1.0,b,1.0,0.7483861000509933,,,,,,,,,,0.0,10.0,10.0,6.0,212.48805779998656,,,,,,,,,,,,,,,,,212.47512670001012,213.68790460005405,214.48768610006664,214.47294330003209,,,,,,,,,,,,,,,,,,,,,,,,,,,,,,,,,,,214.47449210006744,214.48768610006664,214.48768610006664,215.2409423000645,b,1.0,0.7483861000509933,,,,,,sub-236,2,stroop_test,60.028549571943216,
,,,,11.0,11.0,0.0,,,,,,,,,,,,,gelb,blue,b,0.0,b,1.0,0.9738648000638932,,,,,,,,,,0.0,11.0,11.0,9.0,215.25432499998715,,,,,,,,,,,,,,,,,215.24184759997297,215.3542063999921,216.15985799999908,216.13940059999004,,,,,,,,,,,,,,,,,,,,,,,,,,,,,,,,,,,216.14936799998395,216.15985799999908,216.15985799999908,217.1403291000752,b,1.0,0.9738648000638932,,,,,,sub-236,2,stroop_test,60.028549571943216,
,,,,12.0,0.0,1.0,,,,,,,,,,,,,blau,yellow,g,0.0,g,1.0,1.3766169999726117,,,,,,,,,,1.0,0.0,12.0,7.0,217.15413560008164,,,,,,,,,,,,,,,,,217.1412902000593,218.3539539000485,219.1559157000156,219.13880920002703,,,,,,,,,,,,,,,,,,,,,,,,,,,,,,,,,,,219.1467517000856,219.1559157000156,219.1559157000156,220.5400084999856,g,1.0,1.3766169999726117,,,,,,sub-236,2,stroop_test,60.028549571943216,
,,,,13.0,1.0,1.0,,,,,,,,,,,,,rot,yellow,g,0.0,g,1.0,0.970324099995196,,,,,,,,,,1.0,1.0,13.0,3.0,220.55362250003964,,,,,,,,,,,,,,,,,220.5409445000114,221.753544599982,222.55749949999156,222.5385572999949,,,,,,,,,,,,,,,,,,,,,,,,,,,,,,,,,,,222.5480888000457,222.55749949999156,222.55749949999156,223.53941890003625,g,1.0,0.970324099995196,,,,,,sub-236,2,stroop_test,60.028549571943216,
,,,,14.0,2.0,1.0,,,,,,,,,,,,,blau,blue,b,1.0,b,1.0,1.2495266000041738,,,,,,,,,,1.0,2.0,14.0,6.0,223.5533147000242,,,,,,,,,,,,,,,,,223.5403722000774,223.65322009997908,224.4556646000128,224.43806940002835,,,,,,,,,,,,,,,,,,,,,,,,,,,,,,,,,,,224.446416700026,224.4556646000128,224.4556646000128,225.72242740006183,b,1.0,1.2495266000041738,,,,,,sub-236,2,stroop_test,60.028549571943216,
,,,,15.0,3.0,1.0,,,,,,,,,,,,,rot,red,r,1.0,r,1.0,0.6664795000106096,,,,,,,,,,1.0,3.0,15.0,1.0,225.7364298000466,,,,,,,,,,,,,,,,,225.72337780008093,225.8362676000688,226.6378628000384,226.6208984000841,,,,,,,,,,,,,,,,,,,,,,,,,,,,,,,,,,,226.62862229999155,226.6378628000384,226.6378628000384,227.3220239999937,r,1.0,0.6664795000106096,,,,,,sub-236,2,stroop_test,60.028549571943216,
,,,,16.0,4.0,1.0,,,,,,,,,,,,,rot,blue,b,0.0,b,1.0,0.8223727999720722,,,,,,,,,,1.0,4.0,16.0,2.0,227.3361643999815,,,,,,,,,,,,,,,,,227.3229548999807,227.6861192000797,228.4860474000452,228.47084840002933,,,,,,,,,,,,,,,,,,,,,,,,,,,,,,,,,,,228.4721396000823,228.4860474000452,228.4860474000452,229.3219880000688,b,1.0,0.8223727999720722,,,,,,sub-236,2,stroop_test,60.028549571943216,
,,,,17.0,5.0,1.0,,,,,,,,,,,,,gelb,yellow,g,1.0,g,1.0,1.106886800029315,,,,,,,,,,1.0,5.0,17.0,11.0,229.33563780004624,,,,,,,,,,,,,,,,,229.3229229999706,229.68578330008316,230.49059429997575,230.4706001000013,,,,,,,,,,,,,,,,,,,,,,,,,,,,,,,,,,,230.4800442000851,230.49059429997575,230.49059429997575,231.60506820003505,g,1.0,1.106886800029315,,,,,,sub-236,2,stroop_test,60.028549571943216,
,,,,18.0,6.0,1.0,,,,,,,,,,,,,rot,red,r,1.0,r,1.0,1.0190368000185115,,,,,,,,,,1.0,6.0,18.0,0.0,231.61880320007916,,,,,,,,,,,,,,,,,231.6060105999932,232.81874500005503,233.62051410006825,233.6035626999801,,,,,,,,,,,,,,,,,,,,,,,,,,,,,,,,,,,233.61114850000013,233.62051410006825,233.62051410006825,234.6544595999876,r,1.0,1.0190368000185115,,,,,,sub-236,2,stroop_test,60.028549571943216,
,,,,19.0,7.0,1.0,,,,,,,,,,,,,blau,blue,b,1.0,b,1.0,0.7388146999292076,,,,,,,,,,1.0,7.0,19.0,5.0,234.66849150008056,,,,,,,,,,,,,,,,,234.65541270002723,235.86829500005115,236.6721542000305,236.65318430005573,,,,,,,,,,,,,,,,,,,,,,,,,,,,,,,,,,,236.66289759997744,236.6721542000305,236.6721542000305,237.4209375000792,b,1.0,0.7388146999292076,,,,,,sub-236,2,stroop_test,60.028549571943216,
,,,,20.0,8.0,1.0,,,,,,,,,,,,,gelb,yellow,g,1.0,g,1.0,1.2118110000155866,,,,,,,,,,1.0,8.0,20.0,10.0,237.43475560005757,,,,,,,,,,,,,,,,,237.4218709000852,238.6347154000541,239.4398585000308,239.4194279999938,,,,,,,,,,,,,,,,,,,,,,,,,,,,,,,,,,,239.4294972000644,239.4398585000308,239.4398585000308,240.65427070006265,g,1.0,1.2118110000155866,,,,,,sub-236,2,stroop_test,60.028549571943216,
,,,,21.0,9.0,1.0,,,,,,,,,,,,,blau,red,r,0.0,r,1.0,0.7217415999621153,,,,,,,,,,1.0,9.0,21.0,4.0,240.6676272000186,,,,,,,,,,,,,,,,,240.65520120004655,240.76764660002664,241.57014109997544,241.5524488000665,,,,,,,,,,,,,,,,,,,,,,,,,,,,,,,,,,,241.5607612000313,241.57014109997544,241.57014109997544,242.3036785000004,r,1.0,0.7217415999621153,,,,,,sub-236,2,stroop_test,60.028549571943216,
,,,,22.0,10.0,1.0,,,,,,,,,,,,,gelb,red,r,0.0,r,1.0,0.7065882999449968,,,,,,,,,,1.0,10.0,22.0,8.0,242.31751690001693,,,,,,,,,,,,,,,,,242.3045972000109,243.5172323000152,244.3213212999981,244.3019480999792,,,,,,,,,,,,,,,,,,,,,,,,,,,,,,,,,,,244.31109299999665,244.3213212999981,244.3213212999981,245.0365514999721,r,1.0,0.7065882999449968,,,,,,sub-236,2,stroop_test,60.028549571943216,
,,,,23.0,11.0,1.0,,,,,,,,,,,,,gelb,blue,b,0.0,b,1.0,0.9318131000036374,,,,,,,,,,1.0,11.0,23.0,9.0,245.0504907000577,,,,,,,,,,,,,,,,,245.03749690006956,245.40036980004515,246.20038539997768,246.18536260002293,,,,,,,,,,,,,,,,,,,,,,,,,,,,,,,,,,,246.1866400999716,246.20038539997768,246.20038539997768,247.1363832000643,b,1.0,0.9318131000036374,,,,,,sub-236,2,stroop_test,60.028549571943216,
,,,,24.0,0.0,2.0,,,,,,,,,,,,,gelb,red,r,0.0,r,1.0,0.7323145000264049,,,,,,,,,,2.0,0.0,24.0,8.0,247.15016429999375,,,,,,,,,,,,,,,,,247.13733639998827,247.5001666999888,248.3000215999782,248.2849391000345,,,,,,,,,,,,,,,,,,,,,,,,,,,,,,,,,,,248.28621280007064,248.3000215999782,248.3000215999782,249.0361038000556,r,1.0,0.7323145000264049,,,,,,sub-236,2,stroop_test,60.028549571943216,
,,,,25.0,1.0,2.0,,,,,,,,,,,,,rot,yellow,g,0.0,g,1.0,1.107770000002347,,,,,,,,,,2.0,1.0,25.0,3.0,249.0498526999727,,,,,,,,,,,,,,,,,249.03701890003867,249.1500550999772,249.95222920004744,249.9347473999951,,,,,,,,,,,,,,,,,,,,,,,,,,,,,,,,,,,249.9429216000717,249.95222920004744,249.95222920004744,251.06938920007087,g,1.0,1.107770000002347,,,,,,sub-236,2,stroop_test,60.028549571943216,
,,,,26.0,2.0,2.0,,,,,,,,,,,,,blau,blue,b,1.0,b,1.0,0.6154988999478519,,,,,,,,,,2.0,2.0,26.0,5.0,251.08299899997652,,,,,,,,,,,,,,,,,251.07036690006495,251.4328995000105,252.2353134000441,252.2178041000152,,,,,,,,,,,,,,,,,,,,,,,,,,,,,,,,,,,252.22594040003605,252.2353134000441,252.2353134000441,252.86853510001677,b,1.0,0.6154988999478519,,,,,,sub-236,2,stroop_test,60.028549571943216,
,,,,27.0,3.0,2.0,,,,,,,,,,,,,gelb,blue,b,0.0,b,1.0,0.515634199953638,,,,,,,,,,2.0,3.0,27.0,9.0,252.882787700044,,,,,,,,,,,,,,,,,252.8695281000109,252.9826922999928,253.786386199994,253.76764340000227,,,,,,,,,,,,,,,,,,,,,,,,,,,,,,,,,,,253.77662640006747,253.786386199994,253.786386199994,254.31888170004825,b,1.0,0.515634199953638,,,,,,sub-236,2,stroop_test,60.028549571943216,
,,,,28.0,4.0,2.0,,,,,,,,,,,,,gelb,yellow,g,1.0,g,1.0,0.6208466000389308,,,,,,,,,,2.0,4.0,28.0,10.0,254.33248910005204,,,,,,,,,,,,,,,,,254.31979630002752,254.4326621000655,255.23248910007533,255.21745780005585,,,,,,,,,,,,,,,,,,,,,,,,,,,,,,,,,,,255.21875200001523,255.23248910007533,255.23248910007533,255.86847300000957,g,1.0,0.6208466000389308,,,,,,sub-236,2,stroop_test,60.028549571943216,
,,,,29.0,5.0,2.0,,,,,,,,,,,,,rot,red,r,1.0,r,1.0,0.5325821000151336,,,,,,,,,,2.0,5.0,29.0,1.0,255.8823526999913,,,,,,,,,,,,,,,,,255.86937930004208,256.68222940003034,257.4851073999889,257.4671950000338,,,,,,,,,,,,,,,,,,,,,,,,,,,,,,,,,,,257.4759376000148,257.4851073999889,257.4851073999889,258.0346421999857,r,1.0,0.5325821000151336,,,,,,sub-236,2,stroop_test,60.028549571943216,
,,,,30.0,6.0,2.0,,,,,,,,,,,,,blau,blue,b,1.0,b,1.0,0.7849144000792876,,,,,,,,,,2.0,6.0,30.0,6.0,258.04874060000293,,,,,,,,,,,,,,,,,258.0355319000082,258.1488204000052,258.95052160008345,258.9334733000724,,,,,,,,,,,,,,,,,,,,,,,,,,,,,,,,,,,258.9414539000718,258.95052160008345,258.95052160008345,259.7512669999851,b,1.0,0.7849144000792876,,,,,,sub-236,2,stroop_test,60.028549571943216,
,,,,31.0,7.0,2.0,,,,,,,,,,,,,rot,red,r,1.0,r,1.0,0.6461222000652924,,,,,,,,,,2.0,7.0,31.0,0.0,259.76529060001485,,,,,,,,,,,,,,,,,259.75223290000577,260.5650787000777,261.36723239999264,261.349823400029,,,,,,,,,,,,,,,,,,,,,,,,,,,,,,,,,,,261.3577608000487,261.36723239999264,261.36723239999264,262.0181141999783,r,1.0,0.6461222000652924,,,,,,sub-236,2,stroop_test,60.028549571943216,
,,,,32.0,8.0,2.0,,,,,,,,,,,,,rot,blue,b,0.0,b,1.0,0.8243803000077605,,,,,,,,,,2.0,8.0,32.0,2.0,262.03150090004783,,,,,,,,,,,,,,,,,262.0190505000064,262.1315413999837,262.9315970999887,262.9166925000027,,,,,,,,,,,,,,,,,,,,,,,,,,,,,,,,,,,262.917963600019,262.9315970999887,262.9315970999887,263.7674022000283,b,1.0,0.8243803000077605,,,,,,sub-236,2,stroop_test,60.028549571943216,
,,,,33.0,9.0,2.0,,,,,,,,,,,,,blau,yellow,g,0.0,g,1.0,1.7790630999952557,,,,,,,,,,2.0,9.0,33.0,7.0,263.7813412999967,,,,,,,,,,,,,,,,,263.76835240004584,263.8814217000036,264.6835164000513,264.6662043000106,,,,,,,,,,,,,,,,,,,,,,,,,,,,,,,,,,,264.6742420999799,264.6835164000513,264.6835164000513,266.4674571000505,g,1.0,1.7790630999952557,,,,,,sub-236,2,stroop_test,60.028549571943216,
,,,,34.0,10.0,2.0,,,,,,,,,,,,,gelb,yellow,g,1.0,g,1.0,0.5178582000080496,,,,,,,,,,2.0,10.0,34.0,11.0,266.4809284000657,,,,,,,,,,,,,,,,,266.4683710000245,267.2808528000023,268.08705970004667,268.0656370000215,,,,,,,,,,,,,,,,,,,,,,,,,,,,,,,,,,,268.0751298000105,268.08705970004667,268.08705970004667,268.61674129997846,g,1.0,0.5178582000080496,,,,,,sub-236,2,stroop_test,60.028549571943216,
,,,,35.0,11.0,2.0,,,,,,,,,,,,,blau,red,r,0.0,r,1.0,0.5933146000606939,,,,,,,,,,2.0,11.0,35.0,4.0,268.6306884000078,,,,,,,,,,,,,,,,,268.6176917999983,268.7306738999905,269.53309849998914,269.5156068999786,,,,,,,,,,,,,,,,,,,,,,,,,,,,,,,,,,,269.5233685000567,269.53309849998914,269.53309849998914,270.13350990007166,r,1.0,0.5933146000606939,,,,,,sub-236,2,stroop_test,60.028549571943216,
,,,,36.0,0.0,3.0,,,,,,,,,,,,,rot,red,r,1.0,r,1.0,1.0911400000331923,,,,,,,,,,3.0,0.0,36.0,0.0,270.1471266000299,,,,,,,,,,,,,,,,,270.13448610005435,270.94715400005225,271.7488555000164,271.73183260008227,,,,,,,,,,,,,,,,,,,,,,,,,,,,,,,,,,,271.73980680003297,271.7488555000164,271.7488555000164,272.84951329999603,r,1.0,1.0911400000331923,,,,,,sub-236,2,stroop_test,60.028549571943216,
,,,,37.0,1.0,3.0,,,,,,,,,,,,,gelb,red,r,0.0,r,1.0,0.6734131999546662,,,,,,,,,,3.0,1.0,37.0,8.0,272.86358310002834,,,,,,,,,,,,,,,,,272.8504562000744,273.66342300002,274.46847770002205,274.4483993999893,,,,,,,,,,,,,,,,,,,,,,,,,,,,,,,,,,,274.45907039998565,274.46847770002205,274.46847770002205,275.149430999998,r,1.0,0.6734131999546662,,,,,,sub-236,2,stroop_test,60.028549571943216,
,,,,38.0,2.0,3.0,,,,,,,,,,,,,gelb,yellow,g,1.0,g,1.0,0.7561676999321207,,,,,,,,,,3.0,2.0,38.0,11.0,275.16327150003053,,,,,,,,,,,,,,,,,275.15035350003745,275.51309690007474,276.3130852000322,276.29793570004404,,,,,,,,,,,,,,,,,,,,,,,,,,,,,,,,,,,276.29921119997744,276.3130852000322,276.3130852000322,277.0825093999738,g,1.0,0.7561676999321207,,,,,,sub-236,2,stroop_test,60.028549571943216,
,,,,39.0,3.0,3.0,,,,,,,,,,,,,rot,red,r,1.0,r,1.0,0.5744224999798462,,,,,,,,,,3.0,3.0,39.0,1.0,277.0963230000343,,,,,,,,,,,,,,,,,277.0834186000284,278.2962241000496,279.0980648000259,279.08120560005773,,,,,,,,,,,,,,,,,,,,,,,,,,,,,,,,,,,279.08918980008457,279.0980648000259,279.0980648000259,279.6820618000347,r,1.0,0.5744224999798462,,,,,,sub-236,2,stroop_test,60.028549571943216,
,,,,40.0,4.0,3.0,,,,,,,,,,,,,rot,blue,b,0.0,b,1.0,0.587344600004144,,,,,,,,,,3.0,4.0,40.0,2.0,279.69605160003994,,,,,,,,,,,,,,,,,279.6829609000124,280.8959250000771,281.69569920003414,281.6808236000361,,,,,,,,,,,,,,,,,,,,,,,,,,,,,,,,,,,281.6821421000641,281.69569920003414,281.69569920003414,282.29844120005146,b,1.0,0.587344600004144,,,,,,sub-236,2,stroop_test,60.028549571943216,
,,,,41.0,5.0,3.0,,,,,,,,,,,,,blau,blue,b,1.0,b,1.0,0.7948871999979019,,,,,,,,,,3.0,5.0,41.0,6.0,282.3123360000318,,,,,,,,,,,,,,,,,282.2993740000529,283.1122841000324,283.9147680000169,283.8971710000187,,,,,,,,,,,,,,,,,,,,,,,,,,,,,,,,,,,283.9057262999704,283.9147680000169,283.9147680000169,284.7150309000863,b,1.0,0.7948871999979019,,,,,,sub-236,2,stroop_test,60.028549571943216,
,,,,42.0,6.0,3.0,,,,,,,,,,,,,rot,yellow,g,0.0,g,1.0,0.9738725000061096,,,,,,,,,,3.0,6.0,42.0,3.0,284.7286160000367,,,,,,,,,,,,,,,,,284.7159896000521,284.8286759000039,285.631127599976,285.6135183000006,,,,,,,,,,,,,,,,,,,,,,,,,,,,,,,,,,,285.6216249000281,285.631127599976,285.631127599976,286.6145126000047,g,1.0,0.9738725000061096,,,,,,sub-236,2,stroop_test,60.028549571943216,
,,,,43.0,7.0,3.0,,,,,,,,,,,,,blau,red,r,0.0,r,1.0,0.6658735000528395,,,,,,,,,,3.0,7.0,43.0,4.0,286.6284734000219,,,,,,,,,,,,,,,,,286.61540680006146,287.42830809997395,288.23030920000747,288.2132200000342,,,,,,,,,,,,,,,,,,,,,,,,,,,,,,,,,,,288.2211641999893,288.23030920000747,288.23030920000747,288.91400079999585,r,1.0,0.6658735000528395,,,,,,sub-236,2,stroop_test,60.028549571943216,
,,,,44.0,8.0,3.0,,,,,,,,,,,,,blau,yellow,g,0.0,g,1.0,1.2092197999591008,,,,,,,,,,3.0,8.0,44.0,7.0,288.9281581999967,,,,,,,,,,,,,,,,,288.9149083000375,289.727953900001,290.52786779997405,290.5127249000361,,,,,,,,,,,,,,,,,,,,,,,,,,,,,,,,,,,290.51398759998847,290.52786779997405,290.52786779997405,291.7471452000318,g,1.0,1.2092197999591008,,,,,,sub-236,2,stroop_test,60.028549571943216,
,,,,45.0,9.0,3.0,,,,,,,,,,,,,gelb,yellow,g,1.0,g,1.0,0.5390409000683576,,,,,,,,,,3.0,9.0,45.0,10.0,291.76099320000503,,,,,,,,,,,,,,,,,291.7480982000707,291.8609229000285,292.6670435999986,292.6461102999747,,,,,,,,,,,,,,,,,,,,,,,,,,,,,,,,,,,292.6564803000074,292.6670435999986,292.6670435999986,293.21370419999585,g,1.0,0.5390409000683576,,,,,,sub-236,2,stroop_test,60.028549571943216,
,,,,46.0,10.0,3.0,,,,,,,,,,,,,blau,blue,b,1.0,r,0.0,0.6633292000042275,,,,,,,,,,3.0,10.0,46.0,5.0,293.22759550006595,,,,,,,,,,,,,,,,,293.2146830999991,293.57752460008487,294.3791182000423,294.3622213000199,,,,,,,,,,,,,,,,,,,,,,,,,,,,,,,,,,,294.3701496999711,294.3791182000423,294.3791182000423,295.0472351000644,r,0.0,0.6633292000042275,,,,,,sub-236,2,stroop_test,60.028549571943216,
,,,,47.0,11.0,3.0,,,,,,,,,,,,,gelb,blue,b,0.0,b,1.0,0.8921235000016168,,,,,,,,,,3.0,11.0,47.0,9.0,295.06061839999165,,,,,,,,,,,,,,,,,295.0481408999767,295.86077510006726,296.66586469998583,296.6456337000709,,,,,,,,,,,,,,,,,,,,,,,,,,,,,,,,,,,296.65624580008443,296.66586469998583,296.66586469998583,297.5631534999702,b,1.0,0.8921235000016168,,,,,,sub-236,2,stroop_test,60.028549571943216,
,,,,48.0,0.0,4.0,,,,,,,,,,,,,blau,yellow,g,0.0,g,1.0,1.0493190000997856,,,,,,,,,,4.0,0.0,48.0,7.0,297.57691070006695,,,,,,,,,,,,,,,,,297.564110300038,298.7769748000428,299.57856469997205,299.5617094000336,,,,,,,,,,,,,,,,,,,,,,,,,,,,,,,,,,,299.5694527999731,299.57856469997205,299.57856469997205,300.6457972000353,g,1.0,1.0493190000997856,,,,,,sub-236,2,stroop_test,60.028549571943216,
,,,,49.0,1.0,4.0,,,,,,,,,,,,,rot,yellow,g,0.0,g,1.0,1.2117591000860557,,,,,,,,,,4.0,1.0,49.0,3.0,300.659974600072,,,,,,,,,,,,,,,,,300.6467696999898,301.8598303999752,302.6617217999883,302.6444806000218,,,,,,,,,,,,,,,,,,,,,,,,,,,,,,,,,,,302.6525973000098,302.6617217999883,302.6617217999883,303.8795919000404,g,1.0,1.2117591000860557,,,,,,sub-236,2,stroop_test,60.028549571943216,
,,,,50.0,2.0,4.0,,,,,,,,,,,,,gelb,red,r,0.0,r,1.0,0.3992104000644758,,,,,,,,,,4.0,2.0,50.0,8.0,303.8928756000241,,,,,,,,,,,,,,,,,303.8804999999702,304.6929200000596,305.49861730006523,305.477905799984,,,,,,,,,,,,,,,,,,,,,,,,,,,,,,,,,,,305.48840759997256,305.49861730006523,305.49861730006523,305.9120736999903,r,1.0,0.3992104000644758,,,,,,sub-236,2,stroop_test,60.028549571943216,
,,,,51.0,3.0,4.0,,,,,,,,,,,,,blau,red,r,0.0,r,1.0,0.4992251000367105,,,,,,,,,,4.0,3.0,51.0,4.0,305.9258977000136,,,,,,,,,,,,,,,,,305.9129947000183,306.7258979000617,307.5283857000759,307.51054120005574,,,,,,,,,,,,,,,,,,,,,,,,,,,,,,,,,,,307.51883389998693,307.5283857000759,307.5283857000759,308.04505369998515,r,1.0,0.4992251000367105,,,,,,sub-236,2,stroop_test,60.028549571943216,
,,,,52.0,4.0,4.0,,,,,,,,,,,,,rot,red,r,1.0,r,1.0,0.6828119000419974,,,,,,,,,,4.0,4.0,52.0,1.0,308.05893050006125,,,,,,,,,,,,,,,,,308.0459969000658,308.1591604000423,308.96232649998274,308.9441460000817,,,,,,,,,,,,,,,,,,,,,,,,,,,,,,,,,,,308.95314510003664,308.96232649998274,308.96232649998274,309.6614453999792,r,1.0,0.6828119000419974,,,,,,sub-236,2,stroop_test,60.028549571943216,
,,,,53.0,5.0,4.0,,,,,,,,,,,,,blau,blue,b,1.0,b,1.0,1.343074900098145,,,,,,,,,,4.0,5.0,53.0,6.0,309.6753567000851,,,,,,,,,,,,,,,,,309.6624099999899,310.8753108000383,311.6770664000651,311.66003809997346,,,,,,,,,,,,,,,,,,,,,,,,,,,,,,,,,,,311.6680659999838,311.6770664000651,311.6770664000651,313.0280534999911,b,1.0,1.343074900098145,,,,,,sub-236,2,stroop_test,60.028549571943216,
,,,,54.0,6.0,4.0,,,,,,,,,,,,,gelb,blue,b,0.0,b,1.0,0.7002858000341803,,,,,,,,,,4.0,6.0,54.0,9.0,313.04171949997544,,,,,,,,,,,,,,,,,313.0290134000825,313.1416859000456,313.9455779000418,313.92635710001923,,,,,,,,,,,,,,,,,,,,,,,,,,,,,,,,,,,313.9355337000452,313.9455779000418,313.9455779000418,314.6609616000205,b,1.0,0.7002858000341803,,,,,,sub-236,2,stroop_test,60.028549571943216,
,,,,55.0,7.0,4.0,,,,,,,,,,,,,gelb,yellow,g,1.0,g,1.0,0.730638200067915,,,,,,,,,,4.0,7.0,55.0,11.0,314.6747448000824,,,,,,,,,,,,,,,,,314.6618796000257,315.8747186000692,316.67464270000346,316.6598155000247,,,,,,,,,,,,,,,,,,,,,,,,,,,,,,,,,,,316.6613298000302,316.67464270000346,316.67464270000346,317.4109288000036,g,1.0,0.730638200067915,,,,,,sub-236,2,stroop_test,60.028549571943216,
,,,,56.0,8.0,4.0,,,,,,,,,,,,,blau,blue,b,1.0,b,1.0,0.5625815000385046,,,,,,,,,,4.0,8.0,56.0,5.0,317.4243322000839,,,,,,,,,,,,,,,,,317.4118285999866,317.52452610002365,318.32676580001134,318.3096947000595,,,,,,,,,,,,,,,,,,,,,,,,,,,,,,,,,,,318.31792070006486,318.32676580001134,318.32676580001134,318.89373710006475,b,1.0,0.5625815000385046,,,,,,sub-236,2,stroop_test,60.028549571943216,
,,,,57.0,9.0,4.0,,,,,,,,,,,,,rot,blue,b,0.0,b,1.0,1.144221399910748,,,,,,,,,,4.0,9.0,57.0,2.0,318.9075434000697,,,,,,,,,,,,,,,,,318.8946595999878,320.1074474999914,320.9094380000606,320.8925200999947,,,,,,,,,,,,,,,,,,,,,,,,,,,,,,,,,,,320.9001494999975,320.9094380000606,320.9094380000606,322.0602268000366,b,1.0,1.144221399910748,,,,,,sub-236,2,stroop_test,60.028549571943216,
,,,,58.0,10.0,4.0,,,,,,,,,,,,,rot,red,r,1.0,r,1.0,0.7075576001079753,,,,,,,,,,4.0,10.0,58.0,0.0,322.0739036999876,,,,,,,,,,,,,,,,,322.06113799999,322.1737898000283,322.9737838000292,322.9585459000664,,,,,,,,,,,,,,,,,,,,,,,,,,,,,,,,,,,322.9604195000138,322.9737838000292,322.9737838000292,323.6935156000545,r,1.0,0.7075576001079753,,,,,,sub-236,2,stroop_test,60.028549571943216,
,,,,59.0,11.0,4.0,,,,,,,,,,,,,gelb,yellow,g,1.0,g,1.0,1.2994811000535265,,,,,,,,,,4.0,11.0,59.0,10.0,323.706963500008,,,,,,,,,,,,,,,,,323.6944515000796,323.80686770007014,324.61143120005727,324.59155900008045,,,,,,,,,,,,,,,,,,,,,,,,,,,,,,,,,,,324.60082400008105,324.61143120005727,324.61143120005727,325.92612189997453,g,1.0,1.2994811000535265,,,,,,sub-236,2,stroop_test,60.028549571943216,
,,,,60.0,0.0,5.0,,,,,,,,,,,,,blau,blue,b,1.0,b,1.0,0.6554415000136942,,,,,,,,,,5.0,0.0,60.0,5.0,325.93993870005943,,,,,,,,,,,,,,,,,325.92710610001814,326.28998790006153,327.0929978999775,327.07497279997915,,,,,,,,,,,,,,,,,,,,,,,,,,,,,,,,,,,327.08377290004864,327.0929978999775,327.0929978999775,327.7594544000458,b,1.0,0.6554415000136942,,,,,,sub-236,2,stroop_test,60.028549571943216,
,,,,61.0,1.0,5.0,,,,,,,,,,,,,blau,blue,b,1.0,b,1.0,0.5937713000457734,,,,,,,,,,5.0,1.0,61.0,6.0,327.7730262000114,,,,,,,,,,,,,,,,,327.7603980000131,328.97312960005365,329.77293179999106,329.75802740000654,,,,,,,,,,,,,,,,,,,,,,,,,,,,,,,,,,,329.759537099977,329.77293179999106,329.77293179999106,330.37563250004314,b,1.0,0.5937713000457734,,,,,,sub-236,2,stroop_test,60.028549571943216,
,,,,62.0,2.0,5.0,,,,,,,,,,,,,gelb,blue,b,0.0,b,1.0,0.6698784999316558,,,,,,,,,,5.0,2.0,62.0,9.0,330.3893241999904,,,,,,,,,,,,,,,,,330.37655330006965,330.4894488999853,331.29423480003607,331.2742752999766,,,,,,,,,,,,,,,,,,,,,,,,,,,,,,,,,,,331.28384950000327,331.29423480003607,331.29423480003607,331.9753470000578,b,1.0,0.6698784999316558,,,,,,sub-236,2,stroop_test,60.028549571943216,
,,,,63.0,3.0,5.0,,,,,,,,,,,,,rot,red,r,1.0,r,1.0,0.6238196999765933,,,,,,,,,,5.0,3.0,63.0,1.0,331.9892166000791,,,,,,,,,,,,,,,,,331.976296100067,332.0891311999876,332.891318500042,332.87408370000776,,,,,,,,,,,,,,,,,,,,,,,,,,,,,,,,,,,332.8818768999772,332.891318500042,332.891318500042,333.52507490001153,r,1.0,0.6238196999765933,,,,,,sub-236,2,stroop_test,60.028549571943216,
,,,,64.0,4.0,5.0,,,,,,,,,,,,,blau,yellow,g,0.0,g,1.0,1.107413599966094,,,,,,,,,,5.0,4.0,64.0,7.0,333.5390753999818,,,,,,,,,,,,,,,,,333.5260300000664,334.7388939000666,335.541029300075,335.52369920001365,,,,,,,,,,,,,,,,,,,,,,,,,,,,,,,,,,,335.5318220000481,335.541029300075,335.541029300075,336.6580990999937,g,1.0,1.107413599966094,,,,,,sub-236,2,stroop_test,60.028549571943216,
,,,,65.0,5.0,5.0,,,,,,,,,,,,,rot,blue,b,0.0,b,1.0,1.3115204001078382,,,,,,,,,,5.0,5.0,65.0,2.0,336.6719718000386,,,,,,,,,,,,,,,,,336.65902340004686,337.021942100022,337.82663330005016,337.80679860000964,,,,,,,,,,,,,,,,,,,,,,,,,,,,,,,,,,,337.81713630002923,337.82663330005016,337.82663330005016,339.1415116999997,b,1.0,1.3115204001078382,,,,,,sub-236,2,stroop_test,60.028549571943216,
,,,,66.0,6.0,5.0,,,,,,,,,,,,,gelb,red,r,0.0,r,1.0,1.3020324999233708,,,,,,,,,,5.0,6.0,66.0,8.0,339.1550177000463,,,,,,,,,,,,,,,,,339.14242769998964,339.5048582999734,340.31009220005944,340.2897872000467,,,,,,,,,,,,,,,,,,,,,,,,,,,,,,,,,,,340.29903420002665,340.31009220005944,340.31009220005944,341.6240906000603,r,1.0,1.3020324999233708,,,,,,sub-236,2,stroop_test,60.028549571943216,
,,,,67.0,7.0,5.0,,,,,,,,,,,,,blau,red,r,0.0,r,1.0,0.505699000088498,,,,,,,,,,5.0,7.0,67.0,4.0,341.6378547999775,,,,,,,,,,,,,,,,,341.6250394000672,341.98786039999686,342.7898227000842,342.77274170005694,,,,,,,,,,,,,,,,,,,,,,,,,,,,,,,,,,,342.7807152000023,342.7898227000842,342.7898227000842,343.3071761999745,r,1.0,0.505699000088498,,,,,,sub-236,2,stroop_test,60.028549571943216,
,,,,68.0,8.0,5.0,,,,,,,,,,,,,gelb,yellow,g,1.0,g,1.0,0.8323201999301091,,,,,,,,,,5.0,8.0,68.0,10.0,343.3211157000624,,,,,,,,,,,,,,,,,343.30810210003983,344.1210927000502,344.9254697000142,344.9060614000773,,,,,,,,,,,,,,,,,,,,,,,,,,,,,,,,,,,344.9153557000682,344.9254697000142,344.9254697000142,345.77355899999384,g,1.0,0.8323201999301091,,,,,,sub-236,2,stroop_test,60.028549571943216,
,,,,69.0,9.0,5.0,,,,,,,,,,,,,rot,yellow,g,0.0,g,1.0,0.966082200058736,,,,,,,,,,5.0,9.0,69.0,3.0,345.78745389997493,,,,,,,,,,,,,,,,,345.77448370005004,346.1374346000375,346.9399048000341,346.9222499000607,,,,,,,,,,,,,,,,,,,,,,,,,,,,,,,,,,,346.9299434000859,346.9399048000341,346.9399048000341,347.9232850000262,g,1.0,0.966082200058736,,,,,,sub-236,2,stroop_test,60.028549571943216,
,,,,70.0,10.0,5.0,,,,,,,,,,,,,rot,red,r,1.0,r,1.0,0.973466599942185,,,,,,,,,,5.0,10.0,70.0,0.0,347.9371375000337,,,,,,,,,,,,,,,,,347.924230500008,348.03715500002727,348.8371293999953,348.82187119999435,,,,,,,,,,,,,,,,,,,,,,,,,,,,,,,,,,,348.823147200048,348.8371293999953,348.8371293999953,349.82289910002146,r,1.0,0.973466599942185,,,,,,sub-236,2,stroop_test,60.028549571943216,
,,,,71.0,11.0,5.0,,,,,,,,,,,,,gelb,yellow,g,1.0,g,1.0,0.7437781998887658,,,,,,,,,,5.0,11.0,71.0,11.0,349.8370790000772,,,,,,,,,,,,,,,,,349.8238270999864,351.03677420003805,351.8411922000814,351.8216281000059,,,,,,,,,,,,,,,,,,,,,,,,,,,,,,,,,,,351.8317692000419,351.8411922000814,351.8411922000814,352.58945500000846,g,1.0,0.7437781998887658,,,,,,sub-236,2,stroop_test,60.028549571943216,
,,,,72.0,0.0,6.0,,,,,,,,,,,,,blau,red,r,0.0,r,1.0,0.8612357000820339,,,,,,,,,,6.0,0.0,72.0,4.0,352.6032228000695,,,,,,,,,,,,,,,,,352.590372000006,353.40319069998804,354.2059341999702,354.18847370008007,,,,,,,,,,,,,,,,,,,,,,,,,,,,,,,,,,,354.1970937000588,354.2059341999702,354.2059341999702,355.0724563000258,r,1.0,0.8612357000820339,,,,,,sub-236,2,stroop_test,60.028549571943216,
,,,,73.0,1.0,6.0,,,,,,,,,,,,,gelb,yellow,g,1.0,g,1.0,1.3798345000250265,,,,,,,,,,6.0,1.0,73.0,10.0,355.0860780000221,,,,,,,,,,,,,,,,,355.07338140008505,355.8861045000376,356.69063510000706,356.67088079999667,,,,,,,,,,,,,,,,,,,,,,,,,,,,,,,,,,,356.68116929999087,356.69063510000706,356.69063510000706,358.0884700000752,g,1.0,1.3798345000250265,,,,,,sub-236,2,stroop_test,60.028549571943216,
,,,,74.0,2.0,6.0,,,,,,,,,,,,,blau,yellow,g,0.0,g,1.0,1.0110256999032572,,,,,,,,,,6.0,2.0,74.0,7.0,358.10242650005966,,,,,,,,,,,,,,,,,358.08935390005354,358.9023494999856,359.7051850000862,359.6876005000668,,,,,,,,,,,,,,,,,,,,,,,,,,,,,,,,,,,359.695912300027,359.7051850000862,359.7051850000862,360.7219299999997,g,1.0,1.0110256999032572,,,,,,sub-236,2,stroop_test,60.028549571943216,
,,,,75.0,3.0,6.0,,,,,,,,,,,,,gelb,yellow,g,1.0,g,1.0,0.5617973000044003,,,,,,,,,,6.0,3.0,75.0,11.0,360.7355406000279,,,,,,,,,,,,,,,,,360.7228345000185,361.0853526000865,361.889611300081,361.8701122000348,,,,,,,,,,,,,,,,,,,,,,,,,,,,,,,,,,,361.8793138000183,361.889611300081,361.889611300081,362.4548438000493,g,1.0,0.5617973000044003,,,,,,sub-236,2,stroop_test,60.028549571943216,
,,,,76.0,4.0,6.0,,,,,,,,,,,,,rot,yellow,g,0.0,g,1.0,0.9129086999455468,,,,,,,,,,6.0,4.0,76.0,3.0,362.4685231000185,,,,,,,,,,,,,,,,,362.4557332000695,362.81847850000486,363.6208896000171,363.60328699997626,,,,,,,,,,,,,,,,,,,,,,,,,,,,,,,,,,,363.61158050003,363.6208896000171,363.6208896000171,364.5379362000385,g,1.0,0.9129086999455468,,,,,,sub-236,2,stroop_test,60.028549571943216,
,,,,77.0,5.0,6.0,,,,,,,,,,,,,gelb,red,r,0.0,r,1.0,0.4987307999981567,,,,,,,,,,6.0,5.0,77.0,8.0,364.5517264000373,,,,,,,,,,,,,,,,,364.5388807000127,364.6515995999798,365.4550455000717,365.4363928000676,,,,,,,,,,,,,,,,,,,,,,,,,,,,,,,,,,,365.4456176999957,365.4550455000717,365.4550455000717,365.9708665000508,r,1.0,0.4987307999981567,,,,,,sub-236,2,stroop_test,60.028549571943216,
,,,,78.0,6.0,6.0,,,,,,,,,,,,,blau,blue,b,1.0,b,1.0,0.4675738000078127,,,,,,,,,,6.0,6.0,78.0,5.0,365.9848798000021,,,,,,,,,,,,,,,,,365.9718343000859,366.7847496999893,367.5868327000644,367.5696533999872,,,,,,,,,,,,,,,,,,,,,,,,,,,,,,,,,,,367.5781391999917,367.5868327000644,367.5868327000644,368.07056440005545,b,1.0,0.4675738000078127,,,,,,sub-236,2,stroop_test,60.028549571943216,
,,,,79.0,7.0,6.0,,,,,,,,,,,,,gelb,blue,b,0.0,b,1.0,0.5731742000207305,,,,,,,,,,6.0,7.0,79.0,9.0,368.0844637000701,,,,,,,,,,,,,,,,,368.0715131000616,368.1846975000808,368.99057939997874,368.9695642000297,,,,,,,,,,,,,,,,,,,,,,,,,,,,,,,,,,,368.9797675000737,368.99057939997874,368.99057939997874,369.5705647000577,b,1.0,0.5731742000207305,,,,,,sub-236,2,stroop_test,60.028549571943216,
,,,,80.0,8.0,6.0,,,,,,,,,,,,,rot,red,r,1.0,r,1.0,0.62340799998492,,,,,,,,,,6.0,8.0,80.0,1.0,369.58428000006825,,,,,,,,,,,,,,,,,369.5714815000538,370.38437270000577,371.1880829000147,371.169181699981,,,,,,,,,,,,,,,,,,,,,,,,,,,,,,,,,,,371.1787837999873,371.1880829000147,371.1880829000147,371.8200322000776,r,1.0,0.62340799998492,,,,,,sub-236,2,stroop_test,60.028549571943216,
,,,,81.0,9.0,6.0,,,,,,,,,,,,,rot,blue,b,0.0,b,1.0,1.34773519996088,,,,,,,,,,6.0,9.0,81.0,2.0,371.83411459997296,,,,,,,,,,,,,,,,,371.8209853000008,371.93403210002,372.733912799973,372.71867169998586,,,,,,,,,,,,,,,,,,,,,,,,,,,,,,,,,,,372.7199419999961,372.733912799973,372.733912799973,374.0865410000552,b,1.0,1.34773519996088,,,,,,sub-236,2,stroop_test,60.028549571943216,
,,,,82.0,10.0,6.0,,,,,,,,,,,,,blau,blue,b,1.0,b,1.0,0.5517884000437334,,,,,,,,,,6.0,10.0,82.0,6.0,374.1004579999717,,,,,,,,,,,,,,,,,374.08743950002827,374.9003139000852,375.7028256000485,375.6855629000347,,,,,,,,,,,,,,,,,,,,,,,,,,,,,,,,,,,375.6938377000624,375.7028256000485,375.7028256000485,376.2695648000808,b,1.0,0.5517884000437334,,,,,,sub-236,2,stroop_test,60.028549571943216,
,,,,83.0,11.0,6.0,,,,,,,,,,,,,rot,red,r,1.0,r,1.0,1.0620549999875948,,,,,,,,,,6.0,11.0,83.0,0.0,376.2835169000318,,,,,,,,,,,,,,,,,376.2705560000613,377.0832664000336,377.8857793000061,377.8683639999945,,,,,,,,,,,,,,,,,,,,,,,,,,,,,,,,,,,377.8769852999831,377.8857793000061,377.8857793000061,378.9525228000712,r,1.0,1.0620549999875948,,,,,,sub-236,2,stroop_test,60.028549571943216,
,,,,84.0,0.0,7.0,,,,,,,,,,,,,rot,red,r,1.0,r,1.0,0.5482497999910265,,,,,,,,,,7.0,0.0,84.0,1.0,378.9663680000231,,,,,,,,,,,,,,,,,378.9535199999809,380.1663620000472,380.96626870008186,380.9514082000824,,,,,,,,,,,,,,,,,,,,,,,,,,,,,,,,,,,380.9528961000033,380.96626870008186,380.96626870008186,381.518909299979,r,1.0,0.5482497999910265,,,,,,sub-236,2,stroop_test,60.028549571943216,
,,,,85.0,1.0,7.0,,,,,,,,,,,,,gelb,yellow,g,1.0,g,1.0,0.8099794000154361,,,,,,,,,,7.0,1.0,85.0,11.0,381.5327276000753,,,,,,,,,,,,,,,,,381.51984620001167,382.7327514999779,383.53842250001617,383.5177109000506,,,,,,,,,,,,,,,,,,,,,,,,,,,,,,,,,,,383.5284690000117,383.53842250001617,383.53842250001617,384.35224470007233,g,1.0,0.8099794000154361,,,,,,sub-236,2,stroop_test,60.028549571943216,
,,,,86.0,2.0,7.0,,,,,,,,,,,,,blau,red,r,0.0,r,1.0,0.9494683999801056,,,,,,,,,,7.0,2.0,86.0,4.0,384.36564640002325,,,,,,,,,,,,,,,,,384.3531601000577,384.71557010000106,385.5200226000743,385.5007769999793,,,,,,,,,,,,,,,,,,,,,,,,,,,,,,,,,,,385.5107789000031,385.5200226000743,385.5200226000743,386.4848692000378,r,1.0,0.9494683999801056,,,,,,sub-236,2,stroop_test,60.028549571943216,
,,,,87.0,3.0,7.0,,,,,,,,,,,,,rot,red,r,1.0,r,1.0,0.5441569000249729,,,,,,,,,,7.0,3.0,87.0,0.0,386.49870290001854,,,,,,,,,,,,,,,,,386.4858740000054,386.5989680000348,387.4003797000041,387.3836630000733,,,,,,,,,,,,,,,,,,,,,,,,,,,,,,,,,,,387.3912379000103,387.4003797000041,387.4003797000041,387.9512616000138,r,1.0,0.5441569000249729,,,,,,sub-236,2,stroop_test,60.028549571943216,
,,,,88.0,4.0,7.0,,,,,,,,,,,,,rot,yellow,g,0.0,g,1.0,0.7275925000431016,,,,,,,,,,7.0,4.0,88.0,3.0,387.965142400004,,,,,,,,,,,,,,,,,387.95218800008297,388.3153445000062,389.1152023000177,389.1002181000076,,,,,,,,,,,,,,,,,,,,,,,,,,,,,,,,,,,389.1017560000764,389.1152023000177,389.1152023000177,389.85127079999074,g,1.0,0.7275925000431016,,,,,,sub-236,2,stroop_test,60.028549571943216,
,,,,89.0,5.0,7.0,,,,,,,,,,,,,gelb,blue,b,0.0,b,1.0,0.397815000033006,,,,,,,,,,7.0,5.0,89.0,9.0,389.86515530000906,,,,,,,,,,,,,,,,,389.8521869999822,389.9650412000483,390.7703275000677,390.75008760008495,,,,,,,,,,,,,,,,,,,,,,,,,,,,,,,,,,,390.7599912000587,390.7703275000677,390.7703275000677,391.1848864000058,b,1.0,0.397815000033006,,,,,,sub-236,2,stroop_test,60.028549571943216,
,,,,90.0,6.0,7.0,,,,,,,,,,,,,gelb,yellow,g,1.0,g,1.0,0.5862059999490157,,,,,,,,,,7.0,6.0,90.0,10.0,391.1983936000616,,,,,,,,,,,,,,,,,391.1859697999898,392.39791040006094,393.197899300023,393.1830527000129,,,,,,,,,,,,,,,,,,,,,,,,,,,,,,,,,,,393.1846074999776,393.197899300023,393.197899300023,393.8019477999769,g,1.0,0.5862059999490157,,,,,,sub-236,2,stroop_test,60.028549571943216,
,,,,91.0,7.0,7.0,,,,,,,,,,,,,blau,blue,b,1.0,b,1.0,0.5445815999992192,,,,,,,,,,7.0,7.0,91.0,5.0,393.8144573000027,,,,,,,,,,,,,,,,,393.8028534000041,394.6145637000445,395.4169503999874,395.3996549000731,,,,,,,,,,,,,,,,,,,,,,,,,,,,,,,,,,,395.4076885000104,395.4169503999874,395.4169503999874,395.967731700046,b,1.0,0.5445815999992192,,,,,,sub-236,2,stroop_test,60.028549571943216,
,,,,92.0,8.0,7.0,,,,,,,,,,,,,blau,blue,b,1.0,b,1.0,0.6678939999546856,,,,,,,,,,7.0,8.0,92.0,6.0,395.9806161000161,,,,,,,,,,,,,,,,,395.9689013999887,396.0809549000114,396.8808302000398,396.8656095999759,,,,,,,,,,,,,,,,,,,,,,,,,,,,,,,,,,,396.8668584000552,396.8808302000398,396.8808302000398,397.5664650000399,b,1.0,0.6678939999546856,,,,,,sub-236,2,stroop_test,60.028549571943216,
,,,,93.0,9.0,7.0,,,,,,,,,,,,,rot,blue,b,0.0,b,1.0,0.4451911000069231,,,,,,,,,,7.0,9.0,93.0,2.0,397.5806043000193,,,,,,,,,,,,,,,,,397.5674496999709,397.930625100038,398.7321366000688,398.7153732000152,,,,,,,,,,,,,,,,,,,,,,,,,,,,,,,,,,,398.7231098000193,398.7321366000688,398.7321366000688,399.1832981000189,b,1.0,0.4451911000069231,,,,,,sub-236,2,stroop_test,60.028549571943216,
,,,,94.0,10.0,7.0,,,,,,,,,,,,,gelb,red,r,0.0,r,1.0,0.6817391000222415,,,,,,,,,,7.0,10.0,94.0,8.0,399.1972882000264,,,,,,,,,,,,,,,,,399.1842318000272,399.5472611000296,400.3520579000469,400.3320595000405,,,,,,,,,,,,,,,,,,,,,,,,,,,,,,,,,,,400.34163350006565,400.3520579000469,400.3520579000469,401.0496287000133,r,1.0,0.6817391000222415,,,,,,sub-236,2,stroop_test,60.028549571943216,
,,,,95.0,11.0,7.0,,,,,,,,,,,,,blau,yellow,g,0.0,g,1.0,0.5818964000791311,,,,,,,,,,7.0,11.0,95.0,7.0,401.06355309998617,,,,,,,,,,,,,,,,,401.050597100053,402.2635251000757,403.0664561999729,403.0487177000614,,,,,,,,,,,,,,,,,,,,,,,,,,,,,,,,,,,403.0571800000034,403.0664561999729,403.0664561999729,403.6660031999927,g,1.0,0.5818964000791311,,,,,,sub-236,2,stroop_test,60.028549571943216,
,,,,96.0,0.0,8.0,,,,,,,,,,,,,rot,yellow,g,0.0,g,1.0,1.256810300052166,,,,,,,,,,8.0,0.0,96.0,3.0,403.6798140000319,,,,,,,,,,,,,,,,,403.66697850008495,404.02975700004026,404.8337838000152,404.8148159000557,,,,,,,,,,,,,,,,,,,,,,,,,,,,,,,,,,,404.8229846999748,404.8337838000152,404.8337838000152,406.099121700041,g,1.0,1.256810300052166,,,,,,sub-236,2,stroop_test,60.028549571943216,
,,,,97.0,1.0,8.0,,,,,,,,,,,,,rot,red,r,1.0,r,1.0,0.6079650999745354,,,,,,,,,,8.0,1.0,97.0,1.0,406.11299699998926,,,,,,,,,,,,,,,,,406.1000497000059,407.31296590005513,408.1126394000603,408.09814200003166,,,,,,,,,,,,,,,,,,,,,,,,,,,,,,,,,,,408.0997069000732,408.1126394000603,408.1126394000603,408.7320618000813,r,1.0,0.6079650999745354,,,,,,sub-236,2,stroop_test,60.028549571943216,
,,,,98.0,2.0,8.0,,,,,,,,,,,,,blau,red,r,0.0,r,1.0,0.9823907000245526,,,,,,,,,,8.0,2.0,98.0,4.0,408.7458723000018,,,,,,,,,,,,,,,,,408.7330124999862,409.0959496999858,409.89925240003504,409.8809589999728,,,,,,,,,,,,,,,,,,,,,,,,,,,,,,,,,,,409.8899789999705,409.89925240003504,409.89925240003504,410.8984593000496,r,1.0,0.9823907000245526,,,,,,sub-236,2,stroop_test,60.028549571943216,
,,,,99.0,3.0,8.0,,,,,,,,,,,,,rot,red,r,1.0,r,1.0,0.7492955999914557,,,,,,,,,,8.0,3.0,99.0,0.0,410.9122522000689,,,,,,,,,,,,,,,,,410.8993784000632,411.7123594000004,412.5149471000768,412.4968536000233,,,,,,,,,,,,,,,,,,,,,,,,,,,,,,,,,,,412.5049770000624,412.5149471000768,412.5149471000768,413.2814107000595,r,1.0,0.7492955999914557,,,,,,sub-236,2,stroop_test,60.028549571943216,
,,,,100.0,4.0,8.0,,,,,,,,,,,,,gelb,yellow,g,1.0,g,1.0,0.6540563999442384,,,,,,,,,,8.0,4.0,100.0,11.0,413.2952023000689,,,,,,,,,,,,,,,,,413.28232200001366,414.09531020000577,414.9017000000458,414.8801490999758,,,,,,,,,,,,,,,,,,,,,,,,,,,,,,,,,,,414.8911352000432,414.9017000000458,414.9017000000458,415.5645087000448,g,1.0,0.6540563999442384,,,,,,sub-236,2,stroop_test,60.028549571943216,
,,,,101.0,5.0,8.0,,,,,,,,,,,,,blau,yellow,g,0.0,g,1.0,1.1609843999613076,,,,,,,,,,8.0,5.0,101.0,7.0,415.57836909999605,,,,,,,,,,,,,,,,,415.5654509000015,416.77829060005024,417.5809681999963,417.5633152000373,,,,,,,,,,,,,,,,,,,,,,,,,,,,,,,,,,,417.5722084000008,417.5809681999963,417.5809681999963,418.74753629998304,g,1.0,1.1609843999613076,,,,,,sub-236,2,stroop_test,60.028549571943216,
,,,,102.0,6.0,8.0,,,,,,,,,,,,,blau,blue,b,1.0,b,1.0,0.605115000042133,,,,,,,,,,8.0,6.0,102.0,5.0,418.7614394000266,,,,,,,,,,,,,,,,,418.74841410003137,419.9611889000517,420.761168200057,420.7461985000409,,,,,,,,,,,,,,,,,,,,,,,,,,,,,,,,,,,420.7476737999823,420.761168200057,420.761168200057,421.3803373000119,b,1.0,0.605115000042133,,,,,,sub-236,2,stroop_test,60.028549571943216,
,,,,103.0,7.0,8.0,,,,,,,,,,,,,gelb,blue,b,0.0,b,1.0,0.5754231000319123,,,,,,,,,,8.0,7.0,103.0,9.0,421.3942433000775,,,,,,,,,,,,,,,,,421.3812866000226,421.7443000000203,422.548370399978,422.529398499988,,,,,,,,,,,,,,,,,,,,,,,,,,,,,,,,,,,422.5388949000044,422.548370399978,422.548370399978,423.1303032999858,b,1.0,0.5754231000319123,,,,,,sub-236,2,stroop_test,60.028549571943216,
,,,,104.0,8.0,8.0,,,,,,,,,,,,,gelb,yellow,g,1.0,g,1.0,0.5817966999020427,,,,,,,,,,8.0,8.0,104.0,10.0,423.1439978000708,,,,,,,,,,,,,,,,,423.131192300003,424.34392740007024,425.14396710006986,425.1286405000137,,,,,,,,,,,,,,,,,,,,,,,,,,,,,,,,,,,425.1299697000068,425.14396710006986,425.14396710006986,425.730272600078,g,1.0,0.5817966999020427,,,,,,sub-236,2,stroop_test,60.028549571943216,
,,,,105.0,9.0,8.0,,,,,,,,,,,,,gelb,red,r,0.0,r,1.0,0.6783969000680372,,,,,,,,,,8.0,9.0,105.0,8.0,425.7437438999768,,,,,,,,,,,,,,,,,425.7312436000211,426.9436302999966,427.7434948000591,427.72852720005903,,,,,,,,,,,,,,,,,,,,,,,,,,,,,,,,,,,427.7299570000032,427.7434948000591,427.7434948000591,428.42954629997257,r,1.0,0.6783969000680372,,,,,,sub-236,2,stroop_test,60.028549571943216,
,,,,106.0,10.0,8.0,,,,,,,,,,,,,rot,blue,b,0.0,b,1.0,0.9462056000484154,,,,,,,,,,8.0,10.0,106.0,2.0,428.4434105000692,,,,,,,,,,,,,,,,,428.4304792999756,429.6431689000456,430.44505029998254,430.4281865999801,,,,,,,,,,,,,,,,,,,,,,,,,,,,,,,,,,,430.43605150002986,430.44505029998254,430.44505029998254,431.3958706000121,b,1.0,0.9462056000484154,,,,,,sub-236,2,stroop_test,60.028549571943216,
,,,,107.0,11.0,8.0,,,,,,,,,,,,,blau,blue,b,1.0,b,1.0,0.5145085999974981,,,,,,,,,,8.0,11.0,107.0,6.0,431.4095729000401,,,,,,,,,,,,,,,,,431.396814799984,432.6097183000529,433.4125034000026,433.394426700077,,,,,,,,,,,,,,,,,,,,,,,,,,,,,,,,,,,433.4034079000121,433.4125034000026,433.4125034000026,433.9299777999986,b,1.0,0.5145085999974981,,,,,,sub-236,2,stroop_test,60.028549571943216,
,,,,108.0,0.0,9.0,,,,,,,,,,,,,rot,red,r,1.0,r,1.0,0.7427199000958353,,,,,,,,,,9.0,0.0,108.0,0.0,433.9426862000255,,,,,,,,,,,,,,,,,433.93088790006,434.2927040000213,435.09517109999433,435.0778479999863,,,,,,,,,,,,,,,,,,,,,,,,,,,,,,,,,,,435.0858140999917,435.09517109999433,435.09517109999433,435.8454124000855,r,1.0,0.7427199000958353,,,,,,sub-236,2,stroop_test,60.028549571943216,
,,,,109.0,1.0,9.0,,,,,,,,,,,,,rot,blue,b,0.0,b,1.0,0.99289679992944,,,,,,,,,,9.0,1.0,109.0,2.0,435.8590173000703,,,,,,,,,,,,,,,,,435.84640440007206,436.6590467999922,437.458993999986,437.44375740003306,,,,,,,,,,,,,,,,,,,,,,,,,,,,,,,,,,,437.44507620006334,437.458993999986,437.458993999986,438.4614698999794,b,1.0,0.99289679992944,,,,,,sub-236,2,stroop_test,60.028549571943216,
,,,,110.0,2.0,9.0,,,,,,,,,,,,,gelb,yellow,g,1.0,g,1.0,0.5177941999863833,,,,,,,,,,9.0,2.0,110.0,10.0,438.4755382000003,,,,,,,,,,,,,,,,,438.4623962000478,439.67537030007225,440.48025670007337,440.4599516000599,,,,,,,,,,,,,,,,,,,,,,,,,,,,,,,,,,,440.470316400053,440.48025670007337,440.48025670007337,441.011240700027,g,1.0,0.5177941999863833,,,,,,sub-236,2,stroop_test,60.028549571943216,
,,,,111.0,3.0,9.0,,,,,,,,,,,,,rot,yellow,g,0.0,g,1.0,0.7098521000007167,,,,,,,,,,9.0,3.0,111.0,3.0,441.0249751000665,,,,,,,,,,,,,,,,,441.0121799000772,441.8249976000516,442.6270603999728,442.6101507000858,,,,,,,,,,,,,,,,,,,,,,,,,,,,,,,,,,,442.6180785000324,442.6270603999728,442.6270603999728,443.3446805999847,g,1.0,0.7098521000007167,,,,,,sub-236,2,stroop_test,60.028549571943216,
,,,,112.0,4.0,9.0,,,,,,,,,,,,,blau,blue,b,1.0,b,1.0,1.0188811999978498,,,,,,,,,,9.0,4.0,112.0,6.0,443.3580311000114,,,,,,,,,,,,,,,,,443.34558089997154,443.7080753999762,444.51115460006986,444.4930304000154,,,,,,,,,,,,,,,,,,,,,,,,,,,,,,,,,,,444.5021738000214,444.51115460006986,444.51115460006986,445.54410270007793,b,1.0,1.0188811999978498,,,,,,sub-236,2,stroop_test,60.028549571943216,
,,,,113.0,5.0,9.0,,,,,,,,,,,,,blau,blue,b,1.0,b,1.0,0.6430681999772787,,,,,,,,,,9.0,5.0,113.0,5.0,445.5577679000562,,,,,,,,,,,,,,,,,445.54502520000096,445.6577331000008,446.4576488999882,446.44286970002577,,,,,,,,,,,,,,,,,,,,,,,,,,,,,,,,,,,446.44439600000624,446.4576488999882,446.4576488999882,447.11031120002735,b,1.0,0.6430681999772787,,,,,,sub-236,2,stroop_test,60.028549571943216,
,,,,114.0,6.0,9.0,,,,,,,,,,,,,gelb,yellow,g,1.0,g,1.0,0.800162100000307,,,,,,,,,,9.0,6.0,114.0,11.0,447.1243593000109,,,,,,,,,,,,,,,,,447.11126230005175,447.9244544000831,448.7299167000456,448.70922850002535,,,,,,,,,,,,,,,,,,,,,,,,,,,,,,,,,,,448.7197046000511,448.7299167000456,448.7299167000456,449.5437274000142,g,1.0,0.800162100000307,,,,,,sub-236,2,stroop_test,60.028549571943216,
,,,,115.0,7.0,9.0,,,,,,,,,,,,,gelb,red,r,0.0,r,1.0,0.6512721000472084,,,,,,,,,,9.0,7.0,115.0,8.0,449.55721980007365,,,,,,,,,,,,,,,,,449.5446346000536,450.7571947000688,451.5570356000681,451.5421800999902,,,,,,,,,,,,,,,,,,,,,,,,,,,,,,,,,,,451.5437094999943,451.5570356000681,451.5570356000681,452.226021700073,r,1.0,0.6512721000472084,,,,,,sub-236,2,stroop_test,60.028549571943216,
,,,,116.0,8.0,9.0,,,,,,,,,,,,,rot,red,r,1.0,r,1.0,0.5464312999974936,,,,,,,,,,9.0,8.0,116.0,1.0,452.2401593000395,,,,,,,,,,,,,,,,,452.2269836000633,453.0404490000801,453.84413099999074,453.8253032000503,,,,,,,,,,,,,,,,,,,,,,,,,,,,,,,,,,,453.8347142999992,453.84413099999074,453.84413099999074,454.3931469999952,r,1.0,0.5464312999974936,,,,,,sub-236,2,stroop_test,60.028549571943216,
,,,,117.0,9.0,9.0,,,,,,,,,,,,,blau,yellow,g,0.0,g,1.0,0.8927177999867126,,,,,,,,,,9.0,9.0,117.0,7.0,454.40656829997897,,,,,,,,,,,,,,,,,454.3941151000327,455.6066444000462,456.4091207999736,456.3917363000801,,,,,,,,,,,,,,,,,,,,,,,,,,,,,,,,,,,456.4001428000629,456.4091207999736,456.4091207999736,457.3092597000068,g,1.0,0.8927177999867126,,,,,,sub-236,2,stroop_test,60.028549571943216,
,,,,118.0,10.0,9.0,,,,,,,,,,,,,blau,red,r,0.0,r,1.0,0.9209107999922708,,,,,,,,,,9.0,10.0,118.0,4.0,457.3228697000304,,,,,,,,,,,,,,,,,457.3102252000244,458.1226897999877,458.9227584999753,458.9075548000401,,,,,,,,,,,,,,,,,,,,,,,,,,,,,,,,,,,458.90884639997967,458.9227584999753,458.9227584999753,459.8590394000057,r,1.0,0.9209107999922708,,,,,,sub-236,2,stroop_test,60.028549571943216,
,,,,119.0,11.0,9.0,,,,,,,,,,,,,gelb,blue,b,0.0,b,1.0,0.9026889000087976,,,,,,,,,,9.0,11.0,119.0,9.0,459.8725900000427,,,,,,,,,,,,,,,,,459.8599357000785,460.2224377000239,461.0221801999724,461.0065803000471,,,,,,,,,,,,,,,,,,,,,,,,,,,,,,,,,,,461.0126531000715,461.0221801999724,461.0221801999724,461.9417114000535,b,1.0,0.9026889000087976,,,,,,sub-236,2,stroop_test,60.028549571943216,
,,,,,,,,,,,,,,,,,,,,,,,,,,,,,,,,,,,,,,,,,,,,,,,,,,,,,,,,,,,,,,,,,,,,,,,,,,,,,,,,,,,,,,,,,,,,,,,,,,,,,,461.9421910999809,461.9557131000329,466.9550858000293,466.9403771000216,sub-236,2,stroop_test,60.028549571943216,
