wordCTK,colorCTK,corrAnsCTK,congruentCTK,thisN,thisTrialN,thisRepN,keyResp_CTK.keys,keyResp_CTK.corr,keyResp_CTK.rt,keyResp_CTK.duration,wordPractice,colorPractice,corrAnsPractice,congruentPractice,respPractice.keys,respPractice.corr,respPractice.rt,respPractice.duration,word,color,corrAns,congruent,keyResp_test_run.keys,keyResp_test_run.corr,keyResp_test_run.rt,keyResp_test_run.duration,trials_CTK.thisRepN,trials_CTK.thisTrialN,trials_CTK.thisN,trials_CTK.thisIndex,trials_practice.thisRepN,trials_practice.thisTrialN,trials_practice.thisN,trials_practice.thisIndex,trials_test.thisRepN,trials_test.thisTrialN,trials_test.thisN,trials_test.thisIndex,thisRow.t,notes,instruction.started,instr_text.started,instr_image.started,instr_resp.started,instruction.stopped,instr_resp.keys,instr_resp.rt,instr_resp.duration,instr_color_to_key.started,instr_ctk.started,resp_ctk.started,instr_color_to_key.stopped,resp_ctk.keys,resp_ctk.rt,resp_ctk.duration,ITI.started,fixcross.started,fixcross.stopped,ITI.stopped,color_to_key_run.started,stimulus_CTK.started,keyResp_CTK.started,color_to_key_run.stopped,trials_CTK.keyResp_CTK.keys,trials_CTK.keyResp_CTK.corr,trials_CTK.keyResp_CTK.rt,trials_CTK.keyResp_CTK.duration,instr_practice.started,instr_practice_text.started,instr_practice_resp.started,instr_practice.stopped,instr_practice_resp.keys,instr_practice_resp.rt,instr_practice_resp.duration,practice_run.started,stimulus_practice.started,respPractice.started,practice_run.stopped,trials_practice.respPractice.keys,trials_practice.respPractice.corr,trials_practice.respPractice.rt,trials_practice.respPractice.duration,feedback.started,textFeedback.started,feedback.stopped,textFeedback.stopped,instr_test.started,instr_test_text.started,instr_test_resp.started,instr_test.stopped,instr_test_resp.keys,instr_test_resp.rt,instr_test_resp.duration,test_run.started,stimulus_test_run.started,keyResp_test_run.started,test_run.stopped,trials_test.keyResp_test_run.keys,trials_test.keyResp_test_run.corr,trials_test.keyResp_test_run.rt,trials_test.keyResp_test_run.duration,goodbye.started,textGoodbye.started,goodbye.stopped,participant,session,expName,frameRate,Unnamed: 112
,,,,,,,,,,,,,,,,,,,,,,,,,,,,,,,,,,,,,,,,,0.0070684450038243,0.0235133340029278,0.0235133340029278,0.0235133340029278,8.4676262819994,space,8.416522554005496,,,,,,,,,,,,,,,,,,,,,,,,,,,,,,,,,,,,,,,,,,,,,,,,,,,,,,,,,,sub-127,1,stroop_test,59.0653178095238,
,,,,,,,,,,,,,,,,,,,,,,,,,,,,,,,,,,,,,,,,,,,,,,,,,8.467728235002141,8.482229387009284,8.482229387009284,13.160770798000158,space,4.662951631995384,,,,,,,,,,,,,,,,,,,,,,,,,,,,,,,,,,,,,,,,,,,,,,,,,,,sub-127,1,stroop_test,59.0653178095238,
test,blue,b,1.0,0.0,0.0,0.0,b,1.0,0.6891393000114476,,,,,,,,,,,,,,,,,,0.0,0.0,0.0,2.0,,,,,,,,,13.191884563013446,,,,,,,,,,,,,,,,,13.18045662700024,13.961865442004637,14.767040484002791,14.748324407002656,14.756427579006411,14.767040484002791,14.767040484002791,15.46756456400908,b,1.0,0.6891393000114476,,,,,,,,,,,,,,,,,,,,,,,,,,,,,,,,,,,,,,,sub-127,1,stroop_test,59.0653178095238,
test,red,r,1.0,1.0,1.0,0.0,r,1.0,0.8164338729984593,,,,,,,,,,,,,,,,,,0.0,1.0,1.0,0.0,,,,,,,,,15.482080480011064,,,,,,,,,,,,,,,,,15.467961217000266,16.267919467005413,17.06911707200925,17.053953512004227,17.054556774004595,17.06911707200925,17.06911707200925,17.89205073400808,r,1.0,0.8164338729984593,,,,,,,,,,,,,,,,,,,,,,,,,,,,,,,,,,,,,,,sub-127,1,stroop_test,59.0653178095238,
test,yellow,g,1.0,2.0,2.0,0.0,g,1.0,0.444453596996027,,,,,,,,,,,,,,,,,,0.0,2.0,2.0,1.0,,,,,,,,,17.904899359011324,,,,,,,,,,,,,,,,,17.89244024900836,18.706957834001518,19.50910711400502,19.493383690001792,19.493927288000123,19.50910711400502,19.50910711400502,19.964541612003813,g,1.0,0.444453596996027,,,,,,,,,,,,,,,,,,,,,,,,,,,,,,,,,,,,,,,sub-127,1,stroop_test,59.0653178095238,
test,yellow,g,1.0,3.0,0.0,1.0,g,1.0,0.6339842619927367,,,,,,,,,,,,,,,,,,1.0,0.0,3.0,1.0,,,,,,,,,19.977875127005973,,,,,,,,,,,,,,,,,19.965046879005968,21.164375099004246,21.966570659002173,21.950947592005832,21.951666632012348,21.966570659002173,21.966570659002173,22.605440552011714,g,1.0,0.6339842619927367,,,,,,,,,,,,,,,,,,,,,,,,,,,,,,,,,,,,,,,sub-127,1,stroop_test,59.0653178095238,
test,red,r,1.0,4.0,1.0,1.0,r,1.0,0.717558297998039,,,,,,,,,,,,,,,,,,1.0,1.0,4.0,0.0,,,,,,,,,22.61737763900601,,,,,,,,,,,,,,,,,22.605832664004996,23.80478573900473,24.606836844002828,24.591403822007123,24.592119459004607,24.606836844002828,24.606836844002828,25.329394902000782,r,1.0,0.717558297998039,,,,,,,,,,,,,,,,,,,,,,,,,,,,,,,,,,,,,,,sub-127,1,stroop_test,59.0653178095238,
test,blue,b,1.0,5.0,2.0,1.0,b,1.0,0.6302562839991879,,,,,,,,,,,,,,,,,,1.0,2.0,5.0,2.0,,,,,,,,,25.341624208012945,,,,,,,,,,,,,,,,,25.32978860400908,25.692322487011552,26.4943501020025,26.478345004012223,26.47884325501218,26.4943501020025,26.4943501020025,27.132649776001927,b,1.0,0.6302562839991879,,,,,,,,,,,,,,,,,,,,,,,,,,,,,,,,,,,,,,,sub-127,1,stroop_test,59.0653178095238,
test,blue,b,1.0,6.0,0.0,2.0,b,1.0,0.435797284997534,,,,,,,,,,,,,,,,,,2.0,0.0,6.0,2.0,,,,,,,,,27.14610080201237,,,,,,,,,,,,,,,,,27.132977668006788,27.497942652000347,28.2999770870083,28.283847238009912,28.284319700003834,28.2999770870083,28.2999770870083,28.75218188200961,b,1.0,0.435797284997534,,,,,,,,,,,,,,,,,,,,,,,,,,,,,,,,,,,,,,,sub-127,1,stroop_test,59.0653178095238,
test,yellow,g,1.0,7.0,1.0,2.0,g,1.0,0.5146394230105216,,,,,,,,,,,,,,,,,,2.0,1.0,7.0,1.0,,,,,,,,,28.767127422004705,,,,,,,,,,,,,,,,,28.75251054399996,29.55371636401105,30.355578302012876,30.339767844008747,30.340495247000945,30.355578302012876,30.355578302012876,30.876918489011587,g,1.0,0.5146394230105216,,,,,,,,,,,,,,,,,,,,,,,,,,,,,,,,,,,,,,,sub-127,1,stroop_test,59.0653178095238,
test,red,r,1.0,8.0,2.0,2.0,r,1.0,0.5777164920000359,,,,,,,,,,,,,,,,,,2.0,2.0,8.0,0.0,,,,,,,,,30.88948602000892,,,,,,,,,,,,,,,,,30.877326072004507,30.9897024170059,31.79203680700448,31.775775580012123,31.776236277000866,31.79203680700448,31.79203680700448,32.37990810000338,r,1.0,0.5777164920000359,,,,,,,,,,,,,,,,,,,,,,,,,,,,,,,,,,,,,,,sub-127,1,stroop_test,59.0653178095238,
test,yellow,g,1.0,9.0,0.0,3.0,g,1.0,0.6158120939944638,,,,,,,,,,,,,,,,,,3.0,0.0,9.0,1.0,,,,,,,,,32.39353044900054,,,,,,,,,,,,,,,,,32.38023526601319,33.19591674400726,33.9978089940123,33.98300341400318,33.98373816400999,33.9978089940123,33.9978089940123,34.61810141000024,g,1.0,0.6158120939944638,,,,,,,,,,,,,,,,,,,,,,,,,,,,,,,,,,,,,,,sub-127,1,stroop_test,59.0653178095238,
test,blue,b,1.0,10.0,1.0,3.0,b,1.0,0.6188583860057406,,,,,,,,,,,,,,,,,,3.0,1.0,10.0,2.0,,,,,,,,,34.63291060400661,,,,,,,,,,,,,,,,,34.618361950007966,34.98377049200644,35.785955978004495,35.77088729401294,35.77159931701317,35.785955978004495,35.785955978004495,36.4072482240008,b,1.0,0.6188583860057406,,,,,,,,,,,,,,,,,,,,,,,,,,,,,,,,,,,,,,,sub-127,1,stroop_test,59.0653178095238,
test,red,r,1.0,11.0,2.0,3.0,r,1.0,0.634785019006813,,,,,,,,,,,,,,,,,,3.0,2.0,11.0,0.0,,,,,,,,,36.42089757201029,,,,,,,,,,,,,,,,,36.40753395399952,36.521180168012506,37.324472737003816,37.308602119010175,37.309316422004486,37.324472737003816,37.324472737003816,37.97622752201278,r,1.0,0.634785019006813,,,,,,,,,,,,,,,,,,,,,,,,,,,,,,,,,,,,,,,sub-127,1,stroop_test,59.0653178095238,
,,,,,,,,,,,,,,,,,,,,,,,,,,,,,,,,,,,,,,,,,,,,,,,,,,,,,,,,,,,,,,,,,,,,37.97639020399947,37.99200150801335,37.99200150801335,40.500939934005146,space,2.4984519650024595,,,,,,,,,,,,,,,,,,,,,,,,,,,,,,,,sub-127,1,stroop_test,59.0653178095238,
,,,,0.0,0.0,0.0,,,,,blau,blue,b,1.0,b,1.0,0.7347494269924937,,,,,,,,,,,,,,0.0,0.0,0.0,5.0,,,,,40.528752238009474,,,,,,,,,,,,,,,,,40.52095402900886,40.86650088800525,41.67305449700507,41.653338304007775,,,,,,,,,,,,,,,,41.6622352090053,41.67305449700507,41.67305449700507,42.42243623400282,b,1.0,0.7347494269924937,,42.42939976400521,42.4400263280113,43.42416829400463,,,,,,,,,,,,,,,,,,,,sub-127,1,stroop_test,59.0653178095238,
,,,,1.0,1.0,0.0,,,,,rot,red,r,1.0,r,1.0,0.894795312997303,,,,,,,,,,,,,,0.0,1.0,1.0,0.0,,,,,43.44061726200744,,,,,,,,,,,,,,,,,43.4246525040071,44.22644713400223,45.04279569900245,45.01269963900268,,,,,,,,,,,,,,,,45.01886584699969,45.04279569900245,45.04279569900245,45.949116862000665,r,1.0,0.894795312997303,,45.9496490599995,45.96308948600199,46.95019276899984,,,,,,,,,,,,,,,,,,,,sub-127,1,stroop_test,59.0653178095238,
,,,,2.0,2.0,0.0,,,,,gelb,red,r,0.0,r,1.0,1.053417939998326,,,,,,,,,,,,,,0.0,2.0,2.0,8.0,,,,,46.96659994900983,,,,,,,,,,,,,,,,,46.95067236700561,48.153179077009554,48.95608582701243,48.93972873200255,,,,,,,,,,,,,,,,48.9440873870044,48.95608582701243,48.95608582701243,50.02510465501109,r,1.0,1.053417939998326,,50.02566041600949,50.04062715701002,51.02793647900398,,,,,,,,,,,,,,,,,,,,sub-127,1,stroop_test,59.0653178095238,
,,,,3.0,3.0,0.0,,,,,gelb,yellow,g,1.0,g,1.0,0.5295318529970245,,,,,,,,,,,,,,0.0,3.0,3.0,11.0,,,,,51.04407031700248,,,,,,,,,,,,,,,,,51.028403807009454,51.82896845400683,52.63169623901194,52.61588551200112,,,,,,,,,,,,,,,,52.61663356900681,52.63169623901194,52.63169623901194,53.16777552900021,g,1.0,0.5295318529970245,,53.168231463001575,53.18267144000856,54.17375026800437,,,,,,,,,,,,,,,,,,,,sub-127,1,stroop_test,59.0653178095238,
,,,,4.0,4.0,0.0,,,,,blau,blue,b,1.0,b,1.0,0.4751133490062784,,,,,,,,,,,,,,0.0,4.0,4.0,6.0,,,,,54.18521438400785,,,,,,,,,,,,,,,,,54.174070806009695,55.37227505700139,56.17376155700185,56.15840013900015,,,,,,,,,,,,,,,,56.16137498200988,56.17376155700185,56.17376155700185,56.66015750600491,b,1.0,0.4751133490062784,,56.66072007801267,56.67504556600761,57.661955117000616,,,,,,,,,,,,,,,,,,,,sub-127,1,stroop_test,59.0653178095238,
,,,,5.0,5.0,0.0,,,,,rot,yellow,g,0.0,g,1.0,0.637122226995416,,,,,,,,,,,,,,0.0,5.0,5.0,3.0,,,,,57.67862666700967,,,,,,,,,,,,,,,,,57.6624189770082,58.86553830400226,59.66692337900167,59.651792661999934,,,,,,,,,,,,,,,,59.6560312990041,59.66692337900167,59.66692337900167,60.32002226701297,g,1.0,0.637122226995416,,60.32045773800928,60.33487638900988,61.3218881040084,,,,,,,,,,,,,,,,,,,,sub-127,1,stroop_test,59.0653178095238,
,,,,6.0,6.0,0.0,,,,,blau,yellow,g,0.0,g,1.0,0.6068530530028511,,,,,,,,,,,,,,0.0,6.0,6.0,7.0,,,,,61.3384194040118,,,,,,,,,,,,,,,,,61.322357472003205,61.42232756200247,62.22421131801093,62.20836993400008,,,,,,,,,,,,,,,,62.21276742201008,62.22421131801093,62.22421131801093,62.84329671500018,g,1.0,0.6068530530028511,,62.8437466200121,62.8582093060104,63.84557046201371,,,,,,,,,,,,,,,,,,,,sub-127,1,stroop_test,59.0653178095238,
,,,,7.0,7.0,0.0,,,,,gelb,yellow,g,1.0,g,1.0,0.5031596519984305,,,,,,,,,,,,,,0.0,7.0,7.0,10.0,,,,,63.86175346400705,,,,,,,,,,,,,,,,,63.84603577700909,64.19582824000099,64.99908869901265,64.9823590790038,,,,,,,,,,,,,,,,64.98671086400282,64.99908869901265,64.99908869901265,65.51747198600788,g,1.0,0.5031596519984305,,65.51799911400303,65.53215223000734,66.51833354900009,,,,,,,,,,,,,,,,,,,,sub-127,1,stroop_test,59.0653178095238,
,,,,8.0,8.0,0.0,,,,,rot,blue,b,0.0,b,1.0,0.7045583849976538,,,,,,,,,,,,,,0.0,8.0,8.0,2.0,,,,,66.53486510000948,,,,,,,,,,,,,,,,,66.51871277400642,66.87012020700786,67.67123761201219,67.65566760400543,,,,,,,,,,,,,,,,67.65905756200664,67.67123761201219,67.67123761201219,68.39195948200359,b,1.0,0.7045583849976538,,68.39250605000416,68.4064189500059,69.39357789201313,,,,,,,,,,,,,,,,,,,,sub-127,1,stroop_test,59.0653178095238,
,,,,9.0,9.0,0.0,,,,,blau,red,r,0.0,r,1.0,0.6864146369916853,,,,,,,,,,,,,,0.0,9.0,9.0,4.0,,,,,69.41013099900738,,,,,,,,,,,,,,,,,69.39405112700479,69.49353845200676,70.29690768400906,70.28008555900306,,,,,,,,,,,,,,,,70.28439092700137,70.29690768400906,70.29690768400906,70.99848342800396,r,1.0,0.6864146369916853,,70.99902074600686,71.01373271200282,71.99979121000797,,,,,,,,,,,,,,,,,,,,sub-127,1,stroop_test,59.0653178095238,
,,,,10.0,10.0,0.0,,,,,rot,red,r,1.0,r,1.0,0.4863815220014658,,,,,,,,,,,,,,0.0,10.0,10.0,1.0,,,,,72.01572209200822,,,,,,,,,,,,,,,,,72.00019888000679,73.20280862800428,74.00654992400086,73.98958243400557,,,,,,,,,,,,,,,,73.993847337013,74.00654992400086,74.00654992400086,74.50790940401203,r,1.0,0.4863815220014658,,74.50843470401014,74.52265881901258,75.50972544901015,,,,,,,,,,,,,,,,,,,,sub-127,1,stroop_test,59.0653178095238,
,,,,11.0,11.0,0.0,,,,,gelb,blue,b,0.0,b,1.0,0.5852014600095572,,,,,,,,,,,,,,0.0,11.0,11.0,9.0,,,,,75.52667312401172,,,,,,,,,,,,,,,,,75.51019089701003,75.60971820900158,76.41233725901111,76.39631905700662,,,,,,,,,,,,,,,,76.40066519701213,76.41233725901111,76.41233725901111,77.0011570390052,b,1.0,0.5852014600095572,,77.00181178700586,77.01252460900287,77.99966981100442,78.01538250200974,,,,,,,,,,,,,,,,,,,sub-127,1,stroop_test,59.0653178095238,
,,,,12.0,0.0,1.0,,,,,gelb,blue,b,0.0,b,1.0,0.4954489749943604,,,,,,,,,,,,,,1.0,0.0,12.0,9.0,,,,,78.01538250200974,,,,,,,,,,,,,,,,,77.99998973100446,78.36638686399965,79.16944448700815,79.15332561900141,,,,,,,,,,,,,,,,79.15402719700069,79.16944448700815,79.16944448700815,79.67346988400095,b,1.0,0.4954489749943604,,79.67410781700164,79.68626442200912,80.67403495201143,,,,,,,,,,,,,,,,,,,,sub-127,1,stroop_test,59.0653178095238,
,,,,13.0,1.0,1.0,,,,,blau,blue,b,1.0,b,1.0,0.3846481130021857,,,,,,,,,,,,,,1.0,1.0,13.0,6.0,,,,,80.69010759900266,,,,,,,,,,,,,,,,,80.67449824399955,81.87668576200667,82.67953612400743,82.6628327040089,,,,,,,,,,,,,,,,82.66718601201137,82.67953612400743,82.67953612400743,83.08134031601367,b,1.0,0.3846481130021857,,83.08186388401373,83.09548048701254,84.0828013690043,,,,,,,,,,,,,,,,,,,,sub-127,1,stroop_test,59.0653178095238,
,,,,14.0,2.0,1.0,,,,,rot,blue,b,0.0,b,1.0,0.4182040899904677,,,,,,,,,,,,,,1.0,2.0,14.0,2.0,,,,,84.09914083201147,,,,,,,,,,,,,,,,,84.08326231400133,84.18283789200359,84.9849827200087,84.96903977201146,,,,,,,,,,,,,,,,84.97331466901232,84.9849827200087,84.9849827200087,85.40694936701038,b,1.0,0.4182040899904677,,85.40758691201336,85.41812353000569,86.40640100200835,86.42197571900033,,,,,,,,,,,,,,,,,,,sub-127,1,stroop_test,59.0653178095238,
,,,,15.0,3.0,1.0,,,,,gelb,red,r,0.0,r,1.0,0.7013358760013944,,,,,,,,,,,,,,1.0,3.0,15.0,8.0,,,,,86.42197571900033,,,,,,,,,,,,,,,,,86.40685620201111,87.60875430400483,88.41151366700069,88.39479694901092,,,,,,,,,,,,,,,,88.3998871740041,88.41151366700069,88.41151366700069,89.12982201400155,r,1.0,0.7013358760013944,,89.1303396220028,89.14529542501259,90.13182916201184,,,,,,,,,,,,,,,,,,,,sub-127,1,stroop_test,59.0653178095238,
,,,,16.0,4.0,1.0,,,,,rot,red,r,1.0,r,1.0,0.5927785690000746,,,,,,,,,,,,,,1.0,4.0,16.0,0.0,,,,,90.14843920500424,,,,,,,,,,,,,,,,,90.13221179399989,90.93317034600476,91.73518473700096,91.71952400601003,,,,,,,,,,,,,,,,91.72227044501052,91.73518473700096,91.73518473700096,92.33864073600851,r,1.0,0.5927785690000746,,92.33916557600604,92.35411579201173,93.34004421801365,,,,,,,,,,,,,,,,,,,,sub-127,1,stroop_test,59.0653178095238,
,,,,17.0,5.0,1.0,,,,,rot,yellow,g,0.0,g,1.0,0.4379644069995265,,,,,,,,,,,,,,1.0,5.0,17.0,3.0,,,,,93.3567359650042,,,,,,,,,,,,,,,,,93.34039662200666,93.44004696200136,94.24208682400058,94.22714743899996,,,,,,,,,,,,,,,,94.22785667900462,94.24208682400058,94.24208682400058,94.69480878600734,g,1.0,0.4379644069995265,,94.69524379500945,94.70996483000636,95.69725876901066,,,,,,,,,,,,,,,,,,,,sub-127,1,stroop_test,59.0653178095238,
,,,,18.0,6.0,1.0,,,,,blau,red,r,0.0,r,1.0,0.5645270809909562,,,,,,,,,,,,,,1.0,6.0,18.0,4.0,,,,,95.71381716700851,,,,,,,,,,,,,,,,,95.69773421200809,96.49910456901124,97.30139689000498,97.28521933199954,,,,,,,,,,,,,,,,97.28956664400177,97.30139689000498,97.30139689000498,97.87047594800242,r,1.0,0.5645270809909562,,97.87092236200988,97.88564749600482,98.87213490701106,,,,,,,,,,,,,,,,,,,,sub-127,1,stroop_test,59.0653178095238,
,,,,19.0,7.0,1.0,,,,,blau,blue,b,1.0,b,1.0,0.4345553930033929,,,,,,,,,,,,,,1.0,7.0,19.0,5.0,,,,,98.8887794270122,,,,,,,,,,,,,,,,,98.87259710900253,100.0752002220106,100.87739727200824,100.8615345319995,,,,,,,,,,,,,,,,100.86223301201244,100.87739727200824,100.87739727200824,101.31586446700383,b,1.0,0.4345553930033929,,101.31649196900251,101.32776251400357,102.3154193520022,102.3313288190111,,,,,,,,,,,,,,,,,,,sub-127,1,stroop_test,59.0653178095238,
,,,,20.0,8.0,1.0,,,,,gelb,yellow,g,1.0,g,1.0,0.6198306489968672,,,,,,,,,,,,,,1.0,8.0,20.0,10.0,,,,,102.3313288190111,,,,,,,,,,,,,,,,,102.31589723400248,102.43156493200512,103.23343990300782,103.21812585400768,,,,,,,,,,,,,,,,103.2224167920067,103.23343990300782,103.23343990300782,103.86933926500204,g,1.0,0.6198306489968672,,103.869889204012,103.8847362170054,104.87146987700544,,,,,,,,,,,,,,,,,,,,sub-127,1,stroop_test,59.0653178095238,
,,,,21.0,9.0,1.0,,,,,rot,red,r,1.0,r,1.0,0.475162585004,,,,,,,,,,,,,,1.0,9.0,21.0,1.0,,,,,104.88847703899955,,,,,,,,,,,,,,,,,104.87193348200526,105.67365097200673,106.47600223201152,106.4597195140086,,,,,,,,,,,,,,,,106.46402156700788,106.47600223201152,106.47600223201152,106.96124093800609,r,1.0,0.475162585004,,106.96182289101124,106.9765829720127,107.96281095599988,,,,,,,,,,,,,,,,,,,,sub-127,1,stroop_test,59.0653178095238,
,,,,22.0,10.0,1.0,,,,,blau,yellow,g,0.0,g,1.0,0.5939470079902094,,,,,,,,,,,,,,1.0,10.0,22.0,7.0,,,,,107.97874397000125,,,,,,,,,,,,,,,,,107.96315498500188,108.31354059200385,109.1161733379995,109.10008102901338,,,,,,,,,,,,,,,,109.10441350701149,109.1161733379995,109.1161733379995,109.71995618200162,g,1.0,0.5939470079902094,,109.72059907700168,109.73316615501244,110.72041754200472,,,,,,,,,,,,,,,,,,,,sub-127,1,stroop_test,59.0653178095238,
,,,,23.0,11.0,1.0,,,,,gelb,yellow,g,1.0,g,1.0,0.5093114199989941,,,,,,,,,,,,,,1.0,11.0,23.0,11.0,,,,,110.73719030400387,,,,,,,,,,,,,,,,,110.72088364200316,110.82057282701136,111.62261789600598,111.60694812700967,,,,,,,,,,,,,,,,111.61193309900408,111.62261789600598,111.62261789600598,112.1422754170053,g,1.0,0.5093114199989941,,112.14289554599964,112.15634247900744,113.14279484200232,,,,,,,,,,,,,,,,,,,,sub-127,1,stroop_test,59.0653178095238,
,,,,,,,,,,,,,,,,,,,,,,,,,,,,,,,,,,,,,,,,,,,,,,,,,,,,,,,,,,,,,,,,,,,,,,,,,,,,,,,,,,,,,,,113.14292673001182,113.15934627800016,113.15934627800016,115.8679924300086,space,2.692863774995203,,,,,,,,,,,,,sub-127,1,stroop_test,59.0653178095238,
,,,,0.0,0.0,0.0,,,,,,,,,,,,,gelb,blue,b,0.0,b,1.0,0.6196065709955292,,,,,,,,,,0.0,0.0,0.0,9.0,115.89469221000036,,,,,,,,,,,,,,,,,115.88860475200636,116.66981527401369,117.4708558400016,117.45594109701052,,,,,,,,,,,,,,,,,,,,,,,,,,,,,,,,,,,117.45972407900264,117.4708558400016,117.4708558400016,118.10768406900752,b,1.0,0.6196065709955292,,,,,sub-127,1,stroop_test,59.0653178095238,
,,,,1.0,1.0,0.0,,,,,,,,,,,,,rot,red,r,1.0,r,1.0,0.6261408440041123,,,,,,,,,,0.0,1.0,1.0,0.0,118.12252789200284,,,,,,,,,,,,,,,,,118.10798059400986,119.3099842090014,120.11173966201022,120.09625884900744,,,,,,,,,,,,,,,,,,,,,,,,,,,,,,,,,,,120.10048369900323,120.11173966201022,120.11173966201022,120.74744832800934,r,1.0,0.6261408440041123,,,,,sub-127,1,stroop_test,59.0653178095238,
,,,,2.0,2.0,0.0,,,,,,,,,,,,,blau,red,r,0.0,r,1.0,0.8845708230073797,,,,,,,,,,0.0,2.0,2.0,4.0,120.7630348540115,,,,,,,,,,,,,,,,,120.7478072780068,120.84769934701036,121.64906461200736,121.63375117900432,,,,,,,,,,,,,,,,,,,,,,,,,,,,,,,,,,,121.63799897400897,121.64906461200736,121.64906461200736,122.53909395200026,r,1.0,0.8845708230073797,,,,,sub-127,1,stroop_test,59.0653178095238,
,,,,3.0,3.0,0.0,,,,,,,,,,,,,blau,blue,b,1.0,b,1.0,0.6115318299998762,,,,,,,,,,0.0,3.0,3.0,6.0,122.55037728900788,,,,,,,,,,,,,,,,,122.53969852400768,123.7383027169999,124.53959909500554,124.52374232500732,,,,,,,,,,,,,,,,,,,,,,,,,,,,,,,,,,,124.52424084300584,124.53959909500554,124.53959909500554,125.15925007300392,b,1.0,0.6115318299998762,,,,,sub-127,1,stroop_test,59.0653178095238,
,,,,4.0,4.0,0.0,,,,,,,,,,,,,gelb,yellow,g,1.0,g,1.0,0.5479436850000639,,,,,,,,,,0.0,4.0,4.0,10.0,125.17499712800782,,,,,,,,,,,,,,,,,125.1595661850006,126.36135175201343,127.16414435701154,127.14851519200602,,,,,,,,,,,,,,,,,,,,,,,,,,,,,,,,,,,127.15282589200068,127.16414435701154,127.16414435701154,127.71867052699965,g,1.0,0.5479436850000639,,,,,sub-127,1,stroop_test,59.0653178095238,
,,,,5.0,5.0,0.0,,,,,,,,,,,,,rot,red,r,1.0,r,1.0,0.4441717769950628,,,,,,,,,,0.0,5.0,5.0,1.0,127.73189508799987,,,,,,,,,,,,,,,,,127.71911822901166,128.08262910500343,128.88603276200593,128.86985325200658,,,,,,,,,,,,,,,,,,,,,,,,,,,,,,,,,,,128.87469656900794,128.88603276200593,128.88603276200593,129.33740446901356,r,1.0,0.4441717769950628,,,,,sub-127,1,stroop_test,59.0653178095238,
,,,,6.0,6.0,0.0,,,,,,,,,,,,,gelb,red,r,0.0,r,1.0,0.608890841001994,,,,,,,,,,0.0,6.0,6.0,8.0,129.35250214400003,,,,,,,,,,,,,,,,,129.33772027000668,129.6877439390082,130.4896722040139,130.4738807070098,,,,,,,,,,,,,,,,,,,,,,,,,,,,,,,,,,,130.47827670701372,130.4896722040139,130.4896722040139,131.10941594401083,r,1.0,0.608890841001994,,,,,sub-127,1,stroop_test,59.0653178095238,
,,,,7.0,7.0,0.0,,,,,,,,,,,,,blau,yellow,g,0.0,g,1.0,0.4715076089923968,,,,,,,,,,0.0,7.0,7.0,7.0,131.12399261200335,,,,,,,,,,,,,,,,,131.10986051701184,132.3111261120066,133.11392263100424,133.0967463900015,,,,,,,,,,,,,,,,,,,,,,,,,,,,,,,,,,,133.0992893690127,133.11392263100424,133.11392263100424,133.5990474650025,g,1.0,0.4715076089923968,,,,,sub-127,1,stroop_test,59.0653178095238,
,,,,8.0,8.0,0.0,,,,,,,,,,,,,gelb,yellow,g,1.0,g,1.0,0.6657039529964095,,,,,,,,,,0.0,8.0,8.0,11.0,133.61373262500274,,,,,,,,,,,,,,,,,133.59958358500444,133.96557016900624,134.7679724040063,134.75183526900946,,,,,,,,,,,,,,,,,,,,,,,,,,,,,,,,,,,134.75618879700778,134.7679724040063,134.7679724040063,135.4376804880012,g,1.0,0.6657039529964095,,,,,sub-127,1,stroop_test,59.0653178095238,
,,,,9.0,9.0,0.0,,,,,,,,,,,,,rot,blue,b,0.0,b,1.0,0.8619032889982918,,,,,,,,,,0.0,9.0,9.0,2.0,135.45209806800997,,,,,,,,,,,,,,,,,135.43797672900837,136.2383647270035,137.039909197003,137.02482790700742,,,,,,,,,,,,,,,,,,,,,,,,,,,,,,,,,,,137.0290591570083,137.039909197003,137.039909197003,137.9101351420104,b,1.0,0.8619032889982918,,,,,sub-127,1,stroop_test,59.0653178095238,
,,,,10.0,10.0,0.0,,,,,,,,,,,,,blau,blue,b,1.0,b,1.0,0.4537032549997093,,,,,,,,,,0.0,10.0,10.0,5.0,137.925577180009,,,,,,,,,,,,,,,,,137.91045082001074,138.71187657900737,139.51378947299963,139.49809852700855,,,,,,,,,,,,,,,,,,,,,,,,,,,,,,,,,,,139.50246106700797,139.51378947299963,139.51378947299963,139.9830511700129,b,1.0,0.4537032549997093,,,,,sub-127,1,stroop_test,59.0653178095238,
,,,,11.0,11.0,0.0,,,,,,,,,,,,,rot,yellow,g,0.0,b,0.0,0.4514351389952935,,,,,,,,,,0.0,11.0,11.0,3.0,139.9975262710068,,,,,,,,,,,,,,,,,139.98342707801203,140.783985424001,141.58634237700608,141.57036404201062,,,,,,,,,,,,,,,,,,,,,,,,,,,,,,,,,,,141.57465811401198,141.58634237700608,141.58634237700608,142.05507677599962,b,0.0,0.4514351389952935,,,,,sub-127,1,stroop_test,59.0653178095238,
,,,,12.0,0.0,1.0,,,,,,,,,,,,,gelb,yellow,g,1.0,g,1.0,0.674380291995476,,,,,,,,,,1.0,0.0,12.0,10.0,142.06994877201214,,,,,,,,,,,,,,,,,142.0554590080137,143.25739986200642,144.0586367950018,144.04228230200533,,,,,,,,,,,,,,,,,,,,,,,,,,,,,,,,,,,144.04547018300218,144.0586367950018,144.0586367950018,144.74561219000316,g,1.0,0.674380291995476,,,,,sub-127,1,stroop_test,59.0653178095238,
,,,,13.0,1.0,1.0,,,,,,,,,,,,,rot,blue,b,0.0,b,1.0,0.7432894529920304,,,,,,,,,,1.0,1.0,13.0,2.0,144.76031237600546,,,,,,,,,,,,,,,,,144.7460003120068,145.54656448200694,146.34951514900604,146.33297612900787,,,,,,,,,,,,,,,,,,,,,,,,,,,,,,,,,,,146.33732344700547,146.34951514900604,146.34951514900604,147.10285488401132,b,1.0,0.7432894529920304,,,,,sub-127,1,stroop_test,59.0653178095238,
,,,,14.0,2.0,1.0,,,,,,,,,,,,,gelb,blue,b,0.0,b,1.0,0.7456990929931635,,,,,,,,,,1.0,2.0,14.0,9.0,147.11654140301107,,,,,,,,,,,,,,,,,147.10324909401243,148.30407656200987,149.10574253801315,149.0905648770131,,,,,,,,,,,,,,,,,,,,,,,,,,,,,,,,,,,149.09482093200495,149.10574253801315,149.10574253801315,149.86062232901168,b,1.0,0.7456990929931635,,,,,sub-127,1,stroop_test,59.0653178095238,
,,,,15.0,3.0,1.0,,,,,,,,,,,,,rot,red,r,1.0,r,1.0,0.6198985030059703,,,,,,,,,,1.0,3.0,15.0,0.0,149.87407006000285,,,,,,,,,,,,,,,,,149.86108459200477,150.22526011700393,151.0270746160095,151.01137666701106,,,,,,,,,,,,,,,,,,,,,,,,,,,,,,,,,,,151.0143883460114,151.0270746160095,151.0270746160095,151.65055898700666,r,1.0,0.6198985030059703,,,,,sub-127,1,stroop_test,59.0653178095238,
,,,,16.0,4.0,1.0,,,,,,,,,,,,,blau,blue,b,1.0,b,1.0,0.4891161510022357,,,,,,,,,,1.0,4.0,16.0,5.0,151.66211569600273,,,,,,,,,,,,,,,,,151.651004172003,152.46528915200906,153.26696143600566,153.25134283400257,,,,,,,,,,,,,,,,,,,,,,,,,,,,,,,,,,,153.25571314700937,153.26696143600566,153.26696143600566,153.76915426400956,b,1.0,0.4891161510022357,,,,,sub-127,1,stroop_test,59.0653178095238,
,,,,17.0,5.0,1.0,,,,,,,,,,,,,rot,red,r,1.0,g,0.0,0.4850886810017982,,,,,,,,,,1.0,5.0,17.0,1.0,153.78514877700945,,,,,,,,,,,,,,,,,153.76952185400296,154.97159436400398,155.77400757900614,155.7580045270006,,,,,,,,,,,,,,,,,,,,,,,,,,,,,,,,,,,155.7622376490035,155.77400757900614,155.77400757900614,156.27639867200924,g,0.0,0.4850886810017982,,,,,sub-127,1,stroop_test,59.0653178095238,
,,,,18.0,6.0,1.0,,,,,,,,,,,,,gelb,red,r,0.0,r,1.0,0.5193237620114814,,,,,,,,,,1.0,6.0,18.0,8.0,156.2911559870117,,,,,,,,,,,,,,,,,156.27676854400488,156.39253322400327,157.19483667700842,157.17881059201318,,,,,,,,,,,,,,,,,,,,,,,,,,,,,,,,,,,157.18314513200312,157.19483667700842,157.19483667700842,157.7298532720015,r,1.0,0.5193237620114814,,,,,sub-127,1,stroop_test,59.0653178095238,
,,,,19.0,7.0,1.0,,,,,,,,,,,,,gelb,yellow,g,1.0,g,1.0,0.5669046900002286,,,,,,,,,,1.0,7.0,19.0,11.0,157.7456375620095,,,,,,,,,,,,,,,,,157.73022629600018,158.53127186700294,159.33299074400566,159.31729687200277,,,,,,,,,,,,,,,,,,,,,,,,,,,,,,,,,,,159.31790421200276,159.33299074400566,159.33299074400566,159.90525224700104,g,1.0,0.5669046900002286,,,,,sub-127,1,stroop_test,59.0653178095238,
,,,,20.0,8.0,1.0,,,,,,,,,,,,,blau,red,r,0.0,b,0.0,0.5885594959981972,,,,,,,,,,1.0,8.0,20.0,4.0,159.91732304400648,,,,,,,,,,,,,,,,,159.90569923901057,160.01910457700433,160.8206189340126,160.80507311700785,,,,,,,,,,,,,,,,,,,,,,,,,,,,,,,,,,,160.80998164700577,160.8206189340126,160.8206189340126,161.423661370005,b,0.0,0.5885594959981972,,,,,sub-127,1,stroop_test,59.0653178095238,
,,,,21.0,9.0,1.0,,,,,,,,,,,,,rot,yellow,g,0.0,g,1.0,0.615841556005762,,,,,,,,,,1.0,9.0,21.0,3.0,161.43852311201044,,,,,,,,,,,,,,,,,161.42402949401003,162.22466746201098,163.0263155420107,163.01023403900035,,,,,,,,,,,,,,,,,,,,,,,,,,,,,,,,,,,163.01289710000856,163.0263155420107,163.0263155420107,163.64621201901173,g,1.0,0.615841556005762,,,,,sub-127,1,stroop_test,59.0653178095238,
,,,,22.0,10.0,1.0,,,,,,,,,,,,,blau,blue,b,1.0,b,1.0,0.5620268680067966,,,,,,,,,,1.0,10.0,22.0,6.0,163.66111209800874,,,,,,,,,,,,,,,,,163.6465278280084,163.76107516800403,164.56333803200687,164.54736044901074,,,,,,,,,,,,,,,,,,,,,,,,,,,,,,,,,,,164.55039905000012,164.56333803200687,164.56333803200687,165.13404830200307,b,1.0,0.5620268680067966,,,,,sub-127,1,stroop_test,59.0653178095238,
,,,,23.0,11.0,1.0,,,,,,,,,,,,,blau,yellow,g,0.0,g,1.0,0.5726838489936199,,,,,,,,,,1.0,11.0,23.0,7.0,165.1481180020055,,,,,,,,,,,,,,,,,165.1344182920002,165.4993619920133,166.30201707201195,166.28628589700384,,,,,,,,,,,,,,,,,,,,,,,,,,,,,,,,,,,166.28701096201257,166.30201707201195,166.30201707201195,166.8881697270117,g,1.0,0.5726838489936199,,,,,sub-127,1,stroop_test,59.0653178095238,
,,,,24.0,0.0,2.0,,,,,,,,,,,,,blau,red,r,0.0,r,1.0,0.961403702996904,,,,,,,,,,2.0,0.0,24.0,4.0,166.902749306013,,,,,,,,,,,,,,,,,166.88846017701144,168.08936720900238,168.89222976400924,168.87661094900977,,,,,,,,,,,,,,,,,,,,,,,,,,,,,,,,,,,168.87737871400896,168.89222976400924,168.89222976400924,169.86300071601,r,1.0,0.961403702996904,,,,,sub-127,1,stroop_test,59.0653178095238,
,,,,25.0,1.0,2.0,,,,,,,,,,,,,rot,blue,b,0.0,b,1.0,1.379686465006671,,,,,,,,,,2.0,1.0,25.0,2.0,169.87783241001307,,,,,,,,,,,,,,,,,169.86336733200005,169.9782733040047,170.78025119801168,170.76490427700628,,,,,,,,,,,,,,,,,,,,,,,,,,,,,,,,,,,170.76918899700104,170.78025119801168,170.78025119801168,172.16948737201164,b,1.0,1.379686465006671,,,,,sub-127,1,stroop_test,59.0653178095238,
,,,,26.0,2.0,2.0,,,,,,,,,,,,,gelb,blue,b,0.0,b,1.0,0.4484529419860337,,,,,,,,,,2.0,2.0,26.0,9.0,172.1837196500128,,,,,,,,,,,,,,,,,172.16985340201063,173.37020002800273,174.17242946001352,174.16031909400772,,,,,,,,,,,,,,,,,,,,,,,,,,,,,,,,,,,174.16273158500553,174.17242946001352,174.17242946001352,174.62767286400776,b,1.0,0.4484529419860337,,,,,sub-127,1,stroop_test,59.0653178095238,
,,,,27.0,3.0,2.0,,,,,,,,,,,,,rot,yellow,g,0.0,g,1.0,0.5709053159953328,,,,,,,,,,2.0,3.0,27.0,3.0,174.64027776400326,,,,,,,,,,,,,,,,,174.62811864900868,175.44331371701264,176.24492905000807,176.22859419501037,,,,,,,,,,,,,,,,,,,,,,,,,,,,,,,,,,,176.23132437501044,176.24492905000807,176.24492905000807,176.83118439200916,g,1.0,0.5709053159953328,,,,,sub-127,1,stroop_test,59.0653178095238,
,,,,28.0,4.0,2.0,,,,,,,,,,,,,gelb,red,r,0.0,r,1.0,0.7088398359919665,,,,,,,,,,2.0,4.0,28.0,8.0,176.84616104600718,,,,,,,,,,,,,,,,,176.83158132000244,177.632734127008,178.43323241001053,178.4188699470105,,,,,,,,,,,,,,,,,,,,,,,,,,,,,,,,,,,178.42353250700398,178.43323241001053,178.43323241001053,179.15516604400182,r,1.0,0.7088398359919665,,,,,sub-127,1,stroop_test,59.0653178095238,
,,,,29.0,5.0,2.0,,,,,,,,,,,,,rot,red,r,1.0,r,1.0,0.5040472269902239,,,,,,,,,,2.0,5.0,29.0,0.0,179.16941051201138,,,,,,,,,,,,,,,,,179.15560902700236,179.50407211200218,180.3052091040008,180.2894615670084,,,,,,,,,,,,,,,,,,,,,,,,,,,,,,,,,,,180.2924797140004,180.3052091040008,180.3052091040008,180.82381604000693,r,1.0,0.5040472269902239,,,,,sub-127,1,stroop_test,59.0653178095238,
,,,,30.0,6.0,2.0,,,,,,,,,,,,,rot,red,r,1.0,r,1.0,0.5763540100015234,,,,,,,,,,2.0,6.0,30.0,1.0,180.8401508570096,,,,,,,,,,,,,,,,,180.82412895200832,181.62632868401124,182.4285609840008,182.41303355200216,,,,,,,,,,,,,,,,,,,,,,,,,,,,,,,,,,,182.41374432400332,182.4285609840008,182.4285609840008,183.0137568500068,r,1.0,0.5763540100015234,,,,,sub-127,1,stroop_test,59.0653178095238,
,,,,31.0,7.0,2.0,,,,,,,,,,,,,blau,blue,b,1.0,b,1.0,0.5475260899984278,,,,,,,,,,2.0,7.0,31.0,5.0,183.0295918720076,,,,,,,,,,,,,,,,,183.01406632200812,183.36451601701265,184.1653110220068,184.14985537700704,,,,,,,,,,,,,,,,,,,,,,,,,,,,,,,,,,,184.15437376699992,184.1653110220068,184.1653110220068,184.71905062800212,b,1.0,0.5475260899984278,,,,,sub-127,1,stroop_test,59.0653178095238,
,,,,32.0,8.0,2.0,,,,,,,,,,,,,blau,blue,b,1.0,b,1.0,0.436896555009298,,,,,,,,,,2.0,8.0,32.0,6.0,184.73384793700825,,,,,,,,,,,,,,,,,184.7193853839999,185.5200315240072,186.32222669200564,186.3062651590008,,,,,,,,,,,,,,,,,,,,,,,,,,,,,,,,,,,186.3069655490108,186.32222669200564,186.32222669200564,186.77457301400136,b,1.0,0.436896555009298,,,,,sub-127,1,stroop_test,59.0653178095238,
,,,,33.0,9.0,2.0,,,,,,,,,,,,,gelb,yellow,g,1.0,g,1.0,0.5131912739889231,,,,,,,,,,2.0,9.0,33.0,11.0,186.7892701920064,,,,,,,,,,,,,,,,,186.7749378740118,187.1242020570062,187.9254502320109,187.90917713400268,,,,,,,,,,,,,,,,,,,,,,,,,,,,,,,,,,,187.9123610220122,187.9254502320109,187.9254502320109,188.4451158830052,g,1.0,0.5131912739889231,,,,,sub-127,1,stroop_test,59.0653178095238,
,,,,34.0,10.0,2.0,,,,,,,,,,,,,blau,yellow,g,0.0,b,0.0,0.4913434659974882,,,,,,,,,,2.0,10.0,34.0,7.0,188.4607092480001,,,,,,,,,,,,,,,,,188.4454353100009,188.7958158320107,189.5979914570053,189.5816665390012,,,,,,,,,,,,,,,,,,,,,,,,,,,,,,,,,,,189.5860187820072,189.5979914570053,189.5979914570053,190.10026637400733,b,0.0,0.4913434659974882,,,,,sub-127,1,stroop_test,59.0653178095238,
,,,,35.0,11.0,2.0,,,,,,,,,,,,,gelb,yellow,g,1.0,g,1.0,0.8632462539972039,,,,,,,,,,2.0,11.0,35.0,10.0,190.11443405800676,,,,,,,,,,,,,,,,,190.10063505500148,190.21464785801072,191.01737076201243,191.00137735401225,,,,,,,,,,,,,,,,,,,,,,,,,,,,,,,,,,,191.00390898401383,191.01737076201243,191.01737076201243,191.88770906400168,g,1.0,0.8632462539972039,,,,,sub-127,1,stroop_test,59.0653178095238,
,,,,36.0,0.0,3.0,,,,,,,,,,,,,gelb,blue,b,0.0,b,1.0,0.6732217020035023,,,,,,,,,,3.0,0.0,36.0,9.0,191.90309637800965,,,,,,,,,,,,,,,,,191.88802312800544,192.68924168200465,193.4907558039995,193.47568035400764,,,,,,,,,,,,,,,,,,,,,,,,,,,,,,,,,,,193.4764089119999,193.4907558039995,193.4907558039995,194.1777735280048,b,1.0,0.6732217020035023,,,,,sub-127,1,stroop_test,59.0653178095238,
,,,,37.0,1.0,3.0,,,,,,,,,,,,,rot,red,r,1.0,r,1.0,0.7768381760106422,,,,,,,,,,3.0,1.0,37.0,0.0,194.1930479870061,,,,,,,,,,,,,,,,,194.17814578801332,194.97791420201247,195.78076942500772,195.7650492540124,,,,,,,,,,,,,,,,,,,,,,,,,,,,,,,,,,,195.77014104201223,195.78076942500772,195.78076942500772,196.56842192201293,r,1.0,0.7768381760106422,,,,,sub-127,1,stroop_test,59.0653178095238,
,,,,38.0,2.0,3.0,,,,,,,,,,,,,gelb,yellow,g,1.0,g,1.0,0.5269163729972206,,,,,,,,,,3.0,2.0,38.0,11.0,196.58252196401008,,,,,,,,,,,,,,,,,196.56882114401375,197.36841390200425,198.17147169201053,198.15484276200004,,,,,,,,,,,,,,,,,,,,,,,,,,,,,,,,,,,198.15927214900148,198.17147169201053,198.17147169201053,198.70773072600423,g,1.0,0.5269163729972206,,,,,sub-127,1,stroop_test,59.0653178095238,
,,,,39.0,3.0,3.0,,,,,,,,,,,,,blau,red,r,0.0,r,1.0,1.4469633080007045,,,,,,,,,,3.0,3.0,39.0,4.0,198.7211178180005,,,,,,,,,,,,,,,,,198.7081549860013,199.50767185400764,200.30912929000624,200.29398066901197,,,,,,,,,,,,,,,,,,,,,,,,,,,,,,,,,,,200.29825802901175,200.30912929000624,200.30912929000624,201.7646321150096,r,1.0,1.4469633080007045,,,,,sub-127,1,stroop_test,59.0653178095238,
,,,,40.0,4.0,3.0,,,,,,,,,,,,,gelb,red,r,0.0,r,1.0,0.811008042001049,,,,,,,,,,3.0,4.0,40.0,8.0,201.7797397079994,,,,,,,,,,,,,,,,,201.76493772500544,202.5656205520063,203.36831688201343,203.3518712570076,,,,,,,,,,,,,,,,,,,,,,,,,,,,,,,,,,,203.356187412006,203.36831688201343,203.36831688201343,204.18873678000816,r,1.0,0.811008042001049,,,,,sub-127,1,stroop_test,59.0653178095238,
,,,,41.0,5.0,3.0,,,,,,,,,,,,,rot,red,r,1.0,r,1.0,0.67097079398809,,,,,,,,,,3.0,5.0,41.0,1.0,204.20263518900904,,,,,,,,,,,,,,,,,204.18920598601107,205.38999124900147,206.19111219600015,206.17544463201196,,,,,,,,,,,,,,,,,,,,,,,,,,,,,,,,,,,206.1782174540131,206.19111219600015,206.19111219600015,206.8768795900105,r,1.0,0.67097079398809,,,,,sub-127,1,stroop_test,59.0653178095238,
,,,,42.0,6.0,3.0,,,,,,,,,,,,,rot,yellow,g,0.0,r,0.0,0.9222148150001884,,,,,,,,,,3.0,6.0,42.0,3.0,206.8935895300092,,,,,,,,,,,,,,,,,206.87720463699952,206.97662051000225,207.77885624900227,207.76379333200748,,,,,,,,,,,,,,,,,,,,,,,,,,,,,,,,,,,207.76451298400931,207.77885624900227,207.77885624900227,208.7161521770031,r,0.0,0.9222148150001884,,,,,sub-127,1,stroop_test,59.0653178095238,
,,,,43.0,7.0,3.0,,,,,,,,,,,,,blau,yellow,g,0.0,b,0.0,1.211791110006743,,,,,,,,,,3.0,7.0,43.0,7.0,208.73185494700735,,,,,,,,,,,,,,,,,208.7164616680093,208.8149819470127,209.6170038380078,209.60087652600487,,,,,,,,,,,,,,,,,,,,,,,,,,,,,,,,,,,209.60358285300023,209.6170038380078,209.6170038380078,210.83905239200976,b,0.0,1.211791110006743,,,,,sub-127,1,stroop_test,59.0653178095238,
,,,,44.0,8.0,3.0,,,,,,,,,,,,,gelb,yellow,g,1.0,g,1.0,0.4753451249998761,,,,,,,,,,3.0,8.0,44.0,10.0,210.85399259800036,,,,,,,,,,,,,,,,,210.8394150380045,211.63993036700413,212.4411530120124,212.426098284006,,,,,,,,,,,,,,,,,,,,,,,,,,,,,,,,,,,212.43022906700207,212.4411530120124,212.4411530120124,212.9275839280017,g,1.0,0.4753451249998761,,,,,sub-127,1,stroop_test,59.0653178095238,
,,,,45.0,9.0,3.0,,,,,,,,,,,,,rot,blue,b,0.0,r,0.0,0.52786876000755,,,,,,,,,,3.0,9.0,45.0,2.0,212.94258807200825,,,,,,,,,,,,,,,,,212.92789750800875,213.27755194700148,214.0798227520136,214.06385120400228,,,,,,,,,,,,,,,,,,,,,,,,,,,,,,,,,,,214.0689340220124,214.0798227520136,214.0798227520136,214.6167965420027,r,0.0,0.52786876000755,,,,,sub-127,1,stroop_test,59.0653178095238,
,,,,46.0,10.0,3.0,,,,,,,,,,,,,blau,blue,b,1.0,b,1.0,0.4885665210022125,,,,,,,,,,3.0,10.0,46.0,6.0,214.63014794900664,,,,,,,,,,,,,,,,,214.6172388289997,215.4163931020012,216.2181862980069,216.20240877900503,,,,,,,,,,,,,,,,,,,,,,,,,,,,,,,,,,,216.20550665201156,216.2181862980069,216.2181862980069,216.72271622200788,b,1.0,0.4885665210022125,,,,,sub-127,1,stroop_test,59.0653178095238,
,,,,47.0,11.0,3.0,,,,,,,,,,,,,blau,blue,b,1.0,b,1.0,0.5076807529985672,,,,,,,,,,3.0,11.0,47.0,5.0,216.73698524400243,,,,,,,,,,,,,,,,,216.72326232701016,217.52248388901356,218.3243296490109,218.3085578419996,,,,,,,,,,,,,,,,,,,,,,,,,,,,,,,,,,,218.309258882,218.3243296490109,218.3243296490109,218.8440399980027,b,1.0,0.5076807529985672,,,,,sub-127,1,stroop_test,59.0653178095238,
,,,,48.0,0.0,4.0,,,,,,,,,,,,,blau,yellow,g,0.0,g,1.0,0.6226763230079086,,,,,,,,,,4.0,0.0,48.0,7.0,218.85822741800803,,,,,,,,,,,,,,,,,218.84441882600368,218.9591264990013,219.76146535400767,219.74595967700589,,,,,,,,,,,,,,,,,,,,,,,,,,,,,,,,,,,219.74667033700095,219.76146535400767,219.76146535400767,220.39768341700253,g,1.0,0.6226763230079086,,,,,sub-127,1,stroop_test,59.0653178095238,
,,,,49.0,1.0,4.0,,,,,,,,,,,,,rot,red,r,1.0,r,1.0,1.243193957998301,,,,,,,,,,4.0,1.0,49.0,1.0,220.41305574901344,,,,,,,,,,,,,,,,,220.3981212540093,221.59975673400916,222.40154465200607,222.3862832790037,,,,,,,,,,,,,,,,,,,,,,,,,,,,,,,,,,,222.3906140420004,222.40154465200607,222.40154465200607,223.65674715000205,r,1.0,1.243193957998301,,,,,sub-127,1,stroop_test,59.0653178095238,
,,,,50.0,2.0,4.0,,,,,,,,,,,,,blau,blue,b,1.0,b,1.0,0.6211491420108359,,,,,,,,,,4.0,2.0,50.0,5.0,223.67116278600588,,,,,,,,,,,,,,,,,223.6571262750076,224.45759237201128,225.259095788002,225.2439825120091,,,,,,,,,,,,,,,,,,,,,,,,,,,,,,,,,,,225.24830631400985,225.259095788002,225.259095788002,225.89549510000504,b,1.0,0.6211491420108359,,,,,sub-127,1,stroop_test,59.0653178095238,
,,,,51.0,3.0,4.0,,,,,,,,,,,,,gelb,red,r,0.0,r,1.0,1.0038665299944114,,,,,,,,,,4.0,3.0,51.0,8.0,225.91037472400055,,,,,,,,,,,,,,,,,225.89585988801264,226.6958345260064,227.49784166600148,227.4824006320123,,,,,,,,,,,,,,,,,,,,,,,,,,,,,,,,,,,227.4850929950044,227.49784166600148,227.49784166600148,228.51846538300745,r,1.0,1.0038665299944114,,,,,sub-127,1,stroop_test,59.0653178095238,
,,,,52.0,4.0,4.0,,,,,,,,,,,,,rot,yellow,g,0.0,g,1.0,0.9213564129895532,,,,,,,,,,4.0,4.0,52.0,3.0,228.5340660320071,,,,,,,,,,,,,,,,,228.51886324801308,228.86830950800504,229.67151576401372,229.65551862400025,,,,,,,,,,,,,,,,,,,,,,,,,,,,,,,,,,,229.65981795200787,229.67151576401372,229.67151576401372,230.6078544440097,g,1.0,0.9213564129895532,,,,,sub-127,1,stroop_test,59.0653178095238,
,,,,53.0,5.0,4.0,,,,,,,,,,,,,rot,blue,b,0.0,b,1.0,0.6816966199985472,,,,,,,,,,4.0,5.0,53.0,2.0,230.62292270601029,,,,,,,,,,,,,,,,,230.6081449330086,231.8102111370099,232.61277459400296,232.59655739700247,,,,,,,,,,,,,,,,,,,,,,,,,,,,,,,,,,,232.59728431700205,232.61277459400296,232.61277459400296,233.2991460750054,b,1.0,0.6816966199985472,,,,,sub-127,1,stroop_test,59.0653178095238,
,,,,54.0,6.0,4.0,,,,,,,,,,,,,rot,red,r,1.0,r,1.0,0.5240543989930302,,,,,,,,,,4.0,6.0,54.0,0.0,233.3138238829997,,,,,,,,,,,,,,,,,233.2994666400045,234.0989157800068,234.9010071590019,234.88519962401188,,,,,,,,,,,,,,,,,,,,,,,,,,,,,,,,,,,234.8857791440096,234.9010071590019,234.9010071590019,235.438131228002,r,1.0,0.5240543989930302,,,,,sub-127,1,stroop_test,59.0653178095238,
,,,,55.0,7.0,4.0,,,,,,,,,,,,,blau,red,r,0.0,r,1.0,0.5094240070029628,,,,,,,,,,4.0,7.0,55.0,4.0,235.45243331900565,,,,,,,,,,,,,,,,,235.43849367600345,235.55287696600132,236.355469482005,236.33939576700504,,,,,,,,,,,,,,,,,,,,,,,,,,,,,,,,,,,236.34367644801387,236.355469482005,236.355469482005,236.8742157230008,r,1.0,0.5094240070029628,,,,,sub-127,1,stroop_test,59.0653178095238,
,,,,56.0,8.0,4.0,,,,,,,,,,,,,gelb,blue,b,0.0,b,1.0,0.4273381149978377,,,,,,,,,,4.0,8.0,56.0,9.0,236.8896364060056,,,,,,,,,,,,,,,,,236.8745359690074,237.2240306520107,238.02657124200775,238.00988642800075,,,,,,,,,,,,,,,,,,,,,,,,,,,,,,,,,,,238.01224607801123,238.02657124200775,238.02657124200775,238.46237518300768,b,1.0,0.4273381149978377,,,,,sub-127,1,stroop_test,59.0653178095238,
,,,,57.0,9.0,4.0,,,,,,,,,,,,,blau,blue,b,1.0,b,1.0,0.7100404200027697,,,,,,,,,,4.0,9.0,57.0,6.0,238.4771660670085,,,,,,,,,,,,,,,,,238.4627165080019,238.81236957901277,239.6143434070109,239.5990315240051,,,,,,,,,,,,,,,,,,,,,,,,,,,,,,,,,,,239.60338879401388,239.6143434070109,239.6143434070109,240.33521619001112,b,1.0,0.7100404200027697,,,,,sub-127,1,stroop_test,59.0653178095238,
,,,,58.0,10.0,4.0,,,,,,,,,,,,,gelb,yellow,g,1.0,r,0.0,0.3929856210015714,,,,,,,,,,4.0,10.0,58.0,11.0,240.3493799140124,,,,,,,,,,,,,,,,,240.3355800640129,241.1352595470089,241.93655812300855,241.92084085200625,,,,,,,,,,,,,,,,,,,,,,,,,,,,,,,,,,,241.9235974220064,241.93655812300855,241.93655812300855,242.3396176180104,r,0.0,0.3929856210015714,,,,,sub-127,1,stroop_test,59.0653178095238,
,,,,59.0,11.0,4.0,,,,,,,,,,,,,gelb,yellow,g,1.0,r,0.0,0.4860409980028635,,,,,,,,,,4.0,11.0,59.0,10.0,242.35488332000384,,,,,,,,,,,,,,,,,242.33998144500947,242.6885675520025,243.4916139920097,243.47599046899995,,,,,,,,,,,,,,,,,,,,,,,,,,,,,,,,,,,243.4767311240139,243.4916139920097,243.4916139920097,243.99282439801027,r,0.0,0.4860409980028635,,,,,sub-127,1,stroop_test,59.0653178095238,
,,,,60.0,0.0,5.0,,,,,,,,,,,,,blau,blue,b,1.0,b,1.0,0.5550818350020563,,,,,,,,,,5.0,0.0,60.0,6.0,244.00887125800364,,,,,,,,,,,,,,,,,243.99314568500267,244.34286609801347,245.14498258200183,245.1295049170003,,,,,,,,,,,,,,,,,,,,,,,,,,,,,,,,,,,245.13225262401104,245.14498258200183,245.14498258200183,245.71510320701051,b,1.0,0.5550818350020563,,,,,sub-127,1,stroop_test,59.0653178095238,
,,,,61.0,1.0,5.0,,,,,,,,,,,,,gelb,blue,b,0.0,b,1.0,0.6554246449959464,,,,,,,,,,5.0,1.0,61.0,9.0,245.7305245680036,,,,,,,,,,,,,,,,,245.71539289300563,245.8301967139996,246.63406626900544,246.61786455201215,,,,,,,,,,,,,,,,,,,,,,,,,,,,,,,,,,,246.62222302400917,246.63406626900544,246.63406626900544,247.302587557002,b,1.0,0.6554246449959464,,,,,sub-127,1,stroop_test,59.0653178095238,
,,,,62.0,2.0,5.0,,,,,,,,,,,,,gelb,yellow,g,1.0,g,1.0,0.5224785350001184,,,,,,,,,,5.0,2.0,62.0,10.0,247.3175483660016,,,,,,,,,,,,,,,,,247.30288909900992,247.65300828700128,248.45501057400543,248.439439867012,,,,,,,,,,,,,,,,,,,,,,,,,,,,,,,,,,,248.44015190401117,248.45501057400543,248.45501057400543,248.9910496800003,g,1.0,0.5224785350001184,,,,,sub-127,1,stroop_test,59.0653178095238,
,,,,63.0,3.0,5.0,,,,,,,,,,,,,blau,blue,b,1.0,b,1.0,0.5363127020100364,,,,,,,,,,5.0,3.0,63.0,5.0,249.0056216390076,,,,,,,,,,,,,,,,,248.9914250740112,249.3404410920048,250.1420014720061,250.12589954400028,,,,,,,,,,,,,,,,,,,,,,,,,,,,,,,,,,,250.12901787800365,250.1420014720061,250.1420014720061,250.68196064401127,b,1.0,0.5363127020100364,,,,,sub-127,1,stroop_test,59.0653178095238,
,,,,64.0,4.0,5.0,,,,,,,,,,,,,gelb,red,r,0.0,r,1.0,0.6107846359955147,,,,,,,,,,5.0,4.0,64.0,8.0,250.69314256201324,,,,,,,,,,,,,,,,,250.68242068700783,251.4964675190131,252.2978201980004,252.2821695599996,,,,,,,,,,,,,,,,,,,,,,,,,,,,,,,,,,,252.2851213190006,252.2978201980004,252.2978201980004,252.9190330900019,r,1.0,0.6107846359955147,,,,,sub-127,1,stroop_test,59.0653178095238,
,,,,65.0,5.0,5.0,,,,,,,,,,,,,blau,red,r,0.0,r,1.0,0.7626106169918785,,,,,,,,,,5.0,5.0,65.0,4.0,252.9331623640028,,,,,,,,,,,,,,,,,252.9193979140109,253.7188775520044,254.52036105000295,254.50422945000173,,,,,,,,,,,,,,,,,,,,,,,,,,,,,,,,,,,254.5068266740127,254.52036105000295,254.52036105000295,255.2921858040063,r,1.0,0.7626106169918785,,,,,sub-127,1,stroop_test,59.0653178095238,
,,,,66.0,6.0,5.0,,,,,,,,,,,,,blau,yellow,g,0.0,g,1.0,0.7399286470026709,,,,,,,,,,5.0,6.0,66.0,7.0,255.3053018260107,,,,,,,,,,,,,,,,,255.29262687900336,256.092000759003,256.89399565401254,256.87813833900145,,,,,,,,,,,,,,,,,,,,,,,,,,,,,,,,,,,256.87885912900674,256.89399565401254,256.89399565401254,257.6465142500092,g,1.0,0.7399286470026709,,,,,sub-127,1,stroop_test,59.0653178095238,
,,,,67.0,7.0,5.0,,,,,,,,,,,,,rot,yellow,g,0.0,r,0.0,0.4476639500062447,,,,,,,,,,5.0,7.0,67.0,3.0,257.66187034200993,,,,,,,,,,,,,,,,,257.6468446630024,258.4482255320036,259.2505887580046,259.2348652520013,,,,,,,,,,,,,,,,,,,,,,,,,,,,,,,,,,,259.23912495900004,259.2505887580046,259.2505887580046,259.70472513200366,r,0.0,0.4476639500062447,,,,,sub-127,1,stroop_test,59.0653178095238,
,,,,68.0,8.0,5.0,,,,,,,,,,,,,rot,red,r,1.0,r,1.0,0.7433067090023542,,,,,,,,,,5.0,8.0,68.0,0.0,259.71733518601104,,,,,,,,,,,,,,,,,259.7051653870003,259.8186126220098,260.61984043801203,260.60518104900257,,,,,,,,,,,,,,,,,,,,,,,,,,,,,,,,,,,260.6058723919996,260.61984043801203,260.61984043801203,261.37411606400565,r,1.0,0.7433067090023542,,,,,sub-127,1,stroop_test,59.0653178095238,
,,,,69.0,9.0,5.0,,,,,,,,,,,,,rot,blue,b,0.0,g,0.0,0.9885822670039488,,,,,,,,,,5.0,9.0,69.0,2.0,261.3888985500089,,,,,,,,,,,,,,,,,261.37450974401145,261.7399550560076,262.5426148770057,262.5265452790045,,,,,,,,,,,,,,,,,,,,,,,,,,,,,,,,,,,262.5272414840001,262.5426148770057,262.5426148770057,263.5460605440021,g,0.0,0.9885822670039488,,,,,sub-127,1,stroop_test,59.0653178095238,
,,,,70.0,10.0,5.0,,,,,,,,,,,,,rot,red,r,1.0,r,1.0,1.1883908430027077,,,,,,,,,,5.0,10.0,70.0,1.0,263.5614503000106,,,,,,,,,,,,,,,,,263.5464248220087,263.8964015439997,264.69861661701,264.6823417820124,,,,,,,,,,,,,,,,,,,,,,,,,,,,,,,,,,,264.6830431270064,264.69861661701,264.69861661701,265.9026359740092,r,1.0,1.1883908430027077,,,,,sub-127,1,stroop_test,59.0653178095238,
,,,,71.0,11.0,5.0,,,,,,,,,,,,,gelb,yellow,g,1.0,g,1.0,0.6202731179946568,,,,,,,,,,5.0,11.0,71.0,11.0,265.9178503740113,,,,,,,,,,,,,,,,,265.90307965601096,266.7031574900029,267.50492505200964,267.48891676000494,,,,,,,,,,,,,,,,,,,,,,,,,,,,,,,,,,,267.49150260300667,267.50492505200964,267.50492505200964,268.14204587601125,g,1.0,0.6202731179946568,,,,,sub-127,1,stroop_test,59.0653178095238,
,,,,72.0,0.0,6.0,,,,,,,,,,,,,blau,blue,b,1.0,b,1.0,0.5522758729930501,,,,,,,,,,6.0,0.0,72.0,5.0,268.156459388003,,,,,,,,,,,,,,,,,268.1424106520135,268.94196916201327,269.7457511740067,269.7293674320099,,,,,,,,,,,,,,,,,,,,,,,,,,,,,,,,,,,269.73366398400685,269.7457511740067,269.7457511740067,270.31304186501075,b,1.0,0.5522758729930501,,,,,sub-127,1,stroop_test,59.0653178095238,
,,,,73.0,1.0,6.0,,,,,,,,,,,,,gelb,yellow,g,1.0,g,1.0,0.704127414006507,,,,,,,,,,6.0,1.0,73.0,11.0,270.3295463270042,,,,,,,,,,,,,,,,,270.31334945400886,270.41242994701315,271.21569332201034,271.19977533401106,,,,,,,,,,,,,,,,,,,,,,,,,,,,,,,,,,,271.20421486900887,271.21569332201034,271.21569332201034,271.9350098440045,g,1.0,0.704127414006507,,,,,sub-127,1,stroop_test,59.0653178095238,
,,,,74.0,2.0,6.0,,,,,,,,,,,,,gelb,yellow,g,1.0,g,1.0,1.0216516749933362,,,,,,,,,,6.0,2.0,74.0,10.0,271.950248248002,,,,,,,,,,,,,,,,,271.9353765180131,273.1368086720031,273.93966426400584,273.92420623901126,,,,,,,,,,,,,,,,,,,,,,,,,,,,,,,,,,,273.9249205970118,273.93966426400584,273.93966426400584,274.9756736820127,g,1.0,1.0216516749933362,,,,,sub-127,1,stroop_test,59.0653178095238,
,,,,75.0,3.0,6.0,,,,,,,,,,,,,rot,red,r,1.0,r,1.0,0.5570307400048478,,,,,,,,,,6.0,3.0,75.0,0.0,274.99146868400567,,,,,,,,,,,,,,,,,274.97606192401145,275.77819217900105,276.5797135120083,276.564312499002,,,,,,,,,,,,,,,,,,,,,,,,,,,,,,,,,,,276.5693870640098,276.5797135120083,276.5797135120083,277.1492067280051,r,1.0,0.5570307400048478,,,,,sub-127,1,stroop_test,59.0653178095238,
,,,,76.0,4.0,6.0,,,,,,,,,,,,,blau,yellow,g,0.0,g,1.0,0.4387493410031311,,,,,,,,,,6.0,4.0,76.0,7.0,277.1641467800073,,,,,,,,,,,,,,,,,277.1495707780123,277.49871258799976,278.3002403630089,278.2848833580065,,,,,,,,,,,,,,,,,,,,,,,,,,,,,,,,,,,278.2876335740002,278.3002403630089,278.3002403630089,278.754091314011,g,1.0,0.4387493410031311,,,,,sub-127,1,stroop_test,59.0653178095238,
,,,,77.0,5.0,6.0,,,,,,,,,,,,,rot,yellow,g,0.0,g,1.0,0.4339501350041246,,,,,,,,,,6.0,5.0,77.0,3.0,278.768374420004,,,,,,,,,,,,,,,,,278.75448002200574,279.95556802200736,280.757470416007,280.74233474400535,,,,,,,,,,,,,,,,,,,,,,,,,,,,,,,,,,,280.74657000700245,280.757470416007,280.757470416007,281.19605850700464,g,1.0,0.4339501350041246,,,,,sub-127,1,stroop_test,59.0653178095238,
,,,,78.0,6.0,6.0,,,,,,,,,,,,,gelb,red,r,0.0,r,1.0,0.905477623004117,,,,,,,,,,6.0,6.0,78.0,8.0,281.2078902820067,,,,,,,,,,,,,,,,,281.19650406700384,282.0111772770033,282.8127600450098,282.79737743901205,,,,,,,,,,,,,,,,,,,,,,,,,,,,,,,,,,,282.80151701701107,282.8127600450098,282.8127600450098,283.7332491540001,r,1.0,0.905477623004117,,,,,sub-127,1,stroop_test,59.0653178095238,
,,,,79.0,7.0,6.0,,,,,,,,,,,,,rot,red,r,1.0,r,1.0,0.7225094559980789,,,,,,,,,,6.0,7.0,79.0,1.0,283.74933856401185,,,,,,,,,,,,,,,,,283.7336257640127,283.83350261200394,284.63549234899983,284.6190664490132,,,,,,,,,,,,,,,,,,,,,,,,,,,,,,,,,,,284.6234407640004,284.63549234899983,284.63549234899983,285.3714128960128,r,1.0,0.7225094559980789,,,,,sub-127,1,stroop_test,59.0653178095238,
,,,,80.0,8.0,6.0,,,,,,,,,,,,,gelb,blue,b,0.0,b,1.0,1.0279004339972744,,,,,,,,,,6.0,8.0,80.0,9.0,285.38647726899944,,,,,,,,,,,,,,,,,285.3717770020012,285.7202044400037,286.5236959920003,286.5076097190031,,,,,,,,,,,,,,,,,,,,,,,,,,,,,,,,,,,286.5122117320134,286.5236959920003,286.5236959920003,287.5609405180003,b,1.0,1.0279004339972744,,,,,sub-127,1,stroop_test,59.0653178095238,
,,,,81.0,9.0,6.0,,,,,,,,,,,,,rot,blue,b,0.0,r,0.0,0.6538621359941317,,,,,,,,,,6.0,9.0,81.0,2.0,287.5756470530032,,,,,,,,,,,,,,,,,287.5613035520073,288.3614498870011,289.16460303201166,289.14785651401326,,,,,,,,,,,,,,,,,,,,,,,,,,,,,,,,,,,289.1521357920137,289.16460303201166,289.16460303201166,289.8331401720061,r,0.0,0.6538621359941317,,,,,sub-127,1,stroop_test,59.0653178095238,
,,,,82.0,10.0,6.0,,,,,,,,,,,,,blau,blue,b,1.0,b,1.0,0.6517667139996774,,,,,,,,,,6.0,10.0,82.0,6.0,289.84783110600256,,,,,,,,,,,,,,,,,289.83350433400483,290.63338670000667,291.43702217401005,291.4207828320068,,,,,,,,,,,,,,,,,,,,,,,,,,,,,,,,,,,291.42637530701177,291.43702217401005,291.43702217401005,292.10596206001355,b,1.0,0.6517667139996774,,,,,sub-127,1,stroop_test,59.0653178095238,
,,,,83.0,11.0,6.0,,,,,,,,,,,,,blau,red,r,0.0,g,0.0,0.6572664440027438,,,,,,,,,,6.0,11.0,83.0,4.0,292.1205896780011,,,,,,,,,,,,,,,,,292.10632453201106,292.90695299900835,293.7083682490047,293.6920524820016,,,,,,,,,,,,,,,,,,,,,,,,,,,,,,,,,,,293.6926029820024,293.7083682490047,293.7083682490047,294.3783697570034,g,0.0,0.6572664440027438,,,,,sub-127,1,stroop_test,59.0653178095238,
,,,,84.0,0.0,7.0,,,,,,,,,,,,,blau,blue,b,1.0,b,1.0,0.5367322730016895,,,,,,,,,,7.0,0.0,84.0,6.0,294.3930625590001,,,,,,,,,,,,,,,,,294.378792182004,294.72774342200137,295.5305099370016,295.51476963401365,,,,,,,,,,,,,,,,,,,,,,,,,,,,,,,,,,,295.5154673190118,295.5305099370016,295.5305099370016,296.0828791189997,b,1.0,0.5367322730016895,,,,,sub-127,1,stroop_test,59.0653178095238,
,,,,85.0,1.0,7.0,,,,,,,,,,,,,gelb,red,r,0.0,r,1.0,0.8548297300003469,,,,,,,,,,7.0,1.0,85.0,8.0,296.0980849500047,,,,,,,,,,,,,,,,,296.0832075840008,297.2853302840085,298.08687828000984,298.0704007620079,,,,,,,,,,,,,,,,,,,,,,,,,,,,,,,,,,,298.0734717960004,298.08687828000984,298.08687828000984,298.95720396601246,r,1.0,0.8548297300003469,,,,,sub-127,1,stroop_test,59.0653178095238,
,,,,86.0,2.0,7.0,,,,,,,,,,,,,blau,red,r,0.0,r,1.0,0.7772002549900208,,,,,,,,,,7.0,2.0,86.0,4.0,298.97228283601,,,,,,,,,,,,,,,,,298.95755999800167,299.75841789400147,300.5597774580092,300.5439966770064,,,,,,,,,,,,,,,,,,,,,,,,,,,,,,,,,,,300.5472591860016,300.5597774580092,300.5597774580092,301.3479238780128,r,1.0,0.7772002549900208,,,,,sub-127,1,stroop_test,59.0653178095238,
,,,,87.0,3.0,7.0,,,,,,,,,,,,,blau,yellow,g,0.0,g,1.0,0.5906242450000718,,,,,,,,,,7.0,3.0,87.0,7.0,301.3623260029999,,,,,,,,,,,,,,,,,301.34833173500374,301.7135608690005,302.51507276200573,302.49931490300514,,,,,,,,,,,,,,,,,,,,,,,,,,,,,,,,,,,302.4998171840125,302.51507276200573,302.51507276200573,303.1187557680096,g,1.0,0.5906242450000718,,,,,sub-127,1,stroop_test,59.0653178095238,
,,,,88.0,4.0,7.0,,,,,,,,,,,,,gelb,blue,b,0.0,b,1.0,0.5745133879972855,,,,,,,,,,7.0,4.0,88.0,9.0,303.1333445300115,,,,,,,,,,,,,,,,,303.11913236801047,303.2342347680096,304.0366453970055,304.020815092008,,,,,,,,,,,,,,,,,,,,,,,,,,,,,,,,,,,304.02523640700383,304.0366453970055,304.0366453970055,304.6242605590087,b,1.0,0.5745133879972855,,,,,sub-127,1,stroop_test,59.0653178095238,
,,,,89.0,5.0,7.0,,,,,,,,,,,,,gelb,yellow,g,1.0,r,0.0,0.5407766779972007,,,,,,,,,,7.0,5.0,89.0,11.0,304.63835112401284,,,,,,,,,,,,,,,,,304.6248076740012,305.82467730400094,306.6271499890136,306.6113989590085,,,,,,,,,,,,,,,,,,,,,,,,,,,,,,,,,,,306.6121195320011,306.6271499890136,306.6271499890136,307.179125708004,r,0.0,0.5407766779972007,,,,,sub-127,1,stroop_test,59.0653178095238,
,,,,90.0,6.0,7.0,,,,,,,,,,,,,rot,yellow,g,0.0,g,1.0,1.689486447008676,,,,,,,,,,7.0,6.0,90.0,3.0,307.1941627020133,,,,,,,,,,,,,,,,,307.17941936300485,308.38175082200905,309.1831151720108,309.16807826200966,,,,,,,,,,,,,,,,,,,,,,,,,,,,,,,,,,,309.17246135401365,309.1831151720108,309.1831151720108,310.87635989401315,g,1.0,1.689486447008676,,,,,sub-127,1,stroop_test,59.0653178095238,
,,,,91.0,7.0,7.0,,,,,,,,,,,,,rot,red,r,1.0,r,1.0,0.6256361830019159,,,,,,,,,,7.0,7.0,91.0,0.0,310.8874127970048,,,,,,,,,,,,,,,,,310.8768048470083,311.2381169760047,312.04123205901124,312.02544152700284,,,,,,,,,,,,,,,,,,,,,,,,,,,,,,,,,,,312.0261566469999,312.04123205901124,312.04123205901124,312.67758154201147,r,1.0,0.6256361830019159,,,,,sub-127,1,stroop_test,59.0653178095238,
,,,,92.0,8.0,7.0,,,,,,,,,,,,,blau,blue,b,1.0,b,1.0,0.4865778719977243,,,,,,,,,,7.0,8.0,92.0,5.0,312.6920950960048,,,,,,,,,,,,,,,,,312.677917360008,313.02658581400465,313.8287170170079,313.81371825400856,,,,,,,,,,,,,,,,,,,,,,,,,,,,,,,,,,,313.81843265700445,313.8287170170079,313.8287170170079,314.33213099700515,b,1.0,0.4865778719977243,,,,,sub-127,1,stroop_test,59.0653178095238,
,,,,93.0,9.0,7.0,,,,,,,,,,,,,gelb,yellow,g,1.0,g,1.0,0.5132252600014908,,,,,,,,,,7.0,9.0,93.0,10.0,314.34666147500684,,,,,,,,,,,,,,,,,314.33257050400425,314.4474571620085,315.24911936800345,315.23312659200747,,,,,,,,,,,,,,,,,,,,,,,,,,,,,,,,,,,315.23574767301034,315.24911936800345,315.24911936800345,315.76868527200713,g,1.0,0.5132252600014908,,,,,sub-127,1,stroop_test,59.0653178095238,
,,,,94.0,10.0,7.0,,,,,,,,,,,,,rot,red,r,1.0,r,1.0,0.5220486629987136,,,,,,,,,,7.0,10.0,94.0,1.0,315.7838755700068,,,,,,,,,,,,,,,,,315.7689749650017,316.11865833200864,316.9205721070029,316.9043332100118,,,,,,,,,,,,,,,,,,,,,,,,,,,,,,,,,,,316.9069205150008,316.9205721070029,316.9205721070029,317.45710196600703,r,1.0,0.5220486629987136,,,,,sub-127,1,stroop_test,59.0653178095238,
,,,,95.0,11.0,7.0,,,,,,,,,,,,,rot,blue,b,0.0,b,1.0,0.7995253269909881,,,,,,,,,,7.0,11.0,95.0,2.0,317.4714920880069,,,,,,,,,,,,,,,,,317.45746563200373,317.57183337400784,318.3749958219996,318.3589233290113,,,,,,,,,,,,,,,,,,,,,,,,,,,,,,,,,,,318.359635204004,318.3749958219996,318.3749958219996,319.17847058500047,b,1.0,0.7995253269909881,,,,,sub-127,1,stroop_test,59.0653178095238,
,,,,96.0,0.0,8.0,,,,,,,,,,,,,gelb,yellow,g,1.0,g,1.0,0.551863950007828,,,,,,,,,,8.0,0.0,96.0,11.0,319.1929190370138,,,,,,,,,,,,,,,,,319.1787894320005,319.9790454090107,320.7821987320058,320.76543031701294,,,,,,,,,,,,,,,,,,,,,,,,,,,,,,,,,,,320.7697093720053,320.7821987320058,320.7821987320058,321.34945917000005,g,1.0,0.551863950007828,,,,,sub-127,1,stroop_test,59.0653178095238,
,,,,97.0,1.0,8.0,,,,,,,,,,,,,gelb,red,r,0.0,r,1.0,0.5731388309941394,,,,,,,,,,8.0,1.0,97.0,8.0,321.3653625240113,,,,,,,,,,,,,,,,,321.34977375699964,322.5529333420127,323.3543400970084,323.33827558200574,,,,,,,,,,,,,,,,,,,,,,,,,,,,,,,,,,,323.3388553790137,323.3543400970084,323.3543400970084,323.9407196460088,r,1.0,0.5731388309941394,,,,,sub-127,1,stroop_test,59.0653178095238,
,,,,98.0,2.0,8.0,,,,,,,,,,,,,rot,red,r,1.0,r,1.0,0.858307122005499,,,,,,,,,,8.0,2.0,98.0,1.0,323.9555953119998,,,,,,,,,,,,,,,,,323.94110133399954,324.0563953920064,324.8577529700124,324.8430638090067,,,,,,,,,,,,,,,,,,,,,,,,,,,,,,,,,,,324.84705877900706,324.8577529700124,324.8577529700124,325.72914851600945,r,1.0,0.858307122005499,,,,,sub-127,1,stroop_test,59.0653178095238,
,,,,99.0,3.0,8.0,,,,,,,,,,,,,gelb,yellow,g,1.0,g,1.0,1.13844364900433,,,,,,,,,,8.0,3.0,99.0,10.0,325.74368545600737,,,,,,,,,,,,,,,,,325.7295198900101,326.0790594170103,326.88096979400143,326.86493098700885,,,,,,,,,,,,,,,,,,,,,,,,,,,,,,,,,,,326.86930985400977,326.88096979400143,326.88096979400143,328.0352230940043,g,1.0,1.13844364900433,,,,,sub-127,1,stroop_test,59.0653178095238,
,,,,100.0,4.0,8.0,,,,,,,,,,,,,blau,red,r,0.0,r,1.0,0.6641629119985737,,,,,,,,,,8.0,4.0,100.0,4.0,328.0497033170104,,,,,,,,,,,,,,,,,328.0356714080117,329.23714194700005,330.0381439230114,330.0234910690051,,,,,,,,,,,,,,,,,,,,,,,,,,,,,,,,,,,330.0282951820118,330.0381439230114,330.0381439230114,330.7108410540095,r,1.0,0.6641629119985737,,,,,sub-127,1,stroop_test,59.0653178095238,
,,,,101.0,5.0,8.0,,,,,,,,,,,,,rot,red,r,1.0,r,1.0,0.4996098389965482,,,,,,,,,,8.0,5.0,101.0,0.0,330.7236001860001,,,,,,,,,,,,,,,,,330.71127968200017,331.91088373900857,332.7123250920122,332.69638126900827,,,,,,,,,,,,,,,,,,,,,,,,,,,,,,,,,,,332.699451026012,332.7123250920122,332.7123250920122,333.21802146900154,r,1.0,0.4996098389965482,,,,,sub-127,1,stroop_test,59.0653178095238,
,,,,102.0,6.0,8.0,,,,,,,,,,,,,rot,yellow,g,0.0,g,1.0,0.8273408099921653,,,,,,,,,,8.0,6.0,102.0,3.0,333.2306549400091,,,,,,,,,,,,,,,,,333.2184617470048,334.417777382012,335.2190798220108,335.20320272201207,,,,,,,,,,,,,,,,,,,,,,,,,,,,,,,,,,,335.2037081740127,335.2190798220108,335.2190798220108,336.05746952901245,g,1.0,0.8273408099921653,,,,,sub-127,1,stroop_test,59.0653178095238,
,,,,103.0,7.0,8.0,,,,,,,,,,,,,blau,blue,b,1.0,b,1.0,0.5841519759997027,,,,,,,,,,8.0,7.0,103.0,5.0,336.0717927020014,,,,,,,,,,,,,,,,,336.05790704200626,336.42308633201174,337.22649032401387,337.20972771401284,,,,,,,,,,,,,,,,,,,,,,,,,,,,,,,,,,,337.2141038890113,337.22649032401387,337.22649032401387,337.8279406200017,b,1.0,0.5841519759997027,,,,,sub-127,1,stroop_test,59.0653178095238,
,,,,104.0,8.0,8.0,,,,,,,,,,,,,blau,yellow,g,0.0,g,1.0,0.6627980019984534,,,,,,,,,,8.0,8.0,104.0,7.0,337.84324835200096,,,,,,,,,,,,,,,,,337.8283132200013,338.1778538320068,338.9801874920085,338.9641809420136,,,,,,,,,,,,,,,,,,,,,,,,,,,,,,,,,,,338.96491063400754,338.9801874920085,338.9801874920085,339.65161876899947,g,1.0,0.6627980019984534,,,,,sub-127,1,stroop_test,59.0653178095238,
,,,,105.0,9.0,8.0,,,,,,,,,,,,,rot,blue,b,0.0,b,1.0,1.3467507159948582,,,,,,,,,,8.0,9.0,105.0,2.0,339.66389380001056,,,,,,,,,,,,,,,,,339.65207377700426,340.85187860700535,341.6533350980026,341.63670947200444,,,,,,,,,,,,,,,,,,,,,,,,,,,,,,,,,,,341.63945955901,341.6533350980026,341.6533350980026,343.00794118401245,b,1.0,1.3467507159948582,,,,,sub-127,1,stroop_test,59.0653178095238,
,,,,106.0,10.0,8.0,,,,,,,,,,,,,blau,blue,b,1.0,b,1.0,0.470481861004373,,,,,,,,,,8.0,10.0,106.0,6.0,343.0236451840028,,,,,,,,,,,,,,,,,343.0082322470116,343.35831126700214,344.1597698120022,344.14472077401297,,,,,,,,,,,,,,,,,,,,,,,,,,,,,,,,,,,344.14898859200184,344.1597698120022,344.1597698120022,344.64646947001165,b,1.0,0.470481861004373,,,,,sub-127,1,stroop_test,59.0653178095238,
,,,,107.0,11.0,8.0,,,,,,,,,,,,,gelb,blue,b,0.0,b,1.0,0.4505658849957399,,,,,,,,,,8.0,11.0,107.0,9.0,344.6614373120101,,,,,,,,,,,,,,,,,344.6468320200074,345.0118687600043,345.8153896940057,345.79935731200385,,,,,,,,,,,,,,,,,,,,,,,,,,,,,,,,,,,345.8036894140096,345.8153896940057,345.8153896940057,346.2683495370002,b,1.0,0.4505658849957399,,,,,sub-127,1,stroop_test,59.0653178095238,
,,,,108.0,0.0,9.0,,,,,,,,,,,,,rot,red,r,1.0,r,1.0,0.5033631899859756,,,,,,,,,,9.0,0.0,108.0,1.0,346.28227677701216,,,,,,,,,,,,,,,,,346.2686427600129,346.6336871340027,347.43462776399974,347.4189011770068,,,,,,,,,,,,,,,,,,,,,,,,,,,,,,,,,,,347.4219925350044,347.43462776399974,347.43462776399974,347.95387359200686,r,1.0,0.5033631899859756,,,,,sub-127,1,stroop_test,59.0653178095238,
,,,,109.0,1.0,9.0,,,,,,,,,,,,,rot,red,r,1.0,r,1.0,0.5035509910085239,,,,,,,,,,9.0,1.0,109.0,0.0,347.970234834007,,,,,,,,,,,,,,,,,347.954185257011,348.053602333006,348.85581960200216,348.83945545401366,,,,,,,,,,,,,,,,,,,,,,,,,,,,,,,,,,,348.84003016400675,348.85581960200216,348.85581960200216,349.37606097600656,r,1.0,0.5035509910085239,,,,,sub-127,1,stroop_test,59.0653178095238,
,,,,110.0,2.0,9.0,,,,,,,,,,,,,gelb,red,r,0.0,r,1.0,1.354412158994819,,,,,,,,,,9.0,2.0,110.0,8.0,349.39057118000346,,,,,,,,,,,,,,,,,349.37643289800326,350.5777618090069,351.37986225601344,351.3638668420026,,,,,,,,,,,,,,,,,,,,,,,,,,,,,,,,,,,351.3681948670128,351.37986225601344,351.37986225601344,352.7375409619999,r,1.0,1.354412158994819,,,,,sub-127,1,stroop_test,59.0653178095238,
,,,,111.0,3.0,9.0,,,,,,,,,,,,,gelb,yellow,g,1.0,g,1.0,0.8434399480029242,,,,,,,,,,9.0,3.0,111.0,11.0,352.74890470800165,,,,,,,,,,,,,,,,,352.7379188560008,353.95293712800776,354.7545602140017,354.73908871800813,,,,,,,,,,,,,,,,,,,,,,,,,,,,,,,,,,,354.7395641720068,354.7545602140017,354.7545602140017,355.6091982120124,g,1.0,0.8434399480029242,,,,,sub-127,1,stroop_test,59.0653178095238,
,,,,112.0,4.0,9.0,,,,,,,,,,,,,blau,yellow,g,0.0,g,1.0,0.6417059560044436,,,,,,,,,,9.0,4.0,112.0,7.0,355.6235845780029,,,,,,,,,,,,,,,,,355.6095618399995,355.9745695380116,356.7775161430036,356.7617759970017,,,,,,,,,,,,,,,,,,,,,,,,,,,,,,,,,,,356.7660575820046,356.7775161430036,356.7775161430036,357.42985281700385,g,1.0,0.6417059560044436,,,,,sub-127,1,stroop_test,59.0653178095238,
,,,,113.0,5.0,9.0,,,,,,,,,,,,,gelb,blue,b,0.0,b,1.0,0.6716890950046945,,,,,,,,,,9.0,5.0,113.0,9.0,357.4455102860084,,,,,,,,,,,,,,,,,357.4301590490068,357.546138264006,358.3481053170108,358.3317263740028,,,,,,,,,,,,,,,,,,,,,,,,,,,,,,,,,,,358.33466993000184,358.3481053170108,358.3481053170108,359.0348393460008,b,1.0,0.6716890950046945,,,,,sub-127,1,stroop_test,59.0653178095238,
,,,,114.0,6.0,9.0,,,,,,,,,,,,,blau,blue,b,1.0,b,1.0,0.7073225149943028,,,,,,,,,,9.0,6.0,114.0,5.0,359.0494710839994,,,,,,,,,,,,,,,,,359.03521688201,359.8354442020064,360.6383111820032,360.62232554200455,,,,,,,,,,,,,,,,,,,,,,,,,,,,,,,,,,,360.6266760170111,360.6383111820032,360.6383111820032,361.35738788801245,b,1.0,0.7073225149943028,,,,,sub-127,1,stroop_test,59.0653178095238,
,,,,115.0,7.0,9.0,,,,,,,,,,,,,blau,red,r,0.0,r,1.0,0.7787987799965777,,,,,,,,,,9.0,7.0,115.0,4.0,361.37226967200695,,,,,,,,,,,,,,,,,361.357752640004,361.4565981640044,362.2582404190034,362.2424992940069,,,,,,,,,,,,,,,,,,,,,,,,,,,,,,,,,,,362.2430176320049,362.2582404190034,362.2582404190034,363.0452160520072,r,1.0,0.7787987799965777,,,,,sub-127,1,stroop_test,59.0653178095238,
,,,,116.0,8.0,9.0,,,,,,,,,,,,,rot,yellow,g,0.0,g,1.0,1.2943528199975844,,,,,,,,,,9.0,8.0,116.0,3.0,363.05998191901017,,,,,,,,,,,,,,,,,363.0455824900128,363.8463795620046,364.6488221890031,364.6325122790004,,,,,,,,,,,,,,,,,,,,,,,,,,,,,,,,,,,364.636772747006,364.6488221890031,364.6488221890031,365.9547782790032,g,1.0,1.2943528199975844,,,,,sub-127,1,stroop_test,59.0653178095238,
,,,,117.0,9.0,9.0,,,,,,,,,,,,,gelb,yellow,g,1.0,g,1.0,0.7348335499991663,,,,,,,,,,9.0,9.0,117.0,10.0,365.9678487860074,,,,,,,,,,,,,,,,,365.955257419002,366.0692006390018,366.8711050180136,366.85529062201385,,,,,,,,,,,,,,,,,,,,,,,,,,,,,,,,,,,366.86049237700354,366.8711050180136,366.8711050180136,367.6103822120058,g,1.0,0.7348335499991663,,,,,sub-127,1,stroop_test,59.0653178095238,
,,,,118.0,10.0,9.0,,,,,,,,,,,,,blau,blue,b,1.0,b,1.0,1.6018041829956928,,,,,,,,,,9.0,10.0,118.0,6.0,367.6222507660132,,,,,,,,,,,,,,,,,367.6108292020072,367.7231295340025,368.5245988420065,368.50887561200943,,,,,,,,,,,,,,,,,,,,,,,,,,,,,,,,,,,368.51171293700463,368.5245988420065,368.5245988420065,370.13302012700296,b,1.0,1.6018041829956928,,,,,sub-127,1,stroop_test,59.0653178095238,
,,,,119.0,11.0,9.0,,,,,,,,,,,,,rot,blue,b,0.0,b,1.0,1.1070600600069156,,,,,,,,,,9.0,11.0,119.0,2.0,370.1458873240044,,,,,,,,,,,,,,,,,370.1334656990075,371.333042519007,372.1354426870093,372.11932607401104,,,,,,,,,,,,,,,,,,,,,,,,,,,,,,,,,,,372.1235759490082,372.1354426870093,372.1354426870093,373.2561946180067,b,1.0,1.1070600600069156,,,,,sub-127,1,stroop_test,59.0653178095238,
,,,,,,,,,,,,,,,,,,,,,,,,,,,,,,,,,,,,,,,,,,,,,,,,,,,,,,,,,,,,,,,,,,,,,,,,,,,,,,,,,,,,,,,,,,,,,,,,,,,,,,373.256385546003,373.2709747930057,378.26788317500905,sub-127,1,stroop_test,59.0653178095238,
