wordCTK,colorCTK,corrAnsCTK,congruentCTK,thisN,thisTrialN,thisRepN,keyResp_CTK.keys,keyResp_CTK.corr,keyResp_CTK.rt,keyResp_CTK.duration,wordPractice,colorPractice,corrAnsPractice,congruentPractice,respPractice.keys,respPractice.corr,respPractice.rt,respPractice.duration,word,color,corrAns,congruent,keyResp_test_run.keys,keyResp_test_run.corr,keyResp_test_run.rt,keyResp_test_run.duration,trials_CTK.thisRepN,trials_CTK.thisTrialN,trials_CTK.thisN,trials_CTK.thisIndex,trials_practice.thisRepN,trials_practice.thisTrialN,trials_practice.thisN,trials_practice.thisIndex,trials_test.thisRepN,trials_test.thisTrialN,trials_test.thisN,trials_test.thisIndex,thisRow.t,notes,instruction.started,instr_text.started,instr_image.started,instr_resp.started,instruction.stopped,instr_resp.keys,instr_resp.rt,instr_resp.duration,instr_color_to_key.started,instr_ctk.started,resp_ctk.started,instr_color_to_key.stopped,resp_ctk.keys,resp_ctk.rt,resp_ctk.duration,ITI.started,fixcross.started,fixcross.stopped,ITI.stopped,color_to_key_run.started,stimulus_CTK.started,keyResp_CTK.started,color_to_key_run.stopped,trials_CTK.keyResp_CTK.keys,trials_CTK.keyResp_CTK.corr,trials_CTK.keyResp_CTK.rt,trials_CTK.keyResp_CTK.duration,instr_practice.started,instr_practice_text.started,instr_practice_resp.started,instr_practice.stopped,instr_practice_resp.keys,instr_practice_resp.rt,instr_practice_resp.duration,practice_run.started,stimulus_practice.started,respPractice.started,practice_run.stopped,trials_practice.respPractice.keys,trials_practice.respPractice.corr,trials_practice.respPractice.rt,trials_practice.respPractice.duration,feedback.started,textFeedback.started,feedback.stopped,textFeedback.stopped,instr_test.started,instr_test_text.started,instr_test_resp.started,instr_test.stopped,instr_test_resp.keys,instr_test_resp.rt,instr_test_resp.duration,test_run.started,stimulus_test_run.started,keyResp_test_run.started,test_run.stopped,trials_test.keyResp_test_run.keys,trials_test.keyResp_test_run.corr,trials_test.keyResp_test_run.rt,trials_test.keyResp_test_run.duration,goodbye.started,textGoodbye.started,textGoodbye.stopped,goodbye.stopped,participant,session,expName,frameRate,Unnamed: 113
,,,,,,,,,,,,,,,,,,,,,,,,,,,,,,,,,,,,,,,,,0.0046784998849034,0.0231711000669747,0.0231711000669747,0.0231711000669747,8.571404699934646,space,8.537996100028977,,,,,,,,,,,,,,,,,,,,,,,,,,,,,,,,,,,,,,,,,,,,,,,,,,,,,,,,,,,sub-014,1,stroop_test,121.57877333834138,
,,,,,,,,,,,,,,,,,,,,,,,,,,,,,,,,,,,,,,,,,,,,,,,,,8.571469400078058,8.576083000050858,8.576083000050858,14.206907500047237,space,5.625167299993336,,,,,,,,,,,,,,,,,,,,,,,,,,,,,,,,,,,,,,,,,,,,,,,,,,,,sub-014,1,stroop_test,121.57877333834138,
test,yellow,g,1.0,0.0,0.0,0.0,g,1.0,1.0760586999822408,,,,,,,,,,,,,,,,,,0.0,0.0,0.0,1.0,,,,,,,,,14.238438100088388,,,,,,,,,,,,,,,,,14.234962099930272,14.555540699977428,15.355521900113672,15.34012209996581,15.351540599949658,15.355521900113672,15.355521900113672,16.440569099970162,g,1.0,1.0760586999822408,,,,,,,,,,,,,,,,,,,,,,,,,,,,,,,,,,,,,,,,sub-014,1,stroop_test,121.57877333834138,
test,blue,b,1.0,1.0,1.0,0.0,b,1.0,1.0581410001032054,,,,,,,,,,,,,,,,,,0.0,1.0,1.0,2.0,,,,,,,,,16.447265699971467,,,,,,,,,,,,,,,,,16.441072900081053,17.238910499960184,18.03027829993516,18.023579000029716,18.024297599913552,18.03027829993516,18.03027829993516,19.09127190010622,b,1.0,1.0581410001032054,,,,,,,,,,,,,,,,,,,,,,,,,,,,,,,,,,,,,,,,sub-014,1,stroop_test,121.57877333834138,
test,red,r,1.0,2.0,2.0,0.0,r,1.0,0.5622111998964101,,,,,,,,,,,,,,,,,,0.0,2.0,2.0,0.0,,,,,,,,,19.09754840005189,,,,,,,,,,,,,,,,,19.091780999908224,19.888988600112494,20.68064539995976,20.673568400088698,20.67443239991553,20.68064539995976,20.68064539995976,21.248899499885734,r,1.0,0.5622111998964101,,,,,,,,,,,,,,,,,,,,,,,,,,,,,,,,,,,,,,,,sub-014,1,stroop_test,121.57877333834138,
test,blue,b,1.0,3.0,0.0,1.0,b,1.0,0.7748857999686152,,,,,,,,,,,,,,,,,,1.0,0.0,3.0,2.0,,,,,,,,,21.255405799951404,,,,,,,,,,,,,,,,,21.24938949989155,22.44708910002373,23.23890980007127,23.232145600020885,23.23320599994622,23.23890980007127,23.23890980007127,24.01764270011336,b,1.0,0.7748857999686152,,,,,,,,,,,,,,,,,,,,,,,,,,,,,,,,,,,,,,,,sub-014,1,stroop_test,121.57877333834138,
test,yellow,g,1.0,4.0,1.0,1.0,g,1.0,0.579719000030309,,,,,,,,,,,,,,,,,,1.0,1.0,4.0,1.0,,,,,,,,,24.023284200113267,,,,,,,,,,,,,,,,,24.018542299978435,24.11422839993611,24.90568089997396,24.89823310007341,24.898913600016385,24.90568089997396,24.90568089997396,25.489892800105736,g,1.0,0.579719000030309,,,,,,,,,,,,,,,,,,,,,,,,,,,,,,,,,,,,,,,,sub-014,1,stroop_test,121.57877333834138,
test,red,r,1.0,5.0,2.0,1.0,r,1.0,0.84596629999578,,,,,,,,,,,,,,,,,,1.0,2.0,5.0,0.0,,,,,,,,,25.497032799990848,,,,,,,,,,,,,,,,,25.490273700095717,25.58935149991885,26.38045149995014,26.373381600016728,26.374434299999848,26.38045149995014,26.38045149995014,27.232741399900988,r,1.0,0.84596629999578,,,,,,,,,,,,,,,,,,,,,,,,,,,,,,,,,,,,,,,,sub-014,1,stroop_test,121.57877333834138,
test,yellow,g,1.0,6.0,0.0,2.0,g,1.0,1.040840100031346,,,,,,,,,,,,,,,,,,2.0,0.0,6.0,1.0,,,,,,,,,27.23912600008771,,,,,,,,,,,,,,,,,27.233237199950963,27.33038170007057,28.121981299947947,28.115218800026923,28.115943500073627,28.121981299947947,28.121981299947947,29.165517200017348,g,1.0,1.040840100031346,,,,,,,,,,,,,,,,,,,,,,,,,,,,,,,,,,,,,,,,sub-014,1,stroop_test,121.57877333834138,
test,red,r,1.0,7.0,1.0,2.0,r,1.0,0.5823343999218196,,,,,,,,,,,,,,,,,,2.0,1.0,7.0,0.0,,,,,,,,,29.17178299999796,,,,,,,,,,,,,,,,,29.16614739992656,29.96349940006621,30.755533900111917,30.74847609992139,30.749284599907696,30.755533900111917,30.755533900111917,31.34119420009665,r,1.0,0.5823343999218196,,,,,,,,,,,,,,,,,,,,,,,,,,,,,,,,,,,,,,,,sub-014,1,stroop_test,121.57877333834138,
test,blue,b,1.0,8.0,2.0,2.0,b,1.0,0.5603496001567692,,,,,,,,,,,,,,,,,,2.0,2.0,8.0,2.0,,,,,,,,,31.34709720010869,,,,,,,,,,,,,,,,,31.34165000007488,32.13913349993527,32.93061210005544,32.923741000005975,32.924493700033054,32.93061210005544,32.93061210005544,33.49840879999101,b,1.0,0.5603496001567692,,,,,,,,,,,,,,,,,,,,,,,,,,,,,,,,,,,,,,,,sub-014,1,stroop_test,121.57877333834138,
test,red,r,1.0,9.0,0.0,3.0,r,1.0,0.4757791999727487,,,,,,,,,,,,,,,,,,3.0,0.0,9.0,0.0,,,,,,,,,33.505531900096685,,,,,,,,,,,,,,,,,33.498782499926165,34.29686590004712,35.08853469998576,35.08166950009763,35.08295330009423,35.08853469998576,35.08853469998576,35.566775100072846,r,1.0,0.4757791999727487,,,,,,,,,,,,,,,,,,,,,,,,,,,,,,,,,,,,,,,,sub-014,1,stroop_test,121.57877333834138,
test,yellow,g,1.0,10.0,1.0,3.0,g,1.0,0.8375522000715137,,,,,,,,,,,,,,,,,,3.0,1.0,10.0,1.0,,,,,,,,,35.57186809997074,,,,,,,,,,,,,,,,,35.56756259989925,36.763615699950606,37.5554281999357,37.5487645000685,37.54990050010383,37.5554281999357,37.5554281999357,38.39893410005607,g,1.0,0.8375522000715137,,,,,,,,,,,,,,,,,,,,,,,,,,,,,,,,,,,,,,,,sub-014,1,stroop_test,121.57877333834138,
test,blue,b,1.0,11.0,2.0,3.0,b,1.0,0.5290473001077771,,,,,,,,,,,,,,,,,,3.0,2.0,11.0,2.0,,,,,,,,,38.405410199891776,,,,,,,,,,,,,,,,,38.39935870002955,39.19702730001882,39.98895790008828,39.981770999962464,39.98250930011272,39.98895790008828,39.98895790008828,40.52436110004783,b,1.0,0.5290473001077771,,,,,,,,,,,,,,,,,,,,,,,,,,,,,,,,,,,,,,,,sub-014,1,stroop_test,121.57877333834138,
,,,,,,,,,,,,,,,,,,,,,,,,,,,,,,,,,,,,,,,,,,,,,,,,,,,,,,,,,,,,,,,,,,,,40.5245674001053,40.530535199912265,40.530535199912265,43.23291749996133,space,2.693670899840072,,,,,,,,,,,,,,,,,,,,,,,,,,,,,,,,,sub-014,1,stroop_test,121.57877333834138,
,,,,0.0,0.0,0.0,,,,,blau,blue,b,1.0,b,1.0,0.7007500999607146,,,,,,,,,,,,,,0.0,0.0,0.0,5.0,,,,,43.25159489992075,,,,,,,,,,,,,,,,,43.24858810007572,43.58042649994604,44.38824580004439,44.36503189988434,,,,,,,,,,,,,,,,44.38212239998393,44.38824580004439,44.38824580004439,45.091961399884894,b,1.0,0.7007500999607146,,45.10787250008434,45.11343739996664,46.097167999949306,,,,,,,,,,,,,,,,,,,,,sub-014,1,stroop_test,121.57877333834138,
,,,,1.0,1.0,0.0,,,,,rot,red,r,1.0,r,1.0,1.2249839999713004,,,,,,,,,,,,,,0.0,1.0,1.0,1.0,,,,,46.1053571999073,,,,,,,,,,,,,,,,,46.097641200060025,47.2886791001074,48.088057100074366,48.07321839989163,,,,,,,,,,,,,,,,48.08240789989941,48.088057100074366,48.088057100074366,49.31559420004487,r,1.0,1.2249839999713004,,49.31643890007399,49.32180789997801,50.30649359989911,50.3136718000751,,,,,,,,,,,,,,,,,,,,sub-014,1,stroop_test,121.57877333834138,
,,,,2.0,2.0,0.0,,,,,rot,yellow,g,0.0,g,1.0,0.5515709999017417,,,,,,,,,,,,,,0.0,2.0,2.0,3.0,,,,,50.3136718000751,,,,,,,,,,,,,,,,,50.307087199995294,50.66381990001537,51.455425299936906,51.4486545000691,,,,,,,,,,,,,,,,51.44976949994452,51.455425299936906,51.455425299936906,52.014886100078,g,1.0,0.5515709999017417,,52.01552010001615,52.02197450003587,53.00703849992715,53.013604999985546,,,,,,,,,,,,,,,,,,,,sub-014,1,stroop_test,121.57877333834138,
,,,,3.0,3.0,0.0,,,,,gelb,yellow,g,1.0,g,1.0,1.041664500022307,,,,,,,,,,,,,,0.0,3.0,3.0,10.0,,,,,53.013604999985546,,,,,,,,,,,,,,,,,53.007540999911726,53.11370799993165,53.910632400074974,53.89821429993026,,,,,,,,,,,,,,,,53.90482329996303,53.910632400074974,53.910632400074974,54.95680269994773,g,1.0,1.041664500022307,,54.95738220005296,54.96376259997487,55.948429899988696,55.95533940009773,,,,,,,,,,,,,,,,,,,,sub-014,1,stroop_test,121.57877333834138,
,,,,4.0,4.0,0.0,,,,,gelb,blue,b,0.0,b,1.0,1.2011013000737876,,,,,,,,,,,,,,0.0,4.0,4.0,9.0,,,,,55.95533940009773,,,,,,,,,,,,,,,,,55.94892599992454,56.30555929988623,57.096819299971685,57.08959909994155,,,,,,,,,,,,,,,,57.09013239992783,57.096819299971685,57.096819299971685,58.30036320001818,b,1.0,1.2011013000737876,,58.30123930005357,58.306200799997896,59.29008769989014,59.29697369993664,,,,,,,,,,,,,,,,,,,,sub-014,1,stroop_test,121.57877333834138,
,,,,5.0,5.0,0.0,,,,,gelb,red,r,0.0,r,1.0,0.7772542999591678,,,,,,,,,,,,,,0.0,5.0,5.0,8.0,,,,,59.29697369993664,,,,,,,,,,,,,,,,,59.29066090006381,59.6473383998964,60.43878720002249,60.431630099890754,,,,,,,,,,,,,,,,60.432448300067335,60.43878720002249,60.43878720002249,61.22376669989899,r,1.0,0.7772542999591678,,61.2244390998967,61.230125200003386,62.215178000042215,62.222128099994734,,,,,,,,,,,,,,,,,,,,sub-014,1,stroop_test,121.57877333834138,
,,,,6.0,6.0,0.0,,,,,gelb,yellow,g,1.0,g,1.0,0.6450928999111056,,,,,,,,,,,,,,0.0,6.0,6.0,11.0,,,,,62.222128099994734,,,,,,,,,,,,,,,,,62.21575230010785,63.02212240011431,63.81342469993979,63.80626349989325,,,,,,,,,,,,,,,,63.807093899929896,63.81342469993979,63.81342469993979,64.46602679998614,g,1.0,0.6450928999111056,,64.46689320006408,64.47214600001462,65.45642230007797,65.46350839990191,,,,,,,,,,,,,,,,,,,,sub-014,1,stroop_test,121.57877333834138,
,,,,7.0,7.0,0.0,,,,,blau,blue,b,1.0,b,1.0,0.6340805001091212,,,,,,,,,,,,,,0.0,7.0,7.0,6.0,,,,,65.46350839990191,,,,,,,,,,,,,,,,,65.45690959994681,66.66373399994336,67.46033959998749,67.44822019990534,,,,,,,,,,,,,,,,67.45400370005518,67.46033959998749,67.46033959998749,68.09884430002421,b,1.0,0.6340805001091212,,68.0995958999265,68.10576900001615,69.09013459994458,69.09707139991224,,,,,,,,,,,,,,,,,,,,sub-014,1,stroop_test,121.57877333834138,
,,,,8.0,8.0,0.0,,,,,blau,yellow,g,0.0,g,1.0,1.2455967999994757,,,,,,,,,,,,,,0.0,8.0,8.0,7.0,,,,,69.09707139991224,,,,,,,,,,,,,,,,,69.09070640010759,69.1970867998898,69.98894269997254,69.98169300006703,,,,,,,,,,,,,,,,69.98254129989073,69.98894269997254,69.98894269997254,71.24041380011477,g,1.0,1.2455967999994757,,71.24115070002154,71.24676340003498,72.23211360001005,72.23879240010865,,,,,,,,,,,,,,,,,,,,sub-014,1,stroop_test,121.57877333834138,
,,,,9.0,9.0,0.0,,,,,rot,blue,b,0.0,b,1.0,0.9521788998972625,,,,,,,,,,,,,,0.0,9.0,9.0,2.0,,,,,72.23879240010865,,,,,,,,,,,,,,,,,72.23263360001147,73.0388334998861,73.83628230006434,73.82329709990881,,,,,,,,,,,,,,,,73.83007579995319,73.83628230006434,73.83628230006434,74.79140269989148,b,1.0,0.9521788998972625,,74.79219230008312,74.79787699994631,75.78171560005285,75.78870919998735,,,,,,,,,,,,,,,,,,,,sub-014,1,stroop_test,121.57877333834138,
,,,,10.0,10.0,0.0,,,,,blau,red,r,0.0,r,1.0,1.222376500023529,,,,,,,,,,,,,,0.0,10.0,10.0,4.0,,,,,75.78870919998735,,,,,,,,,,,,,,,,,75.78222679998726,76.13876440003514,76.93607260007411,76.92329040006734,,,,,,,,,,,,,,,,76.92863509990275,76.93607260007411,76.93607260007411,78.16535159992054,r,1.0,1.222376500023529,,78.1659212000668,78.17183850007132,79.15668860008009,79.16364150005393,,,,,,,,,,,,,,,,,,,,sub-014,1,stroop_test,121.57877333834138,
,,,,11.0,11.0,0.0,,,,,rot,red,r,1.0,r,1.0,0.6334536999929696,,,,,,,,,,,,,,0.0,11.0,11.0,0.0,,,,,79.16364150005393,,,,,,,,,,,,,,,,,79.15718819992617,79.26375710009597,80.06150870001875,80.04827659996226,,,,,,,,,,,,,,,,80.05494399997406,80.06150870001875,80.06150870001875,80.6989484000951,r,1.0,0.6334536999929696,,80.6997414000798,80.7059832001105,81.69009670009837,81.69701300002635,,,,,,,,,,,,,,,,,,,,sub-014,1,stroop_test,121.57877333834138,
,,,,12.0,0.0,1.0,,,,,rot,yellow,g,0.0,g,1.0,0.4494498998392373,,,,,,,,,,,,,,1.0,0.0,12.0,3.0,,,,,81.69701300002635,,,,,,,,,,,,,,,,,81.69080720003694,82.04719540011138,82.83852520002984,82.83142679999582,,,,,,,,,,,,,,,,82.83222769992426,82.83852520002984,82.83852520002984,83.29129449999891,g,1.0,0.4494498998392373,,83.2923077000305,83.29815830010921,84.29016719991341,84.29701659991406,,,,,,,,,,,,,,,,,,,,sub-014,1,stroop_test,121.57877333834138,
,,,,13.0,1.0,1.0,,,,,blau,yellow,g,0.0,g,1.0,0.4317111999262124,,,,,,,,,,,,,,1.0,1.0,13.0,7.0,,,,,84.29701659991406,,,,,,,,,,,,,,,,,84.29070400004275,84.6385367999319,85.43690919992514,85.42337809992023,,,,,,,,,,,,,,,,85.43051169998944,85.43690919992514,85.43690919992514,85.87420589989051,g,1.0,0.4317111999262124,,85.87507640011609,85.88151800003834,86.87364990008064,86.88056179997511,,,,,,,,,,,,,,,,,,,,sub-014,1,stroop_test,121.57877333834138,
,,,,14.0,2.0,1.0,,,,,blau,red,r,0.0,r,1.0,0.466624699998647,,,,,,,,,,,,,,1.0,2.0,14.0,4.0,,,,,86.88056179997511,,,,,,,,,,,,,,,,,86.87415100005455,87.67262850003317,88.46355489990674,88.4564247999806,,,,,,,,,,,,,,,,88.45723189995624,88.46355489990674,88.46355489990674,88.93272539996542,r,1.0,0.466624699998647,,88.93357890006155,88.93899219995365,89.92335240007378,89.93015690008178,,,,,,,,,,,,,,,,,,,,sub-014,1,stroop_test,121.57877333834138,
,,,,15.0,3.0,1.0,,,,,rot,red,r,1.0,r,1.0,0.588789900066331,,,,,,,,,,,,,,1.0,3.0,15.0,0.0,,,,,89.93015690008178,,,,,,,,,,,,,,,,,89.9239451000467,91.13023140002042,91.92875270009972,91.91528429999016,,,,,,,,,,,,,,,,91.92259599990211,91.92875270009972,91.92875270009972,92.52391070011072,r,1.0,0.588789900066331,,92.52474389993586,92.5301425999496,93.51460230001248,93.521990200039,,,,,,,,,,,,,,,,,,,,sub-014,1,stroop_test,121.57877333834138,
,,,,16.0,4.0,1.0,,,,,gelb,yellow,g,1.0,g,1.0,0.6514851001556963,,,,,,,,,,,,,,1.0,4.0,16.0,10.0,,,,,93.521990200039,,,,,,,,,,,,,,,,,93.51496589998716,93.87204729998484,94.66987550002524,94.65649439999834,,,,,,,,,,,,,,,,94.66329340008087,94.66987550002524,94.66987550002524,95.32452189992182,g,1.0,0.6514851001556963,,95.32568320003338,95.33241200004704,96.32267499994488,96.33023430011237,,,,,,,,,,,,,,,,,,,,sub-014,1,stroop_test,121.57877333834138,
,,,,17.0,5.0,1.0,,,,,blau,blue,b,1.0,b,1.0,0.4935216000303626,,,,,,,,,,,,,,1.0,5.0,17.0,5.0,,,,,96.33023430011237,,,,,,,,,,,,,,,,,96.32302220002748,96.6719565000385,97.46822890010662,97.4564402999822,,,,,,,,,,,,,,,,97.46227060002276,97.46822890010662,97.46822890010662,97.96613799990156,b,1.0,0.4935216000303626,,97.96697680000216,97.97226019995288,98.95659029996024,98.96366379992104,,,,,,,,,,,,,,,,,,,,sub-014,1,stroop_test,121.57877333834138,
,,,,18.0,6.0,1.0,,,,,gelb,yellow,g,1.0,r,0.0,0.6712988999206573,,,,,,,,,,,,,,1.0,6.0,18.0,11.0,,,,,98.96366379992104,,,,,,,,,,,,,,,,,98.95730419992468,99.31374930008316,100.11077090003528,100.09819369995968,,,,,,,,,,,,,,,,100.10479569993912,100.11077090003528,100.11077090003528,100.79050259990618,r,0.0,0.6712988999206573,,100.8007811999414,100.8066052000504,101.79725369997324,,,,,,,,,,,,,,,,,,,,,sub-014,1,stroop_test,121.57877333834138,
,,,,19.0,7.0,1.0,,,,,rot,red,r,1.0,r,1.0,0.7301813000813127,,,,,,,,,,,,,,1.0,7.0,19.0,1.0,,,,,101.8053025000263,,,,,,,,,,,,,,,,,101.79792999988422,102.13873200002126,102.93479739991017,102.9230186000932,,,,,,,,,,,,,,,,102.92899989988656,102.93479739991017,102.93479739991017,103.6732622999698,r,1.0,0.7301813000813127,,103.67983409995212,103.68502329988404,104.67321559996344,104.68020440009424,,,,,,,,,,,,,,,,,,,,sub-014,1,stroop_test,121.57877333834138,
,,,,20.0,8.0,1.0,,,,,rot,blue,b,0.0,b,1.0,0.7304497000295669,,,,,,,,,,,,,,1.0,8.0,20.0,2.0,,,,,104.68020440009424,,,,,,,,,,,,,,,,,104.67370230006054,105.871811500052,106.6634845000226,106.65611250000076,,,,,,,,,,,,,,,,106.65684409998356,106.6634845000226,106.6634845000226,107.39872170006856,b,1.0,0.7304497000295669,,107.40009479993024,107.40495910006577,108.3900133999996,108.39662840007804,,,,,,,,,,,,,,,,,,,,sub-014,1,stroop_test,121.57877333834138,
,,,,21.0,9.0,1.0,,,,,blau,blue,b,1.0,b,1.0,0.6560924001969397,,,,,,,,,,,,,,1.0,9.0,21.0,6.0,,,,,108.39662840007804,,,,,,,,,,,,,,,,,108.39056769991294,108.74695360008629,109.5436446000822,109.5315258000046,,,,,,,,,,,,,,,,109.53751150006428,109.5436446000822,109.5436446000822,110.2069029000122,b,1.0,0.6560924001969397,,110.20783099997789,110.2132204999216,111.19826669991016,111.20508940005676,,,,,,,,,,,,,,,,,,,,sub-014,1,stroop_test,121.57877333834138,
,,,,22.0,10.0,1.0,,,,,gelb,blue,b,0.0,b,1.0,1.0892199999652803,,,,,,,,,,,,,,1.0,10.0,22.0,9.0,,,,,111.20508940005676,,,,,,,,,,,,,,,,,111.19894200004636,112.00520360004155,112.80191410006957,112.7895545999054,,,,,,,,,,,,,,,,112.7958418999333,112.80191410006957,112.80191410006957,113.89924430008978,b,1.0,1.0892199999652803,,113.9001802999992,113.90658700000496,114.89819140010512,114.9051812000107,,,,,,,,,,,,,,,,,,,,sub-014,1,stroop_test,121.57877333834138,
,,,,23.0,11.0,1.0,,,,,gelb,red,r,0.0,r,1.0,0.7181629999540746,,,,,,,,,,,,,,1.0,11.0,23.0,8.0,,,,,114.9051812000107,,,,,,,,,,,,,,,,,114.89878590009177,115.24677340011112,116.03834940004162,116.0311310000252,,,,,,,,,,,,,,,,116.03187850001268,116.03834940004162,116.03834940004162,116.7646900000982,r,1.0,0.7181629999540746,,116.76533249998464,116.77174720005132,117.7565888001118,117.76329430006444,,,,,,,,,,,,,,,,,,,,sub-014,1,stroop_test,121.57877333834138,
,,,,,,,,,,,,,,,,,,,,,,,,,,,,,,,,,,,,,,,,,,,,,,,,,,,,,,,,,,,,,,,,,,,,,,,,,,,,,,,,,,,,,,,117.7567763000261,117.76329430006444,117.76329430006444,118.856890700059,space,1.0874844000209123,,,,,,,,,,,,,,sub-014,1,stroop_test,121.57877333834138,
,,,,0.0,0.0,0.0,,,,,,,,,,,,,rot,red,r,1.0,r,1.0,0.8353325000498444,,,,,,,,,,0.0,0.0,0.0,0.0,118.87092750007288,,,,,,,,,,,,,,,,,118.86804579989985,120.05522309988736,120.85314749996178,120.83979879994877,,,,,,,,,,,,,,,,,,,,,,,,,,,,,,,,,,,120.84696039999837,120.85314749996178,120.85314749996178,121.69112610002048,r,1.0,0.8353325000498444,,,,,,sub-014,1,stroop_test,121.57877333834138,
,,,,1.0,1.0,0.0,,,,,,,,,,,,,blau,blue,b,1.0,b,1.0,0.5458052998874336,,,,,,,,,,0.0,1.0,1.0,6.0,121.69686380005442,,,,,,,,,,,,,,,,,121.69171630009076,122.8885168998968,123.68540859990752,123.6729556999635,,,,,,,,,,,,,,,,,,,,,,,,,,,,,,,,,,,123.67855890002102,123.68540859990752,123.68540859990752,124.23275740002282,b,1.0,0.5458052998874336,,,,,,sub-014,1,stroop_test,121.57877333834138,
,,,,2.0,2.0,0.0,,,,,,,,,,,,,blau,blue,b,1.0,b,1.0,0.4129663999192416,,,,,,,,,,0.0,2.0,2.0,5.0,124.238541000057,,,,,,,,,,,,,,,,,124.23324789991602,124.5801605999004,125.37163330009209,125.36466989992186,,,,,,,,,,,,,,,,,,,,,,,,,,,,,,,,,,,125.3654640999157,125.37163330009209,125.37163330009209,125.79134120000526,b,1.0,0.4129663999192416,,,,,,sub-014,1,stroop_test,121.57877333834138,
,,,,3.0,3.0,0.0,,,,,,,,,,,,,rot,yellow,g,0.0,g,1.0,0.8723935000598431,,,,,,,,,,0.0,3.0,3.0,3.0,125.79667819989844,,,,,,,,,,,,,,,,,125.79188670008443,126.98851429997012,127.78409509989432,127.77263240003958,,,,,,,,,,,,,,,,,,,,,,,,,,,,,,,,,,,127.77831920003518,127.78409509989432,127.78409509989432,128.66583289997652,g,1.0,0.8723935000598431,,,,,,sub-014,1,stroop_test,121.57877333834138,
,,,,4.0,4.0,0.0,,,,,,,,,,,,,blau,yellow,g,0.0,g,1.0,0.5864201998338103,,,,,,,,,,0.0,4.0,4.0,7.0,128.67171919997782,,,,,,,,,,,,,,,,,128.66635040007532,129.01358840009198,129.8106211000122,129.79854239989072,,,,,,,,,,,,,,,,,,,,,,,,,,,,,,,,,,,129.8045940999873,129.8106211000122,129.8106211000122,130.39959200005978,g,1.0,0.5864201998338103,,,,,,sub-014,1,stroop_test,121.57877333834138,
,,,,5.0,5.0,0.0,,,,,,,,,,,,,gelb,yellow,g,1.0,g,1.0,0.3966384001541883,,,,,,,,,,0.0,5.0,5.0,10.0,130.40511439996772,,,,,,,,,,,,,,,,,130.40027160011232,130.74678459996358,131.54418569989502,131.5313244999852,,,,,,,,,,,,,,,,,,,,,,,,,,,,,,,,,,,131.53804820007645,131.54418569989502,131.54418569989502,131.94821919989772,g,1.0,0.3966384001541883,,,,,,sub-014,1,stroop_test,121.57877333834138,
,,,,6.0,6.0,0.0,,,,,,,,,,,,,gelb,blue,b,0.0,b,1.0,0.7180447999853641,,,,,,,,,,0.0,6.0,6.0,9.0,131.9551123001147,,,,,,,,,,,,,,,,,131.94877650006674,132.74679840006866,133.53865160001442,133.53111049998552,,,,,,,,,,,,,,,,,,,,,,,,,,,,,,,,,,,133.5318257000763,133.53865160001442,133.53865160001442,134.26482930011116,b,1.0,0.7180447999853641,,,,,,sub-014,1,stroop_test,121.57877333834138,
,,,,7.0,7.0,0.0,,,,,,,,,,,,,rot,red,r,1.0,r,1.0,0.8859249998349696,,,,,,,,,,0.0,7.0,7.0,1.0,134.27172020007856,,,,,,,,,,,,,,,,,134.26528279995546,134.3634444999043,135.16256739990786,135.14772520004772,,,,,,,,,,,,,,,,,,,,,,,,,,,,,,,,,,,135.1552450999152,135.16256739990786,135.16256739990786,136.05661819991656,r,1.0,0.8859249998349696,,,,,,sub-014,1,stroop_test,121.57877333834138,
,,,,8.0,8.0,0.0,,,,,,,,,,,,,gelb,red,r,0.0,r,1.0,0.8757331999950111,,,,,,,,,,0.0,8.0,8.0,8.0,136.06325050001033,,,,,,,,,,,,,,,,,136.05713470000774,137.2550083999522,138.05089500010945,138.03929649991915,,,,,,,,,,,,,,,,,,,,,,,,,,,,,,,,,,,138.0456974999979,138.05089500010945,138.05089500010945,138.93130249995738,r,1.0,0.8757331999950111,,,,,,sub-014,1,stroop_test,121.57877333834138,
,,,,9.0,9.0,0.0,,,,,,,,,,,,,gelb,yellow,g,1.0,g,1.0,1.3684654000680894,,,,,,,,,,0.0,9.0,9.0,11.0,138.9381480999291,,,,,,,,,,,,,,,,,138.93180790008046,139.03004870004952,139.82173150009476,139.81441959994845,,,,,,,,,,,,,,,,,,,,,,,,,,,,,,,,,,,139.81514080008492,139.82173150009476,139.82173150009476,141.1988335000351,g,1.0,1.3684654000680894,,,,,,sub-014,1,stroop_test,121.57877333834138,
,,,,10.0,10.0,0.0,,,,,,,,,,,,,rot,blue,b,0.0,g,0.0,0.4252404998987913,,,,,,,,,,0.0,10.0,10.0,2.0,141.205059699947,,,,,,,,,,,,,,,,,141.1993529999163,141.29676100006327,142.09366380004212,142.08160250005312,,,,,,,,,,,,,,,,,,,,,,,,,,,,,,,,,,,142.0879283999093,142.09366380004212,142.09366380004212,142.523514600005,g,0.0,0.4252404998987913,,,,,,sub-014,1,stroop_test,121.57877333834138,
,,,,11.0,11.0,0.0,,,,,,,,,,,,,blau,red,r,0.0,r,1.0,0.5785533001180738,,,,,,,,,,0.0,11.0,11.0,4.0,142.5300002999138,,,,,,,,,,,,,,,,,142.52415649988689,142.87175530008972,143.66863179998472,143.6562157999724,,,,,,,,,,,,,,,,,,,,,,,,,,,,,,,,,,,143.66261549992487,143.66863179998472,143.66863179998472,144.249363000039,r,1.0,0.5785533001180738,,,,,,sub-014,1,stroop_test,121.57877333834138,
,,,,12.0,0.0,1.0,,,,,,,,,,,,,rot,blue,b,0.0,b,1.0,0.5105105000548065,,,,,,,,,,1.0,0.0,12.0,2.0,144.2553449999541,,,,,,,,,,,,,,,,,144.2498713999521,145.0468137001153,145.84426519996487,145.83114470005967,,,,,,,,,,,,,,,,,,,,,,,,,,,,,,,,,,,145.8376498001162,145.84426519996487,145.84426519996487,146.35744779999368,b,1.0,0.5105105000548065,,,,,,sub-014,1,stroop_test,121.57877333834138,
,,,,13.0,1.0,1.0,,,,,,,,,,,,,blau,blue,b,1.0,b,1.0,0.5756749999709427,,,,,,,,,,1.0,1.0,13.0,6.0,146.3634035999421,,,,,,,,,,,,,,,,,146.35797909996472,147.15505330008455,147.95112599991262,147.93931900011376,,,,,,,,,,,,,,,,,,,,,,,,,,,,,,,,,,,147.94485710002482,147.95112599991262,147.95112599991262,148.53238640003838,b,1.0,0.5756749999709427,,,,,,sub-014,1,stroop_test,121.57877333834138,
,,,,14.0,2.0,1.0,,,,,,,,,,,,,rot,red,r,1.0,r,1.0,0.7177027999423444,,,,,,,,,,1.0,2.0,14.0,0.0,148.53823189996183,,,,,,,,,,,,,,,,,148.53290079999715,148.62998239998706,149.4283644000534,149.41474030003883,,,,,,,,,,,,,,,,,,,,,,,,,,,,,,,,,,,149.42191909998655,149.4283644000534,149.4283644000534,150.14932020008564,r,1.0,0.7177027999423444,,,,,,sub-014,1,stroop_test,121.57877333834138,
,,,,15.0,3.0,1.0,,,,,,,,,,,,,gelb,red,r,0.0,r,1.0,1.011071000015363,,,,,,,,,,1.0,3.0,15.0,8.0,150.1548727999907,,,,,,,,,,,,,,,,,150.1498551000841,151.34679149999283,152.1441697999835,152.13174910005182,,,,,,,,,,,,,,,,,,,,,,,,,,,,,,,,,,,152.13805290008895,152.1441697999835,152.1441697999835,153.15775149990804,r,1.0,1.011071000015363,,,,,,sub-014,1,stroop_test,121.57877333834138,
,,,,16.0,4.0,1.0,,,,,,,,,,,,,blau,red,r,0.0,r,1.0,0.5460814000107348,,,,,,,,,,1.0,4.0,16.0,4.0,153.16317879990677,,,,,,,,,,,,,,,,,153.15831599989906,153.2549227999989,154.05372030008584,154.03955390001647,,,,,,,,,,,,,,,,,,,,,,,,,,,,,,,,,,,154.04689299990423,154.05372030008584,154.05372030008584,154.60611620009877,r,1.0,0.5460814000107348,,,,,,sub-014,1,stroop_test,121.57877333834138,
,,,,17.0,5.0,1.0,,,,,,,,,,,,,blau,yellow,g,0.0,g,1.0,1.8837307000067085,,,,,,,,,,1.0,5.0,17.0,7.0,154.61315250000916,,,,,,,,,,,,,,,,,154.6064848001115,155.40490419999696,156.19710249989294,156.1897032998968,,,,,,,,,,,,,,,,,,,,,,,,,,,,,,,,,,,156.19084080005996,156.19710249989294,156.19710249989294,158.0896532998886,g,1.0,1.8837307000067085,,,,,,sub-014,1,stroop_test,121.57877333834138,
,,,,18.0,6.0,1.0,,,,,,,,,,,,,gelb,yellow,g,1.0,g,1.0,0.5595710000488907,,,,,,,,,,1.0,6.0,18.0,10.0,158.0965599999763,,,,,,,,,,,,,,,,,158.09004230005667,159.28791620000266,160.08536159992218,160.0730876000598,,,,,,,,,,,,,,,,,,,,,,,,,,,,,,,,,,,160.07930630003102,160.08536159992218,160.08536159992218,160.6494318000041,g,1.0,0.5595710000488907,,,,,,sub-014,1,stroop_test,121.57877333834138,
,,,,19.0,7.0,1.0,,,,,,,,,,,,,rot,red,r,1.0,r,1.0,0.6011943002231419,,,,,,,,,,1.0,7.0,19.0,1.0,160.65485689998604,,,,,,,,,,,,,,,,,160.65006550005637,160.99664060003124,161.79564399993978,161.78142770007253,,,,,,,,,,,,,,,,,,,,,,,,,,,,,,,,,,,161.78777180006728,161.79564399993978,161.79564399993978,162.4001031999942,r,1.0,0.6011943002231419,,,,,,sub-014,1,stroop_test,121.57877333834138,
,,,,20.0,8.0,1.0,,,,,,,,,,,,,gelb,blue,b,0.0,b,1.0,0.5744876000098884,,,,,,,,,,1.0,8.0,20.0,9.0,162.4048750998918,,,,,,,,,,,,,,,,,162.40071439999156,162.74665510002524,163.5440605999902,163.5313605000265,,,,,,,,,,,,,,,,,,,,,,,,,,,,,,,,,,,163.5372764999047,163.5440605999902,163.5440605999902,164.12358810007572,b,1.0,0.5744876000098884,,,,,,sub-014,1,stroop_test,121.57877333834138,
,,,,21.0,9.0,1.0,,,,,,,,,,,,,rot,yellow,g,0.0,g,1.0,0.693431599996984,,,,,,,,,,1.0,9.0,21.0,3.0,164.12991259992123,,,,,,,,,,,,,,,,,164.12419370003045,164.47150509990752,165.27074289997108,165.2560930000618,,,,,,,,,,,,,,,,,,,,,,,,,,,,,,,,,,,165.26365830004215,165.27074289997108,165.27074289997108,165.97251660004258,g,1.0,0.693431599996984,,,,,,sub-014,1,stroop_test,121.57877333834138,
,,,,22.0,10.0,1.0,,,,,,,,,,,,,gelb,yellow,g,1.0,g,1.0,0.4170063000638038,,,,,,,,,,1.0,10.0,22.0,11.0,165.97966889990494,,,,,,,,,,,,,,,,,165.97303929994814,166.77113600005396,167.5687732999213,167.5561577999033,,,,,,,,,,,,,,,,,,,,,,,,,,,,,,,,,,,167.56319070002064,167.5687732999213,167.5687732999213,167.98979989998043,g,1.0,0.4170063000638038,,,,,,sub-014,1,stroop_test,121.57877333834138,
,,,,23.0,11.0,1.0,,,,,,,,,,,,,blau,blue,b,1.0,b,1.0,0.640415399800986,,,,,,,,,,1.0,11.0,23.0,5.0,167.99651150009595,,,,,,,,,,,,,,,,,167.99021310009994,168.08827110007405,168.88475520000793,168.87298689992167,,,,,,,,,,,,,,,,,,,,,,,,,,,,,,,,,,,168.87929630000144,168.88475520000793,168.88475520000793,169.5319550000131,b,1.0,0.640415399800986,,,,,,sub-014,1,stroop_test,121.57877333834138,
,,,,24.0,0.0,2.0,,,,,,,,,,,,,blau,yellow,g,0.0,g,1.0,0.6574476999230683,,,,,,,,,,2.0,0.0,24.0,7.0,169.5379315998871,,,,,,,,,,,,,,,,,169.5327359000221,170.73010340007022,171.52167790010571,171.51454799994826,,,,,,,,,,,,,,,,,,,,,,,,,,,,,,,,,,,171.51564790005796,171.52167790010571,171.52167790010571,172.1819756999612,g,1.0,0.6574476999230683,,,,,,sub-014,1,stroop_test,121.57877333834138,
,,,,25.0,1.0,2.0,,,,,,,,,,,,,gelb,yellow,g,1.0,g,1.0,0.5211381001863629,,,,,,,,,,2.0,1.0,25.0,10.0,172.18820019997656,,,,,,,,,,,,,,,,,172.18261329992674,172.97989659989253,173.7771020999644,173.7646341000218,,,,,,,,,,,,,,,,,,,,,,,,,,,,,,,,,,,173.77087310003117,173.7771020999644,173.7771020999644,174.30035039992072,g,1.0,0.5211381001863629,,,,,,sub-014,1,stroop_test,121.57877333834138,
,,,,26.0,2.0,2.0,,,,,,,,,,,,,blau,blue,b,1.0,b,1.0,0.4528771000914275,,,,,,,,,,2.0,2.0,26.0,6.0,174.30461469991133,,,,,,,,,,,,,,,,,174.30101429997012,174.39663890004158,175.1939401999116,175.18135210010223,,,,,,,,,,,,,,,,,,,,,,,,,,,,,,,,,,,175.187268699985,175.1939401999116,175.1939401999116,175.6490503998939,b,1.0,0.4528771000914275,,,,,,sub-014,1,stroop_test,121.57877333834138,
,,,,27.0,3.0,2.0,,,,,,,,,,,,,blau,blue,b,1.0,b,1.0,0.4881267000455409,,,,,,,,,,2.0,3.0,27.0,5.0,175.65489039989188,,,,,,,,,,,,,,,,,175.64955449989066,176.4466945999302,177.23834950011224,177.23125410010107,,,,,,,,,,,,,,,,,,,,,,,,,,,,,,,,,,,177.2319809999317,177.23834950011224,177.23834950011224,177.73186579998583,b,1.0,0.4881267000455409,,,,,,sub-014,1,stroop_test,121.57877333834138,
,,,,28.0,4.0,2.0,,,,,,,,,,,,,rot,red,r,1.0,r,1.0,0.5309130998793989,,,,,,,,,,2.0,4.0,28.0,0.0,177.738354699919,,,,,,,,,,,,,,,,,177.73249300010502,177.82986450009048,178.62683789990842,178.61445709993131,,,,,,,,,,,,,,,,,,,,,,,,,,,,,,,,,,,178.62077799998224,178.62683789990842,178.62683789990842,179.16520949988626,r,1.0,0.5309130998793989,,,,,,sub-014,1,stroop_test,121.57877333834138,
,,,,29.0,5.0,2.0,,,,,,,,,,,,,gelb,blue,b,0.0,b,1.0,1.0714247999712825,,,,,,,,,,2.0,5.0,29.0,9.0,179.17158360010944,,,,,,,,,,,,,,,,,179.1658594000619,179.5133388999384,180.3122145999223,180.29787919996303,,,,,,,,,,,,,,,,,,,,,,,,,,,,,,,,,,,180.3056415999308,180.3122145999223,180.3122145999223,181.38990839989856,b,1.0,1.0714247999712825,,,,,,sub-014,1,stroop_test,121.57877333834138,
,,,,30.0,6.0,2.0,,,,,,,,,,,,,blau,red,r,0.0,r,1.0,0.9117950000800192,,,,,,,,,,2.0,6.0,30.0,4.0,181.39639439992607,,,,,,,,,,,,,,,,,181.39022359997037,182.58825789997357,183.3848778998945,183.37290489999577,,,,,,,,,,,,,,,,,,,,,,,,,,,,,,,,,,,183.37901560007597,183.3848778998945,183.3848778998945,184.2982836998999,r,1.0,0.9117950000800192,,,,,,sub-014,1,stroop_test,121.57877333834138,
,,,,31.0,7.0,2.0,,,,,,,,,,,,,rot,yellow,g,0.0,g,1.0,0.6262937998399138,,,,,,,,,,2.0,7.0,31.0,3.0,184.30515879997984,,,,,,,,,,,,,,,,,184.2987548999954,185.09654360008423,185.89502419997007,185.8815228000749,,,,,,,,,,,,,,,,,,,,,,,,,,,,,,,,,,,185.88728970009836,185.89502419997007,185.89502419997007,186.5234193999786,g,1.0,0.6262937998399138,,,,,,sub-014,1,stroop_test,121.57877333834138,
,,,,32.0,8.0,2.0,,,,,,,,,,,,,rot,blue,b,0.0,b,1.0,0.6273968999739736,,,,,,,,,,2.0,8.0,32.0,2.0,186.5297930999659,,,,,,,,,,,,,,,,,186.52385600004345,187.72158479993232,188.51321149989965,188.50609540008008,,,,,,,,,,,,,,,,,,,,,,,,,,,,,,,,,,,188.50678110006265,188.51321149989965,188.51321149989965,189.14828799990937,b,1.0,0.6273968999739736,,,,,,sub-014,1,stroop_test,121.57877333834138,
,,,,33.0,9.0,2.0,,,,,,,,,,,,,gelb,red,r,0.0,r,1.0,0.6553742999676615,,,,,,,,,,2.0,9.0,33.0,8.0,189.1547336000949,,,,,,,,,,,,,,,,,189.1487747998908,190.34617569996044,191.14467939990573,191.1309187000152,,,,,,,,,,,,,,,,,,,,,,,,,,,,,,,,,,,191.13857840001583,191.14467939990573,191.14467939990573,191.80609639990143,r,1.0,0.6553742999676615,,,,,,sub-014,1,stroop_test,121.57877333834138,
,,,,34.0,10.0,2.0,,,,,,,,,,,,,gelb,yellow,g,1.0,g,1.0,0.5044413001742214,,,,,,,,,,2.0,10.0,34.0,11.0,191.8129364000633,,,,,,,,,,,,,,,,,191.80645969999023,192.60460969991985,193.39628139999692,193.38906499999572,,,,,,,,,,,,,,,,,,,,,,,,,,,,,,,,,,,193.3895912000444,193.39628139999692,193.39628139999692,193.90635469998236,g,1.0,0.5044413001742214,,,,,,sub-014,1,stroop_test,121.57877333834138,
,,,,35.0,11.0,2.0,,,,,,,,,,,,,rot,red,r,1.0,r,1.0,0.6180207999423146,,,,,,,,,,2.0,11.0,35.0,1.0,193.91281870007515,,,,,,,,,,,,,,,,,193.9069854998961,194.25469470000823,195.0497020999901,195.0389070000965,,,,,,,,,,,,,,,,,,,,,,,,,,,,,,,,,,,195.04396839998665,195.0497020999901,195.0497020999901,195.6729023999069,r,1.0,0.6180207999423146,,,,,,sub-014,1,stroop_test,121.57877333834138,
,,,,36.0,0.0,3.0,,,,,,,,,,,,,blau,blue,b,1.0,b,1.0,0.8821535999886692,,,,,,,,,,3.0,0.0,36.0,6.0,195.679693199927,,,,,,,,,,,,,,,,,195.67343709990385,196.8714821999893,197.66302910004745,197.65543789998628,,,,,,,,,,,,,,,,,,,,,,,,,,,,,,,,,,,197.65938870003447,197.66302910004745,197.66302910004745,198.5479139999952,b,1.0,0.8821535999886692,,,,,,sub-014,1,stroop_test,121.57877333834138,
,,,,37.0,1.0,3.0,,,,,,,,,,,,,blau,red,r,0.0,r,1.0,0.4756087001878768,,,,,,,,,,3.0,1.0,37.0,4.0,198.5545985000208,,,,,,,,,,,,,,,,,198.5485837000888,199.7465005998965,200.53820180008188,200.53153929999095,,,,,,,,,,,,,,,,,,,,,,,,,,,,,,,,,,,200.53235800005496,200.53820180008188,200.53820180008188,201.0159889999777,r,1.0,0.4756087001878768,,,,,,sub-014,1,stroop_test,121.57877333834138,
,,,,38.0,2.0,3.0,,,,,,,,,,,,,gelb,blue,b,0.0,b,1.0,1.1380344999488443,,,,,,,,,,3.0,2.0,38.0,9.0,201.02152250008655,,,,,,,,,,,,,,,,,201.0165540999733,201.11308780009855,201.9118788000196,201.89774550008588,,,,,,,,,,,,,,,,,,,,,,,,,,,,,,,,,,,201.9051437000744,201.9118788000196,201.9118788000196,203.0564643999096,b,1.0,1.1380344999488443,,,,,,sub-014,1,stroop_test,121.57877333834138,
,,,,39.0,3.0,3.0,,,,,,,,,,,,,gelb,yellow,g,1.0,g,1.0,0.5788008999079466,,,,,,,,,,3.0,3.0,39.0,10.0,203.0631661999505,,,,,,,,,,,,,,,,,203.0569994999096,203.1548178999219,203.94622169993815,203.93942119996063,,,,,,,,,,,,,,,,,,,,,,,,,,,,,,,,,,,203.94024790008552,203.94622169993815,203.94622169993815,204.53142499993555,g,1.0,0.5788008999079466,,,,,,sub-014,1,stroop_test,121.57877333834138,
,,,,40.0,4.0,3.0,,,,,,,,,,,,,blau,yellow,g,0.0,g,1.0,0.5657478999346495,,,,,,,,,,3.0,4.0,40.0,7.0,204.53799639991485,,,,,,,,,,,,,,,,,204.53214069991373,204.62982090003788,205.42622569995,205.41423500003293,,,,,,,,,,,,,,,,,,,,,,,,,,,,,,,,,,,205.41950160008852,205.42622569995,205.42622569995,205.9984617999289,g,1.0,0.5657478999346495,,,,,,sub-014,1,stroop_test,121.57877333834138,
,,,,41.0,5.0,3.0,,,,,,,,,,,,,gelb,yellow,g,1.0,g,1.0,0.384576000040397,,,,,,,,,,3.0,5.0,41.0,11.0,206.00466670002788,,,,,,,,,,,,,,,,,205.99904039991088,206.79635580000468,207.59448099997823,207.5814191000536,,,,,,,,,,,,,,,,,,,,,,,,,,,,,,,,,,,207.58841570001096,207.59448099997823,207.59448099997823,207.98264870001003,g,1.0,0.384576000040397,,,,,,sub-014,1,stroop_test,121.57877333834138,
,,,,42.0,6.0,3.0,,,,,,,,,,,,,gelb,red,r,0.0,r,1.0,1.169200100004673,,,,,,,,,,3.0,6.0,42.0,8.0,207.9881784999743,,,,,,,,,,,,,,,,,207.983279600041,208.32972849998623,209.1214141000528,209.11464089993387,,,,,,,,,,,,,,,,,,,,,,,,,,,,,,,,,,,209.11547040008008,209.1214141000528,209.1214141000528,210.2986318001058,r,1.0,1.169200100004673,,,,,,sub-014,1,stroop_test,121.57877333834138,
,,,,43.0,7.0,3.0,,,,,,,,,,,,,rot,red,r,1.0,r,1.0,0.3503040999639779,,,,,,,,,,3.0,7.0,43.0,1.0,210.30495429993607,,,,,,,,,,,,,,,,,210.2992060999386,211.496555800084,212.29571500001475,212.2810355001129,,,,,,,,,,,,,,,,,,,,,,,,,,,,,,,,,,,212.28891279990785,212.29571500001475,212.29571500001475,212.64835070003755,r,1.0,0.3503040999639779,,,,,,sub-014,1,stroop_test,121.57877333834138,
,,,,44.0,8.0,3.0,,,,,,,,,,,,,rot,blue,b,0.0,b,1.0,0.6040548998862505,,,,,,,,,,3.0,8.0,44.0,2.0,212.65537930000573,,,,,,,,,,,,,,,,,212.64887779997665,212.74651540000923,213.53795389994048,213.53137400001287,,,,,,,,,,,,,,,,,,,,,,,,,,,,,,,,,,,213.5323252999224,213.53795389994048,213.53795389994048,214.14852769998836,b,1.0,0.6040548998862505,,,,,,sub-014,1,stroop_test,121.57877333834138,
,,,,45.0,9.0,3.0,,,,,,,,,,,,,rot,yellow,g,0.0,g,1.0,0.5452449000440538,,,,,,,,,,3.0,9.0,45.0,3.0,214.15468879998664,,,,,,,,,,,,,,,,,214.14915319997817,214.24643049994484,215.0380140000489,215.03108770004476,,,,,,,,,,,,,,,,,,,,,,,,,,,,,,,,,,,215.0319087000098,215.0380140000489,215.0380140000489,215.58968560001813,g,1.0,0.5452449000440538,,,,,,sub-014,1,stroop_test,121.57877333834138,
,,,,46.0,10.0,3.0,,,,,,,,,,,,,rot,red,r,1.0,r,1.0,0.5395227000117302,,,,,,,,,,3.0,10.0,46.0,0.0,215.596454200102,,,,,,,,,,,,,,,,,215.59015899989757,215.93816999997944,216.72961269994263,216.72245960007425,,,,,,,,,,,,,,,,,,,,,,,,,,,,,,,,,,,216.7231934000738,216.72961269994263,216.72961269994263,217.27329799998552,r,1.0,0.5395227000117302,,,,,,sub-014,1,stroop_test,121.57877333834138,
,,,,47.0,11.0,3.0,,,,,,,,,,,,,blau,blue,b,1.0,b,1.0,0.863083700183779,,,,,,,,,,3.0,11.0,47.0,5.0,217.27962250006385,,,,,,,,,,,,,,,,,217.27383839990944,218.0714076999575,218.86842250009067,218.8560023000464,,,,,,,,,,,,,,,,,,,,,,,,,,,,,,,,,,,218.86187519994564,218.86842250009067,218.86842250009067,219.73365640011616,b,1.0,0.863083700183779,,,,,,sub-014,1,stroop_test,121.57877333834138,
,,,,48.0,0.0,4.0,,,,,,,,,,,,,blau,yellow,g,0.0,g,1.0,0.7047941000200808,,,,,,,,,,4.0,0.0,48.0,7.0,219.7378589999862,,,,,,,,,,,,,,,,,219.7343335999176,220.92979840002957,221.7213123000693,221.71411540010013,,,,,,,,,,,,,,,,,,,,,,,,,,,,,,,,,,,221.7149439000059,221.7213123000693,221.7213123000693,222.4319569000509,g,1.0,0.7047941000200808,,,,,,sub-014,1,stroop_test,121.57877333834138,
,,,,49.0,1.0,4.0,,,,,,,,,,,,,rot,blue,b,0.0,b,1.0,0.699528899975121,,,,,,,,,,4.0,1.0,49.0,2.0,222.43805769993924,,,,,,,,,,,,,,,,,222.4325212000404,223.62978400010616,224.42653549998067,224.41406390001063,,,,,,,,,,,,,,,,,,,,,,,,,,,,,,,,,,,224.42054950003512,224.42653549998067,224.42653549998067,225.13157509989105,b,1.0,0.699528899975121,,,,,,sub-014,1,stroop_test,121.57877333834138,
,,,,50.0,2.0,4.0,,,,,,,,,,,,,rot,red,r,1.0,r,1.0,0.6108017000369728,,,,,,,,,,4.0,2.0,50.0,1.0,225.1379464000929,,,,,,,,,,,,,,,,,225.13229779992253,225.2297789999284,226.0212755999528,226.01430410007012,,,,,,,,,,,,,,,,,,,,,,,,,,,,,,,,,,,226.0152215999551,226.0212755999528,226.0212755999528,226.6398646000307,r,1.0,0.6108017000369728,,,,,,sub-014,1,stroop_test,121.57877333834138,
,,,,51.0,3.0,4.0,,,,,,,,,,,,,rot,red,r,1.0,r,1.0,0.5612578000873327,,,,,,,,,,4.0,3.0,51.0,0.0,226.64632520009764,,,,,,,,,,,,,,,,,226.6404218999669,226.7380431999918,227.52945609996092,227.5227429999504,,,,,,,,,,,,,,,,,,,,,,,,,,,,,,,,,,,227.5234568999149,227.52945609996092,227.52945609996092,228.09831180004403,r,1.0,0.5612578000873327,,,,,,sub-014,1,stroop_test,121.57877333834138,
,,,,52.0,4.0,4.0,,,,,,,,,,,,,gelb,blue,b,0.0,b,1.0,0.3999174002092331,,,,,,,,,,4.0,4.0,52.0,9.0,228.1044205999933,,,,,,,,,,,,,,,,,228.09901500004344,228.89626340009272,229.69376439996995,229.68110779998824,,,,,,,,,,,,,,,,,,,,,,,,,,,,,,,,,,,229.6877754000016,229.69376439996995,229.69376439996995,230.09771399991587,b,1.0,0.3999174002092331,,,,,,sub-014,1,stroop_test,121.57877333834138,
,,,,53.0,5.0,4.0,,,,,,,,,,,,,blau,blue,b,1.0,b,1.0,0.3075351999141276,,,,,,,,,,4.0,5.0,53.0,5.0,230.10458460007797,,,,,,,,,,,,,,,,,230.09814790007655,230.8966002999805,231.6918210000731,231.68077560001984,,,,,,,,,,,,,,,,,,,,,,,,,,,,,,,,,,,231.686983600026,231.6918210000731,231.6918210000731,232.0065991000738,b,1.0,0.3075351999141276,,,,,,sub-014,1,stroop_test,121.57877333834138,
,,,,54.0,6.0,4.0,,,,,,,,,,,,,blau,red,r,0.0,r,1.0,0.4353464001324028,,,,,,,,,,4.0,6.0,54.0,4.0,232.0129666000139,,,,,,,,,,,,,,,,,232.00726230000143,232.35473709995856,233.14609819999896,233.13922620005903,,,,,,,,,,,,,,,,,,,,,,,,,,,,,,,,,,,233.13995580002663,233.14609819999896,233.14609819999896,233.58329090010372,r,1.0,0.4353464001324028,,,,,,sub-014,1,stroop_test,121.57877333834138,
,,,,55.0,7.0,4.0,,,,,,,,,,,,,gelb,red,r,0.0,r,1.0,0.6039553000591695,,,,,,,,,,4.0,7.0,55.0,8.0,233.58779009990397,,,,,,,,,,,,,,,,,233.5838244999759,234.37984469998628,235.1762347999029,235.1645384000149,,,,,,,,,,,,,,,,,,,,,,,,,,,,,,,,,,,235.17034610011612,235.1762347999029,235.1762347999029,235.78239120007493,r,1.0,0.6039553000591695,,,,,,sub-014,1,stroop_test,121.57877333834138,
,,,,56.0,8.0,4.0,,,,,,,,,,,,,blau,blue,b,1.0,b,1.0,0.4815851999446749,,,,,,,,,,4.0,8.0,56.0,6.0,235.78806219995025,,,,,,,,,,,,,,,,,235.7829901999794,235.87969160010107,236.67482670000757,236.6645641000941,,,,,,,,,,,,,,,,,,,,,,,,,,,,,,,,,,,236.66991330008025,236.67482670000757,236.67482670000757,237.164888399886,b,1.0,0.4815851999446749,,,,,,sub-014,1,stroop_test,121.57877333834138,
,,,,57.0,9.0,4.0,,,,,,,,,,,,,gelb,yellow,g,1.0,g,1.0,0.4938490001950413,,,,,,,,,,4.0,9.0,57.0,10.0,237.1712563999463,,,,,,,,,,,,,,,,,237.1654399998952,237.2629555000458,238.0610100000631,238.0475775001105,,,,,,,,,,,,,,,,,,,,,,,,,,,,,,,,,,,238.05421589990144,238.0610100000631,238.0610100000631,238.55723190004937,g,1.0,0.4938490001950413,,,,,,sub-014,1,stroop_test,121.57877333834138,
,,,,58.0,10.0,4.0,,,,,,,,,,,,,gelb,yellow,g,1.0,g,1.0,0.5216513001359999,,,,,,,,,,4.0,10.0,58.0,11.0,238.5628933000844,,,,,,,,,,,,,,,,,238.55771400011145,239.35488080000505,240.14635870000347,240.1391038000584,,,,,,,,,,,,,,,,,,,,,,,,,,,,,,,,,,,240.1398980000522,240.14635870000347,240.14635870000347,240.6729029000271,g,1.0,0.5216513001359999,,,,,,sub-014,1,stroop_test,121.57877333834138,
,,,,59.0,11.0,4.0,,,,,,,,,,,,,rot,yellow,g,0.0,g,1.0,0.3869086999911815,,,,,,,,,,4.0,11.0,59.0,3.0,240.679658500012,,,,,,,,,,,,,,,,,240.6733609000221,241.47133859992027,242.27053579990752,242.2564850000199,,,,,,,,,,,,,,,,,,,,,,,,,,,,,,,,,,,242.26365719991736,242.27053579990752,242.27053579990752,242.66537209996025,g,1.0,0.3869086999911815,,,,,,sub-014,1,stroop_test,121.57877333834138,
,,,,60.0,0.0,5.0,,,,,,,,,,,,,gelb,yellow,g,1.0,g,1.0,0.3931225000414997,,,,,,,,,,5.0,0.0,60.0,10.0,242.67134179989807,,,,,,,,,,,,,,,,,242.66582019999623,243.46300200000405,244.2616675000172,244.2476248999592,,,,,,,,,,,,,,,,,,,,,,,,,,,,,,,,,,,244.2549999000039,244.2616675000172,244.2616675000172,244.6574399000965,g,1.0,0.3931225000414997,,,,,,sub-014,1,stroop_test,121.57877333834138,
,,,,61.0,1.0,5.0,,,,,,,,,,,,,rot,red,r,1.0,r,1.0,0.4315162000712007,,,,,,,,,,5.0,1.0,61.0,1.0,244.66294099995864,,,,,,,,,,,,,,,,,244.65797460009344,245.45476210000925,246.25188119988889,246.23919339990243,,,,,,,,,,,,,,,,,,,,,,,,,,,,,,,,,,,246.2460163000505,246.25188119988889,246.25188119988889,246.68952569994144,r,1.0,0.4315162000712007,,,,,,sub-014,1,stroop_test,121.57877333834138,
,,,,62.0,2.0,5.0,,,,,,,,,,,,,blau,red,r,0.0,r,1.0,0.724435199983418,,,,,,,,,,5.0,2.0,62.0,4.0,246.6961038999725,,,,,,,,,,,,,,,,,246.69005499989728,247.88794600008987,248.68472740007564,248.6724499000702,,,,,,,,,,,,,,,,,,,,,,,,,,,,,,,,,,,248.6787227001041,248.68472740007564,248.68472740007564,249.4152524000965,r,1.0,0.724435199983418,,,,,,sub-014,1,stroop_test,121.57877333834138,
,,,,63.0,3.0,5.0,,,,,,,,,,,,,blau,blue,b,1.0,b,1.0,0.5532905999571085,,,,,,,,,,5.0,3.0,63.0,6.0,249.42112220008855,,,,,,,,,,,,,,,,,249.41586100007407,250.2127972000744,251.00440110010092,250.99746229988523,,,,,,,,,,,,,,,,,,,,,,,,,,,,,,,,,,,250.99823440006003,251.00440110010092,251.00440110010092,251.56482740002684,b,1.0,0.5532905999571085,,,,,,sub-014,1,stroop_test,121.57877333834138,
,,,,64.0,4.0,5.0,,,,,,,,,,,,,blau,yellow,g,0.0,g,1.0,0.6596532000694424,,,,,,,,,,5.0,4.0,64.0,7.0,251.57116049993783,,,,,,,,,,,,,,,,,251.56555010005832,251.9131008000113,252.7045549000613,252.6975447998848,,,,,,,,,,,,,,,,,,,,,,,,,,,,,,,,,,,252.69835920003243,252.7045549000613,252.7045549000613,253.37280140002255,g,1.0,0.6596532000694424,,,,,,sub-014,1,stroop_test,121.57877333834138,
,,,,65.0,5.0,5.0,,,,,,,,,,,,,gelb,red,r,0.0,r,1.0,0.6108908001333475,,,,,,,,,,5.0,5.0,65.0,8.0,253.37954130000435,,,,,,,,,,,,,,,,,253.3732988999691,253.47139280010012,254.27205809997395,254.2563207000494,,,,,,,,,,,,,,,,,,,,,,,,,,,,,,,,,,,254.26583339995705,254.27205809997395,254.27205809997395,254.889270799933,r,1.0,0.6108908001333475,,,,,,sub-014,1,stroop_test,121.57877333834138,
,,,,66.0,6.0,5.0,,,,,,,,,,,,,rot,blue,b,0.0,b,1.0,0.5380597000475973,,,,,,,,,,5.0,6.0,66.0,2.0,254.8962328999769,,,,,,,,,,,,,,,,,254.889785700012,254.9876025998965,255.78539799991995,255.77270750002936,,,,,,,,,,,,,,,,,,,,,,,,,,,,,,,,,,,255.77910410007465,255.78539799991995,255.78539799991995,256.3314984999597,b,1.0,0.5380597000475973,,,,,,sub-014,1,stroop_test,121.57877333834138,
,,,,67.0,7.0,5.0,,,,,,,,,,,,,gelb,blue,b,0.0,b,1.0,0.4707290001679212,,,,,,,,,,5.0,7.0,67.0,9.0,256.33796610007994,,,,,,,,,,,,,,,,,256.3320603000466,256.4297074000351,257.23011890007183,257.21440150006674,,,,,,,,,,,,,,,,,,,,,,,,,,,,,,,,,,,257.2238924000412,257.23011890007183,257.23011890007183,257.7065836000256,b,1.0,0.4707290001679212,,,,,,sub-014,1,stroop_test,121.57877333834138,
,,,,68.0,8.0,5.0,,,,,,,,,,,,,rot,yellow,g,0.0,g,1.0,0.6018097999040037,,,,,,,,,,5.0,8.0,68.0,3.0,257.71284270007163,,,,,,,,,,,,,,,,,257.7071762001142,258.0542705999688,258.852212900063,258.83920329995453,,,,,,,,,,,,,,,,,,,,,,,,,,,,,,,,,,,258.8457233000081,258.852212900063,258.852212900063,259.4576499001123,g,1.0,0.6018097999040037,,,,,,sub-014,1,stroop_test,121.57877333834138,
,,,,69.0,9.0,5.0,,,,,,,,,,,,,rot,red,r,1.0,r,1.0,0.4293903999496251,,,,,,,,,,5.0,9.0,69.0,0.0,259.4629206000827,,,,,,,,,,,,,,,,,259.458413500106,259.804560800083,260.59610250010155,260.58931319997646,,,,,,,,,,,,,,,,,,,,,,,,,,,,,,,,,,,260.5901434000116,260.59610250010155,260.59610250010155,261.0311390000861,r,1.0,0.4293903999496251,,,,,,sub-014,1,stroop_test,121.57877333834138,
,,,,70.0,10.0,5.0,,,,,,,,,,,,,blau,blue,b,1.0,b,1.0,0.5046128001995385,,,,,,,,,,5.0,10.0,70.0,5.0,261.0377986000385,,,,,,,,,,,,,,,,,261.03164210007526,261.3795276999008,262.1768650000449,262.1640657999087,,,,,,,,,,,,,,,,,,,,,,,,,,,,,,,,,,,262.1705761998892,262.1768650000449,262.1768650000449,262.6900388998911,b,1.0,0.5046128001995385,,,,,,sub-014,1,stroop_test,121.57877333834138,
,,,,71.0,11.0,5.0,,,,,,,,,,,,,gelb,yellow,g,1.0,g,1.0,0.8896234999410808,,,,,,,,,,5.0,11.0,71.0,11.0,262.6961399998981,,,,,,,,,,,,,,,,,262.6906814000104,263.887920799898,264.6872704999987,264.6722699999809,,,,,,,,,,,,,,,,,,,,,,,,,,,,,,,,,,,264.67994170007296,264.6872704999987,264.6872704999987,265.5812385000754,g,1.0,0.8896234999410808,,,,,,sub-014,1,stroop_test,121.57877333834138,
,,,,72.0,0.0,6.0,,,,,,,,,,,,,blau,blue,b,1.0,b,1.0,0.4541331001091748,,,,,,,,,,6.0,0.0,72.0,6.0,265.58763620001264,,,,,,,,,,,,,,,,,265.5818159999326,265.9296736000106,266.7271173000336,266.714143600082,,,,,,,,,,,,,,,,,,,,,,,,,,,,,,,,,,,266.7201064999681,266.7271173000336,266.7271173000336,267.1895777999889,b,1.0,0.4541331001091748,,,,,,sub-014,1,stroop_test,121.57877333834138,
,,,,73.0,1.0,6.0,,,,,,,,,,,,,rot,red,r,1.0,r,1.0,1.5315224998630583,,,,,,,,,,6.0,1.0,73.0,0.0,267.1961501000915,,,,,,,,,,,,,,,,,267.1901408000849,268.38785249996,269.1881166000385,269.1724900000263,,,,,,,,,,,,,,,,,,,,,,,,,,,,,,,,,,,269.1811736000236,269.1881166000385,269.1881166000385,270.72301990003325,r,1.0,1.5315224998630583,,,,,,sub-014,1,stroop_test,121.57877333834138,
,,,,74.0,2.0,6.0,,,,,,,,,,,,,gelb,yellow,g,1.0,g,1.0,0.603451699949801,,,,,,,,,,6.0,2.0,74.0,11.0,270.7294809999876,,,,,,,,,,,,,,,,,270.72357559995726,271.92123889992945,272.7195558999665,272.70591140002944,,,,,,,,,,,,,,,,,,,,,,,,,,,,,,,,,,,272.71259170002304,272.7195558999665,272.7195558999665,273.3311526998877,g,1.0,0.603451699949801,,,,,,sub-014,1,stroop_test,121.57877333834138,
,,,,75.0,3.0,6.0,,,,,,,,,,,,,gelb,blue,b,0.0,b,1.0,0.4110922999680042,,,,,,,,,,6.0,3.0,75.0,9.0,273.33774089999497,,,,,,,,,,,,,,,,,273.3316019000485,273.6794046000577,274.4710248999763,274.4643504000269,,,,,,,,,,,,,,,,,,,,,,,,,,,,,,,,,,,274.46512329997495,274.4710248999763,274.4710248999763,274.88938839989714,b,1.0,0.4110922999680042,,,,,,sub-014,1,stroop_test,121.57877333834138,
,,,,76.0,4.0,6.0,,,,,,,,,,,,,blau,blue,b,1.0,b,1.0,0.5228158000390977,,,,,,,,,,6.0,4.0,76.0,5.0,274.896194400033,,,,,,,,,,,,,,,,,274.8898330000229,275.23757530003786,276.03454010002315,276.02236049994826,,,,,,,,,,,,,,,,,,,,,,,,,,,,,,,,,,,276.0285914998967,276.03454010002315,276.03454010002315,276.5648986999877,b,1.0,0.5228158000390977,,,,,,sub-014,1,stroop_test,121.57877333834138,
,,,,77.0,5.0,6.0,,,,,,,,,,,,,rot,red,r,1.0,r,1.0,0.5745767001062632,,,,,,,,,,6.0,5.0,77.0,1.0,276.57107509998605,,,,,,,,,,,,,,,,,276.56549869989976,277.3629370999988,278.15772100002505,278.146821500035,,,,,,,,,,,,,,,,,,,,,,,,,,,,,,,,,,,278.1521658001002,278.15772100002505,278.15772100002505,278.7397898999043,r,1.0,0.5745767001062632,,,,,,sub-014,1,stroop_test,121.57877333834138,
,,,,78.0,6.0,6.0,,,,,,,,,,,,,blau,red,r,0.0,r,1.0,0.7177769001573324,,,,,,,,,,6.0,6.0,78.0,4.0,278.74608889990486,,,,,,,,,,,,,,,,,278.74025829997845,278.83788709994406,279.6370765999891,279.6247966999654,,,,,,,,,,,,,,,,,,,,,,,,,,,,,,,,,,,279.630044599995,279.6370765999891,279.6370765999891,280.35787430009805,r,1.0,0.7177769001573324,,,,,,sub-014,1,stroop_test,121.57877333834138,
,,,,79.0,7.0,6.0,,,,,,,,,,,,,gelb,yellow,g,1.0,g,1.0,0.4660376000683754,,,,,,,,,,6.0,7.0,79.0,10.0,280.36258980003186,,,,,,,,,,,,,,,,,280.3585312999785,280.4546205000952,281.25379380001687,281.2392267999239,,,,,,,,,,,,,,,,,,,,,,,,,,,,,,,,,,,281.24672949989326,281.25379380001687,281.25379380001687,281.72328809998,g,1.0,0.4660376000683754,,,,,,sub-014,1,stroop_test,121.57877333834138,
,,,,80.0,8.0,6.0,,,,,,,,,,,,,rot,yellow,g,0.0,g,1.0,0.6808491998817772,,,,,,,,,,6.0,8.0,80.0,3.0,281.7294218998868,,,,,,,,,,,,,,,,,281.72381630004384,282.5211831999477,283.3180279999506,283.305315699894,,,,,,,,,,,,,,,,,,,,,,,,,,,,,,,,,,,283.31201940006576,283.3180279999506,283.3180279999506,284.00637799990363,g,1.0,0.6808491998817772,,,,,,sub-014,1,stroop_test,121.57877333834138,
,,,,81.0,9.0,6.0,,,,,,,,,,,,,gelb,red,r,0.0,r,1.0,0.8035993999801576,,,,,,,,,,6.0,9.0,81.0,8.0,284.0127381000202,,,,,,,,,,,,,,,,,284.0068574000616,284.8044938999228,285.60154450009577,285.589009599993,,,,,,,,,,,,,,,,,,,,,,,,,,,,,,,,,,,285.5951942000538,285.60154450009577,285.60154450009577,286.4145178999752,r,1.0,0.8035993999801576,,,,,,sub-014,1,stroop_test,121.57877333834138,
,,,,82.0,10.0,6.0,,,,,,,,,,,,,rot,blue,b,0.0,b,1.0,0.7852724001277238,,,,,,,,,,6.0,10.0,82.0,2.0,286.42120480001904,,,,,,,,,,,,,,,,,286.41501599992625,287.6129352001008,288.4091779999435,288.3970619998872,,,,,,,,,,,,,,,,,,,,,,,,,,,,,,,,,,,288.4033705999609,288.4091779999435,288.4091779999435,289.19850410008803,b,1.0,0.7852724001277238,,,,,,sub-014,1,stroop_test,121.57877333834138,
,,,,83.0,11.0,6.0,,,,,,,,,,,,,blau,yellow,g,0.0,g,1.0,0.6965652001090348,,,,,,,,,,6.0,11.0,83.0,7.0,289.2046630999539,,,,,,,,,,,,,,,,,289.1991135000717,290.3961197999306,291.19508159998804,291.18097579991445,,,,,,,,,,,,,,,,,,,,,,,,,,,,,,,,,,,291.1885158000514,291.19508159998804,291.19508159998804,291.8975716000423,g,1.0,0.6965652001090348,,,,,,sub-014,1,stroop_test,121.57877333834138,
,,,,84.0,0.0,7.0,,,,,,,,,,,,,blau,blue,b,1.0,b,1.0,1.1691366001032293,,,,,,,,,,7.0,0.0,84.0,5.0,291.9043364999816,,,,,,,,,,,,,,,,,291.8981008001137,292.6961862000171,293.48747849999927,293.4808523000684,,,,,,,,,,,,,,,,,,,,,,,,,,,,,,,,,,,293.4817713999655,293.48747849999927,293.48747849999927,294.6643221001141,b,1.0,1.1691366001032293,,,,,,sub-014,1,stroop_test,121.57877333834138,
,,,,85.0,1.0,7.0,,,,,,,,,,,,,blau,blue,b,1.0,b,1.0,0.5660870999563485,,,,,,,,,,7.0,1.0,85.0,6.0,294.6710451000836,,,,,,,,,,,,,,,,,294.6648542999756,294.76294140005484,295.5544636999257,295.54748630011454,,,,,,,,,,,,,,,,,,,,,,,,,,,,,,,,,,,295.5483365999535,295.5544636999257,295.5544636999257,296.12390229990706,b,1.0,0.5660870999563485,,,,,,sub-014,1,stroop_test,121.57877333834138,
,,,,86.0,2.0,7.0,,,,,,,,,,,,,blau,red,r,0.0,r,1.0,0.448994800215587,,,,,,,,,,7.0,2.0,86.0,4.0,296.1293848999776,,,,,,,,,,,,,,,,,296.12447490007617,296.9210771000944,297.7129595000297,297.7056593000889,,,,,,,,,,,,,,,,,,,,,,,,,,,,,,,,,,,297.7064942000434,297.7129595000297,297.7129595000297,298.16491700010374,r,1.0,0.448994800215587,,,,,,sub-014,1,stroop_test,121.57877333834138,
,,,,87.0,3.0,7.0,,,,,,,,,,,,,rot,red,r,1.0,r,1.0,0.5736092999577522,,,,,,,,,,7.0,3.0,87.0,0.0,298.17109040007927,,,,,,,,,,,,,,,,,298.16555029992014,298.2628498999402,299.0623947000131,299.0473235999234,,,,,,,,,,,,,,,,,,,,,,,,,,,,,,,,,,,299.05510240001604,299.0623947000131,299.0623947000131,299.6403363000136,r,1.0,0.5736092999577522,,,,,,sub-014,1,stroop_test,121.57877333834138,
,,,,88.0,4.0,7.0,,,,,,,,,,,,,rot,yellow,g,0.0,g,1.0,0.7282818998210132,,,,,,,,,,7.0,4.0,88.0,3.0,299.6459609998856,,,,,,,,,,,,,,,,,299.64092970010825,299.9876461001113,300.7793717000168,300.7723852999043,,,,,,,,,,,,,,,,,,,,,,,,,,,,,,,,,,,300.7732063001022,300.7793717000168,300.7793717000168,301.51458729989827,g,1.0,0.7282818998210132,,,,,,sub-014,1,stroop_test,121.57877333834138,
,,,,89.0,5.0,7.0,,,,,,,,,,,,,rot,red,r,1.0,r,1.0,0.5032168000470847,,,,,,,,,,7.0,5.0,89.0,1.0,301.5211970000528,,,,,,,,,,,,,,,,,301.51512599992566,301.6133530999068,302.4042716999538,302.3971985001117,,,,,,,,,,,,,,,,,,,,,,,,,,,,,,,,,,,302.3980316000525,302.4042716999538,302.4042716999538,302.914628499886,r,1.0,0.5032168000470847,,,,,,sub-014,1,stroop_test,121.57877333834138,
,,,,90.0,6.0,7.0,,,,,,,,,,,,,gelb,yellow,g,1.0,g,1.0,1.2179307001642885,,,,,,,,,,7.0,6.0,90.0,10.0,302.9210814998951,,,,,,,,,,,,,,,,,302.915223200107,303.0126344000455,303.81110220006667,303.79749900009483,,,,,,,,,,,,,,,,,,,,,,,,,,,,,,,,,,,303.8045564000495,303.81110220006667,303.81110220006667,305.03247259999625,g,1.0,1.2179307001642885,,,,,,sub-014,1,stroop_test,121.57877333834138,
,,,,91.0,7.0,7.0,,,,,,,,,,,,,gelb,yellow,g,1.0,g,1.0,0.5507068999577314,,,,,,,,,,7.0,7.0,91.0,11.0,305.0374503999483,,,,,,,,,,,,,,,,,305.0331230999436,305.379464100115,306.1707607000135,306.1631350000389,,,,,,,,,,,,,,,,,,,,,,,,,,,,,,,,,,,306.1637790000532,306.1707607000135,306.1707607000135,306.7235318999737,g,1.0,0.5507068999577314,,,,,,sub-014,1,stroop_test,121.57877333834138,
,,,,92.0,8.0,7.0,,,,,,,,,,,,,rot,blue,b,0.0,b,1.0,0.5805059999693185,,,,,,,,,,7.0,8.0,92.0,2.0,306.7291538999416,,,,,,,,,,,,,,,,,306.724104099907,306.8209591000341,307.61680110008456,307.60557830007747,,,,,,,,,,,,,,,,,,,,,,,,,,,,,,,,,,,307.6114616000559,307.61680110008456,307.61680110008456,308.2059164000675,b,1.0,0.5805059999693185,,,,,,sub-014,1,stroop_test,121.57877333834138,
,,,,93.0,9.0,7.0,,,,,,,,,,,,,gelb,blue,b,0.0,b,1.0,0.5062996000051498,,,,,,,,,,7.0,9.0,93.0,9.0,308.21259010001086,,,,,,,,,,,,,,,,,308.206500899978,308.30438990006223,309.10106120002456,309.0888084999752,,,,,,,,,,,,,,,,,,,,,,,,,,,,,,,,,,,309.0947453000117,309.10106120002456,309.10106120002456,309.6140435000416,b,1.0,0.5062996000051498,,,,,,sub-014,1,stroop_test,121.57877333834138,
,,,,94.0,10.0,7.0,,,,,,,,,,,,,blau,yellow,g,0.0,g,1.0,2.137649000156671,,,,,,,,,,7.0,10.0,94.0,7.0,309.6209338000044,,,,,,,,,,,,,,,,,309.6145609000232,309.9626029001083,310.7610287000425,310.74761150009,,,,,,,,,,,,,,,,,,,,,,,,,,,,,,,,,,,310.75457550003193,310.7610287000425,310.7610287000425,312.9059081999585,g,1.0,2.137649000156671,,,,,,sub-014,1,stroop_test,121.57877333834138,
,,,,95.0,11.0,7.0,,,,,,,,,,,,,gelb,red,r,0.0,r,1.0,2.532795800128952,,,,,,,,,,7.0,11.0,95.0,8.0,312.9127307999879,,,,,,,,,,,,,,,,,312.90640560002066,314.1043740999885,314.90277149993926,314.8887954000384,,,,,,,,,,,,,,,,,,,,,,,,,,,,,,,,,,,314.8954618999269,314.90277149993926,314.90277149993926,317.4414288001135,r,1.0,2.532795800128952,,,,,,sub-014,1,stroop_test,121.57877333834138,
,,,,96.0,0.0,8.0,,,,,,,,,,,,,rot,red,r,1.0,r,1.0,0.4171790999826044,,,,,,,,,,8.0,0.0,96.0,1.0,317.44638419989496,,,,,,,,,,,,,,,,,317.4419939001091,317.5377813000232,318.33548019989394,318.32268079998903,,,,,,,,,,,,,,,,,,,,,,,,,,,,,,,,,,,318.3297534000594,318.33548019989394,318.33548019989394,318.75602199998684,r,1.0,0.4171790999826044,,,,,,sub-014,1,stroop_test,121.57877333834138,
,,,,97.0,1.0,8.0,,,,,,,,,,,,,blau,blue,b,1.0,b,1.0,0.4513467000797391,,,,,,,,,,8.0,1.0,97.0,6.0,318.7625066000037,,,,,,,,,,,,,,,,,318.75652830000035,319.554411200108,320.3514811000787,320.33921979996376,,,,,,,,,,,,,,,,,,,,,,,,,,,,,,,,,,,320.3455229999963,320.3514811000787,320.3514811000787,320.80610730010085,b,1.0,0.4513467000797391,,,,,,sub-014,1,stroop_test,121.57877333834138,
,,,,98.0,2.0,8.0,,,,,,,,,,,,,gelb,yellow,g,1.0,g,1.0,0.4661032999865711,,,,,,,,,,8.0,2.0,98.0,11.0,320.81253900006413,,,,,,,,,,,,,,,,,320.80661080009304,320.9044196999166,321.70176499988884,321.688979400089,,,,,,,,,,,,,,,,,,,,,,,,,,,,,,,,,,,321.69540300010704,321.70176499988884,321.70176499988884,322.17264529992826,g,1.0,0.4661032999865711,,,,,,sub-014,1,stroop_test,121.57877333834138,
,,,,99.0,3.0,8.0,,,,,,,,,,,,,blau,red,r,0.0,r,1.0,0.4703022998291999,,,,,,,,,,8.0,3.0,99.0,4.0,322.1792154000141,,,,,,,,,,,,,,,,,322.1731410000939,322.5210450000596,323.3207423000131,323.30556289991364,,,,,,,,,,,,,,,,,,,,,,,,,,,,,,,,,,,323.3143241000362,323.3207423000131,323.3207423000131,323.79759340011515,r,1.0,0.4703022998291999,,,,,,sub-014,1,stroop_test,121.57877333834138,
,,,,100.0,4.0,8.0,,,,,,,,,,,,,blau,blue,b,1.0,b,1.0,0.5425500001292676,,,,,,,,,,8.0,4.0,100.0,5.0,323.8040803000331,,,,,,,,,,,,,,,,,323.79831010010093,324.59586569992825,325.3878989000805,325.38086359994486,,,,,,,,,,,,,,,,,,,,,,,,,,,,,,,,,,,325.3817004999146,325.3878989000805,325.3878989000805,325.9390523999464,b,1.0,0.5425500001292676,,,,,,sub-014,1,stroop_test,121.57877333834138,
,,,,101.0,5.0,8.0,,,,,,,,,,,,,rot,blue,b,0.0,b,1.0,0.321223400067538,,,,,,,,,,8.0,5.0,101.0,2.0,325.9458455001004,,,,,,,,,,,,,,,,,325.9395808000117,327.1377143000718,327.93552580010146,327.92193620000035,,,,,,,,,,,,,,,,,,,,,,,,,,,,,,,,,,,327.92846479988657,327.93552580010146,327.93552580010146,328.2638836998958,b,1.0,0.321223400067538,,,,,,sub-014,1,stroop_test,121.57877333834138,
,,,,102.0,6.0,8.0,,,,,,,,,,,,,gelb,yellow,g,1.0,g,1.0,4.0192786999978125,,,,,,,,,,8.0,6.0,102.0,10.0,328.2709001000039,,,,,,,,,,,,,,,,,328.2645091000013,328.36305029992945,329.1613920999225,329.1469270000234,,,,,,,,,,,,,,,,,,,,,,,,,,,,,,,,,,,329.1539247001056,329.1613920999225,329.1613920999225,333.1894245999865,g,1.0,4.0192786999978125,,,,,,sub-014,1,stroop_test,121.57877333834138,
,,,,103.0,7.0,8.0,,,,,,,,,,,,,blau,yellow,g,0.0,g,1.0,0.6460240001324564,,,,,,,,,,8.0,7.0,103.0,7.0,333.1959100998938,,,,,,,,,,,,,,,,,333.1899476998952,334.3874882000964,335.18401629989967,335.17232070001774,,,,,,,,,,,,,,,,,,,,,,,,,,,,,,,,,,,335.17843340011314,335.18401629989967,335.18401629989967,335.83200630010106,g,1.0,0.6460240001324564,,,,,,sub-014,1,stroop_test,121.57877333834138,
,,,,104.0,8.0,8.0,,,,,,,,,,,,,gelb,red,r,0.0,r,1.0,0.458078800002113,,,,,,,,,,8.0,8.0,104.0,8.0,335.83755600010045,,,,,,,,,,,,,,,,,335.8325006000232,336.6292167000938,337.4297098000534,337.4142859999556,,,,,,,,,,,,,,,,,,,,,,,,,,,,,,,,,,,337.4224127000198,337.4297098000534,337.4297098000534,337.8907949998975,r,1.0,0.458078800002113,,,,,,sub-014,1,stroop_test,121.57877333834138,
,,,,105.0,9.0,8.0,,,,,,,,,,,,,rot,red,r,1.0,r,1.0,0.3928962999489158,,,,,,,,,,8.0,9.0,105.0,0.0,337.8957861000672,,,,,,,,,,,,,,,,,337.8914226000197,337.98750600009225,338.7863682000898,338.7726529999636,,,,,,,,,,,,,,,,,,,,,,,,,,,,,,,,,,,338.77976580010727,338.7863682000898,338.7863682000898,339.1819112000521,r,1.0,0.3928962999489158,,,,,,sub-014,1,stroop_test,121.57877333834138,
,,,,106.0,10.0,8.0,,,,,,,,,,,,,gelb,blue,b,0.0,b,1.0,0.5095301999244839,,,,,,,,,,8.0,10.0,106.0,9.0,339.18768210010603,,,,,,,,,,,,,,,,,339.1825135999825,340.3791543999687,341.17932979995385,341.1642724000849,,,,,,,,,,,,,,,,,,,,,,,,,,,,,,,,,,,341.1720694000833,341.17932979995385,341.17932979995385,341.6985088000074,b,1.0,0.5095301999244839,,,,,,sub-014,1,stroop_test,121.57877333834138,
,,,,107.0,11.0,8.0,,,,,,,,,,,,,rot,yellow,g,0.0,g,1.0,1.3485935002099725,,,,,,,,,,8.0,11.0,107.0,3.0,341.703996400116,,,,,,,,,,,,,,,,,341.6993909000885,341.79594870004803,342.5942333000712,342.5807860000059,,,,,,,,,,,,,,,,,,,,,,,,,,,,,,,,,,,342.58763210009784,342.5942333000712,342.5942333000712,343.947965499945,g,1.0,1.3485935002099725,,,,,,sub-014,1,stroop_test,121.57877333834138,
,,,,108.0,0.0,9.0,,,,,,,,,,,,,gelb,yellow,g,1.0,g,1.0,0.6039801998995245,,,,,,,,,,9.0,0.0,108.0,11.0,343.9542411000002,,,,,,,,,,,,,,,,,343.94858959992416,344.0460846000351,344.8434852999635,344.83054129988886,,,,,,,,,,,,,,,,,,,,,,,,,,,,,,,,,,,344.8369293999858,344.8434852999635,344.8434852999635,345.4556674999185,g,1.0,0.6039801998995245,,,,,,sub-014,1,stroop_test,121.57877333834138,
,,,,109.0,1.0,9.0,,,,,,,,,,,,,blau,blue,b,1.0,b,1.0,0.7723659998737276,,,,,,,,,,9.0,1.0,109.0,5.0,345.4625846000854,,,,,,,,,,,,,,,,,345.4561197999865,345.5543295999523,346.3484559999779,346.33882740000263,,,,,,,,,,,,,,,,,,,,,,,,,,,,,,,,,,,346.3432577000931,346.3484559999779,346.3484559999779,347.12345790001564,b,1.0,0.7723659998737276,,,,,,sub-014,1,stroop_test,121.57877333834138,
,,,,110.0,2.0,9.0,,,,,,,,,,,,,gelb,red,r,0.0,r,1.0,0.461096900049597,,,,,,,,,,9.0,2.0,110.0,8.0,347.1290436000563,,,,,,,,,,,,,,,,,347.124140500091,347.9207991999574,348.72174359997734,348.7055089001078,,,,,,,,,,,,,,,,,,,,,,,,,,,,,,,,,,,348.71327499998733,348.72174359997734,348.72174359997734,349.1888268000912,r,1.0,0.461096900049597,,,,,,sub-014,1,stroop_test,121.57877333834138,
,,,,111.0,3.0,9.0,,,,,,,,,,,,,gelb,blue,b,0.0,b,1.0,1.5443417998030782,,,,,,,,,,9.0,3.0,111.0,9.0,349.1958161999937,,,,,,,,,,,,,,,,,349.18924059998244,350.3875764000695,351.1792035999242,351.1721751999576,,,,,,,,,,,,,,,,,,,,,,,,,,,,,,,,,,,351.17326269997284,351.1792035999242,351.1792035999242,352.7312066000886,b,1.0,1.5443417998030782,,,,,,sub-014,1,stroop_test,121.57877333834138,
,,,,112.0,4.0,9.0,,,,,,,,,,,,,blau,yellow,g,0.0,g,1.0,0.6695985000114888,,,,,,,,,,9.0,4.0,112.0,7.0,352.7375336000696,,,,,,,,,,,,,,,,,352.731810499914,353.0792050999589,353.8719007000327,353.8634530999698,,,,,,,,,,,,,,,,,,,,,,,,,,,,,,,,,,,353.86762590007856,353.8719007000327,353.8719007000327,354.5488281000871,g,1.0,0.6695985000114888,,,,,,sub-014,1,stroop_test,121.57877333834138,
,,,,113.0,5.0,9.0,,,,,,,,,,,,,blau,blue,b,1.0,b,1.0,0.418117200024426,,,,,,,,,,9.0,5.0,113.0,6.0,354.5542220000643,,,,,,,,,,,,,,,,,354.5494113001041,354.64582469989546,355.4375545999501,355.4305358999409,,,,,,,,,,,,,,,,,,,,,,,,,,,,,,,,,,,355.4313135999255,355.4375545999501,355.4375545999501,355.8646857000422,b,1.0,0.418117200024426,,,,,,sub-014,1,stroop_test,121.57877333834138,
,,,,114.0,6.0,9.0,,,,,,,,,,,,,rot,blue,b,0.0,b,1.0,0.4883204998914152,,,,,,,,,,9.0,6.0,114.0,2.0,355.8708377999719,,,,,,,,,,,,,,,,,355.865157000022,355.9624338999856,356.76174629991874,356.7478219999466,,,,,,,,,,,,,,,,,,,,,,,,,,,,,,,,,,,356.75411850004457,356.76174629991874,356.76174629991874,357.25624740007333,b,1.0,0.4883204998914152,,,,,,sub-014,1,stroop_test,121.57877333834138,
,,,,115.0,7.0,9.0,,,,,,,,,,,,,rot,yellow,g,0.0,g,1.0,3.0476309000514448,,,,,,,,,,9.0,7.0,115.0,3.0,357.26249559992,,,,,,,,,,,,,,,,,357.2567890000064,357.6041979000438,358.39614659990184,358.3887519000564,,,,,,,,,,,,,,,,,,,,,,,,,,,,,,,,,,,358.38993100007065,358.39614659990184,358.39614659990184,361.4483547999989,g,1.0,3.0476309000514448,,,,,,sub-014,1,stroop_test,121.57877333834138,
,,,,116.0,8.0,9.0,,,,,,,,,,,,,blau,red,r,0.0,r,1.0,0.9856264998670669,,,,,,,,,,9.0,8.0,116.0,4.0,361.454069300089,,,,,,,,,,,,,,,,,361.4489746999461,362.2459044998977,363.04295310005546,363.030295799952,,,,,,,,,,,,,,,,,,,,,,,,,,,,,,,,,,,363.0366996999364,363.04295310005546,363.04295310005546,364.0312838000245,r,1.0,0.9856264998670669,,,,,,sub-014,1,stroop_test,121.57877333834138,
,,,,117.0,9.0,9.0,,,,,,,,,,,,,gelb,yellow,g,1.0,g,1.0,0.8973765999544412,,,,,,,,,,9.0,9.0,117.0,10.0,364.0372959999368,,,,,,,,,,,,,,,,,364.0317631999496,364.12906059995294,364.9270798999351,364.9139356999658,,,,,,,,,,,,,,,,,,,,,,,,,,,,,,,,,,,364.920331900008,364.9270798999351,364.9270798999351,365.83115070010535,g,1.0,0.8973765999544412,,,,,,sub-014,1,stroop_test,121.57877333834138,
,,,,118.0,10.0,9.0,,,,,,,,,,,,,rot,red,r,1.0,r,1.0,0.488427200121805,,,,,,,,,,9.0,10.0,118.0,1.0,365.8375083999708,,,,,,,,,,,,,,,,,365.8316754999105,366.6292379000224,367.42859339993447,367.4137315999251,,,,,,,,,,,,,,,,,,,,,,,,,,,,,,,,,,,367.4215629999526,367.42859339993447,367.42859339993447,367.9227996000554,r,1.0,0.488427200121805,,,,,,sub-014,1,stroop_test,121.57877333834138,
,,,,119.0,11.0,9.0,,,,,,,,,,,,,rot,red,r,1.0,r,1.0,3.271324399858713,,,,,,,,,,9.0,11.0,119.0,0.0,367.9289720999077,,,,,,,,,,,,,,,,,367.9232934999745,368.7208734001033,369.5122454999946,369.5055031001102,,,,,,,,,,,,,,,,,,,,,,,,,,,,,,,,,,,369.5062531000003,369.5122454999946,369.5122454999946,372.78937279991806,r,1.0,3.271324399858713,,,,,,sub-014,1,stroop_test,121.57877333834138,
,,,,,,,,,,,,,,,,,,,,,,,,,,,,,,,,,,,,,,,,,,,,,,,,,,,,,,,,,,,,,,,,,,,,,,,,,,,,,,,,,,,,,,,,,,,,,,,,,,,,,,372.7896783000324,372.79556229989976,377.7873249999248,377.7802542999853,sub-014,1,stroop_test,121.57877333834138,
