wordCTK,colorCTK,corrAnsCTK,congruentCTK,thisN,thisTrialN,thisRepN,keyResp_CTK.keys,keyResp_CTK.corr,keyResp_CTK.rt,keyResp_CTK.duration,wordPractice,colorPractice,corrAnsPractice,congruentPractice,respPractice.keys,respPractice.corr,respPractice.rt,respPractice.duration,word,color,corrAns,congruent,keyResp_test_run.keys,keyResp_test_run.corr,keyResp_test_run.rt,keyResp_test_run.duration,trials_CTK.thisRepN,trials_CTK.thisTrialN,trials_CTK.thisN,trials_CTK.thisIndex,trials_practice.thisRepN,trials_practice.thisTrialN,trials_practice.thisN,trials_practice.thisIndex,trials_test.thisRepN,trials_test.thisTrialN,trials_test.thisN,trials_test.thisIndex,thisRow.t,notes,instruction.started,instr_text.started,instr_image.started,instr_resp.started,instruction.stopped,instr_resp.keys,instr_resp.rt,instr_resp.duration,instr_color_to_key.started,instr_ctk.started,resp_ctk.started,instr_color_to_key.stopped,resp_ctk.keys,resp_ctk.rt,resp_ctk.duration,ITI.started,fixcross.started,fixcross.stopped,ITI.stopped,color_to_key_run.started,stimulus_CTK.started,keyResp_CTK.started,color_to_key_run.stopped,trials_CTK.keyResp_CTK.keys,trials_CTK.keyResp_CTK.corr,trials_CTK.keyResp_CTK.rt,trials_CTK.keyResp_CTK.duration,instr_practice.started,instr_practice_text.started,instr_practice_resp.started,instr_practice.stopped,instr_practice_resp.keys,instr_practice_resp.rt,instr_practice_resp.duration,practice_run.started,stimulus_practice.started,respPractice.started,practice_run.stopped,trials_practice.respPractice.keys,trials_practice.respPractice.corr,trials_practice.respPractice.rt,trials_practice.respPractice.duration,feedback.started,textFeedback.started,feedback.stopped,textFeedback.stopped,instr_test.started,instr_test_text.started,instr_test_resp.started,instr_test.stopped,instr_test_resp.keys,instr_test_resp.rt,instr_test_resp.duration,test_run.started,stimulus_test_run.started,keyResp_test_run.started,test_run.stopped,trials_test.keyResp_test_run.keys,trials_test.keyResp_test_run.corr,trials_test.keyResp_test_run.rt,trials_test.keyResp_test_run.duration,goodbye.started,textGoodbye.started,textGoodbye.stopped,goodbye.stopped,participant,session,expName,frameRate,Unnamed: 113
,,,,,,,,,,,,,,,,,,,,,,,,,,,,,,,,,,,,,,,,,0.0168589729873929,0.0439914149756077,0.0439914149756077,0.0439914149756077,42.56225320597878,space,42.45793854500516,,,,,,,,,,,,,,,,,,,,,,,,,,,,,,,,,,,,,,,,,,,,,,,,,,,,,,,,,,,sub-012,1,stroop_test,80.33066156950305,
,,,,,,,,,,,,,,,,,,,,,,,,,,,,,,,,,,,,,,,,,,,,,,,,,42.56239805498626,42.57951089198468,42.57951089198468,49.7171363599773,space,7.122639915003674,,,,,,,,,,,,,,,,,,,,,,,,,,,,,,,,,,,,,,,,,,,,,,,,,,,,sub-012,1,stroop_test,80.33066156950305,
test,blue,b,1.0,0.0,0.0,0.0,b,1.0,2.125879278988577,,,,,,,,,,,,,,,,,,0.0,0.0,0.0,2.0,,,,,,,,,49.7597475599905,,,,,,,,,,,,,,,,,49.74581185998977,50.51340550897294,51.31354575397563,51.29760270699626,51.30464374099392,51.31354575397563,51.31354575397563,53.44293355898117,b,1.0,2.125879278988577,,,,,,,,,,,,,,,,,,,,,,,,,,,,,,,,,,,,,,,,sub-012,1,stroop_test,80.33066156950305,
test,red,r,1.0,1.0,1.0,0.0,r,1.0,1.5943851599877237,,,,,,,,,,,,,,,,,,0.0,1.0,1.0,0.0,,,,,,,,,53.45327481999993,,,,,,,,,,,,,,,,,53.44355785599328,53.54785512699164,54.36101585597498,54.3491744879866,54.34985335197416,54.36101585597498,54.36101585597498,55.96630175397149,r,1.0,1.5943851599877237,,,,,,,,,,,,,,,,,,,,,,,,,,,,,,,,,,,,,,,,sub-012,1,stroop_test,80.33066156950305,
test,yellow,g,1.0,2.0,2.0,0.0,g,1.0,0.6841997549927328,,,,,,,,,,,,,,,,,,0.0,2.0,2.0,1.0,,,,,,,,,55.9790639319981,,,,,,,,,,,,,,,,,55.96672782598762,56.31387001698022,57.11177321599098,57.1006152619957,57.10133766999934,57.11177321599098,57.11177321599098,57.802407294977456,g,1.0,0.6841997549927328,,,,,,,,,,,,,,,,,,,,,,,,,,,,,,,,,,,,,,,,sub-012,1,stroop_test,80.33066156950305,
test,blue,b,1.0,3.0,0.0,1.0,b,1.0,0.5857216999866068,,,,,,,,,,,,,,,,,,1.0,0.0,3.0,2.0,,,,,,,,,57.81339946200024,,,,,,,,,,,,,,,,,57.8028528939758,58.61283100597211,59.409457694971934,59.39881637398503,59.39945992999128,59.409457694971934,59.409457694971934,60.0004955859913,b,1.0,0.5857216999866068,,,,,,,,,,,,,,,,,,,,,,,,,,,,,,,,,,,,,,,,sub-012,1,stroop_test,80.33066156950305,
test,yellow,g,1.0,4.0,1.0,1.0,g,1.0,0.8334766940097325,,,,,,,,,,,,,,,,,,1.0,1.0,4.0,1.0,,,,,,,,,60.0121009349823,,,,,,,,,,,,,,,,,60.00093462198856,61.20624884299468,62.054636340995785,62.04341393499635,62.04450316898874,62.054636340995785,62.054636340995785,62.89377059598337,g,1.0,0.8334766940097325,,,,,,,,,,,,,,,,,,,,,,,,,,,,,,,,,,,,,,,,sub-012,1,stroop_test,80.33066156950305,
test,red,r,1.0,5.0,2.0,1.0,r,1.0,1.3213410559983458,,,,,,,,,,,,,,,,,,1.0,2.0,5.0,0.0,,,,,,,,,62.90361883598962,,,,,,,,,,,,,,,,,62.89449276897358,62.98863986498327,63.79230609699152,63.78205713597709,63.7827302349906,63.79230609699152,63.79230609699152,65.1208577209909,r,1.0,1.3213410559983458,,,,,,,,,,,,,,,,,,,,,,,,,,,,,,,,,,,,,,,,sub-012,1,stroop_test,80.33066156950305,
test,yellow,g,1.0,6.0,0.0,2.0,g,1.0,0.9210627530119382,,,,,,,,,,,,,,,,,,2.0,0.0,6.0,1.0,,,,,,,,,65.13219398297952,,,,,,,,,,,,,,,,,65.12129187397659,65.21532643897808,66.01322490797611,65.99963639999623,66.00029592899955,66.01322490797611,66.01322490797611,66.94360861499445,g,1.0,0.9210627530119382,,,,,,,,,,,,,,,,,,,,,,,,,,,,,,,,,,,,,,,,sub-012,1,stroop_test,80.33066156950305,
test,red,r,1.0,7.0,1.0,2.0,r,1.0,0.642468967998866,,,,,,,,,,,,,,,,,,2.0,1.0,7.0,0.0,,,,,,,,,66.95281863797572,,,,,,,,,,,,,,,,,66.94421061099274,68.13805697998032,68.93571741197957,68.92509790297481,68.92608626198489,68.93571741197957,68.93571741197957,69.58492285598186,r,1.0,0.642468967998866,,,,,,,,,,,,,,,,,,,,,,,,,,,,,,,,,,,,,,,,sub-012,1,stroop_test,80.33066156950305,
test,blue,b,1.0,8.0,2.0,2.0,b,1.0,0.5676313430012669,,,,,,,,,,,,,,,,,,2.0,2.0,8.0,2.0,,,,,,,,,69.59620058198925,,,,,,,,,,,,,,,,,69.58534184799646,70.79781940497924,71.59532420799951,71.58235947199864,71.58332397599588,71.59532420799951,71.59532420799951,72.1706032929942,b,1.0,0.5676313430012669,,,,,,,,,,,,,,,,,,,,,,,,,,,,,,,,,,,,,,,,sub-012,1,stroop_test,80.33066156950305,
test,red,r,1.0,9.0,0.0,3.0,r,1.0,0.7323981250228826,,,,,,,,,,,,,,,,,,3.0,0.0,9.0,0.0,,,,,,,,,72.18210372398607,,,,,,,,,,,,,,,,,72.17104979499709,72.51219052297529,73.31189711298794,73.30053619598038,73.30124114398495,73.31189711298794,73.31189711298794,74.05383486999199,r,1.0,0.7323981250228826,,,,,,,,,,,,,,,,,,,,,,,,,,,,,,,,,,,,,,,,sub-012,1,stroop_test,80.33066156950305,
test,blue,b,1.0,10.0,1.0,3.0,b,1.0,0.5520170539966784,,,,,,,,,,,,,,,,,,3.0,1.0,10.0,2.0,,,,,,,,,74.06511856097495,,,,,,,,,,,,,,,,,74.05426603599335,74.1460120289994,74.96327653797925,74.94770280297962,74.94865757098887,74.96327653797925,74.96327653797925,75.5259530779731,b,1.0,0.5520170539966784,,,,,,,,,,,,,,,,,,,,,,,,,,,,,,,,,,,,,,,,sub-012,1,stroop_test,80.33066156950305,
test,yellow,g,1.0,11.0,2.0,3.0,g,1.0,0.4785608419915661,,,,,,,,,,,,,,,,,,3.0,2.0,11.0,1.0,,,,,,,,,75.5361409879988,,,,,,,,,,,,,,,,,75.52651785497437,75.62280243699206,76.42695140099386,76.41508255898952,76.41573877597693,76.42695140099386,76.42695140099386,76.91594489398994,g,1.0,0.4785608419915661,,,,,,,,,,,,,,,,,,,,,,,,,,,,,,,,,,,,,,,,sub-012,1,stroop_test,80.33066156950305,
,,,,,,,,,,,,,,,,,,,,,,,,,,,,,,,,,,,,,,,,,,,,,,,,,,,,,,,,,,,,,,,,,,,,76.91610474599293,76.92899024899816,76.92899024899816,84.60299554598168,space,7.669501488009699,,,,,,,,,,,,,,,,,,,,,,,,,,,,,,,,,sub-012,1,stroop_test,80.33066156950305,
,,,,0.0,0.0,0.0,,,,,gelb,red,r,0.0,r,1.0,0.9886904779996256,,,,,,,,,,,,,,0.0,0.0,0.0,8.0,,,,,84.62999146897346,,,,,,,,,,,,,,,,,84.62049059997662,85.81377579498803,86.61810281299404,86.60131397997611,,,,,,,,,,,,,,,,86.60849940197659,86.61810281299404,86.61810281299404,87.61151591397356,r,1.0,0.9886904779996256,,87.61921867998899,87.63150286098244,88.61554080600035,,,,,,,,,,,,,,,,,,,,,sub-012,1,stroop_test,80.33066156950305,
,,,,1.0,1.0,0.0,,,,,rot,blue,b,0.0,b,1.0,2.293307186977472,,,,,,,,,,,,,,0.0,1.0,1.0,2.0,,,,,88.63095702999271,,,,,,,,,,,,,,,,,88.61632569498033,88.95437420299277,89.75491494999733,89.73899027798325,,,,,,,,,,,,,,,,89.74543225497473,89.75491494999733,89.75491494999733,92.06026042197482,b,1.0,2.293307186977472,,92.06111651999528,92.07386948497152,93.05758136798975,93.06566353098606,,,,,,,,,,,,,,,,,,,,sub-012,1,stroop_test,80.33066156950305,
,,,,2.0,2.0,0.0,,,,,blau,blue,b,1.0,b,1.0,0.7801784619805403,,,,,,,,,,,,,,0.0,2.0,2.0,6.0,,,,,93.06566353098606,,,,,,,,,,,,,,,,,93.05821580899648,93.1639687930001,93.9653330599831,93.9474299029971,,,,,,,,,,,,,,,,93.9535875619913,93.9653330599831,93.9653330599831,94.74969523999609,b,1.0,0.7801784619805403,,94.75055507599608,94.76263417999144,95.7478871869971,95.75597384697176,,,,,,,,,,,,,,,,,,,,sub-012,1,stroop_test,80.33066156950305,
,,,,3.0,3.0,0.0,,,,,gelb,blue,b,0.0,b,1.0,0.5185720719746314,,,,,,,,,,,,,,0.0,3.0,3.0,9.0,,,,,95.75597384697176,,,,,,,,,,,,,,,,,95.74834906397156,95.8489924419846,96.66208068997366,96.63314023197744,,,,,,,,,,,,,,,,96.63691474098596,96.66208068997366,96.66208068997366,97.18373883797904,b,1.0,0.5185720719746314,,97.18447983299848,97.1968595009821,98.18089985297412,98.18845353799406,,,,,,,,,,,,,,,,,,,,sub-012,1,stroop_test,80.33066156950305,
,,,,4.0,4.0,0.0,,,,,rot,red,r,1.0,r,1.0,1.3771985780040268,,,,,,,,,,,,,,0.0,4.0,4.0,0.0,,,,,98.18845353799406,,,,,,,,,,,,,,,,,98.18135857098969,99.38995682899258,100.19708851299949,100.18176341798971,,,,,,,,,,,,,,,,100.18559343897503,100.19708851299949,100.19708851299949,101.58243096098886,r,1.0,1.3771985780040268,,101.58309052197728,101.59467412898084,102.58321175098536,102.59708020699328,,,,,,,,,,,,,,,,,,,,sub-012,1,stroop_test,80.33066156950305,
,,,,5.0,5.0,0.0,,,,,blau,red,r,0.0,r,1.0,1.2114551150007171,,,,,,,,,,,,,,0.0,5.0,5.0,4.0,,,,,102.59708020699328,,,,,,,,,,,,,,,,,102.58368437399622,102.9290233339998,103.72937262698542,103.71587168599945,,,,,,,,,,,,,,,,103.7202996739943,103.72937262698542,103.72937262698542,104.94933324697196,r,1.0,1.2114551150007171,,104.94995761298924,104.96222070598742,105.94806288398104,105.95548334598423,,,,,,,,,,,,,,,,,,,,sub-012,1,stroop_test,80.33066156950305,
,,,,6.0,6.0,0.0,,,,,rot,red,r,1.0,r,1.0,0.493924923997838,,,,,,,,,,,,,,0.0,6.0,6.0,1.0,,,,,105.95548334598423,,,,,,,,,,,,,,,,,105.9485252519953,106.04792017198632,106.86266728898045,106.84770978498273,,,,,,,,,,,,,,,,106.85265201699804,106.86266728898045,106.86266728898045,107.36569780798165,r,1.0,0.493924923997838,,107.366346994997,107.37777098297374,108.36408630997175,108.37167645298176,,,,,,,,,,,,,,,,,,,,sub-012,1,stroop_test,80.33066156950305,
,,,,7.0,7.0,0.0,,,,,blau,yellow,g,0.0,g,1.0,0.4925903560069855,,,,,,,,,,,,,,0.0,7.0,7.0,7.0,,,,,108.37167645298176,,,,,,,,,,,,,,,,,108.36454927097655,109.1615249889728,109.9623387279862,109.94846403299016,,,,,,,,,,,,,,,,109.9522273799812,109.9623387279862,109.9623387279862,110.45853867998812,g,1.0,0.4925903560069855,,110.4595572919934,110.4706800619897,111.46354289198644,,,,,,,,,,,,,,,,,,,,,sub-012,1,stroop_test,80.33066156950305,
,,,,8.0,8.0,0.0,,,,,rot,yellow,g,0.0,g,1.0,0.5883148789871484,,,,,,,,,,,,,,0.0,8.0,8.0,3.0,,,,,111.47213871098938,,,,,,,,,,,,,,,,,111.46425980198546,111.55460542999208,112.36197214899585,112.3477364719729,,,,,,,,,,,,,,,,112.35153138797614,112.36197214899585,112.36197214899585,112.9604112029774,g,1.0,0.5883148789871484,,112.96115552599076,112.97273036997647,113.96391601898358,,,,,,,,,,,,,,,,,,,,,sub-012,1,stroop_test,80.33066156950305,
,,,,9.0,9.0,0.0,,,,,gelb,yellow,g,1.0,g,1.0,0.460694835986942,,,,,,,,,,,,,,0.0,9.0,9.0,11.0,,,,,113.97498198397808,,,,,,,,,,,,,,,,,113.96461720397927,114.30351370299468,115.10565096099162,115.09086679498432,,,,,,,,,,,,,,,,115.09547356699476,115.10565096099162,115.10565096099162,115.57699316597429,g,1.0,0.460694835986942,,115.57764297598624,115.58869177897576,116.59571255499031,,,,,,,,,,,,,,,,,,,,,sub-012,1,stroop_test,80.33066156950305,
,,,,10.0,10.0,0.0,,,,,blau,blue,b,1.0,b,1.0,0.5369087700091768,,,,,,,,,,,,,,0.0,10.0,10.0,5.0,,,,,116.61376126497636,,,,,,,,,,,,,,,,,116.5963913879823,117.37175741998362,118.17814518499654,118.16404440597398,,,,,,,,,,,,,,,,118.16784243498114,118.17814518499654,118.17814518499654,118.726511543995,b,1.0,0.5369087700091768,,118.72754245297985,118.74025562798488,119.73092909599654,,,,,,,,,,,,,,,,,,,,,sub-012,1,stroop_test,80.33066156950305,
,,,,11.0,11.0,0.0,,,,,gelb,yellow,g,1.0,g,1.0,0.5337047299835831,,,,,,,,,,,,,,0.0,11.0,11.0,10.0,,,,,119.74002380899036,,,,,,,,,,,,,,,,,119.73151100199902,119.82069812397822,120.62916503698216,120.61498998297613,,,,,,,,,,,,,,,,120.61933423497248,120.62916503698216,120.62916503698216,121.16634567599976,g,1.0,0.5337047299835831,,121.16721535800023,121.17923884099582,122.17930042397349,,,,,,,,,,,,,,,,,,,,,sub-012,1,stroop_test,80.33066156950305,
,,,,12.0,0.0,1.0,,,,,gelb,yellow,g,1.0,g,1.0,0.4456158550165128,,,,,,,,,,,,,,1.0,0.0,12.0,10.0,,,,,122.1969645729987,,,,,,,,,,,,,,,,,122.18000537197804,123.36465409898663,124.1648710629961,124.15529080599664,,,,,,,,,,,,,,,,124.15594095698908,124.1648710629961,124.1648710629961,124.62019551399862,g,1.0,0.4456158550165128,,124.62084442799096,124.6327973609732,125.62129347599694,,,,,,,,,,,,,,,,,,,,,sub-012,1,stroop_test,80.33066156950305,
,,,,13.0,1.0,1.0,,,,,blau,yellow,g,0.0,g,1.0,0.4579832659801468,,,,,,,,,,,,,,1.0,1.0,13.0,7.0,,,,,125.63149671899735,,,,,,,,,,,,,,,,,125.62213891299324,125.71216521499446,126.51621085297666,126.50148585098214,,,,,,,,,,,,,,,,126.50639827398118,126.51621085297666,126.51621085297666,126.98544680097255,g,1.0,0.4579832659801468,,126.98610224598087,126.99911437698756,127.99674136997784,,,,,,,,,,,,,,,,,,,,,sub-012,1,stroop_test,80.33066156950305,
,,,,14.0,2.0,1.0,,,,,gelb,blue,b,0.0,b,1.0,0.461046209995402,,,,,,,,,,,,,,1.0,2.0,14.0,9.0,,,,,128.00506806198973,,,,,,,,,,,,,,,,,127.9974602999864,128.79671907398733,129.59394639599486,129.58066709098057,,,,,,,,,,,,,,,,129.5840801249724,129.59394639599486,129.59394639599486,130.06577960398863,b,1.0,0.461046209995402,,130.06640869998955,130.07851633199607,131.06701379499282,131.07937587599736,,,,,,,,,,,,,,,,,,,,sub-012,1,stroop_test,80.33066156950305,
,,,,15.0,3.0,1.0,,,,,rot,yellow,g,0.0,g,1.0,0.6022154240054078,,,,,,,,,,,,,,1.0,3.0,15.0,3.0,,,,,131.07937587599736,,,,,,,,,,,,,,,,,131.06751888798317,131.86274218198378,132.662076151988,132.64904502799618,,,,,,,,,,,,,,,,132.6523980529746,132.662076151988,132.662076151988,133.2728750499955,g,1.0,0.6022154240054078,,133.2742701449897,133.29215759100043,134.27958092297197,,,,,,,,,,,,,,,,,,,,,sub-012,1,stroop_test,80.33066156950305,
,,,,16.0,4.0,1.0,,,,,blau,blue,b,1.0,b,1.0,0.3577081370167434,,,,,,,,,,,,,,1.0,4.0,16.0,5.0,,,,,134.28702443797374,,,,,,,,,,,,,,,,,134.28005057098926,135.09698123298585,135.9048801669851,135.89013782699476,,,,,,,,,,,,,,,,135.89530962400022,135.9048801669851,135.9048801669851,136.27427525998792,b,1.0,0.3577081370167434,,136.2750009909796,136.28642214098363,137.27920379998977,,,,,,,,,,,,,,,,,,,,,sub-012,1,stroop_test,80.33066156950305,
,,,,17.0,5.0,1.0,,,,,gelb,red,r,0.0,r,1.0,0.8662031169806141,,,,,,,,,,,,,,1.0,5.0,17.0,8.0,,,,,137.2969611209992,,,,,,,,,,,,,,,,,137.27993529397645,137.3802004539757,138.19526865700027,138.18014318597852,,,,,,,,,,,,,,,,138.18517110298853,138.19526865700027,138.19526865700027,139.06612305599265,r,1.0,0.8662031169806141,,139.06692769099027,139.07946444497793,140.06604727098602,140.079251069983,,,,,,,,,,,,,,,,,,,,sub-012,1,stroop_test,80.33066156950305,
,,,,18.0,6.0,1.0,,,,,rot,blue,b,0.0,b,1.0,0.5755663859890774,,,,,,,,,,,,,,1.0,6.0,18.0,2.0,,,,,140.079251069983,,,,,,,,,,,,,,,,,140.06659942597616,141.26758883098955,142.0789317189774,142.06484313699184,,,,,,,,,,,,,,,,142.06945275797625,142.0789317189774,142.0789317189774,142.6653854289907,b,1.0,0.5755663859890774,,142.6659109069733,142.67700718599372,143.66353689998505,143.67126792197814,,,,,,,,,,,,,,,,,,,,sub-012,1,stroop_test,80.33066156950305,
,,,,19.0,7.0,1.0,,,,,blau,red,r,0.0,r,1.0,0.7037464390159585,,,,,,,,,,,,,,1.0,7.0,19.0,4.0,,,,,143.67126792197814,,,,,,,,,,,,,,,,,143.6640356369899,144.01293128498946,144.8135115240002,144.79727560898755,,,,,,,,,,,,,,,,144.80102622398408,144.8135115240002,144.8135115240002,145.51999962999253,r,1.0,0.7037464390159585,,145.52063944598194,145.53258935399936,146.52037722698878,,,,,,,,,,,,,,,,,,,,,sub-012,1,stroop_test,80.33066156950305,
,,,,20.0,8.0,1.0,,,,,rot,red,r,1.0,r,1.0,0.4594132960191928,,,,,,,,,,,,,,1.0,8.0,20.0,1.0,,,,,146.53077392699197,,,,,,,,,,,,,,,,,146.52133573099854,147.32171225899947,148.1198159249907,148.1057897619903,,,,,,,,,,,,,,,,148.11055108497385,148.1198159249907,148.1198159249907,148.58296557498397,r,1.0,0.4594132960191928,,148.58393048599828,148.59628524599248,149.5812508050003,149.59013098399737,,,,,,,,,,,,,,,,,,,,sub-012,1,stroop_test,80.33066156950305,
,,,,21.0,9.0,1.0,,,,,blau,blue,b,1.0,b,1.0,0.562400966999121,,,,,,,,,,,,,,1.0,9.0,21.0,6.0,,,,,149.59013098399737,,,,,,,,,,,,,,,,,149.5817118549894,150.7810420629976,151.58864396598074,151.57339038699865,,,,,,,,,,,,,,,,151.57844380597817,151.58864396598074,151.58864396598074,152.16287728198222,b,1.0,0.562400966999121,,152.16372633399442,152.17471946499427,153.16556979899178,,,,,,,,,,,,,,,,,,,,,sub-012,1,stroop_test,80.33066156950305,
,,,,22.0,10.0,1.0,,,,,rot,red,r,1.0,r,1.0,0.9152524269884452,,,,,,,,,,,,,,1.0,10.0,22.0,0.0,,,,,153.17935124097858,,,,,,,,,,,,,,,,,153.16637268397608,153.9783937179891,154.78209122800035,154.76741113798926,,,,,,,,,,,,,,,,154.77230189699912,154.78209122800035,154.78209122800035,155.70918357899063,r,1.0,0.9152524269884452,,155.7100439039932,155.72274049097905,156.7120202059741,,,,,,,,,,,,,,,,,,,,,sub-012,1,stroop_test,80.33066156950305,
,,,,23.0,11.0,1.0,,,,,gelb,yellow,g,1.0,g,1.0,0.4651373579981737,,,,,,,,,,,,,,1.0,11.0,23.0,11.0,,,,,156.7300379659864,,,,,,,,,,,,,,,,,156.71270359799382,157.90498236898566,158.7153737639892,158.69729071197798,,,,,,,,,,,,,,,,158.7021325819951,158.7153737639892,158.7153737639892,159.18363707498065,g,1.0,0.4651373579981737,,159.1844139949826,159.19694207498105,160.19525889097713,,,,,,,,,,,,,,,,,,,,,sub-012,1,stroop_test,80.33066156950305,
,,,,,,,,,,,,,,,,,,,,,,,,,,,,,,,,,,,,,,,,,,,,,,,,,,,,,,,,,,,,,,,,,,,,,,,,,,,,,,,,,,,,,,,160.19562794599915,160.21241115097655,160.21241115097655,167.1919226559985,space,6.970596121012932,,,,,,,,,,,,,,sub-012,1,stroop_test,80.33066156950305,
,,,,0.0,0.0,0.0,,,,,,,,,,,,,blau,red,r,0.0,r,1.0,1.153280992002692,,,,,,,,,,0.0,0.0,0.0,4.0,167.22045518897357,,,,,,,,,,,,,,,,,167.21037643999443,167.53852579699014,168.3403448459867,168.32406027597608,,,,,,,,,,,,,,,,,,,,,,,,,,,,,,,,,,,168.32981717499206,168.3403448459867,168.3403448459867,169.49904470398906,r,1.0,1.153280992002692,,,,,,sub-012,1,stroop_test,80.33066156950305,
,,,,1.0,1.0,0.0,,,,,,,,,,,,,gelb,yellow,g,1.0,g,1.0,0.4985271159966942,,,,,,,,,,0.0,1.0,1.0,10.0,169.51057686598506,,,,,,,,,,,,,,,,,169.4995241779834,170.69805677299155,171.5139159769751,171.49773480999283,,,,,,,,,,,,,,,,,,,,,,,,,,,,,,,,,,,171.50152234599227,171.5139159769751,171.5139159769751,172.0162985119969,g,1.0,0.4985271159966942,,,,,,sub-012,1,stroop_test,80.33066156950305,
,,,,2.0,2.0,0.0,,,,,,,,,,,,,gelb,yellow,g,1.0,g,1.0,0.5085553560056724,,,,,,,,,,0.0,2.0,2.0,11.0,172.02763699399657,,,,,,,,,,,,,,,,,172.01690609598882,172.8111185229791,173.6072613169963,173.59676744998433,,,,,,,,,,,,,,,,,,,,,,,,,,,,,,,,,,,173.59743336300016,173.6072613169963,173.6072613169963,174.12567181698978,g,1.0,0.5085553560056724,,,,,,sub-012,1,stroop_test,80.33066156950305,
,,,,3.0,3.0,0.0,,,,,,,,,,,,,gelb,red,r,0.0,r,1.0,0.6206947260070592,,,,,,,,,,0.0,3.0,3.0,8.0,174.13636884099105,,,,,,,,,,,,,,,,,174.1263468299876,174.46980347798672,175.27350590497372,175.2630301709869,,,,,,,,,,,,,,,,,,,,,,,,,,,,,,,,,,,175.26368525598082,175.27350590497372,175.27350590497372,175.90262227799394,r,1.0,0.6206947260070592,,,,,,sub-012,1,stroop_test,80.33066156950305,
,,,,4.0,4.0,0.0,,,,,,,,,,,,,rot,red,r,1.0,r,1.0,0.5904779029951897,,,,,,,,,,0.0,4.0,4.0,1.0,175.91456288998597,,,,,,,,,,,,,,,,,175.90309095199336,176.24911432497902,177.05161872599274,177.0373978439893,,,,,,,,,,,,,,,,,,,,,,,,,,,,,,,,,,,177.04200598897296,177.05161872599274,177.05161872599274,177.65251376098604,r,1.0,0.5904779029951897,,,,,,sub-012,1,stroop_test,80.33066156950305,
,,,,5.0,5.0,0.0,,,,,,,,,,,,,rot,yellow,g,0.0,g,1.0,0.6542876859894022,,,,,,,,,,0.0,5.0,5.0,3.0,177.66433134197723,,,,,,,,,,,,,,,,,177.65307566497358,178.00503768099588,178.80669178898097,178.79622341698268,,,,,,,,,,,,,,,,,,,,,,,,,,,,,,,,,,,178.7972659909865,178.80669178898097,178.80669178898097,179.46884823098662,g,1.0,0.6542876859894022,,,,,,sub-012,1,stroop_test,80.33066156950305,
,,,,6.0,6.0,0.0,,,,,,,,,,,,,rot,red,r,1.0,r,1.0,0.5706636109971441,,,,,,,,,,0.0,6.0,6.0,0.0,179.4949100399972,,,,,,,,,,,,,,,,,179.4693145789788,180.26453855197175,181.0655041029968,181.0544376959733,,,,,,,,,,,,,,,,,,,,,,,,,,,,,,,,,,,181.05516701197485,181.0655041029968,181.0655041029968,181.6478015069733,r,1.0,0.5706636109971441,,,,,,sub-012,1,stroop_test,80.33066156950305,
,,,,7.0,7.0,0.0,,,,,,,,,,,,,blau,blue,b,1.0,b,1.0,0.3845840849971864,,,,,,,,,,0.0,7.0,7.0,6.0,181.6588654480001,,,,,,,,,,,,,,,,,181.64827242298637,181.7478913419764,182.5604787489865,182.54695530599565,,,,,,,,,,,,,,,,,,,,,,,,,,,,,,,,,,,182.550741893996,182.5604787489865,182.5604787489865,182.94858365599063,b,1.0,0.3845840849971864,,,,,,sub-012,1,stroop_test,80.33066156950305,
,,,,8.0,8.0,0.0,,,,,,,,,,,,,blau,blue,b,1.0,b,1.0,0.469187801994849,,,,,,,,,,0.0,8.0,8.0,5.0,182.9597515819769,,,,,,,,,,,,,,,,,182.94915235898225,183.0622982149944,183.8568385689869,183.84666623399244,,,,,,,,,,,,,,,,,,,,,,,,,,,,,,,,,,,183.8473292479757,183.8568385689869,183.8568385689869,184.3350956129725,b,1.0,0.469187801994849,,,,,,sub-012,1,stroop_test,80.33066156950305,
,,,,9.0,9.0,0.0,,,,,,,,,,,,,gelb,blue,b,0.0,b,1.0,0.6780481319874525,,,,,,,,,,0.0,9.0,9.0,9.0,184.34686857199995,,,,,,,,,,,,,,,,,184.3355732619821,184.4452104899974,185.24938773497703,185.23280221497407,,,,,,,,,,,,,,,,,,,,,,,,,,,,,,,,,,,185.2370788899716,185.24938773497703,185.24938773497703,185.93544450998888,b,1.0,0.6780481319874525,,,,,,sub-012,1,stroop_test,80.33066156950305,
,,,,10.0,10.0,0.0,,,,,,,,,,,,,blau,yellow,g,0.0,g,1.0,0.6223662459815387,,,,,,,,,,0.0,10.0,10.0,7.0,185.9471245209861,,,,,,,,,,,,,,,,,185.9359166369832,187.13010375999147,187.9306073629996,187.91550451898365,,,,,,,,,,,,,,,,,,,,,,,,,,,,,,,,,,,187.92004026999348,187.9306073629996,187.9306073629996,188.55769477898136,g,1.0,0.6223662459815387,,,,,,sub-012,1,stroop_test,80.33066156950305,
,,,,11.0,11.0,0.0,,,,,,,,,,,,,rot,blue,b,0.0,b,1.0,0.5550093530036975,,,,,,,,,,0.0,11.0,11.0,2.0,188.56846943998244,,,,,,,,,,,,,,,,,188.55846404799377,188.91220350097865,189.71322739199968,189.6989894369908,,,,,,,,,,,,,,,,,,,,,,,,,,,,,,,,,,,189.7026325899933,189.71322739199968,189.71322739199968,190.2811044849805,b,1.0,0.5550093530036975,,,,,,sub-012,1,stroop_test,80.33066156950305,
,,,,12.0,0.0,1.0,,,,,,,,,,,,,gelb,yellow,g,1.0,g,1.0,0.5135954720026348,,,,,,,,,,1.0,0.0,12.0,11.0,190.29226041497893,,,,,,,,,,,,,,,,,190.2815634899889,190.38968704399304,191.19719920799253,191.18255820099148,,,,,,,,,,,,,,,,,,,,,,,,,,,,,,,,,,,191.18625551098376,191.19719920799253,191.19719920799253,191.7166976359731,g,1.0,0.5135954720026348,,,,,,sub-012,1,stroop_test,80.33066156950305,
,,,,13.0,1.0,1.0,,,,,,,,,,,,,blau,blue,b,1.0,b,1.0,0.4961872299900278,,,,,,,,,,1.0,1.0,13.0,5.0,191.7277222319972,,,,,,,,,,,,,,,,,191.71718719499768,192.920595663978,193.718925750989,193.705567196972,,,,,,,,,,,,,,,,,,,,,,,,,,,,,,,,,,,193.7102016499848,193.718925750989,193.718925750989,194.22438150597736,b,1.0,0.4961872299900278,,,,,,sub-012,1,stroop_test,80.33066156950305,
,,,,14.0,2.0,1.0,,,,,,,,,,,,,rot,red,r,1.0,r,1.0,0.4010921709996182,,,,,,,,,,1.0,2.0,14.0,1.0,194.23494270598167,,,,,,,,,,,,,,,,,194.2249781669816,194.3212953049806,195.12704334399317,195.11314339798992,,,,,,,,,,,,,,,,,,,,,,,,,,,,,,,,,,,195.1169354659796,195.12704334399317,195.12704334399317,195.5358792449988,r,1.0,0.4010921709996182,,,,,,sub-012,1,stroop_test,80.33066156950305,
,,,,15.0,3.0,1.0,,,,,,,,,,,,,rot,yellow,g,0.0,g,1.0,0.6753923470096197,,,,,,,,,,1.0,3.0,15.0,3.0,195.5475905469793,,,,,,,,,,,,,,,,,195.53635477798525,196.73582221497784,197.54547993297456,197.52957552997395,,,,,,,,,,,,,,,,,,,,,,,,,,,,,,,,,,,197.53054347998116,197.54547993297456,197.54547993297456,198.2312209169904,g,1.0,0.6753923470096197,,,,,,sub-012,1,stroop_test,80.33066156950305,
,,,,16.0,4.0,1.0,,,,,,,,,,,,,blau,yellow,g,0.0,g,1.0,0.3603105639922432,,,,,,,,,,1.0,4.0,16.0,7.0,198.24151834798977,,,,,,,,,,,,,,,,,198.23169128299924,199.03688948997296,199.8444047969824,199.8296447719913,,,,,,,,,,,,,,,,,,,,,,,,,,,,,,,,,,,199.8343664839922,199.8444047969824,199.8444047969824,200.20890234297255,g,1.0,0.3603105639922432,,,,,,sub-012,1,stroop_test,80.33066156950305,
,,,,17.0,5.0,1.0,,,,,,,,,,,,,gelb,yellow,g,1.0,g,1.0,0.5201836689957418,,,,,,,,,,1.0,5.0,17.0,10.0,200.21947667299537,,,,,,,,,,,,,,,,,200.2097606889729,201.02841576599167,201.83170343199163,201.8169261449948,,,,,,,,,,,,,,,,,,,,,,,,,,,,,,,,,,,201.8211255869828,201.83170343199163,201.83170343199163,202.36475921497916,g,1.0,0.5201836689957418,,,,,,sub-012,1,stroop_test,80.33066156950305,
,,,,18.0,6.0,1.0,,,,,,,,,,,,,rot,blue,b,0.0,b,1.0,0.8246587949979585,,,,,,,,,,1.0,6.0,18.0,2.0,202.37559612299083,,,,,,,,,,,,,,,,,202.36525216299924,203.57009955699323,204.3680135409813,204.3542506439844,,,,,,,,,,,,,,,,,,,,,,,,,,,,,,,,,,,204.35946773097385,204.3680135409813,204.3680135409813,205.20189992297676,b,1.0,0.8246587949979585,,,,,,sub-012,1,stroop_test,80.33066156950305,
,,,,19.0,7.0,1.0,,,,,,,,,,,,,blau,red,r,0.0,r,1.0,0.5511148090008646,,,,,,,,,,1.0,7.0,19.0,4.0,205.2140782539791,,,,,,,,,,,,,,,,,205.2023682819854,205.30652361098328,206.11106827799813,206.097586177988,,,,,,,,,,,,,,,,,,,,,,,,,,,,,,,,,,,206.10136886598772,206.11106827799813,206.11106827799813,206.66535690499583,r,1.0,0.5511148090008646,,,,,,sub-012,1,stroop_test,80.33066156950305,
,,,,20.0,8.0,1.0,,,,,,,,,,,,,gelb,blue,b,0.0,b,1.0,0.6304668079828843,,,,,,,,,,1.0,8.0,20.0,9.0,206.676862436987,,,,,,,,,,,,,,,,,206.66603143699467,207.8733725189813,208.67907699599164,208.6638366279949,,,,,,,,,,,,,,,,,,,,,,,,,,,,,,,,,,,208.6686879019835,208.67907699599164,208.67907699599164,209.31938039098168,b,1.0,0.6304668079828843,,,,,,sub-012,1,stroop_test,80.33066156950305,
,,,,21.0,9.0,1.0,,,,,,,,,,,,,blau,blue,b,1.0,b,1.0,0.3624771259783301,,,,,,,,,,1.0,9.0,21.0,6.0,209.3306555469753,,,,,,,,,,,,,,,,,209.31985310997695,209.4222396219848,210.2439139879716,210.2290560339752,,,,,,,,,,,,,,,,,,,,,,,,,,,,,,,,,,,210.233679707977,210.2439139879716,210.2439139879716,210.6145102889859,b,1.0,0.3624771259783301,,,,,,sub-012,1,stroop_test,80.33066156950305,
,,,,22.0,10.0,1.0,,,,,,,,,,,,,gelb,red,r,0.0,r,1.0,0.4412991279968992,,,,,,,,,,1.0,10.0,22.0,8.0,210.62539433100028,,,,,,,,,,,,,,,,,210.61498242098605,211.8106754149776,212.6100078149757,212.59606299098232,,,,,,,,,,,,,,,,,,,,,,,,,,,,,,,,,,,212.59980959797397,212.6100078149757,212.6100078149757,213.06436025598668,r,1.0,0.4412991279968992,,,,,,sub-012,1,stroop_test,80.33066156950305,
,,,,23.0,11.0,1.0,,,,,,,,,,,,,rot,red,r,1.0,r,1.0,0.3616867859964259,,,,,,,,,,1.0,11.0,23.0,0.0,213.07484501998988,,,,,,,,,,,,,,,,,213.0648464569822,214.262835994974,215.07817631599028,215.0483726579987,,,,,,,,,,,,,,,,,,,,,,,,,,,,,,,,,,,215.0521641129744,215.07817631599028,215.07817631599028,215.45019249798497,r,1.0,0.3616867859964259,,,,,,sub-012,1,stroop_test,80.33066156950305,
,,,,24.0,0.0,2.0,,,,,,,,,,,,,gelb,yellow,g,1.0,g,1.0,0.3914628390048165,,,,,,,,,,2.0,0.0,24.0,10.0,215.46191575098783,,,,,,,,,,,,,,,,,215.4506563159812,216.6611381409748,217.4653446999728,217.44905743797423,,,,,,,,,,,,,,,,,,,,,,,,,,,,,,,,,,,217.45401410298652,217.4653446999728,217.4653446999728,217.8644787549856,g,1.0,0.3914628390048165,,,,,,sub-012,1,stroop_test,80.33066156950305,
,,,,25.0,1.0,2.0,,,,,,,,,,,,,gelb,red,r,0.0,g,0.0,0.6066079449956305,,,,,,,,,,2.0,1.0,25.0,8.0,217.87469591098488,,,,,,,,,,,,,,,,,217.86494820099324,219.06593142199563,219.8728296289919,219.8627441299905,,,,,,,,,,,,,,,,,,,,,,,,,,,,,,,,,,,219.8634284739965,219.8728296289919,219.8728296289919,220.4849534769892,g,0.0,0.6066079449956305,,,,,,sub-012,1,stroop_test,80.33066156950305,
,,,,26.0,2.0,2.0,,,,,,,,,,,,,gelb,blue,b,0.0,b,1.0,1.049602318002144,,,,,,,,,,2.0,2.0,26.0,9.0,220.4965764889785,,,,,,,,,,,,,,,,,220.48542167499545,220.5892146919796,221.39339442597705,221.3804648819787,,,,,,,,,,,,,,,,,,,,,,,,,,,,,,,,,,,221.3811254919856,221.39339442597705,221.39339442597705,222.4479545399954,b,1.0,1.049602318002144,,,,,,sub-012,1,stroop_test,80.33066156950305,
,,,,27.0,3.0,2.0,,,,,,,,,,,,,rot,red,r,1.0,r,1.0,0.5123358900018502,,,,,,,,,,2.0,3.0,27.0,1.0,222.45889135199832,,,,,,,,,,,,,,,,,222.448416247993,223.25306995399296,224.0606549969816,224.04610971998773,,,,,,,,,,,,,,,,,,,,,,,,,,,,,,,,,,,224.05051067398745,224.0606549969816,224.0606549969816,224.5806421789748,r,1.0,0.5123358900018502,,,,,,sub-012,1,stroop_test,80.33066156950305,
,,,,28.0,4.0,2.0,,,,,,,,,,,,,rot,blue,b,0.0,b,1.0,0.6554942229995504,,,,,,,,,,2.0,4.0,28.0,2.0,224.59117424898432,,,,,,,,,,,,,,,,,224.5811043659924,225.77861961198505,226.57394024397945,226.5629920719948,,,,,,,,,,,,,,,,,,,,,,,,,,,,,,,,,,,226.5636382219964,226.57394024397945,226.57394024397945,227.24128250198555,b,1.0,0.6554942229995504,,,,,,sub-012,1,stroop_test,80.33066156950305,
,,,,29.0,5.0,2.0,,,,,,,,,,,,,rot,yellow,g,0.0,r,0.0,0.4701447509869467,,,,,,,,,,2.0,5.0,29.0,3.0,227.2527703479864,,,,,,,,,,,,,,,,,227.2419054399943,228.4448323719844,229.24460115499096,229.2310150229896,,,,,,,,,,,,,,,,,,,,,,,,,,,,,,,,,,,229.2319887439953,229.24460115499096,229.24460115499096,229.7244157159876,r,0.0,0.4701447509869467,,,,,,sub-012,1,stroop_test,80.33066156950305,
,,,,30.0,6.0,2.0,,,,,,,,,,,,,blau,yellow,g,0.0,g,1.0,0.6517552669974975,,,,,,,,,,2.0,6.0,30.0,7.0,229.7347178249911,,,,,,,,,,,,,,,,,229.7249748859904,230.52799775399035,231.32642081700035,231.3126735079859,,,,,,,,,,,,,,,,,,,,,,,,,,,,,,,,,,,231.3164433699858,231.32642081700035,231.32642081700035,231.98359041498043,g,1.0,0.6517552669974975,,,,,,sub-012,1,stroop_test,80.33066156950305,
,,,,31.0,7.0,2.0,,,,,,,,,,,,,blau,blue,b,1.0,b,1.0,0.6180675920040812,,,,,,,,,,2.0,7.0,31.0,6.0,231.99436166899977,,,,,,,,,,,,,,,,,231.984064002987,232.34441899199737,233.140714610985,233.1295720279741,,,,,,,,,,,,,,,,,,,,,,,,,,,,,,,,,,,233.13051584598725,233.140714610985,233.140714610985,233.7675939409819,b,1.0,0.6180675920040812,,,,,,sub-012,1,stroop_test,80.33066156950305,
,,,,32.0,8.0,2.0,,,,,,,,,,,,,gelb,yellow,g,1.0,g,1.0,0.80372689399519,,,,,,,,,,2.0,8.0,32.0,11.0,233.77777109699676,,,,,,,,,,,,,,,,,233.76803338498576,234.9630715559761,235.7652836469933,235.7483749439998,,,,,,,,,,,,,,,,,,,,,,,,,,,,,,,,,,,235.7533380609821,235.7652836469933,235.7652836469933,236.5804556209769,g,1.0,0.80372689399519,,,,,,sub-012,1,stroop_test,80.33066156950305,
,,,,33.0,9.0,2.0,,,,,,,,,,,,,blau,blue,b,1.0,b,1.0,0.5887690979870968,,,,,,,,,,2.0,9.0,33.0,5.0,236.59270518197445,,,,,,,,,,,,,,,,,236.58093049799209,237.7807992379821,238.58834155998196,238.5723448919889,,,,,,,,,,,,,,,,,,,,,,,,,,,,,,,,,,,238.57757141799084,238.58834155998196,238.58834155998196,239.1843501069816,b,1.0,0.5887690979870968,,,,,,sub-012,1,stroop_test,80.33066156950305,
,,,,34.0,10.0,2.0,,,,,,,,,,,,,rot,red,r,1.0,r,1.0,0.6340438969782554,,,,,,,,,,2.0,10.0,34.0,0.0,239.1950192049844,,,,,,,,,,,,,,,,,239.18477158198948,239.2794119789905,240.0927162249864,240.07826350899995,,,,,,,,,,,,,,,,,,,,,,,,,,,,,,,,,,,240.08222033598577,240.0927162249864,240.0927162249864,240.73116927899537,r,1.0,0.6340438969782554,,,,,,sub-012,1,stroop_test,80.33066156950305,
,,,,35.0,11.0,2.0,,,,,,,,,,,,,blau,red,r,0.0,r,1.0,1.943744967022212,,,,,,,,,,2.0,11.0,35.0,4.0,240.74272831899,,,,,,,,,,,,,,,,,240.7318059129757,241.08016134999343,241.8942905269796,241.86462214199128,,,,,,,,,,,,,,,,,,,,,,,,,,,,,,,,,,,241.86833269899944,241.8942905269796,241.8942905269796,243.85009018497655,r,1.0,1.943744967022212,,,,,,sub-012,1,stroop_test,80.33066156950305,
,,,,36.0,0.0,3.0,,,,,,,,,,,,,blau,yellow,g,0.0,g,1.0,0.7341830120130908,,,,,,,,,,3.0,0.0,36.0,7.0,243.8602223949856,,,,,,,,,,,,,,,,,243.85049217997584,243.955110283976,244.76093147997744,244.7456401829841,,,,,,,,,,,,,,,,,,,,,,,,,,,,,,,,,,,244.7466088469955,244.76093147997744,244.76093147997744,245.4982241149992,g,1.0,0.7341830120130908,,,,,,sub-012,1,stroop_test,80.33066156950305,
,,,,37.0,1.0,3.0,,,,,,,,,,,,,gelb,yellow,g,1.0,g,1.0,0.4957127939851489,,,,,,,,,,3.0,1.0,37.0,11.0,245.51023013098165,,,,,,,,,,,,,,,,,245.49881295399973,245.86204392797663,246.6718370669987,246.6530791049881,,,,,,,,,,,,,,,,,,,,,,,,,,,,,,,,,,,246.6599370109907,246.6718370669987,246.6718370669987,247.1799472059938,g,1.0,0.4957127939851489,,,,,,sub-012,1,stroop_test,80.33066156950305,
,,,,38.0,2.0,3.0,,,,,,,,,,,,,rot,red,r,1.0,r,1.0,0.5502213099971414,,,,,,,,,,3.0,2.0,38.0,0.0,247.1908013949869,,,,,,,,,,,,,,,,,247.18040938299964,247.5265882219828,248.3269155159942,248.31213886497423,,,,,,,,,,,,,,,,,,,,,,,,,,,,,,,,,,,248.3166154259816,248.3269155159942,248.3269155159942,248.8815803459729,r,1.0,0.5502213099971414,,,,,,sub-012,1,stroop_test,80.33066156950305,
,,,,39.0,3.0,3.0,,,,,,,,,,,,,blau,blue,b,1.0,b,1.0,0.7006467839819379,,,,,,,,,,3.0,3.0,39.0,6.0,248.89233683198108,,,,,,,,,,,,,,,,,248.8820468959748,250.0873522879847,250.89412945497315,250.87884700897848,,,,,,,,,,,,,,,,,,,,,,,,,,,,,,,,,,,250.88350459098,250.89412945497315,250.89412945497315,251.5983803739946,b,1.0,0.7006467839819379,,,,,,sub-012,1,stroop_test,80.33066156950305,
,,,,40.0,4.0,3.0,,,,,,,,,,,,,gelb,yellow,g,1.0,g,1.0,0.9553093680005986,,,,,,,,,,3.0,4.0,40.0,10.0,251.6101710579824,,,,,,,,,,,,,,,,,251.5989085509791,251.7124020679912,252.52066221699351,252.505444134993,,,,,,,,,,,,,,,,,,,,,,,,,,,,,,,,,,,252.51076538697816,252.52066221699351,252.52066221699351,253.48610309697688,g,1.0,0.9553093680005986,,,,,,sub-012,1,stroop_test,80.33066156950305,
,,,,41.0,5.0,3.0,,,,,,,,,,,,,gelb,red,r,0.0,r,1.0,0.6996488820004743,,,,,,,,,,3.0,5.0,41.0,8.0,253.4965916549845,,,,,,,,,,,,,,,,,253.4865806979942,253.5805051859934,254.379835181986,254.36955758699327,,,,,,,,,,,,,,,,,,,,,,,,,,,,,,,,,,,254.37024081399431,254.379835181986,254.379835181986,255.09061774998557,r,1.0,0.6996488820004743,,,,,,sub-012,1,stroop_test,80.33066156950305,
,,,,42.0,6.0,3.0,,,,,,,,,,,,,blau,red,r,0.0,r,1.0,1.0314113679924048,,,,,,,,,,3.0,6.0,42.0,4.0,255.101277209993,,,,,,,,,,,,,,,,,255.0912054889777,255.18675843198437,255.98447554098675,255.97099168697605,,,,,,,,,,,,,,,,,,,,,,,,,,,,,,,,,,,255.9756170939945,255.98447554098675,255.98447554098675,257.030476518994,r,1.0,1.0314113679924048,,,,,,sub-012,1,stroop_test,80.33066156950305,
,,,,43.0,7.0,3.0,,,,,,,,,,,,,blau,blue,b,1.0,b,1.0,0.7572410959983245,,,,,,,,,,3.0,7.0,43.0,5.0,257.042265800992,,,,,,,,,,,,,,,,,257.03096983997966,257.12740734699764,257.9240151839913,257.9125578069943,,,,,,,,,,,,,,,,,,,,,,,,,,,,,,,,,,,257.9132358749921,257.9240151839913,257.9240151839913,258.69540693599265,b,1.0,0.7572410959983245,,,,,,sub-012,1,stroop_test,80.33066156950305,
,,,,44.0,8.0,3.0,,,,,,,,,,,,,gelb,blue,b,0.0,b,1.0,1.2435670779959764,,,,,,,,,,3.0,8.0,44.0,9.0,258.7061845269928,,,,,,,,,,,,,,,,,258.69587969998247,259.05278077497496,259.8594813399832,259.8450624389807,,,,,,,,,,,,,,,,,,,,,,,,,,,,,,,,,,,259.8490122789808,259.8594813399832,259.8594813399832,261.11359021798125,b,1.0,1.2435670779959764,,,,,,sub-012,1,stroop_test,80.33066156950305,
,,,,45.0,9.0,3.0,,,,,,,,,,,,,rot,red,r,1.0,r,1.0,0.648590080003487,,,,,,,,,,3.0,9.0,45.0,1.0,261.1273959569808,,,,,,,,,,,,,,,,,261.114087740978,261.9109947329853,262.71086194898817,262.69615331699606,,,,,,,,,,,,,,,,,,,,,,,,,,,,,,,,,,,262.6999892379972,262.71086194898817,262.71086194898817,263.36551056199824,r,1.0,0.648590080003487,,,,,,sub-012,1,stroop_test,80.33066156950305,
,,,,46.0,10.0,3.0,,,,,,,,,,,,,rot,yellow,g,0.0,g,1.0,0.671502793993568,,,,,,,,,,3.0,10.0,46.0,3.0,263.3781122979999,,,,,,,,,,,,,,,,,263.366265026998,263.71995069197146,264.52185089999693,264.5120533829904,,,,,,,,,,,,,,,,,,,,,,,,,,,,,,,,,,,264.5127458289789,264.52185089999693,264.52185089999693,265.2012527769839,g,1.0,0.671502793993568,,,,,,sub-012,1,stroop_test,80.33066156950305,
,,,,47.0,11.0,3.0,,,,,,,,,,,,,rot,blue,b,0.0,b,1.0,0.7644460559822619,,,,,,,,,,3.0,11.0,47.0,2.0,265.21338220097823,,,,,,,,,,,,,,,,,265.2017367579974,266.4118404099718,267.2110861649853,267.19999515998643,,,,,,,,,,,,,,,,,,,,,,,,,,,,,,,,,,,267.2009456829983,267.2110861649853,267.2110861649853,267.98594049498206,b,1.0,0.7644460559822619,,,,,,sub-012,1,stroop_test,80.33066156950305,
,,,,48.0,0.0,4.0,,,,,,,,,,,,,blau,red,r,0.0,r,1.0,0.8648026600130834,,,,,,,,,,4.0,0.0,48.0,4.0,267.997524047998,,,,,,,,,,,,,,,,,267.9864391129813,269.18668366997736,269.9946659099951,269.97985552297905,,,,,,,,,,,,,,,,,,,,,,,,,,,,,,,,,,,269.98442392097786,269.9946659099951,269.9946659099951,270.86512955697253,r,1.0,0.8648026600130834,,,,,,sub-012,1,stroop_test,80.33066156950305,
,,,,49.0,1.0,4.0,,,,,,,,,,,,,gelb,yellow,g,1.0,g,1.0,0.7117080420139246,,,,,,,,,,4.0,1.0,49.0,10.0,270.87687540997285,,,,,,,,,,,,,,,,,270.8656641179987,271.22804564097896,272.0435900039738,272.0140135819965,,,,,,,,,,,,,,,,,,,,,,,,,,,,,,,,,,,272.0177705139795,272.0435900039738,272.0435900039738,272.7674532189849,g,1.0,0.7117080420139246,,,,,,sub-012,1,stroop_test,80.33066156950305,
,,,,50.0,2.0,4.0,,,,,,,,,,,,,gelb,blue,b,0.0,b,1.0,0.5165825090080034,,,,,,,,,,4.0,2.0,50.0,9.0,272.77975962197524,,,,,,,,,,,,,,,,,272.7679313229746,273.9786707639869,274.77766092997626,274.7639265599719,,,,,,,,,,,,,,,,,,,,,,,,,,,,,,,,,,,274.7646383349784,274.77766092997626,274.77766092997626,275.3017777809873,b,1.0,0.5165825090080034,,,,,,sub-012,1,stroop_test,80.33066156950305,
,,,,51.0,3.0,4.0,,,,,,,,,,,,,blau,blue,b,1.0,b,1.0,0.4404684359906241,,,,,,,,,,4.0,3.0,51.0,5.0,275.3141589019797,,,,,,,,,,,,,,,,,275.30230793199735,276.0967304369842,276.90971342497505,276.89494615397416,,,,,,,,,,,,,,,,,,,,,,,,,,,,,,,,,,,276.89929660898633,276.90971342497505,276.90971342497505,277.35695965599734,b,1.0,0.4404684359906241,,,,,,sub-012,1,stroop_test,80.33066156950305,
,,,,52.0,4.0,4.0,,,,,,,,,,,,,rot,blue,b,0.0,b,1.0,0.4432764419761952,,,,,,,,,,4.0,4.0,52.0,2.0,277.3677552979789,,,,,,,,,,,,,,,,,277.3576687249879,278.56043647698243,279.3599245289806,279.3458223819908,,,,,,,,,,,,,,,,,,,,,,,,,,,,,,,,,,,279.349630798999,279.3599245289806,279.3599245289806,279.8071289979853,b,1.0,0.4432764419761952,,,,,,sub-012,1,stroop_test,80.33066156950305,
,,,,53.0,5.0,4.0,,,,,,,,,,,,,gelb,red,r,0.0,r,1.0,0.7297836969955824,,,,,,,,,,4.0,5.0,53.0,8.0,279.8176947219763,,,,,,,,,,,,,,,,,279.8077398259775,279.90493738799705,280.7108102909988,280.6971143289993,,,,,,,,,,,,,,,,,,,,,,,,,,,,,,,,,,,280.7009777259955,280.7108102909988,280.7108102909988,281.4498079939804,r,1.0,0.7297836969955824,,,,,,sub-012,1,stroop_test,80.33066156950305,
,,,,54.0,6.0,4.0,,,,,,,,,,,,,gelb,yellow,g,1.0,g,1.0,0.4487939660029951,,,,,,,,,,4.0,6.0,54.0,11.0,281.4764423069719,,,,,,,,,,,,,,,,,281.4502744349884,281.5475530359836,282.346056897979,282.33590739697684,,,,,,,,,,,,,,,,,,,,,,,,,,,,,,,,,,,282.3365761169989,282.346056897979,282.346056897979,282.7982662349823,g,1.0,0.4487939660029951,,,,,,sub-012,1,stroop_test,80.33066156950305,
,,,,55.0,7.0,4.0,,,,,,,,,,,,,blau,yellow,g,0.0,g,1.0,0.518691598001169,,,,,,,,,,4.0,7.0,55.0,7.0,282.80957889999263,,,,,,,,,,,,,,,,,282.7988706569886,284.0044691929943,284.809373208991,284.7953815679939,,,,,,,,,,,,,,,,,,,,,,,,,,,,,,,,,,,284.7992136849789,284.809373208991,284.809373208991,285.3310563899868,g,1.0,0.518691598001169,,,,,,sub-012,1,stroop_test,80.33066156950305,
,,,,56.0,8.0,4.0,,,,,,,,,,,,,blau,blue,b,1.0,b,1.0,0.4938418520032428,,,,,,,,,,4.0,8.0,56.0,6.0,285.3424618119898,,,,,,,,,,,,,,,,,285.33157318498706,286.1272436869913,286.92725827297545,286.9136317279772,,,,,,,,,,,,,,,,,,,,,,,,,,,,,,,,,,,286.91428503897623,286.92725827297545,286.92725827297545,287.42985543599934,b,1.0,0.4938418520032428,,,,,,sub-012,1,stroop_test,80.33066156950305,
,,,,57.0,9.0,4.0,,,,,,,,,,,,,rot,red,r,1.0,r,1.0,0.5043444669863675,,,,,,,,,,4.0,9.0,57.0,0.0,287.4400267939782,,,,,,,,,,,,,,,,,287.4303242319729,288.2265792019898,289.043849195994,289.0279551860003,,,,,,,,,,,,,,,,,,,,,,,,,,,,,,,,,,,289.0336057439854,289.043849195994,289.043849195994,289.5633230659878,r,1.0,0.5043444669863675,,,,,,sub-012,1,stroop_test,80.33066156950305,
,,,,58.0,10.0,4.0,,,,,,,,,,,,,rot,red,r,1.0,r,1.0,0.5863705800147727,,,,,,,,,,4.0,10.0,58.0,1.0,289.5754790349747,,,,,,,,,,,,,,,,,289.56383704798645,289.91563379298896,290.7273486269987,290.71170890599024,,,,,,,,,,,,,,,,,,,,,,,,,,,,,,,,,,,290.712670702982,290.7273486269987,290.7273486269987,291.3176706699888,r,1.0,0.5863705800147727,,,,,,sub-012,1,stroop_test,80.33066156950305,
,,,,59.0,11.0,4.0,,,,,,,,,,,,,rot,yellow,g,0.0,g,1.0,0.60131851900951,,,,,,,,,,4.0,11.0,59.0,3.0,291.32911151397275,,,,,,,,,,,,,,,,,291.31825546899927,292.11961320697446,292.9440695609956,292.92840346699813,,,,,,,,,,,,,,,,,,,,,,,,,,,,,,,,,,,292.9293604029808,292.9440695609956,292.9440695609956,293.55720208998537,g,1.0,0.60131851900951,,,,,,sub-012,1,stroop_test,80.33066156950305,
,,,,60.0,0.0,5.0,,,,,,,,,,,,,rot,yellow,g,0.0,g,1.0,0.3982604290067684,,,,,,,,,,5.0,0.0,60.0,3.0,293.5687328729837,,,,,,,,,,,,,,,,,293.557983665989,293.6532154089946,294.4607035429799,294.4444655259722,,,,,,,,,,,,,,,,,,,,,,,,,,,,,,,,,,,294.4454230949923,294.4607035429799,294.4607035429799,294.8640524739749,g,1.0,0.3982604290067684,,,,,,sub-012,1,stroop_test,80.33066156950305,
,,,,61.0,1.0,5.0,,,,,,,,,,,,,rot,red,r,1.0,r,1.0,0.7202993399987463,,,,,,,,,,5.0,1.0,61.0,0.0,294.87494807099574,,,,,,,,,,,,,,,,,294.8645339020004,295.6765979069751,296.4720256239816,296.46154094397207,,,,,,,,,,,,,,,,,,,,,,,,,,,,,,,,,,,296.46221166598843,296.4720256239816,296.4720256239816,297.1971456089814,r,1.0,0.7202993399987463,,,,,,sub-012,1,stroop_test,80.33066156950305,
,,,,62.0,2.0,5.0,,,,,,,,,,,,,blau,blue,b,1.0,b,1.0,0.3516765050007961,,,,,,,,,,5.0,2.0,62.0,6.0,297.2083456729888,,,,,,,,,,,,,,,,,297.19760847699945,298.0104051279777,298.8100382789853,298.7965809109737,,,,,,,,,,,,,,,,,,,,,,,,,,,,,,,,,,,298.8003269689798,298.8100382789853,298.8100382789853,299.173259882984,b,1.0,0.3516765050007961,,,,,,sub-012,1,stroop_test,80.33066156950305,
,,,,63.0,3.0,5.0,,,,,,,,,,,,,gelb,blue,b,0.0,b,1.0,0.4207452919799834,,,,,,,,,,5.0,3.0,63.0,9.0,299.1849280509923,,,,,,,,,,,,,,,,,299.1739377039776,299.27703264998854,300.0740556539968,300.06117291899864,,,,,,,,,,,,,,,,,,,,,,,,,,,,,,,,,,,300.0644345859764,300.0740556539968,300.0740556539968,300.4978374069906,b,1.0,0.4207452919799834,,,,,,sub-012,1,stroop_test,80.33066156950305,
,,,,64.0,4.0,5.0,,,,,,,,,,,,,blau,blue,b,1.0,b,1.0,0.4349635580147151,,,,,,,,,,5.0,4.0,64.0,5.0,300.5091830159945,,,,,,,,,,,,,,,,,300.4983692179958,300.6047808119911,301.4095871769823,301.3943884889886,,,,,,,,,,,,,,,,,,,,,,,,,,,,,,,,,,,301.39872621398536,301.4095871769823,301.4095871769823,301.8515936479962,b,1.0,0.4349635580147151,,,,,,sub-012,1,stroop_test,80.33066156950305,
,,,,65.0,5.0,5.0,,,,,,,,,,,,,rot,red,r,1.0,r,1.0,0.5679263040074147,,,,,,,,,,5.0,5.0,65.0,1.0,301.8640887349902,,,,,,,,,,,,,,,,,301.8520688219869,302.2100074089831,303.010232879984,302.99681991297984,,,,,,,,,,,,,,,,,,,,,,,,,,,,,,,,,,,303.0004345259804,303.010232879984,303.010232879984,303.58902030598256,r,1.0,0.5679263040074147,,,,,,sub-012,1,stroop_test,80.33066156950305,
,,,,66.0,6.0,5.0,,,,,,,,,,,,,gelb,yellow,g,1.0,g,1.0,0.3927111699886154,,,,,,,,,,5.0,6.0,66.0,11.0,303.60031957298634,,,,,,,,,,,,,,,,,303.5896325959766,303.94369662797544,304.7444984509784,304.7283844539779,,,,,,,,,,,,,,,,,,,,,,,,,,,,,,,,,,,304.7319684899994,304.7444984509784,304.7444984509784,305.1469651569787,g,1.0,0.3927111699886154,,,,,,sub-012,1,stroop_test,80.33066156950305,
,,,,67.0,7.0,5.0,,,,,,,,,,,,,gelb,red,r,0.0,r,1.0,0.3480110570089891,,,,,,,,,,5.0,7.0,67.0,8.0,305.15822927997215,,,,,,,,,,,,,,,,,305.14744900199,305.5106564939779,306.30731349499547,306.2958368359832,,,,,,,,,,,,,,,,,,,,,,,,,,,,,,,,,,,306.296891608974,306.30731349499547,306.30731349499547,306.6631306159834,r,1.0,0.3480110570089891,,,,,,sub-012,1,stroop_test,80.33066156950305,
,,,,68.0,8.0,5.0,,,,,,,,,,,,,rot,blue,b,0.0,b,1.0,0.4562674430198967,,,,,,,,,,5.0,8.0,68.0,2.0,306.67390787697514,,,,,,,,,,,,,,,,,306.6635883389972,307.0192345729738,307.8224552209722,307.8068050299771,,,,,,,,,,,,,,,,,,,,,,,,,,,,,,,,,,,307.8120762999752,307.8224552209722,307.8224552209722,308.2890760699811,b,1.0,0.4562674430198967,,,,,,sub-012,1,stroop_test,80.33066156950305,
,,,,69.0,9.0,5.0,,,,,,,,,,,,,blau,yellow,g,0.0,g,1.0,1.3263472260150593,,,,,,,,,,5.0,9.0,69.0,7.0,308.29979523597285,,,,,,,,,,,,,,,,,308.28971662398544,308.63242519798223,309.4420677169983,309.428111782996,,,,,,,,,,,,,,,,,,,,,,,,,,,,,,,,,,,309.43190982498345,309.4420677169983,309.4420677169983,310.7762388409756,g,1.0,1.3263472260150593,,,,,,sub-012,1,stroop_test,80.33066156950305,
,,,,70.0,10.0,5.0,,,,,,,,,,,,,gelb,yellow,g,1.0,g,1.0,0.4508199759875424,,,,,,,,,,5.0,10.0,70.0,10.0,310.7859223849955,,,,,,,,,,,,,,,,,310.7767029369716,310.8687265489716,311.67610246298136,311.66108730697306,,,,,,,,,,,,,,,,,,,,,,,,,,,,,,,,,,,311.6658339879941,311.67610246298136,311.67610246298136,312.1346672549844,g,1.0,0.4508199759875424,,,,,,sub-012,1,stroop_test,80.33066156950305,
,,,,71.0,11.0,5.0,,,,,,,,,,,,,blau,red,r,0.0,r,1.0,0.338539035001304,,,,,,,,,,5.0,11.0,71.0,4.0,312.1461381889821,,,,,,,,,,,,,,,,,312.13514113699785,312.9291908519808,313.7427871869877,313.7277561299852,,,,,,,,,,,,,,,,,,,,,,,,,,,,,,,,,,,313.7321560739947,313.7427871869877,313.7427871869877,314.0956100759795,r,1.0,0.338539035001304,,,,,,sub-012,1,stroop_test,80.33066156950305,
,,,,72.0,0.0,6.0,,,,,,,,,,,,,gelb,yellow,g,1.0,g,1.0,0.4966905750043224,,,,,,,,,,6.0,0.0,72.0,10.0,314.1059098019905,,,,,,,,,,,,,,,,,314.09607515399694,314.4435831189912,315.24525837399415,315.22931937797694,,,,,,,,,,,,,,,,,,,,,,,,,,,,,,,,,,,315.2335431329848,315.24525837399415,315.24525837399415,315.7470657209924,g,1.0,0.4966905750043224,,,,,,sub-012,1,stroop_test,80.33066156950305,
,,,,73.0,1.0,6.0,,,,,,,,,,,,,gelb,yellow,g,1.0,g,1.0,0.3759442779992241,,,,,,,,,,6.0,1.0,73.0,11.0,315.7589626799745,,,,,,,,,,,,,,,,,315.74759420298506,315.8543005309766,316.65776542099775,316.6455691259762,,,,,,,,,,,,,,,,,,,,,,,,,,,,,,,,,,,316.6465482339845,316.65776542099775,316.65776542099775,317.0407656689931,g,1.0,0.3759442779992241,,,,,,sub-012,1,stroop_test,80.33066156950305,
,,,,74.0,2.0,6.0,,,,,,,,,,,,,rot,blue,b,0.0,b,1.0,0.6891277190006804,,,,,,,,,,6.0,2.0,74.0,2.0,317.0513394419977,,,,,,,,,,,,,,,,,317.0414865039929,317.16153951498563,317.9687158429879,317.9531427229813,,,,,,,,,,,,,,,,,,,,,,,,,,,,,,,,,,,317.95816255998216,317.9687158429879,317.9687158429879,318.6638799769862,b,1.0,0.6891277190006804,,,,,,sub-012,1,stroop_test,80.33066156950305,
,,,,75.0,3.0,6.0,,,,,,,,,,,,,rot,red,r,1.0,r,1.0,0.5791135210020002,,,,,,,,,,6.0,3.0,75.0,1.0,318.67470316099934,,,,,,,,,,,,,,,,,318.664353108994,319.8632547159796,320.6648797739763,320.6541212449956,,,,,,,,,,,,,,,,,,,,,,,,,,,,,,,,,,,320.65508639399195,320.6648797739763,320.6648797739763,321.24728454698925,r,1.0,0.5791135210020002,,,,,,sub-012,1,stroop_test,80.33066156950305,
,,,,76.0,4.0,6.0,,,,,,,,,,,,,rot,yellow,g,0.0,g,1.0,0.9264552439854016,,,,,,,,,,6.0,4.0,76.0,3.0,321.2587430009735,,,,,,,,,,,,,,,,,321.24781665799674,322.4527683649794,323.26000793799176,323.2446086459968,,,,,,,,,,,,,,,,,,,,,,,,,,,,,,,,,,,323.2455954429752,323.26000793799176,323.26000793799176,324.1957112949749,g,1.0,0.9264552439854016,,,,,,sub-012,1,stroop_test,80.33066156950305,
,,,,77.0,5.0,6.0,,,,,,,,,,,,,blau,blue,b,1.0,b,1.0,0.5480699549952988,,,,,,,,,,6.0,5.0,77.0,5.0,324.21014977499726,,,,,,,,,,,,,,,,,324.19618606797303,324.546101104992,325.3532403059944,325.337615315977,,,,,,,,,,,,,,,,,,,,,,,,,,,,,,,,,,,325.34306606597966,325.3532403059944,325.3532403059944,325.9135057629901,b,1.0,0.5480699549952988,,,,,,sub-012,1,stroop_test,80.33066156950305,
,,,,78.0,6.0,6.0,,,,,,,,,,,,,gelb,red,r,0.0,r,1.0,0.6377082350081764,,,,,,,,,,6.0,6.0,78.0,8.0,325.92506969097303,,,,,,,,,,,,,,,,,325.91399678000016,326.2778495019884,327.0923783420003,327.07920897199074,,,,,,,,,,,,,,,,,,,,,,,,,,,,,,,,,,,327.08309728099266,327.0923783420003,327.0923783420003,327.7398492389766,r,1.0,0.6377082350081764,,,,,,sub-012,1,stroop_test,80.33066156950305,
,,,,79.0,7.0,6.0,,,,,,,,,,,,,rot,red,r,1.0,r,1.0,0.4844122290087398,,,,,,,,,,6.0,7.0,79.0,0.0,327.75100799498614,,,,,,,,,,,,,,,,,327.74049087497406,328.54354701397824,329.359395611973,329.34426873899065,,,,,,,,,,,,,,,,,,,,,,,,,,,,,,,,,,,329.3489425209991,329.359395611973,329.359395611973,329.8468050219817,r,1.0,0.4844122290087398,,,,,,sub-012,1,stroop_test,80.33066156950305,
,,,,80.0,8.0,6.0,,,,,,,,,,,,,gelb,blue,b,0.0,b,1.0,0.4771809809899423,,,,,,,,,,6.0,8.0,80.0,9.0,329.8586502149992,,,,,,,,,,,,,,,,,329.8474470009969,330.6591816109721,331.46482412997284,331.44514046798577,,,,,,,,,,,,,,,,,,,,,,,,,,,,,,,,,,,331.4490141439892,331.46482412997284,331.46482412997284,331.96285984499264,b,1.0,0.4771809809899423,,,,,,sub-012,1,stroop_test,80.33066156950305,
,,,,81.0,9.0,6.0,,,,,,,,,,,,,blau,blue,b,1.0,b,1.0,0.5685876699863002,,,,,,,,,,6.0,9.0,81.0,6.0,331.97653195797466,,,,,,,,,,,,,,,,,331.9634276559809,332.07662910199724,332.875261743,332.8616079129861,,,,,,,,,,,,,,,,,,,,,,,,,,,,,,,,,,,332.86537369398866,332.875261743,332.875261743,333.4493600879796,b,1.0,0.5685876699863002,,,,,,sub-012,1,stroop_test,80.33066156950305,
,,,,82.0,10.0,6.0,,,,,,,,,,,,,blau,red,r,0.0,r,1.0,0.5847143949940801,,,,,,,,,,6.0,10.0,82.0,4.0,333.46195584797533,,,,,,,,,,,,,,,,,333.4498636609933,334.24534138897434,335.0427197039826,335.03199988298,,,,,,,,,,,,,,,,,,,,,,,,,,,,,,,,,,,335.0328693499905,335.0427197039826,335.0427197039826,335.63057951198425,r,1.0,0.5847143949940801,,,,,,sub-012,1,stroop_test,80.33066156950305,
,,,,83.0,11.0,6.0,,,,,,,,,,,,,blau,yellow,g,0.0,g,1.0,0.3979381289973389,,,,,,,,,,6.0,11.0,83.0,7.0,335.64162009599386,,,,,,,,,,,,,,,,,335.63119744698633,336.8271217309812,337.62632242098334,337.6150042159716,,,,,,,,,,,,,,,,,,,,,,,,,,,,,,,,,,,337.61596981299226,337.62632242098334,337.62632242098334,338.029468238994,g,1.0,0.3979381289973389,,,,,,sub-012,1,stroop_test,80.33066156950305,
,,,,84.0,0.0,7.0,,,,,,,,,,,,,gelb,yellow,g,1.0,g,1.0,0.3564448620018083,,,,,,,,,,7.0,0.0,84.0,11.0,338.0403847799753,,,,,,,,,,,,,,,,,338.02996058098506,339.2291059899726,340.0336794849718,340.019748562976,,,,,,,,,,,,,,,,,,,,,,,,,,,,,,,,,,,340.0244243569905,340.0336794849718,340.0336794849718,340.40020540499245,g,1.0,0.3564448620018083,,,,,,sub-012,1,stroop_test,80.33066156950305,
,,,,85.0,1.0,7.0,,,,,,,,,,,,,rot,red,r,1.0,r,1.0,0.5593175870017149,,,,,,,,,,7.0,1.0,85.0,0.0,340.41250755797955,,,,,,,,,,,,,,,,,340.4007027159969,340.49704692399246,341.30970318298205,341.2955774339789,,,,,,,,,,,,,,,,,,,,,,,,,,,,,,,,,,,341.3000935749733,341.30970318298205,341.30970318298205,341.8792441809783,r,1.0,0.5593175870017149,,,,,,sub-012,1,stroop_test,80.33066156950305,
,,,,86.0,2.0,7.0,,,,,,,,,,,,,blau,red,r,0.0,r,1.0,0.6397583270154428,,,,,,,,,,7.0,2.0,86.0,4.0,341.8897825279855,,,,,,,,,,,,,,,,,341.8797231069766,343.092715879,343.8915363839769,343.87763098598225,,,,,,,,,,,,,,,,,,,,,,,,,,,,,,,,,,,343.88142651398084,343.8915363839769,343.8915363839769,344.54581425798824,r,1.0,0.6397583270154428,,,,,,sub-012,1,stroop_test,80.33066156950305,
,,,,87.0,3.0,7.0,,,,,,,,,,,,,rot,yellow,g,0.0,g,1.0,0.6144577380036935,,,,,,,,,,7.0,3.0,87.0,3.0,344.5573833870003,,,,,,,,,,,,,,,,,344.5463153739984,344.8942188109795,345.69332729198504,345.6796170109883,,,,,,,,,,,,,,,,,,,,,,,,,,,,,,,,,,,345.6833847149974,345.69332729198504,345.69332729198504,346.3130995819811,g,1.0,0.6144577380036935,,,,,,sub-012,1,stroop_test,80.33066156950305,
,,,,88.0,4.0,7.0,,,,,,,,,,,,,rot,red,r,1.0,r,1.0,0.4193210340163205,,,,,,,,,,7.0,4.0,88.0,1.0,346.32435203299974,,,,,,,,,,,,,,,,,346.3135681109852,347.11376140397624,347.91710613897885,347.90413147897925,,,,,,,,,,,,,,,,,,,,,,,,,,,,,,,,,,,347.9051361869788,347.91710613897885,347.91710613897885,348.3459010789811,r,1.0,0.4193210340163205,,,,,,sub-012,1,stroop_test,80.33066156950305,
,,,,89.0,5.0,7.0,,,,,,,,,,,,,blau,blue,b,1.0,b,1.0,0.6050625520001631,,,,,,,,,,7.0,5.0,89.0,6.0,348.3567265709862,,,,,,,,,,,,,,,,,348.34637419399223,348.4465070029837,349.25831478097825,349.24434335899423,,,,,,,,,,,,,,,,,,,,,,,,,,,,,,,,,,,349.248159854993,349.25831478097825,349.25831478097825,349.873826178984,b,1.0,0.6050625520001631,,,,,,sub-012,1,stroop_test,80.33066156950305,
,,,,90.0,6.0,7.0,,,,,,,,,,,,,gelb,red,r,0.0,r,1.0,0.6242007529945113,,,,,,,,,,7.0,6.0,90.0,8.0,349.88341956899967,,,,,,,,,,,,,,,,,349.87430152398883,349.96774007799104,350.77072883897927,350.7549828589836,,,,,,,,,,,,,,,,,,,,,,,,,,,,,,,,,,,350.7605243049911,350.77072883897927,350.77072883897927,351.40543639997486,r,1.0,0.6242007529945113,,,,,,sub-012,1,stroop_test,80.33066156950305,
,,,,91.0,7.0,7.0,,,,,,,,,,,,,blau,yellow,g,0.0,g,1.0,0.3844558710115962,,,,,,,,,,7.0,7.0,91.0,7.0,351.4162835269817,,,,,,,,,,,,,,,,,351.4061398449994,352.19970838099835,353.00892600399675,352.9954431139922,,,,,,,,,,,,,,,,,,,,,,,,,,,,,,,,,,,352.9992543569824,353.00892600399675,353.00892600399675,353.3991069659824,g,1.0,0.3844558710115962,,,,,,sub-012,1,stroop_test,80.33066156950305,
,,,,92.0,8.0,7.0,,,,,,,,,,,,,gelb,yellow,g,1.0,g,1.0,0.3127559630083851,,,,,,,,,,7.0,8.0,92.0,10.0,353.425971833989,,,,,,,,,,,,,,,,,353.39958492698497,354.60125444698497,355.4110439309734,355.3949564929935,,,,,,,,,,,,,,,,,,,,,,,,,,,,,,,,,,,355.3987199330004,355.4110439309734,355.4110439309734,355.7326694429794,g,1.0,0.3127559630083851,,,,,,sub-012,1,stroop_test,80.33066156950305,
,,,,93.0,9.0,7.0,,,,,,,,,,,,,gelb,blue,b,0.0,b,1.0,0.8916880589968059,,,,,,,,,,7.0,9.0,93.0,9.0,355.7448939869937,,,,,,,,,,,,,,,,,355.73320868599694,356.53665068998816,357.3432929189876,357.3289958399837,,,,,,,,,,,,,,,,,,,,,,,,,,,,,,,,,,,357.3296427819878,357.3432929189876,357.3432929189876,358.2457415389945,b,1.0,0.8916880589968059,,,,,,sub-012,1,stroop_test,80.33066156950305,
,,,,94.0,10.0,7.0,,,,,,,,,,,,,rot,blue,b,0.0,b,1.0,0.3580166870087851,,,,,,,,,,7.0,10.0,94.0,2.0,358.256241192983,,,,,,,,,,,,,,,,,358.2461987209972,359.44239079899853,360.24204448997625,360.2273199039919,,,,,,,,,,,,,,,,,,,,,,,,,,,,,,,,,,,360.23188323999057,360.24204448997625,360.24204448997625,360.6084874119842,b,1.0,0.3580166870087851,,,,,,sub-012,1,stroop_test,80.33066156950305,
,,,,95.0,11.0,7.0,,,,,,,,,,,,,blau,blue,b,1.0,b,1.0,0.4351727959874552,,,,,,,,,,7.0,11.0,95.0,5.0,360.6200310069835,,,,,,,,,,,,,,,,,360.60913484098273,361.401244202978,362.20929780599545,362.1954664999794,,,,,,,,,,,,,,,,,,,,,,,,,,,,,,,,,,,362.1991726809938,362.20929780599545,362.20929780599545,362.6558720489848,b,1.0,0.4351727959874552,,,,,,sub-012,1,stroop_test,80.33066156950305,
,,,,96.0,0.0,8.0,,,,,,,,,,,,,gelb,yellow,g,1.0,r,0.0,0.4038213129970245,,,,,,,,,,8.0,0.0,96.0,11.0,362.6675359309884,,,,,,,,,,,,,,,,,362.6565346599964,363.85392152899294,364.6753934949811,364.6456756419793,,,,,,,,,,,,,,,,,,,,,,,,,,,,,,,,,,,364.6496697359835,364.6753934949811,364.6753934949811,365.0909819329973,r,0.0,0.4038213129970245,,,,,,sub-012,1,stroop_test,80.33066156950305,
,,,,97.0,1.0,8.0,,,,,,,,,,,,,rot,red,r,1.0,r,1.0,0.7399711030011531,,,,,,,,,,8.0,1.0,97.0,0.0,365.10146270299447,,,,,,,,,,,,,,,,,365.0914869499975,365.8871835549944,366.6871851659962,366.67216242698487,,,,,,,,,,,,,,,,,,,,,,,,,,,,,,,,,,,366.6768316300004,366.6871851659962,366.6871851659962,367.43838103397866,r,1.0,0.7399711030011531,,,,,,sub-012,1,stroop_test,80.33066156950305,
,,,,98.0,2.0,8.0,,,,,,,,,,,,,blau,blue,b,1.0,b,1.0,0.669416168006137,,,,,,,,,,8.0,2.0,98.0,5.0,367.4491708729765,,,,,,,,,,,,,,,,,367.438988822978,368.2353223849786,369.04204683197895,369.02705980997416,,,,,,,,,,,,,,,,,,,,,,,,,,,,,,,,,,,369.031603920972,369.04204683197895,369.04204683197895,369.7217040679825,b,1.0,0.669416168006137,,,,,,sub-012,1,stroop_test,80.33066156950305,
,,,,99.0,3.0,8.0,,,,,,,,,,,,,rot,blue,b,0.0,b,1.0,0.8666709050012287,,,,,,,,,,8.0,3.0,99.0,2.0,369.7323512329895,,,,,,,,,,,,,,,,,369.7223489989992,370.07701253599953,370.87479659199016,370.8617100479896,,,,,,,,,,,,,,,,,,,,,,,,,,,,,,,,,,,370.8653926089755,370.87479659199016,370.87479659199016,371.7463040219736,b,1.0,0.8666709050012287,,,,,,sub-012,1,stroop_test,80.33066156950305,
,,,,100.0,4.0,8.0,,,,,,,,,,,,,blau,red,r,0.0,r,1.0,1.7538786610239183,,,,,,,,,,8.0,4.0,100.0,4.0,371.7576570439851,,,,,,,,,,,,,,,,,371.7467788239883,371.8468612419965,372.65787289699074,372.64390074598487,,,,,,,,,,,,,,,,,,,,,,,,,,,,,,,,,,,372.64770857899566,372.65787289699074,372.65787289699074,374.4158565689868,r,1.0,1.7538786610239183,,,,,,sub-012,1,stroop_test,80.33066156950305,
,,,,101.0,5.0,8.0,,,,,,,,,,,,,gelb,blue,b,0.0,b,1.0,0.7249779980047606,,,,,,,,,,8.0,5.0,101.0,9.0,374.42801113799214,,,,,,,,,,,,,,,,,374.4165761049953,374.7588372089958,375.5598152059829,375.5442840879841,,,,,,,,,,,,,,,,,,,,,,,,,,,,,,,,,,,375.5498973079957,375.5598152059829,375.5598152059829,376.2962107859785,b,1.0,0.7249779980047606,,,,,,sub-012,1,stroop_test,80.33066156950305,
,,,,102.0,6.0,8.0,,,,,,,,,,,,,blau,yellow,g,0.0,g,1.0,0.510320409986889,,,,,,,,,,8.0,6.0,102.0,7.0,376.30666948799626,,,,,,,,,,,,,,,,,376.2966439209995,377.09738004699466,377.9094797549769,377.8950386879733,,,,,,,,,,,,,,,,,,,,,,,,,,,,,,,,,,,377.89901489799377,377.9094797549769,377.9094797549769,378.4243941749737,g,1.0,0.510320409986889,,,,,,sub-012,1,stroop_test,80.33066156950305,
,,,,103.0,7.0,8.0,,,,,,,,,,,,,gelb,yellow,g,1.0,g,1.0,0.3426661150006111,,,,,,,,,,8.0,7.0,103.0,10.0,378.4357912229898,,,,,,,,,,,,,,,,,378.4249057469715,378.79398932898766,379.5917009239784,379.5774371289881,,,,,,,,,,,,,,,,,,,,,,,,,,,,,,,,,,,379.58126995997736,379.5917009239784,379.5917009239784,379.9405956779956,g,1.0,0.3426661150006111,,,,,,sub-012,1,stroop_test,80.33066156950305,
,,,,104.0,8.0,8.0,,,,,,,,,,,,,rot,red,r,1.0,r,1.0,0.5360783989890479,,,,,,,,,,8.0,8.0,104.0,1.0,379.9519688109867,,,,,,,,,,,,,,,,,379.9411119929864,381.1351877449779,381.9418048849912,381.9269942269893,,,,,,,,,,,,,,,,,,,,,,,,,,,,,,,,,,,381.9314528629766,381.9418048849912,381.9418048849912,382.4889531869849,r,1.0,0.5360783989890479,,,,,,sub-012,1,stroop_test,80.33066156950305,
,,,,105.0,9.0,8.0,,,,,,,,,,,,,gelb,red,r,0.0,r,1.0,1.6831307820102666,,,,,,,,,,8.0,9.0,105.0,8.0,382.4993345839903,,,,,,,,,,,,,,,,,382.489590239973,382.8343784039898,383.6320082829916,383.6184611739882,,,,,,,,,,,,,,,,,,,,,,,,,,,,,,,,,,,383.62273951098905,383.6320082829916,383.6320082829916,385.3278090779786,r,1.0,1.6831307820102666,,,,,,sub-012,1,stroop_test,80.33066156950305,
,,,,106.0,10.0,8.0,,,,,,,,,,,,,blau,blue,b,1.0,b,1.0,0.5661959559947718,,,,,,,,,,8.0,10.0,106.0,6.0,385.34068038497935,,,,,,,,,,,,,,,,,385.3287013299996,385.677246028994,386.476458427991,386.4622637909779,,,,,,,,,,,,,,,,,,,,,,,,,,,,,,,,,,,386.4658649889752,386.476458427991,386.476458427991,387.0470593879873,b,1.0,0.5661959559947718,,,,,,sub-012,1,stroop_test,80.33066156950305,
,,,,107.0,11.0,8.0,,,,,,,,,,,,,rot,yellow,g,0.0,g,1.0,0.9205874069884884,,,,,,,,,,8.0,11.0,107.0,3.0,387.0592495569727,,,,,,,,,,,,,,,,,387.0477336329932,388.2448076209985,389.04848682598094,389.0349895099935,,,,,,,,,,,,,,,,,,,,,,,,,,,,,,,,,,,389.0388007029833,389.04848682598094,389.04848682598094,389.9735980629921,g,1.0,0.9205874069884884,,,,,,sub-012,1,stroop_test,80.33066156950305,
,,,,108.0,0.0,9.0,,,,,,,,,,,,,gelb,blue,b,0.0,b,1.0,0.7559376189892646,,,,,,,,,,9.0,0.0,108.0,9.0,389.9852206819924,,,,,,,,,,,,,,,,,389.9741349439719,390.316851148993,391.12488660699455,391.1105373899918,,,,,,,,,,,,,,,,,,,,,,,,,,,,,,,,,,,391.1151143469906,391.12488660699455,391.12488660699455,391.8890351189766,b,1.0,0.7559376189892646,,,,,,sub-012,1,stroop_test,80.33066156950305,
,,,,109.0,1.0,9.0,,,,,,,,,,,,,rot,yellow,g,0.0,g,1.0,1.050937341991812,,,,,,,,,,9.0,1.0,109.0,3.0,391.8997033409833,,,,,,,,,,,,,,,,,391.8895958849753,392.684546887991,393.4912586469727,393.4771760339791,,,,,,,,,,,,,,,,,,,,,,,,,,,,,,,,,,,393.480943802977,393.4912586469727,393.4912586469727,394.54621904098894,g,1.0,1.050937341991812,,,,,,sub-012,1,stroop_test,80.33066156950305,
,,,,110.0,2.0,9.0,,,,,,,,,,,,,blau,red,r,0.0,r,1.0,0.6173783710110001,,,,,,,,,,9.0,2.0,110.0,4.0,394.5571686839976,,,,,,,,,,,,,,,,,394.5467076309724,394.89084962397465,395.7083356709918,395.6936375639925,,,,,,,,,,,,,,,,,,,,,,,,,,,,,,,,,,,395.6980936189939,395.7083356709918,395.7083356709918,396.330154714,r,1.0,0.6173783710110001,,,,,,sub-012,1,stroop_test,80.33066156950305,
,,,,111.0,3.0,9.0,,,,,,,,,,,,,blau,blue,b,1.0,b,1.0,0.4881965889944695,,,,,,,,,,9.0,3.0,111.0,6.0,396.3413819599955,,,,,,,,,,,,,,,,,396.33066594597767,397.528174120991,398.3248958419717,398.31416131099104,,,,,,,,,,,,,,,,,,,,,,,,,,,,,,,,,,,398.3148364849913,398.3248958419717,398.3248958419717,398.824528638972,b,1.0,0.4881965889944695,,,,,,sub-012,1,stroop_test,80.33066156950305,
,,,,112.0,4.0,9.0,,,,,,,,,,,,,gelb,red,r,0.0,r,1.0,1.3049648030137178,,,,,,,,,,9.0,4.0,112.0,8.0,398.8368316489796,,,,,,,,,,,,,,,,,398.8251289259933,399.6169102049898,400.4182333629869,400.4028965169855,,,,,,,,,,,,,,,,,,,,,,,,,,,,,,,,,,,400.4078902009933,400.4182333629869,400.4182333629869,401.73357536498224,r,1.0,1.3049648030137178,,,,,,sub-012,1,stroop_test,80.33066156950305,
,,,,113.0,5.0,9.0,,,,,,,,,,,,,rot,blue,b,0.0,b,1.0,0.5821723669942003,,,,,,,,,,9.0,5.0,113.0,2.0,401.74638230499113,,,,,,,,,,,,,,,,,401.73414104798576,401.8255303519836,402.628178902989,402.6131393709802,,,,,,,,,,,,,,,,,,,,,,,,,,,,,,,,,,,402.61710177297937,402.628178902989,402.628178902989,403.2152444979874,b,1.0,0.5821723669942003,,,,,,sub-012,1,stroop_test,80.33066156950305,
,,,,114.0,6.0,9.0,,,,,,,,,,,,,gelb,yellow,g,1.0,g,1.0,0.4789374179963488,,,,,,,,,,9.0,6.0,114.0,10.0,403.2275403819804,,,,,,,,,,,,,,,,,403.2158129909949,404.42656757999794,405.2266591730004,405.21068347099936,,,,,,,,,,,,,,,,,,,,,,,,,,,,,,,,,,,405.2144810659811,405.2266591730004,405.2266591730004,405.71647116797976,g,1.0,0.4789374179963488,,,,,,sub-012,1,stroop_test,80.33066156950305,
,,,,115.0,7.0,9.0,,,,,,,,,,,,,blau,yellow,g,0.0,g,1.0,0.3734953659877646,,,,,,,,,,9.0,7.0,115.0,7.0,405.7293377319874,,,,,,,,,,,,,,,,,405.7169325449795,406.9194150009717,407.7238949909806,407.7102917369921,,,,,,,,,,,,,,,,,,,,,,,,,,,,,,,,,,,407.7139853309782,407.7238949909806,407.7238949909806,408.1055281139852,g,1.0,0.3734953659877646,,,,,,sub-012,1,stroop_test,80.33066156950305,
,,,,116.0,8.0,9.0,,,,,,,,,,,,,rot,red,r,1.0,r,1.0,0.5898422460013535,,,,,,,,,,9.0,8.0,116.0,0.0,408.1167553499981,,,,,,,,,,,,,,,,,408.1062939899857,408.90078696998535,409.7083053549868,409.694165495981,,,,,,,,,,,,,,,,,,,,,,,,,,,,,,,,,,,409.6988668649865,409.7083053549868,409.7083053549868,410.3114105179848,r,1.0,0.5898422460013535,,,,,,sub-012,1,stroop_test,80.33066156950305,
,,,,117.0,9.0,9.0,,,,,,,,,,,,,gelb,yellow,g,1.0,g,1.0,0.4089881829859223,,,,,,,,,,9.0,9.0,117.0,11.0,410.3220905909839,,,,,,,,,,,,,,,,,410.3118898809771,410.4091981309757,411.20778682199307,411.1935249329836,,,,,,,,,,,,,,,,,,,,,,,,,,,,,,,,,,,411.1976067699725,411.20778682199307,411.20778682199307,411.6213222409715,g,1.0,0.4089881829859223,,,,,,sub-012,1,stroop_test,80.33066156950305,
,,,,118.0,10.0,9.0,,,,,,,,,,,,,rot,red,r,1.0,r,1.0,0.4592053039814345,,,,,,,,,,9.0,10.0,118.0,1.0,411.631688147987,,,,,,,,,,,,,,,,,411.6219745979761,411.7187341719982,412.5240160059766,412.510090501979,,,,,,,,,,,,,,,,,,,,,,,,,,,,,,,,,,,412.5139735539851,412.5240160059766,412.5240160059766,412.98705157099175,r,1.0,0.4592053039814345,,,,,,sub-012,1,stroop_test,80.33066156950305,
,,,,119.0,11.0,9.0,,,,,,,,,,,,,blau,blue,b,1.0,b,1.0,0.471087249025004,,,,,,,,,,9.0,11.0,119.0,5.0,412.9951713179762,,,,,,,,,,,,,,,,,412.98756357998354,413.0860885949805,413.8915715679759,413.8765834949736,,,,,,,,,,,,,,,,,,,,,,,,,,,,,,,,,,,413.8811183749931,413.8915715679759,413.8915715679759,414.37075866397936,b,1.0,0.471087249025004,,,,,,sub-012,1,stroop_test,80.33066156950305,
,,,,,,,,,,,,,,,,,,,,,,,,,,,,,,,,,,,,,,,,,,,,,,,,,,,,,,,,,,,,,,,,,,,,,,,,,,,,,,,,,,,,,,,,,,,,,,,,,,,,,,414.37097473299946,414.3836989199917,419.3771746059938,419.3692045559874,sub-012,1,stroop_test,80.33066156950305,
