wordCTK,colorCTK,corrAnsCTK,congruentCTK,thisN,thisTrialN,thisRepN,keyResp_CTK.keys,keyResp_CTK.corr,keyResp_CTK.rt,keyResp_CTK.duration,wordPractice,colorPractice,corrAnsPractice,congruentPractice,respPractice.keys,respPractice.corr,respPractice.rt,respPractice.duration,word,color,corrAns,congruent,keyResp_test_run.keys,keyResp_test_run.corr,keyResp_test_run.rt,keyResp_test_run.duration,trials_CTK.thisRepN,trials_CTK.thisTrialN,trials_CTK.thisN,trials_CTK.thisIndex,trials_practice.thisRepN,trials_practice.thisTrialN,trials_practice.thisN,trials_practice.thisIndex,trials_test.thisRepN,trials_test.thisTrialN,trials_test.thisN,trials_test.thisIndex,thisRow.t,notes,instruction.started,instr_text.started,instr_image.started,instr_resp.started,instruction.stopped,instr_resp.keys,instr_resp.rt,instr_resp.duration,instr_color_to_key.started,instr_ctk.started,resp_ctk.started,instr_color_to_key.stopped,resp_ctk.keys,resp_ctk.rt,resp_ctk.duration,ITI.started,fixcross.started,fixcross.stopped,ITI.stopped,color_to_key_run.started,stimulus_CTK.started,keyResp_CTK.started,color_to_key_run.stopped,trials_CTK.keyResp_CTK.keys,trials_CTK.keyResp_CTK.corr,trials_CTK.keyResp_CTK.rt,trials_CTK.keyResp_CTK.duration,instr_practice.started,instr_practice_text.started,instr_practice_resp.started,instr_practice.stopped,instr_practice_resp.keys,instr_practice_resp.rt,instr_practice_resp.duration,practice_run.started,stimulus_practice.started,respPractice.started,practice_run.stopped,trials_practice.respPractice.keys,trials_practice.respPractice.corr,trials_practice.respPractice.rt,trials_practice.respPractice.duration,feedback.started,textFeedback.started,feedback.stopped,textFeedback.stopped,instr_test.started,instr_test_text.started,instr_test_resp.started,instr_test.stopped,instr_test_resp.keys,instr_test_resp.rt,instr_test_resp.duration,test_run.started,stimulus_test_run.started,keyResp_test_run.started,test_run.stopped,trials_test.keyResp_test_run.keys,trials_test.keyResp_test_run.corr,trials_test.keyResp_test_run.rt,trials_test.keyResp_test_run.duration,goodbye.started,textGoodbye.started,goodbye.stopped,participant,session,expName,frameRate,Unnamed: 112
,,,,,,,,,,,,,,,,,,,,,,,,,,,,,,,,,,,,,,,,,0.0051285999943502,0.1052814999711699,0.1052814999711699,0.1052814999711699,68.56656339997426,space,68.45755960000679,,,,,,,,,,,,,,,,,,,,,,,,,,,,,,,,,,,,,,,,,,,,,,,,,,,,,,,,,,sub-097,1,stroop_test,60.03629795654749,
,,,,,,,,,,,,,,,,,,,,,,,,,,,,,,,,,,,,,,,,,,,,,,,,,68.56664729997283,68.5814560999861,68.5814560999861,78.26557099999627,space,9.669863799994346,,,,,,,,,,,,,,,,,,,,,,,,,,,,,,,,,,,,,,,,,,,,,,,,,,,sub-097,1,stroop_test,60.03629795654749,
test,blue,b,1.0,0.0,0.0,0.0,b,1.0,1.2208836000063457,,,,,,,,,,,,,,,,,,0.0,0.0,0.0,2.0,,,,,,,,,78.2943466999568,,,,,,,,,,,,,,,,,78.28808109997772,78.38038289995166,79.20097659999738,79.18077340000309,79.19121679995442,79.20097659999738,79.20097659999738,80.43053959996905,b,1.0,1.2208836000063457,,,,,,,,,,,,,,,,,,,,,,,,,,,,,,,,,,,,,,,sub-097,1,stroop_test,60.03629795654749,
test,red,r,1.0,1.0,1.0,0.0,r,1.0,1.0975259999977425,,,,,,,,,,,,,,,,,,0.0,1.0,1.0,0.0,,,,,,,,,80.44594750000397,,,,,,,,,,,,,,,,,80.43086009996478,80.52937479998218,81.32920739997644,81.31261359999189,81.31314250000287,81.32920739997644,81.32920739997644,82.4313797999639,r,1.0,1.0975259999977425,,,,,,,,,,,,,,,,,,,,,,,,,,,,,,,,,,,,,,,sub-097,1,stroop_test,60.03629795654749,
test,yellow,g,1.0,2.0,2.0,0.0,g,1.0,1.149291399982758,,,,,,,,,,,,,,,,,,0.0,2.0,2.0,1.0,,,,,,,,,82.44603140000254,,,,,,,,,,,,,,,,,82.43184330000076,83.24544209998567,84.04529539996292,84.02876489999471,84.0291556000011,84.04529539996292,84.04529539996292,85.19648849999066,g,1.0,1.149291399982758,,,,,,,,,,,,,,,,,,,,,,,,,,,,,,,,,,,,,,,sub-097,1,stroop_test,60.03629795654749,
test,blue,b,1.0,3.0,0.0,1.0,b,1.0,2.4603197000105865,,,,,,,,,,,,,,,,,,1.0,0.0,3.0,2.0,,,,,,,,,85.21169229998486,,,,,,,,,,,,,,,,,85.19689979997929,85.29599309997866,86.11204669997096,86.09542069997406,86.09590709995246,86.11204669997096,86.11204669997096,88.57950309995795,b,1.0,2.4603197000105865,,,,,,,,,,,,,,,,,,,,,,,,,,,,,,,,,,,,,,,sub-097,1,stroop_test,60.03629795654749,
test,yellow,g,1.0,4.0,1.0,1.0,g,1.0,1.5134908000472933,,,,,,,,,,,,,,,,,,1.0,1.0,4.0,1.0,,,,,,,,,88.59519249998266,,,,,,,,,,,,,,,,,88.57981709996238,89.39454049995402,90.19473589997506,90.17852109996602,90.17896449996624,90.19473589997506,90.19473589997506,91.71297079999933,g,1.0,1.5134908000472933,,,,,,,,,,,,,,,,,,,,,,,,,,,,,,,,,,,,,,,sub-097,1,stroop_test,60.03629795654749,
test,red,r,1.0,5.0,2.0,1.0,r,1.0,0.7702616000315174,,,,,,,,,,,,,,,,,,1.0,2.0,5.0,0.0,,,,,,,,,91.72750679997262,,,,,,,,,,,,,,,,,91.71343129995512,92.07854629994836,92.8777732999879,92.86234509997304,92.86299049999798,92.8777732999879,92.8777732999879,93.66247539996402,r,1.0,0.7702616000315174,,,,,,,,,,,,,,,,,,,,,,,,,,,,,,,,,,,,,,,sub-097,1,stroop_test,60.03629795654749,
test,red,r,1.0,6.0,0.0,2.0,r,1.0,0.705394399992656,,,,,,,,,,,,,,,,,,2.0,0.0,6.0,0.0,,,,,,,,,93.67705019999994,,,,,,,,,,,,,,,,,93.66271319997033,94.01122479996413,94.81128480000189,94.79526319995055,94.79568789998302,94.81128480000189,94.81128480000189,95.5286611999618,r,1.0,0.705394399992656,,,,,,,,,,,,,,,,,,,,,,,,,,,,,,,,,,,,,,,sub-097,1,stroop_test,60.03629795654749,
test,yellow,g,1.0,7.0,1.0,2.0,g,1.0,0.6762021000031382,,,,,,,,,,,,,,,,,,2.0,1.0,7.0,1.0,,,,,,,,,95.543800799991,,,,,,,,,,,,,,,,,95.52919239999028,96.74441299994942,97.54397800000152,97.52821570000378,97.52892179996708,97.54397800000152,97.54397800000152,98.2283259999822,g,1.0,0.6762021000031382,,,,,,,,,,,,,,,,,,,,,,,,,,,,,,,,,,,,,,,sub-097,1,stroop_test,60.03629795654749,
test,blue,b,1.0,8.0,2.0,2.0,b,1.0,0.9382944000535643,,,,,,,,,,,,,,,,,,2.0,2.0,8.0,2.0,,,,,,,,,98.24449699994877,,,,,,,,,,,,,,,,,98.22875809995458,99.04354919999604,99.84414889995242,99.82909129996553,99.8299365999992,99.84414889995242,99.84414889995242,100.79510239994852,b,1.0,0.9382944000535643,,,,,,,,,,,,,,,,,,,,,,,,,,,,,,,,,,,,,,,sub-097,1,stroop_test,60.03629795654749,
test,yellow,g,1.0,9.0,0.0,3.0,g,1.0,1.722183900012169,,,,,,,,,,,,,,,,,,3.0,0.0,9.0,1.0,,,,,,,,,100.8103178999736,,,,,,,,,,,,,,,,,100.7953471999499,100.91024199995444,101.7099682999542,101.69450379995396,101.69498539995402,101.7099682999542,101.7099682999542,103.44456799997717,g,1.0,1.722183900012169,,,,,,,,,,,,,,,,,,,,,,,,,,,,,,,,,,,,,,,sub-097,1,stroop_test,60.03629795654749,
test,blue,b,1.0,10.0,1.0,3.0,b,1.0,0.8192725999979302,,,,,,,,,,,,,,,,,,3.0,1.0,10.0,2.0,,,,,,,,,103.460356399999,,,,,,,,,,,,,,,,,103.44483779999427,103.5592606999562,104.36015939997742,104.3435160999652,104.34393229999114,104.36015939997742,104.36015939997742,105.19372369995108,b,1.0,0.8192725999979302,,,,,,,,,,,,,,,,,,,,,,,,,,,,,,,,,,,,,,,sub-097,1,stroop_test,60.03629795654749,
test,red,r,1.0,11.0,2.0,3.0,r,1.0,0.7183264000341296,,,,,,,,,,,,,,,,,,3.0,2.0,11.0,0.0,,,,,,,,,105.20988849998685,,,,,,,,,,,,,,,,,105.19396730000152,105.29308149998542,106.09276799997316,106.0771795999608,106.07805779995395,106.09276799997316,106.09276799997316,106.82755869999528,r,1.0,0.7183264000341296,,,,,,,,,,,,,,,,,,,,,,,,,,,,,,,,,,,,,,,sub-097,1,stroop_test,60.03629795654749,
,,,,,,,,,,,,,,,,,,,,,,,,,,,,,,,,,,,,,,,,,,,,,,,,,,,,,,,,,,,,,,,,,,,,106.82777579996036,106.84233509999468,106.84233509999468,118.09345949999988,space,11.247255599999336,,,,,,,,,,,,,,,,,,,,,,,,,,,,,,,,sub-097,1,stroop_test,60.03629795654749,
,,,,0.0,0.0,0.0,,,,,gelb,yellow,g,1.0,g,1.0,1.8073258000076748,,,,,,,,,,,,,,0.0,0.0,0.0,10.0,,,,,118.1116822999902,,,,,,,,,,,,,,,,,118.10573179996572,118.90725759998897,119.70878879999508,119.69152399996528,,,,,,,,,,,,,,,,119.70001109997976,119.70878879999508,119.70878879999508,121.52593720000004,g,1.0,1.8073258000076748,,121.54286039998988,121.55245529999956,122.5410235999734,,,,,,,,,,,,,,,,,,,,sub-097,1,stroop_test,60.03629795654749,
,,,,1.0,1.0,0.0,,,,,blau,yellow,g,0.0,b,0.0,1.08585440000752,,,,,,,,,,,,,,0.0,1.0,1.0,7.0,,,,,122.55763589998242,,,,,,,,,,,,,,,,,122.54131770000096,122.64053330000024,123.44433979998576,123.42500619997736,,,,,,,,,,,,,,,,123.43379589996766,123.44433979998576,123.44433979998576,124.54150729998946,b,0.0,1.08585440000752,,124.54828819999238,124.55832139996346,125.55661129998045,,,,,,,,,,,,,,,,,,,,sub-097,1,stroop_test,60.03629795654749,
,,,,2.0,2.0,0.0,,,,,rot,yellow,g,0.0,g,1.0,1.5400889000156894,,,,,,,,,,,,,,0.0,2.0,2.0,3.0,,,,,125.5739087999682,,,,,,,,,,,,,,,,,125.5569039999973,125.9071415999788,126.70692289998988,126.69113499997184,,,,,,,,,,,,,,,,126.69604059995618,126.70692289998988,126.70692289998988,128.2574926999514,g,1.0,1.5400889000156894,,128.2608171000029,128.27336469996953,129.2566960999975,129.27280999999493,,,,,,,,,,,,,,,,,,,sub-097,1,stroop_test,60.03629795654749,
,,,,3.0,3.0,0.0,,,,,rot,red,r,1.0,r,1.0,1.143619199981913,,,,,,,,,,,,,,0.0,3.0,3.0,0.0,,,,,129.27280999999493,,,,,,,,,,,,,,,,,129.25694079999812,130.07269339996856,130.87321199994767,130.85708079999313,,,,,,,,,,,,,,,,130.85776759998407,130.87321199994767,130.87321199994767,132.02530929999193,r,1.0,1.143619199981913,,132.02611279999837,132.03994899999816,133.02370609994978,133.03957159997665,,,,,,,,,,,,,,,,,,,sub-097,1,stroop_test,60.03629795654749,
,,,,4.0,4.0,0.0,,,,,blau,red,r,0.0,r,1.0,1.1687997999833897,,,,,,,,,,,,,,0.0,4.0,4.0,4.0,,,,,133.03957159997665,,,,,,,,,,,,,,,,,133.024068299972,134.23849969997536,135.03902929998003,135.02290819998598,,,,,,,,,,,,,,,,135.02603789995192,135.03902929998003,135.03902929998003,136.2232090999605,r,1.0,1.1687997999833897,,136.22362659999635,136.23829049995402,137.22259039996425,137.23820249998244,,,,,,,,,,,,,,,,,,,sub-097,1,stroop_test,60.03629795654749,
,,,,5.0,5.0,0.0,,,,,blau,blue,b,1.0,b,1.0,0.7479183999821544,,,,,,,,,,,,,,0.0,5.0,5.0,5.0,,,,,137.23820249998244,,,,,,,,,,,,,,,,,137.2228786999476,138.43798079999397,139.23844180000015,139.22269099997357,,,,,,,,,,,,,,,,139.2231158999493,139.23844180000015,139.23844180000015,139.98992859997088,b,1.0,0.7479183999821544,,139.99042259994894,140.00496769999154,140.98915099998703,141.00500259996625,,,,,,,,,,,,,,,,,,,sub-097,1,stroop_test,60.03629795654749,
,,,,6.0,6.0,0.0,,,,,rot,blue,b,0.0,b,1.0,2.6533115999773145,,,,,,,,,,,,,,0.0,6.0,6.0,2.0,,,,,141.00500259996625,,,,,,,,,,,,,,,,,140.98943369998597,141.35538599995198,142.15461359999608,142.1386120999814,,,,,,,,,,,,,,,,142.14226389996475,142.15461359999608,142.15461359999608,144.82259080000222,b,1.0,2.6533115999773145,,144.823084499978,144.83775639999658,145.82114719995295,145.83731410000473,,,,,,,,,,,,,,,,,,,sub-097,1,stroop_test,60.03629795654749,
,,,,7.0,7.0,0.0,,,,,gelb,blue,b,0.0,b,1.0,0.724670400028117,,,,,,,,,,,,,,0.0,7.0,7.0,9.0,,,,,145.83731410000473,,,,,,,,,,,,,,,,,145.8213984000031,146.1871069999761,146.98682569997618,146.97108669998124,,,,,,,,,,,,,,,,146.97354869998526,146.98682569997618,146.98682569997618,147.72205799998483,b,1.0,0.724670400028117,,147.72256299998844,147.73763799999142,148.72109409997938,148.73690079996595,,,,,,,,,,,,,,,,,,,sub-097,1,stroop_test,60.03629795654749,
,,,,8.0,8.0,0.0,,,,,gelb,yellow,g,1.0,g,1.0,0.8401424000039697,,,,,,,,,,,,,,0.0,8.0,8.0,11.0,,,,,148.73690079996595,,,,,,,,,,,,,,,,,148.7213708999916,149.93703679996543,150.73713289998705,150.72149899997748,,,,,,,,,,,,,,,,150.72233889997003,150.73713289998705,150.73713289998705,151.5882201999775,g,1.0,0.8401424000039697,,151.58872649999105,151.60345830000006,152.58784100000048,152.60447399999248,,,,,,,,,,,,,,,,,,,sub-097,1,stroop_test,60.03629795654749,
,,,,9.0,9.0,0.0,,,,,gelb,red,r,0.0,r,1.0,0.442548299964983,,,,,,,,,,,,,,0.0,9.0,9.0,8.0,,,,,152.60447399999248,,,,,,,,,,,,,,,,,152.58812649996253,152.70402730000205,153.50382359995274,153.48752579995198,,,,,,,,,,,,,,,,153.48796259996016,153.50382359995274,153.50382359995274,153.95420350000495,r,1.0,0.442548299964983,,153.9547342999722,153.96989159996156,154.95483679999597,154.96981989999767,,,,,,,,,,,,,,,,,,,sub-097,1,stroop_test,60.03629795654749,
,,,,10.0,10.0,0.0,,,,,rot,red,r,1.0,r,1.0,0.8021199999493547,,,,,,,,,,,,,,0.0,10.0,10.0,1.0,,,,,154.96981989999767,,,,,,,,,,,,,,,,,154.95510049996665,155.30336199997691,156.10287839995,156.0874952999875,,,,,,,,,,,,,,,,156.09063120000064,156.10287839995,156.10287839995,156.92028959997697,r,1.0,0.8021199999493547,,156.92079209996157,156.9512429999886,157.93563399999402,,,,,,,,,,,,,,,,,,,,sub-097,1,stroop_test,60.03629795654749,
,,,,11.0,11.0,0.0,,,,,blau,blue,b,1.0,b,1.0,0.7482342000002973,,,,,,,,,,,,,,0.0,11.0,11.0,6.0,,,,,157.95242190000135,,,,,,,,,,,,,,,,,157.93598609999754,158.71957620000467,159.51939919998404,159.50317759998143,,,,,,,,,,,,,,,,159.50623599998653,159.51939919998404,159.51939919998404,160.27000669995323,b,1.0,0.7482342000002973,,160.27066330000525,160.28580519999375,161.27063099999214,161.2860221999581,,,,,,,,,,,,,,,,,,,sub-097,1,stroop_test,60.03629795654749,
,,,,12.0,0.0,1.0,,,,,blau,red,r,0.0,r,1.0,0.7502361999941058,,,,,,,,,,,,,,1.0,0.0,12.0,4.0,,,,,161.2860221999581,,,,,,,,,,,,,,,,,161.2710490999743,162.08515749999788,162.88513519999103,162.86931079998612,,,,,,,,,,,,,,,,162.8697291999706,162.88513519999103,162.88513519999103,163.63709709997056,r,1.0,0.7502361999941058,,163.63785319996532,163.65305829996942,164.6526293999632,,,,,,,,,,,,,,,,,,,,sub-097,1,stroop_test,60.03629795654749,
,,,,13.0,1.0,1.0,,,,,gelb,blue,b,0.0,b,1.0,0.7443324999767356,,,,,,,,,,,,,,1.0,1.0,13.0,9.0,,,,,164.6685052999528,,,,,,,,,,,,,,,,,164.65288819995476,165.45137450000038,166.25223260000348,166.23574400000507,,,,,,,,,,,,,,,,166.23867930000415,166.25223260000348,166.25223260000348,167.00300849997438,b,1.0,0.7443324999767356,,167.0034888999653,167.0184745999868,168.00269429996845,168.01778339996235,,,,,,,,,,,,,,,,,,,sub-097,1,stroop_test,60.03629795654749,
,,,,14.0,2.0,1.0,,,,,blau,blue,b,1.0,b,1.0,0.548940800013952,,,,,,,,,,,,,,1.0,2.0,14.0,5.0,,,,,168.01778339996235,,,,,,,,,,,,,,,,,168.00300139997853,169.20088329998543,170.00143129995558,169.98466909996932,,,,,,,,,,,,,,,,169.98793459997978,170.00143129995558,170.00143129995558,170.552381699963,b,1.0,0.548940800013952,,170.55288609996205,170.56790539994836,171.55218030000106,171.56712219998008,,,,,,,,,,,,,,,,,,,sub-097,1,stroop_test,60.03629795654749,
,,,,15.0,3.0,1.0,,,,,rot,red,r,1.0,r,1.0,0.6986987999989651,,,,,,,,,,,,,,1.0,3.0,15.0,0.0,,,,,171.56712219998008,,,,,,,,,,,,,,,,,171.55249229999026,171.91824389999965,172.71744039998157,172.70184719999088,,,,,,,,,,,,,,,,172.70488039997872,172.71744039998157,172.71744039998157,173.41925209999317,r,1.0,0.6986987999989651,,173.41990389995044,173.4336164999986,174.4176985999802,174.43385029997444,,,,,,,,,,,,,,,,,,,sub-097,1,stroop_test,60.03629795654749,
,,,,16.0,4.0,1.0,,,,,rot,yellow,g,0.0,g,1.0,0.4276581000303849,,,,,,,,,,,,,,1.0,4.0,16.0,3.0,,,,,174.43385029997444,,,,,,,,,,,,,,,,,174.41808549995767,175.63309429999208,176.4332979999599,176.4181461999542,,,,,,,,,,,,,,,,176.41871549998177,176.4332979999599,176.4332979999599,176.867824499961,g,1.0,0.4276581000303849,,176.86831299995538,176.88308459997643,177.86823520000326,177.88392880000174,,,,,,,,,,,,,,,,,,,sub-097,1,stroop_test,60.03629795654749,
,,,,17.0,5.0,1.0,,,,,gelb,red,r,0.0,r,1.0,0.568279099999927,,,,,,,,,,,,,,1.0,5.0,17.0,8.0,,,,,177.88392880000174,,,,,,,,,,,,,,,,,177.86864869995043,179.06675409997115,179.86676129995612,179.8508426999906,,,,,,,,,,,,,,,,179.85334839997813,179.86676129995612,179.86676129995612,180.4513927999651,r,1.0,0.568279099999927,,180.45198989997152,180.46658019995084,181.44979149999563,181.4662074999651,,,,,,,,,,,,,,,,,,,sub-097,1,stroop_test,60.03629795654749,
,,,,18.0,6.0,1.0,,,,,gelb,yellow,g,1.0,g,1.0,0.892446200014092,,,,,,,,,,,,,,1.0,6.0,18.0,11.0,,,,,181.4662074999651,,,,,,,,,,,,,,,,,181.45004659995905,182.6661894999561,183.4653410000028,183.4507695999928,,,,,,,,,,,,,,,,183.45113419997503,183.4653410000028,183.4653410000028,184.36681969999336,g,1.0,0.892446200014092,,184.36724579997824,184.383210400003,185.3823529999936,,,,,,,,,,,,,,,,,,,,sub-097,1,stroop_test,60.03629795654749,
,,,,19.0,7.0,1.0,,,,,blau,yellow,g,0.0,g,1.0,0.5768297999748029,,,,,,,,,,,,,,1.0,7.0,19.0,7.0,,,,,185.39974789996631,,,,,,,,,,,,,,,,,185.38263409998035,186.182470300002,186.9823419000022,186.9661172999768,,,,,,,,,,,,,,,,186.9690746999695,186.9823419000022,186.9823419000022,187.56683119997612,g,1.0,0.5768297999748029,,187.56721639999887,187.58246839995263,188.5816480999929,,,,,,,,,,,,,,,,,,,,sub-097,1,stroop_test,60.03629795654749,
,,,,20.0,8.0,1.0,,,,,rot,red,r,1.0,r,1.0,0.59165600000415,,,,,,,,,,,,,,1.0,8.0,20.0,1.0,,,,,188.59819319995583,,,,,,,,,,,,,,,,,188.58207979996223,189.78156969998963,190.582331899961,190.5654235999682,,,,,,,,,,,,,,,,190.5689521000022,190.582331899961,190.582331899961,191.18285209999885,r,1.0,0.59165600000415,,191.18337759998397,191.19795679999515,192.18192089995136,192.1982417999534,,,,,,,,,,,,,,,,,,,sub-097,1,stroop_test,60.03629795654749,
,,,,21.0,9.0,1.0,,,,,gelb,yellow,g,1.0,g,1.0,0.4313940999563783,,,,,,,,,,,,,,1.0,9.0,21.0,10.0,,,,,192.1982417999534,,,,,,,,,,,,,,,,,192.18225719995095,192.54900659999112,193.3644802999916,193.3487028999953,,,,,,,,,,,,,,,,193.35142530000303,193.3644802999916,193.3644802999916,193.79940469999565,g,1.0,0.4313940999563783,,193.7997867999948,193.81468529999256,194.7985944999964,194.81549179996364,,,,,,,,,,,,,,,,,,,sub-097,1,stroop_test,60.03629795654749,
,,,,22.0,10.0,1.0,,,,,rot,blue,b,0.0,b,1.0,0.4445040000136941,,,,,,,,,,,,,,1.0,10.0,22.0,2.0,,,,,194.81549179996364,,,,,,,,,,,,,,,,,194.79889079998247,195.1646034999867,195.9642817999702,195.94889780000085,,,,,,,,,,,,,,,,195.95174769998997,195.9642817999702,195.9642817999702,196.4154965999769,b,1.0,0.4445040000136941,,196.4159410999855,196.43115019996185,197.4147312999703,197.43053779995532,,,,,,,,,,,,,,,,,,,sub-097,1,stroop_test,60.03629795654749,
,,,,23.0,11.0,1.0,,,,,blau,blue,b,1.0,b,1.0,0.4071047999896109,,,,,,,,,,,,,,1.0,11.0,23.0,6.0,,,,,197.43053779995532,,,,,,,,,,,,,,,,,197.4150233999826,198.2137023999821,199.01427359995432,198.9982356999535,,,,,,,,,,,,,,,,199.0017561999848,199.01427359995432,199.01427359995432,199.4315334999701,b,1.0,0.4071047999896109,,199.4321750999661,199.44714199996088,200.431821999955,200.44713589997264,,,,,,,,,,,,,,,,,,,sub-097,1,stroop_test,60.03629795654749,
,,,,,,,,,,,,,,,,,,,,,,,,,,,,,,,,,,,,,,,,,,,,,,,,,,,,,,,,,,,,,,,,,,,,,,,,,,,,,,,,,,,,,,,200.43196929997063,200.44713589997264,200.44713589997264,211.0136436999892,space,10.553045899956487,,,,,,,,,,,,,sub-097,1,stroop_test,60.03629795654749,
,,,,0.0,0.0,0.0,,,,,,,,,,,,,gelb,yellow,g,1.0,g,1.0,0.6076076000463217,,,,,,,,,,0.0,0.0,0.0,10.0,211.03565279999748,,,,,,,,,,,,,,,,,211.0297359999968,211.8286073000054,212.6284490999533,212.6124835999799,,,,,,,,,,,,,,,,,,,,,,,,,,,,,,,,,,,212.6150490999571,212.6284490999533,212.6284490999533,213.247009099985,g,1.0,0.6076076000463217,,,,,sub-097,1,stroop_test,60.03629795654749,
,,,,1.0,1.0,0.0,,,,,,,,,,,,,gelb,blue,b,0.0,b,1.0,0.3931131000281311,,,,,,,,,,0.0,1.0,1.0,9.0,213.26180330000352,,,,,,,,,,,,,,,,,213.24735749996037,214.46177029999672,215.26178820000496,215.2456960999989,,,,,,,,,,,,,,,,,,,,,,,,,,,,,,,,,,,215.24609129998132,215.26178820000496,215.26178820000496,215.66275679995303,b,1.0,0.3931131000281311,,,,,sub-097,1,stroop_test,60.03629795654749,
,,,,2.0,2.0,0.0,,,,,,,,,,,,,blau,red,r,0.0,r,1.0,0.3745593999628909,,,,,,,,,,0.0,2.0,2.0,4.0,215.67819529998812,,,,,,,,,,,,,,,,,215.66316459997324,216.8777794999769,217.67771879996872,217.66207540000323,,,,,,,,,,,,,,,,,,,,,,,,,,,,,,,,,,,217.6648529999657,217.67771879996872,217.67771879996872,218.0623612999916,r,1.0,0.3745593999628909,,,,,sub-097,1,stroop_test,60.03629795654749,
,,,,3.0,3.0,0.0,,,,,,,,,,,,,rot,red,r,1.0,r,1.0,0.4488203999935649,,,,,,,,,,0.0,3.0,3.0,0.0,218.0779037000029,,,,,,,,,,,,,,,,,218.0626798999729,219.27746439998737,220.07764989999123,220.06158369994955,,,,,,,,,,,,,,,,,,,,,,,,,,,,,,,,,,,220.06446539994795,220.07764989999123,220.07764989999123,220.52933729998767,r,1.0,0.4488203999935649,,,,,sub-097,1,stroop_test,60.03629795654749,
,,,,4.0,4.0,0.0,,,,,,,,,,,,,blau,blue,b,1.0,b,1.0,0.8272356999805197,,,,,,,,,,0.0,4.0,4.0,6.0,220.54412039997987,,,,,,,,,,,,,,,,,220.52962459996343,220.6446586999809,221.4443867999944,221.4285738999606,,,,,,,,,,,,,,,,,,,,,,,,,,,,,,,,,,,221.43310919997748,221.4443867999944,221.4443867999944,222.2790534999804,b,1.0,0.8272356999805197,,,,,sub-097,1,stroop_test,60.03629795654749,
,,,,5.0,5.0,0.0,,,,,,,,,,,,,blau,blue,b,1.0,b,1.0,0.4977746999938972,,,,,,,,,,0.0,5.0,5.0,5.0,222.2940204999759,,,,,,,,,,,,,,,,,222.27934039995307,223.4949286999763,224.2948258999968,224.2787558999844,,,,,,,,,,,,,,,,,,,,,,,,,,,,,,,,,,,224.2791906999773,224.2948258999968,224.2948258999968,224.79516239999796,b,1.0,0.4977746999938972,,,,,sub-097,1,stroop_test,60.03629795654749,
,,,,6.0,6.0,0.0,,,,,,,,,,,,,gelb,red,r,0.0,r,1.0,0.8193130999570712,,,,,,,,,,0.0,6.0,6.0,8.0,224.81042229995364,,,,,,,,,,,,,,,,,224.79547149996503,225.1436869999743,225.94385209999743,225.9275605999865,,,,,,,,,,,,,,,,,,,,,,,,,,,,,,,,,,,225.93030329997416,225.94385209999743,225.94385209999743,226.77882669999963,r,1.0,0.8193130999570712,,,,,sub-097,1,stroop_test,60.03629795654749,
,,,,7.0,7.0,0.0,,,,,,,,,,,,,rot,red,r,1.0,r,1.0,0.4839570999611169,,,,,,,,,,0.0,7.0,7.0,1.0,226.79450639995048,,,,,,,,,,,,,,,,,226.77940649999076,227.5935623999685,228.3958047999768,228.378084499971,,,,,,,,,,,,,,,,,,,,,,,,,,,,,,,,,,,228.38365739997244,228.3958047999768,228.3958047999768,228.89534009998897,r,1.0,0.4839570999611169,,,,,sub-097,1,stroop_test,60.03629795654749,
,,,,8.0,8.0,0.0,,,,,,,,,,,,,rot,yellow,g,0.0,b,0.0,0.5548679999774322,,,,,,,,,,0.0,8.0,8.0,3.0,228.91028179996647,,,,,,,,,,,,,,,,,228.89588999998523,229.2606646999484,230.07620640000096,230.06017399998385,,,,,,,,,,,,,,,,,,,,,,,,,,,,,,,,,,,230.06080209999345,230.07620640000096,230.07620640000096,230.644927699992,b,0.0,0.5548679999774322,,,,,sub-097,1,stroop_test,60.03629795654749,
,,,,9.0,9.0,0.0,,,,,,,,,,,,,gelb,yellow,g,1.0,b,0.0,0.420302799961064,,,,,,,,,,0.0,9.0,9.0,11.0,230.6598407999845,,,,,,,,,,,,,,,,,230.64521249994868,231.85983959998703,232.6592987999902,232.64362739998612,,,,,,,,,,,,,,,,,,,,,,,,,,,,,,,,,,,232.64654379995773,232.6592987999902,232.6592987999902,233.0940399999963,b,0.0,0.420302799961064,,,,,sub-097,1,stroop_test,60.03629795654749,
,,,,10.0,10.0,0.0,,,,,,,,,,,,,blau,yellow,g,0.0,g,1.0,1.2918654999812134,,,,,,,,,,0.0,10.0,10.0,7.0,233.1100931999972,,,,,,,,,,,,,,,,,233.0943327999557,234.30982490000315,235.10961799998768,235.0933742999914,,,,,,,,,,,,,,,,,,,,,,,,,,,,,,,,,,,235.09665879997192,235.10961799998768,235.10961799998768,236.41069950000383,g,1.0,1.2918654999812134,,,,,sub-097,1,stroop_test,60.03629795654749,
,,,,11.0,11.0,0.0,,,,,,,,,,,,,rot,blue,b,0.0,b,1.0,0.9437083999509924,,,,,,,,,,0.0,11.0,11.0,2.0,236.42579039995329,,,,,,,,,,,,,,,,,236.41096429998288,236.77591749996645,237.57528609997823,237.560025499959,,,,,,,,,,,,,,,,,,,,,,,,,,,,,,,,,,,237.5631009999779,237.57528609997823,237.57528609997823,238.52726109995277,b,1.0,0.9437083999509924,,,,,sub-097,1,stroop_test,60.03629795654749,
,,,,12.0,0.0,1.0,,,,,,,,,,,,,rot,red,r,1.0,r,1.0,0.6161859999992885,,,,,,,,,,1.0,0.0,12.0,0.0,238.54196729999967,,,,,,,,,,,,,,,,,238.5277174999937,239.3416842999868,240.14231440000003,240.1262619000045,,,,,,,,,,,,,,,,,,,,,,,,,,,,,,,,,,,240.12669689999893,240.14231440000003,240.14231440000003,240.7605152999749,r,1.0,0.6161859999992885,,,,,sub-097,1,stroop_test,60.03629795654749,
,,,,13.0,1.0,1.0,,,,,,,,,,,,,blau,red,r,0.0,r,1.0,0.5394337000325322,,,,,,,,,,1.0,1.0,13.0,4.0,240.77592250000453,,,,,,,,,,,,,,,,,240.76079269999173,241.97521809994944,242.7743851999985,242.75827289995505,,,,,,,,,,,,,,,,,,,,,,,,,,,,,,,,,,,242.76161230000437,242.7743851999985,242.7743851999985,243.3264957999927,r,1.0,0.5394337000325322,,,,,sub-097,1,stroop_test,60.03629795654749,
,,,,14.0,2.0,1.0,,,,,,,,,,,,,blau,yellow,g,0.0,g,1.0,0.9775523999705912,,,,,,,,,,1.0,2.0,14.0,7.0,243.34107879997464,,,,,,,,,,,,,,,,,243.3267718999996,244.1247497999575,244.92548719997285,244.9091246000025,,,,,,,,,,,,,,,,,,,,,,,,,,,,,,,,,,,244.9096015999676,244.92548719997285,244.92548719997285,245.9098317999742,g,1.0,0.9775523999705912,,,,,sub-097,1,stroop_test,60.03629795654749,
,,,,15.0,3.0,1.0,,,,,,,,,,,,,blau,blue,b,1.0,b,1.0,0.338844199955929,,,,,,,,,,1.0,3.0,15.0,5.0,245.92508469999305,,,,,,,,,,,,,,,,,245.91016989998752,246.02531189995352,246.82435979996808,246.80883059999903,,,,,,,,,,,,,,,,,,,,,,,,,,,,,,,,,,,246.8091954999836,246.82435979996808,246.82435979996808,247.17617289995545,b,1.0,0.338844199955929,,,,,sub-097,1,stroop_test,60.03629795654749,
,,,,16.0,4.0,1.0,,,,,,,,,,,,,gelb,yellow,g,1.0,g,1.0,0.758010399993509,,,,,,,,,,1.0,4.0,16.0,11.0,247.191986299993,,,,,,,,,,,,,,,,,247.17654329998183,247.2922506000032,248.1082666000002,248.09152269997867,,,,,,,,,,,,,,,,,,,,,,,,,,,,,,,,,,,248.09402609994868,248.1082666000002,248.1082666000002,248.87576599995373,g,1.0,0.758010399993509,,,,,sub-097,1,stroop_test,60.03629795654749,
,,,,17.0,5.0,1.0,,,,,,,,,,,,,gelb,red,r,0.0,r,1.0,0.4454887000028975,,,,,,,,,,1.0,5.0,17.0,8.0,248.89073719998123,,,,,,,,,,,,,,,,,248.8760328999488,248.9907848999719,249.7900577999535,249.77449059998617,,,,,,,,,,,,,,,,,,,,,,,,,,,,,,,,,,,249.7748987999512,249.7900577999535,249.7900577999535,250.2422743999632,r,1.0,0.4454887000028975,,,,,sub-097,1,stroop_test,60.03629795654749,
,,,,18.0,6.0,1.0,,,,,,,,,,,,,rot,red,r,1.0,r,1.0,0.6667895000427961,,,,,,,,,,1.0,6.0,18.0,1.0,250.25807419995544,,,,,,,,,,,,,,,,,250.2425497999648,251.05712189996848,251.8572536999709,251.84165369998664,,,,,,,,,,,,,,,,,,,,,,,,,,,,,,,,,,,251.84505589999023,251.8572536999709,251.8572536999709,252.5254120999598,r,1.0,0.6667895000427961,,,,,sub-097,1,stroop_test,60.03629795654749,
,,,,19.0,7.0,1.0,,,,,,,,,,,,,gelb,yellow,g,1.0,g,1.0,1.1176899999845773,,,,,,,,,,1.0,7.0,19.0,10.0,252.54054919997,,,,,,,,,,,,,,,,,252.5258318999549,252.63981289998628,253.43999119999356,253.4239413999603,,,,,,,,,,,,,,,,,,,,,,,,,,,,,,,,,,,253.42701289994875,253.43999119999356,253.43999119999356,254.57540569995763,g,1.0,1.1176899999845773,,,,,sub-097,1,stroop_test,60.03629795654749,
,,,,20.0,8.0,1.0,,,,,,,,,,,,,blau,blue,b,1.0,b,1.0,0.955287499993574,,,,,,,,,,1.0,8.0,20.0,6.0,254.58992139995095,,,,,,,,,,,,,,,,,254.5756718000048,254.9405228999676,255.73948749998817,255.72400879999623,,,,,,,,,,,,,,,,,,,,,,,,,,,,,,,,,,,255.72690369997872,255.73948749998817,255.73948749998817,256.70842749997973,b,1.0,0.955287499993574,,,,,sub-097,1,stroop_test,60.03629795654749,
,,,,21.0,9.0,1.0,,,,,,,,,,,,,rot,yellow,g,0.0,g,1.0,0.850685799960047,,,,,,,,,,1.0,9.0,21.0,3.0,256.723431899969,,,,,,,,,,,,,,,,,256.7094451999874,257.9231792999781,258.72264389996417,258.7072042999789,,,,,,,,,,,,,,,,,,,,,,,,,,,,,,,,,,,258.7102806000039,258.72264389996417,258.72264389996417,259.57484399998793,g,1.0,0.850685799960047,,,,,sub-097,1,stroop_test,60.03629795654749,
,,,,22.0,10.0,1.0,,,,,,,,,,,,,gelb,blue,b,0.0,b,1.0,1.1516549999942072,,,,,,,,,,1.0,10.0,22.0,9.0,259.588988399948,,,,,,,,,,,,,,,,,259.57537229999434,259.9392986999592,260.7396509999526,260.72315079998225,,,,,,,,,,,,,,,,,,,,,,,,,,,,,,,,,,,260.7259112999891,260.7396509999526,260.7396509999526,261.9073852999718,b,1.0,1.1516549999942072,,,,,sub-097,1,stroop_test,60.03629795654749,
,,,,23.0,11.0,1.0,,,,,,,,,,,,,rot,blue,b,0.0,b,1.0,0.7051799999899231,,,,,,,,,,1.0,11.0,23.0,2.0,261.92245159996673,,,,,,,,,,,,,,,,,261.90774840000086,262.2721719999681,263.0720044999616,263.0565096999635,,,,,,,,,,,,,,,,,,,,,,,,,,,,,,,,,,,263.0594989999663,263.0720044999616,263.0720044999616,263.78986859996803,b,1.0,0.7051799999899231,,,,,sub-097,1,stroop_test,60.03629795654749,
,,,,24.0,0.0,2.0,,,,,,,,,,,,,gelb,red,r,0.0,r,1.0,0.5610490000108257,,,,,,,,,,2.0,0.0,24.0,8.0,263.80522889998974,,,,,,,,,,,,,,,,,263.7905066999956,264.1554535999894,264.9553108999972,264.9393218999612,,,,,,,,,,,,,,,,,,,,,,,,,,,,,,,,,,,264.94322549999924,264.9553108999972,264.9553108999972,265.5233615000034,r,1.0,0.5610490000108257,,,,,sub-097,1,stroop_test,60.03629795654749,
,,,,25.0,1.0,2.0,,,,,,,,,,,,,gelb,blue,b,0.0,b,1.0,0.9683225000044332,,,,,,,,,,2.0,1.0,25.0,9.0,265.5383090999676,,,,,,,,,,,,,,,,,265.5237252999796,266.7392705999664,267.5390192999621,267.522362699965,,,,,,,,,,,,,,,,,,,,,,,,,,,,,,,,,,,267.5228494000039,267.5390192999621,267.5390192999621,268.522908199986,b,1.0,0.9683225000044332,,,,,sub-097,1,stroop_test,60.03629795654749,
,,,,26.0,2.0,2.0,,,,,,,,,,,,,rot,yellow,g,0.0,g,1.0,0.5436846000375226,,,,,,,,,,2.0,2.0,26.0,3.0,268.5377465999918,,,,,,,,,,,,,,,,,268.52333279995946,269.3383762000012,270.13772139995126,270.1218664000044,,,,,,,,,,,,,,,,,,,,,,,,,,,,,,,,,,,270.1254100999795,270.13772139995126,270.13772139995126,270.68980749999173,g,1.0,0.5436846000375226,,,,,sub-097,1,stroop_test,60.03629795654749,
,,,,27.0,3.0,2.0,,,,,,,,,,,,,blau,blue,b,1.0,b,1.0,0.6327543000224978,,,,,,,,,,2.0,3.0,27.0,6.0,270.7047282999847,,,,,,,,,,,,,,,,,270.69014249998145,271.5049033999676,272.3038905999856,272.2881330999662,,,,,,,,,,,,,,,,,,,,,,,,,,,,,,,,,,,272.2912880999502,272.3038905999856,272.3038905999856,272.9390246999683,b,1.0,0.6327543000224978,,,,,sub-097,1,stroop_test,60.03629795654749,
,,,,28.0,4.0,2.0,,,,,,,,,,,,,gelb,yellow,g,1.0,b,0.0,1.0263342000544071,,,,,,,,,,2.0,4.0,28.0,10.0,272.95380069996463,,,,,,,,,,,,,,,,,272.9400292999926,274.15391409996664,274.95484849996865,274.93792239995673,,,,,,,,,,,,,,,,,,,,,,,,,,,,,,,,,,,274.943981599994,274.95484849996865,274.95484849996865,275.9883114999975,b,0.0,1.0263342000544071,,,,,sub-097,1,stroop_test,60.03629795654749,
,,,,29.0,5.0,2.0,,,,,,,,,,,,,rot,blue,b,0.0,b,1.0,1.393433500023093,,,,,,,,,,2.0,5.0,29.0,2.0,276.0040777999675,,,,,,,,,,,,,,,,,275.9885743999621,276.35353099997155,277.1532295999932,277.13772199995583,,,,,,,,,,,,,,,,,,,,,,,,,,,,,,,,,,,277.141172499978,277.1532295999932,277.1532295999932,278.5546703999862,b,1.0,1.393433500023093,,,,,sub-097,1,stroop_test,60.03629795654749,
,,,,30.0,6.0,2.0,,,,,,,,,,,,,blau,red,r,0.0,r,1.0,0.6095682000159286,,,,,,,,,,2.0,6.0,30.0,4.0,278.5702112999861,,,,,,,,,,,,,,,,,278.5549660999677,278.9043136999826,279.71995810000226,279.7043446999742,,,,,,,,,,,,,,,,,,,,,,,,,,,,,,,,,,,279.7074202999938,279.71995810000226,279.71995810000226,280.3374205,r,1.0,0.6095682000159286,,,,,sub-097,1,stroop_test,60.03629795654749,
,,,,31.0,7.0,2.0,,,,,,,,,,,,,gelb,yellow,g,1.0,g,1.0,0.7085931000183336,,,,,,,,,,2.0,7.0,31.0,11.0,280.3540868999553,,,,,,,,,,,,,,,,,280.3376886000042,281.553437799972,282.35405779996654,282.3376874999958,,,,,,,,,,,,,,,,,,,,,,,,,,,,,,,,,,,282.34107689996017,282.35405779996654,282.35405779996654,283.0710785999545,g,1.0,0.7085931000183336,,,,,sub-097,1,stroop_test,60.03629795654749,
,,,,32.0,8.0,2.0,,,,,,,,,,,,,blau,blue,b,1.0,b,1.0,0.6383686999906786,,,,,,,,,,2.0,8.0,32.0,5.0,283.0866315999883,,,,,,,,,,,,,,,,,283.07156670000404,284.285677399952,285.0874579999945,285.0699400999584,,,,,,,,,,,,,,,,,,,,,,,,,,,,,,,,,,,285.0760779999546,285.0874579999945,285.0874579999945,285.7374522999744,b,1.0,0.6383686999906786,,,,,sub-097,1,stroop_test,60.03629795654749,
,,,,33.0,9.0,2.0,,,,,,,,,,,,,rot,red,r,1.0,r,1.0,0.5508458000258543,,,,,,,,,,2.0,9.0,33.0,0.0,285.7530448999605,,,,,,,,,,,,,,,,,285.7377539000008,285.8365338000003,286.6360688999994,286.61963899998227,,,,,,,,,,,,,,,,,,,,,,,,,,,,,,,,,,,286.62437609996414,286.6360688999994,286.6360688999994,287.20443169999635,r,1.0,0.5508458000258543,,,,,sub-097,1,stroop_test,60.03629795654749,
,,,,34.0,10.0,2.0,,,,,,,,,,,,,blau,yellow,g,0.0,g,1.0,1.0735582999768667,,,,,,,,,,2.0,10.0,34.0,7.0,287.21921219996875,,,,,,,,,,,,,,,,,287.20491369999945,288.0187620999641,288.8185952999629,288.8037327999482,,,,,,,,,,,,,,,,,,,,,,,,,,,,,,,,,,,288.80673519999254,288.8185952999629,288.8185952999629,289.90327499998966,g,1.0,1.0735582999768667,,,,,sub-097,1,stroop_test,60.03629795654749,
,,,,35.0,11.0,2.0,,,,,,,,,,,,,rot,red,r,1.0,r,1.0,0.5050537000061013,,,,,,,,,,2.0,11.0,35.0,1.0,289.91922079998767,,,,,,,,,,,,,,,,,289.9036161999684,290.0187356999959,290.8190024999785,290.80241389997536,,,,,,,,,,,,,,,,,,,,,,,,,,,,,,,,,,,290.8055106999818,290.8190024999785,290.8190024999785,291.3365560999955,r,1.0,0.5050537000061013,,,,,sub-097,1,stroop_test,60.03629795654749,
,,,,36.0,0.0,3.0,,,,,,,,,,,,,rot,blue,b,0.0,b,1.0,0.7488754000514746,,,,,,,,,,3.0,0.0,36.0,2.0,291.3522741000052,,,,,,,,,,,,,,,,,291.3369377999916,292.5516485999688,293.3512650000048,293.3362890999997,,,,,,,,,,,,,,,,,,,,,,,,,,,,,,,,,,,293.33674149995204,293.3512650000048,293.3512650000048,294.10308809997514,b,1.0,0.7488754000514746,,,,,sub-097,1,stroop_test,60.03629795654749,
,,,,37.0,1.0,3.0,,,,,,,,,,,,,rot,red,r,1.0,r,1.0,0.8376488999929279,,,,,,,,,,3.0,1.0,37.0,0.0,294.11806939996313,,,,,,,,,,,,,,,,,294.1034400999779,295.3179318999755,296.11830759997247,296.1028059999808,,,,,,,,,,,,,,,,,,,,,,,,,,,,,,,,,,,296.10322180000367,296.11830759997247,296.11830759997247,296.9688381999731,r,1.0,0.8376488999929279,,,,,sub-097,1,stroop_test,60.03629795654749,
,,,,38.0,2.0,3.0,,,,,,,,,,,,,blau,blue,b,1.0,b,1.0,0.6669265999807976,,,,,,,,,,3.0,2.0,38.0,6.0,296.98562399996445,,,,,,,,,,,,,,,,,296.96911289996933,298.1675078999833,298.9679447999806,298.95202139997855,,,,,,,,,,,,,,,,,,,,,,,,,,,,,,,,,,,298.9550028999802,298.9679447999806,298.9679447999806,299.6362278999877,b,1.0,0.6669265999807976,,,,,sub-097,1,stroop_test,60.03629795654749,
,,,,39.0,3.0,3.0,,,,,,,,,,,,,rot,yellow,g,0.0,g,1.0,0.6394670000299811,,,,,,,,,,3.0,3.0,39.0,3.0,299.65133349999087,,,,,,,,,,,,,,,,,299.63652529998217,300.4512126999907,301.2508962999564,301.2346510999487,,,,,,,,,,,,,,,,,,,,,,,,,,,,,,,,,,,301.2381024999777,301.2508962999564,301.2508962999564,301.90275189996464,g,1.0,0.6394670000299811,,,,,sub-097,1,stroop_test,60.03629795654749,
,,,,40.0,4.0,3.0,,,,,,,,,,,,,gelb,yellow,g,1.0,g,1.0,0.5820029000169598,,,,,,,,,,3.0,4.0,40.0,10.0,301.9169280999922,,,,,,,,,,,,,,,,,301.90307169995504,303.1173359999666,303.9173524999642,303.9018381999922,,,,,,,,,,,,,,,,,,,,,,,,,,,,,,,,,,,303.9050152999698,303.9173524999642,303.9173524999642,304.50226419995306,g,1.0,0.5820029000169598,,,,,sub-097,1,stroop_test,60.03629795654749,
,,,,41.0,5.0,3.0,,,,,,,,,,,,,rot,red,r,1.0,r,1.0,0.4893917000154033,,,,,,,,,,3.0,5.0,41.0,1.0,304.5173697999562,,,,,,,,,,,,,,,,,304.5027075999533,304.86676899995655,305.66789879999124,305.65232939994894,,,,,,,,,,,,,,,,,,,,,,,,,,,,,,,,,,,305.65803819999564,305.66789879999124,305.66789879999124,306.1687523999717,r,1.0,0.4893917000154033,,,,,sub-097,1,stroop_test,60.03629795654749,
,,,,42.0,6.0,3.0,,,,,,,,,,,,,blau,yellow,g,0.0,g,1.0,1.0388731000130065,,,,,,,,,,3.0,6.0,42.0,7.0,306.1835259999498,,,,,,,,,,,,,,,,,306.1690703999484,306.5336754999589,307.33461859996896,307.31754369998816,,,,,,,,,,,,,,,,,,,,,,,,,,,,,,,,,,,307.32329619996017,307.33461859996896,307.33461859996896,308.38483949995134,g,1.0,1.0388731000130065,,,,,sub-097,1,stroop_test,60.03629795654749,
,,,,43.0,7.0,3.0,,,,,,,,,,,,,blau,blue,b,1.0,b,1.0,0.38024069997482,,,,,,,,,,3.0,7.0,43.0,5.0,308.3996107999701,,,,,,,,,,,,,,,,,308.38514450000366,309.5995912999497,310.4005269999616,310.3844706999953,,,,,,,,,,,,,,,,,,,,,,,,,,,,,,,,,,,310.38515439996263,310.4005269999616,310.4005269999616,310.7844883999787,b,1.0,0.38024069997482,,,,,sub-097,1,stroop_test,60.03629795654749,
,,,,44.0,8.0,3.0,,,,,,,,,,,,,gelb,red,r,0.0,r,1.0,0.5615385000128299,,,,,,,,,,3.0,8.0,44.0,8.0,310.7993131999974,,,,,,,,,,,,,,,,,310.7847932999721,311.59972019999987,312.3988573999959,312.38320049998583,,,,,,,,,,,,,,,,,,,,,,,,,,,,,,,,,,,312.3857358999667,312.3988573999959,312.3988573999959,312.96687309996923,r,1.0,0.5615385000128299,,,,,sub-097,1,stroop_test,60.03629795654749,
,,,,45.0,9.0,3.0,,,,,,,,,,,,,gelb,yellow,g,1.0,g,1.0,1.1049402999924496,,,,,,,,,,3.0,9.0,45.0,11.0,312.9823583999532,,,,,,,,,,,,,,,,,312.9671976999962,313.7827228999813,314.5822594999918,314.56620509998174,,,,,,,,,,,,,,,,,,,,,,,,,,,,,,,,,,,314.5666119999951,314.5822594999918,314.5822594999918,315.7005342999473,g,1.0,1.1049402999924496,,,,,sub-097,1,stroop_test,60.03629795654749,
,,,,46.0,10.0,3.0,,,,,,,,,,,,,gelb,blue,b,0.0,b,1.0,0.3573185999994166,,,,,,,,,,3.0,10.0,46.0,9.0,315.7170648999745,,,,,,,,,,,,,,,,,315.7007985999808,315.8153019999736,316.6152613000013,316.599571299972,,,,,,,,,,,,,,,,,,,,,,,,,,,,,,,,,,,316.59999759995844,316.6152613000013,316.6152613000013,316.98314229998505,b,1.0,0.3573185999994166,,,,,sub-097,1,stroop_test,60.03629795654749,
,,,,47.0,11.0,3.0,,,,,,,,,,,,,blau,red,r,0.0,r,1.0,0.5037417999701574,,,,,,,,,,3.0,11.0,47.0,4.0,316.99845529999584,,,,,,,,,,,,,,,,,316.9834849999752,317.3324923999608,318.1322183999582,318.1163827999844,,,,,,,,,,,,,,,,,,,,,,,,,,,,,,,,,,,318.11987969995243,318.1322183999582,318.1322183999582,318.65010249998886,r,1.0,0.5037417999701574,,,,,sub-097,1,stroop_test,60.03629795654749,
,,,,48.0,0.0,4.0,,,,,,,,,,,,,gelb,yellow,g,1.0,g,1.0,1.049475900013931,,,,,,,,,,4.0,0.0,48.0,10.0,318.6647709999816,,,,,,,,,,,,,,,,,318.65057659999,319.864865099953,320.66529829998035,320.64863239997067,,,,,,,,,,,,,,,,,,,,,,,,,,,,,,,,,,,320.6520679999958,320.66529829998035,320.66529829998035,321.7164224999724,g,1.0,1.049475900013931,,,,,sub-097,1,stroop_test,60.03629795654749,
,,,,49.0,1.0,4.0,,,,,,,,,,,,,rot,blue,b,0.0,b,1.0,0.507625000027474,,,,,,,,,,4.0,1.0,49.0,2.0,321.73140930000227,,,,,,,,,,,,,,,,,321.7167020999477,322.9309750999673,323.7312068999745,323.71475980000105,,,,,,,,,,,,,,,,,,,,,,,,,,,,,,,,,,,323.7179998999927,323.7312068999745,323.7312068999745,324.2487952999654,b,1.0,0.507625000027474,,,,,sub-097,1,stroop_test,60.03629795654749,
,,,,50.0,2.0,4.0,,,,,,,,,,,,,gelb,red,r,0.0,r,1.0,0.4432241000467911,,,,,,,,,,4.0,2.0,50.0,8.0,324.26474239997333,,,,,,,,,,,,,,,,,324.2491217999486,324.6138165000011,325.4144104999723,325.399289199966,,,,,,,,,,,,,,,,,,,,,,,,,,,,,,,,,,,325.4021224000025,325.4144104999723,325.4144104999723,325.86540839995723,r,1.0,0.4432241000467911,,,,,sub-097,1,stroop_test,60.03629795654749,
,,,,51.0,3.0,4.0,,,,,,,,,,,,,rot,red,r,1.0,r,1.0,0.4150945000001229,,,,,,,,,,4.0,3.0,51.0,1.0,325.8809424999636,,,,,,,,,,,,,,,,,325.8657238999731,325.98034419998294,326.78113939997274,326.7649191999808,,,,,,,,,,,,,,,,,,,,,,,,,,,,,,,,,,,326.7697394999559,326.78113939997274,326.78113939997274,327.1984587999759,r,1.0,0.4150945000001229,,,,,sub-097,1,stroop_test,60.03629795654749,
,,,,52.0,4.0,4.0,,,,,,,,,,,,,blau,blue,b,1.0,b,1.0,0.756291700003203,,,,,,,,,,4.0,4.0,52.0,6.0,327.21446459996514,,,,,,,,,,,,,,,,,327.1988186999806,328.4141594999819,329.21395899995696,329.1981357999612,,,,,,,,,,,,,,,,,,,,,,,,,,,,,,,,,,,329.2015903999564,329.21395899995696,329.21395899995696,329.98178809997626,b,1.0,0.756291700003203,,,,,sub-097,1,stroop_test,60.03629795654749,
,,,,53.0,5.0,4.0,,,,,,,,,,,,,blau,blue,b,1.0,b,1.0,0.5099712999654002,,,,,,,,,,4.0,5.0,53.0,5.0,329.9974339999608,,,,,,,,,,,,,,,,,329.9821127000032,330.0967234999989,330.8966843999806,330.88141809997614,,,,,,,,,,,,,,,,,,,,,,,,,,,,,,,,,,,330.8820210999693,330.8966843999806,330.8966843999806,331.4151206999668,b,1.0,0.5099712999654002,,,,,sub-097,1,stroop_test,60.03629795654749,
,,,,54.0,6.0,4.0,,,,,,,,,,,,,blau,red,r,0.0,r,1.0,1.267331999959424,,,,,,,,,,4.0,6.0,54.0,4.0,331.4303797999746,,,,,,,,,,,,,,,,,331.4154479999561,332.22986909997417,333.0297444000025,333.01366189995315,,,,,,,,,,,,,,,,,,,,,,,,,,,,,,,,,,,333.0140868999879,333.0297444000025,333.0297444000025,334.3144564999966,r,1.0,1.267331999959424,,,,,sub-097,1,stroop_test,60.03629795654749,
,,,,55.0,7.0,4.0,,,,,,,,,,,,,blau,yellow,g,0.0,g,1.0,0.5666073000174947,,,,,,,,,,4.0,7.0,55.0,7.0,334.33023659995524,,,,,,,,,,,,,,,,,334.3149523999891,335.52973579999525,336.32885160000296,336.3129132000031,,,,,,,,,,,,,,,,,,,,,,,,,,,,,,,,,,,336.3133610999794,336.32885160000296,336.32885160000296,336.8980288999737,g,1.0,0.5666073000174947,,,,,sub-097,1,stroop_test,60.03629795654749,
,,,,56.0,8.0,4.0,,,,,,,,,,,,,rot,yellow,g,0.0,g,1.0,0.5654135000077076,,,,,,,,,,4.0,8.0,56.0,3.0,336.91286629997194,,,,,,,,,,,,,,,,,336.8983668999863,337.71286639996106,338.5138630999718,338.49712259997614,,,,,,,,,,,,,,,,,,,,,,,,,,,,,,,,,,,338.50284639996244,338.5138630999718,338.5138630999718,339.08099359995686,g,1.0,0.5654135000077076,,,,,sub-097,1,stroop_test,60.03629795654749,
,,,,57.0,9.0,4.0,,,,,,,,,,,,,rot,red,r,1.0,r,1.0,0.5671820999705233,,,,,,,,,,4.0,9.0,57.0,0.0,339.0958096999675,,,,,,,,,,,,,,,,,339.08131239999784,340.29565009998623,341.09516279998934,341.0799996999558,,,,,,,,,,,,,,,,,,,,,,,,,,,,,,,,,,,341.08048339997185,341.09516279998934,341.09516279998934,341.66410789999645,r,1.0,0.5671820999705233,,,,,sub-097,1,stroop_test,60.03629795654749,
,,,,58.0,10.0,4.0,,,,,,,,,,,,,gelb,blue,b,0.0,b,1.0,0.7329353000386618,,,,,,,,,,4.0,10.0,58.0,9.0,341.67851949995384,,,,,,,,,,,,,,,,,341.6647167999763,341.7783436999889,342.57855899998685,342.5629110999871,,,,,,,,,,,,,,,,,,,,,,,,,,,,,,,,,,,342.56565269996645,342.57855899998685,342.57855899998685,343.31369129999075,b,1.0,0.7329353000386618,,,,,sub-097,1,stroop_test,60.03629795654749,
,,,,59.0,11.0,4.0,,,,,,,,,,,,,gelb,yellow,g,1.0,g,1.0,0.5385654999990948,,,,,,,,,,4.0,11.0,59.0,11.0,343.3292750999681,,,,,,,,,,,,,,,,,343.314120199997,343.6784983999678,344.47857519995887,344.4625984999584,,,,,,,,,,,,,,,,,,,,,,,,,,,,,,,,,,,344.4630563999526,344.47857519995887,344.47857519995887,345.03075409994926,g,1.0,0.5385654999990948,,,,,sub-097,1,stroop_test,60.03629795654749,
,,,,60.0,0.0,5.0,,,,,,,,,,,,,blau,blue,b,1.0,b,1.0,0.3642502999864518,,,,,,,,,,5.0,0.0,60.0,6.0,345.04460609995294,,,,,,,,,,,,,,,,,345.0311402999796,346.24574639997445,347.0449797000037,347.02942559996154,,,,,,,,,,,,,,,,,,,,,,,,,,,,,,,,,,,347.0327267999528,347.0449797000037,347.0449797000037,347.4131742999889,b,1.0,0.3642502999864518,,,,,sub-097,1,stroop_test,60.03629795654749,
,,,,61.0,1.0,5.0,,,,,,,,,,,,,rot,red,r,1.0,r,1.0,0.460634300019592,,,,,,,,,,5.0,1.0,61.0,0.0,347.4288988999906,,,,,,,,,,,,,,,,,347.4136709999875,347.7784595999983,348.5776630999753,348.5618138999562,,,,,,,,,,,,,,,,,,,,,,,,,,,,,,,,,,,348.56507909996435,348.5776630999753,348.5776630999753,349.046959899948,r,1.0,0.460634300019592,,,,,sub-097,1,stroop_test,60.03629795654749,
,,,,62.0,2.0,5.0,,,,,,,,,,,,,rot,blue,b,0.0,b,1.0,0.601906500000041,,,,,,,,,,5.0,2.0,62.0,2.0,349.0620401999913,,,,,,,,,,,,,,,,,349.0476667999756,350.26188629999524,351.0774275999865,351.0613648999715,,,,,,,,,,,,,,,,,,,,,,,,,,,,,,,,,,,351.0617893000017,351.0774275999865,351.0774275999865,351.6951470999629,b,1.0,0.601906500000041,,,,,sub-097,1,stroop_test,60.03629795654749,
,,,,63.0,3.0,5.0,,,,,,,,,,,,,blau,yellow,g,0.0,g,1.0,0.4326565000228584,,,,,,,,,,5.0,3.0,63.0,7.0,351.7110446000006,,,,,,,,,,,,,,,,,351.69553099997574,351.8108741999604,352.61174579994986,352.5953085999936,,,,,,,,,,,,,,,,,,,,,,,,,,,,,,,,,,,352.6000659999554,352.61174579994986,352.61174579994986,353.0458087999723,g,1.0,0.4326565000228584,,,,,sub-097,1,stroop_test,60.03629795654749,
,,,,64.0,4.0,5.0,,,,,,,,,,,,,rot,yellow,g,0.0,g,1.0,0.9152024000068196,,,,,,,,,,5.0,4.0,64.0,3.0,353.06158789998153,,,,,,,,,,,,,,,,,353.0462827999727,354.26019010000164,355.0612793999608,355.04506789997686,,,,,,,,,,,,,,,,,,,,,,,,,,,,,,,,,,,355.05007579998346,355.0612793999608,355.0612793999608,355.97829639998963,g,1.0,0.9152024000068196,,,,,sub-097,1,stroop_test,60.03629795654749,
,,,,65.0,5.0,5.0,,,,,,,,,,,,,blau,red,r,0.0,r,1.0,0.459919000044465,,,,,,,,,,5.0,5.0,65.0,4.0,355.99401819997,,,,,,,,,,,,,,,,,355.9786148999701,356.7934200000018,357.5933845999534,357.5774990999489,,,,,,,,,,,,,,,,,,,,,,,,,,,,,,,,,,,357.580657399958,357.5933845999534,357.5933845999534,358.0614699999569,r,1.0,0.459919000044465,,,,,sub-097,1,stroop_test,60.03629795654749,
,,,,66.0,6.0,5.0,,,,,,,,,,,,,rot,red,r,1.0,r,1.0,0.655294900003355,,,,,,,,,,5.0,6.0,66.0,1.0,358.0768895999645,,,,,,,,,,,,,,,,,358.061991799972,358.1763032999588,358.97629329998745,358.960525100003,,,,,,,,,,,,,,,,,,,,,,,,,,,,,,,,,,,358.9637257999857,358.97629329998745,358.97629329998745,359.6442565000034,r,1.0,0.655294900003355,,,,,sub-097,1,stroop_test,60.03629795654749,
,,,,67.0,7.0,5.0,,,,,,,,,,,,,blau,blue,b,1.0,b,1.0,0.475905800005421,,,,,,,,,,5.0,7.0,67.0,5.0,359.6595934999641,,,,,,,,,,,,,,,,,359.6445779999485,359.99271049996605,360.7932121999911,360.7770494999713,,,,,,,,,,,,,,,,,,,,,,,,,,,,,,,,,,,360.7805056999787,360.7932121999911,360.7932121999911,361.2774107999867,b,1.0,0.475905800005421,,,,,sub-097,1,stroop_test,60.03629795654749,
,,,,68.0,8.0,5.0,,,,,,,,,,,,,gelb,blue,b,0.0,b,1.0,0.6640571999596432,,,,,,,,,,5.0,8.0,68.0,9.0,361.2928434999776,,,,,,,,,,,,,,,,,361.2777647000039,362.47607259999495,363.2777493000031,363.2611094999593,,,,,,,,,,,,,,,,,,,,,,,,,,,,,,,,,,,363.2664291999536,363.2777493000031,363.2777493000031,363.944491799979,b,1.0,0.6640571999596432,,,,,sub-097,1,stroop_test,60.03629795654749,
,,,,69.0,9.0,5.0,,,,,,,,,,,,,gelb,red,r,0.0,r,1.0,0.7117417000117712,,,,,,,,,,5.0,9.0,69.0,8.0,363.9593641999527,,,,,,,,,,,,,,,,,363.9449280999834,364.30878199997824,365.1087547999923,365.0937957999995,,,,,,,,,,,,,,,,,,,,,,,,,,,,,,,,,,,365.09414929995546,365.1087547999923,365.1087547999923,365.8268930999912,r,1.0,0.7117417000117712,,,,,sub-097,1,stroop_test,60.03629795654749,
,,,,70.0,10.0,5.0,,,,,,,,,,,,,gelb,yellow,g,1.0,g,1.0,0.8189451000071131,,,,,,,,,,5.0,10.0,70.0,11.0,365.8426780999871,,,,,,,,,,,,,,,,,365.8271656999714,367.0417536000023,367.8419078000006,367.8260502999765,,,,,,,,,,,,,,,,,,,,,,,,,,,,,,,,,,,367.82644079998136,367.8419078000006,367.8419078000006,368.6765491999686,g,1.0,0.8189451000071131,,,,,sub-097,1,stroop_test,60.03629795654749,
,,,,71.0,11.0,5.0,,,,,,,,,,,,,gelb,yellow,g,1.0,g,1.0,0.4291027999715879,,,,,,,,,,5.0,11.0,71.0,10.0,368.6920032999478,,,,,,,,,,,,,,,,,368.6769136999501,369.8918561000028,370.6919705999899,370.6759523999645,,,,,,,,,,,,,,,,,,,,,,,,,,,,,,,,,,,370.6766579999821,370.6919705999899,370.6919705999899,371.12665799999377,g,1.0,0.4291027999715879,,,,,sub-097,1,stroop_test,60.03629795654749,
,,,,72.0,0.0,6.0,,,,,,,,,,,,,rot,red,r,1.0,r,1.0,0.7101461000274867,,,,,,,,,,6.0,0.0,72.0,1.0,371.1422470999533,,,,,,,,,,,,,,,,,371.1269977999618,371.49121579999337,372.291715899948,372.27621449995786,,,,,,,,,,,,,,,,,,,,,,,,,,,,,,,,,,,372.2799141999567,372.291715899948,372.291715899948,373.0096379999886,r,1.0,0.7101461000274867,,,,,sub-097,1,stroop_test,60.03629795654749,
,,,,73.0,1.0,6.0,,,,,,,,,,,,,gelb,yellow,g,1.0,g,1.0,0.693149300001096,,,,,,,,,,6.0,1.0,73.0,11.0,373.02419309999095,,,,,,,,,,,,,,,,,373.009905599989,373.8247358999797,374.6242684999597,374.6084546999773,,,,,,,,,,,,,,,,,,,,,,,,,,,,,,,,,,,374.6111520999693,374.6242684999597,374.6242684999597,375.3263382999576,g,1.0,0.693149300001096,,,,,sub-097,1,stroop_test,60.03629795654749,
,,,,74.0,2.0,6.0,,,,,,,,,,,,,rot,yellow,g,0.0,g,1.0,0.641060900001321,,,,,,,,,,6.0,2.0,74.0,3.0,375.3408473999589,,,,,,,,,,,,,,,,,375.3266274000053,375.6908993999823,376.4905255999765,376.47549479996087,,,,,,,,,,,,,,,,,,,,,,,,,,,,,,,,,,,376.4787952000042,376.4905255999765,376.4905255999765,377.1418909999775,g,1.0,0.641060900001321,,,,,sub-097,1,stroop_test,60.03629795654749,
,,,,75.0,3.0,6.0,,,,,,,,,,,,,gelb,yellow,g,1.0,g,1.0,0.53120750002563,,,,,,,,,,6.0,3.0,75.0,10.0,377.1576801000047,,,,,,,,,,,,,,,,,377.14224989997456,378.3403489000048,379.140772099956,379.12444409995805,,,,,,,,,,,,,,,,,,,,,,,,,,,,,,,,,,,379.12700109998696,379.140772099956,379.140772099956,379.6752262999653,g,1.0,0.53120750002563,,,,,sub-097,1,stroop_test,60.03629795654749,
,,,,76.0,4.0,6.0,,,,,,,,,,,,,blau,blue,b,1.0,b,1.0,0.5152397999772802,,,,,,,,,,6.0,4.0,76.0,5.0,379.6912434999831,,,,,,,,,,,,,,,,,379.6756220999523,380.0403081999975,380.840567199979,380.82408819999546,,,,,,,,,,,,,,,,,,,,,,,,,,,,,,,,,,,380.8271386999986,380.840567199979,380.840567199979,381.3583432000014,b,1.0,0.5152397999772802,,,,,sub-097,1,stroop_test,60.03629795654749,
,,,,77.0,5.0,6.0,,,,,,,,,,,,,gelb,blue,b,0.0,b,1.0,0.3899448000011034,,,,,,,,,,6.0,5.0,77.0,9.0,381.37408399995184,,,,,,,,,,,,,,,,,381.3587765999837,382.17313069995726,382.9736813000054,382.958135999972,,,,,,,,,,,,,,,,,,,,,,,,,,,,,,,,,,,382.9605947999517,382.9736813000054,382.9736813000054,383.37374319997616,b,1.0,0.3899448000011034,,,,,sub-097,1,stroop_test,60.03629795654749,
,,,,78.0,6.0,6.0,,,,,,,,,,,,,rot,blue,b,0.0,b,1.0,0.3871743999770842,,,,,,,,,,6.0,6.0,78.0,2.0,383.3893018999952,,,,,,,,,,,,,,,,,383.37408239999786,383.47337769996375,384.27344049996464,384.25721259997226,,,,,,,,,,,,,,,,,,,,,,,,,,,,,,,,,,,384.26025649998337,384.27344049996464,384.27344049996464,384.67402589996345,b,1.0,0.3871743999770842,,,,,sub-097,1,stroop_test,60.03629795654749,
,,,,79.0,7.0,6.0,,,,,,,,,,,,,rot,red,r,1.0,r,1.0,0.4336526999832131,,,,,,,,,,6.0,7.0,79.0,0.0,384.689624199993,,,,,,,,,,,,,,,,,384.67432910000207,385.0400999999838,385.8397808999871,385.8238294000039,,,,,,,,,,,,,,,,,,,,,,,,,,,,,,,,,,,385.8242683999706,385.8397808999871,385.8397808999871,386.275443099963,r,1.0,0.4336526999832131,,,,,sub-097,1,stroop_test,60.03629795654749,
,,,,80.0,8.0,6.0,,,,,,,,,,,,,blau,red,r,0.0,r,1.0,0.5938640999956988,,,,,,,,,,6.0,8.0,80.0,4.0,386.29004939994775,,,,,,,,,,,,,,,,,386.27570379996905,386.3900200999924,387.1895417999476,387.1735114000039,,,,,,,,,,,,,,,,,,,,,,,,,,,,,,,,,,,387.17836629995145,387.1895417999476,387.1895417999476,387.7905112999724,r,1.0,0.5938640999956988,,,,,sub-097,1,stroop_test,60.03629795654749,
,,,,81.0,9.0,6.0,,,,,,,,,,,,,blau,blue,b,1.0,b,1.0,1.0871868000249378,,,,,,,,,,6.0,9.0,81.0,6.0,387.80637999996543,,,,,,,,,,,,,,,,,387.7908916999586,388.5901438999572,389.38990919996286,389.3737999000005,,,,,,,,,,,,,,,,,,,,,,,,,,,,,,,,,,,389.3745844999794,389.38990919996286,389.38990919996286,390.4901175999548,b,1.0,1.0871868000249378,,,,,sub-097,1,stroop_test,60.03629795654749,
,,,,82.0,10.0,6.0,,,,,,,,,,,,,blau,yellow,g,0.0,g,1.0,0.5411319000413641,,,,,,,,,,6.0,10.0,82.0,7.0,390.5054626999772,,,,,,,,,,,,,,,,,390.4904563999735,390.8394598999876,391.6392046999536,391.62350960000185,,,,,,,,,,,,,,,,,,,,,,,,,,,,,,,,,,,391.6239271999802,391.6392046999536,391.6392046999536,392.1903550999705,g,1.0,0.5411319000413641,,,,,sub-097,1,stroop_test,60.03629795654749,
,,,,83.0,11.0,6.0,,,,,,,,,,,,,gelb,red,r,0.0,r,1.0,0.6100169999990612,,,,,,,,,,6.0,11.0,83.0,8.0,392.2058327999548,,,,,,,,,,,,,,,,,392.1906583999517,392.2893380000023,393.0885022999719,393.07262229995104,,,,,,,,,,,,,,,,,,,,,,,,,,,,,,,,,,,393.07561209995765,393.0885022999719,393.0885022999719,393.70667039998807,r,1.0,0.6100169999990612,,,,,sub-097,1,stroop_test,60.03629795654749,
,,,,84.0,0.0,7.0,,,,,,,,,,,,,gelb,yellow,g,1.0,g,1.0,0.6385943999630399,,,,,,,,,,7.0,0.0,84.0,11.0,393.7223435999477,,,,,,,,,,,,,,,,,393.7071564999642,393.8219811999588,394.6223938000039,394.6068593999953,,,,,,,,,,,,,,,,,,,,,,,,,,,,,,,,,,,394.6072471999796,394.6223938000039,394.6223938000039,395.2729346999549,g,1.0,0.6385943999630399,,,,,sub-097,1,stroop_test,60.03629795654749,
,,,,85.0,1.0,7.0,,,,,,,,,,,,,gelb,blue,b,0.0,b,1.0,0.421909200027585,,,,,,,,,,7.0,1.0,85.0,9.0,395.2886133999564,,,,,,,,,,,,,,,,,395.2732899999828,396.4880530999508,397.2881571999751,397.2719175999519,,,,,,,,,,,,,,,,,,,,,,,,,,,,,,,,,,,397.2723120999872,397.2881571999751,397.2881571999751,397.7225598999648,b,1.0,0.421909200027585,,,,,sub-097,1,stroop_test,60.03629795654749,
,,,,86.0,2.0,7.0,,,,,,,,,,,,,blau,blue,b,1.0,b,1.0,0.6742751999991015,,,,,,,,,,7.0,2.0,86.0,6.0,397.7378172999597,,,,,,,,,,,,,,,,,397.7228224999853,398.0878561999998,398.8878651999985,398.8719810000039,,,,,,,,,,,,,,,,,,,,,,,,,,,,,,,,,,,398.8750173999578,398.8878651999985,398.8878651999985,399.5728346999968,b,1.0,0.6742751999991015,,,,,sub-097,1,stroop_test,60.03629795654749,
,,,,87.0,3.0,7.0,,,,,,,,,,,,,rot,red,r,1.0,r,1.0,0.457192900008522,,,,,,,,,,7.0,3.0,87.0,0.0,399.587828299962,,,,,,,,,,,,,,,,,399.57320179999806,400.3888255999773,401.20460549998097,401.1881340999971,,,,,,,,,,,,,,,,,,,,,,,,,,,,,,,,,,,401.19157199998153,401.20460549998097,401.20460549998097,401.6719343999866,r,1.0,0.457192900008522,,,,,sub-097,1,stroop_test,60.03629795654749,
,,,,88.0,4.0,7.0,,,,,,,,,,,,,blau,blue,b,1.0,b,1.0,0.6177857000147924,,,,,,,,,,7.0,4.0,88.0,5.0,401.6872632000013,,,,,,,,,,,,,,,,,401.6722636999912,402.0373585000052,402.83756610000273,402.8220583999646,,,,,,,,,,,,,,,,,,,,,,,,,,,,,,,,,,,402.8248701999546,402.83756610000273,402.83756610000273,403.47182689997135,b,1.0,0.6177857000147924,,,,,sub-097,1,stroop_test,60.03629795654749,
,,,,89.0,5.0,7.0,,,,,,,,,,,,,rot,red,r,1.0,r,1.0,0.6038465999881737,,,,,,,,,,7.0,5.0,89.0,1.0,403.48707489995286,,,,,,,,,,,,,,,,,403.4721897999989,403.57112709997455,404.3712255999562,404.3552189999609,,,,,,,,,,,,,,,,,,,,,,,,,,,,,,,,,,,404.3608998999698,404.3712255999562,404.3712255999562,404.98887279996416,r,1.0,0.6038465999881737,,,,,sub-097,1,stroop_test,60.03629795654749,
,,,,90.0,6.0,7.0,,,,,,,,,,,,,blau,red,r,0.0,r,1.0,1.1005715999635868,,,,,,,,,,7.0,6.0,90.0,4.0,405.004755300004,,,,,,,,,,,,,,,,,404.9893075999571,405.104144699988,405.9052621999872,405.88771959999576,,,,,,,,,,,,,,,,,,,,,,,,,,,,,,,,,,,405.8941886999528,405.9052621999872,405.9052621999872,407.0220040999702,r,1.0,1.1005715999635868,,,,,sub-097,1,stroop_test,60.03629795654749,
,,,,91.0,7.0,7.0,,,,,,,,,,,,,rot,yellow,g,0.0,g,1.0,0.6088692999910563,,,,,,,,,,7.0,7.0,91.0,3.0,407.0370854999637,,,,,,,,,,,,,,,,,407.0223450999474,407.1365102999844,407.9372447999776,407.920442099974,,,,,,,,,,,,,,,,,,,,,,,,,,,,,,,,,,,407.9241476999596,407.9372447999776,407.9372447999776,408.5551096999552,g,1.0,0.6088692999910563,,,,,sub-097,1,stroop_test,60.03629795654749,
,,,,92.0,8.0,7.0,,,,,,,,,,,,,rot,blue,b,0.0,b,1.0,0.5333906000014395,,,,,,,,,,7.0,8.0,92.0,2.0,408.57025489996886,,,,,,,,,,,,,,,,,408.5554324999685,409.3695523999632,410.1697415999952,410.1541841999861,,,,,,,,,,,,,,,,,,,,,,,,,,,,,,,,,,,410.15460279997205,410.1697415999952,410.1697415999952,410.7048413999728,b,1.0,0.5333906000014395,,,,,sub-097,1,stroop_test,60.03629795654749,
,,,,93.0,9.0,7.0,,,,,,,,,,,,,gelb,yellow,g,1.0,g,1.0,0.7976736999698915,,,,,,,,,,7.0,9.0,93.0,10.0,410.719357999973,,,,,,,,,,,,,,,,,410.7051767999656,411.0703721999889,411.8873103999649,411.87065249995794,,,,,,,,,,,,,,,,,,,,,,,,,,,,,,,,,,,411.873096299998,411.8873103999649,411.8873103999649,412.6869816999533,g,1.0,0.7976736999698915,,,,,sub-097,1,stroop_test,60.03629795654749,
,,,,94.0,10.0,7.0,,,,,,,,,,,,,blau,yellow,g,0.0,g,1.0,0.5389763000421226,,,,,,,,,,7.0,10.0,94.0,7.0,412.7023366999929,,,,,,,,,,,,,,,,,412.6872984999791,413.9025483999867,414.70302009995794,414.6870019999915,,,,,,,,,,,,,,,,,,,,,,,,,,,,,,,,,,,414.6899518999853,414.70302009995794,414.70302009995794,415.2541835999582,g,1.0,0.5389763000421226,,,,,sub-097,1,stroop_test,60.03629795654749,
,,,,95.0,11.0,7.0,,,,,,,,,,,,,gelb,red,r,0.0,r,1.0,0.539094700012356,,,,,,,,,,7.0,11.0,95.0,8.0,415.2697751999949,,,,,,,,,,,,,,,,,415.254511099949,415.3694255999872,416.1694950999809,416.15363389998674,,,,,,,,,,,,,,,,,,,,,,,,,,,,,,,,,,,416.1576934999903,416.1694950999809,416.1694950999809,416.7199046000024,r,1.0,0.539094700012356,,,,,sub-097,1,stroop_test,60.03629795654749,
,,,,96.0,0.0,8.0,,,,,,,,,,,,,rot,yellow,g,0.0,g,1.0,0.5419878999819048,,,,,,,,,,8.0,0.0,96.0,3.0,416.7365161000053,,,,,,,,,,,,,,,,,416.7201990999747,417.9353525000042,418.7351726999623,418.719572699978,,,,,,,,,,,,,,,,,,,,,,,,,,,,,,,,,,,418.72365020000143,418.7351726999623,418.7351726999623,419.2864976999699,g,1.0,0.5419878999819048,,,,,sub-097,1,stroop_test,60.03629795654749,
,,,,97.0,1.0,8.0,,,,,,,,,,,,,blau,red,r,0.0,r,1.0,1.0371289000031538,,,,,,,,,,8.0,1.0,97.0,4.0,419.3016452000011,,,,,,,,,,,,,,,,,419.2868464999483,419.652602999995,420.4524969999911,420.4361804999644,,,,,,,,,,,,,,,,,,,,,,,,,,,,,,,,,,,420.4392476999783,420.4524969999911,420.4524969999911,421.50377729994943,r,1.0,1.0371289000031538,,,,,sub-097,1,stroop_test,60.03629795654749,
,,,,98.0,2.0,8.0,,,,,,,,,,,,,rot,red,r,1.0,r,1.0,0.5337840999709442,,,,,,,,,,8.0,2.0,98.0,0.0,421.51840489998,,,,,,,,,,,,,,,,,421.5043644999969,422.7181716999621,423.518407800002,423.50275399995735,,,,,,,,,,,,,,,,,,,,,,,,,,,,,,,,,,,423.50619399995776,423.518407800002,423.518407800002,424.0692220999626,r,1.0,0.5337840999709442,,,,,sub-097,1,stroop_test,60.03629795654749,
,,,,99.0,3.0,8.0,,,,,,,,,,,,,rot,blue,b,0.0,b,1.0,0.6117975999950431,,,,,,,,,,8.0,3.0,99.0,2.0,424.0852520999615,,,,,,,,,,,,,,,,,424.0696205999702,424.8685110999504,425.6671236999682,425.6519267999684,,,,,,,,,,,,,,,,,,,,,,,,,,,,,,,,,,,425.65235599997686,425.6671236999682,425.6671236999682,426.2861825999571,b,1.0,0.6117975999950431,,,,,sub-097,1,stroop_test,60.03629795654749,
,,,,100.0,4.0,8.0,,,,,,,,,,,,,blau,blue,b,1.0,b,1.0,0.573853500012774,,,,,,,,,,8.0,4.0,100.0,5.0,426.3013742999756,,,,,,,,,,,,,,,,,426.28645719995257,427.1011554999859,427.9017421999597,427.8862671999959,,,,,,,,,,,,,,,,,,,,,,,,,,,,,,,,,,,427.8900737999938,427.9017421999597,427.9017421999597,428.4861641000025,b,1.0,0.573853500012774,,,,,sub-097,1,stroop_test,60.03629795654749,
,,,,101.0,5.0,8.0,,,,,,,,,,,,,gelb,yellow,g,1.0,g,1.0,0.5673675999860279,,,,,,,,,,8.0,5.0,101.0,10.0,428.50055399996927,,,,,,,,,,,,,,,,,428.4867901999969,428.85120139998617,429.66736369999126,429.6511308999616,,,,,,,,,,,,,,,,,,,,,,,,,,,,,,,,,,,429.6536237999681,429.66736369999126,429.66736369999126,430.2360863999929,g,1.0,0.5673675999860279,,,,,sub-097,1,stroop_test,60.03629795654749,
,,,,102.0,6.0,8.0,,,,,,,,,,,,,rot,red,r,1.0,r,1.0,0.4684614999569021,,,,,,,,,,8.0,6.0,102.0,1.0,430.25077809998766,,,,,,,,,,,,,,,,,430.2364565999597,431.45085059996927,432.25066560000414,432.23436579998815,,,,,,,,,,,,,,,,,,,,,,,,,,,,,,,,,,,432.2374164999928,432.25066560000414,432.25066560000414,432.734272599977,r,1.0,0.4684614999569021,,,,,sub-097,1,stroop_test,60.03629795654749,
,,,,103.0,7.0,8.0,,,,,,,,,,,,,blau,blue,b,1.0,b,1.0,1.2977746999822557,,,,,,,,,,8.0,7.0,103.0,6.0,432.75024199998006,,,,,,,,,,,,,,,,,432.7345774999703,433.9332761999685,434.7332234999631,434.7175188999972,,,,,,,,,,,,,,,,,,,,,,,,,,,,,,,,,,,434.7208939999691,434.7332234999631,434.7332234999631,436.0349131999537,b,1.0,1.2977746999822557,,,,,sub-097,1,stroop_test,60.03629795654749,
,,,,104.0,8.0,8.0,,,,,,,,,,,,,gelb,blue,b,0.0,b,1.0,0.422641700017266,,,,,,,,,,8.0,8.0,104.0,9.0,436.05042980000144,,,,,,,,,,,,,,,,,436.035394699953,437.25003090000246,438.04916509997565,438.0344976999913,,,,,,,,,,,,,,,,,,,,,,,,,,,,,,,,,,,438.03762590000406,438.04916509997565,438.04916509997565,438.484047899954,b,1.0,0.422641700017266,,,,,sub-097,1,stroop_test,60.03629795654749,
,,,,105.0,9.0,8.0,,,,,,,,,,,,,gelb,red,r,0.0,r,1.0,0.4955984000116586,,,,,,,,,,8.0,9.0,105.0,8.0,438.499000199954,,,,,,,,,,,,,,,,,438.4843961999868,438.59991709998576,439.3990797000006,439.3837620999548,,,,,,,,,,,,,,,,,,,,,,,,,,,,,,,,,,,439.384268499969,439.3990797000006,439.3990797000006,439.9013815999497,r,1.0,0.4955984000116586,,,,,sub-097,1,stroop_test,60.03629795654749,
,,,,106.0,10.0,8.0,,,,,,,,,,,,,gelb,yellow,g,1.0,g,1.0,0.6664046000223607,,,,,,,,,,8.0,10.0,106.0,11.0,439.9157061000005,,,,,,,,,,,,,,,,,439.9017565999529,440.0158778000041,440.8160447999835,440.8000901999767,,,,,,,,,,,,,,,,,,,,,,,,,,,,,,,,,,,440.80049929994857,440.8160447999835,440.8160447999835,441.4838263999554,g,1.0,0.6664046000223607,,,,,sub-097,1,stroop_test,60.03629795654749,
,,,,107.0,11.0,8.0,,,,,,,,,,,,,blau,yellow,g,0.0,g,1.0,0.5935921000200324,,,,,,,,,,8.0,11.0,107.0,7.0,441.50002029998,,,,,,,,,,,,,,,,,441.4842309999513,442.6819536999683,443.48263439995935,443.4668979999842,,,,,,,,,,,,,,,,,,,,,,,,,,,,,,,,,,,443.4698814000003,443.48263439995935,443.48263439995935,444.0841137999669,g,1.0,0.5935921000200324,,,,,sub-097,1,stroop_test,60.03629795654749,
,,,,108.0,0.0,9.0,,,,,,,,,,,,,blau,yellow,g,0.0,g,1.0,0.5943831000477076,,,,,,,,,,9.0,0.0,108.0,7.0,444.0988559999969,,,,,,,,,,,,,,,,,444.084412599972,445.2987245999975,446.0991347999661,446.0830489999498,,,,,,,,,,,,,,,,,,,,,,,,,,,,,,,,,,,446.0835719999741,446.0991347999661,446.0991347999661,446.6997289999854,g,1.0,0.5943831000477076,,,,,sub-097,1,stroop_test,60.03629795654749,
,,,,109.0,1.0,9.0,,,,,,,,,,,,,rot,blue,b,0.0,b,1.0,1.10063140001148,,,,,,,,,,9.0,1.0,109.0,2.0,446.7145081000053,,,,,,,,,,,,,,,,,446.7000163999619,447.9147598999552,448.71519699995406,448.6998574999743,,,,,,,,,,,,,,,,,,,,,,,,,,,,,,,,,,,448.7036450000014,448.71519699995406,448.71519699995406,449.8173850000021,b,1.0,1.10063140001148,,,,,sub-097,1,stroop_test,60.03629795654749,
,,,,110.0,2.0,9.0,,,,,,,,,,,,,blau,red,r,0.0,r,1.0,0.7195322000188753,,,,,,,,,,9.0,2.0,110.0,4.0,449.8313474999741,,,,,,,,,,,,,,,,,449.8177116999868,450.1808580999496,450.98077539994847,450.9659426999861,,,,,,,,,,,,,,,,,,,,,,,,,,,,,,,,,,,450.9693560999585,450.98077539994847,450.98077539994847,451.7165853999904,r,1.0,0.7195322000188753,,,,,sub-097,1,stroop_test,60.03629795654749,
,,,,111.0,3.0,9.0,,,,,,,,,,,,,rot,yellow,g,0.0,g,1.0,1.0135239000082947,,,,,,,,,,9.0,3.0,111.0,3.0,451.7317646999727,,,,,,,,,,,,,,,,,451.71686139999656,452.9312994999928,453.7328332999605,453.7154648999567,,,,,,,,,,,,,,,,,,,,,,,,,,,,,,,,,,,453.7222163999686,453.7328332999605,453.7328332999605,454.7493435999495,g,1.0,1.0135239000082947,,,,,sub-097,1,stroop_test,60.03629795654749,
,,,,112.0,4.0,9.0,,,,,,,,,,,,,blau,blue,b,1.0,b,1.0,0.5691162999719381,,,,,,,,,,9.0,4.0,112.0,6.0,454.7643476999947,,,,,,,,,,,,,,,,,454.74968969996553,455.564413999964,456.3655994999572,456.3490140999784,,,,,,,,,,,,,,,,,,,,,,,,,,,,,,,,,,,456.3541115999688,456.3655994999572,456.3655994999572,456.94906539999647,b,1.0,0.5691162999719381,,,,,sub-097,1,stroop_test,60.03629795654749,
,,,,113.0,5.0,9.0,,,,,,,,,,,,,gelb,yellow,g,1.0,g,1.0,0.6863707999582402,,,,,,,,,,9.0,5.0,113.0,10.0,456.96453759999713,,,,,,,,,,,,,,,,,456.9494378999807,457.0636307999957,457.8644189999905,457.8480853999499,,,,,,,,,,,,,,,,,,,,,,,,,,,,,,,,,,,457.8528885999695,457.8644189999905,457.8644189999905,458.5657138999668,g,1.0,0.6863707999582402,,,,,sub-097,1,stroop_test,60.03629795654749,
,,,,114.0,6.0,9.0,,,,,,,,,,,,,gelb,blue,b,0.0,b,1.0,0.7755106000113301,,,,,,,,,,9.0,6.0,114.0,9.0,458.5805080999853,,,,,,,,,,,,,,,,,458.56628709996585,458.68034319998696,459.4802691999939,459.4643260999583,,,,,,,,,,,,,,,,,,,,,,,,,,,,,,,,,,,459.4648118999903,459.4802691999939,459.4802691999939,460.2654022999923,b,1.0,0.7755106000113301,,,,,sub-097,1,stroop_test,60.03629795654749,
,,,,115.0,7.0,9.0,,,,,,,,,,,,,rot,red,r,1.0,r,1.0,0.5031121000065468,,,,,,,,,,9.0,7.0,115.0,1.0,460.280916299962,,,,,,,,,,,,,,,,,460.2656958999578,461.4801233999897,462.2800786999869,462.2638907999499,,,,,,,,,,,,,,,,,,,,,,,,,,,,,,,,,,,462.266693499987,462.2800786999869,462.2800786999869,462.7977574999677,r,1.0,0.5031121000065468,,,,,sub-097,1,stroop_test,60.03629795654749,
,,,,116.0,8.0,9.0,,,,,,,,,,,,,rot,red,r,1.0,r,1.0,0.5049919000011869,,,,,,,,,,9.0,8.0,116.0,0.0,462.8130672999541,,,,,,,,,,,,,,,,,462.7981308999588,463.6130170999677,464.4134611999616,464.3968315999955,,,,,,,,,,,,,,,,,,,,,,,,,,,,,,,,,,,464.39722679997794,464.4134611999616,464.4134611999616,464.931065999961,r,1.0,0.5049919000011869,,,,,sub-097,1,stroop_test,60.03629795654749,
,,,,117.0,9.0,9.0,,,,,,,,,,,,,gelb,yellow,g,1.0,g,1.0,1.1530333000118844,,,,,,,,,,9.0,9.0,117.0,11.0,464.9473235000041,,,,,,,,,,,,,,,,,464.9313372999896,466.1455876999535,466.9459024999524,466.9304096999695,,,,,,,,,,,,,,,,,,,,,,,,,,,,,,,,,,,466.9329869999783,466.9459024999524,466.9459024999524,468.1141984999995,g,1.0,1.1530333000118844,,,,,sub-097,1,stroop_test,60.03629795654749,
,,,,118.0,10.0,9.0,,,,,,,,,,,,,gelb,red,r,0.0,r,1.0,0.6725314999930561,,,,,,,,,,9.0,10.0,118.0,8.0,468.1290260999813,,,,,,,,,,,,,,,,,468.1144604999572,468.4792737999815,469.27845789998537,469.2634014999494,,,,,,,,,,,,,,,,,,,,,,,,,,,,,,,,,,,469.2638120999909,469.27845789998537,469.27845789998537,469.96487229998456,r,1.0,0.6725314999930561,,,,,sub-097,1,stroop_test,60.03629795654749,
,,,,119.0,11.0,9.0,,,,,,,,,,,,,blau,blue,b,1.0,b,1.0,0.5525384999928065,,,,,,,,,,9.0,11.0,119.0,5.0,469.97951469995314,,,,,,,,,,,,,,,,,469.965484299988,470.7789991999744,471.5786721999757,471.5626963999821,,,,,,,,,,,,,,,,,,,,,,,,,,,,,,,,,,,471.566311499977,471.5786721999757,471.5786721999757,472.1472489999724,b,1.0,0.5525384999928065,,,,,sub-097,1,stroop_test,60.03629795654749,
,,,,,,,,,,,,,,,,,,,,,,,,,,,,,,,,,,,,,,,,,,,,,,,,,,,,,,,,,,,,,,,,,,,,,,,,,,,,,,,,,,,,,,,,,,,,,,,,,,,,,,472.1474121999927,472.16237699997146,477.1622718999861,sub-097,1,stroop_test,60.03629795654749,
