wordCTK,colorCTK,corrAnsCTK,congruentCTK,thisN,thisTrialN,thisRepN,keyResp_CTK.keys,keyResp_CTK.corr,keyResp_CTK.rt,keyResp_CTK.duration,wordPractice,colorPractice,corrAnsPractice,congruentPractice,respPractice.keys,respPractice.corr,respPractice.rt,respPractice.duration,word,color,corrAns,congruent,keyResp_test_run.keys,keyResp_test_run.corr,keyResp_test_run.rt,keyResp_test_run.duration,trials_CTK.thisRepN,trials_CTK.thisTrialN,trials_CTK.thisN,trials_CTK.thisIndex,trials_practice.thisRepN,trials_practice.thisTrialN,trials_practice.thisN,trials_practice.thisIndex,trials_test.thisRepN,trials_test.thisTrialN,trials_test.thisN,trials_test.thisIndex,thisRow.t,notes,instruction.started,instr_text.started,instr_image.started,instr_resp.started,instruction.stopped,instr_resp.keys,instr_resp.rt,instr_resp.duration,instr_color_to_key.started,instr_ctk.started,resp_ctk.started,instr_color_to_key.stopped,resp_ctk.keys,resp_ctk.rt,resp_ctk.duration,ITI.started,fixcross.started,fixcross.stopped,ITI.stopped,color_to_key_run.started,stimulus_CTK.started,keyResp_CTK.started,color_to_key_run.stopped,trials_CTK.keyResp_CTK.keys,trials_CTK.keyResp_CTK.corr,trials_CTK.keyResp_CTK.rt,trials_CTK.keyResp_CTK.duration,instr_practice.started,instr_practice_text.started,instr_practice_resp.started,instr_practice.stopped,instr_practice_resp.keys,instr_practice_resp.rt,instr_practice_resp.duration,practice_run.started,stimulus_practice.started,respPractice.started,practice_run.stopped,trials_practice.respPractice.keys,trials_practice.respPractice.corr,trials_practice.respPractice.rt,trials_practice.respPractice.duration,feedback.started,textFeedback.started,feedback.stopped,textFeedback.stopped,instr_test.started,instr_test_text.started,instr_test_resp.started,instr_test.stopped,instr_test_resp.keys,instr_test_resp.rt,instr_test_resp.duration,test_run.started,stimulus_test_run.started,keyResp_test_run.started,test_run.stopped,trials_test.keyResp_test_run.keys,trials_test.keyResp_test_run.corr,trials_test.keyResp_test_run.rt,trials_test.keyResp_test_run.duration,goodbye.started,textGoodbye.started,textGoodbye.stopped,goodbye.stopped,participant,session,expName,frameRate,Unnamed: 113
,,,,,,,,,,,,,,,,,,,,,,,,,,,,,,,,,,,,,,,,,0.0023684001062065,0.1258348000701517,0.1258348000701517,0.1258348000701517,65.56687290000264,space,65.33126629993785,,,,,,,,,,,,,,,,,,,,,,,,,,,,,,,,,,,,,,,,,,,,,,,,,,,,,,,,,,,sub-125,1,stroop_test,59.825107272945054,
,,,,,,,,,,,,,,,,,,,,,,,,,,,,,,,,,,,,,,,,,,,,,,,,,65.5669778001029,65.57535550009925,65.57535550009925,76.19388730009086,space,10.602080499986188,,,,,,,,,,,,,,,,,,,,,,,,,,,,,,,,,,,,,,,,,,,,,,,,,,,,sub-125,1,stroop_test,59.825107272945054,
test,yellow,g,1.0,0.0,0.0,0.0,g,1.0,1.609232100076042,,,,,,,,,,,,,,,,,,0.0,0.0,0.0,1.0,,,,,,,,,76.26834100007545,,,,,,,,,,,,,,,,,76.2651849000249,76.29308610002045,77.09310330008157,77.07669160002843,77.08808530005626,77.09310330008157,77.09310330008157,78.7106237000553,g,1.0,1.609232100076042,,,,,,,,,,,,,,,,,,,,,,,,,,,,,,,,,,,,,,,,sub-125,1,stroop_test,59.825107272945054,
test,red,r,1.0,1.0,1.0,0.0,r,1.0,0.4461482000770047,,,,,,,,,,,,,,,,,,0.0,1.0,1.0,0.0,,,,,,,,,78.72697140008677,,,,,,,,,,,,,,,,,78.71107910003047,79.5098575000884,80.30998270004056,80.2939685001038,80.29461930005345,80.30998270004056,80.30998270004056,80.76048820000142,r,1.0,0.4461482000770047,,,,,,,,,,,,,,,,,,,,,,,,,,,,,,,,,,,,,,,,sub-125,1,stroop_test,59.825107272945054,
test,blue,b,1.0,2.0,2.0,0.0,b,1.0,0.3332767999963835,,,,,,,,,,,,,,,,,,0.0,2.0,2.0,2.0,,,,,,,,,80.77650000003632,,,,,,,,,,,,,,,,,80.76096310000867,81.5763059000019,82.37675090006087,82.35981230007019,82.36027220007963,82.37675090006087,82.37675090006087,82.71050370007288,b,1.0,0.3332767999963835,,,,,,,,,,,,,,,,,,,,,,,,,,,,,,,,,,,,,,,,sub-125,1,stroop_test,59.825107272945054,
test,yellow,g,1.0,3.0,0.0,1.0,g,1.0,0.6759617000352591,,,,,,,,,,,,,,,,,,1.0,0.0,3.0,1.0,,,,,,,,,82.72603250003885,,,,,,,,,,,,,,,,,82.71099410008173,83.0597689000424,83.85995230008848,83.8437785001006,83.84469180007,83.85995230008848,83.85995230008848,84.54377710004337,g,1.0,0.6759617000352591,,,,,,,,,,,,,,,,,,,,,,,,,,,,,,,,,,,,,,,,sub-125,1,stroop_test,59.825107272945054,
test,red,r,1.0,4.0,1.0,1.0,r,1.0,0.3240869999863207,,,,,,,,,,,,,,,,,,1.0,1.0,4.0,0.0,,,,,,,,,84.55990740004927,,,,,,,,,,,,,,,,,84.54428610007744,85.74327330000233,86.54347840009723,86.52745360007975,86.5282796000829,86.54347840009723,86.54347840009723,86.87727300007828,r,1.0,0.3240869999863207,,,,,,,,,,,,,,,,,,,,,,,,,,,,,,,,,,,,,,,,sub-125,1,stroop_test,59.825107272945054,
test,blue,b,1.0,5.0,2.0,1.0,b,1.0,0.336058699991554,,,,,,,,,,,,,,,,,,1.0,2.0,5.0,2.0,,,,,,,,,86.89319840003736,,,,,,,,,,,,,,,,,86.87784530001227,88.0762790000299,88.87677160010207,88.86067500000354,88.86135820008349,88.87677160010207,88.87677160010207,89.22747590008657,b,1.0,0.336058699991554,,,,,,,,,,,,,,,,,,,,,,,,,,,,,,,,,,,,,,,,sub-125,1,stroop_test,59.825107272945054,
test,yellow,g,1.0,6.0,0.0,2.0,g,1.0,0.3746771999867633,,,,,,,,,,,,,,,,,,2.0,0.0,6.0,1.0,,,,,,,,,89.24326410004869,,,,,,,,,,,,,,,,,89.22798580001108,90.4266584001016,91.22670940007085,91.21066229999995,91.2113062000135,91.22670940007085,91.22670940007085,91.61084290000144,g,1.0,0.3746771999867633,,,,,,,,,,,,,,,,,,,,,,,,,,,,,,,,,,,,,,,,sub-125,1,stroop_test,59.825107272945054,
test,red,r,1.0,7.0,1.0,2.0,r,1.0,0.2845101000275463,,,,,,,,,,,,,,,,,,2.0,1.0,7.0,0.0,,,,,,,,,91.62664600007702,,,,,,,,,,,,,,,,,91.61131780000868,91.96000469999854,92.75999810011126,92.74378770007752,92.74442280002404,92.75999810011126,92.75999810011126,93.06065510003828,r,1.0,0.2845101000275463,,,,,,,,,,,,,,,,,,,,,,,,,,,,,,,,,,,,,,,,sub-125,1,stroop_test,59.825107272945054,
test,blue,b,1.0,8.0,2.0,2.0,b,1.0,0.3475298000266775,,,,,,,,,,,,,,,,,,2.0,2.0,8.0,2.0,,,,,,,,,93.07641030009836,,,,,,,,,,,,,,,,,93.06111560005228,93.41008240007795,94.21006210008636,94.19401050009763,94.19480450008996,94.21006210008636,94.21006210008636,94.56021750008222,b,1.0,0.3475298000266775,,,,,,,,,,,,,,,,,,,,,,,,,,,,,,,,,,,,,,,,sub-125,1,stroop_test,59.825107272945054,
test,yellow,g,1.0,9.0,0.0,3.0,g,1.0,0.4509360999800265,,,,,,,,,,,,,,,,,,3.0,0.0,9.0,1.0,,,,,,,,,94.5764451000141,,,,,,,,,,,,,,,,,94.56063670001458,94.91007730003912,95.7099608000135,95.693863100023,95.694590200088,95.7099608000135,95.7099608000135,96.17747430002782,g,1.0,0.4509360999800265,,,,,,,,,,,,,,,,,,,,,,,,,,,,,,,,,,,,,,,,sub-125,1,stroop_test,59.825107272945054,
test,red,r,1.0,10.0,1.0,3.0,r,1.0,0.4140548000577837,,,,,,,,,,,,,,,,,,3.0,1.0,10.0,0.0,,,,,,,,,96.19350500009024,,,,,,,,,,,,,,,,,96.1779447000008,96.2766959000146,97.07680740009528,97.0606805999996,97.06137140002102,97.07680740009528,97.07680740009528,97.4938902000431,r,1.0,0.4140548000577837,,,,,,,,,,,,,,,,,,,,,,,,,,,,,,,,,,,,,,,,sub-125,1,stroop_test,59.825107272945054,
test,blue,b,1.0,11.0,2.0,3.0,b,1.0,0.3768762999679893,,,,,,,,,,,,,,,,,,3.0,2.0,11.0,2.0,,,,,,,,,97.50989280000796,,,,,,,,,,,,,,,,,97.4943422001088,97.59339780011214,98.39344630006237,98.3772675000364,98.37801010010298,98.39344630006237,98.39344630006237,98.7774827000685,b,1.0,0.3768762999679893,,,,,,,,,,,,,,,,,,,,,,,,,,,,,,,,,,,,,,,,sub-125,1,stroop_test,59.825107272945054,
,,,,,,,,,,,,,,,,,,,,,,,,,,,,,,,,,,,,,,,,,,,,,,,,,,,,,,,,,,,,,,,,,,,,98.7776990000857,98.7934660000028,98.7934660000028,102.82731220009735,space,4.021048899972811,,,,,,,,,,,,,,,,,,,,,,,,,,,,,,,,,sub-125,1,stroop_test,59.825107272945054,
,,,,0.0,0.0,0.0,,,,,blau,yellow,g,0.0,g,1.0,0.8263135999441147,,,,,,,,,,,,,,0.0,0.0,0.0,7.0,,,,,102.8743387000868,,,,,,,,,,,,,,,,,102.87069130002055,102.92691830010152,103.7286189000588,103.7109256000258,,,,,,,,,,,,,,,,103.7236917000264,103.7286189000588,103.7286189000588,104.56084480008576,g,1.0,0.8263135999441147,,104.57680740009528,104.58378610003274,105.57738370005973,,,,,,,,,,,,,,,,,,,,,sub-125,1,stroop_test,59.825107272945054,
,,,,1.0,1.0,0.0,,,,,rot,red,r,1.0,r,1.0,0.3875027000904083,,,,,,,,,,,,,,0.0,1.0,1.0,0.0,,,,,105.59353360009844,,,,,,,,,,,,,,,,,105.57788690004963,105.91024870006368,106.71039970009588,106.69438980007544,,,,,,,,,,,,,,,,106.70319870009553,106.71039970009588,106.71039970009588,107.11086310003884,r,1.0,0.3875027000904083,,107.11160810000727,107.12690080003811,108.11081760004164,108.12694490002468,,,,,,,,,,,,,,,,,,,,sub-125,1,stroop_test,59.825107272945054,
,,,,2.0,2.0,0.0,,,,,gelb,red,r,0.0,g,0.0,1.0662699999520555,,,,,,,,,,,,,,0.0,2.0,2.0,8.0,,,,,108.12694490002468,,,,,,,,,,,,,,,,,108.1112883000169,109.31039160001092,110.11043210001662,110.09434850001708,,,,,,,,,,,,,,,,110.09983530000318,110.11043210001662,110.11043210001662,111.17762840003708,g,0.0,1.0662699999520555,,111.19612660002896,111.20245680003428,112.19407540000977,,,,,,,,,,,,,,,,,,,,,sub-125,1,stroop_test,59.825107272945054,
,,,,3.0,3.0,0.0,,,,,gelb,yellow,g,1.0,g,1.0,0.707889899960719,,,,,,,,,,,,,,0.0,3.0,3.0,10.0,,,,,112.21027490007693,,,,,,,,,,,,,,,,,112.19454660010524,112.27694980008528,113.07681670004968,113.06091500003822,,,,,,,,,,,,,,,,113.06158090010284,113.07681670004968,113.07681670004968,113.79434090002906,g,1.0,0.707889899960719,,113.80007019999904,113.81006190006156,114.7941475000698,114.8102676999988,,,,,,,,,,,,,,,,,,,,sub-125,1,stroop_test,59.825107272945054,
,,,,4.0,4.0,0.0,,,,,rot,red,r,1.0,r,1.0,0.600892600021325,,,,,,,,,,,,,,0.0,4.0,4.0,1.0,,,,,114.8102676999988,,,,,,,,,,,,,,,,,114.7945550000295,114.89363030006643,115.69382440007756,115.67774690000806,,,,,,,,,,,,,,,,115.6840080000693,115.69382440007756,115.69382440007756,116.29525930003727,r,1.0,0.600892600021325,,116.29594440001529,116.31026759999804,117.29435160011052,117.3101658000378,,,,,,,,,,,,,,,,,,,,sub-125,1,stroop_test,59.825107272945054,
,,,,5.0,5.0,0.0,,,,,gelb,blue,b,0.0,b,1.0,0.968848899938166,,,,,,,,,,,,,,0.0,5.0,5.0,9.0,,,,,117.3101658000378,,,,,,,,,,,,,,,,,117.29481020011008,118.11053340008948,118.91061380004976,118.89459070004524,,,,,,,,,,,,,,,,118.9004721000092,118.91061380004976,118.91061380004976,119.89433450007346,b,1.0,0.968848899938166,,119.89505040005317,119.91386840003544,120.9106463000644,,,,,,,,,,,,,,,,,,,,,sub-125,1,stroop_test,59.825107272945054,
,,,,6.0,6.0,0.0,,,,,rot,yellow,g,0.0,g,1.0,0.6428873999975622,,,,,,,,,,,,,,0.0,6.0,6.0,3.0,,,,,120.92685690009966,,,,,,,,,,,,,,,,,120.91134740004782,121.6939286000561,122.49388250010088,122.47775340010412,,,,,,,,,,,,,,,,122.48278730001766,122.49388250010088,122.49388250010088,123.14458350010682,g,1.0,0.6428873999975622,,123.14544050011318,123.16024790005758,124.14431310002692,124.16039210010786,,,,,,,,,,,,,,,,,,,,sub-125,1,stroop_test,59.825107272945054,
,,,,7.0,7.0,0.0,,,,,rot,blue,b,0.0,b,1.0,0.957473799935542,,,,,,,,,,,,,,0.0,7.0,7.0,2.0,,,,,124.16039210010786,,,,,,,,,,,,,,,,,124.14474090002476,125.3437257000478,126.14397770003416,126.12783590005712,,,,,,,,,,,,,,,,126.12866300006864,126.14397770003416,126.14397770003416,127.11106490006205,b,1.0,0.957473799935542,,127.11173910007346,127.12715450010728,128.1108606000198,128.12717760005037,,,,,,,,,,,,,,,,,,,,sub-125,1,stroop_test,59.825107272945054,
,,,,8.0,8.0,0.0,,,,,blau,blue,b,1.0,b,1.0,0.5553117999807,,,,,,,,,,,,,,0.0,8.0,8.0,6.0,,,,,128.12717760005037,,,,,,,,,,,,,,,,,128.11126880010124,129.31035060004797,130.1107580000535,130.09422200010158,,,,,,,,,,,,,,,,130.09951260010712,130.1107580000535,130.1107580000535,130.67788070009556,b,1.0,0.5553117999807,,130.67865840008017,130.69386370002758,131.67749830009416,131.6936067000497,,,,,,,,,,,,,,,,,,,,sub-125,1,stroop_test,59.825107272945054,
,,,,9.0,9.0,0.0,,,,,blau,blue,b,1.0,b,1.0,0.5079810000024736,,,,,,,,,,,,,,0.0,9.0,9.0,5.0,,,,,131.6936067000497,,,,,,,,,,,,,,,,,131.6780973999994,131.77698280010372,132.57731990003958,132.56118920003064,,,,,,,,,,,,,,,,132.5620884000091,132.57731990003958,132.57731990003958,133.0942856000038,b,1.0,0.5079810000024736,,133.09485260001384,133.11044580000453,134.0945578000974,134.11039540008642,,,,,,,,,,,,,,,,,,,,sub-125,1,stroop_test,59.825107272945054,
,,,,10.0,10.0,0.0,,,,,blau,red,r,0.0,r,1.0,0.935351000051014,,,,,,,,,,,,,,0.0,10.0,10.0,4.0,,,,,134.11039540008642,,,,,,,,,,,,,,,,,134.0949484000448,135.2936319001019,136.0941015999997,136.07780200010166,,,,,,,,,,,,,,,,136.07845320005435,136.0941015999997,136.0941015999997,137.04470180009957,r,1.0,0.935351000051014,,137.04541380004957,137.06063490000088,138.0445074000163,138.06069430010393,,,,,,,,,,,,,,,,,,,,sub-125,1,stroop_test,59.825107272945054,
,,,,11.0,11.0,0.0,,,,,gelb,yellow,g,1.0,g,1.0,0.5302907999139279,,,,,,,,,,,,,,0.0,11.0,11.0,11.0,,,,,138.06069430010393,,,,,,,,,,,,,,,,,138.04496389999986,138.8441306001041,139.64376720006112,139.6281826000195,,,,,,,,,,,,,,,,139.63357880001422,139.64376720006112,139.64376720006112,140.17804010002874,g,1.0,0.5302907999139279,,140.17872290010564,140.19407260010485,141.177634300082,141.1940494000446,,,,,,,,,,,,,,,,,,,,sub-125,1,stroop_test,59.825107272945054,
,,,,12.0,0.0,1.0,,,,,rot,blue,b,0.0,b,1.0,0.9527498000534252,,,,,,,,,,,,,,1.0,0.0,12.0,2.0,,,,,141.1940494000446,,,,,,,,,,,,,,,,,141.17806320008822,141.9775754000293,142.7775290000718,142.76140240009408,,,,,,,,,,,,,,,,142.76676960010082,142.7775290000718,142.7775290000718,143.7448014999973,b,1.0,0.9527498000534252,,143.74556110007688,143.7607731000753,144.74471310002264,144.76066260004882,,,,,,,,,,,,,,,,,,,,sub-125,1,stroop_test,59.825107272945054,
,,,,13.0,1.0,1.0,,,,,blau,red,r,0.0,r,1.0,1.3488085999852046,,,,,,,,,,,,,,1.0,1.0,13.0,4.0,,,,,144.76066260004882,,,,,,,,,,,,,,,,,144.74511900008656,144.84439960005693,145.64425790007226,145.62829030002467,,,,,,,,,,,,,,,,145.63322730001528,145.64425790007226,145.64425790007226,146.99495990003925,r,1.0,1.3488085999852046,,146.99576770002022,147.01080400007777,147.99442220001947,148.0107568000676,,,,,,,,,,,,,,,,,,,,sub-125,1,stroop_test,59.825107272945054,
,,,,14.0,2.0,1.0,,,,,rot,red,r,1.0,r,1.0,0.6508720000274479,,,,,,,,,,,,,,1.0,2.0,14.0,1.0,,,,,148.0107568000676,,,,,,,,,,,,,,,,,147.9949398000026,148.3441456001019,149.14426420000382,149.12790130008943,,,,,,,,,,,,,,,,149.13331720000133,149.14426420000382,149.14426420000382,149.81153200007975,r,1.0,0.6508720000274479,,149.812340100063,149.82728920003865,150.81150850001725,150.8275649000425,,,,,,,,,,,,,,,,,,,,sub-125,1,stroop_test,59.825107272945054,
,,,,15.0,3.0,1.0,,,,,gelb,yellow,g,1.0,g,1.0,0.5428046999732032,,,,,,,,,,,,,,1.0,3.0,15.0,11.0,,,,,150.8275649000425,,,,,,,,,,,,,,,,,150.81217080005445,151.1610124000581,151.9608366000466,151.9449555000756,,,,,,,,,,,,,,,,151.95441590005066,151.9608366000466,151.9608366000466,152.5115729001118,g,1.0,0.5428046999732032,,152.5122846000595,152.52749890007544,153.5115219000727,153.52759120007977,,,,,,,,,,,,,,,,,,,,sub-125,1,stroop_test,59.825107272945054,
,,,,16.0,4.0,1.0,,,,,blau,yellow,g,0.0,g,1.0,0.6975899999961257,,,,,,,,,,,,,,1.0,4.0,16.0,7.0,,,,,153.52759120007977,,,,,,,,,,,,,,,,,153.511973900022,153.86073340009898,154.66066970000975,154.64433070004452,,,,,,,,,,,,,,,,154.64893440005835,154.66066970000975,154.66066970000975,155.36143350007478,g,1.0,0.6975899999961257,,155.36216000001878,155.37729299999774,156.36171420000028,156.37753470009193,,,,,,,,,,,,,,,,,,,,sub-125,1,stroop_test,59.825107272945054,
,,,,17.0,5.0,1.0,,,,,rot,red,r,1.0,r,1.0,0.6555776000022888,,,,,,,,,,,,,,1.0,5.0,17.0,0.0,,,,,156.37753470009193,,,,,,,,,,,,,,,,,156.36215680011082,156.4609982999973,157.2609918001108,157.24506210000254,,,,,,,,,,,,,,,,157.25023090001196,157.2609918001108,157.2609918001108,157.9283121000044,r,1.0,0.6555776000022888,,157.9290428000968,157.94434510008432,158.9283656000625,158.94426680007018,,,,,,,,,,,,,,,,,,,,sub-125,1,stroop_test,59.825107272945054,
,,,,18.0,6.0,1.0,,,,,gelb,blue,b,0.0,b,1.0,0.6532501999754459,,,,,,,,,,,,,,1.0,6.0,18.0,9.0,,,,,158.94426680007018,,,,,,,,,,,,,,,,,158.92885100003332,159.27762970002368,160.07776780007407,160.0615730000427,,,,,,,,,,,,,,,,160.06738380005118,160.07776780007407,160.07776780007407,160.74499820009805,b,1.0,0.6532501999754459,,160.7457008000929,160.7609299001051,161.74457330000587,161.76098420005292,,,,,,,,,,,,,,,,,,,,sub-125,1,stroop_test,59.825107272945054,
,,,,19.0,7.0,1.0,,,,,gelb,yellow,g,1.0,g,1.0,0.5575437999796122,,,,,,,,,,,,,,1.0,7.0,19.0,10.0,,,,,161.76098420005292,,,,,,,,,,,,,,,,,161.7450260000769,161.84401560004335,162.64451980008744,162.62836349999998,,,,,,,,,,,,,,,,162.62914440000895,162.64451980008744,162.64451980008744,163.2117993000429,g,1.0,0.5575437999796122,,163.21259330003522,163.227579300059,164.21173110010568,164.2276577000739,,,,,,,,,,,,,,,,,,,,sub-125,1,stroop_test,59.825107272945054,
,,,,20.0,8.0,1.0,,,,,blau,blue,b,1.0,b,1.0,0.7088211999507621,,,,,,,,,,,,,,1.0,8.0,20.0,5.0,,,,,164.2276577000739,,,,,,,,,,,,,,,,,164.21218750008848,165.42778860009275,166.22786720003933,166.21176970005035,,,,,,,,,,,,,,,,166.2171974000521,166.22786720003933,166.22786720003933,166.94498010003008,b,1.0,0.7088211999507621,,166.94568450003862,166.9610904000001,167.94489540008362,167.96087970002554,,,,,,,,,,,,,,,,,,,,sub-125,1,stroop_test,59.825107272945054,
,,,,21.0,9.0,1.0,,,,,blau,blue,b,1.0,b,1.0,0.690652500023134,,,,,,,,,,,,,,1.0,9.0,21.0,6.0,,,,,167.96087970002554,,,,,,,,,,,,,,,,,167.9453244000906,169.1442004001001,169.94463820010424,169.92847870010883,,,,,,,,,,,,,,,,169.92914900009055,169.94463820010424,169.94463820010424,170.6451548000332,b,1.0,0.690652500023134,,170.64608350000344,170.6611630000407,171.64495300001,171.6611133000115,,,,,,,,,,,,,,,,,,,,sub-125,1,stroop_test,59.825107272945054,
,,,,22.0,10.0,1.0,,,,,rot,yellow,g,0.0,g,1.0,0.9370120000094176,,,,,,,,,,,,,,1.0,10.0,22.0,3.0,,,,,171.6611133000115,,,,,,,,,,,,,,,,,171.64538750005886,172.84480790002272,173.64465110003948,173.62853050010744,,,,,,,,,,,,,,,,173.63409370009322,173.64465110003948,173.64465110003948,174.5951078000944,g,1.0,0.9370120000094176,,174.5957994000055,174.6112285000272,175.5950377000263,175.611195400008,,,,,,,,,,,,,,,,,,,,sub-125,1,stroop_test,59.825107272945054,
,,,,23.0,11.0,1.0,,,,,gelb,red,r,0.0,r,1.0,0.6982835000380874,,,,,,,,,,,,,,1.0,11.0,23.0,8.0,,,,,175.611195400008,,,,,,,,,,,,,,,,,175.59552810003515,176.79466260003392,177.59568120003678,177.57843530003447,,,,,,,,,,,,,,,,177.58460880001076,177.59568120003678,177.59568120003678,178.29525810002815,r,1.0,0.6982835000380874,,178.29598360008094,178.31118950003292,179.29530070000328,179.31130950001534,,,,,,,,,,,,,,,,,,,,sub-125,1,stroop_test,59.825107272945054,
,,,,,,,,,,,,,,,,,,,,,,,,,,,,,,,,,,,,,,,,,,,,,,,,,,,,,,,,,,,,,,,,,,,,,,,,,,,,,,,,,,,,,,,179.2954815000994,179.31130950001534,179.31130950001534,188.3119047000073,space,8.996622099890374,,,,,,,,,,,,,,sub-125,1,stroop_test,59.825107272945054,
,,,,0.0,0.0,0.0,,,,,,,,,,,,,gelb,yellow,g,1.0,g,1.0,0.5640750000020489,,,,,,,,,,0.0,0.0,0.0,10.0,188.36258360010103,,,,,,,,,,,,,,,,,188.35920490010176,188.4111483000452,189.21172570006456,189.19534940004812,,,,,,,,,,,,,,,,,,,,,,,,,,,,,,,,,,,189.20297270000447,189.21172570006456,189.21172570006456,189.77837830001957,g,1.0,0.5640750000020489,,,,,,sub-125,1,stroop_test,59.825107272945054,
,,,,1.0,1.0,0.0,,,,,,,,,,,,,rot,yellow,g,0.0,g,1.0,0.701139000011608,,,,,,,,,,0.0,1.0,1.0,3.0,189.7944079000736,,,,,,,,,,,,,,,,,189.77889930002857,190.97818850004117,191.7780128000304,191.76199800008908,,,,,,,,,,,,,,,,,,,,,,,,,,,,,,,,,,,191.76741630001925,191.7780128000304,191.7780128000304,192.495562300086,g,1.0,0.701139000011608,,,,,,sub-125,1,stroop_test,59.825107272945054,
,,,,2.0,2.0,0.0,,,,,,,,,,,,,blau,blue,b,1.0,b,1.0,0.6396894999779761,,,,,,,,,,0.0,2.0,2.0,6.0,192.51137860002927,,,,,,,,,,,,,,,,,192.4961872000713,192.84487270005047,193.64457440003756,193.62853850005197,,,,,,,,,,,,,,,,,,,,,,,,,,,,,,,,,,,193.63348509999923,193.64457440003756,193.64457440003756,194.2955524000572,b,1.0,0.6396894999779761,,,,,,sub-125,1,stroop_test,59.825107272945054,
,,,,3.0,3.0,0.0,,,,,,,,,,,,,gelb,blue,b,0.0,b,1.0,0.6272323000011966,,,,,,,,,,0.0,3.0,3.0,9.0,194.3115311000729,,,,,,,,,,,,,,,,,194.29667240008712,194.3948040000396,195.1947320000036,195.17860440001823,,,,,,,,,,,,,,,,,,,,,,,,,,,,,,,,,,,195.18335400009528,195.1947320000036,195.1947320000036,195.828960700077,b,1.0,0.6272323000011966,,,,,,sub-125,1,stroop_test,59.825107272945054,
,,,,4.0,4.0,0.0,,,,,,,,,,,,,rot,red,r,1.0,r,1.0,0.3755650999955833,,,,,,,,,,0.0,4.0,4.0,1.0,195.845002300106,,,,,,,,,,,,,,,,,195.82946970011108,196.1781911000144,196.9782078000717,196.96203910000625,,,,,,,,,,,,,,,,,,,,,,,,,,,,,,,,,,,196.96790170005988,196.9782078000717,196.9782078000717,197.36183970002455,r,1.0,0.3755650999955833,,,,,,sub-125,1,stroop_test,59.825107272945054,
,,,,5.0,5.0,0.0,,,,,,,,,,,,,rot,blue,b,0.0,g,0.0,0.8222368999850005,,,,,,,,,,0.0,5.0,5.0,2.0,197.37820660008583,,,,,,,,,,,,,,,,,197.3625967000844,197.71168670000043,198.51144380006008,198.4950019000098,,,,,,,,,,,,,,,,,,,,,,,,,,,,,,,,,,,198.4956173000392,198.51144380006008,198.51144380006008,199.3456431000959,g,0.0,0.8222368999850005,,,,,,sub-125,1,stroop_test,59.825107272945054,
,,,,6.0,6.0,0.0,,,,,,,,,,,,,gelb,red,r,0.0,r,1.0,0.914885999984108,,,,,,,,,,0.0,6.0,6.0,8.0,199.3615079000592,,,,,,,,,,,,,,,,,199.34616020007525,200.5449073000345,201.34485820005648,201.3286343000364,,,,,,,,,,,,,,,,,,,,,,,,,,,,,,,,,,,201.33466000005137,201.34485820005648,201.34485820005648,202.2619045000756,r,1.0,0.914885999984108,,,,,,sub-125,1,stroop_test,59.825107272945054,
,,,,7.0,7.0,0.0,,,,,,,,,,,,,gelb,yellow,g,1.0,g,1.0,0.5078754000132903,,,,,,,,,,0.0,7.0,7.0,11.0,202.27877700002864,,,,,,,,,,,,,,,,,202.26241660001688,203.461687300005,204.2617501000641,204.2456250000978,,,,,,,,,,,,,,,,,,,,,,,,,,,,,,,,,,,204.2463628000114,204.2617501000641,204.2617501000641,204.77895450009964,g,1.0,0.5078754000132903,,,,,,sub-125,1,stroop_test,59.825107272945054,
,,,,8.0,8.0,0.0,,,,,,,,,,,,,rot,red,r,1.0,r,1.0,0.5194048000266775,,,,,,,,,,0.0,8.0,8.0,0.0,204.79494040005372,,,,,,,,,,,,,,,,,204.77958940004464,205.97836800001096,206.7783895001048,206.76229240000248,,,,,,,,,,,,,,,,,,,,,,,,,,,,,,,,,,,206.76873300003356,206.7783895001048,206.7783895001048,207.3122752000345,r,1.0,0.5194048000266775,,,,,,sub-125,1,stroop_test,59.825107272945054,
,,,,9.0,9.0,0.0,,,,,,,,,,,,,blau,blue,b,1.0,b,1.0,0.573489100090228,,,,,,,,,,0.0,9.0,9.0,5.0,207.3282712000655,,,,,,,,,,,,,,,,,207.31281840009612,207.66163820005025,208.46168410009705,208.4456939001102,,,,,,,,,,,,,,,,,,,,,,,,,,,,,,,,,,,208.4503854000941,208.46168410009705,208.46168410009705,209.04569870000705,b,1.0,0.573489100090228,,,,,,sub-125,1,stroop_test,59.825107272945054,
,,,,10.0,10.0,0.0,,,,,,,,,,,,,blau,yellow,g,0.0,g,1.0,0.6807818999513984,,,,,,,,,,0.0,10.0,10.0,7.0,209.0616630000295,,,,,,,,,,,,,,,,,209.0463405000046,209.3950482000364,210.19505980005488,210.17879990010988,,,,,,,,,,,,,,,,,,,,,,,,,,,,,,,,,,,210.17949670006053,210.19505980005488,210.19505980005488,210.8790742000565,g,1.0,0.6807818999513984,,,,,,sub-125,1,stroop_test,59.825107272945054,
,,,,11.0,11.0,0.0,,,,,,,,,,,,,blau,red,r,0.0,r,1.0,0.7844624000135809,,,,,,,,,,0.0,11.0,11.0,4.0,210.89477830007672,,,,,,,,,,,,,,,,,210.8796268000733,210.9781364001101,211.7783921000082,211.76229810004588,,,,,,,,,,,,,,,,,,,,,,,,,,,,,,,,,,,211.76299810002087,211.7783921000082,211.7783921000082,212.5788564000977,r,1.0,0.7844624000135809,,,,,,sub-125,1,stroop_test,59.825107272945054,
,,,,12.0,0.0,1.0,,,,,,,,,,,,,gelb,yellow,g,1.0,g,1.0,0.7603310999693349,,,,,,,,,,1.0,0.0,12.0,10.0,212.5951637000544,,,,,,,,,,,,,,,,,212.57952350005507,212.67838110006412,213.4781023000833,213.4623220000649,,,,,,,,,,,,,,,,,,,,,,,,,,,,,,,,,,,213.46749040007128,213.4781023000833,213.4781023000833,214.24573840002995,g,1.0,0.7603310999693349,,,,,,sub-125,1,stroop_test,59.825107272945054,
,,,,13.0,1.0,1.0,,,,,,,,,,,,,blau,red,r,0.0,r,1.0,0.770228200010024,,,,,,,,,,1.0,1.0,13.0,4.0,214.2617303000297,,,,,,,,,,,,,,,,,214.24645120010248,215.44515990000215,216.2449574000202,216.2293079000665,,,,,,,,,,,,,,,,,,,,,,,,,,,,,,,,,,,216.23447990010027,216.2449574000202,216.2449574000202,217.0290477001108,r,1.0,0.770228200010024,,,,,,sub-125,1,stroop_test,59.825107272945054,
,,,,14.0,2.0,1.0,,,,,,,,,,,,,gelb,yellow,g,1.0,g,1.0,0.6470188000239432,,,,,,,,,,1.0,2.0,14.0,11.0,217.04509790008888,,,,,,,,,,,,,,,,,217.0295515001053,218.2284119001124,219.0283021000214,219.0124237000709,,,,,,,,,,,,,,,,,,,,,,,,,,,,,,,,,,,219.01845770003277,219.0283021000214,219.0283021000214,219.67898000008427,g,1.0,0.6470188000239432,,,,,,sub-125,1,stroop_test,59.825107272945054,
,,,,15.0,3.0,1.0,,,,,,,,,,,,,blau,blue,b,1.0,b,1.0,0.6296704000560567,,,,,,,,,,1.0,3.0,15.0,5.0,219.69498750008643,,,,,,,,,,,,,,,,,219.67951530008577,220.478499900084,221.27866440010257,221.26263770007063,,,,,,,,,,,,,,,,,,,,,,,,,,,,,,,,,,,221.2687755000079,221.27866440010257,221.27866440010257,221.91248270007785,b,1.0,0.6296704000560567,,,,,,sub-125,1,stroop_test,59.825107272945054,
,,,,16.0,4.0,1.0,,,,,,,,,,,,,blau,blue,b,1.0,b,1.0,0.7022062999894843,,,,,,,,,,1.0,4.0,16.0,6.0,221.92851630004589,,,,,,,,,,,,,,,,,221.91308930004016,222.71186500007752,223.5124002000084,223.496034800075,,,,,,,,,,,,,,,,,,,,,,,,,,,,,,,,,,,223.4967112001032,223.5124002000084,223.5124002000084,224.22945050010455,b,1.0,0.7022062999894843,,,,,,sub-125,1,stroop_test,59.825107272945054,
,,,,17.0,5.0,1.0,,,,,,,,,,,,,blau,yellow,g,0.0,g,1.0,0.6747835000278428,,,,,,,,,,1.0,5.0,17.0,7.0,224.2452356000431,,,,,,,,,,,,,,,,,224.2300866000587,224.3452193000121,225.14491800009276,225.12911770003848,,,,,,,,,,,,,,,,,,,,,,,,,,,,,,,,,,,225.1298576000845,225.14491800009276,225.14491800009276,225.82927460002247,g,1.0,0.6747835000278428,,,,,,sub-125,1,stroop_test,59.825107272945054,
,,,,18.0,6.0,1.0,,,,,,,,,,,,,rot,blue,b,0.0,b,1.0,0.7324649998918176,,,,,,,,,,1.0,6.0,18.0,2.0,225.8449029000476,,,,,,,,,,,,,,,,,225.82981040002775,226.1785439000232,226.9783317000838,226.96266620000824,,,,,,,,,,,,,,,,,,,,,,,,,,,,,,,,,,,226.9678041000152,226.9783317000838,226.9783317000838,227.7127879000036,b,1.0,0.7324649998918176,,,,,,sub-125,1,stroop_test,59.825107272945054,
,,,,19.0,7.0,1.0,,,,,,,,,,,,,gelb,red,r,0.0,r,1.0,0.6267285000067204,,,,,,,,,,1.0,7.0,19.0,8.0,227.7285796001088,,,,,,,,,,,,,,,,,227.7133592000464,227.81201730004975,228.61194400000383,228.59604250011037,,,,,,,,,,,,,,,,,,,,,,,,,,,,,,,,,,,228.603179100086,228.61194400000383,228.61194400000383,229.24607370002195,r,1.0,0.6267285000067204,,,,,,sub-125,1,stroop_test,59.825107272945054,
,,,,20.0,8.0,1.0,,,,,,,,,,,,,gelb,blue,b,0.0,b,1.0,0.8729442999465391,,,,,,,,,,1.0,8.0,20.0,9.0,229.2619162000483,,,,,,,,,,,,,,,,,229.2466223000083,229.3454379000468,230.1452984000789,230.12898170005064,,,,,,,,,,,,,,,,,,,,,,,,,,,,,,,,,,,230.12959280004725,230.1452984000789,230.1452984000789,231.02940200001467,b,1.0,0.8729442999465391,,,,,,sub-125,1,stroop_test,59.825107272945054,
,,,,21.0,9.0,1.0,,,,,,,,,,,,,rot,yellow,g,0.0,g,1.0,0.4596513999858871,,,,,,,,,,1.0,9.0,21.0,3.0,231.04528290010057,,,,,,,,,,,,,,,,,231.0300350000616,232.2286385000916,233.0295993000036,233.01290860003792,,,,,,,,,,,,,,,,,,,,,,,,,,,,,,,,,,,233.02047910005783,233.0295993000036,233.0295993000036,233.4965667000506,g,1.0,0.4596513999858871,,,,,,sub-125,1,stroop_test,59.825107272945054,
,,,,22.0,10.0,1.0,,,,,,,,,,,,,rot,red,r,1.0,r,1.0,0.5257651000283659,,,,,,,,,,1.0,10.0,22.0,0.0,233.511821800028,,,,,,,,,,,,,,,,,233.49710530007724,234.3121324001113,235.112188900006,235.09600330004469,,,,,,,,,,,,,,,,,,,,,,,,,,,,,,,,,,,235.09669780009423,235.112188900006,235.112188900006,235.64606670010835,r,1.0,0.5257651000283659,,,,,,sub-125,1,stroop_test,59.825107272945054,
,,,,23.0,11.0,1.0,,,,,,,,,,,,,rot,red,r,1.0,r,1.0,0.6373997000046074,,,,,,,,,,1.0,11.0,23.0,1.0,235.66216669999997,,,,,,,,,,,,,,,,,235.6472872000886,236.44542030000596,237.24553410010407,237.22964090004095,,,,,,,,,,,,,,,,,,,,,,,,,,,,,,,,,,,237.23033410008065,237.24553410010407,237.24553410010407,237.8962109000422,r,1.0,0.6373997000046074,,,,,,sub-125,1,stroop_test,59.825107272945054,
,,,,24.0,0.0,2.0,,,,,,,,,,,,,blau,blue,b,1.0,b,1.0,0.5932332000229508,,,,,,,,,,2.0,0.0,24.0,5.0,237.9121365000028,,,,,,,,,,,,,,,,,237.89672390010676,238.69546320009977,239.49561870004985,239.4795381000731,,,,,,,,,,,,,,,,,,,,,,,,,,,,,,,,,,,239.48566390003543,239.49561870004985,239.49561870004985,240.0960972000612,b,1.0,0.5932332000229508,,,,,,sub-125,1,stroop_test,59.825107272945054,
,,,,25.0,1.0,2.0,,,,,,,,,,,,,blau,red,r,0.0,r,1.0,0.868761399993673,,,,,,,,,,2.0,1.0,25.0,4.0,240.11189970001575,,,,,,,,,,,,,,,,,240.0966480000643,241.2956148000667,242.0955927000614,242.07938570005356,,,,,,,,,,,,,,,,,,,,,,,,,,,,,,,,,,,242.08008680003692,242.0955927000614,242.0955927000614,242.9795748000033,r,1.0,0.868761399993673,,,,,,sub-125,1,stroop_test,59.825107272945054,
,,,,26.0,2.0,2.0,,,,,,,,,,,,,gelb,yellow,g,1.0,g,1.0,0.6641976000973955,,,,,,,,,,2.0,2.0,26.0,11.0,242.99545940000095,,,,,,,,,,,,,,,,,242.9801037000725,243.0787602000637,243.8788281000452,243.86275020008907,,,,,,,,,,,,,,,,,,,,,,,,,,,,,,,,,,,243.8681075000204,243.8788281000452,243.8788281000452,244.54597390000708,g,1.0,0.6641976000973955,,,,,,sub-125,1,stroop_test,59.825107272945054,
,,,,27.0,3.0,2.0,,,,,,,,,,,,,rot,red,r,1.0,r,1.0,0.5422194000566378,,,,,,,,,,2.0,3.0,27.0,1.0,244.56212960009,,,,,,,,,,,,,,,,,244.54658310010564,245.345547700068,246.14530610002112,246.12943760002963,,,,,,,,,,,,,,,,,,,,,,,,,,,,,,,,,,,246.13498750003052,246.14530610002112,246.14530610002112,246.69639730011116,r,1.0,0.5422194000566378,,,,,,sub-125,1,stroop_test,59.825107272945054,
,,,,28.0,4.0,2.0,,,,,,,,,,,,,gelb,red,r,0.0,r,1.0,0.5928512000245973,,,,,,,,,,2.0,4.0,28.0,8.0,246.71225610002875,,,,,,,,,,,,,,,,,246.6969839000376,246.7958811999997,247.59639880002945,247.57937280007167,,,,,,,,,,,,,,,,,,,,,,,,,,,,,,,,,,,247.5852465000935,247.59639880002945,247.59639880002945,248.1962282001041,r,1.0,0.5928512000245973,,,,,,sub-125,1,stroop_test,59.825107272945054,
,,,,29.0,5.0,2.0,,,,,,,,,,,,,blau,blue,b,1.0,b,1.0,0.5521039000013843,,,,,,,,,,2.0,5.0,29.0,6.0,248.21204810007475,,,,,,,,,,,,,,,,,248.19672560004983,249.39561460004188,250.19569560000676,250.1795754000777,,,,,,,,,,,,,,,,,,,,,,,,,,,,,,,,,,,250.1847301000962,250.19569560000676,250.19569560000676,250.76635340007488,b,1.0,0.5521039000013843,,,,,,sub-125,1,stroop_test,59.825107272945054,
,,,,30.0,6.0,2.0,,,,,,,,,,,,,gelb,blue,b,0.0,b,1.0,0.7404896999942139,,,,,,,,,,2.0,6.0,30.0,9.0,250.77885460003745,,,,,,,,,,,,,,,,,250.7668328,250.8789417000953,251.67893190006723,251.66289250005505,,,,,,,,,,,,,,,,,,,,,,,,,,,,,,,,,,,251.66923740005583,251.67893190006723,251.67893190006723,252.42968060006388,b,1.0,0.7404896999942139,,,,,,sub-125,1,stroop_test,59.825107272945054,
,,,,31.0,7.0,2.0,,,,,,,,,,,,,rot,yellow,g,0.0,g,1.0,0.4646427000407129,,,,,,,,,,2.0,7.0,31.0,3.0,252.44557840004563,,,,,,,,,,,,,,,,,252.4302847000072,253.2288816000801,254.02910820010584,254.01297390006948,,,,,,,,,,,,,,,,,,,,,,,,,,,,,,,,,,,254.01828210009265,254.02910820010584,254.02910820010584,254.4960962000769,g,1.0,0.4646427000407129,,,,,,sub-125,1,stroop_test,59.825107272945054,
,,,,32.0,8.0,2.0,,,,,,,,,,,,,blau,yellow,g,0.0,g,1.0,0.5912993000820279,,,,,,,,,,2.0,8.0,32.0,7.0,254.51229510002304,,,,,,,,,,,,,,,,,254.49668270000257,255.29565990006083,256.0958274001023,256.0796386000002,,,,,,,,,,,,,,,,,,,,,,,,,,,,,,,,,,,256.0847909000004,256.0958274001023,256.0958274001023,256.69635610003024,g,1.0,0.5912993000820279,,,,,,sub-125,1,stroop_test,59.825107272945054,
,,,,33.0,9.0,2.0,,,,,,,,,,,,,rot,blue,b,0.0,b,1.0,0.8242843999760225,,,,,,,,,,2.0,9.0,33.0,2.0,256.7124118000502,,,,,,,,,,,,,,,,,256.6968762000324,257.89567730005365,258.69578480010387,258.679831400048,,,,,,,,,,,,,,,,,,,,,,,,,,,,,,,,,,,258.68629400001373,258.69578480010387,258.69578480010387,259.53010580001865,b,1.0,0.8242843999760225,,,,,,sub-125,1,stroop_test,59.825107272945054,
,,,,34.0,10.0,2.0,,,,,,,,,,,,,gelb,yellow,g,1.0,g,1.0,0.6466700000455603,,,,,,,,,,2.0,10.0,34.0,10.0,259.5457193000475,,,,,,,,,,,,,,,,,259.53066210006364,259.6457250000676,260.44678610004485,260.429568600026,,,,,,,,,,,,,,,,,,,,,,,,,,,,,,,,,,,260.4351937000174,260.44678610004485,260.44678610004485,261.09611050004605,g,1.0,0.6466700000455603,,,,,,sub-125,1,stroop_test,59.825107272945054,
,,,,35.0,11.0,2.0,,,,,,,,,,,,,rot,red,r,1.0,r,1.0,0.5565766000654548,,,,,,,,,,2.0,11.0,35.0,0.0,261.112343100016,,,,,,,,,,,,,,,,,261.09663050004747,261.1955757000251,262.00058460002765,261.9801612000447,,,,,,,,,,,,,,,,,,,,,,,,,,,,,,,,,,,261.9865911001107,262.00058460002765,262.00058460002765,262.56316010002047,r,1.0,0.5565766000654548,,,,,,sub-125,1,stroop_test,59.825107272945054,
,,,,36.0,0.0,3.0,,,,,,,,,,,,,blau,red,r,0.0,r,1.0,0.528719799942337,,,,,,,,,,3.0,0.0,36.0,4.0,262.57904229999986,,,,,,,,,,,,,,,,,262.56376920000184,262.6790698000696,263.4791793000186,263.46365430008154,,,,,,,,,,,,,,,,,,,,,,,,,,,,,,,,,,,263.468462400022,263.4791793000186,263.4791793000186,264.01316460000817,r,1.0,0.528719799942337,,,,,,sub-125,1,stroop_test,59.825107272945054,
,,,,37.0,1.0,3.0,,,,,,,,,,,,,rot,yellow,g,0.0,g,1.0,0.9086126000620424,,,,,,,,,,3.0,1.0,37.0,3.0,264.02910790010355,,,,,,,,,,,,,,,,,264.0136846000096,264.3624212000286,265.1623747000704,265.1463962000562,,,,,,,,,,,,,,,,,,,,,,,,,,,,,,,,,,,265.15252920007333,265.1623747000704,265.1623747000704,266.0798688000068,g,1.0,0.9086126000620424,,,,,,sub-125,1,stroop_test,59.825107272945054,
,,,,38.0,2.0,3.0,,,,,,,,,,,,,blau,blue,b,1.0,b,1.0,0.5331408999627456,,,,,,,,,,3.0,2.0,38.0,6.0,266.0959150000708,,,,,,,,,,,,,,,,,266.08045390003826,267.2952903000405,268.09595470002387,268.0799627000233,,,,,,,,,,,,,,,,,,,,,,,,,,,,,,,,,,,268.0856832000427,268.09595470002387,268.09595470002387,268.6299939000746,b,1.0,0.5331408999627456,,,,,,sub-125,1,stroop_test,59.825107272945054,
,,,,39.0,3.0,3.0,,,,,,,,,,,,,rot,red,r,1.0,r,1.0,0.5313621000386775,,,,,,,,,,3.0,3.0,39.0,1.0,268.64582810003776,,,,,,,,,,,,,,,,,268.6305198000045,269.4289836001117,270.22931570000947,270.21325350005645,,,,,,,,,,,,,,,,,,,,,,,,,,,,,,,,,,,270.22035990003496,270.22931570000947,270.22931570000947,270.7630403001094,r,1.0,0.5313621000386775,,,,,,sub-125,1,stroop_test,59.825107272945054,
,,,,40.0,4.0,3.0,,,,,,,,,,,,,rot,blue,b,0.0,b,1.0,0.8488910000305623,,,,,,,,,,3.0,4.0,40.0,2.0,270.7792105000699,,,,,,,,,,,,,,,,,270.7635600001085,271.1124665000243,271.9125645000022,271.8963771000272,,,,,,,,,,,,,,,,,,,,,,,,,,,,,,,,,,,271.8970031000208,271.9125645000022,271.9125645000022,272.76340970001183,b,1.0,0.8488910000305623,,,,,,sub-125,1,stroop_test,59.825107272945054,
,,,,41.0,5.0,3.0,,,,,,,,,,,,,blau,yellow,g,0.0,g,1.0,0.7479881000472233,,,,,,,,,,3.0,5.0,41.0,7.0,272.779255200061,,,,,,,,,,,,,,,,,272.76392480009235,273.11259220005013,273.9126167000504,273.89634970005136,,,,,,,,,,,,,,,,,,,,,,,,,,,,,,,,,,,273.90147969999816,273.9126167000504,273.9126167000504,274.66295140003785,g,1.0,0.7479881000472233,,,,,,sub-125,1,stroop_test,59.825107272945054,
,,,,42.0,6.0,3.0,,,,,,,,,,,,,gelb,yellow,g,1.0,g,1.0,0.528148700017482,,,,,,,,,,3.0,6.0,42.0,11.0,274.6792405000888,,,,,,,,,,,,,,,,,274.66348800004926,274.76245860010386,275.5625942000188,275.54657940007746,,,,,,,,,,,,,,,,,,,,,,,,,,,,,,,,,,,275.55223030003253,275.5625942000188,275.5625942000188,276.0967334000161,g,1.0,0.528148700017482,,,,,,sub-125,1,stroop_test,59.825107272945054,
,,,,43.0,7.0,3.0,,,,,,,,,,,,,gelb,yellow,g,1.0,g,1.0,0.4783042999915778,,,,,,,,,,3.0,7.0,43.0,10.0,276.1125830000965,,,,,,,,,,,,,,,,,276.09726420009974,276.44662570010405,277.2459801000077,277.2298158000922,,,,,,,,,,,,,,,,,,,,,,,,,,,,,,,,,,,277.23056700010784,277.2459801000077,277.2459801000077,277.7300198000157,g,1.0,0.4783042999915778,,,,,,sub-125,1,stroop_test,59.825107272945054,
,,,,44.0,8.0,3.0,,,,,,,,,,,,,gelb,blue,b,0.0,b,1.0,0.5570090000983328,,,,,,,,,,3.0,8.0,44.0,9.0,277.7459433000768,,,,,,,,,,,,,,,,,277.73053280008025,278.92938280000817,279.72956650005654,279.7133564000251,,,,,,,,,,,,,,,,,,,,,,,,,,,,,,,,,,,279.7140238001012,279.72956650005654,279.72956650005654,280.29674110002816,b,1.0,0.5570090000983328,,,,,,sub-125,1,stroop_test,59.825107272945054,
,,,,45.0,9.0,3.0,,,,,,,,,,,,,gelb,red,r,0.0,r,1.0,0.642531199962832,,,,,,,,,,3.0,9.0,45.0,8.0,280.3126369001111,,,,,,,,,,,,,,,,,280.2973302000901,280.41266120004,281.2127260999987,281.19648050004616,,,,,,,,,,,,,,,,,,,,,,,,,,,,,,,,,,,281.1970819000853,281.2127260999987,281.2127260999987,281.8634733000072,r,1.0,0.642531199962832,,,,,,sub-125,1,stroop_test,59.825107272945054,
,,,,46.0,10.0,3.0,,,,,,,,,,,,,rot,red,r,1.0,r,1.0,0.3513954000081867,,,,,,,,,,3.0,10.0,46.0,0.0,281.8793024000479,,,,,,,,,,,,,,,,,281.8639919999987,282.66268130007666,283.4627820000751,283.4466880001128,,,,,,,,,,,,,,,,,,,,,,,,,,,,,,,,,,,283.45320410002023,283.4627820000751,283.4627820000751,283.8302222000202,r,1.0,0.3513954000081867,,,,,,sub-125,1,stroop_test,59.825107272945054,
,,,,47.0,11.0,3.0,,,,,,,,,,,,,blau,blue,b,1.0,b,1.0,0.5613213001051918,,,,,,,,,,3.0,11.0,47.0,5.0,283.84600750007667,,,,,,,,,,,,,,,,,283.8308599001029,283.92937900009565,284.7293487000279,284.7132702000672,,,,,,,,,,,,,,,,,,,,,,,,,,,,,,,,,,,284.7182038000319,284.7293487000279,284.7293487000279,285.2968029000331,b,1.0,0.5613213001051918,,,,,,sub-125,1,stroop_test,59.825107272945054,
,,,,48.0,0.0,4.0,,,,,,,,,,,,,gelb,blue,b,0.0,b,1.0,0.4510292999912053,,,,,,,,,,4.0,0.0,48.0,9.0,285.31270270003006,,,,,,,,,,,,,,,,,285.29739310010336,285.39638260006905,286.19610230007675,286.1796761000296,,,,,,,,,,,,,,,,,,,,,,,,,,,,,,,,,,,286.1861679001013,286.19610230007675,286.19610230007675,286.6631036000326,b,1.0,0.4510292999912053,,,,,,sub-125,1,stroop_test,59.825107272945054,
,,,,49.0,1.0,4.0,,,,,,,,,,,,,gelb,red,r,0.0,r,1.0,0.6129321999615058,,,,,,,,,,4.0,1.0,49.0,8.0,286.6789523001062,,,,,,,,,,,,,,,,,286.6636304000858,287.0128005000297,287.8127763000084,287.7966937000165,,,,,,,,,,,,,,,,,,,,,,,,,,,,,,,,,,,287.79747360001784,287.8127763000084,287.8127763000084,288.43017639999744,r,1.0,0.6129321999615058,,,,,,sub-125,1,stroop_test,59.825107272945054,
,,,,50.0,2.0,4.0,,,,,,,,,,,,,rot,blue,b,0.0,b,1.0,0.6615463000489399,,,,,,,,,,4.0,2.0,50.0,2.0,288.4461195000913,,,,,,,,,,,,,,,,,288.4306983000133,289.2459421000676,290.04553520004265,290.0294245000696,,,,,,,,,,,,,,,,,,,,,,,,,,,,,,,,,,,290.0367888000328,290.04553520004265,290.04553520004265,290.7131946000736,b,1.0,0.6615463000489399,,,,,,sub-125,1,stroop_test,59.825107272945054,
,,,,51.0,3.0,4.0,,,,,,,,,,,,,blau,blue,b,1.0,b,1.0,0.5431515999371186,,,,,,,,,,4.0,3.0,51.0,6.0,290.72930280002765,,,,,,,,,,,,,,,,,290.71366640005726,291.5128549000947,292.3128759000683,292.2967364001088,,,,,,,,,,,,,,,,,,,,,,,,,,,,,,,,,,,292.3014063000446,292.3128759000683,292.3128759000683,292.8635770000983,b,1.0,0.5431515999371186,,,,,,sub-125,1,stroop_test,59.825107272945054,
,,,,52.0,4.0,4.0,,,,,,,,,,,,,blau,blue,b,1.0,b,1.0,0.5422153000254184,,,,,,,,,,4.0,4.0,52.0,5.0,292.8794697000412,,,,,,,,,,,,,,,,,292.8641726000933,294.06273660005536,294.86296910000965,294.8468992999988,,,,,,,,,,,,,,,,,,,,,,,,,,,,,,,,,,,294.84772700001486,294.86296910000965,294.86296910000965,295.41365020000376,b,1.0,0.5422153000254184,,,,,,sub-125,1,stroop_test,59.825107272945054,
,,,,53.0,5.0,4.0,,,,,,,,,,,,,gelb,yellow,g,1.0,g,1.0,0.522235699929297,,,,,,,,,,4.0,5.0,53.0,11.0,295.42971400008537,,,,,,,,,,,,,,,,,295.41488460008986,296.6129402000224,297.41277140006423,297.39671940007247,,,,,,,,,,,,,,,,,,,,,,,,,,,,,,,,,,,297.40350820007734,297.41277140006423,297.41277140006423,297.94663190003484,g,1.0,0.522235699929297,,,,,,sub-125,1,stroop_test,59.825107272945054,
,,,,54.0,6.0,4.0,,,,,,,,,,,,,blau,yellow,g,0.0,g,1.0,0.4842238998971879,,,,,,,,,,4.0,6.0,54.0,7.0,297.9628237000434,,,,,,,,,,,,,,,,,297.9471704000607,298.7462433000328,299.5463399,299.5301052000141,,,,,,,,,,,,,,,,,,,,,,,,,,,,,,,,,,,299.5354047000874,299.5463399,299.5463399,300.0309925000184,g,1.0,0.4842238998971879,,,,,,sub-125,1,stroop_test,59.825107272945054,
,,,,55.0,7.0,4.0,,,,,,,,,,,,,rot,red,r,1.0,r,1.0,0.5724790999665856,,,,,,,,,,4.0,7.0,55.0,1.0,300.046239700052,,,,,,,,,,,,,,,,,300.03150760009885,300.8463063000236,301.64663250010926,301.6303611000767,,,,,,,,,,,,,,,,,,,,,,,,,,,,,,,,,,,301.6363469000207,301.64663250010926,301.64663250010926,302.23011110001244,r,1.0,0.5724790999665856,,,,,,sub-125,1,stroop_test,59.825107272945054,
,,,,56.0,8.0,4.0,,,,,,,,,,,,,blau,red,r,0.0,r,1.0,0.5841636001132429,,,,,,,,,,4.0,8.0,56.0,4.0,302.2458724000025,,,,,,,,,,,,,,,,,302.2307906000642,303.4296947000548,304.22981820011046,304.2135832000058,,,,,,,,,,,,,,,,,,,,,,,,,,,,,,,,,,,304.2187697000336,304.22981820011046,304.22981820011046,304.8305575000122,r,1.0,0.5841636001132429,,,,,,sub-125,1,stroop_test,59.825107272945054,
,,,,57.0,9.0,4.0,,,,,,,,,,,,,rot,red,r,1.0,r,1.0,0.6352457000175491,,,,,,,,,,4.0,9.0,57.0,0.0,304.8463838000316,,,,,,,,,,,,,,,,,304.831179000088,305.1793729000492,305.97966480010655,305.9635405000299,,,,,,,,,,,,,,,,,,,,,,,,,,,,,,,,,,,305.96903110004496,305.97966480010655,305.97966480010655,306.6302037000424,r,1.0,0.6352457000175491,,,,,,sub-125,1,stroop_test,59.825107272945054,
,,,,58.0,10.0,4.0,,,,,,,,,,,,,rot,yellow,g,0.0,g,1.0,0.5434960999991745,,,,,,,,,,4.0,10.0,58.0,3.0,306.6463731001131,,,,,,,,,,,,,,,,,306.63077960000373,307.8297690000618,308.6298509000335,308.6134360000724,,,,,,,,,,,,,,,,,,,,,,,,,,,,,,,,,,,308.6144148000749,308.6298509000335,308.6298509000335,309.1804472000804,g,1.0,0.5434960999991745,,,,,,sub-125,1,stroop_test,59.825107272945054,
,,,,59.0,11.0,4.0,,,,,,,,,,,,,gelb,yellow,g,1.0,g,1.0,0.4036215000087395,,,,,,,,,,4.0,11.0,59.0,10.0,309.19641020009294,,,,,,,,,,,,,,,,,309.1810485000024,309.9798559000483,310.7798493000446,310.7638734000502,,,,,,,,,,,,,,,,,,,,,,,,,,,,,,,,,,,310.76991930010263,310.7798493000446,310.7798493000446,311.1971963000251,g,1.0,0.4036215000087395,,,,,,sub-125,1,stroop_test,59.825107272945054,
,,,,60.0,0.0,5.0,,,,,,,,,,,,,blau,red,r,0.0,r,1.0,0.748656899901107,,,,,,,,,,5.0,0.0,60.0,4.0,311.21317350002937,,,,,,,,,,,,,,,,,311.19785510003567,312.3965149000287,313.1967244000407,313.18057020008564,,,,,,,,,,,,,,,,,,,,,,,,,,,,,,,,,,,313.1855797000462,313.1967244000407,313.1967244000407,313.94719540001824,r,1.0,0.748656899901107,,,,,,sub-125,1,stroop_test,59.825107272945054,
,,,,61.0,1.0,5.0,,,,,,,,,,,,,gelb,red,r,0.0,r,1.0,0.4247980999061838,,,,,,,,,,5.0,1.0,61.0,8.0,313.9629264000105,,,,,,,,,,,,,,,,,313.9477057000622,314.2965671001002,315.0964170000516,315.0803540000925,,,,,,,,,,,,,,,,,,,,,,,,,,,,,,,,,,,315.08516400004737,315.0964170000516,315.0964170000516,315.53059320000466,r,1.0,0.4247980999061838,,,,,,sub-125,1,stroop_test,59.825107272945054,
,,,,62.0,2.0,5.0,,,,,,,,,,,,,blau,blue,b,1.0,b,1.0,0.545321699930355,,,,,,,,,,5.0,2.0,62.0,5.0,315.5464704000624,,,,,,,,,,,,,,,,,315.53114530001767,316.7300688000396,317.5298609000165,317.5139749000082,,,,,,,,,,,,,,,,,,,,,,,,,,,,,,,,,,,317.51919610006735,317.5298609000165,317.5298609000165,318.080443300074,b,1.0,0.545321699930355,,,,,,sub-125,1,stroop_test,59.825107272945054,
,,,,63.0,3.0,5.0,,,,,,,,,,,,,gelb,yellow,g,1.0,g,1.0,0.4518882000120356,,,,,,,,,,5.0,3.0,63.0,11.0,318.0961811000016,,,,,,,,,,,,,,,,,318.0809899000451,318.8799604000524,319.6798652000725,319.6638153000968,,,,,,,,,,,,,,,,,,,,,,,,,,,,,,,,,,,319.66907930001616,319.6798652000725,319.6798652000725,320.14727110008243,g,1.0,0.4518882000120356,,,,,,sub-125,1,stroop_test,59.825107272945054,
,,,,64.0,4.0,5.0,,,,,,,,,,,,,blau,blue,b,1.0,b,1.0,0.5584323999937624,,,,,,,,,,5.0,4.0,64.0,6.0,320.163188100094,,,,,,,,,,,,,,,,,320.1478117000079,320.2466185000958,321.04663630004507,321.0304919000482,,,,,,,,,,,,,,,,,,,,,,,,,,,,,,,,,,,321.03597970004193,321.04663630004507,321.04663630004507,321.61392070003785,b,1.0,0.5584323999937624,,,,,,sub-125,1,stroop_test,59.825107272945054,
,,,,65.0,5.0,5.0,,,,,,,,,,,,,rot,red,r,1.0,r,1.0,0.5547931999899447,,,,,,,,,,5.0,5.0,65.0,1.0,321.6299127000384,,,,,,,,,,,,,,,,,321.61445890006144,321.713193600066,322.51357530010864,322.4972604000941,,,,,,,,,,,,,,,,,,,,,,,,,,,,,,,,,,,322.50243580003735,322.51357530010864,322.51357530010864,323.0806409000652,r,1.0,0.5547931999899447,,,,,,sub-125,1,stroop_test,59.825107272945054,
,,,,66.0,6.0,5.0,,,,,,,,,,,,,gelb,yellow,g,1.0,g,1.0,0.4591893999604508,,,,,,,,,,5.0,6.0,66.0,10.0,323.0966408000095,,,,,,,,,,,,,,,,,323.0812742999988,324.2799359000055,325.0802412000485,325.0639895000495,,,,,,,,,,,,,,,,,,,,,,,,,,,,,,,,,,,325.06972400005907,325.0802412000485,325.0802412000485,325.54760450008325,g,1.0,0.4591893999604508,,,,,,sub-125,1,stroop_test,59.825107272945054,
,,,,67.0,7.0,5.0,,,,,,,,,,,,,rot,blue,b,0.0,b,1.0,0.7870874999789521,,,,,,,,,,5.0,7.0,67.0,2.0,325.5631921000313,,,,,,,,,,,,,,,,,325.548130900017,326.36326610005926,327.1634542000247,327.14740510005504,,,,,,,,,,,,,,,,,,,,,,,,,,,,,,,,,,,327.1534107000334,327.1634542000247,327.1634542000247,327.96401910006534,b,1.0,0.7870874999789521,,,,,,sub-125,1,stroop_test,59.825107272945054,
,,,,68.0,8.0,5.0,,,,,,,,,,,,,gelb,blue,b,0.0,b,1.0,0.4447084000566974,,,,,,,,,,5.0,8.0,68.0,9.0,327.97991630004253,,,,,,,,,,,,,,,,,327.9647266000975,328.06334030011203,328.86339210008737,328.8473608000204,,,,,,,,,,,,,,,,,,,,,,,,,,,,,,,,,,,328.8527910000412,328.86339210008737,328.86339210008737,329.314028599998,b,1.0,0.4447084000566974,,,,,,sub-125,1,stroop_test,59.825107272945054,
,,,,69.0,9.0,5.0,,,,,,,,,,,,,rot,yellow,g,0.0,g,1.0,0.7521049999631941,,,,,,,,,,5.0,9.0,69.0,3.0,329.3300743000582,,,,,,,,,,,,,,,,,329.3146402999992,329.4133922000183,330.21320150000975,330.1964709000895,,,,,,,,,,,,,,,,,,,,,,,,,,,,,,,,,,,330.20120490004774,330.21320150000975,330.21320150000975,330.9806879000971,g,1.0,0.7521049999631941,,,,,,sub-125,1,stroop_test,59.825107272945054,
,,,,70.0,10.0,5.0,,,,,,,,,,,,,rot,red,r,1.0,r,1.0,0.605229000095278,,,,,,,,,,5.0,10.0,70.0,0.0,330.9967426001094,,,,,,,,,,,,,,,,,330.98122670000885,332.18025890004355,332.98022390005644,332.9641926001059,,,,,,,,,,,,,,,,,,,,,,,,,,,,,,,,,,,332.9653265000088,332.98022390005644,332.98022390005644,333.5978413000703,r,1.0,0.605229000095278,,,,,,sub-125,1,stroop_test,59.825107272945054,
,,,,71.0,11.0,5.0,,,,,,,,,,,,,blau,yellow,g,0.0,g,1.0,0.6684685000218451,,,,,,,,,,5.0,11.0,71.0,7.0,333.6134050000692,,,,,,,,,,,,,,,,,333.59842530009337,334.4135017000372,335.2135506001068,335.19753150001634,,,,,,,,,,,,,,,,,,,,,,,,,,,,,,,,,,,335.2028200000059,335.2135506001068,335.2135506001068,335.89749950007536,g,1.0,0.6684685000218451,,,,,,sub-125,1,stroop_test,59.825107272945054,
,,,,72.0,0.0,6.0,,,,,,,,,,,,,blau,yellow,g,0.0,g,1.0,0.4969114999985322,,,,,,,,,,6.0,0.0,72.0,7.0,335.91347170004155,,,,,,,,,,,,,,,,,335.898014800041,335.9966272000456,336.79712330002803,336.7804267000174,,,,,,,,,,,,,,,,,,,,,,,,,,,,,,,,,,,336.7810529000126,336.79712330002803,336.79712330002803,337.2975174000021,g,1.0,0.4969114999985322,,,,,,sub-125,1,stroop_test,59.825107272945054,
,,,,73.0,1.0,6.0,,,,,,,,,,,,,gelb,yellow,g,1.0,g,1.0,0.4989130001049489,,,,,,,,,,6.0,1.0,73.0,10.0,337.31344090006314,,,,,,,,,,,,,,,,,337.2980342000956,338.09704660007264,338.89685270003974,338.8806997000938,,,,,,,,,,,,,,,,,,,,,,,,,,,,,,,,,,,338.8860353000928,338.89685270003974,338.89685270003974,339.3977364000166,g,1.0,0.4989130001049489,,,,,,sub-125,1,stroop_test,59.825107272945054,
,,,,74.0,2.0,6.0,,,,,,,,,,,,,rot,blue,b,0.0,b,1.0,0.8359354001004249,,,,,,,,,,6.0,2.0,74.0,2.0,339.4134480000939,,,,,,,,,,,,,,,,,339.3982545000036,340.19681610004045,340.9968568000477,340.9807270000456,,,,,,,,,,,,,,,,,,,,,,,,,,,,,,,,,,,340.987405700027,340.9968568000477,340.9968568000477,341.84725000010803,b,1.0,0.8359354001004249,,,,,,sub-125,1,stroop_test,59.825107272945054,
,,,,75.0,3.0,6.0,,,,,,,,,,,,,rot,red,r,1.0,r,1.0,0.7526551999617368,,,,,,,,,,6.0,3.0,75.0,1.0,341.86358640005346,,,,,,,,,,,,,,,,,341.84777150000446,341.946978699998,342.7468728000531,342.7308399000904,,,,,,,,,,,,,,,,,,,,,,,,,,,,,,,,,,,342.7315957000246,342.7468728000531,342.7468728000531,343.51421090005897,r,1.0,0.7526551999617368,,,,,,sub-125,1,stroop_test,59.825107272945054,
,,,,76.0,4.0,6.0,,,,,,,,,,,,,rot,yellow,g,0.0,g,1.0,0.6891403999179602,,,,,,,,,,6.0,4.0,76.0,3.0,343.53030600002967,,,,,,,,,,,,,,,,,343.5150737001095,343.8635646000039,344.6635881999973,344.64749230002053,,,,,,,,,,,,,,,,,,,,,,,,,,,,,,,,,,,344.6483043000335,344.6635881999973,344.6635881999973,345.3643068000674,g,1.0,0.6891403999179602,,,,,,sub-125,1,stroop_test,59.825107272945054,
,,,,77.0,5.0,6.0,,,,,,,,,,,,,gelb,blue,b,0.0,b,1.0,0.9176884000189602,,,,,,,,,,6.0,5.0,77.0,9.0,345.380272300099,,,,,,,,,,,,,,,,,345.3648833000334,345.4636088000844,346.26362570002675,346.2474689000519,,,,,,,,,,,,,,,,,,,,,,,,,,,,,,,,,,,346.25415920000523,346.26362570002675,346.26362570002675,347.1976317000808,b,1.0,0.9176884000189602,,,,,,sub-125,1,stroop_test,59.825107272945054,
,,,,78.0,6.0,6.0,,,,,,,,,,,,,gelb,red,r,0.0,r,1.0,0.9136878000572324,,,,,,,,,,6.0,6.0,78.0,8.0,347.21345770009793,,,,,,,,,,,,,,,,,347.1981188000645,347.54693800001405,348.34701760008465,348.33094760007225,,,,,,,,,,,,,,,,,,,,,,,,,,,,,,,,,,,348.33172770007513,348.34701760008465,348.34701760008465,349.2644687000429,r,1.0,0.9136878000572324,,,,,,sub-125,1,stroop_test,59.825107272945054,
,,,,79.0,7.0,6.0,,,,,,,,,,,,,blau,blue,b,1.0,b,1.0,0.6343514999607578,,,,,,,,,,6.0,7.0,79.0,6.0,349.28026360005606,,,,,,,,,,,,,,,,,349.2650832000654,349.6303916000761,350.4303427000996,350.41426700004376,,,,,,,,,,,,,,,,,,,,,,,,,,,,,,,,,,,350.41931450006086,350.4303427000996,350.4303427000996,351.08090520009864,b,1.0,0.6343514999607578,,,,,,sub-125,1,stroop_test,59.825107272945054,
,,,,80.0,8.0,6.0,,,,,,,,,,,,,gelb,yellow,g,1.0,g,1.0,0.546762700076215,,,,,,,,,,6.0,8.0,80.0,11.0,351.0970485000871,,,,,,,,,,,,,,,,,351.08142830000725,351.1803563000867,351.98012810002547,351.9643232000526,,,,,,,,,,,,,,,,,,,,,,,,,,,,,,,,,,,351.9692318000598,351.98012810002547,351.98012810002547,352.53103670000564,g,1.0,0.546762700076215,,,,,,sub-125,1,stroop_test,59.825107272945054,
,,,,81.0,9.0,6.0,,,,,,,,,,,,,rot,red,r,1.0,r,1.0,0.4807954001007601,,,,,,,,,,6.0,9.0,81.0,0.0,352.5469755000668,,,,,,,,,,,,,,,,,352.53154660004657,353.7303980001016,354.5303440000862,354.51415040006395,,,,,,,,,,,,,,,,,,,,,,,,,,,,,,,,,,,354.51933040004224,354.5303440000862,354.5303440000862,355.0142416000599,r,1.0,0.4807954001007601,,,,,,sub-125,1,stroop_test,59.825107272945054,
,,,,82.0,10.0,6.0,,,,,,,,,,,,,blau,red,r,0.0,r,1.0,0.712776199914515,,,,,,,,,,6.0,10.0,82.0,4.0,355.0304239001125,,,,,,,,,,,,,,,,,355.0147765000584,355.81393190007657,356.6137583000818,356.5978289000923,,,,,,,,,,,,,,,,,,,,,,,,,,,,,,,,,,,356.6022862000391,356.6137583000818,356.6137583000818,357.3311089000199,r,1.0,0.712776199914515,,,,,,sub-125,1,stroop_test,59.825107272945054,
,,,,83.0,11.0,6.0,,,,,,,,,,,,,blau,blue,b,1.0,b,1.0,0.6244366000173613,,,,,,,,,,6.0,11.0,83.0,5.0,357.34712400008,,,,,,,,,,,,,,,,,357.3316840000916,358.53034000005573,359.3305964000756,359.3143882000586,,,,,,,,,,,,,,,,,,,,,,,,,,,,,,,,,,,359.31517460010946,359.3305964000756,359.3305964000756,359.96456040011253,b,1.0,0.6244366000173613,,,,,,sub-125,1,stroop_test,59.825107272945054,
,,,,84.0,0.0,7.0,,,,,,,,,,,,,blau,blue,b,1.0,b,1.0,0.4419664000160992,,,,,,,,,,7.0,0.0,84.0,5.0,359.9804509000387,,,,,,,,,,,,,,,,,359.9651797000552,360.06355990003794,360.863834900083,360.8477548001101,,,,,,,,,,,,,,,,,,,,,,,,,,,,,,,,,,,360.84840460005216,360.863834900083,360.863834900083,361.3145327001112,b,1.0,0.4419664000160992,,,,,,sub-125,1,stroop_test,59.825107272945054,
,,,,85.0,1.0,7.0,,,,,,,,,,,,,rot,yellow,g,0.0,g,1.0,0.5101200999924913,,,,,,,,,,7.0,1.0,85.0,3.0,361.3304764000932,,,,,,,,,,,,,,,,,361.3150958000915,361.41410790011287,362.2960358000128,362.1973990000552,,,,,,,,,,,,,,,,,,,,,,,,,,,,,,,,,,,362.29148920008447,362.2960358000128,362.2960358000128,362.8145447000861,g,1.0,0.5101200999924913,,,,,,sub-125,1,stroop_test,59.825107272945054,
,,,,86.0,2.0,7.0,,,,,,,,,,,,,rot,blue,b,0.0,b,1.0,0.8147724999580532,,,,,,,,,,7.0,2.0,86.0,2.0,362.8305152000394,,,,,,,,,,,,,,,,,362.81506100005936,364.0138977000024,364.81411100004334,364.7979212000501,,,,,,,,,,,,,,,,,,,,,,,,,,,,,,,,,,,364.79879410006106,364.81411100004334,364.81411100004334,365.63089550007135,b,1.0,0.8147724999580532,,,,,,sub-125,1,stroop_test,59.825107272945054,
,,,,87.0,3.0,7.0,,,,,,,,,,,,,gelb,yellow,g,1.0,g,1.0,0.5996130999410525,,,,,,,,,,7.0,3.0,87.0,11.0,365.64716270007193,,,,,,,,,,,,,,,,,365.6314426000463,365.9806048000464,366.780548300012,366.7645103000104,,,,,,,,,,,,,,,,,,,,,,,,,,,,,,,,,,,366.7697146000573,366.780548300012,366.780548300012,367.381221900112,g,1.0,0.5996130999410525,,,,,,sub-125,1,stroop_test,59.825107272945054,
,,,,88.0,4.0,7.0,,,,,,,,,,,,,blau,red,r,0.0,r,1.0,0.7128975000232458,,,,,,,,,,7.0,4.0,88.0,4.0,367.3970339000225,,,,,,,,,,,,,,,,,367.38183000008576,367.4805216001114,368.2805510000326,368.264473300078,,,,,,,,,,,,,,,,,,,,,,,,,,,,,,,,,,,368.2702810000628,368.2805510000326,368.2805510000326,368.9979154000757,r,1.0,0.7128975000232458,,,,,,sub-125,1,stroop_test,59.825107272945054,
,,,,89.0,5.0,7.0,,,,,,,,,,,,,blau,yellow,g,0.0,g,1.0,0.6677751999814063,,,,,,,,,,7.0,5.0,89.0,7.0,369.01389610010665,,,,,,,,,,,,,,,,,368.9984668000834,370.1973210000433,370.997350800084,370.9811929001007,,,,,,,,,,,,,,,,,,,,,,,,,,,,,,,,,,,370.98205900006,370.997350800084,370.997350800084,371.6812134000938,g,1.0,0.6677751999814063,,,,,,sub-125,1,stroop_test,59.825107272945054,
,,,,90.0,6.0,7.0,,,,,,,,,,,,,blau,blue,b,1.0,b,1.0,0.6853867000900209,,,,,,,,,,7.0,6.0,90.0,6.0,371.6972737000324,,,,,,,,,,,,,,,,,371.6817032000981,372.88063410006,373.6809043000685,373.6647677000146,,,,,,,,,,,,,,,,,,,,,,,,,,,,,,,,,,,373.6655169000151,373.6809043000685,373.6809043000685,374.3813324000221,b,1.0,0.6853867000900209,,,,,,sub-125,1,stroop_test,59.825107272945054,
,,,,91.0,7.0,7.0,,,,,,,,,,,,,gelb,yellow,g,1.0,g,1.0,0.748573699966073,,,,,,,,,,7.0,7.0,91.0,10.0,374.3972981000552,,,,,,,,,,,,,,,,,374.3818864000496,374.73065600008704,375.5307180000236,375.5146069000475,,,,,,,,,,,,,,,,,,,,,,,,,,,,,,,,,,,375.5212207000004,375.5307180000236,375.5307180000236,376.2811318000313,g,1.0,0.748573699966073,,,,,,sub-125,1,stroop_test,59.825107272945054,
,,,,92.0,8.0,7.0,,,,,,,,,,,,,rot,red,r,1.0,r,1.0,0.6107859999174252,,,,,,,,,,7.0,8.0,92.0,1.0,376.29757809999865,,,,,,,,,,,,,,,,,376.2816651000176,376.38046700006817,377.18062990007456,377.16457570006605,,,,,,,,,,,,,,,,,,,,,,,,,,,,,,,,,,,377.1700240001082,377.18062990007456,377.18062990007456,377.7987031000666,r,1.0,0.6107859999174252,,,,,,sub-125,1,stroop_test,59.825107272945054,
,,,,93.0,9.0,7.0,,,,,,,,,,,,,gelb,blue,b,0.0,b,1.0,0.8484380999580026,,,,,,,,,,7.0,9.0,93.0,9.0,377.8137650000863,,,,,,,,,,,,,,,,,377.7993127000518,377.9141313000582,378.71399860002566,378.6974706000183,,,,,,,,,,,,,,,,,,,,,,,,,,,,,,,,,,,378.7040036000544,378.71399860002566,378.71399860002566,379.5645237000426,b,1.0,0.8484380999580026,,,,,,sub-125,1,stroop_test,59.825107272945054,
,,,,94.0,10.0,7.0,,,,,,,,,,,,,rot,red,r,1.0,r,1.0,0.6546656000427902,,,,,,,,,,7.0,10.0,94.0,0.0,379.5806896000868,,,,,,,,,,,,,,,,,379.5650053001009,379.6640886000823,380.4641905000899,380.4480458000908,,,,,,,,,,,,,,,,,,,,,,,,,,,,,,,,,,,380.4538699000841,380.4641905000899,380.4641905000899,381.1314952000976,r,1.0,0.6546656000427902,,,,,,sub-125,1,stroop_test,59.825107272945054,
,,,,95.0,11.0,7.0,,,,,,,,,,,,,gelb,red,r,0.0,r,1.0,0.6022489001043141,,,,,,,,,,7.0,11.0,95.0,8.0,381.14737690007314,,,,,,,,,,,,,,,,,381.1320910000941,381.230780800106,382.0303872000659,382.0146952000214,,,,,,,,,,,,,,,,,,,,,,,,,,,,,,,,,,,382.0212966001127,382.0303872000659,382.0303872000659,382.6481322000036,r,1.0,0.6022489001043141,,,,,,sub-125,1,stroop_test,59.825107272945054,
,,,,96.0,0.0,8.0,,,,,,,,,,,,,gelb,blue,b,0.0,b,1.0,0.7019254000624642,,,,,,,,,,8.0,0.0,96.0,9.0,382.6640482000075,,,,,,,,,,,,,,,,,382.6486592000583,382.76408800005447,383.5641270000488,383.5478564000223,,,,,,,,,,,,,,,,,,,,,,,,,,,,,,,,,,,383.54858760000207,383.5641270000488,383.5641270000488,384.2816114000743,b,1.0,0.7019254000624642,,,,,,sub-125,1,stroop_test,59.825107272945054,
,,,,97.0,1.0,8.0,,,,,,,,,,,,,rot,blue,b,0.0,b,1.0,0.7566232000244781,,,,,,,,,,8.0,1.0,97.0,2.0,384.2972862001043,,,,,,,,,,,,,,,,,384.28218540002126,385.0808597001014,385.88095550006256,385.86488990008365,,,,,,,,,,,,,,,,,,,,,,,,,,,,,,,,,,,385.8706703000935,385.88095550006256,385.88095550006256,386.64854580000974,b,1.0,0.7566232000244781,,,,,,sub-125,1,stroop_test,59.825107272945054,
,,,,98.0,2.0,8.0,,,,,,,,,,,,,blau,blue,b,1.0,b,1.0,0.4248125000158325,,,,,,,,,,8.0,2.0,98.0,5.0,386.66395710001234,,,,,,,,,,,,,,,,,386.6490686000325,386.76422360003926,387.56421760004014,387.5481362000573,,,,,,,,,,,,,,,,,,,,,,,,,,,,,,,,,,,387.5534992000321,387.56421760004014,387.56421760004014,387.99839090008754,b,1.0,0.4248125000158325,,,,,,sub-125,1,stroop_test,59.825107272945054,
,,,,99.0,3.0,8.0,,,,,,,,,,,,,gelb,red,r,0.0,r,1.0,0.7577371000079438,,,,,,,,,,8.0,3.0,99.0,8.0,388.01416670007166,,,,,,,,,,,,,,,,,387.99897790001705,388.3641525000567,389.1642160000047,389.1481497000205,,,,,,,,,,,,,,,,,,,,,,,,,,,,,,,,,,,389.1539238000987,389.1642160000047,389.1642160000047,389.9312158001121,r,1.0,0.7577371000079438,,,,,,sub-125,1,stroop_test,59.825107272945054,
,,,,100.0,4.0,8.0,,,,,,,,,,,,,blau,yellow,g,0.0,g,1.0,0.3703134000534192,,,,,,,,,,8.0,4.0,100.0,7.0,389.947336900048,,,,,,,,,,,,,,,,,389.9317148000701,390.73086940008216,391.5309883001028,391.51497260003816,,,,,,,,,,,,,,,,,,,,,,,,,,,,,,,,,,,391.520128400065,391.5309883001028,391.5309883001028,391.91537310008425,g,1.0,0.3703134000534192,,,,,,sub-125,1,stroop_test,59.825107272945054,
,,,,101.0,5.0,8.0,,,,,,,,,,,,,gelb,yellow,g,1.0,g,1.0,0.656011400045827,,,,,,,,,,8.0,5.0,101.0,10.0,391.9310448000906,,,,,,,,,,,,,,,,,391.91663510003127,392.7310123000061,393.5306915000547,393.5150033000391,,,,,,,,,,,,,,,,,,,,,,,,,,,,,,,,,,,393.52255250001326,393.5306915000547,393.5306915000547,394.19801760010887,g,1.0,0.656011400045827,,,,,,sub-125,1,stroop_test,59.825107272945054,
,,,,102.0,6.0,8.0,,,,,,,,,,,,,blau,red,r,0.0,r,1.0,0.5853001999203116,,,,,,,,,,8.0,6.0,102.0,4.0,394.2142479000613,,,,,,,,,,,,,,,,,394.19855240010656,394.2976489000721,395.0974028001074,395.081533000106,,,,,,,,,,,,,,,,,,,,,,,,,,,,,,,,,,,395.0865575000644,395.0974028001074,395.0974028001074,395.6980307000922,r,1.0,0.5853001999203116,,,,,,sub-125,1,stroop_test,59.825107272945054,
,,,,103.0,7.0,8.0,,,,,,,,,,,,,rot,red,r,1.0,r,1.0,0.4845603000139817,,,,,,,,,,8.0,7.0,103.0,1.0,395.7140494000632,,,,,,,,,,,,,,,,,395.69849520002026,395.79761230002623,396.5976739000762,396.58160170004703,,,,,,,,,,,,,,,,,,,,,,,,,,,,,,,,,,,396.58744520007167,396.5976739000762,396.5976739000762,397.09848470008,r,1.0,0.4845603000139817,,,,,,sub-125,1,stroop_test,59.825107272945054,
,,,,104.0,8.0,8.0,,,,,,,,,,,,,gelb,yellow,g,1.0,g,1.0,0.6592205000342801,,,,,,,,,,8.0,8.0,104.0,11.0,397.1143237000797,,,,,,,,,,,,,,,,,397.0990508000832,397.4476352001074,398.2477169000777,398.23161870008335,,,,,,,,,,,,,,,,,,,,,,,,,,,,,,,,,,,398.2379084000131,398.2477169000777,398.2477169000777,398.9150120000122,g,1.0,0.6592205000342801,,,,,,sub-125,1,stroop_test,59.825107272945054,
,,,,105.0,9.0,8.0,,,,,,,,,,,,,rot,yellow,g,0.0,g,1.0,0.6175717000151053,,,,,,,,,,8.0,9.0,105.0,3.0,398.9310252000578,,,,,,,,,,,,,,,,,398.9154752000468,399.0146604001056,399.8143180001061,399.7981858000858,,,,,,,,,,,,,,,,,,,,,,,,,,,,,,,,,,,399.8029256000882,399.8143180001061,399.8143180001061,400.4484191000229,g,1.0,0.6175717000151053,,,,,,sub-125,1,stroop_test,59.825107272945054,
,,,,106.0,10.0,8.0,,,,,,,,,,,,,rot,red,r,1.0,r,1.0,0.5474786000559106,,,,,,,,,,8.0,10.0,106.0,0.0,400.4644451000495,,,,,,,,,,,,,,,,,400.4489448000677,400.5474955000682,401.34777460002806,401.3316585000139,,,,,,,,,,,,,,,,,,,,,,,,,,,,,,,,,,,401.3324009000789,401.34777460002806,401.34777460002806,401.89814320008736,r,1.0,0.5474786000559106,,,,,,sub-125,1,stroop_test,59.825107272945054,
,,,,107.0,11.0,8.0,,,,,,,,,,,,,blau,blue,b,1.0,b,1.0,0.5507795000448823,,,,,,,,,,8.0,11.0,107.0,6.0,401.9144092000788,,,,,,,,,,,,,,,,,401.898631600081,402.69771130010486,403.4979095000308,403.4817675000522,,,,,,,,,,,,,,,,,,,,,,,,,,,,,,,,,,,403.4881544000236,403.4979095000308,403.4979095000308,404.0651285001077,b,1.0,0.5507795000448823,,,,,,sub-125,1,stroop_test,59.825107272945054,
,,,,108.0,0.0,9.0,,,,,,,,,,,,,rot,blue,b,0.0,b,1.0,0.4285558999981731,,,,,,,,,,9.0,0.0,108.0,2.0,404.0811720000347,,,,,,,,,,,,,,,,,404.0656453000847,404.86448470002506,405.6646000000183,405.6485311000142,,,,,,,,,,,,,,,,,,,,,,,,,,,,,,,,,,,405.65417520003393,405.6646000000183,405.6646000000183,406.09846980008297,b,1.0,0.4285558999981731,,,,,,sub-125,1,stroop_test,59.825107272945054,
,,,,109.0,1.0,9.0,,,,,,,,,,,,,gelb,yellow,g,1.0,g,1.0,0.3836609000572935,,,,,,,,,,9.0,1.0,109.0,11.0,406.1144378000172,,,,,,,,,,,,,,,,,406.09902140009217,406.8975778000895,407.6978982000146,407.6820095001021,,,,,,,,,,,,,,,,,,,,,,,,,,,,,,,,,,,407.6874488000758,407.6978982000146,407.6978982000146,408.0983987000072,g,1.0,0.3836609000572935,,,,,,sub-125,1,stroop_test,59.825107272945054,
,,,,110.0,2.0,9.0,,,,,,,,,,,,,gelb,red,r,0.0,r,1.0,0.5278658999595791,,,,,,,,,,9.0,2.0,110.0,8.0,408.1144509000005,,,,,,,,,,,,,,,,,408.0989351000171,408.4475169000216,409.24784370011184,409.23169010004494,,,,,,,,,,,,,,,,,,,,,,,,,,,,,,,,,,,409.2324289000826,409.24784370011184,409.24784370011184,409.7818127000937,r,1.0,0.5278658999595791,,,,,,sub-125,1,stroop_test,59.825107272945054,
,,,,111.0,3.0,9.0,,,,,,,,,,,,,rot,red,r,1.0,r,1.0,0.6144033999880776,,,,,,,,,,9.0,3.0,111.0,0.0,409.7976898000343,,,,,,,,,,,,,,,,,409.782351300004,410.9812800000655,411.7811732999981,411.7650879001012,,,,,,,,,,,,,,,,,,,,,,,,,,,,,,,,,,,411.7700848000823,411.7811732999981,411.7811732999981,412.3982581000309,r,1.0,0.6144033999880776,,,,,,sub-125,1,stroop_test,59.825107272945054,
,,,,112.0,4.0,9.0,,,,,,,,,,,,,blau,blue,b,1.0,b,1.0,0.537558100069873,,,,,,,,,,9.0,4.0,112.0,6.0,412.4145042001037,,,,,,,,,,,,,,,,,412.3988018000964,412.7479562000372,413.5478678001091,413.5318700000644,,,,,,,,,,,,,,,,,,,,,,,,,,,,,,,,,,,413.5367004000582,413.5478678001091,413.5478678001091,414.0986113001127,b,1.0,0.537558100069873,,,,,,sub-125,1,stroop_test,59.825107272945054,
,,,,113.0,5.0,9.0,,,,,,,,,,,,,rot,yellow,g,0.0,g,1.0,0.655636899988167,,,,,,,,,,9.0,5.0,113.0,3.0,414.11467980011366,,,,,,,,,,,,,,,,,414.09922070009634,415.29789850011,416.0977145000361,416.0820502000861,,,,,,,,,,,,,,,,,,,,,,,,,,,,,,,,,,,416.0897770000156,416.0977145000361,416.0977145000361,416.7654811000684,g,1.0,0.655636899988167,,,,,,sub-125,1,stroop_test,59.825107272945054,
,,,,114.0,6.0,9.0,,,,,,,,,,,,,gelb,yellow,g,1.0,g,1.0,0.9966662999941036,,,,,,,,,,9.0,6.0,114.0,10.0,416.78122730006,,,,,,,,,,,,,,,,,416.7661452000029,416.8645874001086,417.6648710001027,417.6483237000648,,,,,,,,,,,,,,,,,,,,,,,,,,,,,,,,,,,417.6534090000205,417.6648710001027,417.6648710001027,418.6653303001076,g,1.0,0.9966662999941036,,,,,,sub-125,1,stroop_test,59.825107272945054,
,,,,115.0,7.0,9.0,,,,,,,,,,,,,gelb,blue,b,0.0,b,1.0,0.5910321000264958,,,,,,,,,,9.0,7.0,115.0,9.0,418.6813661000924,,,,,,,,,,,,,,,,,418.6658611000749,419.0146269000834,419.8148690001108,419.7987432000227,,,,,,,,,,,,,,,,,,,,,,,,,,,,,,,,,,,419.8001849000575,419.8148690001108,419.8148690001108,420.41524680005386,b,1.0,0.5910321000264958,,,,,,sub-125,1,stroop_test,59.825107272945054,
,,,,116.0,8.0,9.0,,,,,,,,,,,,,blau,red,r,0.0,r,1.0,0.6018397000152618,,,,,,,,,,9.0,8.0,116.0,4.0,420.4312828000402,,,,,,,,,,,,,,,,,420.415770700085,421.6147531000897,422.4147393000312,422.40258010011166,,,,,,,,,,,,,,,,,,,,,,,,,,,,,,,,,,,422.40719740011264,422.4147393000312,422.4147393000312,423.0320392000722,r,1.0,0.6018397000152618,,,,,,sub-125,1,stroop_test,59.825107272945054,
,,,,117.0,9.0,9.0,,,,,,,,,,,,,rot,red,r,1.0,r,1.0,0.5408686000155285,,,,,,,,,,9.0,9.0,117.0,1.0,423.04799910006113,,,,,,,,,,,,,,,,,423.0325294000795,423.1314039001009,423.93132720002905,423.915539800073,,,,,,,,,,,,,,,,,,,,,,,,,,,,,,,,,,,423.9208628000925,423.93132720002905,423.93132720002905,424.4820748000639,r,1.0,0.5408686000155285,,,,,,sub-125,1,stroop_test,59.825107272945054,
,,,,118.0,10.0,9.0,,,,,,,,,,,,,blau,blue,b,1.0,b,1.0,0.7320525000104681,,,,,,,,,,9.0,10.0,118.0,5.0,424.4980597000104,,,,,,,,,,,,,,,,,424.4826272000792,424.58135560003575,425.3816272000549,425.36533150007017,,,,,,,,,,,,,,,,,,,,,,,,,,,,,,,,,,,425.3701306000585,425.3816272000549,425.3816272000549,426.11542960000224,b,1.0,0.7320525000104681,,,,,,sub-125,1,stroop_test,59.825107272945054,
,,,,119.0,11.0,9.0,,,,,,,,,,,,,blau,yellow,g,0.0,g,1.0,0.6519011999480426,,,,,,,,,,9.0,11.0,119.0,7.0,426.130953200045,,,,,,,,,,,,,,,,,426.1159416000592,426.9147287000669,427.7148100000341,427.69873540010303,,,,,,,,,,,,,,,,,,,,,,,,,,,,,,,,,,,427.6994187000673,427.7148100000341,427.7148100000341,428.3822184000164,g,1.0,0.6519011999480426,,,,,,sub-125,1,stroop_test,59.825107272945054,
,,,,,,,,,,,,,,,,,,,,,,,,,,,,,,,,,,,,,,,,,,,,,,,,,,,,,,,,,,,,,,,,,,,,,,,,,,,,,,,,,,,,,,,,,,,,,,,,,,,,,,428.3824824000476,428.3978699001018,433.39771500008646,433.38145560002886,sub-125,1,stroop_test,59.825107272945054,
