wordCTK,colorCTK,corrAnsCTK,congruentCTK,thisN,thisTrialN,thisRepN,keyResp_CTK.keys,keyResp_CTK.corr,keyResp_CTK.rt,keyResp_CTK.duration,wordPractice,colorPractice,corrAnsPractice,congruentPractice,respPractice.keys,respPractice.corr,respPractice.rt,respPractice.duration,word,color,corrAns,congruent,keyResp_test_run.keys,keyResp_test_run.corr,keyResp_test_run.rt,keyResp_test_run.duration,trials_CTK.thisRepN,trials_CTK.thisTrialN,trials_CTK.thisN,trials_CTK.thisIndex,trials_practice.thisRepN,trials_practice.thisTrialN,trials_practice.thisN,trials_practice.thisIndex,trials_test.thisRepN,trials_test.thisTrialN,trials_test.thisN,trials_test.thisIndex,thisRow.t,notes,instruction.started,instr_text.started,instr_image.started,instr_resp.started,instruction.stopped,instr_resp.keys,instr_resp.rt,instr_resp.duration,instr_color_to_key.started,instr_ctk.started,resp_ctk.started,instr_color_to_key.stopped,resp_ctk.keys,resp_ctk.rt,resp_ctk.duration,ITI.started,fixcross.started,fixcross.stopped,ITI.stopped,color_to_key_run.started,stimulus_CTK.started,keyResp_CTK.started,color_to_key_run.stopped,trials_CTK.keyResp_CTK.keys,trials_CTK.keyResp_CTK.corr,trials_CTK.keyResp_CTK.rt,trials_CTK.keyResp_CTK.duration,instr_practice.started,instr_practice_text.started,instr_practice_resp.started,instr_practice.stopped,instr_practice_resp.keys,instr_practice_resp.rt,instr_practice_resp.duration,practice_run.started,stimulus_practice.started,respPractice.started,practice_run.stopped,trials_practice.respPractice.keys,trials_practice.respPractice.corr,trials_practice.respPractice.rt,trials_practice.respPractice.duration,feedback.started,textFeedback.started,feedback.stopped,textFeedback.stopped,instr_test.started,instr_test_text.started,instr_test_resp.started,instr_test.stopped,instr_test_resp.keys,instr_test_resp.rt,instr_test_resp.duration,test_run.started,stimulus_test_run.started,keyResp_test_run.started,test_run.stopped,trials_test.keyResp_test_run.keys,trials_test.keyResp_test_run.corr,trials_test.keyResp_test_run.rt,trials_test.keyResp_test_run.duration,goodbye.started,textGoodbye.started,textGoodbye.stopped,goodbye.stopped,participant,session,expName,frameRate,Unnamed: 113
,,,,,,,,,,,,,,,,,,,,,,,,,,,,,,,,,,,,,,,,,0.0041576998773962,0.0371675998903811,0.0371675998903811,0.0371675998903811,54.69234239985235,space,54.630872699897736,,,,,,,,,,,,,,,,,,,,,,,,,,,,,,,,,,,,,,,,,,,,,,,,,,,,,,,,,,,sub-083,1,stroop_test,59.96426130735908,
,,,,,,,,,,,,,,,,,,,,,,,,,,,,,,,,,,,,,,,,,,,,,,,,,54.69243219983764,54.69972509983927,54.69972509983927,63.20936469989829,space,8.493510799948126,,,,,,,,,,,,,,,,,,,,,,,,,,,,,,,,,,,,,,,,,,,,,,,,,,,,sub-083,1,stroop_test,59.96426130735908,
test,red,r,1.0,0.0,0.0,0.0,r,1.0,2.1580447000451386,,,,,,,,,,,,,,,,,,0.0,0.0,0.0,0.0,,,,,,,,,63.22655769996345,,,,,,,,,,,,,,,,,63.22037849994376,64.02492569992319,64.82458899985068,64.80885150004178,64.81349999993108,64.82458899985068,64.82458899985068,66.9917667999398,r,1.0,2.1580447000451386,,,,,,,,,,,,,,,,,,,,,,,,,,,,,,,,,,,,,,,,sub-083,1,stroop_test,59.96426130735908,
test,blue,b,1.0,1.0,1.0,0.0,b,1.0,1.0365035000722855,,,,,,,,,,,,,,,,,,0.0,1.0,1.0,2.0,,,,,,,,,67.00774149992503,,,,,,,,,,,,,,,,,66.99197710002773,68.19087759987451,68.99087570002303,68.97467279992998,68.97503419988789,68.99087570002303,68.99087570002303,70.04163969983347,b,1.0,1.0365035000722855,,,,,,,,,,,,,,,,,,,,,,,,,,,,,,,,,,,,,,,,sub-083,1,stroop_test,59.96426130735908,
test,yellow,g,1.0,2.0,2.0,0.0,g,1.0,0.5335917000193149,,,,,,,,,,,,,,,,,,0.0,2.0,2.0,1.0,,,,,,,,,70.05729230004363,,,,,,,,,,,,,,,,,70.04187599988654,70.8570458998438,71.65709239989519,71.64152549998835,71.64183029998094,71.65709239989519,71.65709239989519,72.1920835999772,g,1.0,0.5335917000193149,,,,,,,,,,,,,,,,,,,,,,,,,,,,,,,,,,,,,,,,sub-083,1,stroop_test,59.96426130735908,
test,red,r,1.0,3.0,0.0,1.0,r,1.0,0.5185596998780966,,,,,,,,,,,,,,,,,,1.0,0.0,3.0,0.0,,,,,,,,,72.20728540001437,,,,,,,,,,,,,,,,,72.19230979983695,72.30701259989291,73.10706229996867,73.09149699984118,73.0918363998644,73.10706229996867,73.10706229996867,73.64134959992953,r,1.0,0.5185596998780966,,,,,,,,,,,,,,,,,,,,,,,,,,,,,,,,,,,,,,,,sub-083,1,stroop_test,59.96426130735908,
test,blue,b,1.0,4.0,1.0,1.0,b,1.0,0.6567155001685023,,,,,,,,,,,,,,,,,,1.0,1.0,4.0,2.0,,,,,,,,,73.65715989982709,,,,,,,,,,,,,,,,,73.64157540001906,74.856665099971,75.65655869990587,75.64069080003537,75.64109679986723,75.65655869990587,75.65655869990587,76.32394180004485,b,1.0,0.6567155001685023,,,,,,,,,,,,,,,,,,,,,,,,,,,,,,,,,,,,,,,,sub-083,1,stroop_test,59.96426130735908,
test,yellow,g,1.0,5.0,2.0,1.0,g,1.0,1.0317235998809338,,,,,,,,,,,,,,,,,,1.0,2.0,5.0,1.0,,,,,,,,,76.33979079988785,,,,,,,,,,,,,,,,,76.32415549992584,77.53971039992757,78.33955929987133,78.32359889987856,78.32394229993224,78.33955929987133,78.33955929987133,79.37418979988433,g,1.0,1.0317235998809338,,,,,,,,,,,,,,,,,,,,,,,,,,,,,,,,,,,,,,,,sub-083,1,stroop_test,59.96426130735908,
test,red,r,1.0,6.0,0.0,2.0,r,1.0,0.6932959000114352,,,,,,,,,,,,,,,,,,2.0,0.0,6.0,0.0,,,,,,,,,79.3894880998414,,,,,,,,,,,,,,,,,79.3744347000029,80.5899946000427,81.38929879991338,81.3731282998342,81.37353320000693,81.38929879991338,81.38929879991338,82.08993420004845,r,1.0,0.6932959000114352,,,,,,,,,,,,,,,,,,,,,,,,,,,,,,,,,,,,,,,,sub-083,1,stroop_test,59.96426130735908,
test,yellow,g,1.0,7.0,1.0,2.0,g,1.0,0.7251711999997497,,,,,,,,,,,,,,,,,,2.0,1.0,7.0,1.0,,,,,,,,,82.10583749995567,,,,,,,,,,,,,,,,,82.09015489998274,82.889254800044,83.68890549987555,83.6727354999166,83.67309339996427,83.68890549987555,83.68890549987555,84.42323549999855,g,1.0,0.7251711999997497,,,,,,,,,,,,,,,,,,,,,,,,,,,,,,,,,,,,,,,,sub-083,1,stroop_test,59.96426130735908,
test,blue,b,1.0,8.0,2.0,2.0,b,1.0,0.4916658999864012,,,,,,,,,,,,,,,,,,2.0,2.0,8.0,2.0,,,,,,,,,84.43897859985009,,,,,,,,,,,,,,,,,84.42348570004106,84.53871520003304,85.3386077999603,85.32287629996426,85.32319629983976,85.3386077999603,85.3386077999603,85.84009189996868,b,1.0,0.4916658999864012,,,,,,,,,,,,,,,,,,,,,,,,,,,,,,,,,,,,,,,,sub-083,1,stroop_test,59.96426130735908,
test,blue,b,1.0,9.0,0.0,3.0,b,1.0,0.5908496000338346,,,,,,,,,,,,,,,,,,3.0,0.0,9.0,2.0,,,,,,,,,85.85550389997661,,,,,,,,,,,,,,,,,85.84045779984444,86.65520339994691,87.45602839998901,87.44051379989833,87.44140059989877,87.45602839998901,87.45602839998901,88.05675929994322,b,1.0,0.5908496000338346,,,,,,,,,,,,,,,,,,,,,,,,,,,,,,,,,,,,,,,,sub-083,1,stroop_test,59.96426130735908,
test,red,r,1.0,10.0,1.0,3.0,r,1.0,0.6988389999605715,,,,,,,,,,,,,,,,,,3.0,1.0,10.0,0.0,,,,,,,,,88.07169110001996,,,,,,,,,,,,,,,,,88.0571705000475,88.40589619986713,89.20521819987334,89.1902707000263,89.19079150003381,89.20521819987334,89.20521819987334,89.90614710003138,r,1.0,0.6988389999605715,,,,,,,,,,,,,,,,,,,,,,,,,,,,,,,,,,,,,,,,sub-083,1,stroop_test,59.96426130735908,
test,yellow,g,1.0,11.0,2.0,3.0,g,1.0,0.7816733999643475,,,,,,,,,,,,,,,,,,3.0,2.0,11.0,1.0,,,,,,,,,89.92169129988179,,,,,,,,,,,,,,,,,89.90644119982608,90.27162240003236,91.0723866999615,91.05761360004544,91.05835119984113,91.0723866999615,91.0723866999615,91.856960499892,g,1.0,0.7816733999643475,,,,,,,,,,,,,,,,,,,,,,,,,,,,,,,,,,,,,,,,sub-083,1,stroop_test,59.96426130735908,
,,,,,,,,,,,,,,,,,,,,,,,,,,,,,,,,,,,,,,,,,,,,,,,,,,,,,,,,,,,,,,,,,,,,91.85721219982952,91.87206780002452,91.87206780002452,103.53791329986416,space,11.658468199893832,,,,,,,,,,,,,,,,,,,,,,,,,,,,,,,,,sub-083,1,stroop_test,59.96426130735908,
,,,,0.0,0.0,0.0,,,,,blau,yellow,g,0.0,g,1.0,1.4042672999203205,,,,,,,,,,,,,,0.0,0.0,0.0,7.0,,,,,103.55344409984536,,,,,,,,,,,,,,,,,103.5461846999824,103.9032823999878,104.70340560004117,104.68702639988624,,,,,,,,,,,,,,,,104.69249849999323,104.70340560004117,104.70340560004117,106.12139889993703,g,1.0,1.4042672999203205,,106.13278099987656,106.14093889994548,107.13623990002088,,,,,,,,,,,,,,,,,,,,,sub-083,1,stroop_test,59.96426130735908,
,,,,1.0,1.0,0.0,,,,,rot,blue,b,0.0,b,1.0,0.9681304998230188,,,,,,,,,,,,,,0.0,1.0,1.0,2.0,,,,,107.1535304998979,,,,,,,,,,,,,,,,,107.13651290000416,108.32094699982554,109.12680219998585,109.1057630998548,,,,,,,,,,,,,,,,109.11740879993886,109.12680219998585,109.12680219998585,110.10663229995409,b,1.0,0.9681304998230188,,110.1075858999975,110.12087059998883,111.11950589995833,,,,,,,,,,,,,,,,,,,,,sub-083,1,stroop_test,59.96426130735908,
,,,,2.0,2.0,0.0,,,,,rot,red,r,1.0,r,1.0,0.4811293000821024,,,,,,,,,,,,,,0.0,2.0,2.0,0.0,,,,,111.13699389994144,,,,,,,,,,,,,,,,,111.11990239983425,111.92022179998456,112.7197669998277,112.70474909991026,,,,,,,,,,,,,,,,112.70564890000968,112.7197669998277,112.7197669998277,113.20498479995877,r,1.0,0.4811293000821024,,113.20550409983844,113.22010889998636,114.2050560999196,114.2190773000475,,,,,,,,,,,,,,,,,,,,sub-083,1,stroop_test,59.96426130735908,
,,,,3.0,3.0,0.0,,,,,gelb,yellow,g,1.0,g,1.0,0.8235200000926852,,,,,,,,,,,,,,0.0,3.0,3.0,10.0,,,,,114.2190773000475,,,,,,,,,,,,,,,,,114.20544739998876,115.01860839989968,115.83449629996905,115.8086459999904,,,,,,,,,,,,,,,,115.81373549997808,115.83449629996905,115.83449629996905,116.66946859983727,g,1.0,0.8235200000926852,,116.66997429984622,116.68529929989018,117.66868139989674,117.68499849992804,,,,,,,,,,,,,,,,,,,,sub-083,1,stroop_test,59.96426130735908,
,,,,4.0,4.0,0.0,,,,,blau,blue,b,1.0,b,1.0,0.6129958000965416,,,,,,,,,,,,,,0.0,4.0,4.0,6.0,,,,,117.68499849992804,,,,,,,,,,,,,,,,,117.66892919992095,118.48516709986144,119.28452700003982,119.26852689986116,,,,,,,,,,,,,,,,119.27168220002204,119.28452700003982,119.28452700003982,119.9030815998558,b,1.0,0.6129958000965416,,119.903548900038,119.91821849998088,120.90157760004512,120.9176633998286,,,,,,,,,,,,,,,,,,,,sub-083,1,stroop_test,59.96426130735908,
,,,,5.0,5.0,0.0,,,,,gelb,red,r,0.0,r,1.0,1.0428724000230432,,,,,,,,,,,,,,0.0,5.0,5.0,8.0,,,,,120.9176633998286,,,,,,,,,,,,,,,,,120.9018174998928,121.71754419989884,122.5178525999654,122.50148029997943,,,,,,,,,,,,,,,,122.5058603999205,122.5178525999654,122.5178525999654,123.56865120003933,r,1.0,1.0428724000230432,,123.56904689990915,123.58419299987143,124.56787619995885,124.58388019981794,,,,,,,,,,,,,,,,,,,,sub-083,1,stroop_test,59.96426130735908,
,,,,6.0,6.0,0.0,,,,,rot,yellow,g,0.0,g,1.0,0.7963521000929177,,,,,,,,,,,,,,0.0,6.0,6.0,3.0,,,,,124.58388019981794,,,,,,,,,,,,,,,,,124.56817430001684,125.36720920004882,126.16728269984014,126.15121919987725,,,,,,,,,,,,,,,,126.1538437998388,126.16728269984014,126.16728269984014,126.96923399996012,g,1.0,0.7963521000929177,,126.96968949981964,126.98369099991396,127.96790839987808,127.98364209989086,,,,,,,,,,,,,,,,,,,,sub-083,1,stroop_test,59.96426130735908,
,,,,7.0,7.0,0.0,,,,,gelb,yellow,g,1.0,g,1.0,0.9000417001079768,,,,,,,,,,,,,,0.0,7.0,7.0,11.0,,,,,127.98364209989086,,,,,,,,,,,,,,,,,127.96823689993472,128.08364610001445,128.88336419989355,128.8679297999479,,,,,,,,,,,,,,,,128.87176879984327,128.88336419989355,128.88336419989355,129.7854653999675,g,1.0,0.9000417001079768,,129.78600619989447,129.80023339996114,130.7849129999522,130.8011345998384,,,,,,,,,,,,,,,,,,,,sub-083,1,stroop_test,59.96426130735908,
,,,,8.0,8.0,0.0,,,,,blau,red,r,0.0,r,1.0,0.9904307001270354,,,,,,,,,,,,,,0.0,8.0,8.0,4.0,,,,,130.8011345998384,,,,,,,,,,,,,,,,,130.7852495999541,131.15026129991747,131.95047259982675,131.93437210004777,,,,,,,,,,,,,,,,131.93698009988293,131.95047259982675,131.95047259982675,132.9520892999135,r,1.0,0.9904307001270354,,132.9529047999531,132.96720389998518,133.97003079997376,,,,,,,,,,,,,,,,,,,,,sub-083,1,stroop_test,59.96426130735908,
,,,,9.0,9.0,0.0,,,,,gelb,blue,b,0.0,b,1.0,0.8866535001434386,,,,,,,,,,,,,,0.0,9.0,9.0,9.0,,,,,133.9828383999411,,,,,,,,,,,,,,,,,133.97034549992532,134.3159639998339,135.1159371000249,135.10343909985386,,,,,,,,,,,,,,,,135.10561689990573,135.1159371000249,135.1159371000249,136.0044720999431,b,1.0,0.8866535001434386,,136.0048556998372,136.01571079995483,137.00323989987373,137.01579999993555,,,,,,,,,,,,,,,,,,,,sub-083,1,stroop_test,59.96426130735908,
,,,,10.0,10.0,0.0,,,,,rot,red,r,1.0,r,1.0,0.6710496998857707,,,,,,,,,,,,,,0.0,10.0,10.0,1.0,,,,,137.01579999993555,,,,,,,,,,,,,,,,,137.00345179997385,137.81566999992356,138.61728070001118,138.6045438000001,,,,,,,,,,,,,,,,138.60821709991433,138.61728070001118,138.61728070001118,139.30699860001914,r,1.0,0.6710496998857707,,139.3079949999228,139.31776469992474,140.30455639981665,140.31639059982265,,,,,,,,,,,,,,,,,,,,sub-083,1,stroop_test,59.96426130735908,
,,,,11.0,11.0,0.0,,,,,blau,blue,b,1.0,b,1.0,0.5115596998948604,,,,,,,,,,,,,,0.0,11.0,11.0,5.0,,,,,140.31639059982265,,,,,,,,,,,,,,,,,140.3049717999529,140.4161940999329,141.21651239995845,141.2038835999556,,,,,,,,,,,,,,,,141.20695040002465,141.21651239995845,141.21651239995845,141.7370620998554,b,1.0,0.5115596998948604,,141.73749039997347,141.7485227000434,142.7370933999773,142.74840939999558,,,,,,,,,,,,,,,,,,,,sub-083,1,stroop_test,59.96426130735908,
,,,,12.0,0.0,1.0,,,,,blau,blue,b,1.0,b,1.0,0.7946377999614924,,,,,,,,,,,,,,1.0,0.0,12.0,6.0,,,,,142.74840939999558,,,,,,,,,,,,,,,,,142.7374946998898,143.5493051998783,144.3485494998749,144.33628920000046,,,,,,,,,,,,,,,,144.3366874998901,144.3485494998749,144.3485494998749,145.1501962998882,b,1.0,0.7946377999614924,,145.15075120003894,145.16940809995867,146.16893719998188,,,,,,,,,,,,,,,,,,,,,sub-083,1,stroop_test,59.96426130735908,
,,,,13.0,1.0,1.0,,,,,blau,red,r,0.0,r,1.0,0.9563447998370976,,,,,,,,,,,,,,1.0,1.0,13.0,4.0,,,,,146.18141709989868,,,,,,,,,,,,,,,,,146.16923899995163,146.94777489989065,147.74788639997132,147.73545439983718,,,,,,,,,,,,,,,,147.7358460999094,147.74788639997132,147.74788639997132,148.71596539998427,r,1.0,0.9563447998370976,,148.7164697998669,148.73469259985723,149.7346737999469,,,,,,,,,,,,,,,,,,,,,sub-083,1,stroop_test,59.96426130735908,
,,,,14.0,2.0,1.0,,,,,rot,red,r,1.0,r,1.0,0.6058084999676794,,,,,,,,,,,,,,1.0,2.0,14.0,1.0,,,,,149.74732959992252,,,,,,,,,,,,,,,,,149.73492620000616,150.51401159982197,151.31385869998485,151.301256199833,,,,,,,,,,,,,,,,151.30383510002866,151.31385869998485,151.31385869998485,151.9354085000232,r,1.0,0.6058084999676794,,151.93580159987323,151.947136499919,152.9362218999304,152.9470792999491,,,,,,,,,,,,,,,,,,,,sub-083,1,stroop_test,59.96426130735908,
,,,,15.0,3.0,1.0,,,,,gelb,yellow,g,1.0,g,1.0,0.7398912000935525,,,,,,,,,,,,,,1.0,3.0,15.0,11.0,,,,,152.9470792999491,,,,,,,,,,,,,,,,,152.93674919987097,153.046903999988,153.84710299992005,153.83422069996595,,,,,,,,,,,,,,,,153.83639069995843,153.84710299992005,153.84710299992005,154.60190310003236,g,1.0,0.7398912000935525,,154.60225189989433,154.6138224999886,155.6010695998557,155.61325229983777,,,,,,,,,,,,,,,,,,,,sub-083,1,stroop_test,59.96426130735908,
,,,,16.0,4.0,1.0,,,,,gelb,blue,b,0.0,b,1.0,0.6106771000195295,,,,,,,,,,,,,,1.0,4.0,16.0,9.0,,,,,155.61325229983777,,,,,,,,,,,,,,,,,155.60132669983432,155.7138183999341,156.51316149998456,156.5010076998733,,,,,,,,,,,,,,,,156.50135229993612,156.51316149998456,156.51316149998456,157.1342491998803,b,1.0,0.6106771000195295,,157.1346968000289,157.14647469995543,158.13397999992594,158.14629899989814,,,,,,,,,,,,,,,,,,,,sub-083,1,stroop_test,59.96426130735908,
,,,,17.0,5.0,1.0,,,,,rot,blue,b,0.0,b,1.0,1.3837751999963075,,,,,,,,,,,,,,1.0,5.0,17.0,2.0,,,,,158.14629899989814,,,,,,,,,,,,,,,,,158.13420720002614,158.9459980998654,159.74613450001925,159.73373480001464,,,,,,,,,,,,,,,,159.73609000002034,159.74613450001925,159.74613450001925,161.1345981999766,b,1.0,1.3837751999963075,,161.13500779983588,161.1459059000481,162.13378309994005,162.1459788000211,,,,,,,,,,,,,,,,,,,,sub-083,1,stroop_test,59.96426130735908,
,,,,18.0,6.0,1.0,,,,,gelb,yellow,g,1.0,g,1.0,0.8105313000269234,,,,,,,,,,,,,,1.0,6.0,18.0,10.0,,,,,162.1459788000211,,,,,,,,,,,,,,,,,162.1339984999504,163.345607599942,164.14544869982635,164.13347909995355,,,,,,,,,,,,,,,,164.13565970002674,164.14544869982635,164.14544869982635,164.9669927000068,g,1.0,0.8105313000269234,,164.96740480000153,164.9787905998528,165.9625575998798,165.97849629982375,,,,,,,,,,,,,,,,,,,,sub-083,1,stroop_test,59.96426130735908,
,,,,19.0,7.0,1.0,,,,,blau,blue,b,1.0,b,1.0,0.575686699943617,,,,,,,,,,,,,,1.0,7.0,19.0,5.0,,,,,165.97849629982375,,,,,,,,,,,,,,,,,165.96276679984294,166.7784947999753,167.57853189995512,167.5623347000219,,,,,,,,,,,,,,,,167.56442889990285,167.57853189995512,167.57853189995512,168.1624431000091,b,1.0,0.575686699943617,,168.1629576999694,168.17840719991364,169.16192450001836,169.17809169995598,,,,,,,,,,,,,,,,,,,,sub-083,1,stroop_test,59.96426130735908,
,,,,20.0,8.0,1.0,,,,,rot,yellow,g,0.0,g,1.0,1.4161745000164956,,,,,,,,,,,,,,1.0,8.0,20.0,3.0,,,,,169.17809169995598,,,,,,,,,,,,,,,,,169.16214499995112,169.52819849993102,170.32814009999856,170.31234599999152,,,,,,,,,,,,,,,,170.31470859982073,170.32814009999856,170.32814009999856,171.74724729987793,g,1.0,1.4161745000164956,,171.7476184000261,171.76115739997476,172.74620439996943,172.76149199996144,,,,,,,,,,,,,,,,,,,,sub-083,1,stroop_test,59.96426130735908,
,,,,21.0,9.0,1.0,,,,,gelb,red,r,0.0,r,1.0,0.7980059001129121,,,,,,,,,,,,,,1.0,9.0,21.0,8.0,,,,,172.76149199996144,,,,,,,,,,,,,,,,,172.74642769992352,173.56090639997274,174.3608633999247,174.34476529993117,,,,,,,,,,,,,,,,174.34695549984465,174.3608633999247,174.3608633999247,175.1622460000217,r,1.0,0.7980059001129121,,175.16259359987453,175.17745459987782,176.16127199982293,176.1773133999668,,,,,,,,,,,,,,,,,,,,sub-083,1,stroop_test,59.96426130735908,
,,,,22.0,10.0,1.0,,,,,blau,yellow,g,0.0,g,1.0,1.2576272999867797,,,,,,,,,,,,,,1.0,10.0,22.0,7.0,,,,,176.1773133999668,,,,,,,,,,,,,,,,,176.1614909998607,176.27757929987274,177.07716350001283,177.06145189981908,,,,,,,,,,,,,,,,177.0638111999724,177.07716350001283,177.07716350001283,178.34494909993373,g,1.0,1.2576272999867797,,178.3453263998963,178.3602314000018,179.3443450999912,179.36099789990112,,,,,,,,,,,,,,,,,,,,sub-083,1,stroop_test,59.96426130735908,
,,,,23.0,11.0,1.0,,,,,rot,red,r,1.0,r,1.0,0.6516334000043571,,,,,,,,,,,,,,1.0,11.0,23.0,0.0,,,,,179.36099789990112,,,,,,,,,,,,,,,,,179.34460929990746,179.4614799998235,180.27706369990483,180.2610700998921,,,,,,,,,,,,,,,,180.26336440001612,180.27706369990483,180.27706369990483,180.9441137998365,r,1.0,0.6516334000043571,,180.94447349989787,180.96029109996744,181.94426949997435,181.96033369982612,,,,,,,,,,,,,,,,,,,,sub-083,1,stroop_test,59.96426130735908,
,,,,,,,,,,,,,,,,,,,,,,,,,,,,,,,,,,,,,,,,,,,,,,,,,,,,,,,,,,,,,,,,,,,,,,,,,,,,,,,,,,,,,,,181.94436049996875,181.96033369982612,181.96033369982612,192.85974629991688,space,10.891651400132105,,,,,,,,,,,,,,sub-083,1,stroop_test,59.96426130735908,
,,,,0.0,0.0,0.0,,,,,,,,,,,,,rot,yellow,g,0.0,g,1.0,1.0343402000144124,,,,,,,,,,0.0,0.0,0.0,3.0,192.8762705998961,,,,,,,,,,,,,,,,,192.87010749988255,193.67516979994247,194.4749052999541,194.4589525999036,,,,,,,,,,,,,,,,,,,,,,,,,,,,,,,,,,,194.4613852999173,194.4749052999541,194.4749052999541,195.52553249988705,g,1.0,1.0343402000144124,,,,,,sub-083,1,stroop_test,59.96426130735908,
,,,,1.0,1.0,0.0,,,,,,,,,,,,,gelb,yellow,g,1.0,g,1.0,0.913280599983409,,,,,,,,,,0.0,1.0,1.0,10.0,195.54170189984143,,,,,,,,,,,,,,,,,195.5257512000389,195.87482939986512,196.67495919996875,196.6591564998962,,,,,,,,,,,,,,,,,,,,,,,,,,,,,,,,,,,196.66189730004407,196.67495919996875,196.67495919996875,197.59283229988068,g,1.0,0.913280599983409,,,,,,sub-083,1,stroop_test,59.96426130735908,
,,,,2.0,2.0,0.0,,,,,,,,,,,,,blau,yellow,g,0.0,g,1.0,1.115795599995181,,,,,,,,,,0.0,2.0,2.0,7.0,197.60809620004147,,,,,,,,,,,,,,,,,197.59311400004665,198.8079639999196,199.60745169990696,199.59147619991563,,,,,,,,,,,,,,,,,,,,,,,,,,,,,,,,,,,199.5944676999934,199.60745169990696,199.60745169990696,200.7260094999801,g,1.0,1.115795599995181,,,,,,sub-083,1,stroop_test,59.96426130735908,
,,,,3.0,3.0,0.0,,,,,,,,,,,,,blau,blue,b,1.0,b,1.0,0.54254290019162,,,,,,,,,,0.0,3.0,3.0,5.0,200.7409765999764,,,,,,,,,,,,,,,,,200.7262921999209,201.54080910002813,202.34062289982103,202.3244546998758,,,,,,,,,,,,,,,,,,,,,,,,,,,,,,,,,,,202.3248069998808,202.34062289982103,202.34062289982103,202.89147070003676,b,1.0,0.54254290019162,,,,,,sub-083,1,stroop_test,59.96426130735908,
,,,,4.0,4.0,0.0,,,,,,,,,,,,,rot,red,r,1.0,r,1.0,0.8849108999129385,,,,,,,,,,0.0,4.0,4.0,0.0,202.90687389997763,,,,,,,,,,,,,,,,,202.891755099874,204.10687919985503,204.9070214999374,204.89083960000423,,,,,,,,,,,,,,,,,,,,,,,,,,,,,,,,,,,204.89299329998903,204.9070214999374,204.9070214999374,205.7936134999618,r,1.0,0.8849108999129385,,,,,,sub-083,1,stroop_test,59.96426130735908,
,,,,5.0,5.0,0.0,,,,,,,,,,,,,rot,red,r,1.0,r,1.0,0.6101859998889267,,,,,,,,,,0.0,5.0,5.0,1.0,205.8073451998644,,,,,,,,,,,,,,,,,205.794132999843,207.00676939985715,207.80709380004555,207.790597199928,,,,,,,,,,,,,,,,,,,,,,,,,,,,,,,,,,,207.79092079983093,207.80709380004555,207.80709380004555,208.4243226000108,r,1.0,0.6101859998889267,,,,,,sub-083,1,stroop_test,59.96426130735908,
,,,,6.0,6.0,0.0,,,,,,,,,,,,,gelb,blue,b,0.0,b,1.0,0.8364725999999791,,,,,,,,,,0.0,6.0,6.0,9.0,208.43985279998745,,,,,,,,,,,,,,,,,208.4246785999276,209.23973949998617,210.03948969999328,210.0234125999268,,,,,,,,,,,,,,,,,,,,,,,,,,,,,,,,,,,210.0256520998664,210.03948969999328,210.03948969999328,210.8903426998295,b,1.0,0.8364725999999791,,,,,,sub-083,1,stroop_test,59.96426130735908,
,,,,7.0,7.0,0.0,,,,,,,,,,,,,blau,blue,b,1.0,b,1.0,0.6168798001017421,,,,,,,,,,0.0,7.0,7.0,6.0,210.9060777998529,,,,,,,,,,,,,,,,,210.8905896998476,212.089617599966,212.88933259993792,212.87325449986383,,,,,,,,,,,,,,,,,,,,,,,,,,,,,,,,,,,212.8752245998476,212.88933259993792,212.88933259993792,213.50752249988727,b,1.0,0.6168798001017421,,,,,,sub-083,1,stroop_test,59.96426130735908,
,,,,8.0,8.0,0.0,,,,,,,,,,,,,gelb,yellow,g,1.0,g,1.0,0.779649900039658,,,,,,,,,,0.0,8.0,8.0,11.0,213.52250729990192,,,,,,,,,,,,,,,,,213.5078667998314,213.6226643000264,214.42235639994036,214.40639579994604,,,,,,,,,,,,,,,,,,,,,,,,,,,,,,,,,,,214.4085978998337,214.42235639994036,214.42235639994036,215.2071887999773,g,1.0,0.779649900039658,,,,,,sub-083,1,stroop_test,59.96426130735908,
,,,,9.0,9.0,0.0,,,,,,,,,,,,,gelb,red,r,0.0,r,1.0,0.7478622000198811,,,,,,,,,,0.0,9.0,9.0,8.0,215.2222137998324,,,,,,,,,,,,,,,,,215.2074327999726,216.4228817999829,217.222204499878,217.2064220998436,,,,,,,,,,,,,,,,,,,,,,,,,,,,,,,,,,,217.206828000024,217.222204499878,217.222204499878,217.9732472999021,r,1.0,0.7478622000198811,,,,,,sub-083,1,stroop_test,59.96426130735908,
,,,,10.0,10.0,0.0,,,,,,,,,,,,,rot,blue,b,0.0,g,0.0,1.4784097999799997,,,,,,,,,,0.0,10.0,10.0,2.0,217.98883819999173,,,,,,,,,,,,,,,,,217.9735609998461,218.3391146999784,219.1388542999048,219.1224640998989,,,,,,,,,,,,,,,,,,,,,,,,,,,,,,,,,,,219.1250255999621,219.1388542999048,219.1388542999048,220.6229127999395,g,0.0,1.4784097999799997,,,,,,sub-083,1,stroop_test,59.96426130735908,
,,,,11.0,11.0,0.0,,,,,,,,,,,,,blau,red,r,0.0,r,1.0,1.679800699930638,,,,,,,,,,0.0,11.0,11.0,4.0,220.6382172999438,,,,,,,,,,,,,,,,,220.62317779986188,220.9717373999301,221.77178979991004,221.75599269988012,,,,,,,,,,,,,,,,,,,,,,,,,,,,,,,,,,,221.7578797999304,221.77178979991004,221.77178979991004,223.45621720002964,r,1.0,1.679800699930638,,,,,,sub-083,1,stroop_test,59.96426130735908,
,,,,12.0,0.0,1.0,,,,,,,,,,,,,blau,blue,b,1.0,b,1.0,0.9668481999542564,,,,,,,,,,1.0,0.0,12.0,5.0,223.47149599995464,,,,,,,,,,,,,,,,,223.456458499888,224.6544246999547,225.45466959988696,225.43838809989396,,,,,,,,,,,,,,,,,,,,,,,,,,,,,,,,,,,225.43868969986212,225.45466959988696,225.45466959988696,226.4393078999128,b,1.0,0.9668481999542564,,,,,,sub-083,1,stroop_test,59.96426130735908,
,,,,13.0,1.0,1.0,,,,,,,,,,,,,gelb,blue,b,0.0,b,1.0,1.1809223999734968,,,,,,,,,,1.0,1.0,13.0,9.0,226.45424110000025,,,,,,,,,,,,,,,,,226.4396217998583,226.80413519986905,227.60420079994947,227.5885383000132,,,,,,,,,,,,,,,,,,,,,,,,,,,,,,,,,,,227.59230979997665,227.60420079994947,227.60420079994947,228.78895660000853,b,1.0,1.1809223999734968,,,,,,sub-083,1,stroop_test,59.96426130735908,
,,,,14.0,2.0,1.0,,,,,,,,,,,,,gelb,yellow,g,1.0,g,1.0,1.1033753999508915,,,,,,,,,,1.0,2.0,14.0,11.0,228.80372669990172,,,,,,,,,,,,,,,,,228.78933499986303,230.0041506998241,230.80381149984896,230.7878342999611,,,,,,,,,,,,,,,,,,,,,,,,,,,,,,,,,,,230.78820199985057,230.80381149984896,230.80381149984896,231.92124899988997,g,1.0,1.1033753999508915,,,,,,sub-083,1,stroop_test,59.96426130735908,
,,,,15.0,3.0,1.0,,,,,,,,,,,,,blau,red,r,0.0,r,1.0,1.075349299935624,,,,,,,,,,1.0,3.0,15.0,4.0,231.93691859999672,,,,,,,,,,,,,,,,,231.92149379989127,232.02037779986856,232.8210638000164,232.80406460003,,,,,,,,,,,,,,,,,,,,,,,,,,,,,,,,,,,232.80603949981744,232.8210638000164,232.8210638000164,233.9047017998528,r,1.0,1.075349299935624,,,,,,sub-083,1,stroop_test,59.96426130735908,
,,,,16.0,4.0,1.0,,,,,,,,,,,,,rot,yellow,g,0.0,g,1.0,1.4269952001050117,,,,,,,,,,1.0,4.0,16.0,3.0,233.9201567999553,,,,,,,,,,,,,,,,,233.9049443998374,234.70342579996213,235.5040350998752,235.48767649987715,,,,,,,,,,,,,,,,,,,,,,,,,,,,,,,,,,,235.48995169997212,235.5040350998752,235.5040350998752,236.9373594999779,g,1.0,1.4269952001050117,,,,,,sub-083,1,stroop_test,59.96426130735908,
,,,,17.0,5.0,1.0,,,,,,,,,,,,,gelb,red,r,0.0,r,1.0,0.8728898998815566,,,,,,,,,,1.0,5.0,17.0,8.0,236.9531018999405,,,,,,,,,,,,,,,,,236.937597299926,237.2872810999397,238.0860830999445,238.07055349997245,,,,,,,,,,,,,,,,,,,,,,,,,,,,,,,,,,,238.07258439995348,238.0860830999445,238.0860830999445,238.97045719996092,r,1.0,0.8728898998815566,,,,,,sub-083,1,stroop_test,59.96426130735908,
,,,,18.0,6.0,1.0,,,,,,,,,,,,,blau,blue,b,1.0,b,1.0,0.5768152000382543,,,,,,,,,,1.0,6.0,18.0,6.0,238.9859795998782,,,,,,,,,,,,,,,,,238.97071799985133,239.3357974998653,240.13635479984805,240.1200832000468,,,,,,,,,,,,,,,,,,,,,,,,,,,,,,,,,,,240.1220184999984,240.13635479984805,240.13635479984805,240.72063929983412,b,1.0,0.5768152000382543,,,,,,sub-083,1,stroop_test,59.96426130735908,
,,,,19.0,7.0,1.0,,,,,,,,,,,,,rot,red,r,1.0,r,1.0,0.8928520998451859,,,,,,,,,,1.0,7.0,19.0,1.0,240.7362193998415,,,,,,,,,,,,,,,,,240.7208652000409,241.0860735999886,241.88569719996303,241.8696598999668,,,,,,,,,,,,,,,,,,,,,,,,,,,,,,,,,,,241.87210699985732,241.88569719996303,241.88569719996303,242.7862134999596,r,1.0,0.8928520998451859,,,,,,sub-083,1,stroop_test,59.96426130735908,
,,,,20.0,8.0,1.0,,,,,,,,,,,,,rot,red,r,1.0,r,1.0,0.6594323001336306,,,,,,,,,,1.0,8.0,20.0,0.0,242.8032456999645,,,,,,,,,,,,,,,,,242.78644969989543,243.5854058000259,244.3852949000429,244.36926719988696,,,,,,,,,,,,,,,,,,,,,,,,,,,,,,,,,,,244.3695990999695,244.3852949000429,244.3852949000429,245.05277409986596,r,1.0,0.6594323001336306,,,,,,sub-083,1,stroop_test,59.96426130735908,
,,,,21.0,9.0,1.0,,,,,,,,,,,,,blau,yellow,g,0.0,g,1.0,1.1798930000513792,,,,,,,,,,1.0,9.0,21.0,7.0,245.0685103998985,,,,,,,,,,,,,,,,,245.05301419994797,245.86884430004284,246.6683131000027,246.65223959996365,,,,,,,,,,,,,,,,,,,,,,,,,,,,,,,,,,,246.6541371999774,246.6683131000027,246.6683131000027,247.8533336999826,g,1.0,1.1798930000513792,,,,,,sub-083,1,stroop_test,59.96426130735908,
,,,,22.0,10.0,1.0,,,,,,,,,,,,,rot,blue,b,0.0,b,1.0,0.9153356000315398,,,,,,,,,,1.0,10.0,22.0,2.0,247.8684594000224,,,,,,,,,,,,,,,,,247.85356519999917,248.21843399992213,249.01791539997797,249.00216099992397,,,,,,,,,,,,,,,,,,,,,,,,,,,,,,,,,,,249.00437520002012,249.01791539997797,249.01791539997797,249.936026299838,b,1.0,0.9153356000315398,,,,,,sub-083,1,stroop_test,59.96426130735908,
,,,,23.0,11.0,1.0,,,,,,,,,,,,,gelb,yellow,g,1.0,g,1.0,1.1528613998088986,,,,,,,,,,1.0,11.0,23.0,10.0,249.95146139990536,,,,,,,,,,,,,,,,,249.936285099946,250.75188270001672,251.55109589989297,251.53630219982008,,,,,,,,,,,,,,,,,,,,,,,,,,,,,,,,,,,251.53836299991235,251.55109589989297,251.55109589989297,252.71847189986147,g,1.0,1.1528613998088986,,,,,,sub-083,1,stroop_test,59.96426130735908,
,,,,24.0,0.0,2.0,,,,,,,,,,,,,gelb,yellow,g,1.0,g,1.0,0.5761265000328422,,,,,,,,,,2.0,0.0,24.0,10.0,252.73400609986857,,,,,,,,,,,,,,,,,252.71873119985685,252.81800109986216,253.61759559996423,253.6016118999105,,,,,,,,,,,,,,,,,,,,,,,,,,,,,,,,,,,253.60194560000676,253.61759559996423,253.61759559996423,254.20180509984493,g,1.0,0.5761265000328422,,,,,,sub-083,1,stroop_test,59.96426130735908,
,,,,25.0,1.0,2.0,,,,,,,,,,,,,gelb,red,r,0.0,r,1.0,0.8524048000108451,,,,,,,,,,2.0,1.0,25.0,8.0,254.21744999988005,,,,,,,,,,,,,,,,,254.2020950999577,254.3172559000086,255.11727419984527,255.1010519999545,,,,,,,,,,,,,,,,,,,,,,,,,,,,,,,,,,,255.10143259982576,255.11727419984527,255.11727419984527,255.98470359994096,r,1.0,0.8524048000108451,,,,,,sub-083,1,stroop_test,59.96426130735908,
,,,,26.0,2.0,2.0,,,,,,,,,,,,,blau,blue,b,1.0,b,1.0,0.5560256000608206,,,,,,,,,,2.0,2.0,26.0,6.0,256.0005357998889,,,,,,,,,,,,,,,,,255.98494789982212,256.3343299999833,257.1338299999479,257.1178101999685,,,,,,,,,,,,,,,,,,,,,,,,,,,,,,,,,,,257.11978629999794,257.1338299999479,257.1338299999479,257.70140219992027,b,1.0,0.5560256000608206,,,,,,sub-083,1,stroop_test,59.96426130735908,
,,,,27.0,3.0,2.0,,,,,,,,,,,,,rot,yellow,g,0.0,g,1.0,1.1905914000235498,,,,,,,,,,2.0,3.0,27.0,3.0,257.7172395000234,,,,,,,,,,,,,,,,,257.7017059000209,258.5010120999068,259.3003578998614,259.2847690000199,,,,,,,,,,,,,,,,,,,,,,,,,,,,,,,,,,,259.28734729997814,259.3003578998614,259.3003578998614,260.5010831998661,g,1.0,1.1905914000235498,,,,,,sub-083,1,stroop_test,59.96426130735908,
,,,,28.0,4.0,2.0,,,,,,,,,,,,,gelb,blue,b,0.0,b,1.0,1.0070515999104828,,,,,,,,,,2.0,4.0,28.0,9.0,260.51719769998454,,,,,,,,,,,,,,,,,260.5013502999209,260.85006069997326,261.6497930998448,261.63398569985293,,,,,,,,,,,,,,,,,,,,,,,,,,,,,,,,,,,261.6364133998286,261.6497930998448,261.6497930998448,262.66836989996955,b,1.0,1.0070515999104828,,,,,,sub-083,1,stroop_test,59.96426130735908,
,,,,29.0,5.0,2.0,,,,,,,,,,,,,rot,red,r,1.0,r,1.0,0.5331139999907464,,,,,,,,,,2.0,5.0,29.0,0.0,262.6832206998952,,,,,,,,,,,,,,,,,262.6687037998345,263.4681436000392,264.26826899987645,264.253559099976,,,,,,,,,,,,,,,,,,,,,,,,,,,,,,,,,,,264.25815929984674,264.26826899987645,264.26826899987645,264.81818980001844,r,1.0,0.5331139999907464,,,,,,sub-083,1,stroop_test,59.96426130735908,
,,,,30.0,6.0,2.0,,,,,,,,,,,,,blau,red,r,0.0,r,1.0,0.9517183999996632,,,,,,,,,,2.0,6.0,30.0,4.0,264.83269189996645,,,,,,,,,,,,,,,,,264.8185550000053,265.6329238000326,266.43266109982505,266.4170317000244,,,,,,,,,,,,,,,,,,,,,,,,,,,,,,,,,,,266.4190687998198,266.43266109982505,266.43266109982505,267.4003897998482,r,1.0,0.9517183999996632,,,,,,sub-083,1,stroop_test,59.96426130735908,
,,,,31.0,7.0,2.0,,,,,,,,,,,,,blau,yellow,g,0.0,g,1.0,1.1280637001618743,,,,,,,,,,2.0,7.0,31.0,7.0,267.4161278998945,,,,,,,,,,,,,,,,,267.40074049984105,267.7497391998768,268.5502259999048,268.5351499998942,,,,,,,,,,,,,,,,,,,,,,,,,,,,,,,,,,,268.53591339988634,268.5502259999048,268.5502259999048,269.68803029996343,g,1.0,1.1280637001618743,,,,,,sub-083,1,stroop_test,59.96426130735908,
,,,,32.0,8.0,2.0,,,,,,,,,,,,,rot,blue,b,0.0,b,1.0,0.7167658000253141,,,,,,,,,,2.0,8.0,32.0,2.0,269.7021222000476,,,,,,,,,,,,,,,,,269.68866800004616,270.04989409982227,270.8656873998698,270.84968300000764,,,,,,,,,,,,,,,,,,,,,,,,,,,,,,,,,,,270.85279130004346,270.8656873998698,270.8656873998698,271.58411949989386,b,1.0,0.7167658000253141,,,,,,sub-083,1,stroop_test,59.96426130735908,
,,,,33.0,9.0,2.0,,,,,,,,,,,,,rot,red,r,1.0,r,1.0,0.8159320000559092,,,,,,,,,,2.0,9.0,33.0,1.0,271.59934980003163,,,,,,,,,,,,,,,,,271.5845371000469,271.7002448998392,272.4990415000357,272.4837050999049,,,,,,,,,,,,,,,,,,,,,,,,,,,,,,,,,,,272.4844194999896,272.4990415000357,272.4990415000357,273.31706949998625,r,1.0,0.8159320000559092,,,,,,sub-083,1,stroop_test,59.96426130735908,
,,,,34.0,10.0,2.0,,,,,,,,,,,,,blau,blue,b,1.0,b,1.0,0.6192290999460965,,,,,,,,,,2.0,10.0,34.0,5.0,273.33195200003684,,,,,,,,,,,,,,,,,273.31737689999864,274.1316344998777,274.93150049983524,274.9155739999842,,,,,,,,,,,,,,,,,,,,,,,,,,,,,,,,,,,274.9180727000348,274.93150049983524,274.93150049983524,275.5671404998284,b,1.0,0.6192290999460965,,,,,,sub-083,1,stroop_test,59.96426130735908,
,,,,35.0,11.0,2.0,,,,,,,,,,,,,gelb,yellow,g,1.0,g,1.0,0.6005351000931114,,,,,,,,,,2.0,11.0,35.0,11.0,275.5821558998432,,,,,,,,,,,,,,,,,275.5675988998264,276.782278199913,277.5813926998526,277.5653096998576,,,,,,,,,,,,,,,,,,,,,,,,,,,,,,,,,,,277.56797139998525,277.5813926998526,277.5813926998526,278.1988561998587,g,1.0,0.6005351000931114,,,,,,sub-083,1,stroop_test,59.96426130735908,
,,,,36.0,0.0,3.0,,,,,,,,,,,,,rot,red,r,1.0,r,1.0,0.5892181999515742,,,,,,,,,,3.0,0.0,36.0,1.0,278.2159753998276,,,,,,,,,,,,,,,,,278.1991498998832,279.3977155999746,280.2011326998472,280.18351550004445,,,,,,,,,,,,,,,,,,,,,,,,,,,,,,,,,,,280.19256290001795,280.2011326998472,280.2011326998472,280.79871849995106,r,1.0,0.5892181999515742,,,,,,sub-083,1,stroop_test,59.96426130735908,
,,,,37.0,1.0,3.0,,,,,,,,,,,,,blau,blue,b,1.0,b,1.0,0.7017590999603271,,,,,,,,,,3.0,1.0,37.0,6.0,280.81407790002413,,,,,,,,,,,,,,,,,280.79916980001144,282.0137397998478,282.81396209984086,282.7982909998391,,,,,,,,,,,,,,,,,,,,,,,,,,,,,,,,,,,282.80042249988765,282.81396209984086,282.81396209984086,283.5316443999764,b,1.0,0.7017590999603271,,,,,,sub-083,1,stroop_test,59.96426130735908,
,,,,38.0,2.0,3.0,,,,,,,,,,,,,blau,blue,b,1.0,b,1.0,0.617751499870792,,,,,,,,,,3.0,2.0,38.0,5.0,283.5472865998745,,,,,,,,,,,,,,,,,283.53200969984755,283.89721999992616,284.6978293999564,284.68146789981984,,,,,,,,,,,,,,,,,,,,,,,,,,,,,,,,,,,284.68187900003977,284.6978293999564,284.6978293999564,285.3311556999106,b,1.0,0.617751499870792,,,,,,sub-083,1,stroop_test,59.96426130735908,
,,,,39.0,3.0,3.0,,,,,,,,,,,,,gelb,red,r,0.0,r,1.0,1.098869599867612,,,,,,,,,,3.0,3.0,39.0,8.0,285.3469420999754,,,,,,,,,,,,,,,,,285.33139880001545,286.54668439994566,287.3465173998848,287.33055529999547,,,,,,,,,,,,,,,,,,,,,,,,,,,,,,,,,,,287.33260710001923,287.3465173998848,287.3465173998848,288.447748699924,r,1.0,1.098869599867612,,,,,,sub-083,1,stroop_test,59.96426130735908,
,,,,40.0,4.0,3.0,,,,,,,,,,,,,gelb,yellow,g,1.0,g,1.0,0.6788721000775695,,,,,,,,,,3.0,4.0,40.0,11.0,288.4630106999539,,,,,,,,,,,,,,,,,288.44804579997435,288.81317749992013,289.6135484999977,289.5972012998536,,,,,,,,,,,,,,,,,,,,,,,,,,,,,,,,,,,289.5975022998173,289.6135484999977,289.6135484999977,290.2992658999283,g,1.0,0.6788721000775695,,,,,,sub-083,1,stroop_test,59.96426130735908,
,,,,41.0,5.0,3.0,,,,,,,,,,,,,rot,yellow,g,0.0,g,1.0,1.4711267000529915,,,,,,,,,,3.0,5.0,41.0,3.0,290.31281829997897,,,,,,,,,,,,,,,,,290.29949519992806,291.1128826998174,291.9126799998339,291.8967523998581,,,,,,,,,,,,,,,,,,,,,,,,,,,,,,,,,,,291.8998665998224,291.9126799998339,291.9126799998339,293.3972273999825,g,1.0,1.4711267000529915,,,,,,sub-083,1,stroop_test,59.96426130735908,
,,,,42.0,6.0,3.0,,,,,,,,,,,,,rot,red,r,1.0,r,1.0,0.8340529999695718,,,,,,,,,,3.0,6.0,42.0,0.0,293.4123857000377,,,,,,,,,,,,,,,,,293.3975239000283,294.6129829999991,295.41380649991333,295.3987743000034,,,,,,,,,,,,,,,,,,,,,,,,,,,,,,,,,,,295.399947399972,295.41380649991333,295.41380649991333,296.2635007998906,r,1.0,0.8340529999695718,,,,,,sub-083,1,stroop_test,59.96426130735908,
,,,,43.0,7.0,3.0,,,,,,,,,,,,,rot,blue,b,0.0,b,1.0,0.7504656000528485,,,,,,,,,,3.0,7.0,43.0,2.0,296.27893169992603,,,,,,,,,,,,,,,,,296.2637281999924,296.362355499994,297.16267469991,297.1468437998556,,,,,,,,,,,,,,,,,,,,,,,,,,,,,,,,,,,297.1471408000216,297.16267469991,297.16267469991,297.9148023999296,b,1.0,0.7504656000528485,,,,,,sub-083,1,stroop_test,59.96426130735908,
,,,,44.0,8.0,3.0,,,,,,,,,,,,,blau,yellow,g,0.0,g,1.0,0.9606349000241609,,,,,,,,,,3.0,8.0,44.0,7.0,297.92879549996,,,,,,,,,,,,,,,,,297.9153058999218,298.02913399995305,298.828434899915,298.81243309983984,,,,,,,,,,,,,,,,,,,,,,,,,,,,,,,,,,,298.814482799964,298.828434899915,298.828434899915,299.79657240002416,g,1.0,0.9606349000241609,,,,,,sub-083,1,stroop_test,59.96426130735908,
,,,,45.0,9.0,3.0,,,,,,,,,,,,,blau,red,r,0.0,r,1.0,1.1839790001977235,,,,,,,,,,3.0,9.0,45.0,4.0,299.81160949985497,,,,,,,,,,,,,,,,,299.7968095999677,300.16143939993344,300.9617555998266,300.94514649990015,,,,,,,,,,,,,,,,,,,,,,,,,,,,,,,,,,,300.945461699972,300.9617555998266,300.9617555998266,302.1622915000189,r,1.0,1.1839790001977235,,,,,,sub-083,1,stroop_test,59.96426130735908,
,,,,46.0,10.0,3.0,,,,,,,,,,,,,gelb,blue,b,0.0,b,1.0,0.3766185001004487,,,,,,,,,,3.0,10.0,46.0,9.0,302.17835800000466,,,,,,,,,,,,,,,,,302.1625371999108,302.9617977000308,303.7616091000382,303.7452285999898,,,,,,,,,,,,,,,,,,,,,,,,,,,,,,,,,,,303.74740100000054,303.7616091000382,303.7616091000382,304.1453237000387,b,1.0,0.3766185001004487,,,,,,sub-083,1,stroop_test,59.96426130735908,
,,,,47.0,11.0,3.0,,,,,,,,,,,,,gelb,yellow,g,1.0,g,1.0,0.4762555998750031,,,,,,,,,,3.0,11.0,47.0,10.0,304.1612346000038,,,,,,,,,,,,,,,,,304.14555659983307,304.94415559992194,305.7442709999159,305.72822599997744,,,,,,,,,,,,,,,,,,,,,,,,,,,,,,,,,,,305.72854179982096,305.7442709999159,305.7442709999159,306.22842959989794,g,1.0,0.4762555998750031,,,,,,sub-083,1,stroop_test,59.96426130735908,
,,,,48.0,0.0,4.0,,,,,,,,,,,,,gelb,blue,b,0.0,b,1.0,0.7205141000449657,,,,,,,,,,4.0,0.0,48.0,9.0,306.2442985998932,,,,,,,,,,,,,,,,,306.2286616000347,307.0439955999609,307.84400259982795,307.8278757999651,,,,,,,,,,,,,,,,,,,,,,,,,,,,,,,,,,,307.82817739993334,307.84400259982795,307.84400259982795,308.5781310000457,b,1.0,0.7205141000449657,,,,,,sub-083,1,stroop_test,59.96426130735908,
,,,,49.0,1.0,4.0,,,,,,,,,,,,,gelb,yellow,g,1.0,g,1.0,0.6840019000228494,,,,,,,,,,4.0,1.0,49.0,11.0,308.5939859999344,,,,,,,,,,,,,,,,,308.5783771998249,308.677579900017,309.4775675998535,309.4614748999011,,,,,,,,,,,,,,,,,,,,,,,,,,,,,,,,,,,309.4617993000429,309.4775675998535,309.4775675998535,310.17840490001254,g,1.0,0.6840019000228494,,,,,,sub-083,1,stroop_test,59.96426130735908,
,,,,50.0,2.0,4.0,,,,,,,,,,,,,blau,red,r,0.0,r,1.0,1.1092622000724075,,,,,,,,,,4.0,2.0,50.0,4.0,310.1937665999867,,,,,,,,,,,,,,,,,310.1786535999272,311.3936999000143,312.1936095999554,312.1777284999844,,,,,,,,,,,,,,,,,,,,,,,,,,,,,,,,,,,312.1796969999559,312.1936095999554,312.1936095999554,313.3113009999506,r,1.0,1.1092622000724075,,,,,,sub-083,1,stroop_test,59.96426130735908,
,,,,51.0,3.0,4.0,,,,,,,,,,,,,blau,yellow,g,0.0,g,1.0,1.020457400009036,,,,,,,,,,4.0,3.0,51.0,7.0,313.3272527998779,,,,,,,,,,,,,,,,,313.31153919990174,314.1264086998999,314.92638339987025,314.9103347999044,,,,,,,,,,,,,,,,,,,,,,,,,,,,,,,,,,,314.9106603998225,314.92638339987025,314.92638339987025,315.96045609982684,g,1.0,1.020457400009036,,,,,,sub-083,1,stroop_test,59.96426130735908,
,,,,52.0,4.0,4.0,,,,,,,,,,,,,rot,yellow,g,0.0,g,1.0,0.948383300099522,,,,,,,,,,4.0,4.0,52.0,3.0,315.9760697998572,,,,,,,,,,,,,,,,,315.9606888999697,316.7599749998189,317.5594063999597,317.5438462998718,,,,,,,,,,,,,,,,,,,,,,,,,,,,,,,,,,,317.5459612000268,317.5594063999597,317.5594063999597,318.51095280004665,g,1.0,0.948383300099522,,,,,,sub-083,1,stroop_test,59.96426130735908,
,,,,53.0,5.0,4.0,,,,,,,,,,,,,rot,red,r,1.0,r,1.0,0.6931906999088824,,,,,,,,,,4.0,5.0,53.0,1.0,318.5258311999496,,,,,,,,,,,,,,,,,318.51133110001683,319.325888699852,320.12630310002714,320.109814299969,,,,,,,,,,,,,,,,,,,,,,,,,,,,,,,,,,,320.11010359996,320.12630310002714,320.12630310002714,320.8264897998888,r,1.0,0.6931906999088824,,,,,,sub-083,1,stroop_test,59.96426130735908,
,,,,54.0,6.0,4.0,,,,,,,,,,,,,blau,blue,b,1.0,b,1.0,0.6315367999486625,,,,,,,,,,4.0,6.0,54.0,6.0,320.84241689997725,,,,,,,,,,,,,,,,,320.82670810003765,321.62598789995536,322.425544800004,322.4095044999849,,,,,,,,,,,,,,,,,,,,,,,,,,,,,,,,,,,322.4114621998742,322.425544800004,322.425544800004,323.0601458000019,b,1.0,0.6315367999486625,,,,,,sub-083,1,stroop_test,59.96426130735908,
,,,,55.0,7.0,4.0,,,,,,,,,,,,,rot,blue,b,0.0,b,1.0,1.0321949000936002,,,,,,,,,,4.0,7.0,55.0,2.0,323.0753660998307,,,,,,,,,,,,,,,,,323.06039489991963,323.17536019999534,323.97515879990533,323.95911489985883,,,,,,,,,,,,,,,,,,,,,,,,,,,,,,,,,,,323.9615050998982,323.97515879990533,323.97515879990533,325.00951140001416,b,1.0,1.0321949000936002,,,,,,sub-083,1,stroop_test,59.96426130735908,
,,,,56.0,8.0,4.0,,,,,,,,,,,,,blau,blue,b,1.0,b,1.0,0.6469264999032021,,,,,,,,,,4.0,8.0,56.0,5.0,325.02514569996856,,,,,,,,,,,,,,,,,325.0098494000267,325.12503689993173,325.92524859984405,325.9093577999156,,,,,,,,,,,,,,,,,,,,,,,,,,,,,,,,,,,325.9120741998777,325.92524859984405,325.92524859984405,326.5773781000171,b,1.0,0.6469264999032021,,,,,,sub-083,1,stroop_test,59.96426130735908,
,,,,57.0,9.0,4.0,,,,,,,,,,,,,gelb,yellow,g,1.0,g,1.0,1.2751680999062955,,,,,,,,,,4.0,9.0,57.0,10.0,326.59146789996885,,,,,,,,,,,,,,,,,326.5778467999771,327.7926590000279,328.60829099989496,328.59208339988254,,,,,,,,,,,,,,,,,,,,,,,,,,,,,,,,,,,328.5941123999655,328.60829099989496,328.60829099989496,329.8921384999994,g,1.0,1.2751680999062955,,,,,,sub-083,1,stroop_test,59.96426130735908,
,,,,58.0,10.0,4.0,,,,,,,,,,,,,rot,red,r,1.0,r,1.0,0.6421107000205666,,,,,,,,,,4.0,10.0,58.0,0.0,329.9078509998508,,,,,,,,,,,,,,,,,329.8924350999296,329.9912642999552,330.7910527999047,330.77516229986213,,,,,,,,,,,,,,,,,,,,,,,,,,,,,,,,,,,330.7776857998688,330.7910527999047,330.7910527999047,331.4421427999623,r,1.0,0.6421107000205666,,,,,,sub-083,1,stroop_test,59.96426130735908,
,,,,59.0,11.0,4.0,,,,,,,,,,,,,gelb,red,r,0.0,r,1.0,1.0479059000499549,,,,,,,,,,4.0,11.0,59.0,8.0,331.4578308998607,,,,,,,,,,,,,,,,,331.44241429981776,331.79157279990613,332.5908822999336,332.5750768999569,,,,,,,,,,,,,,,,,,,,,,,,,,,,,,,,,,,332.5772714000195,332.5908822999336,332.5908822999336,333.6420777000021,r,1.0,1.0479059000499549,,,,,,sub-083,1,stroop_test,59.96426130735908,
,,,,60.0,0.0,5.0,,,,,,,,,,,,,blau,blue,b,1.0,b,1.0,0.6147709998767823,,,,,,,,,,5.0,0.0,60.0,6.0,333.65725829987787,,,,,,,,,,,,,,,,,333.64230399997905,334.4575304000173,335.2572963000275,335.24120029993355,,,,,,,,,,,,,,,,,,,,,,,,,,,,,,,,,,,335.2430810998194,335.2572963000275,335.2572963000275,335.8751095999032,b,1.0,0.6147709998767823,,,,,,sub-083,1,stroop_test,59.96426130735908,
,,,,61.0,1.0,5.0,,,,,,,,,,,,,blau,red,r,0.0,r,1.0,0.8785399000626057,,,,,,,,,,5.0,1.0,61.0,4.0,335.89066309994087,,,,,,,,,,,,,,,,,335.8753329999745,335.99066909984685,336.7907516998239,336.77518839994445,,,,,,,,,,,,,,,,,,,,,,,,,,,,,,,,,,,336.7754624998197,336.7907516998239,336.7907516998239,337.6744758998975,r,1.0,0.8785399000626057,,,,,,sub-083,1,stroop_test,59.96426130735908,
,,,,62.0,2.0,5.0,,,,,,,,,,,,,rot,red,r,1.0,r,1.0,0.6528938000556082,,,,,,,,,,5.0,2.0,62.0,0.0,337.69019039999694,,,,,,,,,,,,,,,,,337.6747045000084,338.4742335998453,339.2738955998793,339.25767109985463,,,,,,,,,,,,,,,,,,,,,,,,,,,,,,,,,,,339.25969540001824,339.2738955998793,339.2738955998793,339.9420125999022,r,1.0,0.6528938000556082,,,,,,sub-083,1,stroop_test,59.96426130735908,
,,,,63.0,3.0,5.0,,,,,,,,,,,,,gelb,blue,b,0.0,b,1.0,1.120496300049126,,,,,,,,,,5.0,3.0,63.0,9.0,339.9569534000475,,,,,,,,,,,,,,,,,339.9423340999056,340.0576650998555,340.8568498999812,340.84090259997174,,,,,,,,,,,,,,,,,,,,,,,,,,,,,,,,,,,340.84306530002505,340.8568498999812,340.8568498999812,341.99020059988834,b,1.0,1.120496300049126,,,,,,sub-083,1,stroop_test,59.96426130735908,
,,,,64.0,4.0,5.0,,,,,,,,,,,,,rot,blue,b,0.0,b,1.0,0.963452500058338,,,,,,,,,,5.0,4.0,64.0,2.0,342.0069330998231,,,,,,,,,,,,,,,,,341.9904455000069,343.1900744999293,343.9895005000289,343.9736974998377,,,,,,,,,,,,,,,,,,,,,,,,,,,,,,,,,,,343.9773968998343,343.9895005000289,343.9895005000289,344.9578207999002,b,1.0,0.963452500058338,,,,,,sub-083,1,stroop_test,59.96426130735908,
,,,,65.0,5.0,5.0,,,,,,,,,,,,,gelb,yellow,g,1.0,g,1.0,0.6347648000810295,,,,,,,,,,5.0,5.0,65.0,10.0,344.9729265000205,,,,,,,,,,,,,,,,,344.9580510999076,345.32267090003006,346.12261079996824,346.1065660000313,,,,,,,,,,,,,,,,,,,,,,,,,,,,,,,,,,,346.1092260000296,346.12261079996824,346.12261079996824,346.7737320999149,g,1.0,0.6347648000810295,,,,,,sub-083,1,stroop_test,59.96426130735908,
,,,,66.0,6.0,5.0,,,,,,,,,,,,,rot,yellow,g,0.0,g,1.0,0.965309200109914,,,,,,,,,,5.0,6.0,66.0,3.0,346.78946210001595,,,,,,,,,,,,,,,,,346.7740138999652,347.1238604998216,347.9388768998906,347.92316229990683,,,,,,,,,,,,,,,,,,,,,,,,,,,,,,,,,,,347.925262299832,347.9388768998906,347.9388768998906,348.9122566999868,g,1.0,0.965309200109914,,,,,,sub-083,1,stroop_test,59.96426130735908,
,,,,67.0,7.0,5.0,,,,,,,,,,,,,gelb,red,r,0.0,g,0.0,1.1327691001351925,,,,,,,,,,5.0,7.0,67.0,8.0,348.9223286998458,,,,,,,,,,,,,,,,,348.91351119987667,349.7231250000186,350.52211759984493,350.5064029998612,,,,,,,,,,,,,,,,,,,,,,,,,,,,,,,,,,,350.5084203998558,350.52211759984493,350.52211759984493,351.6565837999806,g,0.0,1.1327691001351925,,,,,,sub-083,1,stroop_test,59.96426130735908,
,,,,68.0,8.0,5.0,,,,,,,,,,,,,blau,blue,b,1.0,b,1.0,0.6669387998990715,,,,,,,,,,5.0,8.0,68.0,5.0,351.6718267998658,,,,,,,,,,,,,,,,,351.6569195999764,352.02165029989555,352.8220353999641,352.80582579993643,,,,,,,,,,,,,,,,,,,,,,,,,,,,,,,,,,,352.8076529998798,352.8220353999641,352.8220353999641,353.4903915999457,b,1.0,0.6669387998990715,,,,,,sub-083,1,stroop_test,59.96426130735908,
,,,,69.0,9.0,5.0,,,,,,,,,,,,,gelb,yellow,g,1.0,g,1.0,0.7788495998829603,,,,,,,,,,5.0,9.0,69.0,11.0,353.5054126998876,,,,,,,,,,,,,,,,,353.490764999995,354.7047949000262,355.50504029984586,355.4883657000028,,,,,,,,,,,,,,,,,,,,,,,,,,,,,,,,,,,355.49061609990895,355.50504029984586,355.50504029984586,356.2891953999642,g,1.0,0.7788495998829603,,,,,,sub-083,1,stroop_test,59.96426130735908,
,,,,70.0,10.0,5.0,,,,,,,,,,,,,rot,red,r,1.0,r,1.0,0.8442132000345737,,,,,,,,,,5.0,10.0,70.0,1.0,356.30463789985515,,,,,,,,,,,,,,,,,356.28941389988177,356.6378303999081,357.43809049995616,357.42173049994744,,,,,,,,,,,,,,,,,,,,,,,,,,,,,,,,,,,357.4237579999026,357.43809049995616,357.43809049995616,358.2888327999972,r,1.0,0.8442132000345737,,,,,,sub-083,1,stroop_test,59.96426130735908,
,,,,71.0,11.0,5.0,,,,,,,,,,,,,blau,yellow,g,0.0,g,1.0,1.310008400119841,,,,,,,,,,5.0,11.0,71.0,7.0,358.3056138998363,,,,,,,,,,,,,,,,,358.28910840000026,358.4043922999408,359.2041282998398,359.1882905999664,,,,,,,,,,,,,,,,,,,,,,,,,,,,,,,,,,,359.19050599983893,359.2041282998398,359.2041282998398,360.52170749986544,g,1.0,1.310008400119841,,,,,,sub-083,1,stroop_test,59.96426130735908,
,,,,72.0,0.0,6.0,,,,,,,,,,,,,blau,blue,b,1.0,b,1.0,0.7258639000356197,,,,,,,,,,6.0,0.0,72.0,5.0,360.5372202999424,,,,,,,,,,,,,,,,,360.5219337998424,360.6216606998351,361.42126319999807,361.4049327999819,,,,,,,,,,,,,,,,,,,,,,,,,,,,,,,,,,,361.4052418000065,361.42126319999807,361.42126319999807,362.1554352999665,b,1.0,0.7258639000356197,,,,,,sub-083,1,stroop_test,59.96426130735908,
,,,,73.0,1.0,6.0,,,,,,,,,,,,,gelb,blue,b,0.0,b,1.0,1.1651186998933554,,,,,,,,,,6.0,1.0,73.0,9.0,362.1703931998927,,,,,,,,,,,,,,,,,362.1556881000288,362.970487699844,363.7707477000076,363.7540362998843,,,,,,,,,,,,,,,,,,,,,,,,,,,,,,,,,,,363.7564489999786,363.7707477000076,363.7707477000076,364.9388385999482,b,1.0,1.1651186998933554,,,,,,sub-083,1,stroop_test,59.96426130735908,
,,,,74.0,2.0,6.0,,,,,,,,,,,,,rot,yellow,g,0.0,g,1.0,1.037622299976647,,,,,,,,,,6.0,2.0,74.0,3.0,364.9535182998516,,,,,,,,,,,,,,,,,364.939280099934,365.3033779999241,366.10393260000274,366.0876184999943,,,,,,,,,,,,,,,,,,,,,,,,,,,,,,,,,,,366.0898500999901,366.10393260000274,366.10393260000274,367.1544782000128,g,1.0,1.037622299976647,,,,,,sub-083,1,stroop_test,59.96426130735908,
,,,,75.0,3.0,6.0,,,,,,,,,,,,,gelb,yellow,g,1.0,g,1.0,0.8273038000334054,,,,,,,,,,6.0,3.0,75.0,11.0,367.1697855999228,,,,,,,,,,,,,,,,,367.1546922998969,367.96990369982086,368.76978999981657,368.7540144999512,,,,,,,,,,,,,,,,,,,,,,,,,,,,,,,,,,,368.7559642000124,368.76978999981657,368.76978999981657,369.6037608999759,g,1.0,0.8273038000334054,,,,,,sub-083,1,stroop_test,59.96426130735908,
,,,,76.0,4.0,6.0,,,,,,,,,,,,,blau,red,r,0.0,r,1.0,0.947380700148642,,,,,,,,,,6.0,4.0,76.0,4.0,369.6197239998728,,,,,,,,,,,,,,,,,369.6039741998538,370.8029115998652,371.6025939998217,371.5870137000457,,,,,,,,,,,,,,,,,,,,,,,,,,,,,,,,,,,371.5897323999088,371.6025939998217,371.6025939998217,372.55437120003626,r,1.0,0.947380700148642,,,,,,sub-083,1,stroop_test,59.96426130735908,
,,,,77.0,5.0,6.0,,,,,,,,,,,,,gelb,red,r,0.0,r,1.0,0.9183996000792832,,,,,,,,,,6.0,5.0,77.0,8.0,372.5692539999727,,,,,,,,,,,,,,,,,372.554674499901,373.76899289991707,374.56868909997866,374.5528973999899,,,,,,,,,,,,,,,,,,,,,,,,,,,,,,,,,,,374.55509130004793,374.56868909997866,374.56868909997866,375.5038689000066,r,1.0,0.9183996000792832,,,,,,sub-083,1,stroop_test,59.96426130735908,
,,,,78.0,6.0,6.0,,,,,,,,,,,,,blau,blue,b,1.0,b,1.0,0.6311959000304341,,,,,,,,,,6.0,6.0,78.0,6.0,375.5190155999735,,,,,,,,,,,,,,,,,375.5042689000256,375.61931259999983,376.4204559999053,376.405406099977,,,,,,,,,,,,,,,,,,,,,,,,,,,,,,,,,,,376.4108177998569,376.4204559999053,376.4204559999053,377.0535742999055,b,1.0,0.6311959000304341,,,,,,sub-083,1,stroop_test,59.96426130735908,
,,,,79.0,7.0,6.0,,,,,,,,,,,,,blau,yellow,g,0.0,g,1.0,0.7074328998569399,,,,,,,,,,6.0,7.0,79.0,7.0,377.0686711999588,,,,,,,,,,,,,,,,,377.0538739999756,377.1684273998253,377.9688360998407,377.9525438998826,,,,,,,,,,,,,,,,,,,,,,,,,,,,,,,,,,,377.95303269987926,377.9688360998407,377.9688360998407,378.68651949986815,g,1.0,0.7074328998569399,,,,,,sub-083,1,stroop_test,59.96426130735908,
,,,,80.0,8.0,6.0,,,,,,,,,,,,,gelb,yellow,g,1.0,g,1.0,1.593489299993962,,,,,,,,,,6.0,8.0,80.0,10.0,378.7016123000067,,,,,,,,,,,,,,,,,378.6867478999775,378.8013795998413,379.6016901000403,379.5856719999574,,,,,,,,,,,,,,,,,,,,,,,,,,,,,,,,,,,379.5881508998573,379.6016901000403,379.6016901000403,381.2026273999363,g,1.0,1.593489299993962,,,,,,sub-083,1,stroop_test,59.96426130735908,
,,,,81.0,9.0,6.0,,,,,,,,,,,,,rot,blue,b,0.0,b,1.0,1.6282438000198454,,,,,,,,,,6.0,9.0,81.0,2.0,381.2179700999986,,,,,,,,,,,,,,,,,381.2028695999179,382.0178608999122,382.8180686000269,382.8020100998692,,,,,,,,,,,,,,,,,,,,,,,,,,,,,,,,,,,382.80397300003096,382.8180686000269,382.8180686000269,384.4523598998785,b,1.0,1.6282438000198454,,,,,,sub-083,1,stroop_test,59.96426130735908,
,,,,82.0,10.0,6.0,,,,,,,,,,,,,rot,red,r,1.0,r,1.0,0.5840030000545084,,,,,,,,,,6.0,10.0,82.0,1.0,384.46726629999466,,,,,,,,,,,,,,,,,384.45259470003657,384.8010445998516,385.60159099986777,385.5860804000404,,,,,,,,,,,,,,,,,,,,,,,,,,,,,,,,,,,385.5865770999808,385.60159099986777,385.60159099986777,386.20232979999855,r,1.0,0.5840030000545084,,,,,,sub-083,1,stroop_test,59.96426130735908,
,,,,83.0,11.0,6.0,,,,,,,,,,,,,rot,red,r,1.0,r,1.0,0.6235342000145465,,,,,,,,,,6.0,11.0,83.0,0.0,386.21872759982944,,,,,,,,,,,,,,,,,386.2026443998329,387.4172954999376,388.21751779993065,388.2012871999759,,,,,,,,,,,,,,,,,,,,,,,,,,,,,,,,,,,388.2016904999036,388.21751779993065,388.21751779993065,388.8511701999232,r,1.0,0.6235342000145465,,,,,,sub-083,1,stroop_test,59.96426130735908,
,,,,84.0,0.0,7.0,,,,,,,,,,,,,gelb,blue,b,0.0,b,1.0,0.734343099873513,,,,,,,,,,7.0,0.0,84.0,9.0,388.8668197998777,,,,,,,,,,,,,,,,,388.8513817000203,390.0502104000189,390.850363999838,390.83473369991407,,,,,,,,,,,,,,,,,,,,,,,,,,,,,,,,,,,390.8380535999313,390.850363999838,390.850363999838,391.6017213999294,b,1.0,0.734343099873513,,,,,,sub-083,1,stroop_test,59.96426130735908,
,,,,85.0,1.0,7.0,,,,,,,,,,,,,rot,yellow,g,0.0,g,1.0,1.226079700049013,,,,,,,,,,7.0,1.0,85.0,3.0,391.6167105999775,,,,,,,,,,,,,,,,,391.6020036998671,392.41647729999386,393.21670440002345,393.2010160000064,,,,,,,,,,,,,,,,,,,,,,,,,,,,,,,,,,,393.20519899996,393.21670440002345,393.21670440002345,394.4510200000368,g,1.0,1.226079700049013,,,,,,sub-083,1,stroop_test,59.96426130735908,
,,,,86.0,2.0,7.0,,,,,,,,,,,,,gelb,red,r,0.0,r,1.0,0.8483933000825346,,,,,,,,,,7.0,2.0,86.0,8.0,394.46641899994574,,,,,,,,,,,,,,,,,394.4512771000154,395.6494402999524,396.4493036000058,396.43333879997954,,,,,,,,,,,,,,,,,,,,,,,,,,,,,,,,,,,396.4357600999065,396.4493036000058,396.4493036000058,397.3012516999152,r,1.0,0.8483933000825346,,,,,,sub-083,1,stroop_test,59.96426130735908,
,,,,87.0,3.0,7.0,,,,,,,,,,,,,rot,red,r,1.0,r,1.0,0.6283243999350816,,,,,,,,,,7.0,3.0,87.0,1.0,397.3165390999056,,,,,,,,,,,,,,,,,397.3015731999185,397.66580799990334,398.4659931999631,398.450251000002,,,,,,,,,,,,,,,,,,,,,,,,,,,,,,,,,,,398.4528320999816,398.4659931999631,398.4659931999631,399.1003226998728,r,1.0,0.6283243999350816,,,,,,sub-083,1,stroop_test,59.96426130735908,
,,,,88.0,4.0,7.0,,,,,,,,,,,,,blau,blue,b,1.0,b,1.0,0.7726340999361128,,,,,,,,,,7.0,4.0,88.0,6.0,399.11589989997447,,,,,,,,,,,,,,,,,399.1006197000388,399.91551149985753,400.7155179998372,400.69917429983616,,,,,,,,,,,,,,,,,,,,,,,,,,,,,,,,,,,400.7015780999791,400.7155179998372,400.7155179998372,401.4996491000056,b,1.0,0.7726340999361128,,,,,,sub-083,1,stroop_test,59.96426130735908,
,,,,89.0,5.0,7.0,,,,,,,,,,,,,rot,red,r,1.0,r,1.0,0.751878899987787,,,,,,,,,,7.0,5.0,89.0,0.0,401.5153609998524,,,,,,,,,,,,,,,,,401.4999153998215,402.69866500003263,403.498741999967,403.4846870000474,,,,,,,,,,,,,,,,,,,,,,,,,,,,,,,,,,,403.4901635998394,403.498741999967,403.498741999967,404.2661959999241,r,1.0,0.751878899987787,,,,,,sub-083,1,stroop_test,59.96426130735908,
,,,,90.0,6.0,7.0,,,,,,,,,,,,,blau,blue,b,1.0,b,1.0,0.816586900036782,,,,,,,,,,7.0,6.0,90.0,5.0,404.2818085998297,,,,,,,,,,,,,,,,,404.2664824000094,404.6316044998821,405.4320018000435,405.416434600018,,,,,,,,,,,,,,,,,,,,,,,,,,,,,,,,,,,405.4188452998642,405.4320018000435,405.4320018000435,406.2506803998258,b,1.0,0.816586900036782,,,,,,sub-083,1,stroop_test,59.96426130735908,
,,,,91.0,7.0,7.0,,,,,,,,,,,,,gelb,yellow,g,1.0,g,1.0,0.6450326000340283,,,,,,,,,,7.0,7.0,91.0,10.0,406.265017000027,,,,,,,,,,,,,,,,,406.2510174999479,407.4647977999412,408.2645799999591,408.2492806999944,,,,,,,,,,,,,,,,,,,,,,,,,,,,,,,,,,,408.2512801999692,408.2645799999591,408.2645799999591,408.9156820999924,g,1.0,0.6450326000340283,,,,,,sub-083,1,stroop_test,59.96426130735908,
,,,,92.0,8.0,7.0,,,,,,,,,,,,,blau,yellow,g,0.0,g,1.0,0.8769596000202,,,,,,,,,,7.0,8.0,92.0,7.0,408.9314458998852,,,,,,,,,,,,,,,,,408.9159261998721,409.71461699996144,410.51455649989657,410.49872559984215,,,,,,,,,,,,,,,,,,,,,,,,,,,,,,,,,,,410.5012238000054,410.51455649989657,410.51455649989657,411.398979799822,g,1.0,0.8769596000202,,,,,,sub-083,1,stroop_test,59.96426130735908,
,,,,93.0,9.0,7.0,,,,,,,,,,,,,blau,red,r,0.0,r,1.0,1.3472448999527842,,,,,,,,,,7.0,9.0,93.0,4.0,411.4144383999519,,,,,,,,,,,,,,,,,411.3992414998356,412.6140274000354,413.4142067998182,413.39803369995207,,,,,,,,,,,,,,,,,,,,,,,,,,,,,,,,,,,413.3984117000364,413.4142067998182,413.4142067998182,414.7650214999449,r,1.0,1.3472448999527842,,,,,,sub-083,1,stroop_test,59.96426130735908,
,,,,94.0,10.0,7.0,,,,,,,,,,,,,gelb,yellow,g,1.0,g,1.0,0.7994983999524266,,,,,,,,,,7.0,10.0,94.0,11.0,414.7803801998962,,,,,,,,,,,,,,,,,414.7653034999967,415.11391939991154,415.9135914000217,415.89779630000703,,,,,,,,,,,,,,,,,,,,,,,,,,,,,,,,,,,415.8998508998193,415.9135914000217,415.9135914000217,416.71487439982593,g,1.0,0.7994983999524266,,,,,,sub-083,1,stroop_test,59.96426130735908,
,,,,95.0,11.0,7.0,,,,,,,,,,,,,rot,blue,b,0.0,b,1.0,1.439655900001526,,,,,,,,,,7.0,11.0,95.0,2.0,416.7303873999044,,,,,,,,,,,,,,,,,416.7152133998461,417.9302366999909,418.73023699992336,418.7142270999029,,,,,,,,,,,,,,,,,,,,,,,,,,,,,,,,,,,418.7165043000132,418.73023699992336,418.73023699992336,420.181191700045,b,1.0,1.439655900001526,,,,,,sub-083,1,stroop_test,59.96426130735908,
,,,,96.0,0.0,8.0,,,,,,,,,,,,,gelb,red,r,0.0,r,1.0,1.1998874000273645,,,,,,,,,,8.0,0.0,96.0,8.0,420.1967020998709,,,,,,,,,,,,,,,,,420.1814840999432,420.2967081000097,421.0965175998863,421.0808323998936,,,,,,,,,,,,,,,,,,,,,,,,,,,,,,,,,,,421.0846679999959,421.0965175998863,421.0965175998863,422.29781299992464,r,1.0,1.1998874000273645,,,,,,sub-083,1,stroop_test,59.96426130735908,
,,,,97.0,1.0,8.0,,,,,,,,,,,,,rot,red,r,1.0,r,1.0,0.6535673001781106,,,,,,,,,,8.0,1.0,97.0,0.0,422.3129119998776,,,,,,,,,,,,,,,,,422.2980855000205,423.11264800000936,423.91327449982055,423.89713539998047,,,,,,,,,,,,,,,,,,,,,,,,,,,,,,,,,,,423.899511900032,423.91327449982055,423.91327449982055,424.5801472999156,r,1.0,0.6535673001781106,,,,,,sub-083,1,stroop_test,59.96426130735908,
,,,,98.0,2.0,8.0,,,,,,,,,,,,,gelb,yellow,g,1.0,g,1.0,0.7777712000533938,,,,,,,,,,8.0,2.0,98.0,10.0,424.5959999000188,,,,,,,,,,,,,,,,,424.5804363000207,424.6959984998685,425.49614869989455,425.4805190998595,,,,,,,,,,,,,,,,,,,,,,,,,,,,,,,,,,,425.48260260000825,425.49614869989455,425.49614869989455,426.2807624998968,g,1.0,0.7777712000533938,,,,,,sub-083,1,stroop_test,59.96426130735908,
,,,,99.0,3.0,8.0,,,,,,,,,,,,,gelb,yellow,g,1.0,g,1.0,0.9620839001145214,,,,,,,,,,8.0,3.0,99.0,11.0,426.2959529999644,,,,,,,,,,,,,,,,,426.2810167998541,427.07924210000783,427.87886970001273,427.8628419998568,,,,,,,,,,,,,,,,,,,,,,,,,,,,,,,,,,,427.8631448999513,427.87886970001273,427.87886970001273,428.8469938000199,g,1.0,0.9620839001145214,,,,,,sub-083,1,stroop_test,59.96426130735908,
,,,,100.0,4.0,8.0,,,,,,,,,,,,,blau,red,r,0.0,r,1.0,1.0321915000677109,,,,,,,,,,8.0,4.0,100.0,4.0,428.8621459000278,,,,,,,,,,,,,,,,,428.8472355999984,430.0625752999913,430.8619807998184,430.84574489993975,,,,,,,,,,,,,,,,,,,,,,,,,,,,,,,,,,,430.8477854998782,430.8619807998184,430.8619807998184,431.89675229997374,r,1.0,1.0321915000677109,,,,,,sub-083,1,stroop_test,59.96426130735908,
,,,,101.0,5.0,8.0,,,,,,,,,,,,,blau,yellow,g,0.0,g,1.0,0.9228151999413968,,,,,,,,,,8.0,5.0,101.0,7.0,431.91170349996537,,,,,,,,,,,,,,,,,431.8970039000269,432.261713200016,433.06139949988574,433.0454904998187,,,,,,,,,,,,,,,,,,,,,,,,,,,,,,,,,,,433.045814299956,433.06139949988574,433.06139949988574,433.9960776998196,g,1.0,0.9228151999413968,,,,,,sub-083,1,stroop_test,59.96426130735908,
,,,,102.0,6.0,8.0,,,,,,,,,,,,,blau,blue,b,1.0,b,1.0,0.5006861998699605,,,,,,,,,,8.0,6.0,102.0,6.0,434.01149789989,,,,,,,,,,,,,,,,,433.99632849986665,434.361416899832,435.1619028998539,435.1450433998834,,,,,,,,,,,,,,,,,,,,,,,,,,,,,,,,,,,435.1453239999246,435.1619028998539,435.1619028998539,435.6787753999233,b,1.0,0.5006861998699605,,,,,,sub-083,1,stroop_test,59.96426130735908,
,,,,103.0,7.0,8.0,,,,,,,,,,,,,rot,yellow,g,0.0,g,1.0,1.7625025999732316,,,,,,,,,,8.0,7.0,103.0,3.0,435.6946225999855,,,,,,,,,,,,,,,,,435.6790285999887,436.0282874000259,436.8275407999754,436.8114574998617,,,,,,,,,,,,,,,,,,,,,,,,,,,,,,,,,,,436.8137882000301,436.8275407999754,436.8275407999754,438.5947733998764,g,1.0,1.7625025999732316,,,,,,sub-083,1,stroop_test,59.96426130735908,
,,,,104.0,8.0,8.0,,,,,,,,,,,,,rot,blue,b,0.0,b,1.0,0.8582168999128044,,,,,,,,,,8.0,8.0,104.0,2.0,438.6107029998675,,,,,,,,,,,,,,,,,438.595009499928,439.3938553000335,440.1937885999214,440.1776760998182,,,,,,,,,,,,,,,,,,,,,,,,,,,,,,,,,,,440.1780161999632,440.1937885999214,440.1937885999214,441.0613188999705,b,1.0,0.8582168999128044,,,,,,sub-083,1,stroop_test,59.96426130735908,
,,,,105.0,9.0,8.0,,,,,,,,,,,,,gelb,blue,b,0.0,b,1.0,0.9261821999680252,,,,,,,,,,8.0,9.0,105.0,9.0,441.0768796999473,,,,,,,,,,,,,,,,,441.0615900999401,442.2770256998483,443.0772173998412,443.0606551999226,,,,,,,,,,,,,,,,,,,,,,,,,,,,,,,,,,,443.0700103000272,443.0772173998412,443.0772173998412,444.010643000016,b,1.0,0.9261821999680252,,,,,,sub-083,1,stroop_test,59.96426130735908,
,,,,106.0,10.0,8.0,,,,,,,,,,,,,blau,blue,b,1.0,b,1.0,0.6879563999827951,,,,,,,,,,8.0,10.0,106.0,5.0,444.0266921999864,,,,,,,,,,,,,,,,,444.0108782998286,444.80974749987945,445.60971509991214,445.59377229982056,,,,,,,,,,,,,,,,,,,,,,,,,,,,,,,,,,,445.5961275999434,445.60971509991214,445.60971509991214,446.31048249988817,b,1.0,0.6879563999827951,,,,,,sub-083,1,stroop_test,59.96426130735908,
,,,,107.0,11.0,8.0,,,,,,,,,,,,,rot,red,r,1.0,r,1.0,0.6754997000098228,,,,,,,,,,8.0,11.0,107.0,1.0,446.3262526998296,,,,,,,,,,,,,,,,,446.3107260998804,447.12630379991606,447.92619839985855,447.9101119998377,,,,,,,,,,,,,,,,,,,,,,,,,,,,,,,,,,,447.9125302999746,447.92619839985855,447.92619839985855,448.61040310002863,r,1.0,0.6754997000098228,,,,,,sub-083,1,stroop_test,59.96426130735908,
,,,,108.0,0.0,9.0,,,,,,,,,,,,,blau,yellow,g,0.0,g,1.0,0.9652708999346942,,,,,,,,,,9.0,0.0,108.0,7.0,448.6260831998661,,,,,,,,,,,,,,,,,448.6106675998308,449.8257987999823,450.6258019998204,450.60968480003066,,,,,,,,,,,,,,,,,,,,,,,,,,,,,,,,,,,450.61167829995975,450.6258019998204,450.6258019998204,451.5939424999524,g,1.0,0.9652708999346942,,,,,,sub-083,1,stroop_test,59.96426130735908,
,,,,109.0,1.0,9.0,,,,,,,,,,,,,gelb,blue,b,0.0,b,1.0,0.9150298999156804,,,,,,,,,,9.0,1.0,109.0,9.0,451.6089734998532,,,,,,,,,,,,,,,,,451.5941731999628,451.7091681000311,452.5091899000108,452.492651199922,,,,,,,,,,,,,,,,,,,,,,,,,,,,,,,,,,,452.49482459994033,452.5091899000108,452.5091899000108,453.42651819996536,b,1.0,0.9150298999156804,,,,,,sub-083,1,stroop_test,59.96426130735908,
,,,,110.0,2.0,9.0,,,,,,,,,,,,,blau,blue,b,1.0,b,1.0,0.7376335000153631,,,,,,,,,,9.0,2.0,110.0,6.0,453.4420312999282,,,,,,,,,,,,,,,,,453.4267529000063,454.6421935998369,455.4419954000041,455.4257681998424,,,,,,,,,,,,,,,,,,,,,,,,,,,,,,,,,,,455.42760689998977,455.4419954000041,455.4419954000041,456.1924387998879,b,1.0,0.7376335000153631,,,,,,sub-083,1,stroop_test,59.96426130735908,
,,,,111.0,3.0,9.0,,,,,,,,,,,,,blau,red,r,0.0,r,1.0,1.0282288000453264,,,,,,,,,,9.0,3.0,111.0,4.0,456.20849470002577,,,,,,,,,,,,,,,,,456.1926780999638,456.2918336999137,457.0921691998374,457.0755582998973,,,,,,,,,,,,,,,,,,,,,,,,,,,,,,,,,,,457.0758867999539,457.0921691998374,457.0921691998374,458.1263059999328,r,1.0,1.0282288000453264,,,,,,sub-083,1,stroop_test,59.96426130735908,
,,,,112.0,4.0,9.0,,,,,,,,,,,,,gelb,yellow,g,1.0,g,1.0,0.7719703998882324,,,,,,,,,,9.0,4.0,112.0,10.0,458.1415142000187,,,,,,,,,,,,,,,,,458.1265509999357,458.49151719990186,459.2916450998746,459.27532939985394,,,,,,,,,,,,,,,,,,,,,,,,,,,,,,,,,,,459.2774139000103,459.2916450998746,459.2916450998746,460.07541279983707,g,1.0,0.7719703998882324,,,,,,sub-083,1,stroop_test,59.96426130735908,
,,,,113.0,5.0,9.0,,,,,,,,,,,,,rot,red,r,1.0,r,1.0,0.838242799974978,,,,,,,,,,9.0,5.0,113.0,0.0,460.0912117999978,,,,,,,,,,,,,,,,,460.07566209998913,460.89121009991504,461.69118819991127,461.67503619985655,,,,,,,,,,,,,,,,,,,,,,,,,,,,,,,,,,,461.6770717999898,461.69118819991127,461.69118819991127,462.54170129983686,r,1.0,0.838242799974978,,,,,,sub-083,1,stroop_test,59.96426130735908,
,,,,114.0,6.0,9.0,,,,,,,,,,,,,gelb,red,r,0.0,r,1.0,1.1523143001832068,,,,,,,,,,9.0,6.0,114.0,8.0,462.5575571998488,,,,,,,,,,,,,,,,,462.5419327998534,463.34071649983525,464.14075289992616,464.1246444999706,,,,,,,,,,,,,,,,,,,,,,,,,,,,,,,,,,,464.1271712000016,464.14075289992616,464.14075289992616,465.3081967998296,r,1.0,1.1523143001832068,,,,,,sub-083,1,stroop_test,59.96426130735908,
,,,,115.0,7.0,9.0,,,,,,,,,,,,,rot,yellow,g,0.0,g,1.0,1.7083028999622911,,,,,,,,,,9.0,7.0,115.0,3.0,465.32395699992776,,,,,,,,,,,,,,,,,465.308441199828,466.1237603998743,466.92388179991394,466.9076119000092,,,,,,,,,,,,,,,,,,,,,,,,,,,,,,,,,,,466.9097150999587,466.92388179991394,466.92388179991394,468.6410870999098,g,1.0,1.7083028999622911,,,,,,sub-083,1,stroop_test,59.96426130735908,
,,,,116.0,8.0,9.0,,,,,,,,,,,,,rot,blue,b,0.0,b,1.0,1.023574999999255,,,,,,,,,,9.0,8.0,116.0,2.0,468.6568771998864,,,,,,,,,,,,,,,,,468.6413298000116,469.4566748999059,470.25655489997007,470.24044950003736,,,,,,,,,,,,,,,,,,,,,,,,,,,,,,,,,,,470.2408194998279,470.25655489997007,470.25655489997007,471.2908813999966,b,1.0,1.023574999999255,,,,,,sub-083,1,stroop_test,59.96426130735908,
,,,,117.0,9.0,9.0,,,,,,,,,,,,,blau,blue,b,1.0,b,1.0,0.6218394997995347,,,,,,,,,,9.0,9.0,117.0,5.0,471.3063109000213,,,,,,,,,,,,,,,,,471.29113649996,472.1064214999788,472.9062496998813,472.8901777998544,,,,,,,,,,,,,,,,,,,,,,,,,,,,,,,,,,,472.89208479993977,472.9062496998813,472.9062496998813,473.54019530001096,b,1.0,0.6218394997995347,,,,,,sub-083,1,stroop_test,59.96426130735908,
,,,,118.0,10.0,9.0,,,,,,,,,,,,,rot,red,r,1.0,r,1.0,0.6675567000638694,,,,,,,,,,9.0,10.0,118.0,1.0,473.5562706999481,,,,,,,,,,,,,,,,,473.5404312999453,474.7392478999682,475.5393621998373,475.5232907000464,,,,,,,,,,,,,,,,,,,,,,,,,,,,,,,,,,,475.52556249988265,475.5393621998373,475.5393621998373,476.2234898000024,r,1.0,0.6675567000638694,,,,,,sub-083,1,stroop_test,59.96426130735908,
,,,,119.0,11.0,9.0,,,,,,,,,,,,,gelb,yellow,g,1.0,g,1.0,1.0256121000275016,,,,,,,,,,9.0,11.0,119.0,11.0,476.239291699836,,,,,,,,,,,,,,,,,476.2237260998226,477.0392987998202,477.8390770999249,477.8232515999116,,,,,,,,,,,,,,,,,,,,,,,,,,,,,,,,,,,477.82535019982606,477.8390770999249,477.8390770999249,478.87288759998046,g,1.0,1.0256121000275016,,,,,,sub-083,1,stroop_test,59.96426130735908,
,,,,,,,,,,,,,,,,,,,,,,,,,,,,,,,,,,,,,,,,,,,,,,,,,,,,,,,,,,,,,,,,,,,,,,,,,,,,,,,,,,,,,,,,,,,,,,,,,,,,,,478.8730019999202,478.88931799982674,483.8882750000339,483.8726562999655,sub-083,1,stroop_test,59.96426130735908,
