wordCTK,colorCTK,corrAnsCTK,congruentCTK,thisN,thisTrialN,thisRepN,keyResp_CTK.keys,keyResp_CTK.corr,keyResp_CTK.rt,keyResp_CTK.duration,wordPractice,colorPractice,corrAnsPractice,congruentPractice,respPractice.keys,respPractice.corr,respPractice.rt,respPractice.duration,word,color,corrAns,congruent,keyResp_test_run.keys,keyResp_test_run.corr,keyResp_test_run.rt,keyResp_test_run.duration,trials_CTK.thisRepN,trials_CTK.thisTrialN,trials_CTK.thisN,trials_CTK.thisIndex,trials_practice.thisRepN,trials_practice.thisTrialN,trials_practice.thisN,trials_practice.thisIndex,trials_test.thisRepN,trials_test.thisTrialN,trials_test.thisN,trials_test.thisIndex,thisRow.t,notes,instruction.started,instr_text.started,instr_image.started,instr_resp.started,instruction.stopped,instr_resp.keys,instr_resp.rt,instr_resp.duration,instr_color_to_key.started,instr_ctk.started,resp_ctk.started,instr_color_to_key.stopped,resp_ctk.keys,resp_ctk.rt,resp_ctk.duration,ITI.started,fixcross.started,fixcross.stopped,ITI.stopped,color_to_key_run.started,stimulus_CTK.started,keyResp_CTK.started,color_to_key_run.stopped,trials_CTK.keyResp_CTK.keys,trials_CTK.keyResp_CTK.corr,trials_CTK.keyResp_CTK.rt,trials_CTK.keyResp_CTK.duration,instr_practice.started,instr_practice_text.started,instr_practice_resp.started,instr_practice.stopped,instr_practice_resp.keys,instr_practice_resp.rt,instr_practice_resp.duration,practice_run.started,stimulus_practice.started,respPractice.started,practice_run.stopped,trials_practice.respPractice.keys,trials_practice.respPractice.corr,trials_practice.respPractice.rt,trials_practice.respPractice.duration,feedback.started,textFeedback.started,feedback.stopped,textFeedback.stopped,instr_test.started,instr_test_text.started,instr_test_resp.started,instr_test.stopped,instr_test_resp.keys,instr_test_resp.rt,instr_test_resp.duration,test_run.started,stimulus_test_run.started,keyResp_test_run.started,test_run.stopped,trials_test.keyResp_test_run.keys,trials_test.keyResp_test_run.corr,trials_test.keyResp_test_run.rt,trials_test.keyResp_test_run.duration,goodbye.started,textGoodbye.started,textGoodbye.stopped,goodbye.stopped,participant,session,expName,frameRate,Unnamed: 113
,,,,,,,,,,,,,,,,,,,,,,,,,,,,,,,,,,,,,,,,,0.0119182920000184,0.0402952920001098,0.0402952920001098,0.0402952920001098,190.63070945800015,space,190.53689550000013,,,,,,,,,,,,,,,,,,,,,,,,,,,,,,,,,,,,,,,,,,,,,,,,,,,,,,,,,,,sub-117,1,stroop_test,122.2400488960201,
,,,,,,,,,,,,,,,,,,,,,,,,,,,,,,,,,,,,,,,,,,,,,,,,,190.63089358300024,190.65566441700005,190.65566441700005,200.0339999580001,space,9.372581041000103,,,,,,,,,,,,,,,,,,,,,,,,,,,,,,,,,,,,,,,,,,,,,,,,,,,,sub-117,1,stroop_test,122.2400488960201,
test,red,r,1.0,0.0,0.0,0.0,r,1.0,2.409213916999761,,,,,,,,,,,,,,,,,,0.0,0.0,0.0,0.0,,,,,,,,,200.0759870830002,,,,,,,,,,,,,,,,,200.05319462499983,200.84923770800012,201.66661766700008,201.64358179200008,201.6554388330001,201.66661766700008,201.66661766700008,204.08367891699984,r,1.0,2.409213916999761,,,,,,,,,,,,,,,,,,,,,,,,,,,,,,,,,,,,,,,,sub-117,1,stroop_test,122.2400488960201,
test,blue,b,1.0,1.0,1.0,0.0,b,1.0,1.0431865410000682,,,,,,,,,,,,,,,,,,0.0,1.0,1.0,2.0,,,,,,,,,204.09807633299988,,,,,,,,,,,,,,,,,204.08423495800025,204.431911958,205.22493266699985,205.21660545800023,205.21728379200025,205.22493266699985,205.22493266699985,206.27831562500023,b,1.0,1.0431865410000682,,,,,,,,,,,,,,,,,,,,,,,,,,,,,,,,,,,,,,,,sub-117,1,stroop_test,122.2400488960201,
test,yellow,g,1.0,2.0,2.0,0.0,g,1.0,1.159591958999954,,,,,,,,,,,,,,,,,,0.0,2.0,2.0,1.0,,,,,,,,,206.29326137499996,,,,,,,,,,,,,,,,,206.27913279199996,207.47474554200016,208.26733612499996,208.25872279199984,208.25945491699983,208.26733612499996,208.26733612499996,209.4348836250001,g,1.0,1.159591958999954,,,,,,,,,,,,,,,,,,,,,,,,,,,,,,,,,,,,,,,,sub-117,1,stroop_test,122.2400488960201,
test,yellow,g,1.0,3.0,0.0,1.0,g,1.0,0.5333080830000654,,,,,,,,,,,,,,,,,,1.0,0.0,3.0,1.0,,,,,,,,,209.44783795800004,,,,,,,,,,,,,,,,,209.435497167,210.245048667,211.0446779580002,211.03301324999984,211.03444454200007,211.0446779580002,211.0446779580002,211.58494158299985,g,1.0,0.5333080830000654,,,,,,,,,,,,,,,,,,,,,,,,,,,,,,,,,,,,,,,,sub-117,1,stroop_test,122.2400488960201,
test,blue,b,1.0,4.0,1.0,1.0,b,1.0,0.877906916000029,,,,,,,,,,,,,,,,,,1.0,1.0,4.0,2.0,,,,,,,,,211.5975977080002,,,,,,,,,,,,,,,,,211.5855960419999,211.93260083299992,212.7281429579998,212.71821333300025,212.7190949169999,212.7281429579998,212.7281429579998,213.6115958330001,b,1.0,0.877906916000029,,,,,,,,,,,,,,,,,,,,,,,,,,,,,,,,,,,,,,,,sub-117,1,stroop_test,122.2400488960201,
test,red,r,1.0,5.0,2.0,1.0,r,1.0,0.3859351250002873,,,,,,,,,,,,,,,,,,1.0,2.0,5.0,0.0,,,,,,,,,213.6253256250002,,,,,,,,,,,,,,,,,213.6125535830001,214.40932304199987,215.20185179200007,215.19330258299988,215.1941238750001,215.20185179200007,215.20185179200007,215.59385566699984,r,1.0,0.3859351250002873,,,,,,,,,,,,,,,,,,,,,,,,,,,,,,,,,,,,,,,,sub-117,1,stroop_test,122.2400488960201,
test,yellow,g,1.0,6.0,0.0,2.0,g,1.0,0.5801019999998971,,,,,,,,,,,,,,,,,,2.0,0.0,6.0,1.0,,,,,,,,,215.6080927500002,,,,,,,,,,,,,,,,,215.59473204200003,216.79100866699991,217.58529354199985,217.576566792,217.57726970800013,217.58529354199985,217.58529354199985,218.1690194580001,g,1.0,0.5801019999998971,,,,,,,,,,,,,,,,,,,,,,,,,,,,,,,,,,,,,,,,sub-117,1,stroop_test,122.2400488960201,
test,red,r,1.0,7.0,1.0,2.0,b,0.0,0.4140021670000351,,,,,,,,,,,,,,,,,,2.0,1.0,7.0,0.0,,,,,,,,,218.18222241700005,,,,,,,,,,,,,,,,,218.16991295800017,218.96860179199984,219.76889637500017,219.76027724999997,219.7610447080001,219.76889637500017,219.76889637500017,220.18581887500025,b,0.0,0.4140021670000351,,,,,,,,,,,,,,,,,,,,,,,,,,,,,,,,,,,,,,,,sub-117,1,stroop_test,122.2400488960201,
test,blue,b,1.0,8.0,2.0,2.0,b,1.0,0.5245014580000316,,,,,,,,,,,,,,,,,,2.0,2.0,8.0,2.0,,,,,,,,,220.19780579200005,,,,,,,,,,,,,,,,,220.1865943329999,220.5328138330001,221.334518875,221.32600216699984,221.32670050000024,221.334518875,221.334518875,221.87703662500007,b,1.0,0.5245014580000316,,,,,,,,,,,,,,,,,,,,,,,,,,,,,,,,,,,,,,,,sub-117,1,stroop_test,122.2400488960201,
test,red,r,1.0,9.0,0.0,3.0,r,1.0,0.6549731250001969,,,,,,,,,,,,,,,,,,3.0,0.0,9.0,0.0,,,,,,,,,221.89099958299997,,,,,,,,,,,,,,,,,221.87776824999992,222.66795754199984,223.46209295800008,223.45157804200016,223.45226037500012,223.46209295800008,223.46209295800008,224.1267197080001,r,1.0,0.6549731250001969,,,,,,,,,,,,,,,,,,,,,,,,,,,,,,,,,,,,,,,,sub-117,1,stroop_test,122.2400488960201,
test,yellow,g,1.0,10.0,1.0,3.0,g,1.0,0.5351493339999251,,,,,,,,,,,,,,,,,,3.0,1.0,10.0,1.0,,,,,,,,,224.139663083,,,,,,,,,,,,,,,,,224.1275204170001,225.3176213329998,226.11796204199985,226.10924400000025,226.10993199999984,226.11796204199985,226.11796204199985,226.66093787499997,g,1.0,0.5351493339999251,,,,,,,,,,,,,,,,,,,,,,,,,,,,,,,,,,,,,,,,sub-117,1,stroop_test,122.2400488960201,
test,blue,b,1.0,11.0,2.0,3.0,b,1.0,0.4410315000000082,,,,,,,,,,,,,,,,,,3.0,2.0,11.0,2.0,,,,,,,,,226.67395149999996,,,,,,,,,,,,,,,,,226.661733125,227.8511583330001,228.65113266700016,228.64238962499985,228.64308525000024,228.65113266700016,228.65113266700016,229.09646658300016,b,1.0,0.4410315000000082,,,,,,,,,,,,,,,,,,,,,,,,,,,,,,,,,,,,,,,,sub-117,1,stroop_test,122.2400488960201,
,,,,,,,,,,,,,,,,,,,,,,,,,,,,,,,,,,,,,,,,,,,,,,,,,,,,,,,,,,,,,,,,,,,,229.09680662500023,229.11337737500023,229.11337737500023,236.9197799170001,space,7.797047167000073,,,,,,,,,,,,,,,,,,,,,,,,,,,,,,,,,sub-117,1,stroop_test,122.2400488960201,
,,,,0.0,0.0,0.0,,,,,gelb,yellow,g,1.0,g,1.0,1.070944249999684,,,,,,,,,,,,,,0.0,0.0,0.0,11.0,,,,,236.95460866700023,,,,,,,,,,,,,,,,,236.9417870000002,238.115331167,238.929494083,238.90970108300007,,,,,,,,,,,,,,,,238.91995229199983,238.929494083,238.929494083,240.01028729200016,g,1.0,1.070944249999684,,240.023086792,240.03855075,241.01546666700008,,,,,,,,,,,,,,,,,,,,,sub-117,1,stroop_test,122.2400488960201,
,,,,1.0,1.0,0.0,,,,,rot,red,r,1.0,r,1.0,0.5530215830003726,,,,,,,,,,,,,,0.0,1.0,1.0,1.0,,,,,241.0244522500002,,,,,,,,,,,,,,,,,241.01615237499985,241.35777829200012,242.16127099999997,242.142369833,,,,,,,,,,,,,,,,242.15074545800007,242.16127099999997,242.16127099999997,242.7179832500001,r,1.0,0.5530215830003726,,242.71934491699997,242.73387441700012,243.72503458300025,,,,,,,,,,,,,,,,,,,,,sub-117,1,stroop_test,122.2400488960201,
,,,,2.0,2.0,0.0,,,,,blau,blue,b,1.0,b,1.0,0.609339459000239,,,,,,,,,,,,,,0.0,2.0,2.0,6.0,,,,,243.73260895800013,,,,,,,,,,,,,,,,,243.72567666700024,244.06643200000008,244.87653145800004,244.85964912500003,,,,,,,,,,,,,,,,244.8680720000002,244.87653145800004,244.87653145800004,245.494002167,b,1.0,0.609339459000239,,245.4954245419999,245.51120124999989,246.494935917,246.501927583,,,,,,,,,,,,,,,,,,,,sub-117,1,stroop_test,122.2400488960201,
,,,,3.0,3.0,0.0,,,,,gelb,blue,b,0.0,b,1.0,1.309576499999821,,,,,,,,,,,,,,0.0,3.0,3.0,9.0,,,,,246.501927583,,,,,,,,,,,,,,,,,246.4956266250001,246.58566908300008,247.38979704199983,247.37584170799985,,,,,,,,,,,,,,,,247.38053475000012,247.38979704199983,247.38979704199983,248.70976837499984,b,1.0,1.309576499999821,,248.71091620800007,248.7254546670001,249.711372708,,,,,,,,,,,,,,,,,,,,,sub-117,1,stroop_test,122.2400488960201,
,,,,4.0,4.0,0.0,,,,,rot,yellow,g,0.0,r,0.0,0.7453791249999995,,,,,,,,,,,,,,0.0,4.0,4.0,3.0,,,,,249.7186634579998,,,,,,,,,,,,,,,,,249.7119970419999,250.501247875,251.3085657080001,251.29393875000005,,,,,,,,,,,,,,,,251.29845004200024,251.3085657080001,251.3085657080001,252.0606457079998,r,0.0,0.7453791249999995,,252.0693282920001,252.08389475000013,253.067652875,,,,,,,,,,,,,,,,,,,,,sub-117,1,stroop_test,122.2400488960201,
,,,,5.0,5.0,0.0,,,,,blau,red,r,0.0,b,0.0,0.9662406669999656,,,,,,,,,,,,,,0.0,5.0,5.0,4.0,,,,,253.0770592079998,,,,,,,,,,,,,,,,,253.0683268749999,254.2585287500001,255.0589647920001,255.04347362499996,,,,,,,,,,,,,,,,255.04948437500025,255.0589647920001,255.0589647920001,256.030601125,b,0.0,0.9662406669999656,,256.03191991699987,256.0483617919999,257.0322679579999,,,,,,,,,,,,,,,,,,,,,sub-117,1,stroop_test,122.2400488960201,
,,,,6.0,6.0,0.0,,,,,rot,blue,b,0.0,b,1.0,1.4927825839999969,,,,,,,,,,,,,,0.0,6.0,6.0,2.0,,,,,257.0404522499998,,,,,,,,,,,,,,,,,257.0329375000001,257.3780502919999,258.17816058300014,258.1652422500001,,,,,,,,,,,,,,,,258.16935808300013,258.17816058300014,258.17816058300014,259.6777486249998,b,1.0,1.4927825839999969,,259.6837689580002,259.69833125000014,260.6827467080002,,,,,,,,,,,,,,,,,,,,,sub-117,1,stroop_test,122.2400488960201,
,,,,7.0,7.0,0.0,,,,,blau,yellow,g,0.0,g,1.0,0.7151717500000814,,,,,,,,,,,,,,0.0,7.0,7.0,7.0,,,,,260.69251483300013,,,,,,,,,,,,,,,,,260.6833207919999,261.01700658300024,261.8224287080002,261.8090393329999,,,,,,,,,,,,,,,,261.81357545799983,261.8224287080002,261.8224287080002,262.5476377079999,g,1.0,0.7151717500000814,,262.5490019580002,262.5644147500002,263.54909183300015,,,,,,,,,,,,,,,,,,,,,sub-117,1,stroop_test,122.2400488960201,
,,,,8.0,8.0,0.0,,,,,gelb,yellow,g,1.0,g,1.0,1.1084777910000412,,,,,,,,,,,,,,0.0,8.0,8.0,10.0,,,,,263.5602212919998,,,,,,,,,,,,,,,,,263.5497717500002,263.89356854200014,264.69014474999994,264.6768360420001,,,,,,,,,,,,,,,,264.6815552920002,264.69014474999994,264.69014474999994,265.811003542,g,1.0,1.1084777910000412,,265.8121943330002,265.82660512500024,266.81535250000024,,,,,,,,,,,,,,,,,,,,,sub-117,1,stroop_test,122.2400488960201,
,,,,9.0,9.0,0.0,,,,,rot,red,r,1.0,r,1.0,0.8383362500003386,,,,,,,,,,,,,,0.0,9.0,9.0,0.0,,,,,266.82421808300023,,,,,,,,,,,,,,,,,266.81604829200023,266.910982292,267.709560625,267.6946467920002,,,,,,,,,,,,,,,,267.69938550000006,267.709560625,267.709560625,268.5506341670002,r,1.0,0.8383362500003386,,268.55178779200014,268.56503324999994,269.54866904200026,269.5603720419999,,,,,,,,,,,,,,,,,,,,sub-117,1,stroop_test,122.2400488960201,
,,,,10.0,10.0,0.0,,,,,gelb,red,r,0.0,r,1.0,0.9922242910001842,,,,,,,,,,,,,,0.0,10.0,10.0,8.0,,,,,269.5603720419999,,,,,,,,,,,,,,,,,269.54915600000004,270.3602638749999,271.16037004200007,271.14457595800013,,,,,,,,,,,,,,,,271.1501857500002,271.16037004200007,271.16037004200007,272.1610840829999,r,1.0,0.9922242910001842,,272.1624387920001,272.178749833,273.1765287080002,,,,,,,,,,,,,,,,,,,,,sub-117,1,stroop_test,122.2400488960201,
,,,,11.0,11.0,0.0,,,,,blau,blue,b,1.0,b,1.0,0.7318059159997574,,,,,,,,,,,,,,0.0,11.0,11.0,5.0,,,,,273.19260533299985,,,,,,,,,,,,,,,,,273.17704708300016,273.50913745800017,274.31074504200024,274.2958667500002,,,,,,,,,,,,,,,,274.2999986670002,274.31074504200024,274.31074504200024,275.05062554200003,b,1.0,0.7318059159997574,,275.05155645800005,275.065006542,276.0489956669999,276.057951583,,,,,,,,,,,,,,,,,,,,sub-117,1,stroop_test,122.2400488960201,
,,,,12.0,0.0,1.0,,,,,gelb,yellow,g,1.0,g,1.0,1.6703878749999603,,,,,,,,,,,,,,1.0,0.0,12.0,11.0,,,,,276.057951583,,,,,,,,,,,,,,,,,276.0494302080001,276.84936845799984,277.64596733300004,277.63410158299985,,,,,,,,,,,,,,,,277.63834425000005,277.64596733300004,277.64596733300004,279.31916450000017,g,1.0,1.6703878749999603,,279.32054641700006,279.33637899999985,280.3275659579999,,,,,,,,,,,,,,,,,,,,,sub-117,1,stroop_test,122.2400488960201,
,,,,13.0,1.0,1.0,,,,,rot,red,r,1.0,r,1.0,1.2089728749997448,,,,,,,,,,,,,,1.0,1.0,13.0,0.0,,,,,280.3346323750002,,,,,,,,,,,,,,,,,280.32835383300016,280.67691404200013,281.4788976670002,281.4642248750001,,,,,,,,,,,,,,,,281.4698297079999,281.4788976670002,281.4788976670002,282.69340441700024,r,1.0,1.2089728749997448,,282.69462008300025,282.7090103330001,283.69332462500006,283.6997160420001,,,,,,,,,,,,,,,,,,,,sub-117,1,stroop_test,122.2400488960201,
,,,,14.0,2.0,1.0,,,,,gelb,red,r,0.0,r,1.0,1.0582150000000183,,,,,,,,,,,,,,1.0,2.0,14.0,8.0,,,,,283.6997160420001,,,,,,,,,,,,,,,,,283.693801375,283.7924239580002,284.5941805000002,284.5792382919999,,,,,,,,,,,,,,,,284.58339291699986,284.5941805000002,284.5941805000002,285.66137312499995,r,1.0,1.0582150000000183,,285.662798458,285.67859883300025,286.662650708,286.6695783330001,,,,,,,,,,,,,,,,,,,,sub-117,1,stroop_test,122.2400488960201,
,,,,15.0,3.0,1.0,,,,,rot,blue,b,0.0,b,1.0,1.329380042000139,,,,,,,,,,,,,,1.0,3.0,15.0,2.0,,,,,286.6695783330001,,,,,,,,,,,,,,,,,286.6632554170001,287.452825375,288.25015604200007,288.236551042,,,,,,,,,,,,,,,,288.240822792,288.25015604200007,288.25015604200007,289.5845004580001,b,1.0,1.329380042000139,,289.5855133330001,289.5989179170001,290.58430179200013,290.59320875000003,,,,,,,,,,,,,,,,,,,,sub-117,1,stroop_test,122.2400488960201,
,,,,16.0,4.0,1.0,,,,,blau,blue,b,1.0,b,1.0,0.4710716250001496,,,,,,,,,,,,,,1.0,4.0,16.0,6.0,,,,,290.59320875000003,,,,,,,,,,,,,,,,,290.58476529200016,290.683878542,291.4913323750002,291.4754738749998,,,,,,,,,,,,,,,,291.4814512920002,291.4913323750002,291.4913323750002,291.96760508299985,b,1.0,0.4710716250001496,,291.9684739170002,291.9813869999998,292.9655189169998,292.9749767080002,,,,,,,,,,,,,,,,,,,,sub-117,1,stroop_test,122.2400488960201,
,,,,17.0,5.0,1.0,,,,,gelb,yellow,g,1.0,g,1.0,0.5049499589999868,,,,,,,,,,,,,,1.0,5.0,17.0,10.0,,,,,292.9749767080002,,,,,,,,,,,,,,,,,292.965934542,294.16591316699987,294.9629207920002,294.9497848750002,,,,,,,,,,,,,,,,294.9549959579999,294.9629207920002,294.9629207920002,295.47673666699984,g,1.0,0.5049499589999868,,295.477942042,295.4924095000001,296.49308416700023,,,,,,,,,,,,,,,,,,,,,sub-117,1,stroop_test,122.2400488960201,
,,,,18.0,6.0,1.0,,,,,rot,red,r,1.0,r,1.0,0.5326740420000533,,,,,,,,,,,,,,1.0,6.0,18.0,1.0,,,,,296.5103426669998,,,,,,,,,,,,,,,,,296.4936944169999,297.670631042,298.47200487500004,298.45886712499987,,,,,,,,,,,,,,,,298.46334583299995,298.47200487500004,298.47200487500004,299.0121988330002,r,1.0,0.5326740420000533,,299.01356891700016,299.03048050000007,300.01616550000017,,,,,,,,,,,,,,,,,,,,,sub-117,1,stroop_test,122.2400488960201,
,,,,19.0,7.0,1.0,,,,,gelb,blue,b,0.0,r,0.0,1.1691073749998395,,,,,,,,,,,,,,1.0,7.0,19.0,9.0,,,,,300.025394667,,,,,,,,,,,,,,,,,300.01672870799985,300.3602336670001,301.16142654199984,301.149067417,,,,,,,,,,,,,,,,301.15325329200004,301.16142654199984,301.16142654199984,302.3349721250001,r,0.0,1.1691073749998395,,302.3425551670002,302.35977408300005,303.34249045800016,,,,,,,,,,,,,,,,,,,,,sub-117,1,stroop_test,122.2400488960201,
,,,,20.0,8.0,1.0,,,,,blau,red,r,0.0,r,1.0,0.95216312499997,,,,,,,,,,,,,,1.0,8.0,20.0,4.0,,,,,303.348922833,,,,,,,,,,,,,,,,,303.34301370799994,303.6848762919999,304.48341274999984,304.46851041699983,,,,,,,,,,,,,,,,304.4741617079999,304.48341274999984,304.48341274999984,305.44456445800006,r,1.0,0.95216312499997,,305.45183287500004,305.4679813749999,306.4488201670001,,,,,,,,,,,,,,,,,,,,,sub-117,1,stroop_test,122.2400488960201,
,,,,21.0,9.0,1.0,,,,,blau,yellow,g,0.0,b,0.0,0.730705291999584,,,,,,,,,,,,,,1.0,9.0,21.0,7.0,,,,,306.45761337500016,,,,,,,,,,,,,,,,,306.44940825000003,306.791933125,307.59041849999994,307.57813129199985,,,,,,,,,,,,,,,,307.5791128330002,307.59041849999994,307.59041849999994,308.32665350000025,b,0.0,0.730705291999584,,308.3325543750002,308.34724320800024,309.3284967499999,,,,,,,,,,,,,,,,,,,,,sub-117,1,stroop_test,122.2400488960201,
,,,,22.0,10.0,1.0,,,,,blau,blue,b,1.0,b,1.0,1.285365124999771,,,,,,,,,,,,,,1.0,10.0,22.0,5.0,,,,,309.33508625000013,,,,,,,,,,,,,,,,,309.3292818750001,310.1251951250001,310.92469408299985,310.9132707919998,,,,,,,,,,,,,,,,310.91418220800006,310.92469408299985,310.92469408299985,312.21730683299984,b,1.0,1.285365124999771,,312.22447920800005,312.2399932080002,313.2253142919999,,,,,,,,,,,,,,,,,,,,,sub-117,1,stroop_test,122.2400488960201,
,,,,23.0,11.0,1.0,,,,,rot,yellow,g,0.0,g,1.0,0.9796413749995736,,,,,,,,,,,,,,1.0,11.0,23.0,3.0,,,,,313.2316702500002,,,,,,,,,,,,,,,,,313.22581412499994,313.3151871670002,314.11281775,314.0989221670002,,,,,,,,,,,,,,,,314.1037778750001,314.11281775,314.11281775,315.10172466699987,g,1.0,0.9796413749995736,,315.1030612919999,315.11790820800024,316.10121237500016,316.1119706670001,,,,,,,,,,,,,,,,,,,,sub-117,1,stroop_test,122.2400488960201,
,,,,,,,,,,,,,,,,,,,,,,,,,,,,,,,,,,,,,,,,,,,,,,,,,,,,,,,,,,,,,,,,,,,,,,,,,,,,,,,,,,,,,,,316.1013979170002,316.1119706670001,316.1119706670001,347.05885283299995,space,30.929651667000144,,,,,,,,,,,,,,sub-117,1,stroop_test,122.2400488960201,
,,,,0.0,0.0,0.0,,,,,,,,,,,,,gelb,yellow,g,1.0,g,1.0,1.3043096250003146,,,,,,,,,,0.0,0.0,0.0,10.0,347.08713258299986,,,,,,,,,,,,,,,,,347.080545542,347.3982201250001,348.2008504999999,348.1848985830002,,,,,,,,,,,,,,,,,,,,,,,,,,,,,,,,,,,348.19053358300016,348.2008504999999,348.2008504999999,349.51285129200005,g,1.0,1.3043096250003146,,,,,,sub-117,1,stroop_test,122.2400488960201,
,,,,1.0,1.0,0.0,,,,,,,,,,,,,rot,yellow,g,0.0,g,1.0,0.93693466600007,,,,,,,,,,0.0,1.0,1.0,3.0,349.5265019580001,,,,,,,,,,,,,,,,,349.5139021250002,349.6083924999998,350.4116859999999,350.3962168329999,,,,,,,,,,,,,,,,,,,,,,,,,,,,,,,,,,,350.40044254199984,350.4116859999999,350.4116859999999,351.35215366700004,g,1.0,0.93693466600007,,,,,,sub-117,1,stroop_test,122.2400488960201,
,,,,2.0,2.0,0.0,,,,,,,,,,,,,gelb,yellow,g,1.0,g,1.0,0.4068622089998825,,,,,,,,,,0.0,2.0,2.0,11.0,351.3656742500002,,,,,,,,,,,,,,,,,351.35315304200003,352.5498399580001,353.3553068330002,353.342115208,,,,,,,,,,,,,,,,,,,,,,,,,,,,,,,,,,,353.3467512080001,353.3553068330002,353.3553068330002,353.76961974999995,g,1.0,0.4068622089998825,,,,,,sub-117,1,stroop_test,122.2400488960201,
,,,,3.0,3.0,0.0,,,,,,,,,,,,,blau,red,r,0.0,r,1.0,0.918297375000293,,,,,,,,,,0.0,3.0,3.0,4.0,353.7820285419998,,,,,,,,,,,,,,,,,353.77062424999986,353.86076125,354.6679053329999,354.65072250000003,,,,,,,,,,,,,,,,,,,,,,,,,,,,,,,,,,,354.6576070000001,354.6679053329999,354.6679053329999,355.5941962500001,r,1.0,0.918297375000293,,,,,,sub-117,1,stroop_test,122.2400488960201,
,,,,4.0,4.0,0.0,,,,,,,,,,,,,rot,blue,b,0.0,b,1.0,0.6814771250001286,,,,,,,,,,0.0,4.0,4.0,2.0,355.6082635419998,,,,,,,,,,,,,,,,,355.595035458,355.69185262500014,356.49012733300015,356.476522083,,,,,,,,,,,,,,,,,,,,,,,,,,,,,,,,,,,356.48117916699994,356.49012733300015,356.49012733300015,357.1771360829998,b,1.0,0.6814771250001286,,,,,,sub-117,1,stroop_test,122.2400488960201,
,,,,5.0,5.0,0.0,,,,,,,,,,,,,rot,red,r,1.0,r,1.0,0.5388821249998728,,,,,,,,,,0.0,5.0,5.0,0.0,357.1907545419999,,,,,,,,,,,,,,,,,357.1777252500001,357.278057083,358.0745931669999,358.0621755830002,,,,,,,,,,,,,,,,,,,,,,,,,,,,,,,,,,,358.0631007500001,358.0745931669999,358.0745931669999,358.6171345829998,r,1.0,0.5388821249998728,,,,,,sub-117,1,stroop_test,122.2400488960201,
,,,,6.0,6.0,0.0,,,,,,,,,,,,,gelb,blue,b,0.0,b,1.0,0.449977624999974,,,,,,,,,,0.0,6.0,6.0,9.0,358.63169241700007,,,,,,,,,,,,,,,,,358.61786670799984,359.8179015830001,360.6247779999999,360.60905345799983,,,,,,,,,,,,,,,,,,,,,,,,,,,,,,,,,,,360.61502462499993,360.6247779999999,360.6247779999999,361.0788874579998,b,1.0,0.449977624999974,,,,,,sub-117,1,stroop_test,122.2400488960201,
,,,,7.0,7.0,0.0,,,,,,,,,,,,,gelb,red,r,0.0,r,1.0,0.7717119170001752,,,,,,,,,,0.0,7.0,7.0,8.0,361.092254833,,,,,,,,,,,,,,,,,361.0798549169999,361.4441688329998,362.2417781250001,362.23262279200026,,,,,,,,,,,,,,,,,,,,,,,,,,,,,,,,,,,362.233505875,362.2417781250001,362.2417781250001,363.0192820000002,r,1.0,0.7717119170001752,,,,,,sub-117,1,stroop_test,122.2400488960201,
,,,,8.0,8.0,0.0,,,,,,,,,,,,,rot,red,r,1.0,r,1.0,0.8115400409997164,,,,,,,,,,0.0,8.0,8.0,1.0,363.0324232500002,,,,,,,,,,,,,,,,,363.0203232499998,363.36636883300025,364.1684731670002,364.1509443330001,,,,,,,,,,,,,,,,,,,,,,,,,,,,,,,,,,,364.1579481250001,364.1684731670002,364.1684731670002,364.98455945800015,r,1.0,0.8115400409997164,,,,,,sub-117,1,stroop_test,122.2400488960201,
,,,,9.0,9.0,0.0,,,,,,,,,,,,,blau,blue,b,1.0,b,1.0,0.5488182079998296,,,,,,,,,,0.0,9.0,9.0,6.0,364.99777774999984,,,,,,,,,,,,,,,,,364.9852357919999,365.0819979170001,365.8796412920001,365.865529917,,,,,,,,,,,,,,,,,,,,,,,,,,,,,,,,,,,365.871140667,365.8796412920001,365.8796412920001,366.4347096249999,b,1.0,0.5488182079998296,,,,,,sub-117,1,stroop_test,122.2400488960201,
,,,,10.0,10.0,0.0,,,,,,,,,,,,,blau,yellow,g,0.0,g,1.0,0.4077364580002722,,,,,,,,,,0.0,10.0,10.0,7.0,366.4485010829999,,,,,,,,,,,,,,,,,366.4357264579999,366.78159925,367.59178125000017,367.565653875,,,,,,,,,,,,,,,,,,,,,,,,,,,,,,,,,,,367.56656391700017,367.59178125000017,367.59178125000017,368.01594691699984,g,1.0,0.4077364580002722,,,,,,sub-117,1,stroop_test,122.2400488960201,
,,,,11.0,11.0,0.0,,,,,,,,,,,,,blau,blue,b,1.0,b,1.0,0.4295702089998485,,,,,,,,,,0.0,11.0,11.0,5.0,368.0242387920002,,,,,,,,,,,,,,,,,368.0166694170002,369.21608379200006,370.0148549579999,370.0049897079998,,,,,,,,,,,,,,,,,,,,,,,,,,,,,,,,,,,370.0059462499999,370.0148549579999,370.0148549579999,370.452480333,b,1.0,0.4295702089998485,,,,,,sub-117,1,stroop_test,122.2400488960201,
,,,,12.0,0.0,1.0,,,,,,,,,,,,,blau,blue,b,1.0,b,1.0,0.6068409590002375,,,,,,,,,,1.0,0.0,12.0,6.0,370.4666521250001,,,,,,,,,,,,,,,,,370.453443417,371.6508321669999,372.444533375,372.43401370799984,,,,,,,,,,,,,,,,,,,,,,,,,,,,,,,,,,,372.434684333,372.444533375,372.444533375,373.06104608299984,b,1.0,0.6068409590002375,,,,,,sub-117,1,stroop_test,122.2400488960201,
,,,,13.0,1.0,1.0,,,,,,,,,,,,,gelb,blue,b,0.0,b,1.0,0.4151402500001495,,,,,,,,,,1.0,1.0,13.0,9.0,373.074373208,,,,,,,,,,,,,,,,,373.061952,373.4073912499998,374.20600975000025,374.19265491700025,,,,,,,,,,,,,,,,,,,,,,,,,,,,,,,,,,,374.197308625,374.20600975000025,374.20600975000025,374.62710712499984,b,1.0,0.4151402500001495,,,,,,sub-117,1,stroop_test,122.2400488960201,
,,,,14.0,2.0,1.0,,,,,,,,,,,,,rot,yellow,g,0.0,g,1.0,0.6451416250001785,,,,,,,,,,1.0,2.0,14.0,3.0,374.6414857499999,,,,,,,,,,,,,,,,,374.6281012499999,374.7252855830002,375.524185583,375.5098082499999,,,,,,,,,,,,,,,,,,,,,,,,,,,,,,,,,,,375.5154125419999,375.524185583,375.524185583,376.179437458,g,1.0,0.6451416250001785,,,,,,sub-117,1,stroop_test,122.2400488960201,
,,,,15.0,3.0,1.0,,,,,,,,,,,,,gelb,yellow,g,1.0,g,1.0,0.5251560000001518,,,,,,,,,,1.0,3.0,15.0,10.0,376.193555333,,,,,,,,,,,,,,,,,376.1802375420002,377.370655792,378.177343375,378.1622542079999,,,,,,,,,,,,,,,,,,,,,,,,,,,,,,,,,,,378.166465667,378.177343375,378.177343375,378.7100774169999,g,1.0,0.5251560000001518,,,,,,sub-117,1,stroop_test,122.2400488960201,
,,,,16.0,4.0,1.0,,,,,,,,,,,,,rot,blue,b,0.0,b,1.0,0.9488978330000464,,,,,,,,,,1.0,4.0,16.0,2.0,378.7233775,,,,,,,,,,,,,,,,,378.7109756250002,379.92502479199993,380.7253646250001,380.7094700000002,,,,,,,,,,,,,,,,,,,,,,,,,,,,,,,,,,,380.7154287080002,380.7253646250001,380.7253646250001,381.67726708300006,b,1.0,0.9488978330000464,,,,,,sub-117,1,stroop_test,122.2400488960201,
,,,,17.0,5.0,1.0,,,,,,,,,,,,,rot,red,r,1.0,r,1.0,0.5077662919998147,,,,,,,,,,1.0,5.0,17.0,1.0,381.690267083,,,,,,,,,,,,,,,,,381.6781161250001,381.7751908750001,382.5699433750001,382.56092249999983,,,,,,,,,,,,,,,,,,,,,,,,,,,,,,,,,,,382.56162895800026,382.5699433750001,382.5699433750001,383.0846637499999,r,1.0,0.5077662919998147,,,,,,sub-117,1,stroop_test,122.2400488960201,
,,,,18.0,6.0,1.0,,,,,,,,,,,,,blau,yellow,g,0.0,g,1.0,0.3640332079999098,,,,,,,,,,1.0,6.0,18.0,7.0,383.0985020829999,,,,,,,,,,,,,,,,,383.0853072919999,384.285980833,385.0908651670002,385.0765826669999,,,,,,,,,,,,,,,,,,,,,,,,,,,,,,,,,,,385.0812336670001,385.0908651670002,385.0908651670002,385.46157733300015,g,1.0,0.3640332079999098,,,,,,sub-117,1,stroop_test,122.2400488960201,
,,,,19.0,7.0,1.0,,,,,,,,,,,,,blau,red,r,0.0,r,1.0,0.8399319999998625,,,,,,,,,,1.0,7.0,19.0,4.0,385.4757387919999,,,,,,,,,,,,,,,,,385.4622008330002,385.80840075000015,386.6012989579999,386.59258712500014,,,,,,,,,,,,,,,,,,,,,,,,,,,,,,,,,,,386.593305458,386.6012989579999,386.6012989579999,387.44452416700005,r,1.0,0.8399319999998625,,,,,,sub-117,1,stroop_test,122.2400488960201,
,,,,20.0,8.0,1.0,,,,,,,,,,,,,blau,blue,b,1.0,b,1.0,0.4661356249998789,,,,,,,,,,1.0,8.0,20.0,5.0,387.4589048749999,,,,,,,,,,,,,,,,,387.4455312079999,388.64337016699983,389.4409765,389.43248979200007,,,,,,,,,,,,,,,,,,,,,,,,,,,,,,,,,,,389.43316925,389.4409765,389.4409765,389.9129454580002,b,1.0,0.4661356249998789,,,,,,sub-117,1,stroop_test,122.2400488960201,
,,,,21.0,9.0,1.0,,,,,,,,,,,,,gelb,red,r,0.0,r,1.0,0.7237025830004313,,,,,,,,,,1.0,9.0,21.0,8.0,389.927544833,,,,,,,,,,,,,,,,,389.9140305000001,390.008518875,390.814443625,390.7987855420001,,,,,,,,,,,,,,,,,,,,,,,,,,,,,,,,,,,390.80506849999983,390.814443625,390.814443625,391.5438724579999,r,1.0,0.7237025830004313,,,,,,sub-117,1,stroop_test,122.2400488960201,
,,,,22.0,10.0,1.0,,,,,,,,,,,,,gelb,yellow,g,1.0,g,1.0,0.6852134159998968,,,,,,,,,,1.0,10.0,22.0,11.0,391.55829437500006,,,,,,,,,,,,,,,,,391.544896333,391.6420455000002,392.458096417,392.4323590419999,,,,,,,,,,,,,,,,,,,,,,,,,,,,,,,,,,,392.4332330000002,392.458096417,392.458096417,393.1611132920002,g,1.0,0.6852134159998968,,,,,,sub-117,1,stroop_test,122.2400488960201,
,,,,23.0,11.0,1.0,,,,,,,,,,,,,rot,red,r,1.0,r,1.0,0.4949465419999797,,,,,,,,,,1.0,11.0,23.0,0.0,393.1752204170002,,,,,,,,,,,,,,,,,393.1616745000001,393.50751141699993,394.3099097079999,394.2942512079999,,,,,,,,,,,,,,,,,,,,,,,,,,,,,,,,,,,394.3000184170001,394.3099097079999,394.3099097079999,394.8126178329999,r,1.0,0.4949465419999797,,,,,,sub-117,1,stroop_test,122.2400488960201,
,,,,24.0,0.0,2.0,,,,,,,,,,,,,gelb,red,r,0.0,r,1.0,0.3928052090000165,,,,,,,,,,2.0,0.0,24.0,8.0,394.826686333,,,,,,,,,,,,,,,,,394.8133594579999,396.009140875,396.81058895800015,396.79298804200016,,,,,,,,,,,,,,,,,,,,,,,,,,,,,,,,,,,396.8004123750002,396.81058895800015,396.81058895800015,397.211257167,r,1.0,0.3928052090000165,,,,,,sub-117,1,stroop_test,122.2400488960201,
,,,,25.0,1.0,2.0,,,,,,,,,,,,,blau,blue,b,1.0,b,1.0,0.4803168749999713,,,,,,,,,,2.0,1.0,25.0,6.0,397.225834292,,,,,,,,,,,,,,,,,397.212142458,398.0100270419998,398.82272387500007,398.8093564579999,,,,,,,,,,,,,,,,,,,,,,,,,,,,,,,,,,,398.8140498329999,398.82272387500007,398.82272387500007,399.310741667,b,1.0,0.4803168749999713,,,,,,sub-117,1,stroop_test,122.2400488960201,
,,,,26.0,2.0,2.0,,,,,,,,,,,,,gelb,yellow,g,1.0,g,1.0,0.502682041999833,,,,,,,,,,2.0,2.0,26.0,10.0,399.3250968749999,,,,,,,,,,,,,,,,,399.311797375,400.1090115830002,400.90607220799984,400.8924400830001,,,,,,,,,,,,,,,,,,,,,,,,,,,,,,,,,,,400.896975917,400.90607220799984,400.90607220799984,401.418187667,g,1.0,0.502682041999833,,,,,,sub-117,1,stroop_test,122.2400488960201,
,,,,27.0,3.0,2.0,,,,,,,,,,,,,blau,yellow,g,0.0,g,1.0,0.335156083000129,,,,,,,,,,2.0,3.0,27.0,7.0,401.4315448329999,,,,,,,,,,,,,,,,,401.4191852079998,402.61645991700016,403.4160811669999,403.4027666249999,,,,,,,,,,,,,,,,,,,,,,,,,,,,,,,,,,,403.4069896249998,403.4160811669999,403.4160811669999,403.76757325000017,g,1.0,0.335156083000129,,,,,,sub-117,1,stroop_test,122.2400488960201,
,,,,28.0,4.0,2.0,,,,,,,,,,,,,rot,red,r,1.0,r,1.0,0.4531199999996715,,,,,,,,,,2.0,4.0,28.0,1.0,403.775662042,,,,,,,,,,,,,,,,,403.7683121250002,404.1150859580002,404.924658167,404.9043474169998,,,,,,,,,,,,,,,,,,,,,,,,,,,,,,,,,,,404.91100925,404.924658167,404.924658167,405.384568125,r,1.0,0.4531199999996715,,,,,,sub-117,1,stroop_test,122.2400488960201,
,,,,29.0,5.0,2.0,,,,,,,,,,,,,gelb,yellow,g,1.0,g,1.0,0.5800780829999894,,,,,,,,,,2.0,5.0,29.0,11.0,405.39828216700016,,,,,,,,,,,,,,,,,405.3855316250001,405.486591375,406.2950207079998,406.2792722919999,,,,,,,,,,,,,,,,,,,,,,,,,,,,,,,,,,,406.28366729200025,406.2950207079998,406.2950207079998,406.8931106250002,g,1.0,0.5800780829999894,,,,,,sub-117,1,stroop_test,122.2400488960201,
,,,,30.0,6.0,2.0,,,,,,,,,,,,,rot,red,r,1.0,r,1.0,0.4158582499999284,,,,,,,,,,2.0,6.0,30.0,0.0,406.899989042,,,,,,,,,,,,,,,,,406.893666,407.68613570800017,408.489311583,408.4759159579999,,,,,,,,,,,,,,,,,,,,,,,,,,,,,,,,,,,408.48047162500006,408.489311583,408.489311583,408.9147307080002,r,1.0,0.4158582499999284,,,,,,sub-117,1,stroop_test,122.2400488960201,
,,,,31.0,7.0,2.0,,,,,,,,,,,,,blau,red,r,0.0,r,1.0,0.3831164590001208,,,,,,,,,,2.0,7.0,31.0,4.0,408.9304185420001,,,,,,,,,,,,,,,,,408.9158185420001,409.7100290419999,410.50829816700025,410.4932712499999,,,,,,,,,,,,,,,,,,,,,,,,,,,,,,,,,,,410.49966933299993,410.50829816700025,410.50829816700025,410.9089415829999,r,1.0,0.3831164590001208,,,,,,sub-117,1,stroop_test,122.2400488960201,
,,,,32.0,8.0,2.0,,,,,,,,,,,,,blau,blue,b,1.0,b,1.0,0.6079137920000903,,,,,,,,,,2.0,8.0,32.0,5.0,410.9165079170002,,,,,,,,,,,,,,,,,410.9098125830001,411.7011031249999,412.5012542079999,412.4925310829999,,,,,,,,,,,,,,,,,,,,,,,,,,,,,,,,,,,412.4932281249999,412.5012542079999,412.5012542079999,413.126713833,b,1.0,0.6079137920000903,,,,,,sub-117,1,stroop_test,122.2400488960201,
,,,,33.0,9.0,2.0,,,,,,,,,,,,,rot,yellow,g,0.0,g,1.0,0.4816669580000052,,,,,,,,,,2.0,9.0,33.0,3.0,413.14190429200016,,,,,,,,,,,,,,,,,413.1272761670002,414.3200018749999,415.1225478330002,415.109178708,,,,,,,,,,,,,,,,,,,,,,,,,,,,,,,,,,,415.1136695830001,415.1225478330002,415.1225478330002,415.612353,g,1.0,0.4816669580000052,,,,,,sub-117,1,stroop_test,122.2400488960201,
,,,,34.0,10.0,2.0,,,,,,,,,,,,,rot,blue,b,0.0,b,1.0,1.1899088750001283,,,,,,,,,,2.0,10.0,34.0,2.0,415.62641762500016,,,,,,,,,,,,,,,,,415.613230208,416.4115716669999,417.2109098750002,417.200780958,,,,,,,,,,,,,,,,,,,,,,,,,,,,,,,,,,,417.2016616249998,417.2109098750002,417.2109098750002,418.4109826250001,b,1.0,1.1899088750001283,,,,,,sub-117,1,stroop_test,122.2400488960201,
,,,,35.0,11.0,2.0,,,,,,,,,,,,,gelb,blue,b,0.0,b,1.0,1.0575905829996373,,,,,,,,,,2.0,11.0,35.0,9.0,418.4247526250001,,,,,,,,,,,,,,,,,418.4120519170001,419.60766950000016,420.4081727500002,420.392158917,,,,,,,,,,,,,,,,,,,,,,,,,,,,,,,,,,,420.3980629580001,420.4081727500002,420.4081727500002,421.4824846249999,b,1.0,1.0575905829996373,,,,,,sub-117,1,stroop_test,122.2400488960201,
,,,,36.0,0.0,3.0,,,,,,,,,,,,,rot,red,r,1.0,r,1.0,0.5283392920000551,,,,,,,,,,3.0,0.0,36.0,1.0,421.4958966670001,,,,,,,,,,,,,,,,,421.4833645829999,421.58232766699984,422.388540083,422.3753603330001,,,,,,,,,,,,,,,,,,,,,,,,,,,,,,,,,,,422.379783417,422.388540083,422.388540083,422.92723487500007,r,1.0,0.5283392920000551,,,,,,sub-117,1,stroop_test,122.2400488960201,
,,,,37.0,1.0,3.0,,,,,,,,,,,,,rot,yellow,g,0.0,g,1.0,0.5908805419999226,,,,,,,,,,3.0,1.0,37.0,3.0,422.9406209580002,,,,,,,,,,,,,,,,,422.92823725000017,423.2745677080002,424.06842870799983,424.0583630420001,,,,,,,,,,,,,,,,,,,,,,,,,,,,,,,,,,,424.059284042,424.06842870799983,424.06842870799983,424.666970583,g,1.0,0.5908805419999226,,,,,,sub-117,1,stroop_test,122.2400488960201,
,,,,38.0,2.0,3.0,,,,,,,,,,,,,gelb,blue,b,0.0,b,1.0,0.9221434999999474,,,,,,,,,,3.0,2.0,38.0,9.0,424.6811050000001,,,,,,,,,,,,,,,,,424.66772025,425.0161324999999,425.82864425000025,425.80971745800025,,,,,,,,,,,,,,,,,,,,,,,,,,,,,,,,,,,425.8174274580001,425.82864425000025,425.82864425000025,426.760542,b,1.0,0.9221434999999474,,,,,,sub-117,1,stroop_test,122.2400488960201,
,,,,39.0,3.0,3.0,,,,,,,,,,,,,gelb,yellow,g,1.0,g,1.0,0.6110806249998859,,,,,,,,,,3.0,3.0,39.0,10.0,426.774888333,,,,,,,,,,,,,,,,,426.761581833,427.1074960000001,427.9019625420001,427.8913251250001,,,,,,,,,,,,,,,,,,,,,,,,,,,,,,,,,,,427.8922057079999,427.9019625420001,427.9019625420001,428.516723917,g,1.0,0.6110806249998859,,,,,,sub-117,1,stroop_test,122.2400488960201,
,,,,40.0,4.0,3.0,,,,,,,,,,,,,blau,red,r,0.0,r,1.0,0.8082656250003311,,,,,,,,,,3.0,4.0,40.0,4.0,428.53129249999984,,,,,,,,,,,,,,,,,428.5174607079998,429.3125387079999,430.111489333,430.099374333,,,,,,,,,,,,,,,,,,,,,,,,,,,,,,,,,,,430.1035439580001,430.111489333,430.111489333,430.9283082920001,r,1.0,0.8082656250003311,,,,,,sub-117,1,stroop_test,122.2400488960201,
,,,,41.0,5.0,3.0,,,,,,,,,,,,,blau,blue,b,1.0,b,1.0,0.8985321670002122,,,,,,,,,,3.0,5.0,41.0,6.0,430.94162470799984,,,,,,,,,,,,,,,,,430.9293687499999,431.725178875,432.5186484169999,432.50975625,,,,,,,,,,,,,,,,,,,,,,,,,,,,,,,,,,,432.5104583749999,432.5186484169999,432.5186484169999,433.4270740420002,b,1.0,0.8985321670002122,,,,,,sub-117,1,stroop_test,122.2400488960201,
,,,,42.0,6.0,3.0,,,,,,,,,,,,,rot,blue,b,0.0,b,1.0,0.6771911659998295,,,,,,,,,,3.0,6.0,42.0,2.0,433.44139191700015,,,,,,,,,,,,,,,,,433.4280899999999,434.21953804199984,435.025890167,435.01080525,,,,,,,,,,,,,,,,,,,,,,,,,,,,,,,,,,,435.0158732919999,435.025890167,435.025890167,435.7100609580002,b,1.0,0.6771911659998295,,,,,,sub-117,1,stroop_test,122.2400488960201,
,,,,43.0,7.0,3.0,,,,,,,,,,,,,rot,red,r,1.0,g,0.0,0.9593442080004024,,,,,,,,,,3.0,7.0,43.0,0.0,435.7244398329999,,,,,,,,,,,,,,,,,435.71094570800005,435.8084568750001,436.6029539169999,436.5927047079999,,,,,,,,,,,,,,,,,,,,,,,,,,,,,,,,,,,436.5935974170002,436.6029539169999,436.6029539169999,437.5712638750001,g,0.0,0.9593442080004024,,,,,,sub-117,1,stroop_test,122.2400488960201,
,,,,44.0,8.0,3.0,,,,,,,,,,,,,gelb,red,r,0.0,r,1.0,1.0376304169999455,,,,,,,,,,3.0,8.0,44.0,8.0,437.5848460830002,,,,,,,,,,,,,,,,,437.57219091700017,437.9189341249999,438.726463167,438.7116033749999,,,,,,,,,,,,,,,,,,,,,,,,,,,,,,,,,,,438.7167702920001,438.726463167,438.726463167,439.7685725420001,r,1.0,1.0376304169999455,,,,,,sub-117,1,stroop_test,122.2400488960201,
,,,,45.0,9.0,3.0,,,,,,,,,,,,,gelb,yellow,g,1.0,g,1.0,0.59382933400002,,,,,,,,,,3.0,9.0,45.0,11.0,439.78248891700014,,,,,,,,,,,,,,,,,439.7695452920002,440.96542087499984,441.77481145799993,441.7500205420001,,,,,,,,,,,,,,,,,,,,,,,,,,,,,,,,,,,441.750714625,441.77481145799993,441.77481145799993,442.37764937500015,g,1.0,0.59382933400002,,,,,,sub-117,1,stroop_test,122.2400488960201,
,,,,46.0,10.0,3.0,,,,,,,,,,,,,blau,yellow,g,0.0,g,1.0,0.840395124999759,,,,,,,,,,3.0,10.0,46.0,7.0,442.39198216700015,,,,,,,,,,,,,,,,,442.378676625,443.595313625,444.3977249999998,444.38225816700015,,,,,,,,,,,,,,,,,,,,,,,,,,,,,,,,,,,444.38788916700014,444.3977249999998,444.3977249999998,445.2439657079999,g,1.0,0.840395124999759,,,,,,sub-117,1,stroop_test,122.2400488960201,
,,,,47.0,11.0,3.0,,,,,,,,,,,,,blau,blue,b,1.0,b,1.0,0.5690104589998555,,,,,,,,,,3.0,11.0,47.0,5.0,445.2583090829999,,,,,,,,,,,,,,,,,445.2449791250001,445.34084733300006,446.13528487500025,446.1264656670001,,,,,,,,,,,,,,,,,,,,,,,,,,,,,,,,,,,446.1271593330002,446.13528487500025,446.13528487500025,446.7098819170001,b,1.0,0.5690104589998555,,,,,,sub-117,1,stroop_test,122.2400488960201,
,,,,48.0,0.0,4.0,,,,,,,,,,,,,blau,blue,b,1.0,b,1.0,0.5824511250002615,,,,,,,,,,4.0,0.0,48.0,5.0,446.7231752920002,,,,,,,,,,,,,,,,,446.71074629199984,447.911350417,448.7104897919999,448.69966008300025,,,,,,,,,,,,,,,,,,,,,,,,,,,,,,,,,,,448.7005238749998,448.7104897919999,448.7104897919999,449.2995220419998,b,1.0,0.5824511250002615,,,,,,sub-117,1,stroop_test,122.2400488960201,
,,,,49.0,1.0,4.0,,,,,,,,,,,,,gelb,yellow,g,1.0,g,1.0,0.5969297500000721,,,,,,,,,,4.0,1.0,49.0,11.0,449.3146135000002,,,,,,,,,,,,,,,,,449.300197042,449.64851525,450.4447032920002,450.43230570800006,,,,,,,,,,,,,,,,,,,,,,,,,,,,,,,,,,,450.436534125,450.4447032920002,450.4447032920002,451.0445165830001,g,1.0,0.5969297500000721,,,,,,sub-117,1,stroop_test,122.2400488960201,
,,,,50.0,2.0,4.0,,,,,,,,,,,,,blau,yellow,g,0.0,g,1.0,0.4904855409999982,,,,,,,,,,4.0,2.0,50.0,7.0,451.0575502920001,,,,,,,,,,,,,,,,,451.0453688749999,451.3917444580002,452.189075792,452.17573062500014,,,,,,,,,,,,,,,,,,,,,,,,,,,,,,,,,,,452.180323,452.189075792,452.189075792,452.6861347919999,g,1.0,0.4904855409999982,,,,,,sub-117,1,stroop_test,122.2400488960201,
,,,,51.0,3.0,4.0,,,,,,,,,,,,,gelb,yellow,g,1.0,g,1.0,0.3678070000000843,,,,,,,,,,4.0,3.0,51.0,10.0,452.6996964999999,,,,,,,,,,,,,,,,,452.6871704999999,453.483508417,454.29183920800006,454.2759703329998,,,,,,,,,,,,,,,,,,,,,,,,,,,,,,,,,,,454.2819777919999,454.29183920800006,454.29183920800006,454.6629602080002,g,1.0,0.3678070000000843,,,,,,sub-117,1,stroop_test,122.2400488960201,
,,,,52.0,4.0,4.0,,,,,,,,,,,,,gelb,blue,b,0.0,b,1.0,0.5044894170000589,,,,,,,,,,4.0,4.0,52.0,9.0,454.6772515000002,,,,,,,,,,,,,,,,,454.6639437079998,455.0090392080001,455.807073042,455.79483641700017,,,,,,,,,,,,,,,,,,,,,,,,,,,,,,,,,,,455.7957281250001,455.807073042,455.807073042,456.3182313749999,b,1.0,0.5044894170000589,,,,,,sub-117,1,stroop_test,122.2400488960201,
,,,,53.0,5.0,4.0,,,,,,,,,,,,,rot,blue,b,0.0,b,1.0,0.6834668749997945,,,,,,,,,,4.0,5.0,53.0,2.0,456.33180675,,,,,,,,,,,,,,,,,456.31925983300016,457.5160329999999,458.324946875,458.30839300000025,,,,,,,,,,,,,,,,,,,,,,,,,,,,,,,,,,,458.316204708,458.324946875,458.324946875,459.0265638330002,b,1.0,0.6834668749997945,,,,,,sub-117,1,stroop_test,122.2400488960201,
,,,,54.0,6.0,4.0,,,,,,,,,,,,,gelb,red,r,0.0,r,1.0,0.5196600839999519,,,,,,,,,,4.0,6.0,54.0,8.0,459.0328823330001,,,,,,,,,,,,,,,,,459.02713804199993,459.8170427499999,460.624482875,460.60855312500007,,,,,,,,,,,,,,,,,,,,,,,,,,,,,,,,,,,460.6147487080002,460.624482875,460.624482875,461.14970333300016,r,1.0,0.5196600839999519,,,,,,sub-117,1,stroop_test,122.2400488960201,
,,,,55.0,7.0,4.0,,,,,,,,,,,,,rot,red,r,1.0,r,1.0,0.470597541999723,,,,,,,,,,4.0,7.0,55.0,0.0,461.1643899169999,,,,,,,,,,,,,,,,,461.1502780830001,461.49845866700025,462.3083945829999,462.2927437920002,,,,,,,,,,,,,,,,,,,,,,,,,,,,,,,,,,,462.2985425830002,462.3083945829999,462.3083945829999,462.7877755,r,1.0,0.470597541999723,,,,,,sub-117,1,stroop_test,122.2400488960201,
,,,,56.0,8.0,4.0,,,,,,,,,,,,,rot,red,r,1.0,r,1.0,0.4192280419997587,,,,,,,,,,4.0,8.0,56.0,1.0,462.8016607499999,,,,,,,,,,,,,,,,,462.7886947500001,463.131881583,463.9349177919999,463.9259551670002,,,,,,,,,,,,,,,,,,,,,,,,,,,,,,,,,,,463.9266563330002,463.9349177919999,463.9349177919999,464.3607121670002,r,1.0,0.4192280419997587,,,,,,sub-117,1,stroop_test,122.2400488960201,
,,,,57.0,9.0,4.0,,,,,,,,,,,,,blau,red,r,0.0,r,1.0,0.3936732500001199,,,,,,,,,,4.0,9.0,57.0,4.0,464.37500958300006,,,,,,,,,,,,,,,,,464.3617467079998,464.4570399580002,465.257354292,465.2427173330002,,,,,,,,,,,,,,,,,,,,,,,,,,,,,,,,,,,465.247285125,465.257354292,465.257354292,465.66780125000014,r,1.0,0.3936732500001199,,,,,,sub-117,1,stroop_test,122.2400488960201,
,,,,58.0,10.0,4.0,,,,,,,,,,,,,blau,blue,b,1.0,b,1.0,0.5010507089996281,,,,,,,,,,4.0,10.0,58.0,6.0,465.6756344579999,,,,,,,,,,,,,,,,,465.6683656670002,466.466050083,467.2681355,467.2593622919999,,,,,,,,,,,,,,,,,,,,,,,,,,,,,,,,,,,467.2600735420001,467.2681355,467.2681355,467.77743283300015,b,1.0,0.5010507089996281,,,,,,sub-117,1,stroop_test,122.2400488960201,
,,,,59.0,11.0,4.0,,,,,,,,,,,,,rot,yellow,g,0.0,g,1.0,0.7417130000003453,,,,,,,,,,4.0,11.0,59.0,3.0,467.791626833,,,,,,,,,,,,,,,,,467.7784152499999,468.1250812500002,468.9245638329999,468.91157791700016,,,,,,,,,,,,,,,,,,,,,,,,,,,,,,,,,,,468.91577700000016,468.9245638329999,468.9245638329999,469.67641545800006,g,1.0,0.7417130000003453,,,,,,sub-117,1,stroop_test,122.2400488960201,
,,,,60.0,0.0,5.0,,,,,,,,,,,,,gelb,red,r,0.0,r,1.0,0.9072671669996452,,,,,,,,,,5.0,0.0,60.0,8.0,469.6895682919999,,,,,,,,,,,,,,,,,469.67730875000007,470.8695202079998,471.6741992500001,471.6583632500001,,,,,,,,,,,,,,,,,,,,,,,,,,,,,,,,,,,471.6643694170002,471.6741992500001,471.6741992500001,472.5842106670002,r,1.0,0.9072671669996452,,,,,,sub-117,1,stroop_test,122.2400488960201,
,,,,61.0,1.0,5.0,,,,,,,,,,,,,rot,red,r,1.0,r,1.0,0.4654275419998157,,,,,,,,,,5.0,1.0,61.0,1.0,472.59746825,,,,,,,,,,,,,,,,,472.5850893749998,472.6821137500001,473.4817532920001,473.4668992080001,,,,,,,,,,,,,,,,,,,,,,,,,,,,,,,,,,,473.4722837499999,473.4817532920001,473.4817532920001,473.960382833,r,1.0,0.4654275419998157,,,,,,sub-117,1,stroop_test,122.2400488960201,
,,,,62.0,2.0,5.0,,,,,,,,,,,,,rot,red,r,1.0,r,1.0,0.3902581659999669,,,,,,,,,,5.0,2.0,62.0,0.0,473.974482958,,,,,,,,,,,,,,,,,473.9612340829999,475.150246958,475.951400208,475.9422667499998,,,,,,,,,,,,,,,,,,,,,,,,,,,,,,,,,,,475.9429789999999,475.951400208,475.951400208,476.3580270420002,r,1.0,0.3902581659999669,,,,,,sub-117,1,stroop_test,122.2400488960201,
,,,,63.0,3.0,5.0,,,,,,,,,,,,,rot,blue,b,0.0,b,1.0,0.5439546670004347,,,,,,,,,,5.0,3.0,63.0,2.0,476.364426958,,,,,,,,,,,,,,,,,476.358586333,477.55182208299993,478.3537094170001,478.344799083,,,,,,,,,,,,,,,,,,,,,,,,,,,,,,,,,,,478.34567808300017,478.3537094170001,478.3537094170001,478.9093777920002,b,1.0,0.5439546670004347,,,,,,sub-117,1,stroop_test,122.2400488960201,
,,,,64.0,4.0,5.0,,,,,,,,,,,,,gelb,yellow,g,1.0,g,1.0,0.4826108339998427,,,,,,,,,,5.0,4.0,64.0,10.0,478.92207162500017,,,,,,,,,,,,,,,,,478.9099873750001,479.0138884170001,479.817193458,479.799412417,,,,,,,,,,,,,,,,,,,,,,,,,,,,,,,,,,,479.806400208,479.817193458,479.817193458,480.3208945420001,g,1.0,0.4826108339998427,,,,,,sub-117,1,stroop_test,122.2400488960201,
,,,,65.0,5.0,5.0,,,,,,,,,,,,,blau,red,r,0.0,r,1.0,0.7860746249998556,,,,,,,,,,5.0,5.0,65.0,4.0,480.3356404169999,,,,,,,,,,,,,,,,,480.3219317920002,481.5164736669999,482.32731079199993,482.30863987500015,,,,,,,,,,,,,,,,,,,,,,,,,,,,,,,,,,,482.3164513749998,482.32731079199993,482.32731079199993,483.1296716249999,r,1.0,0.7860746249998556,,,,,,sub-117,1,stroop_test,122.2400488960201,
,,,,66.0,6.0,5.0,,,,,,,,,,,,,gelb,blue,b,0.0,b,1.0,0.9831894580001972,,,,,,,,,,5.0,6.0,66.0,9.0,483.145940167,,,,,,,,,,,,,,,,,483.1308577079999,483.474159375,484.2721132500001,484.2589360830002,,,,,,,,,,,,,,,,,,,,,,,,,,,,,,,,,,,484.263506542,484.2721132500001,484.2721132500001,485.2597632920001,b,1.0,0.9831894580001972,,,,,,sub-117,1,stroop_test,122.2400488960201,
,,,,67.0,7.0,5.0,,,,,,,,,,,,,rot,yellow,g,0.0,g,1.0,0.7006431669997255,,,,,,,,,,5.0,7.0,67.0,3.0,485.27336775,,,,,,,,,,,,,,,,,485.2606611669999,486.4573692079998,487.2574850000001,487.2419420420001,,,,,,,,,,,,,,,,,,,,,,,,,,,,,,,,,,,487.247790375,487.2574850000001,487.2574850000001,487.9751112499998,g,1.0,0.7006431669997255,,,,,,sub-117,1,stroop_test,122.2400488960201,
,,,,68.0,8.0,5.0,,,,,,,,,,,,,blau,blue,b,1.0,b,1.0,0.5449918750000506,,,,,,,,,,5.0,8.0,68.0,5.0,487.98242674999983,,,,,,,,,,,,,,,,,487.9758401250001,488.76532362499984,489.56768887499993,489.5519707080002,,,,,,,,,,,,,,,,,,,,,,,,,,,,,,,,,,,489.5575682919998,489.56768887499993,489.56768887499993,490.1198199169999,b,1.0,0.5449918750000506,,,,,,sub-117,1,stroop_test,122.2400488960201,
,,,,69.0,9.0,5.0,,,,,,,,,,,,,blau,yellow,g,0.0,b,0.0,0.6774685840000529,,,,,,,,,,5.0,9.0,69.0,7.0,490.1343852499999,,,,,,,,,,,,,,,,,490.120792875,491.31774275,492.119687333,492.10963712500006,,,,,,,,,,,,,,,,,,,,,,,,,,,,,,,,,,,492.11053333300015,492.119687333,492.119687333,492.8027740829998,b,0.0,0.6774685840000529,,,,,,sub-117,1,stroop_test,122.2400488960201,
,,,,70.0,10.0,5.0,,,,,,,,,,,,,gelb,yellow,g,1.0,g,1.0,0.5748753750003743,,,,,,,,,,5.0,10.0,70.0,11.0,492.8155712500002,,,,,,,,,,,,,,,,,492.8038368329999,493.9981403749998,494.79460466699993,494.7820387080001,,,,,,,,,,,,,,,,,,,,,,,,,,,,,,,,,,,494.786285958,494.79460466699993,494.79460466699993,495.3772000419999,g,1.0,0.5748753750003743,,,,,,sub-117,1,stroop_test,122.2400488960201,
,,,,71.0,11.0,5.0,,,,,,,,,,,,,blau,blue,b,1.0,b,1.0,0.6194223339998643,,,,,,,,,,5.0,11.0,71.0,6.0,495.3917071669998,,,,,,,,,,,,,,,,,495.37822970800016,495.47389783300014,496.27737483300007,496.262067833,,,,,,,,,,,,,,,,,,,,,,,,,,,,,,,,,,,496.26755333300025,496.27737483300007,496.27737483300007,496.90578099999993,b,1.0,0.6194223339998643,,,,,,sub-117,1,stroop_test,122.2400488960201,
,,,,72.0,0.0,6.0,,,,,,,,,,,,,blau,blue,b,1.0,b,1.0,0.5709213750001254,,,,,,,,,,6.0,0.0,72.0,6.0,496.9205682920001,,,,,,,,,,,,,,,,,496.9067392080001,497.249271958,498.04550641700007,498.03600700000015,,,,,,,,,,,,,,,,,,,,,,,,,,,,,,,,,,,498.036933208,498.04550641700007,498.04550641700007,498.6199005419999,b,1.0,0.5709213750001254,,,,,,sub-117,1,stroop_test,122.2400488960201,
,,,,73.0,1.0,6.0,,,,,,,,,,,,,blau,blue,b,1.0,b,1.0,0.5019205829999009,,,,,,,,,,6.0,1.0,73.0,5.0,498.6336832500001,,,,,,,,,,,,,,,,,498.6209076670002,498.7153830420002,499.5107075000001,499.4999805000002,,,,,,,,,,,,,,,,,,,,,,,,,,,,,,,,,,,499.5008589170002,499.5107075000001,499.5107075000001,500.01721224999983,b,1.0,0.5019205829999009,,,,,,sub-117,1,stroop_test,122.2400488960201,
,,,,74.0,2.0,6.0,,,,,,,,,,,,,gelb,yellow,g,1.0,g,1.0,0.5254366659996776,,,,,,,,,,6.0,2.0,74.0,10.0,500.031302458,,,,,,,,,,,,,,,,,500.01824658299984,500.3658300420002,501.1736591670001,501.1590688750002,,,,,,,,,,,,,,,,,,,,,,,,,,,,,,,,,,,501.164904583,501.1736591670001,501.1736591670001,501.7027095829999,g,1.0,0.5254366659996776,,,,,,sub-117,1,stroop_test,122.2400488960201,
,,,,75.0,3.0,6.0,,,,,,,,,,,,,rot,blue,b,0.0,b,1.0,1.2756591249999474,,,,,,,,,,6.0,3.0,75.0,2.0,501.7165882079999,,,,,,,,,,,,,,,,,501.7037208329998,502.0484267500001,502.8450123749999,502.83275479199983,,,,,,,,,,,,,,,,,,,,,,,,,,,,,,,,,,,502.836842875,502.8450123749999,502.8450123749999,504.1277354580002,b,1.0,1.2756591249999474,,,,,,sub-117,1,stroop_test,122.2400488960201,
,,,,76.0,4.0,6.0,,,,,,,,,,,,,rot,yellow,g,0.0,g,1.0,1.2387717080000584,,,,,,,,,,6.0,4.0,76.0,3.0,504.1419471670001,,,,,,,,,,,,,,,,,504.128640417,505.326491625,506.1257922079999,506.1103155420001,,,,,,,,,,,,,,,,,,,,,,,,,,,,,,,,,,,506.11101733299984,506.1257922079999,506.1257922079999,507.3681312919998,g,1.0,1.2387717080000584,,,,,,sub-117,1,stroop_test,122.2400488960201,
,,,,77.0,5.0,6.0,,,,,,,,,,,,,blau,yellow,g,0.0,g,1.0,0.8021227079998425,,,,,,,,,,6.0,5.0,77.0,7.0,507.3821054999999,,,,,,,,,,,,,,,,,507.36915616700026,508.560573833,509.3632997919999,509.3494424579999,,,,,,,,,,,,,,,,,,,,,,,,,,,,,,,,,,,509.35402791700017,509.3632997919999,509.3632997919999,510.17681779199984,g,1.0,0.8021227079998425,,,,,,sub-117,1,stroop_test,122.2400488960201,
,,,,78.0,6.0,6.0,,,,,,,,,,,,,rot,red,r,1.0,r,1.0,0.5388780829998723,,,,,,,,,,6.0,6.0,78.0,0.0,510.19005804200015,,,,,,,,,,,,,,,,,510.1776508329999,511.3675315420001,512.171946042,512.1586268330002,,,,,,,,,,,,,,,,,,,,,,,,,,,,,,,,,,,512.1630897499999,512.171946042,512.171946042,512.7282143329999,r,1.0,0.5388780829998723,,,,,,sub-117,1,stroop_test,122.2400488960201,
,,,,79.0,7.0,6.0,,,,,,,,,,,,,gelb,red,r,0.0,r,1.0,0.9260657079998964,,,,,,,,,,6.0,7.0,79.0,8.0,512.7424398329999,,,,,,,,,,,,,,,,,512.7287822920002,512.8251249169998,513.6253114169999,513.6097462500002,,,,,,,,,,,,,,,,,,,,,,,,,,,,,,,,,,,513.6157012919998,513.6253114169999,513.6253114169999,514.5629655000002,r,1.0,0.9260657079998964,,,,,,sub-117,1,stroop_test,122.2400488960201,
,,,,80.0,8.0,6.0,,,,,,,,,,,,,rot,red,r,1.0,r,1.0,0.4471952079998118,,,,,,,,,,6.0,8.0,80.0,1.0,514.5777320000002,,,,,,,,,,,,,,,,,514.5637125419998,514.6582791669998,515.457658583,515.4417745000001,,,,,,,,,,,,,,,,,,,,,,,,,,,,,,,,,,,515.447601583,515.457658583,515.457658583,515.9139533749999,r,1.0,0.4471952079998118,,,,,,sub-117,1,stroop_test,122.2400488960201,
,,,,81.0,9.0,6.0,,,,,,,,,,,,,gelb,yellow,g,1.0,g,1.0,0.5779870420001316,,,,,,,,,,6.0,9.0,81.0,11.0,515.9271679170001,,,,,,,,,,,,,,,,,515.914748958,517.106985208,517.9079503329999,517.8918699999999,,,,,,,,,,,,,,,,,,,,,,,,,,,,,,,,,,,517.8965938330002,517.9079503329999,517.9079503329999,518.4944485420001,g,1.0,0.5779870420001316,,,,,,sub-117,1,stroop_test,122.2400488960201,
,,,,82.0,10.0,6.0,,,,,,,,,,,,,gelb,blue,b,0.0,b,1.0,1.0103147499999068,,,,,,,,,,6.0,10.0,82.0,9.0,518.5088677919998,,,,,,,,,,,,,,,,,518.4955196669998,519.6926924580002,520.4933755000002,520.4826997499999,,,,,,,,,,,,,,,,,,,,,,,,,,,,,,,,,,,520.4835437080001,520.4933755000002,520.4933755000002,521.5100575830002,b,1.0,1.0103147499999068,,,,,,sub-117,1,stroop_test,122.2400488960201,
,,,,83.0,11.0,6.0,,,,,,,,,,,,,blau,red,r,0.0,r,1.0,0.8847955839996757,,,,,,,,,,6.0,11.0,83.0,4.0,521.5231828750002,,,,,,,,,,,,,,,,,521.5109433329999,522.3084693330002,523.106556917,523.0919269169999,,,,,,,,,,,,,,,,,,,,,,,,,,,,,,,,,,,523.09783075,523.106556917,523.106556917,524.0092597920002,r,1.0,0.8847955839996757,,,,,,sub-117,1,stroop_test,122.2400488960201,
,,,,84.0,0.0,7.0,,,,,,,,,,,,,rot,yellow,g,0.0,g,1.0,0.6538274999998066,,,,,,,,,,7.0,0.0,84.0,3.0,524.015654417,,,,,,,,,,,,,,,,,524.0098163749999,524.3490725420002,525.1446662500002,525.1325043749998,,,,,,,,,,,,,,,,,,,,,,,,,,,,,,,,,,,525.136610042,525.1446662500002,525.1446662500002,525.8020135830002,g,1.0,0.6538274999998066,,,,,,sub-117,1,stroop_test,122.2400488960201,
,,,,85.0,1.0,7.0,,,,,,,,,,,,,gelb,yellow,g,1.0,g,1.0,0.498973209000269,,,,,,,,,,7.0,1.0,85.0,10.0,525.815615167,,,,,,,,,,,,,,,,,525.8030174999999,526.5991555,527.4059964580001,527.3926167919999,,,,,,,,,,,,,,,,,,,,,,,,,,,,,,,,,,,527.3972448750001,527.4059964580001,527.4059964580001,527.9128707499999,g,1.0,0.498973209000269,,,,,,sub-117,1,stroop_test,122.2400488960201,
,,,,86.0,2.0,7.0,,,,,,,,,,,,,blau,blue,b,1.0,b,1.0,0.5868578750000779,,,,,,,,,,7.0,2.0,86.0,6.0,527.9268325419998,,,,,,,,,,,,,,,,,527.9136296669999,528.2584096250002,529.0559979999998,529.0424204999999,,,,,,,,,,,,,,,,,,,,,,,,,,,,,,,,,,,529.047205375,529.0559979999998,529.0559979999998,529.6611978750002,b,1.0,0.5868578750000779,,,,,,sub-117,1,stroop_test,122.2400488960201,
,,,,87.0,3.0,7.0,,,,,,,,,,,,,rot,blue,b,0.0,b,1.0,0.3544642500000918,,,,,,,,,,7.0,3.0,87.0,2.0,529.6752858750001,,,,,,,,,,,,,,,,,529.6619426249999,530.457825042,531.255675208,531.2423954999999,,,,,,,,,,,,,,,,,,,,,,,,,,,,,,,,,,,531.246915833,531.255675208,531.255675208,531.6172274169999,b,1.0,0.3544642500000918,,,,,,sub-117,1,stroop_test,122.2400488960201,
,,,,88.0,4.0,7.0,,,,,,,,,,,,,blau,yellow,g,0.0,g,1.0,0.7535296249998282,,,,,,,,,,7.0,4.0,88.0,7.0,531.6317219580001,,,,,,,,,,,,,,,,,531.618213625,531.9651183750002,532.7744642500002,532.7588658750001,,,,,,,,,,,,,,,,,,,,,,,,,,,,,,,,,,,532.7649065830001,532.7744642500002,532.7744642500002,533.5349312500002,g,1.0,0.7535296249998282,,,,,,sub-117,1,stroop_test,122.2400488960201,
,,,,89.0,5.0,7.0,,,,,,,,,,,,,blau,red,r,0.0,r,1.0,0.7402304160000313,,,,,,,,,,7.0,5.0,89.0,4.0,533.54823025,,,,,,,,,,,,,,,,,533.535645167,534.3353325419998,535.1345340419998,535.1256511249999,,,,,,,,,,,,,,,,,,,,,,,,,,,,,,,,,,,535.1263799170001,535.1345340419998,535.1345340419998,535.8785504580001,r,1.0,0.7402304160000313,,,,,,sub-117,1,stroop_test,122.2400488960201,
,,,,90.0,6.0,7.0,,,,,,,,,,,,,blau,blue,b,1.0,b,1.0,0.8081314580003891,,,,,,,,,,7.0,6.0,90.0,5.0,535.893400375,,,,,,,,,,,,,,,,,535.8795203750001,537.0933539580001,537.9090340419998,537.8928685830001,,,,,,,,,,,,,,,,,,,,,,,,,,,,,,,,,,,537.8937810000002,537.9090340419998,537.9090340419998,538.7284657499999,b,1.0,0.8081314580003891,,,,,,sub-117,1,stroop_test,122.2400488960201,
,,,,91.0,7.0,7.0,,,,,,,,,,,,,rot,red,r,1.0,r,1.0,0.5872779579999587,,,,,,,,,,7.0,7.0,91.0,1.0,538.742710083,,,,,,,,,,,,,,,,,538.7294538750002,538.8341829169999,539.6414558750002,539.6251872920002,,,,,,,,,,,,,,,,,,,,,,,,,,,,,,,,,,,539.6309594580002,539.6414558750002,539.6414558750002,540.235201125,r,1.0,0.5872779579999587,,,,,,sub-117,1,stroop_test,122.2400488960201,
,,,,92.0,8.0,7.0,,,,,,,,,,,,,gelb,blue,b,0.0,b,1.0,0.9571199580000213,,,,,,,,,,7.0,8.0,92.0,9.0,540.2488681670002,,,,,,,,,,,,,,,,,540.236195125,541.0326333749999,541.8382163750002,541.8168715000002,,,,,,,,,,,,,,,,,,,,,,,,,,,,,,,,,,,541.8264840420002,541.8382163750002,541.8382163750002,542.8007965830002,b,1.0,0.9571199580000213,,,,,,sub-117,1,stroop_test,122.2400488960201,
,,,,93.0,9.0,7.0,,,,,,,,,,,,,gelb,red,r,0.0,r,1.0,0.6121194160000414,,,,,,,,,,7.0,9.0,93.0,8.0,542.8147185829998,,,,,,,,,,,,,,,,,542.8015166250002,543.149330917,543.9535959999998,543.9431169170002,,,,,,,,,,,,,,,,,,,,,,,,,,,,,,,,,,,543.9441025000001,543.9535959999998,543.9535959999998,544.5684689579998,r,1.0,0.6121194160000414,,,,,,sub-117,1,stroop_test,122.2400488960201,
,,,,94.0,10.0,7.0,,,,,,,,,,,,,rot,red,r,1.0,r,1.0,0.5007724580000286,,,,,,,,,,7.0,10.0,94.0,0.0,544.5816974580002,,,,,,,,,,,,,,,,,544.5693175000001,544.9149401250002,545.7136565830001,545.6988044170002,,,,,,,,,,,,,,,,,,,,,,,,,,,,,,,,,,,545.704255917,545.7136565830001,545.7136565830001,546.2192010419999,r,1.0,0.5007724580000286,,,,,,sub-117,1,stroop_test,122.2400488960201,
,,,,95.0,11.0,7.0,,,,,,,,,,,,,gelb,yellow,g,1.0,g,1.0,0.4884678749999693,,,,,,,,,,7.0,11.0,95.0,11.0,546.232854458,,,,,,,,,,,,,,,,,546.2202130000001,546.5657527920002,547.364995333,547.3495659169998,,,,,,,,,,,,,,,,,,,,,,,,,,,,,,,,,,,547.3554541670001,547.364995333,547.364995333,547.8596675829999,g,1.0,0.4884678749999693,,,,,,sub-117,1,stroop_test,122.2400488960201,
,,,,96.0,0.0,8.0,,,,,,,,,,,,,rot,red,r,1.0,r,1.0,0.5281237499998497,,,,,,,,,,8.0,0.0,96.0,1.0,547.8727015,,,,,,,,,,,,,,,,,547.8605401250002,547.9583191669999,548.757846125,548.742344792,,,,,,,,,,,,,,,,,,,,,,,,,,,,,,,,,,,548.7482034170002,548.757846125,548.757846125,549.2937004579999,r,1.0,0.5281237499998497,,,,,,sub-117,1,stroop_test,122.2400488960201,
,,,,97.0,1.0,8.0,,,,,,,,,,,,,rot,blue,b,0.0,g,0.0,0.6337620409999545,,,,,,,,,,8.0,1.0,97.0,2.0,549.307640042,,,,,,,,,,,,,,,,,549.2947602499999,549.391976208,550.1908027079999,550.1818331250001,,,,,,,,,,,,,,,,,,,,,,,,,,,,,,,,,,,550.182529958,550.1908027079999,550.1908027079999,550.8273469579999,g,0.0,0.6337620409999545,,,,,,sub-117,1,stroop_test,122.2400488960201,
,,,,98.0,2.0,8.0,,,,,,,,,,,,,gelb,blue,b,0.0,b,1.0,1.157430917000056,,,,,,,,,,8.0,2.0,98.0,9.0,550.8404531669999,,,,,,,,,,,,,,,,,550.8282009170002,551.1750314999999,551.974167375,551.958902583,,,,,,,,,,,,,,,,,,,,,,,,,,,,,,,,,,,551.9644508750002,551.974167375,551.974167375,553.1354241250001,b,1.0,1.157430917000056,,,,,,sub-117,1,stroop_test,122.2400488960201,
,,,,99.0,3.0,8.0,,,,,,,,,,,,,gelb,red,r,0.0,r,1.0,1.0524357500003134,,,,,,,,,,8.0,3.0,99.0,8.0,553.1489861670002,,,,,,,,,,,,,,,,,553.1364142500001,553.2324879170001,554.0284650829999,554.0171680829999,,,,,,,,,,,,,,,,,,,,,,,,,,,,,,,,,,,554.018120792,554.0284650829999,554.0284650829999,555.084497625,r,1.0,1.0524357500003134,,,,,,sub-117,1,stroop_test,122.2400488960201,
,,,,100.0,4.0,8.0,,,,,,,,,,,,,blau,blue,b,1.0,b,1.0,0.5189806250000402,,,,,,,,,,8.0,4.0,100.0,6.0,555.0974785829999,,,,,,,,,,,,,,,,,555.0855228750002,555.885315042,556.6891852919998,556.675801375,,,,,,,,,,,,,,,,,,,,,,,,,,,,,,,,,,,556.6804661249998,556.6891852919998,556.6891852919998,557.2118434580002,b,1.0,0.5189806250000402,,,,,,sub-117,1,stroop_test,122.2400488960201,
,,,,101.0,5.0,8.0,,,,,,,,,,,,,blau,blue,b,1.0,b,1.0,0.5776067920000969,,,,,,,,,,8.0,5.0,101.0,5.0,557.2266731250002,,,,,,,,,,,,,,,,,557.2127009169999,557.5583919999999,558.350638458,558.3423644580002,,,,,,,,,,,,,,,,,,,,,,,,,,,,,,,,,,,558.3429985419998,558.350638458,558.350638458,558.9439319580001,b,1.0,0.5776067920000969,,,,,,sub-117,1,stroop_test,122.2400488960201,
,,,,102.0,6.0,8.0,,,,,,,,,,,,,gelb,yellow,g,1.0,g,1.0,0.4906763330000103,,,,,,,,,,8.0,6.0,102.0,11.0,558.9569061669999,,,,,,,,,,,,,,,,,558.9447392920001,559.2916637500002,560.0923754579999,560.0752486669999,,,,,,,,,,,,,,,,,,,,,,,,,,,,,,,,,,,560.0829040419999,560.0923754579999,560.0923754579999,560.5867739579999,g,1.0,0.4906763330000103,,,,,,sub-117,1,stroop_test,122.2400488960201,
,,,,103.0,7.0,8.0,,,,,,,,,,,,,blau,yellow,g,0.0,g,1.0,0.8317532920000303,,,,,,,,,,8.0,7.0,103.0,7.0,560.600608708,,,,,,,,,,,,,,,,,560.5877796670002,561.7851344999999,562.5885305830002,562.5750295419998,,,,,,,,,,,,,,,,,,,,,,,,,,,,,,,,,,,562.5797179169999,562.5885305830002,562.5885305830002,563.4269315830002,g,1.0,0.8317532920000303,,,,,,sub-117,1,stroop_test,122.2400488960201,
,,,,104.0,8.0,8.0,,,,,,,,,,,,,blau,red,r,0.0,r,1.0,0.6469590000001517,,,,,,,,,,8.0,8.0,104.0,4.0,563.4404475830002,,,,,,,,,,,,,,,,,563.4278331250002,563.7744332080001,564.568379583,564.5596178330002,,,,,,,,,,,,,,,,,,,,,,,,,,,,,,,,,,,564.5603151250002,564.568379583,564.568379583,565.2266285420001,r,1.0,0.6469590000001517,,,,,,sub-117,1,stroop_test,122.2400488960201,
,,,,105.0,9.0,8.0,,,,,,,,,,,,,rot,yellow,g,0.0,g,1.0,1.065697292000095,,,,,,,,,,8.0,9.0,105.0,3.0,565.2398079999998,,,,,,,,,,,,,,,,,565.2275271670001,565.324809667,566.12816475,566.1134032499999,,,,,,,,,,,,,,,,,,,,,,,,,,,,,,,,,,,566.1175751669998,566.12816475,566.12816475,567.200336458,g,1.0,1.065697292000095,,,,,,sub-117,1,stroop_test,122.2400488960201,
,,,,106.0,10.0,8.0,,,,,,,,,,,,,rot,red,r,1.0,r,1.0,0.6933893750001516,,,,,,,,,,8.0,10.0,106.0,0.0,567.2141221669999,,,,,,,,,,,,,,,,,567.2010957500001,567.2983665830002,568.0944907500002,568.0842900000002,,,,,,,,,,,,,,,,,,,,,,,,,,,,,,,,,,,568.0849625420001,568.0944907500002,568.0944907500002,568.7953779170002,r,1.0,0.6933893750001516,,,,,,sub-117,1,stroop_test,122.2400488960201,
,,,,107.0,11.0,8.0,,,,,,,,,,,,,gelb,yellow,g,1.0,g,1.0,0.6192834170001333,,,,,,,,,,8.0,11.0,107.0,10.0,568.8098100830002,,,,,,,,,,,,,,,,,568.7964138749999,569.5849025829998,570.3889635830001,570.3757422919998,,,,,,,,,,,,,,,,,,,,,,,,,,,,,,,,,,,570.3802994170001,570.3889635830001,570.3889635830001,571.013356333,g,1.0,0.6192834170001333,,,,,,sub-117,1,stroop_test,122.2400488960201,
,,,,108.0,0.0,9.0,,,,,,,,,,,,,rot,yellow,g,0.0,g,1.0,0.4444052499998179,,,,,,,,,,9.0,0.0,108.0,3.0,571.0274970830001,,,,,,,,,,,,,,,,,571.014257542,571.8026155000002,572.6055033749999,572.5929541250002,,,,,,,,,,,,,,,,,,,,,,,,,,,,,,,,,,,572.5970138329999,572.6055033749999,572.6055033749999,573.059832208,g,1.0,0.4444052499998179,,,,,,sub-117,1,stroop_test,122.2400488960201,
,,,,109.0,1.0,9.0,,,,,,,,,,,,,gelb,blue,b,0.0,b,1.0,0.5992618750001384,,,,,,,,,,9.0,1.0,109.0,9.0,573.0731145,,,,,,,,,,,,,,,,,573.0607279999999,573.407323375,574.2097278750002,574.1940469169999,,,,,,,,,,,,,,,,,,,,,,,,,,,,,,,,,,,574.1999583329998,574.2097278750002,574.2097278750002,574.8251100830003,b,1.0,0.5992618750001384,,,,,,sub-117,1,stroop_test,122.2400488960201,
,,,,110.0,2.0,9.0,,,,,,,,,,,,,blau,yellow,g,0.0,g,1.0,0.5887370410000585,,,,,,,,,,9.0,2.0,110.0,7.0,574.8315164579999,,,,,,,,,,,,,,,,,574.8256741670002,576.01844575,576.827262583,576.8116266249999,,,,,,,,,,,,,,,,,,,,,,,,,,,,,,,,,,,576.8171001250003,576.827262583,576.827262583,577.4277151669999,g,1.0,0.5887370410000585,,,,,,sub-117,1,stroop_test,122.2400488960201,
,,,,111.0,3.0,9.0,,,,,,,,,,,,,gelb,red,r,0.0,r,1.0,0.6223023329998796,,,,,,,,,,9.0,3.0,111.0,8.0,577.4421051670001,,,,,,,,,,,,,,,,,577.4287631669999,578.22013625,579.0231051669998,579.0084771249999,,,,,,,,,,,,,,,,,,,,,,,,,,,,,,,,,,,579.014390417,579.0231051669998,579.0231051669998,579.653390042,r,1.0,0.6223023329998796,,,,,,sub-117,1,stroop_test,122.2400488960201,
,,,,112.0,4.0,9.0,,,,,,,,,,,,,blau,blue,b,1.0,b,1.0,0.5828105410000717,,,,,,,,,,9.0,4.0,112.0,5.0,579.66708875,,,,,,,,,,,,,,,,,579.6543999579999,580.8502539579999,581.6582616669998,581.6424765830002,,,,,,,,,,,,,,,,,,,,,,,,,,,,,,,,,,,581.6484651669998,581.6582616669998,581.6582616669998,582.243911042,b,1.0,0.5828105410000717,,,,,,sub-117,1,stroop_test,122.2400488960201,
,,,,113.0,5.0,9.0,,,,,,,,,,,,,blau,red,r,0.0,r,1.0,2.560584791999645,,,,,,,,,,9.0,5.0,113.0,4.0,582.2570759999999,,,,,,,,,,,,,,,,,582.2448254999999,582.3417106669999,583.14409475,583.1302542080002,,,,,,,,,,,,,,,,,,,,,,,,,,,,,,,,,,,583.1311235829999,583.14409475,583.14409475,585.7132779580002,r,1.0,2.560584791999645,,,,,,sub-117,1,stroop_test,122.2400488960201,
,,,,114.0,6.0,9.0,,,,,,,,,,,,,rot,red,r,1.0,r,1.0,0.5263327920001757,,,,,,,,,,9.0,6.0,114.0,0.0,585.7276335830002,,,,,,,,,,,,,,,,,585.7143201670001,585.8087207500002,586.608947792,586.593273,,,,,,,,,,,,,,,,,,,,,,,,,,,,,,,,,,,586.5991470829999,586.608947792,586.608947792,587.146292208,r,1.0,0.5263327920001757,,,,,,sub-117,1,stroop_test,122.2400488960201,
,,,,115.0,7.0,9.0,,,,,,,,,,,,,rot,blue,b,0.0,b,1.0,0.7663397080000323,,,,,,,,,,9.0,7.0,115.0,2.0,587.1594392080001,,,,,,,,,,,,,,,,,587.1469230000002,587.240743375,588.0343534170001,588.0256622500001,,,,,,,,,,,,,,,,,,,,,,,,,,,,,,,,,,,588.0263559169998,588.0343534170001,588.0343534170001,588.8121000830001,b,1.0,0.7663397080000323,,,,,,sub-117,1,stroop_test,122.2400488960201,
,,,,116.0,8.0,9.0,,,,,,,,,,,,,rot,red,r,1.0,r,1.0,0.495002334000219,,,,,,,,,,9.0,8.0,116.0,1.0,588.8262799170002,,,,,,,,,,,,,,,,,588.8129732080001,588.9077892079999,589.7025801250002,589.6938020000002,,,,,,,,,,,,,,,,,,,,,,,,,,,,,,,,,,,589.6945182079999,589.7025801250002,589.7025801250002,590.2015379170002,r,1.0,0.495002334000219,,,,,,sub-117,1,stroop_test,122.2400488960201,
,,,,117.0,9.0,9.0,,,,,,,,,,,,,blau,blue,b,1.0,b,1.0,0.5727256670002134,,,,,,,,,,9.0,9.0,117.0,6.0,590.2145124580002,,,,,,,,,,,,,,,,,590.2025463330001,591.0023792080001,591.8055327500001,591.7923455,,,,,,,,,,,,,,,,,,,,,,,,,,,,,,,,,,,591.796935375,591.8055327500001,591.8055327500001,592.3861723750001,b,1.0,0.5727256670002134,,,,,,sub-117,1,stroop_test,122.2400488960201,
,,,,118.0,10.0,9.0,,,,,,,,,,,,,gelb,yellow,g,1.0,g,1.0,0.5529350000001614,,,,,,,,,,9.0,10.0,118.0,11.0,592.3997468749999,,,,,,,,,,,,,,,,,592.3872087079999,593.182642792,593.9886337920002,593.975762042,,,,,,,,,,,,,,,,,,,,,,,,,,,,,,,,,,,593.9803202500002,593.9886337920002,593.9886337920002,594.5455077920001,g,1.0,0.5529350000001614,,,,,,sub-117,1,stroop_test,122.2400488960201,
,,,,119.0,11.0,9.0,,,,,,,,,,,,,gelb,yellow,g,1.0,g,1.0,0.523141250000208,,,,,,,,,,9.0,11.0,119.0,10.0,594.5592755420003,,,,,,,,,,,,,,,,,594.546522958,595.3357650419998,596.1371622500001,596.1275610420003,,,,,,,,,,,,,,,,,,,,,,,,,,,,,,,,,,,596.1283588330002,596.1371622500001,596.1371622500001,596.677738417,g,1.0,0.523141250000208,,,,,,sub-117,1,stroop_test,122.2400488960201,
,,,,,,,,,,,,,,,,,,,,,,,,,,,,,,,,,,,,,,,,,,,,,,,,,,,,,,,,,,,,,,,,,,,,,,,,,,,,,,,,,,,,,,,,,,,,,,,,,,,,,,596.678013833,596.6916242080001,601.6810202920001,601.6758513330001,sub-117,1,stroop_test,122.2400488960201,
