wordCTK,colorCTK,corrAnsCTK,congruentCTK,thisN,thisTrialN,thisRepN,keyResp_CTK.keys,keyResp_CTK.corr,keyResp_CTK.rt,keyResp_CTK.duration,wordPractice,colorPractice,corrAnsPractice,congruentPractice,respPractice.keys,respPractice.corr,respPractice.rt,respPractice.duration,word,color,corrAns,congruent,keyResp_test_run.keys,keyResp_test_run.corr,keyResp_test_run.rt,keyResp_test_run.duration,trials_CTK.thisRepN,trials_CTK.thisTrialN,trials_CTK.thisN,trials_CTK.thisIndex,trials_practice.thisRepN,trials_practice.thisTrialN,trials_practice.thisN,trials_practice.thisIndex,trials_test.thisRepN,trials_test.thisTrialN,trials_test.thisN,trials_test.thisIndex,thisRow.t,notes,instruction.started,instr_text.started,instr_image.started,instr_resp.started,instruction.stopped,instr_resp.keys,instr_resp.rt,instr_resp.duration,instr_color_to_key.started,instr_ctk.started,resp_ctk.started,instr_color_to_key.stopped,resp_ctk.keys,resp_ctk.rt,resp_ctk.duration,ITI.started,fixcross.started,fixcross.stopped,ITI.stopped,color_to_key_run.started,stimulus_CTK.started,keyResp_CTK.started,color_to_key_run.stopped,trials_CTK.keyResp_CTK.keys,trials_CTK.keyResp_CTK.corr,trials_CTK.keyResp_CTK.rt,trials_CTK.keyResp_CTK.duration,instr_practice.started,instr_practice_text.started,instr_practice_resp.started,instr_practice.stopped,instr_practice_resp.keys,instr_practice_resp.rt,instr_practice_resp.duration,practice_run.started,stimulus_practice.started,respPractice.started,practice_run.stopped,trials_practice.respPractice.keys,trials_practice.respPractice.corr,trials_practice.respPractice.rt,trials_practice.respPractice.duration,feedback.started,textFeedback.started,feedback.stopped,textFeedback.stopped,instr_test.started,instr_test_text.started,instr_test_resp.started,instr_test.stopped,instr_test_resp.keys,instr_test_resp.rt,instr_test_resp.duration,test_run.started,stimulus_test_run.started,keyResp_test_run.started,test_run.stopped,trials_test.keyResp_test_run.keys,trials_test.keyResp_test_run.corr,trials_test.keyResp_test_run.rt,trials_test.keyResp_test_run.duration,goodbye.started,textGoodbye.started,textGoodbye.stopped,goodbye.stopped,participant,session,expName,frameRate,Unnamed: 113
,,,,,,,,,,,,,,,,,,,,,,,,,,,,,,,,,,,,,,,,,0.0042190998792648,0.0200477000325918,0.0200477000325918,0.0200477000325918,84.19409370003268,space,84.09669559984468,,,,,,,,,,,,,,,,,,,,,,,,,,,,,,,,,,,,,,,,,,,,,,,,,,,,,,,,,,,sub-015,1,stroop_test,119.84429832977102,
,,,,,,,,,,,,,,,,,,,,,,,,,,,,,,,,,,,,,,,,,,,,,,,,,84.19414349994622,84.19745899992995,84.19745899992995,95.1990330000408,space,10.99932729988359,,,,,,,,,,,,,,,,,,,,,,,,,,,,,,,,,,,,,,,,,,,,,,,,,,,,sub-015,1,stroop_test,119.84429832977102,
test,yellow,g,1.0,0.0,0.0,0.0,g,1.0,4.076336900005117,,,,,,,,,,,,,,,,,,0.0,0.0,0.0,1.0,,,,,,,,,95.23239260003902,,,,,,,,,,,,,,,,,95.22794099990278,95.5467641998548,96.34952119993976,96.3312764998991,96.3451951998286,96.34952119993976,96.34952119993976,100.43233669991604,g,1.0,4.076336900005117,,,,,,,,,,,,,,,,,,,,,,,,,,,,,,,,,,,,,,,,sub-015,1,stroop_test,119.84429832977102,
test,red,r,1.0,1.0,1.0,0.0,r,1.0,1.0042793999891728,,,,,,,,,,,,,,,,,,0.0,1.0,1.0,0.0,,,,,,,,,100.43837610003538,,,,,,,,,,,,,,,,,100.43279799981974,101.23004559986292,102.02177109988406,102.01450539985672,102.01516279997304,102.02177109988406,102.02177109988406,103.0326364999637,r,1.0,1.0042793999891728,,,,,,,,,,,,,,,,,,,,,,,,,,,,,,,,,,,,,,,,sub-015,1,stroop_test,119.84429832977102,
test,blue,b,1.0,2.0,2.0,0.0,b,1.0,0.4833873999305069,,,,,,,,,,,,,,,,,,0.0,2.0,2.0,2.0,,,,,,,,,103.038464799989,,,,,,,,,,,,,,,,,103.0331054998096,103.130089599872,103.92174849985167,103.91437299991958,103.91506149992348,103.92174849985167,103.92174849985167,104.40739139984362,b,1.0,0.4833873999305069,,,,,,,,,,,,,,,,,,,,,,,,,,,,,,,,,,,,,,,,sub-015,1,stroop_test,119.84429832977102,
test,blue,b,1.0,3.0,0.0,1.0,b,1.0,1.0170952000189573,,,,,,,,,,,,,,,,,,1.0,0.0,3.0,2.0,,,,,,,,,104.41350819985382,,,,,,,,,,,,,,,,,104.40786259993912,104.75480849994346,105.54647309985012,105.53956579999068,105.5402106998954,105.54647309985012,105.54647309985012,106.56600610003808,b,1.0,1.0170952000189573,,,,,,,,,,,,,,,,,,,,,,,,,,,,,,,,,,,,,,,,sub-015,1,stroop_test,119.84429832977102,
test,yellow,g,1.0,4.0,1.0,1.0,g,1.0,1.7335328001063317,,,,,,,,,,,,,,,,,,1.0,1.0,4.0,1.0,,,,,,,,,106.57194499997422,,,,,,,,,,,,,,,,,106.5664760998916,106.66343129985034,107.455127999885,107.44778259983286,107.44851749995723,107.455127999885,107.455127999885,109.19119809987023,g,1.0,1.7335328001063317,,,,,,,,,,,,,,,,,,,,,,,,,,,,,,,,,,,,,,,,sub-015,1,stroop_test,119.84429832977102,
test,red,r,1.0,5.0,2.0,1.0,r,1.0,0.4316426999866962,,,,,,,,,,,,,,,,,,1.0,2.0,5.0,0.0,,,,,,,,,109.19672749983148,,,,,,,,,,,,,,,,,109.19170089997353,109.28845849982464,110.08012609998696,110.0728748999536,110.07352459989488,110.08012609998696,110.08012609998696,110.51551509997807,r,1.0,0.4316426999866962,,,,,,,,,,,,,,,,,,,,,,,,,,,,,,,,,,,,,,,,sub-015,1,stroop_test,119.84429832977102,
test,blue,b,1.0,6.0,0.0,2.0,b,1.0,0.6278899000026286,,,,,,,,,,,,,,,,,,2.0,0.0,6.0,2.0,,,,,,,,,110.52177809993736,,,,,,,,,,,,,,,,,110.51601639995351,111.71345729986206,112.50518519990146,112.49784249998628,112.49894679989666,112.50518519990146,112.50518519990146,113.14046689984389,b,1.0,0.6278899000026286,,,,,,,,,,,,,,,,,,,,,,,,,,,,,,,,,,,,,,,,sub-015,1,stroop_test,119.84429832977102,
test,red,r,1.0,7.0,1.0,2.0,r,1.0,1.349310600198805,,,,,,,,,,,,,,,,,,2.0,1.0,7.0,0.0,,,,,,,,,113.14685489982368,,,,,,,,,,,,,,,,,113.14094589999875,114.33829410001636,115.12995480000971,115.12279139994644,115.12340329983272,115.12995480000971,115.12995480000971,116.48223369987682,r,1.0,1.349310600198805,,,,,,,,,,,,,,,,,,,,,,,,,,,,,,,,,,,,,,,,sub-015,1,stroop_test,119.84429832977102,
test,yellow,g,1.0,8.0,2.0,2.0,g,1.0,0.7975895998533815,,,,,,,,,,,,,,,,,,2.0,2.0,8.0,1.0,,,,,,,,,116.48843119991945,,,,,,,,,,,,,,,,,116.4826986999251,116.83013199991548,117.6218155999668,117.61444019991904,117.6151437999215,117.6218155999668,117.6218155999668,118.4239540998824,g,1.0,0.7975895998533815,,,,,,,,,,,,,,,,,,,,,,,,,,,,,,,,,,,,,,,,sub-015,1,stroop_test,119.84429832977102,
test,blue,b,1.0,9.0,0.0,3.0,b,1.0,0.419539799913764,,,,,,,,,,,,,,,,,,3.0,0.0,9.0,2.0,,,,,,,,,118.4301130999811,,,,,,,,,,,,,,,,,118.42448539985344,119.6215448998846,120.41328829992564,120.40636389981955,120.40702749998307,120.41328829992564,120.41328829992564,120.84038099995814,b,1.0,0.419539799913764,,,,,,,,,,,,,,,,,,,,,,,,,,,,,,,,,,,,,,,,sub-015,1,stroop_test,119.84429832977102,
test,red,r,1.0,10.0,1.0,3.0,r,1.0,0.7880096000153571,,,,,,,,,,,,,,,,,,3.0,1.0,10.0,0.0,,,,,,,,,120.8467257998418,,,,,,,,,,,,,,,,,120.8408490999136,121.18850369984284,121.98005509981886,121.97273919987492,121.97335089999252,121.98005509981886,121.98005509981886,122.77373340004124,r,1.0,0.7880096000153571,,,,,,,,,,,,,,,,,,,,,,,,,,,,,,,,,,,,,,,,sub-015,1,stroop_test,119.84429832977102,
test,yellow,g,1.0,11.0,2.0,3.0,g,1.0,0.2961001000367105,,,,,,,,,,,,,,,,,,3.0,2.0,11.0,1.0,,,,,,,,,122.78001059987582,,,,,,,,,,,,,,,,,122.7742922999896,123.97177169984208,124.76333089987747,124.75604769983327,124.75674379989503,124.76333089987747,124.76333089987747,125.06526179984212,g,1.0,0.2961001000367105,,,,,,,,,,,,,,,,,,,,,,,,,,,,,,,,,,,,,,,,sub-015,1,stroop_test,119.84429832977102,
,,,,,,,,,,,,,,,,,,,,,,,,,,,,,,,,,,,,,,,,,,,,,,,,,,,,,,,,,,,,,,,,,,,,125.0655147000216,125.07165669999084,125.07165669999084,133.29859799984845,space,8.219677400076762,,,,,,,,,,,,,,,,,,,,,,,,,,,,,,,,,sub-015,1,stroop_test,119.84429832977102,
,,,,0.0,0.0,0.0,,,,,gelb,red,r,0.0,r,1.0,1.4213254998903722,,,,,,,,,,,,,,0.0,0.0,0.0,8.0,,,,,133.31401339988224,,,,,,,,,,,,,,,,,133.3114044999238,134.49649979989044,135.29843029985204,135.28118909988552,,,,,,,,,,,,,,,,135.29283429984935,135.29843029985204,135.29843029985204,136.72382559999824,r,1.0,1.4213254998903722,,136.73712229984812,136.7420621998608,137.73029859992675,,,,,,,,,,,,,,,,,,,,,sub-015,1,stroop_test,119.84429832977102,
,,,,1.0,1.0,0.0,,,,,rot,red,r,1.0,r,1.0,0.6544955000281334,,,,,,,,,,,,,,0.0,1.0,1.0,1.0,,,,,137.73831989988685,,,,,,,,,,,,,,,,,137.73082749987952,138.92127769999206,139.7203114000149,139.70569059997797,,,,,,,,,,,,,,,,139.71436079987325,139.7203114000149,139.7203114000149,140.3819424000103,r,1.0,0.6544955000281334,,140.38264049985446,140.3884119000286,141.37295340001583,141.3798753998708,,,,,,,,,,,,,,,,,,,,sub-015,1,stroop_test,119.84429832977102,
,,,,2.0,2.0,0.0,,,,,rot,yellow,g,0.0,g,1.0,1.103641000110656,,,,,,,,,,,,,,0.0,2.0,2.0,3.0,,,,,141.3798753998708,,,,,,,,,,,,,,,,,141.37339990003966,142.58004449983127,143.37166519998573,143.3645605999045,,,,,,,,,,,,,,,,143.36540260002948,143.37166519998573,143.37166519998573,144.48184100002982,g,1.0,1.103641000110656,,144.48255389998667,144.48852330003865,145.4728137999773,145.4800539999269,,,,,,,,,,,,,,,,,,,,sub-015,1,stroop_test,119.84429832977102,
,,,,3.0,3.0,0.0,,,,,gelb,yellow,g,1.0,g,1.0,0.7317303998861462,,,,,,,,,,,,,,0.0,3.0,3.0,11.0,,,,,145.4800539999269,,,,,,,,,,,,,,,,,145.47323639993556,146.67981119989415,147.47434319998138,147.46421259990893,,,,,,,,,,,,,,,,147.4690223999787,147.47434319998138,147.47434319998138,148.21528250002302,g,1.0,0.7317303998861462,,148.21599729987793,148.22159869992174,149.20621279999614,149.2134131998755,,,,,,,,,,,,,,,,,,,,sub-015,1,stroop_test,119.84429832977102,
,,,,4.0,4.0,0.0,,,,,gelb,yellow,g,1.0,g,1.0,0.4114428998436779,,,,,,,,,,,,,,0.0,4.0,4.0,10.0,,,,,149.2134131998755,,,,,,,,,,,,,,,,,149.20673259999603,150.0131663000211,150.80499439989217,150.7976875999011,,,,,,,,,,,,,,,,150.79837309988216,150.80499439989217,150.80499439989217,151.22370039997622,g,1.0,0.4114428998436779,,151.22442909982055,151.2305985998828,152.21438739984296,152.2215084999334,,,,,,,,,,,,,,,,,,,,sub-015,1,stroop_test,119.84429832977102,
,,,,5.0,5.0,0.0,,,,,rot,blue,b,0.0,b,1.0,0.6226790999062359,,,,,,,,,,,,,,0.0,5.0,5.0,2.0,,,,,152.2215084999334,,,,,,,,,,,,,,,,,152.21491739992052,153.02145259990357,153.81733669992536,153.80588829983026,,,,,,,,,,,,,,,,153.81124109984376,153.81733669992536,153.81733669992536,154.4488933000248,b,1.0,0.6226790999062359,,154.4495687999297,154.45489389984868,155.43951840000227,155.44656279985793,,,,,,,,,,,,,,,,,,,,sub-015,1,stroop_test,119.84429832977102,
,,,,6.0,6.0,0.0,,,,,blau,red,r,0.0,r,1.0,0.5515078001189977,,,,,,,,,,,,,,0.0,6.0,6.0,4.0,,,,,155.44656279985793,,,,,,,,,,,,,,,,,155.43996809981763,156.24655199982226,157.04893169994466,157.0310323999729,,,,,,,,,,,,,,,,157.04303870000876,157.04893169994466,157.04893169994466,157.60718019981869,r,1.0,0.5515078001189977,,157.6079335999675,157.61377159995027,158.59742949996144,158.6049175998196,,,,,,,,,,,,,,,,,,,,sub-015,1,stroop_test,119.84429832977102,
,,,,7.0,7.0,0.0,,,,,blau,blue,b,1.0,b,1.0,0.4391324000898748,,,,,,,,,,,,,,0.0,7.0,7.0,5.0,,,,,158.6049175998196,,,,,,,,,,,,,,,,,158.5978698998224,159.80477249994874,160.59669279982336,160.58915479993448,,,,,,,,,,,,,,,,160.58979759993963,160.59669279982336,160.59669279982336,161.04031059984118,b,1.0,0.4391324000898748,,161.04112059995532,161.04687669989653,162.03116749995388,162.0383413999807,,,,,,,,,,,,,,,,,,,,sub-015,1,stroop_test,119.84429832977102,
,,,,8.0,8.0,0.0,,,,,blau,yellow,g,0.0,b,0.0,0.7534439999144524,,,,,,,,,,,,,,0.0,8.0,8.0,7.0,,,,,162.0383413999807,,,,,,,,,,,,,,,,,162.03160579991527,162.13826289982535,162.92988299997523,162.9227729998529,,,,,,,,,,,,,,,,162.92345019988716,162.92988299997523,162.92988299997523,163.69039749982767,b,0.0,0.7534439999144524,,163.6984965999145,163.70460349996574,164.68942760000937,164.69658500002697,,,,,,,,,,,,,,,,,,,,sub-015,1,stroop_test,119.84429832977102,
,,,,9.0,9.0,0.0,,,,,gelb,blue,b,0.0,b,1.0,0.5284072998911142,,,,,,,,,,,,,,0.0,9.0,9.0,9.0,,,,,164.69658500002697,,,,,,,,,,,,,,,,,164.68988289986737,164.7881897999905,165.5830578999594,165.5728427998256,,,,,,,,,,,,,,,,165.5778224999085,165.5830578999594,165.5830578999594,166.1152089999523,b,1.0,0.5284072998911142,,166.1212336998433,166.12827509990893,167.11439240002073,167.12157229986042,,,,,,,,,,,,,,,,,,,,sub-015,1,stroop_test,119.84429832977102,
,,,,10.0,10.0,0.0,,,,,rot,red,r,1.0,r,1.0,1.068795399973169,,,,,,,,,,,,,,0.0,10.0,10.0,0.0,,,,,167.12157229986042,,,,,,,,,,,,,,,,,167.11487769987434,167.9132073998917,168.70852659991942,168.69757559988648,,,,,,,,,,,,,,,,168.7027368999552,168.70852659991942,168.70852659991942,169.78171469992958,r,1.0,1.068795399973169,,169.78238249989226,169.78796039987355,170.7727041998878,170.7799958998803,,,,,,,,,,,,,,,,,,,,sub-015,1,stroop_test,119.84429832977102,
,,,,11.0,11.0,0.0,,,,,blau,blue,b,1.0,b,1.0,1.121445900062099,,,,,,,,,,,,,,0.0,11.0,11.0,6.0,,,,,170.7799958998803,,,,,,,,,,,,,,,,,170.7731561998371,171.57974349986762,172.37746039987542,172.36409839987755,,,,,,,,,,,,,,,,172.37090989993885,172.37746039987542,172.37746039987542,173.50690299994312,b,1.0,1.121445900062099,,173.50755700003356,173.5130689998623,174.49795469990931,174.504832000006,,,,,,,,,,,,,,,,,,,,sub-015,1,stroop_test,119.84429832977102,
,,,,12.0,0.0,1.0,,,,,blau,blue,b,1.0,b,1.0,0.5050178000237793,,,,,,,,,,,,,,1.0,0.0,12.0,6.0,,,,,174.504832000006,,,,,,,,,,,,,,,,,174.49859059997834,174.85492109996267,175.64665389992297,175.6393993999809,,,,,,,,,,,,,,,,175.64004449988715,175.64665389992297,175.64665389992297,176.15653569996357,b,1.0,0.5050178000237793,,176.15718979993835,176.1630510999821,177.14755719993263,177.15463789994828,,,,,,,,,,,,,,,,,,,,sub-015,1,stroop_test,119.84429832977102,
,,,,13.0,1.0,1.0,,,,,blau,blue,b,1.0,b,1.0,0.4414812000468373,,,,,,,,,,,,,,1.0,1.0,13.0,5.0,,,,,177.15463789994828,,,,,,,,,,,,,,,,,177.14809409994632,177.50476889987476,178.29651289992034,178.28923719981685,,,,,,,,,,,,,,,,178.28991749999113,178.29651289992034,178.29651289992034,178.74068419984542,b,1.0,0.4414812000468373,,178.74141349992715,178.7466579999309,179.73113179998472,179.73817739984952,,,,,,,,,,,,,,,,,,,,sub-015,1,stroop_test,119.84429832977102,
,,,,14.0,2.0,1.0,,,,,gelb,yellow,g,1.0,g,1.0,1.0813662000000477,,,,,,,,,,,,,,1.0,2.0,14.0,10.0,,,,,179.73817739984952,,,,,,,,,,,,,,,,,179.7315415998455,179.83776140003465,180.63329849997533,180.622733599972,,,,,,,,,,,,,,,,180.62808159994893,180.63329849997533,180.63329849997533,181.72365319984965,g,1.0,1.0813662000000477,,181.72440709988587,181.7297341998201,182.7147706998512,182.72140639997087,,,,,,,,,,,,,,,,,,,,sub-015,1,stroop_test,119.84429832977102,
,,,,15.0,3.0,1.0,,,,,rot,blue,b,0.0,b,1.0,1.3455332000739872,,,,,,,,,,,,,,1.0,3.0,15.0,2.0,,,,,182.72140639997087,,,,,,,,,,,,,,,,,182.7151836999692,183.5214831000194,184.31669569993392,184.3059159999248,,,,,,,,,,,,,,,,184.31090059992857,184.31669569993392,184.31669569993392,185.66520699998364,b,1.0,1.3455332000739872,,185.6659015999176,185.67129169986583,186.6562905998435,186.66306329984215,,,,,,,,,,,,,,,,,,,,sub-015,1,stroop_test,119.84429832977102,
,,,,16.0,4.0,1.0,,,,,gelb,red,r,0.0,r,1.0,0.7476639000233263,,,,,,,,,,,,,,1.0,4.0,16.0,8.0,,,,,186.66306329984215,,,,,,,,,,,,,,,,,186.65672069997527,187.0131010999903,187.8091123998165,187.7976585000288,,,,,,,,,,,,,,,,187.80356409982775,187.8091123998165,187.8091123998165,188.56502790004012,r,1.0,0.7476639000233263,,188.56572930002585,188.57149759982715,189.55587819986977,189.56312549998984,,,,,,,,,,,,,,,,,,,,sub-015,1,stroop_test,119.84429832977102,
,,,,17.0,5.0,1.0,,,,,rot,red,r,1.0,r,1.0,0.5000678000506014,,,,,,,,,,,,,,1.0,5.0,17.0,1.0,,,,,189.56312549998984,,,,,,,,,,,,,,,,,189.5564019999001,189.66310440003872,190.45914409984837,190.44759400002656,,,,,,,,,,,,,,,,190.45350639987737,190.45914409984837,190.45914409984837,190.9651806999464,r,1.0,0.5000678000506014,,190.96588449995036,190.97154099983163,191.9562794000376,191.9631619998254,,,,,,,,,,,,,,,,,,,,sub-015,1,stroop_test,119.84429832977102,
,,,,18.0,6.0,1.0,,,,,rot,red,r,1.0,r,1.0,0.4333937000483274,,,,,,,,,,,,,,1.0,6.0,18.0,0.0,,,,,191.9631619998254,,,,,,,,,,,,,,,,,191.9567261999473,192.3133007998113,193.1048180998769,193.0977047998458,,,,,,,,,,,,,,,,193.09838699991812,193.1048180998769,193.1048180998769,193.541002899874,r,1.0,0.4333937000483274,,193.54169769980945,193.5474057998508,194.5309641000349,194.53800429985856,,,,,,,,,,,,,,,,,,,,sub-015,1,stroop_test,119.84429832977102,
,,,,19.0,7.0,1.0,,,,,blau,yellow,g,0.0,g,1.0,1.3598420000635087,,,,,,,,,,,,,,1.0,7.0,19.0,7.0,,,,,194.53800429985856,,,,,,,,,,,,,,,,,194.5314519999083,195.73861639993265,196.52940869983289,196.5219788998365,,,,,,,,,,,,,,,,196.52565979980864,196.52940869983289,196.52940869983289,197.8984093000181,g,1.0,1.3598420000635087,,197.89917939994484,197.90456569986415,198.8892369999085,198.89627469982952,,,,,,,,,,,,,,,,,,,,sub-015,1,stroop_test,119.84429832977102,
,,,,20.0,8.0,1.0,,,,,gelb,blue,b,0.0,b,1.0,0.5209158000070602,,,,,,,,,,,,,,1.0,8.0,20.0,9.0,,,,,198.89627469982952,,,,,,,,,,,,,,,,,198.8896788000129,199.24644419993277,200.04190549999475,200.0306382998824,,,,,,,,,,,,,,,,200.0362472999841,200.04190549999475,200.04190549999475,200.5659008999355,b,1.0,0.5209158000070602,,200.5666558998637,200.5724096999038,201.55587559985,201.56285430002023,,,,,,,,,,,,,,,,,,,,sub-015,1,stroop_test,119.84429832977102,
,,,,21.0,9.0,1.0,,,,,blau,red,r,0.0,r,1.0,0.8881732998415828,,,,,,,,,,,,,,1.0,9.0,21.0,4.0,,,,,201.56285430002023,,,,,,,,,,,,,,,,,201.55630039982495,202.76300829998215,203.55791489989497,203.5473758999724,,,,,,,,,,,,,,,,203.5534470998682,203.55791489989497,203.55791489989497,204.44921349990184,r,1.0,0.8881732998415828,,204.4499738998711,204.4555641999468,205.44773529982197,205.4546903998125,,,,,,,,,,,,,,,,,,,,sub-015,1,stroop_test,119.84429832977102,
,,,,22.0,10.0,1.0,,,,,gelb,yellow,g,1.0,g,1.0,1.3552524000406263,,,,,,,,,,,,,,1.0,10.0,22.0,11.0,,,,,205.4546903998125,,,,,,,,,,,,,,,,,205.44820049987172,206.24647079990245,207.04229799984023,207.0307901999913,,,,,,,,,,,,,,,,207.0375743999612,207.04229799984023,207.04229799984023,208.4066687999293,g,1.0,1.3552524000406263,,208.4073647998739,208.412954099942,209.3972149998881,209.4047278999351,,,,,,,,,,,,,,,,,,,,sub-015,1,stroop_test,119.84429832977102,
,,,,23.0,11.0,1.0,,,,,rot,yellow,g,0.0,g,1.0,0.6691682001110166,,,,,,,,,,,,,,1.0,11.0,23.0,3.0,,,,,209.4047278999351,,,,,,,,,,,,,,,,,209.3976945998147,209.7548130999785,210.55011349986307,210.5390893998556,,,,,,,,,,,,,,,,210.54434919985945,210.55011349986307,210.55011349986307,211.2234551999718,g,1.0,0.6691682001110166,,211.2242066999897,211.2302389999386,212.2142783999443,212.22143229981884,,,,,,,,,,,,,,,,,,,,sub-015,1,stroop_test,119.84429832977102,
,,,,,,,,,,,,,,,,,,,,,,,,,,,,,,,,,,,,,,,,,,,,,,,,,,,,,,,,,,,,,,,,,,,,,,,,,,,,,,,,,,,,,,,212.21445439988747,212.22143229981884,212.22143229981884,226.4566422998905,space,14.226303200004622,,,,,,,,,,,,,,sub-015,1,stroop_test,119.84429832977102,
,,,,0.0,0.0,0.0,,,,,,,,,,,,,rot,yellow,g,0.0,g,1.0,0.6475436999462545,,,,,,,,,,0.0,0.0,0.0,3.0,226.4737495998852,,,,,,,,,,,,,,,,,226.47104820003733,226.80466230004092,227.60014919983223,227.5891474999953,,,,,,,,,,,,,,,,,,,,,,,,,,,,,,,,,,,227.594840799924,227.60014919983223,227.60014919983223,228.25661019980907,g,1.0,0.6475436999462545,,,,,,sub-015,1,stroop_test,119.84429832977102,
,,,,1.0,1.0,0.0,,,,,,,,,,,,,blau,yellow,g,0.0,g,1.0,0.4787245998159051,,,,,,,,,,0.0,1.0,1.0,7.0,228.2628367999569,,,,,,,,,,,,,,,,,228.2570993998088,229.45467899995856,230.25117859989405,230.23883059993383,,,,,,,,,,,,,,,,,,,,,,,,,,,,,,,,,,,230.2446925998665,230.25117859989405,230.25117859989405,230.73200019984503,g,1.0,0.4787245998159051,,,,,,sub-015,1,stroop_test,119.84429832977102,
,,,,2.0,2.0,0.0,,,,,,,,,,,,,gelb,red,r,0.0,r,1.0,0.6696599000133574,,,,,,,,,,0.0,2.0,2.0,8.0,230.7380255998578,,,,,,,,,,,,,,,,,230.732516199816,230.82976029999557,231.62509769992903,231.61393620003943,,,,,,,,,,,,,,,,,,,,,,,,,,,,,,,,,,,231.61913709994408,231.62509769992903,231.62509769992903,232.29849449987523,r,1.0,0.6696599000133574,,,,,,sub-015,1,stroop_test,119.84429832977102,
,,,,3.0,3.0,0.0,,,,,,,,,,,,,blau,blue,b,1.0,b,1.0,0.3856011000461876,,,,,,,,,,0.0,3.0,3.0,6.0,232.30458460003135,,,,,,,,,,,,,,,,,232.29906419990584,232.64626049995425,233.4416928999126,233.43067199992947,,,,,,,,,,,,,,,,,,,,,,,,,,,,,,,,,,,233.43608130002397,233.4416928999126,233.4416928999126,233.83190150000155,b,1.0,0.3856011000461876,,,,,,sub-015,1,stroop_test,119.84429832977102,
,,,,4.0,4.0,0.0,,,,,,,,,,,,,gelb,yellow,g,1.0,g,1.0,0.8363036999944597,,,,,,,,,,0.0,4.0,4.0,10.0,233.8379948998336,,,,,,,,,,,,,,,,,233.8324211998843,235.0296422999818,235.8249568999745,235.81397329992612,,,,,,,,,,,,,,,,,,,,,,,,,,,,,,,,,,,235.81922829989344,235.8249568999745,235.8249568999745,236.6654431000352,g,1.0,0.8363036999944597,,,,,,sub-015,1,stroop_test,119.84429832977102,
,,,,5.0,5.0,0.0,,,,,,,,,,,,,gelb,yellow,g,1.0,g,1.0,0.4512990000657737,,,,,,,,,,0.0,5.0,5.0,11.0,236.67135800002143,,,,,,,,,,,,,,,,,236.6661743998993,236.7628078998532,237.55435769981705,237.54701610002667,,,,,,,,,,,,,,,,,,,,,,,,,,,,,,,,,,,237.54792659985836,237.55435769981705,237.55435769981705,238.01515969983305,g,1.0,0.4512990000657737,,,,,,sub-015,1,stroop_test,119.84429832977102,
,,,,6.0,6.0,0.0,,,,,,,,,,,,,gelb,blue,b,0.0,b,1.0,0.3823361999820918,,,,,,,,,,0.0,6.0,6.0,9.0,238.02126349997707,,,,,,,,,,,,,,,,,238.01564609981145,238.8129104999825,239.60447799996476,239.5973594000097,,,,,,,,,,,,,,,,,,,,,,,,,,,,,,,,,,,239.59799239994027,239.60447799996476,239.60447799996476,239.9898228000384,b,1.0,0.3823361999820918,,,,,,sub-015,1,stroop_test,119.84429832977102,
,,,,7.0,7.0,0.0,,,,,,,,,,,,,blau,blue,b,1.0,g,0.0,0.4781180000863969,,,,,,,,,,0.0,7.0,7.0,5.0,239.99631199985745,,,,,,,,,,,,,,,,,239.9903394000139,241.18790240003727,241.9850482000038,241.97236269991845,,,,,,,,,,,,,,,,,,,,,,,,,,,,,,,,,,,241.97891459986567,241.9850482000038,241.9850482000038,242.46565329981968,g,0.0,0.4781180000863969,,,,,,sub-015,1,stroop_test,119.84429832977102,
,,,,8.0,8.0,0.0,,,,,,,,,,,,,blau,red,r,0.0,r,1.0,0.9265695000067352,,,,,,,,,,0.0,8.0,8.0,4.0,242.47133599990048,,,,,,,,,,,,,,,,,242.4662309000269,243.6627863999456,244.4546081000008,244.4473900999874,,,,,,,,,,,,,,,,,,,,,,,,,,,,,,,,,,,244.4480422998313,244.4546081000008,244.4546081000008,245.3897991999984,r,1.0,0.9265695000067352,,,,,,sub-015,1,stroop_test,119.84429832977102,
,,,,9.0,9.0,0.0,,,,,,,,,,,,,rot,blue,b,0.0,b,1.0,0.7815378999803215,,,,,,,,,,0.0,9.0,9.0,2.0,245.39633170003071,,,,,,,,,,,,,,,,,245.39028749987483,245.73790670000017,246.53275040001608,246.52231749985367,,,,,,,,,,,,,,,,,,,,,,,,,,,,,,,,,,,246.5272807998117,246.53275040001608,246.53275040001608,247.323201399995,b,1.0,0.7815378999803215,,,,,,sub-015,1,stroop_test,119.84429832977102,
,,,,10.0,10.0,0.0,,,,,,,,,,,,,rot,red,r,1.0,r,1.0,0.6581052001565695,,,,,,,,,,0.0,10.0,10.0,1.0,247.32960299984552,,,,,,,,,,,,,,,,,247.3237246000208,248.1211542999372,248.9129884999711,248.90573579980992,,,,,,,,,,,,,,,,,,,,,,,,,,,,,,,,,,,248.9063460000325,248.9129884999711,248.9129884999711,249.5733789999504,r,1.0,0.6581052001565695,,,,,,sub-015,1,stroop_test,119.84429832977102,
,,,,11.0,11.0,0.0,,,,,,,,,,,,,rot,red,r,1.0,r,1.0,0.6133173999842256,,,,,,,,,,0.0,11.0,11.0,0.0,249.57966259983368,,,,,,,,,,,,,,,,,249.5738654998131,249.92125879996456,250.71311350003816,250.70585669996217,,,,,,,,,,,,,,,,,,,,,,,,,,,,,,,,,,,250.70652100001465,250.71311350003816,250.71311350003816,251.3317531000357,r,1.0,0.6133173999842256,,,,,,sub-015,1,stroop_test,119.84429832977102,
,,,,12.0,0.0,1.0,,,,,,,,,,,,,rot,red,r,1.0,r,1.0,0.4945407998748123,,,,,,,,,,1.0,0.0,12.0,1.0,251.3377751999069,,,,,,,,,,,,,,,,,251.3323345999233,251.42962079984136,252.22104979981668,252.21382579999045,,,,,,,,,,,,,,,,,,,,,,,,,,,,,,,,,,,252.2145538998302,252.22104979981668,252.22104979981668,252.72314809984528,r,1.0,0.4945407998748123,,,,,,sub-015,1,stroop_test,119.84429832977102,
,,,,13.0,1.0,1.0,,,,,,,,,,,,,gelb,yellow,g,1.0,g,1.0,0.9744281000457704,,,,,,,,,,1.0,1.0,13.0,11.0,252.72951999981888,,,,,,,,,,,,,,,,,252.72384729981425,252.8211130998097,253.61631439998743,253.6055180998519,,,,,,,,,,,,,,,,,,,,,,,,,,,,,,,,,,,253.61074469983575,253.61631439998743,253.61631439998743,254.59809389989823,g,1.0,0.9744281000457704,,,,,,sub-015,1,stroop_test,119.84429832977102,
,,,,14.0,2.0,1.0,,,,,,,,,,,,,gelb,yellow,g,1.0,g,1.0,0.5459902000147849,,,,,,,,,,1.0,2.0,14.0,10.0,254.60456489981152,,,,,,,,,,,,,,,,,254.5986245998647,255.79626609990373,256.5878924999852,256.5806068999227,,,,,,,,,,,,,,,,,,,,,,,,,,,,,,,,,,,256.5813434999436,256.5878924999852,256.5878924999852,257.1398187999148,g,1.0,0.5459902000147849,,,,,,sub-015,1,stroop_test,119.84429832977102,
,,,,15.0,3.0,1.0,,,,,,,,,,,,,blau,red,r,0.0,r,1.0,1.0480136000551283,,,,,,,,,,1.0,3.0,15.0,4.0,257.14623169996776,,,,,,,,,,,,,,,,,257.14035009988584,257.9378688998986,258.7336593999062,258.72227009991184,,,,,,,,,,,,,,,,,,,,,,,,,,,,,,,,,,,258.7277267999016,258.7336593999062,258.7336593999062,259.78946589981206,r,1.0,1.0480136000551283,,,,,,sub-015,1,stroop_test,119.84429832977102,
,,,,16.0,4.0,1.0,,,,,,,,,,,,,rot,blue,b,0.0,b,1.0,0.6351354999933392,,,,,,,,,,1.0,4.0,16.0,2.0,259.7962040998973,,,,,,,,,,,,,,,,,259.7900095998775,260.13781280000694,260.93318089982495,260.9221618999727,,,,,,,,,,,,,,,,,,,,,,,,,,,,,,,,,,,260.9278509998694,260.93318089982495,260.93318089982495,261.57308440003544,b,1.0,0.6351354999933392,,,,,,sub-015,1,stroop_test,119.84429832977102,
,,,,17.0,5.0,1.0,,,,,,,,,,,,,blau,blue,b,1.0,b,1.0,0.4490759999025613,,,,,,,,,,1.0,5.0,17.0,6.0,261.57939910003915,,,,,,,,,,,,,,,,,261.5735746999271,261.6710933998693,262.46703649987467,262.4555605999194,,,,,,,,,,,,,,,,,,,,,,,,,,,,,,,,,,,262.4609169999603,262.46703649987467,262.46703649987467,262.9233001000248,b,1.0,0.4490759999025613,,,,,,sub-015,1,stroop_test,119.84429832977102,
,,,,18.0,6.0,1.0,,,,,,,,,,,,,gelb,blue,b,0.0,b,1.0,0.3401056001894176,,,,,,,,,,1.0,6.0,18.0,9.0,262.92955229990184,,,,,,,,,,,,,,,,,262.923784899991,263.27112409984693,264.0659729000181,264.05553539982066,,,,,,,,,,,,,,,,,,,,,,,,,,,,,,,,,,,264.060659899842,264.0659729000181,264.0659729000181,264.4146014000289,b,1.0,0.3401056001894176,,,,,,sub-015,1,stroop_test,119.84429832977102,
,,,,19.0,7.0,1.0,,,,,,,,,,,,,rot,red,r,1.0,r,1.0,0.6943775999825448,,,,,,,,,,1.0,7.0,19.0,0.0,264.4210790998768,,,,,,,,,,,,,,,,,264.41514800000004,265.21288609993644,266.00740429991856,265.9969995999709,,,,,,,,,,,,,,,,,,,,,,,,,,,,,,,,,,,266.0018583999481,266.00740429991856,266.00740429991856,266.7068016999401,r,1.0,0.6943775999825448,,,,,,sub-015,1,stroop_test,119.84429832977102,
,,,,20.0,8.0,1.0,,,,,,,,,,,,,gelb,red,r,0.0,g,0.0,0.7969121001660824,,,,,,,,,,1.0,8.0,20.0,8.0,266.7128977999091,,,,,,,,,,,,,,,,,266.70732109993696,267.9044780000113,268.7006196998991,268.68885709997267,,,,,,,,,,,,,,,,,,,,,,,,,,,,,,,,,,,268.6945452999789,268.7006196998991,268.7006196998991,269.5063365998212,g,0.0,0.7969121001660824,,,,,,sub-015,1,stroop_test,119.84429832977102,
,,,,21.0,9.0,1.0,,,,,,,,,,,,,blau,blue,b,1.0,b,1.0,0.559029399883002,,,,,,,,,,1.0,9.0,21.0,5.0,269.5128218999598,,,,,,,,,,,,,,,,,269.5068797999993,270.7044765998144,271.5000723998528,271.4888599999249,,,,,,,,,,,,,,,,,,,,,,,,,,,,,,,,,,,271.49403679999523,271.5000723998528,271.5000723998528,272.0651620000135,b,1.0,0.559029399883002,,,,,,sub-015,1,stroop_test,119.84429832977102,
,,,,22.0,10.0,1.0,,,,,,,,,,,,,blau,yellow,g,0.0,g,1.0,1.2650148998945951,,,,,,,,,,1.0,10.0,22.0,7.0,272.07116209995,,,,,,,,,,,,,,,,,272.0656465999782,272.16278889984824,272.9545453998726,272.9471904998645,,,,,,,,,,,,,,,,,,,,,,,,,,,,,,,,,,,272.9478284998331,272.9545453998726,272.9545453998726,274.2232818999328,g,1.0,1.2650148998945951,,,,,,sub-015,1,stroop_test,119.84429832977102,
,,,,23.0,11.0,1.0,,,,,,,,,,,,,rot,yellow,g,0.0,g,1.0,1.0323763000778854,,,,,,,,,,1.0,11.0,23.0,3.0,274.2295104998629,,,,,,,,,,,,,,,,,274.2238461000379,274.57111849985085,275.3658047998324,275.355652499944,,,,,,,,,,,,,,,,,,,,,,,,,,,,,,,,,,,275.360801700037,275.3658047998324,275.3658047998324,276.40627209981903,g,1.0,1.0323763000778854,,,,,,sub-015,1,stroop_test,119.84429832977102,
,,,,24.0,0.0,2.0,,,,,,,,,,,,,blau,blue,b,1.0,b,1.0,0.6465319998096675,,,,,,,,,,2.0,0.0,24.0,5.0,276.4128739999141,,,,,,,,,,,,,,,,,276.4067726999056,276.50456249993294,277.30069389985874,277.288982699858,,,,,,,,,,,,,,,,,,,,,,,,,,,,,,,,,,,277.2942582999822,277.30069389985874,277.30069389985874,277.9496817998588,b,1.0,0.6465319998096675,,,,,,sub-015,1,stroop_test,119.84429832977102,
,,,,25.0,1.0,2.0,,,,,,,,,,,,,gelb,red,r,0.0,r,1.0,0.9740712998900564,,,,,,,,,,2.0,1.0,25.0,8.0,277.9544424000196,,,,,,,,,,,,,,,,,277.9502409999259,278.2960410998203,279.0918038999662,279.0805122000165,,,,,,,,,,,,,,,,,,,,,,,,,,,,,,,,,,,279.0862787999213,279.0918038999662,279.0918038999662,280.07318159984425,r,1.0,0.9740712998900564,,,,,,sub-015,1,stroop_test,119.84429832977102,
,,,,26.0,2.0,2.0,,,,,,,,,,,,,rot,red,r,1.0,r,1.0,0.7116032000631094,,,,,,,,,,2.0,2.0,26.0,1.0,280.0794438999146,,,,,,,,,,,,,,,,,280.07366500003263,280.1711673999671,280.9663853999228,280.9556412999518,,,,,,,,,,,,,,,,,,,,,,,,,,,,,,,,,,,280.96069719991647,280.9663853999228,280.9663853999228,281.68153359997086,r,1.0,0.7116032000631094,,,,,,sub-015,1,stroop_test,119.84429832977102,
,,,,27.0,3.0,2.0,,,,,,,,,,,,,rot,yellow,g,0.0,g,1.0,0.929715899983421,,,,,,,,,,2.0,3.0,27.0,3.0,281.6878438999411,,,,,,,,,,,,,,,,,281.68207310000435,282.4795726998709,283.27119060000405,283.2636586998124,,,,,,,,,,,,,,,,,,,,,,,,,,,,,,,,,,,283.2643057999667,283.27119060000405,283.27119060000405,284.2063483998645,g,1.0,0.929715899983421,,,,,,sub-015,1,stroop_test,119.84429832977102,
,,,,28.0,4.0,2.0,,,,,,,,,,,,,gelb,yellow,g,1.0,g,1.0,0.4531394999939948,,,,,,,,,,2.0,4.0,28.0,11.0,284.2127922999207,,,,,,,,,,,,,,,,,284.2069400998298,284.554244699888,285.3495151998941,285.3388894998934,,,,,,,,,,,,,,,,,,,,,,,,,,,,,,,,,,,285.34399520000443,285.3495151998941,285.3495151998941,285.80657499982044,g,1.0,0.4531394999939948,,,,,,sub-015,1,stroop_test,119.84429832977102,
,,,,29.0,5.0,2.0,,,,,,,,,,,,,blau,red,r,0.0,r,1.0,0.9878265999723226,,,,,,,,,,2.0,5.0,29.0,4.0,285.8128251999151,,,,,,,,,,,,,,,,,285.8071389000397,285.90432649990544,286.7001938999165,286.6889161998406,,,,,,,,,,,,,,,,,,,,,,,,,,,,,,,,,,,286.6944259998854,286.7001938999165,286.7001938999165,287.69003009982407,r,1.0,0.9878265999723226,,,,,,sub-015,1,stroop_test,119.84429832977102,
,,,,30.0,6.0,2.0,,,,,,,,,,,,,blau,yellow,g,0.0,g,1.0,0.8599137999117374,,,,,,,,,,2.0,6.0,30.0,7.0,287.69617079989985,,,,,,,,,,,,,,,,,287.6905451999046,287.78778479993343,288.5794022998307,288.5722000999376,,,,,,,,,,,,,,,,,,,,,,,,,,,,,,,,,,,288.5728730999399,288.5794022998307,288.5794022998307,289.4482344998978,g,1.0,0.8599137999117374,,,,,,sub-015,1,stroop_test,119.84429832977102,
,,,,31.0,7.0,2.0,,,,,,,,,,,,,blau,blue,b,1.0,b,1.0,0.7041366000194103,,,,,,,,,,2.0,7.0,31.0,6.0,289.4543709999416,,,,,,,,,,,,,,,,,289.4488106998615,290.246185499942,291.0377529000398,291.0305484998971,,,,,,,,,,,,,,,,,,,,,,,,,,,,,,,,,,,291.0311457000207,291.0377529000398,291.0377529000398,291.74822319997475,b,1.0,0.7041366000194103,,,,,,sub-015,1,stroop_test,119.84429832977102,
,,,,32.0,8.0,2.0,,,,,,,,,,,,,rot,red,r,1.0,r,1.0,0.6583181000314653,,,,,,,,,,2.0,8.0,32.0,0.0,291.75446129986085,,,,,,,,,,,,,,,,,291.7487404998392,292.5460263998248,293.34178629983217,293.3303810998332,,,,,,,,,,,,,,,,,,,,,,,,,,,,,,,,,,,293.3359695998952,293.34178629983217,293.34178629983217,294.0064897998236,r,1.0,0.6583181000314653,,,,,,sub-015,1,stroop_test,119.84429832977102,
,,,,33.0,9.0,2.0,,,,,,,,,,,,,gelb,yellow,g,1.0,g,1.0,1.1853157000150532,,,,,,,,,,2.0,9.0,33.0,10.0,294.0127161999699,,,,,,,,,,,,,,,,,294.00699969986454,295.2043393999338,295.9999347999692,295.9888720000163,,,,,,,,,,,,,,,,,,,,,,,,,,,,,,,,,,,295.9941878998652,295.9999347999692,295.9999347999692,297.1899061999284,g,1.0,1.1853157000150532,,,,,,sub-015,1,stroop_test,119.84429832977102,
,,,,34.0,10.0,2.0,,,,,,,,,,,,,rot,blue,b,0.0,b,1.0,0.8594609000720084,,,,,,,,,,2.0,10.0,34.0,2.0,297.1960942998994,,,,,,,,,,,,,,,,,297.1904868998099,297.2878425999079,298.082388299983,298.072045999812,,,,,,,,,,,,,,,,,,,,,,,,,,,,,,,,,,,298.0767840000335,298.082388299983,298.082388299983,298.94786649988964,b,1.0,0.8594609000720084,,,,,,sub-015,1,stroop_test,119.84429832977102,
,,,,35.0,11.0,2.0,,,,,,,,,,,,,gelb,blue,b,0.0,b,1.0,0.5184953000862151,,,,,,,,,,2.0,11.0,35.0,9.0,298.9544068998657,,,,,,,,,,,,,,,,,298.94834490004,299.2959994999692,300.0915408998262,300.08047949988395,,,,,,,,,,,,,,,,,,,,,,,,,,,,,,,,,,,300.0856325000059,300.0915408998262,300.0915408998262,300.6146728999447,b,1.0,0.5184953000862151,,,,,,sub-015,1,stroop_test,119.84429832977102,
,,,,36.0,0.0,3.0,,,,,,,,,,,,,blau,red,r,0.0,r,1.0,0.582224499899894,,,,,,,,,,3.0,0.0,36.0,4.0,300.62104239990003,,,,,,,,,,,,,,,,,300.61520579992794,301.81255779997446,302.6099308000412,302.5973247999791,,,,,,,,,,,,,,,,,,,,,,,,,,,,,,,,,,,302.60347279999405,302.6099308000412,302.6099308000412,303.1978859999217,r,1.0,0.582224499899894,,,,,,sub-015,1,stroop_test,119.84429832977102,
,,,,37.0,1.0,3.0,,,,,,,,,,,,,blau,blue,b,1.0,b,1.0,0.5937828999012709,,,,,,,,,,3.0,1.0,37.0,5.0,303.2042384999804,,,,,,,,,,,,,,,,,303.19841219997033,303.2959777999204,304.0878261998296,304.0804873998277,,,,,,,,,,,,,,,,,,,,,,,,,,,,,,,,,,,304.0811689000111,304.0878261998296,304.0878261998296,304.6895661999006,b,1.0,0.5937828999012709,,,,,,sub-015,1,stroop_test,119.84429832977102,
,,,,38.0,2.0,3.0,,,,,,,,,,,,,gelb,yellow,g,1.0,g,1.0,0.6182500999420881,,,,,,,,,,3.0,2.0,38.0,10.0,304.6958893998526,,,,,,,,,,,,,,,,,304.6900626998395,305.0375865998212,305.8334772998933,305.8221811999101,,,,,,,,,,,,,,,,,,,,,,,,,,,,,,,,,,,305.8276215000078,305.8334772998933,305.8334772998933,306.456300499849,g,1.0,0.6182500999420881,,,,,,sub-015,1,stroop_test,119.84429832977102,
,,,,39.0,3.0,3.0,,,,,,,,,,,,,rot,red,r,1.0,r,1.0,0.5677765998989344,,,,,,,,,,3.0,3.0,39.0,0.0,306.46262889984064,,,,,,,,,,,,,,,,,306.45688149984926,306.5542661999352,307.3510643998161,307.338904599892,,,,,,,,,,,,,,,,,,,,,,,,,,,,,,,,,,,307.3453847998753,307.3510643998161,307.3510643998161,307.9229295998812,r,1.0,0.5677765998989344,,,,,,sub-015,1,stroop_test,119.84429832977102,
,,,,40.0,4.0,3.0,,,,,,,,,,,,,rot,blue,b,0.0,b,1.0,0.4364197999238968,,,,,,,,,,3.0,4.0,40.0,2.0,307.92932130000554,,,,,,,,,,,,,,,,,307.9234482999891,308.0210567000322,308.8127001998946,308.80531209986657,,,,,,,,,,,,,,,,,,,,,,,,,,,,,,,,,,,308.8059857999906,308.8127001998946,308.8127001998946,309.25640119984746,b,1.0,0.4364197999238968,,,,,,sub-015,1,stroop_test,119.84429832977102,
,,,,41.0,5.0,3.0,,,,,,,,,,,,,gelb,red,r,0.0,r,1.0,0.706579799996689,,,,,,,,,,3.0,5.0,41.0,8.0,309.2626765000168,,,,,,,,,,,,,,,,,309.2569233998656,310.4543536999263,311.24978539999574,311.2388040998485,,,,,,,,,,,,,,,,,,,,,,,,,,,,,,,,,,,311.24402789981104,311.24978539999574,311.24978539999574,311.9643104998395,r,1.0,0.706579799996689,,,,,,sub-015,1,stroop_test,119.84429832977102,
,,,,42.0,6.0,3.0,,,,,,,,,,,,,blau,yellow,g,0.0,g,1.0,0.4379062999505549,,,,,,,,,,3.0,6.0,42.0,7.0,311.97091699996963,,,,,,,,,,,,,,,,,311.9651446000207,312.76251080003567,313.55895009986125,313.5470602000132,,,,,,,,,,,,,,,,,,,,,,,,,,,,,,,,,,,313.5529564998578,313.55895009986125,313.55895009986125,313.9992662998848,g,1.0,0.4379062999505549,,,,,,sub-015,1,stroop_test,119.84429832977102,
,,,,43.0,7.0,3.0,,,,,,,,,,,,,gelb,yellow,g,1.0,g,1.0,0.5079991999082267,,,,,,,,,,3.0,7.0,43.0,11.0,314.0042117999401,,,,,,,,,,,,,,,,,313.9997816998512,314.34585279994644,315.1421984999906,315.13068769988604,,,,,,,,,,,,,,,,,,,,,,,,,,,,,,,,,,,315.1365171999205,315.1421984999906,315.1421984999906,315.6565445000306,g,1.0,0.5079991999082267,,,,,,sub-015,1,stroop_test,119.84429832977102,
,,,,44.0,8.0,3.0,,,,,,,,,,,,,gelb,blue,b,0.0,b,1.0,0.3846724000759423,,,,,,,,,,3.0,8.0,44.0,9.0,315.66255519981496,,,,,,,,,,,,,,,,,315.6570879998617,316.00420309999026,316.79594909981824,316.7887719999999,,,,,,,,,,,,,,,,,,,,,,,,,,,,,,,,,,,316.78941500000656,316.79594909981824,316.79594909981824,317.18972050002776,b,1.0,0.3846724000759423,,,,,,sub-015,1,stroop_test,119.84429832977102,
,,,,45.0,9.0,3.0,,,,,,,,,,,,,rot,yellow,g,0.0,g,1.0,0.8754721998702735,,,,,,,,,,3.0,9.0,45.0,3.0,317.19595690001734,,,,,,,,,,,,,,,,,317.19026979990304,317.53762039984576,318.33232349995524,318.3217064999044,,,,,,,,,,,,,,,,,,,,,,,,,,,,,,,,,,,318.326360499952,318.33232349995524,318.33232349995524,319.2146455999464,g,1.0,0.8754721998702735,,,,,,sub-015,1,stroop_test,119.84429832977102,
,,,,46.0,10.0,3.0,,,,,,,,,,,,,blau,blue,b,1.0,b,1.0,0.8787529000546783,,,,,,,,,,3.0,10.0,46.0,6.0,319.22092729993165,,,,,,,,,,,,,,,,,319.21512219985016,319.5625944000203,320.35865149996243,320.3472310998477,,,,,,,,,,,,,,,,,,,,,,,,,,,,,,,,,,,320.35278399987146,320.35865149996243,320.35865149996243,321.24011589982547,b,1.0,0.8787529000546783,,,,,,sub-015,1,stroop_test,119.84429832977102,
,,,,47.0,11.0,3.0,,,,,,,,,,,,,rot,red,r,1.0,r,1.0,0.4843007000163197,,,,,,,,,,3.0,11.0,47.0,1.0,321.2462124999147,,,,,,,,,,,,,,,,,321.2406333000399,322.4376548998989,323.2327064999845,323.2221704998519,,,,,,,,,,,,,,,,,,,,,,,,,,,,,,,,,,,323.2272477999795,323.2327064999845,323.2327064999845,323.7227407000028,r,1.0,0.4843007000163197,,,,,,sub-015,1,stroop_test,119.84429832977102,
,,,,48.0,0.0,4.0,,,,,,,,,,,,,gelb,yellow,g,1.0,g,1.0,1.310508199967444,,,,,,,,,,4.0,0.0,48.0,11.0,323.72925099986605,,,,,,,,,,,,,,,,,323.72324929991737,324.9206079998985,325.7173031999264,325.7053274998907,,,,,,,,,,,,,,,,,,,,,,,,,,,,,,,,,,,325.7114993999712,325.7173031999264,325.7173031999264,327.03135930001736,g,1.0,1.310508199967444,,,,,,sub-015,1,stroop_test,119.84429832977102,
,,,,49.0,1.0,4.0,,,,,,,,,,,,,blau,blue,b,1.0,b,1.0,0.7309921002015471,,,,,,,,,,4.0,1.0,49.0,5.0,327.03776999982074,,,,,,,,,,,,,,,,,327.0318677998148,327.8293155999854,328.6252470999025,328.6136516998522,,,,,,,,,,,,,,,,,,,,,,,,,,,,,,,,,,,328.6192023998592,328.6252470999025,328.6252470999025,329.3649146000389,b,1.0,0.7309921002015471,,,,,,sub-015,1,stroop_test,119.84429832977102,
,,,,50.0,2.0,4.0,,,,,,,,,,,,,blau,red,r,0.0,r,1.0,1.33802459994331,,,,,,,,,,4.0,2.0,50.0,4.0,329.3709823000245,,,,,,,,,,,,,,,,,329.36544559989125,329.71259629982524,330.5043382998556,330.4968768998515,,,,,,,,,,,,,,,,,,,,,,,,,,,,,,,,,,,330.4975445999298,330.5043382998556,330.5043382998556,331.8479309999384,r,1.0,1.33802459994331,,,,,,sub-015,1,stroop_test,119.84429832977102,
,,,,51.0,3.0,4.0,,,,,,,,,,,,,rot,yellow,g,0.0,g,1.0,0.5897537001874298,,,,,,,,,,4.0,3.0,51.0,3.0,331.85419789981097,,,,,,,,,,,,,,,,,331.8484590998851,331.9457799999509,332.74154359987006,332.73045929986984,,,,,,,,,,,,,,,,,,,,,,,,,,,,,,,,,,,332.735563499853,332.74154359987006,332.74154359987006,333.3398277999368,g,1.0,0.5897537001874298,,,,,,sub-015,1,stroop_test,119.84429832977102,
,,,,52.0,4.0,4.0,,,,,,,,,,,,,gelb,red,r,0.0,r,1.0,0.88582200021483,,,,,,,,,,4.0,4.0,52.0,8.0,333.34603689983487,,,,,,,,,,,,,,,,,333.34039369993843,334.53758499980904,335.3331693999935,335.3217825999018,,,,,,,,,,,,,,,,,,,,,,,,,,,,,,,,,,,335.32726509985514,335.3331693999935,335.3331693999935,336.22300540003926,r,1.0,0.88582200021483,,,,,,sub-015,1,stroop_test,119.84429832977102,
,,,,53.0,5.0,4.0,,,,,,,,,,,,,gelb,blue,b,0.0,b,1.0,0.6039011999964714,,,,,,,,,,4.0,5.0,53.0,9.0,336.22925650002435,,,,,,,,,,,,,,,,,336.2234867999796,337.0207158999983,337.8125032000244,337.80528299999423,,,,,,,,,,,,,,,,,,,,,,,,,,,,,,,,,,,337.8060142998584,337.8125032000244,337.8125032000244,338.42276899982244,b,1.0,0.6039011999964714,,,,,,sub-015,1,stroop_test,119.84429832977102,
,,,,54.0,6.0,4.0,,,,,,,,,,,,,rot,red,r,1.0,r,1.0,0.929278900148347,,,,,,,,,,4.0,6.0,54.0,1.0,338.4292792000342,,,,,,,,,,,,,,,,,338.4233535998501,339.6206857999787,340.41961589991115,340.4054749000352,,,,,,,,,,,,,,,,,,,,,,,,,,,,,,,,,,,340.4136268999428,340.41961589991115,340.41961589991115,341.3560704998672,r,1.0,0.929278900148347,,,,,,sub-015,1,stroop_test,119.84429832977102,
,,,,55.0,7.0,4.0,,,,,,,,,,,,,rot,red,r,1.0,r,1.0,0.6175353000871837,,,,,,,,,,4.0,7.0,55.0,0.0,341.3626293998677,,,,,,,,,,,,,,,,,341.35655569983646,342.15412990003824,342.94589419988915,342.9386587999761,,,,,,,,,,,,,,,,,,,,,,,,,,,,,,,,,,,342.9393256998155,342.94589419988915,342.94589419988915,343.57279609981924,r,1.0,0.6175353000871837,,,,,,sub-015,1,stroop_test,119.84429832977102,
,,,,56.0,8.0,4.0,,,,,,,,,,,,,blau,yellow,g,0.0,g,1.0,0.7954722000285983,,,,,,,,,,4.0,8.0,56.0,7.0,343.57917169993743,,,,,,,,,,,,,,,,,343.5733377998695,344.7709251998458,345.5671319998801,345.5553860999644,,,,,,,,,,,,,,,,,,,,,,,,,,,,,,,,,,,345.56083810003474,345.5671319998801,345.5671319998801,346.36518459999934,g,1.0,0.7954722000285983,,,,,,sub-015,1,stroop_test,119.84429832977102,
,,,,57.0,9.0,4.0,,,,,,,,,,,,,gelb,yellow,g,1.0,g,1.0,0.4900452001020312,,,,,,,,,,4.0,9.0,57.0,10.0,346.37072669994086,,,,,,,,,,,,,,,,,346.3656929999124,347.5624261999037,348.35784029983915,348.3468378998805,,,,,,,,,,,,,,,,,,,,,,,,,,,,,,,,,,,348.351921599824,348.35784029983915,348.35784029983915,348.85618809983134,g,1.0,0.4900452001020312,,,,,,sub-015,1,stroop_test,119.84429832977102,
,,,,58.0,10.0,4.0,,,,,,,,,,,,,rot,blue,b,0.0,b,1.0,0.5871010001283139,,,,,,,,,,4.0,10.0,58.0,2.0,348.86260679992847,,,,,,,,,,,,,,,,,348.8566908999346,348.9541435998399,349.7495825998485,349.7386089998763,,,,,,,,,,,,,,,,,,,,,,,,,,,,,,,,,,,349.7435186000075,349.7495825998485,349.7495825998485,350.3395717998501,b,1.0,0.5871010001283139,,,,,,sub-015,1,stroop_test,119.84429832977102,
,,,,59.0,11.0,4.0,,,,,,,,,,,,,blau,blue,b,1.0,b,1.0,0.4263966002035886,,,,,,,,,,4.0,11.0,59.0,6.0,350.3457594998181,,,,,,,,,,,,,,,,,350.3401020998135,351.13734059990384,351.93639869987965,351.92199429986067,,,,,,,,,,,,,,,,,,,,,,,,,,,,,,,,,,,351.92983149993233,351.93639869987965,351.93639869987965,352.3649075999856,b,1.0,0.4263966002035886,,,,,,sub-015,1,stroop_test,119.84429832977102,
,,,,60.0,0.0,5.0,,,,,,,,,,,,,gelb,yellow,g,1.0,g,1.0,0.8238383999560028,,,,,,,,,,5.0,0.0,60.0,10.0,352.37082349997945,,,,,,,,,,,,,,,,,352.36538499989547,353.56376399984583,354.36589300003834,354.3550968999043,,,,,,,,,,,,,,,,,,,,,,,,,,,,,,,,,,,354.3602646999061,354.36589300003834,354.36589300003834,355.1979592998978,g,1.0,0.8238383999560028,,,,,,sub-015,1,stroop_test,119.84429832977102,
,,,,61.0,1.0,5.0,,,,,,,,,,,,,blau,blue,b,1.0,b,1.0,0.5470921001397073,,,,,,,,,,5.0,1.0,61.0,6.0,355.20414519985206,,,,,,,,,,,,,,,,,355.19853449985385,356.3957409998402,357.1914881998673,357.1801608998794,,,,,,,,,,,,,,,,,,,,,,,,,,,,,,,,,,,357.1855573998764,357.1914881998673,357.1914881998673,357.7478640000336,b,1.0,0.5470921001397073,,,,,,sub-015,1,stroop_test,119.84429832977102,
,,,,62.0,2.0,5.0,,,,,,,,,,,,,gelb,red,r,0.0,r,1.0,0.743524800054729,,,,,,,,,,5.0,2.0,62.0,8.0,357.7540888998192,,,,,,,,,,,,,,,,,357.74834309984,357.8457796999719,358.6411294999998,358.63016789988615,,,,,,,,,,,,,,,,,,,,,,,,,,,,,,,,,,,358.6351723000407,358.6411294999998,358.6411294999998,359.389714299934,r,1.0,0.743524800054729,,,,,,sub-015,1,stroop_test,119.84429832977102,
,,,,63.0,3.0,5.0,,,,,,,,,,,,,gelb,blue,b,0.0,b,1.0,0.7853981000371277,,,,,,,,,,5.0,3.0,63.0,9.0,359.39575959998183,,,,,,,,,,,,,,,,,359.3901925999671,360.1876290999353,360.9792265999131,360.9720282999333,,,,,,,,,,,,,,,,,,,,,,,,,,,,,,,,,,,360.9726859999355,360.9792265999131,360.9792265999131,361.7728193998337,b,1.0,0.7853981000371277,,,,,,sub-015,1,stroop_test,119.84429832977102,
,,,,64.0,4.0,5.0,,,,,,,,,,,,,rot,yellow,g,0.0,g,1.0,0.7632389001082629,,,,,,,,,,5.0,4.0,64.0,3.0,361.7790585998446,,,,,,,,,,,,,,,,,361.7732893000357,362.5706960998941,363.3672590998467,363.3553392000031,,,,,,,,,,,,,,,,,,,,,,,,,,,,,,,,,,,363.361396699911,363.3672590998467,363.3672590998467,364.13924709986895,g,1.0,0.7632389001082629,,,,,,sub-015,1,stroop_test,119.84429832977102,
,,,,65.0,5.0,5.0,,,,,,,,,,,,,gelb,yellow,g,1.0,g,1.0,0.7540823998861015,,,,,,,,,,5.0,5.0,65.0,11.0,364.1458221999928,,,,,,,,,,,,,,,,,364.1397905999329,364.9372951998376,365.7343069999479,365.7216294999234,,,,,,,,,,,,,,,,,,,,,,,,,,,,,,,,,,,365.7281408000272,365.7343069999479,365.7343069999479,366.49784470000304,g,1.0,0.7540823998861015,,,,,,sub-015,1,stroop_test,119.84429832977102,
,,,,66.0,6.0,5.0,,,,,,,,,,,,,rot,red,r,1.0,r,1.0,0.5720840999856591,,,,,,,,,,5.0,6.0,66.0,0.0,366.5040849000216,,,,,,,,,,,,,,,,,366.49836550001055,367.695683100028,368.490549699869,368.4802256999537,,,,,,,,,,,,,,,,,,,,,,,,,,,,,,,,,,,368.4853866000194,368.490549699869,368.490549699869,369.0648072999902,r,1.0,0.5720840999856591,,,,,,sub-015,1,stroop_test,119.84429832977102,
,,,,67.0,7.0,5.0,,,,,,,,,,,,,blau,red,r,0.0,r,1.0,1.2080188998952508,,,,,,,,,,5.0,7.0,67.0,4.0,369.0707023998257,,,,,,,,,,,,,,,,,369.0653348998167,369.8624739998486,370.658386599971,370.6468803999014,,,,,,,,,,,,,,,,,,,,,,,,,,,,,,,,,,,370.652185899904,370.658386599971,370.658386599971,371.8727332998533,r,1.0,1.2080188998952508,,,,,,sub-015,1,stroop_test,119.84429832977102,
,,,,68.0,8.0,5.0,,,,,,,,,,,,,blau,yellow,g,0.0,g,1.0,0.8279472999274731,,,,,,,,,,5.0,8.0,68.0,7.0,371.8789438998792,,,,,,,,,,,,,,,,,371.87322029983625,373.0706805998925,373.8624660000205,373.8550170999952,,,,,,,,,,,,,,,,,,,,,,,,,,,,,,,,,,,373.8557080999017,373.8624660000205,373.8624660000205,374.6976063998882,g,1.0,0.8279472999274731,,,,,,sub-015,1,stroop_test,119.84429832977102,
,,,,69.0,9.0,5.0,,,,,,,,,,,,,blau,blue,b,1.0,b,1.0,0.4962071001064032,,,,,,,,,,5.0,9.0,69.0,5.0,374.7040786999278,,,,,,,,,,,,,,,,,374.6980851998087,375.0457766000181,375.8373696999624,375.83034779992886,,,,,,,,,,,,,,,,,,,,,,,,,,,,,,,,,,,375.83094389992766,375.8373696999624,375.8373696999624,376.3394768999424,b,1.0,0.4962071001064032,,,,,,sub-015,1,stroop_test,119.84429832977102,
,,,,70.0,10.0,5.0,,,,,,,,,,,,,rot,red,r,1.0,r,1.0,0.6607262000907212,,,,,,,,,,5.0,10.0,70.0,1.0,376.34567009983584,,,,,,,,,,,,,,,,,376.3399508998264,376.437376299873,377.2335560999345,377.2218565000221,,,,,,,,,,,,,,,,,,,,,,,,,,,,,,,,,,,377.22801009984687,377.2335560999345,377.2335560999345,377.89772509993054,r,1.0,0.6607262000907212,,,,,,sub-015,1,stroop_test,119.84429832977102,
,,,,71.0,11.0,5.0,,,,,,,,,,,,,rot,blue,b,0.0,b,1.0,0.9354101000353694,,,,,,,,,,5.0,11.0,71.0,2.0,377.90380279999226,,,,,,,,,,,,,,,,,377.8982007999439,378.6958371000365,379.4874644000083,379.4800317999907,,,,,,,,,,,,,,,,,,,,,,,,,,,,,,,,,,,379.48066030000336,379.4874644000083,379.4874644000083,380.4311291999184,b,1.0,0.9354101000353694,,,,,,sub-015,1,stroop_test,119.84429832977102,
,,,,72.0,0.0,6.0,,,,,,,,,,,,,rot,blue,b,0.0,b,1.0,0.5430056999903172,,,,,,,,,,6.0,0.0,72.0,2.0,380.43744889996015,,,,,,,,,,,,,,,,,380.4316598000005,380.5290069999173,381.3207156998105,381.31359119992703,,,,,,,,,,,,,,,,,,,,,,,,,,,,,,,,,,,381.3143362998962,381.3207156998105,381.3207156998105,381.87291549984366,b,1.0,0.5430056999903172,,,,,,sub-015,1,stroop_test,119.84429832977102,
,,,,73.0,1.0,6.0,,,,,,,,,,,,,blau,blue,b,1.0,b,1.0,0.5149198998697102,,,,,,,,,,6.0,1.0,73.0,6.0,381.87884379993193,,,,,,,,,,,,,,,,,381.8733975000214,382.22075550002046,383.01561450003646,383.0049301998224,,,,,,,,,,,,,,,,,,,,,,,,,,,,,,,,,,,383.0102405999787,383.01561450003646,383.01561450003646,383.5395710999146,b,1.0,0.5149198998697102,,,,,,sub-015,1,stroop_test,119.84429832977102,
,,,,74.0,2.0,6.0,,,,,,,,,,,,,gelb,yellow,g,1.0,g,1.0,0.8062306998763233,,,,,,,,,,6.0,2.0,74.0,11.0,383.5456691000145,,,,,,,,,,,,,,,,,383.54008249985054,383.6374094998464,384.4325204999186,384.4216930998955,,,,,,,,,,,,,,,,,,,,,,,,,,,,,,,,,,,384.4267822999973,384.4325204999186,384.4325204999186,385.24767909990624,g,1.0,0.8062306998763233,,,,,,sub-015,1,stroop_test,119.84429832977102,
,,,,75.0,3.0,6.0,,,,,,,,,,,,,rot,yellow,g,0.0,g,1.0,0.406157499877736,,,,,,,,,,6.0,3.0,75.0,3.0,385.2538854000159,,,,,,,,,,,,,,,,,385.2485077998135,386.4454480998684,387.2434833999723,387.2303194999695,,,,,,,,,,,,,,,,,,,,,,,,,,,,,,,,,,,387.23786449991167,387.2434833999723,387.2434833999723,387.6561123998836,g,1.0,0.406157499877736,,,,,,sub-015,1,stroop_test,119.84429832977102,
,,,,76.0,4.0,6.0,,,,,,,,,,,,,gelb,red,r,0.0,r,1.0,0.5445601001847535,,,,,,,,,,6.0,4.0,76.0,8.0,387.6622407999821,,,,,,,,,,,,,,,,,387.6566365000326,387.7539854999632,388.5501299998723,388.53845769981854,,,,,,,,,,,,,,,,,,,,,,,,,,,,,,,,,,,388.54443449992687,388.5501299998723,388.5501299998723,389.09728809981607,r,1.0,0.5445601001847535,,,,,,sub-015,1,stroop_test,119.84429832977102,
,,,,77.0,5.0,6.0,,,,,,,,,,,,,blau,yellow,g,0.0,g,1.0,0.6111591998487711,,,,,,,,,,6.0,5.0,77.0,7.0,389.1040109999012,,,,,,,,,,,,,,,,,389.0977921998128,390.29564429982565,391.0927307999227,391.07991910004057,,,,,,,,,,,,,,,,,,,,,,,,,,,,,,,,,,,391.0861704000272,391.0927307999227,391.0927307999227,391.70651759998873,g,1.0,0.6111591998487711,,,,,,sub-015,1,stroop_test,119.84429832977102,
,,,,78.0,6.0,6.0,,,,,,,,,,,,,gelb,yellow,g,1.0,g,1.0,0.4376241997815668,,,,,,,,,,6.0,6.0,78.0,10.0,391.7122261999175,,,,,,,,,,,,,,,,,391.7070349999704,392.05409509991296,392.8493846999481,392.8384852998424,,,,,,,,,,,,,,,,,,,,,,,,,,,,,,,,,,,392.8434565998614,392.8493846999481,392.8493846999481,393.28970159986056,g,1.0,0.4376241997815668,,,,,,sub-015,1,stroop_test,119.84429832977102,
,,,,79.0,7.0,6.0,,,,,,,,,,,,,blau,blue,b,1.0,b,1.0,0.5948769999668002,,,,,,,,,,6.0,7.0,79.0,5.0,393.29568159999326,,,,,,,,,,,,,,,,,393.2902581000235,393.6372293999884,394.43292479985394,394.4218013999052,,,,,,,,,,,,,,,,,,,,,,,,,,,,,,,,,,,394.42706279992126,394.43292479985394,394.43292479985394,395.0311964999418,b,1.0,0.5948769999668002,,,,,,sub-015,1,stroop_test,119.84429832977102,
,,,,80.0,8.0,6.0,,,,,,,,,,,,,rot,red,r,1.0,r,1.0,0.5055547999218106,,,,,,,,,,6.0,8.0,80.0,1.0,395.0374104999937,,,,,,,,,,,,,,,,,395.0316786998883,395.829191399971,396.6248746998608,396.6134868999943,,,,,,,,,,,,,,,,,,,,,,,,,,,,,,,,,,,396.619222600013,396.6248746998608,396.6248746998608,397.1391087998636,r,1.0,0.5055547999218106,,,,,,sub-015,1,stroop_test,119.84429832977102,
,,,,81.0,9.0,6.0,,,,,,,,,,,,,rot,red,r,1.0,r,1.0,0.4017684999853372,,,,,,,,,,6.0,9.0,81.0,0.0,397.14570309990086,,,,,,,,,,,,,,,,,397.1395888000261,397.48733129980974,398.27883569989353,398.27178799989633,,,,,,,,,,,,,,,,,,,,,,,,,,,,,,,,,,,398.2724774000235,398.27883569989353,398.27883569989353,398.6890026999172,r,1.0,0.4017684999853372,,,,,,sub-015,1,stroop_test,119.84429832977102,
,,,,82.0,10.0,6.0,,,,,,,,,,,,,blau,red,r,0.0,r,1.0,0.4635992001276463,,,,,,,,,,6.0,10.0,82.0,4.0,398.6956403998192,,,,,,,,,,,,,,,,,398.6895914999768,399.0373950998765,399.8336228998378,399.8215520000085,,,,,,,,,,,,,,,,,,,,,,,,,,,,,,,,,,,399.82739909994416,399.8336228998378,399.8336228998378,400.30576010001823,r,1.0,0.4635992001276463,,,,,,sub-015,1,stroop_test,119.84429832977102,
,,,,83.0,11.0,6.0,,,,,,,,,,,,,gelb,blue,b,0.0,b,1.0,0.5701451001223177,,,,,,,,,,6.0,11.0,83.0,9.0,400.3123333000112,,,,,,,,,,,,,,,,,400.3062785998918,400.6540488000028,401.4501463000197,401.4384593998548,,,,,,,,,,,,,,,,,,,,,,,,,,,,,,,,,,,401.4436692998279,401.4501463000197,401.4501463000197,402.0227073999122,b,1.0,0.5701451001223177,,,,,,sub-015,1,stroop_test,119.84429832977102,
,,,,84.0,0.0,7.0,,,,,,,,,,,,,blau,blue,b,1.0,b,1.0,0.7462484000716358,,,,,,,,,,7.0,0.0,84.0,5.0,402.0288964998908,,,,,,,,,,,,,,,,,402.0232406998985,402.12056840001605,402.9144653999247,402.9046972999349,,,,,,,,,,,,,,,,,,,,,,,,,,,,,,,,,,,402.90947329998016,402.9144653999247,402.9144653999247,403.6648271998856,b,1.0,0.7462484000716358,,,,,,sub-015,1,stroop_test,119.84429832977102,
,,,,85.0,1.0,7.0,,,,,,,,,,,,,gelb,yellow,g,1.0,g,1.0,1.014717500191182,,,,,,,,,,7.0,1.0,85.0,11.0,403.6706884999294,,,,,,,,,,,,,,,,,403.66533560003154,404.86243769992143,405.6579437998589,405.6465507999528,,,,,,,,,,,,,,,,,,,,,,,,,,,,,,,,,,,405.6523869000375,405.6579437998589,405.6579437998589,406.6810537998099,g,1.0,1.014717500191182,,,,,,sub-015,1,stroop_test,119.84429832977102,
,,,,86.0,2.0,7.0,,,,,,,,,,,,,rot,yellow,g,0.0,g,1.0,0.3736563001293689,,,,,,,,,,7.0,2.0,86.0,3.0,406.6871433998458,,,,,,,,,,,,,,,,,406.6816602998879,407.4789238998201,408.2740972000174,408.26336360001005,,,,,,,,,,,,,,,,,,,,,,,,,,,,,,,,,,,408.2682498998474,408.2740972000174,408.2740972000174,408.6560825998895,g,1.0,0.3736563001293689,,,,,,sub-015,1,stroop_test,119.84429832977102,
,,,,87.0,3.0,7.0,,,,,,,,,,,,,rot,red,r,1.0,r,1.0,0.5828831999097019,,,,,,,,,,7.0,3.0,87.0,0.0,408.6623313999735,,,,,,,,,,,,,,,,,408.6567066998687,408.7539345000405,409.5453329999,409.5385604999028,,,,,,,,,,,,,,,,,,,,,,,,,,,,,,,,,,,409.5394856999628,409.5453329999,409.5453329999,410.1312100999057,r,1.0,0.5828831999097019,,,,,,sub-015,1,stroop_test,119.84429832977102,
,,,,88.0,4.0,7.0,,,,,,,,,,,,,blau,blue,b,1.0,b,1.0,0.5546099999919534,,,,,,,,,,7.0,4.0,88.0,6.0,410.1372318998911,,,,,,,,,,,,,,,,,410.1317052999512,410.4787814998999,411.274097800022,411.26335399993695,,,,,,,,,,,,,,,,,,,,,,,,,,,,,,,,,,,411.268455500016,411.274097800022,411.274097800022,411.8313474999741,b,1.0,0.5546099999919534,,,,,,sub-015,1,stroop_test,119.84429832977102,
,,,,89.0,5.0,7.0,,,,,,,,,,,,,blau,yellow,g,0.0,g,1.0,0.7836655999999493,,,,,,,,,,7.0,5.0,89.0,7.0,411.8372190999799,,,,,,,,,,,,,,,,,411.8318845999893,412.6288248999044,413.420660099946,413.41333039989695,,,,,,,,,,,,,,,,,,,,,,,,,,,,,,,,,,,413.4140985000413,413.420660099946,413.420660099946,414.2064950999338,g,1.0,0.7836655999999493,,,,,,sub-015,1,stroop_test,119.84429832977102,
,,,,90.0,6.0,7.0,,,,,,,,,,,,,rot,red,r,1.0,r,1.0,0.6612884998321533,,,,,,,,,,7.0,6.0,90.0,1.0,414.212183599826,,,,,,,,,,,,,,,,,414.20697309984826,414.5537060999777,415.349204499973,415.33862779987976,,,,,,,,,,,,,,,,,,,,,,,,,,,,,,,,,,,415.3434315000195,415.349204499973,415.349204499973,416.0145041998476,r,1.0,0.6612884998321533,,,,,,sub-015,1,stroop_test,119.84429832977102,
,,,,91.0,7.0,7.0,,,,,,,,,,,,,gelb,blue,b,0.0,b,1.0,0.7322327999863774,,,,,,,,,,7.0,7.0,91.0,9.0,416.02054369985126,,,,,,,,,,,,,,,,,416.0150216999464,417.2121375999413,418.0088936998509,417.99685140000656,,,,,,,,,,,,,,,,,,,,,,,,,,,,,,,,,,,418.0029517998919,418.0088936998509,418.0088936998509,418.74760019988753,b,1.0,0.7322327999863774,,,,,,sub-015,1,stroop_test,119.84429832977102,
,,,,92.0,8.0,7.0,,,,,,,,,,,,,blau,red,r,0.0,r,1.0,1.0429702999535948,,,,,,,,,,7.0,8.0,92.0,4.0,418.753949200036,,,,,,,,,,,,,,,,,418.7481482999865,419.0955517999828,419.89298619981855,419.8801688000094,,,,,,,,,,,,,,,,,,,,,,,,,,,,,,,,,,,419.8866473999806,419.89298619981855,419.89298619981855,420.9391747999471,r,1.0,1.0429702999535948,,,,,,sub-015,1,stroop_test,119.84429832977102,
,,,,93.0,9.0,7.0,,,,,,,,,,,,,rot,blue,b,0.0,b,1.0,0.7139819001313299,,,,,,,,,,7.0,9.0,93.0,2.0,420.9455695999786,,,,,,,,,,,,,,,,,420.9396545998752,421.0372262999881,421.83252729987726,421.82146619982086,,,,,,,,,,,,,,,,,,,,,,,,,,,,,,,,,,,421.82678639981896,421.83252729987726,421.83252729987726,422.55570929986425,b,1.0,0.7139819001313299,,,,,,sub-015,1,stroop_test,119.84429832977102,
,,,,94.0,10.0,7.0,,,,,,,,,,,,,gelb,red,r,0.0,r,1.0,1.161557799903676,,,,,,,,,,7.0,10.0,94.0,8.0,422.5622202998493,,,,,,,,,,,,,,,,,422.5562276998535,423.3539741998538,424.149373000022,424.1382460999303,,,,,,,,,,,,,,,,,,,,,,,,,,,,,,,,,,,424.14389169984497,424.149373000022,424.149373000022,425.3141528000124,r,1.0,1.161557799903676,,,,,,sub-015,1,stroop_test,119.84429832977102,
,,,,95.0,11.0,7.0,,,,,,,,,,,,,gelb,yellow,g,1.0,g,1.0,0.6203145999461412,,,,,,,,,,7.0,11.0,95.0,10.0,425.320459399838,,,,,,,,,,,,,,,,,425.3146999999881,425.4121592999436,426.2036568999756,426.1965852999128,,,,,,,,,,,,,,,,,,,,,,,,,,,,,,,,,,,426.1973339999095,426.2036568999756,426.2036568999756,426.8308911998756,g,1.0,0.6203145999461412,,,,,,sub-015,1,stroop_test,119.84429832977102,
,,,,96.0,0.0,8.0,,,,,,,,,,,,,blau,blue,b,1.0,b,1.0,0.5940352999605238,,,,,,,,,,8.0,0.0,96.0,6.0,426.8371921998914,,,,,,,,,,,,,,,,,426.8313655999955,427.62892889999785,428.4250409998931,428.41314799990505,,,,,,,,,,,,,,,,,,,,,,,,,,,,,,,,,,,428.41936519998126,428.4250409998931,428.4250409998931,429.0225466999691,b,1.0,0.5940352999605238,,,,,,sub-015,1,stroop_test,119.84429832977102,
,,,,97.0,1.0,8.0,,,,,,,,,,,,,rot,yellow,g,0.0,g,1.0,1.7449481000658125,,,,,,,,,,8.0,1.0,97.0,3.0,429.0288006998599,,,,,,,,,,,,,,,,,429.02305519999936,429.3704722998664,430.1650694999844,430.15478580002673,,,,,,,,,,,,,,,,,,,,,,,,,,,,,,,,,,,430.1595995000098,430.1650694999844,430.1650694999844,431.9140808000229,g,1.0,1.7449481000658125,,,,,,sub-015,1,stroop_test,119.84429832977102,
,,,,98.0,2.0,8.0,,,,,,,,,,,,,gelb,blue,b,0.0,b,1.0,0.5052672999445349,,,,,,,,,,8.0,2.0,98.0,9.0,431.9204632998444,,,,,,,,,,,,,,,,,431.9146179999225,432.2622288998682,433.0584219999146,433.0468160999008,,,,,,,,,,,,,,,,,,,,,,,,,,,,,,,,,,,433.0526985998731,433.0584219999146,433.0584219999146,433.5724643999711,b,1.0,0.5052672999445349,,,,,,sub-015,1,stroop_test,119.84429832977102,
,,,,99.0,3.0,8.0,,,,,,,,,,,,,blau,blue,b,1.0,b,1.0,1.877163999946788,,,,,,,,,,8.0,3.0,99.0,5.0,433.5787349999882,,,,,,,,,,,,,,,,,433.5729775000364,434.37052130000666,435.1669644999784,435.1549487998709,,,,,,,,,,,,,,,,,,,,,,,,,,,,,,,,,,,435.1603623998817,435.1669644999784,435.1669644999784,437.04761919984594,b,1.0,1.877163999946788,,,,,,sub-015,1,stroop_test,119.84429832977102,
,,,,100.0,4.0,8.0,,,,,,,,,,,,,rot,red,r,1.0,r,1.0,1.864892200101167,,,,,,,,,,8.0,4.0,100.0,0.0,437.0537490998395,,,,,,,,,,,,,,,,,437.0481701998506,438.2454191998113,439.0409040998202,439.0300344999414,,,,,,,,,,,,,,,,,,,,,,,,,,,,,,,,,,,439.0356594999321,439.0409040998202,439.0409040998202,440.9141472999472,r,1.0,1.864892200101167,,,,,,sub-015,1,stroop_test,119.84429832977102,
,,,,101.0,5.0,8.0,,,,,,,,,,,,,blau,yellow,g,0.0,g,1.0,1.0608497001230717,,,,,,,,,,8.0,5.0,101.0,7.0,440.9205375998281,,,,,,,,,,,,,,,,,440.9147679999005,442.1120835999027,442.9080061998684,442.8963965999428,,,,,,,,,,,,,,,,,,,,,,,,,,,,,,,,,,,442.9024127998855,442.9080061998684,442.9080061998684,443.9724055000115,g,1.0,1.0608497001230717,,,,,,sub-015,1,stroop_test,119.84429832977102,
,,,,102.0,6.0,8.0,,,,,,,,,,,,,rot,red,r,1.0,r,1.0,0.6614043998997658,,,,,,,,,,8.0,6.0,102.0,1.0,443.9787447999697,,,,,,,,,,,,,,,,,443.9729645999614,444.07044039992616,444.8657966000028,444.85511749982834,,,,,,,,,,,,,,,,,,,,,,,,,,,,,,,,,,,444.8599795999471,444.8657966000028,444.8657966000028,445.530890799826,r,1.0,0.6614043998997658,,,,,,sub-015,1,stroop_test,119.84429832977102,
,,,,103.0,7.0,8.0,,,,,,,,,,,,,gelb,yellow,g,1.0,g,1.0,0.9716241001151502,,,,,,,,,,8.0,7.0,103.0,10.0,445.5371719999239,,,,,,,,,,,,,,,,,445.5313980998472,445.8785752998665,446.6739984999877,446.663070099894,,,,,,,,,,,,,,,,,,,,,,,,,,,,,,,,,,,446.66830309992656,446.6739984999877,446.6739984999877,447.6480048999656,g,1.0,0.9716241001151502,,,,,,sub-015,1,stroop_test,119.84429832977102,
,,,,104.0,8.0,8.0,,,,,,,,,,,,,gelb,red,r,0.0,r,1.0,0.658347100019455,,,,,,,,,,8.0,8.0,104.0,8.0,447.6537989999633,,,,,,,,,,,,,,,,,447.6485734998714,447.7452712999657,448.5369378998876,448.5300387998577,,,,,,,,,,,,,,,,,,,,,,,,,,,,,,,,,,,448.5307363998145,448.5369378998876,448.5369378998876,449.1979598999024,r,1.0,0.658347100019455,,,,,,sub-015,1,stroop_test,119.84429832977102,
,,,,105.0,9.0,8.0,,,,,,,,,,,,,gelb,yellow,g,1.0,g,1.0,0.822368900058791,,,,,,,,,,8.0,9.0,105.0,11.0,449.2037305999547,,,,,,,,,,,,,,,,,449.1984723999631,449.54515539994463,450.33715849998407,450.3297496999148,,,,,,,,,,,,,,,,,,,,,,,,,,,,,,,,,,,450.3304389999248,450.33715849998407,450.33715849998407,451.164016299881,g,1.0,0.822368900058791,,,,,,sub-015,1,stroop_test,119.84429832977102,
,,,,106.0,10.0,8.0,,,,,,,,,,,,,blau,red,r,0.0,r,1.0,1.043975799810141,,,,,,,,,,8.0,10.0,106.0,4.0,451.1701487998944,,,,,,,,,,,,,,,,,451.1645747998264,452.3620110999327,453.1592457999941,453.14635919989087,,,,,,,,,,,,,,,,,,,,,,,,,,,,,,,,,,,453.1527097998187,453.1592457999941,453.1592457999941,454.2058790000156,r,1.0,1.043975799810141,,,,,,sub-015,1,stroop_test,119.84429832977102,
,,,,107.0,11.0,8.0,,,,,,,,,,,,,rot,blue,b,0.0,b,1.0,0.4931086001452058,,,,,,,,,,8.0,11.0,107.0,2.0,454.2121033000294,,,,,,,,,,,,,,,,,454.20648069982417,455.00375309982337,455.7996000999119,455.7881364999339,,,,,,,,,,,,,,,,,,,,,,,,,,,,,,,,,,,455.793462399859,455.7996000999119,455.7996000999119,456.2974304999225,b,1.0,0.4931086001452058,,,,,,sub-015,1,stroop_test,119.84429832977102,
,,,,108.0,0.0,9.0,,,,,,,,,,,,,gelb,blue,b,0.0,b,1.0,0.3896957000251859,,,,,,,,,,9.0,0.0,108.0,9.0,456.30374250002205,,,,,,,,,,,,,,,,,456.29790919995867,457.0952293998562,457.8897301999386,457.8793575000018,,,,,,,,,,,,,,,,,,,,,,,,,,,,,,,,,,,457.8844763999805,457.8897301999386,457.8897301999386,458.2817789998371,b,1.0,0.3896957000251859,,,,,,sub-015,1,stroop_test,119.84429832977102,
,,,,109.0,1.0,9.0,,,,,,,,,,,,,rot,yellow,g,0.0,g,1.0,0.4781297000590712,,,,,,,,,,9.0,1.0,109.0,3.0,458.2868914999999,,,,,,,,,,,,,,,,,458.2823116998188,459.4786815999541,460.2741657998413,460.2631458998658,,,,,,,,,,,,,,,,,,,,,,,,,,,,,,,,,,,460.2681551999413,460.2741657998413,460.2741657998413,460.7555690999143,g,1.0,0.4781297000590712,,,,,,sub-015,1,stroop_test,119.84429832977102,
,,,,110.0,2.0,9.0,,,,,,,,,,,,,rot,red,r,1.0,r,1.0,0.768414500169456,,,,,,,,,,9.0,2.0,110.0,0.0,460.7620714998338,,,,,,,,,,,,,,,,,460.7560962999705,461.1037532000337,461.8954113998916,461.8880681998562,,,,,,,,,,,,,,,,,,,,,,,,,,,,,,,,,,,461.8887698999606,461.8954113998916,461.8954113998916,462.672744399868,r,1.0,0.768414500169456,,,,,,sub-015,1,stroop_test,119.84429832977102,
,,,,111.0,3.0,9.0,,,,,,,,,,,,,gelb,yellow,g,1.0,g,1.0,0.4804308998864144,,,,,,,,,,9.0,3.0,111.0,11.0,462.6785728000104,,,,,,,,,,,,,,,,,462.6732793999836,463.87021269998513,464.6663591000252,464.65467730001546,,,,,,,,,,,,,,,,,,,,,,,,,,,,,,,,,,,464.6606075998861,464.6663591000252,464.6663591000252,465.1554566998966,g,1.0,0.4804308998864144,,,,,,sub-015,1,stroop_test,119.84429832977102,
,,,,112.0,4.0,9.0,,,,,,,,,,,,,gelb,red,r,0.0,r,1.0,1.3920261000748724,,,,,,,,,,9.0,4.0,112.0,8.0,465.1620153998956,,,,,,,,,,,,,,,,,465.156101499917,466.3533119999338,467.1453147998545,467.1381351000164,,,,,,,,,,,,,,,,,,,,,,,,,,,,,,,,,,,467.1387382999528,467.1453147998545,467.1453147998545,468.5395920998417,r,1.0,1.3920261000748724,,,,,,sub-015,1,stroop_test,119.84429832977102,
,,,,113.0,5.0,9.0,,,,,,,,,,,,,blau,blue,b,1.0,b,1.0,0.6413254998624325,,,,,,,,,,9.0,5.0,113.0,5.0,468.5452572999056,,,,,,,,,,,,,,,,,468.54010710003786,468.88689399999566,469.6839375998825,469.6716882998589,,,,,,,,,,,,,,,,,,,,,,,,,,,,,,,,,,,469.67765969992615,469.6839375998825,469.6839375998825,470.3305148000363,b,1.0,0.6413254998624325,,,,,,sub-015,1,stroop_test,119.84429832977102,
,,,,114.0,6.0,9.0,,,,,,,,,,,,,blau,red,r,0.0,r,1.0,1.2006165999919176,,,,,,,,,,9.0,6.0,114.0,4.0,470.3369875999633,,,,,,,,,,,,,,,,,470.3313426999375,470.4285367999692,471.220411399845,471.2130960000213,,,,,,,,,,,,,,,,,,,,,,,,,,,,,,,,,,,471.2136945999228,471.220411399845,471.220411399845,472.4233782000374,r,1.0,1.2006165999919176,,,,,,sub-015,1,stroop_test,119.84429832977102,
,,,,115.0,7.0,9.0,,,,,,,,,,,,,blau,yellow,g,0.0,g,1.0,1.0178555001039058,,,,,,,,,,9.0,7.0,115.0,7.0,472.42859309981577,,,,,,,,,,,,,,,,,472.4238934998866,472.7703717998229,473.5620789998211,473.5550810999703,,,,,,,,,,,,,,,,,,,,,,,,,,,,,,,,,,,473.5557514999528,473.5620789998211,473.5620789998211,474.5884895999916,g,1.0,1.0178555001039058,,,,,,sub-015,1,stroop_test,119.84429832977102,
,,,,116.0,8.0,9.0,,,,,,,,,,,,,gelb,yellow,g,1.0,g,1.0,0.5428196999710053,,,,,,,,,,9.0,8.0,116.0,10.0,474.5953649999574,,,,,,,,,,,,,,,,,474.5889722998254,475.3867981999647,476.1818247998599,476.1712278998457,,,,,,,,,,,,,,,,,,,,,,,,,,,,,,,,,,,476.1761614999268,476.1818247998599,476.1818247998599,476.7303392998874,g,1.0,0.5428196999710053,,,,,,sub-015,1,stroop_test,119.84429832977102,
,,,,117.0,9.0,9.0,,,,,,,,,,,,,rot,red,r,1.0,r,1.0,0.5571754002012312,,,,,,,,,,9.0,9.0,117.0,1.0,476.7368671998847,,,,,,,,,,,,,,,,,476.7308391998522,476.82856359984726,477.6237160998862,477.6131944998633,,,,,,,,,,,,,,,,,,,,,,,,,,,,,,,,,,,477.61797979986295,477.6237160998862,477.6237160998862,478.1888919998892,r,1.0,0.5571754002012312,,,,,,sub-015,1,stroop_test,119.84429832977102,
,,,,118.0,10.0,9.0,,,,,,,,,,,,,rot,blue,b,0.0,b,1.0,0.7561747999861836,,,,,,,,,,9.0,10.0,118.0,2.0,478.1954441999551,,,,,,,,,,,,,,,,,478.1893696999177,478.2867999000009,479.0785238998942,479.071592599852,,,,,,,,,,,,,,,,,,,,,,,,,,,,,,,,,,,479.0722176998388,479.0785238998942,479.0785238998942,479.8390823998489,b,1.0,0.7561747999861836,,,,,,sub-015,1,stroop_test,119.84429832977102,
,,,,119.0,11.0,9.0,,,,,,,,,,,,,blau,blue,b,1.0,b,1.0,0.3271197001449764,,,,,,,,,,9.0,11.0,119.0,6.0,479.8453071999829,,,,,,,,,,,,,,,,,479.8396385998931,480.6368660998996,481.4334081998095,481.42122569982894,,,,,,,,,,,,,,,,,,,,,,,,,,,,,,,,,,,481.42741809994914,481.4334081998095,481.4334081998095,481.7639098998625,b,1.0,0.3271197001449764,,,,,,sub-015,1,stroop_test,119.84429832977102,
,,,,,,,,,,,,,,,,,,,,,,,,,,,,,,,,,,,,,,,,,,,,,,,,,,,,,,,,,,,,,,,,,,,,,,,,,,,,,,,,,,,,,,,,,,,,,,,,,,,,,,481.764313200023,481.7705876999535,486.7618338000029,486.7546258999501,sub-015,1,stroop_test,119.84429832977102,
