wordCTK,colorCTK,corrAnsCTK,congruentCTK,thisN,thisTrialN,thisRepN,keyResp_CTK.keys,keyResp_CTK.corr,keyResp_CTK.rt,keyResp_CTK.duration,wordPractice,colorPractice,corrAnsPractice,congruentPractice,respPractice.keys,respPractice.corr,respPractice.rt,respPractice.duration,word,color,corrAns,congruent,keyResp_test_run.keys,keyResp_test_run.corr,keyResp_test_run.rt,keyResp_test_run.duration,trials_CTK.thisRepN,trials_CTK.thisTrialN,trials_CTK.thisN,trials_CTK.thisIndex,trials_practice.thisRepN,trials_practice.thisTrialN,trials_practice.thisN,trials_practice.thisIndex,trials_test.thisRepN,trials_test.thisTrialN,trials_test.thisN,trials_test.thisIndex,thisRow.t,notes,instruction.started,instr_text.started,instr_image.started,instr_resp.started,instruction.stopped,instr_resp.keys,instr_resp.rt,instr_resp.duration,instr_color_to_key.started,instr_ctk.started,resp_ctk.started,instr_color_to_key.stopped,resp_ctk.keys,resp_ctk.rt,resp_ctk.duration,ITI.started,fixcross.started,fixcross.stopped,ITI.stopped,color_to_key_run.started,stimulus_CTK.started,keyResp_CTK.started,color_to_key_run.stopped,trials_CTK.keyResp_CTK.keys,trials_CTK.keyResp_CTK.corr,trials_CTK.keyResp_CTK.rt,trials_CTK.keyResp_CTK.duration,instr_practice.started,instr_practice_text.started,instr_practice_resp.started,instr_practice.stopped,instr_practice_resp.keys,instr_practice_resp.rt,instr_practice_resp.duration,practice_run.started,stimulus_practice.started,respPractice.started,practice_run.stopped,trials_practice.respPractice.keys,trials_practice.respPractice.corr,trials_practice.respPractice.rt,trials_practice.respPractice.duration,feedback.started,textFeedback.started,feedback.stopped,textFeedback.stopped,instr_test.started,instr_test_text.started,instr_test_resp.started,instr_test.stopped,instr_test_resp.keys,instr_test_resp.rt,instr_test_resp.duration,test_run.started,stimulus_test_run.started,keyResp_test_run.started,test_run.stopped,trials_test.keyResp_test_run.keys,trials_test.keyResp_test_run.corr,trials_test.keyResp_test_run.rt,trials_test.keyResp_test_run.duration,goodbye.started,textGoodbye.started,textGoodbye.stopped,goodbye.stopped,participant,session,expName,frameRate,Unnamed: 113
,,,,,,,,,,,,,,,,,,,,,,,,,,,,,,,,,,,,,,,,,0.008805667006527,0.0183592079993104,0.0183592079993104,0.0183592079993104,81.0015284580004,space,80.97741133299132,,,,,,,,,,,,,,,,,,,,,,,,,,,,,,,,,,,,,,,,,,,,,,,,,,,,,,,,,,,sub-124,1,stroop_test,120.04315552159557,
,,,,,,,,,,,,,,,,,,,,,,,,,,,,,,,,,,,,,,,,,,,,,,,,,81.00163975000032,81.01483354199445,81.01483354199445,90.41185470799974,space,9.395601957992769,,,,,,,,,,,,,,,,,,,,,,,,,,,,,,,,,,,,,,,,,,,,,,,,,,,,sub-124,1,stroop_test,120.04315552159557,
test,red,r,1.0,0.0,0.0,0.0,r,1.0,1.679145249989233,,,,,,,,,,,,,,,,,,0.0,0.0,0.0,0.0,,,,,,,,,90.44122079199587,,,,,,,,,,,,,,,,,90.43261983299452,90.76548366699716,91.56392441700154,91.549911042006,91.55768820800586,91.56392441700154,91.56392441700154,93.24547333299417,r,1.0,1.679145249989233,,,,,,,,,,,,,,,,,,,,,,,,,,,,,,,,,,,,,,,,sub-124,1,stroop_test,120.04315552159557,
test,blue,b,1.0,1.0,1.0,0.0,b,1.0,1.152925750007853,,,,,,,,,,,,,,,,,,0.0,1.0,1.0,2.0,,,,,,,,,93.25561012499384,,,,,,,,,,,,,,,,,93.24600250000368,93.59387516700372,94.38552637500106,94.37757933299872,94.37827899999684,94.38552637500106,94.38552637500106,95.54570587500348,b,1.0,1.152925750007853,,,,,,,,,,,,,,,,,,,,,,,,,,,,,,,,,,,,,,,,sub-124,1,stroop_test,120.04315552159557,
test,yellow,g,1.0,2.0,2.0,0.0,g,1.0,2.2119874579948373,,,,,,,,,,,,,,,,,,0.0,2.0,2.0,1.0,,,,,,,,,95.5567693750054,,,,,,,,,,,,,,,,,95.54639020799368,95.64426625000488,96.43523670799914,96.42740945800324,96.42811679199804,96.43523670799914,96.43523670799914,98.65073208299872,g,1.0,2.2119874579948373,,,,,,,,,,,,,,,,,,,,,,,,,,,,,,,,,,,,,,,,sub-124,1,stroop_test,120.04315552159557,
test,yellow,g,1.0,3.0,0.0,1.0,g,1.0,0.5810173329955433,,,,,,,,,,,,,,,,,,1.0,0.0,3.0,1.0,,,,,,,,,98.65970570799254,,,,,,,,,,,,,,,,,98.65121079199888,98.9934527919977,99.78659512499873,99.77772216699668,99.77865658300288,99.78659512499873,99.78659512499873,100.3789162920002,g,1.0,0.5810173329955433,,,,,,,,,,,,,,,,,,,,,,,,,,,,,,,,,,,,,,,,sub-124,1,stroop_test,120.04315552159557,
test,red,r,1.0,4.0,1.0,1.0,r,1.0,1.2829310829984024,,,,,,,,,,,,,,,,,,1.0,1.0,4.0,0.0,,,,,,,,,100.38943879200087,,,,,,,,,,,,,,,,,100.37949129199842,101.5771713330032,102.36955562500223,102.36126620799767,102.3620642080059,102.36955562500223,102.36955562500223,103.66235458299344,r,1.0,1.2829310829984024,,,,,,,,,,,,,,,,,,,,,,,,,,,,,,,,,,,,,,,,sub-124,1,stroop_test,120.04315552159557,
test,blue,b,1.0,5.0,2.0,1.0,b,1.0,0.6408158749982249,,,,,,,,,,,,,,,,,,1.0,2.0,5.0,2.0,,,,,,,,,103.67350616700423,,,,,,,,,,,,,,,,,103.66297708300408,104.86046916700434,105.65232220799952,105.64416383299977,105.6449611249991,105.65232220799952,105.65232220799952,106.29490179200366,b,1.0,0.6408158749982249,,,,,,,,,,,,,,,,,,,,,,,,,,,,,,,,,,,,,,,,sub-124,1,stroop_test,120.04315552159557,
test,red,r,1.0,6.0,0.0,2.0,r,1.0,0.7271147919964278,,,,,,,,,,,,,,,,,,2.0,0.0,6.0,0.0,,,,,,,,,106.30391966699972,,,,,,,,,,,,,,,,,106.29536008299328,107.08508016700216,107.8771289169963,107.86782895799844,107.86865699999908,107.8771289169963,107.8771289169963,108.61246733300504,r,1.0,0.7271147919964278,,,,,,,,,,,,,,,,,,,,,,,,,,,,,,,,,,,,,,,,sub-124,1,stroop_test,120.04315552159557,
test,blue,b,1.0,7.0,1.0,2.0,b,1.0,0.6239574170031119,,,,,,,,,,,,,,,,,,2.0,1.0,7.0,2.0,,,,,,,,,108.6234019580006,,,,,,,,,,,,,,,,,108.61315824999474,109.81063424999591,110.60277854200103,110.59445329199662,110.59523154199996,110.60277854200103,110.60277854200103,111.22870937500556,b,1.0,0.6239574170031119,,,,,,,,,,,,,,,,,,,,,,,,,,,,,,,,,,,,,,,,sub-124,1,stroop_test,120.04315552159557,
test,yellow,g,1.0,8.0,2.0,2.0,g,1.0,0.3919892919948324,,,,,,,,,,,,,,,,,,2.0,2.0,8.0,1.0,,,,,,,,,111.23843212499924,,,,,,,,,,,,,,,,,111.22935254199548,112.02715891700063,112.82037945800404,112.811190583001,112.81212795799364,112.82037945800404,112.82037945800404,113.21797179199348,g,1.0,0.3919892919948324,,,,,,,,,,,,,,,,,,,,,,,,,,,,,,,,,,,,,,,,sub-124,1,stroop_test,120.04315552159557,
test,red,r,1.0,9.0,0.0,3.0,r,1.0,0.5434491250052815,,,,,,,,,,,,,,,,,,3.0,0.0,9.0,0.0,,,,,,,,,113.22714654200536,,,,,,,,,,,,,,,,,113.21847229200648,114.41817358300614,115.21881175000452,115.21089354199648,115.21160891700129,115.21881175000452,115.21881175000452,115.76853916699474,r,1.0,0.5434491250052815,,,,,,,,,,,,,,,,,,,,,,,,,,,,,,,,,,,,,,,,sub-124,1,stroop_test,120.04315552159557,
test,yellow,g,1.0,10.0,1.0,3.0,g,1.0,0.4279293750005308,,,,,,,,,,,,,,,,,,3.0,1.0,10.0,1.0,,,,,,,,,115.79386170799262,,,,,,,,,,,,,,,,,115.76904716700663,116.96867329199448,117.76880945799348,117.76105966699834,117.76173520799784,117.76880945799348,117.76880945799348,118.20160362499882,g,1.0,0.4279293750005308,,,,,,,,,,,,,,,,,,,,,,,,,,,,,,,,,,,,,,,,sub-124,1,stroop_test,120.04315552159557,
test,blue,b,1.0,11.0,2.0,3.0,b,1.0,0.5791615000052843,,,,,,,,,,,,,,,,,,3.0,2.0,11.0,2.0,,,,,,,,,118.21104020799976,,,,,,,,,,,,,,,,,118.2022638329945,118.30079408299936,119.09369574999435,119.08426762500312,119.08510508299514,119.09369574999435,119.09369574999435,119.67841670800408,b,1.0,0.5791615000052843,,,,,,,,,,,,,,,,,,,,,,,,,,,,,,,,,,,,,,,,sub-124,1,stroop_test,120.04315552159557,
,,,,,,,,,,,,,,,,,,,,,,,,,,,,,,,,,,,,,,,,,,,,,,,,,,,,,,,,,,,,,,,,,,,,119.67863954200584,119.68839287500305,119.68839287500305,127.49585599999408,space,7.800891582999611,,,,,,,,,,,,,,,,,,,,,,,,,,,,,,,,,sub-124,1,stroop_test,120.04315552159557,
,,,,0.0,0.0,0.0,,,,,rot,yellow,g,0.0,g,1.0,1.598337374991388,,,,,,,,,,,,,,0.0,0.0,0.0,3.0,,,,,127.51772124999844,,,,,,,,,,,,,,,,,127.50975262500287,128.6939224999951,129.49294295799336,129.47801166700083,,,,,,,,,,,,,,,,129.48560229199938,129.49294295799336,129.49294295799336,131.09602162499505,g,1.0,1.598337374991388,,131.1037735830032,131.11462487500103,132.100653417001,,,,,,,,,,,,,,,,,,,,,sub-124,1,stroop_test,120.04315552159557,
,,,,1.0,1.0,0.0,,,,,rot,red,r,1.0,r,1.0,1.6904477500065695,,,,,,,,,,,,,,0.0,1.0,1.0,1.0,,,,,132.11096658300085,,,,,,,,,,,,,,,,,132.1012681669963,133.29382404200442,134.08641249999346,134.07797108299565,,,,,,,,,,,,,,,,134.07876620799652,134.08641249999346,134.08641249999346,135.7794735829957,r,1.0,1.6904477500065695,,135.7804317919945,135.7920348750049,136.77803708300053,136.78364816699468,,,,,,,,,,,,,,,,,,,,sub-124,1,stroop_test,120.04315552159557,
,,,,2.0,2.0,0.0,,,,,blau,blue,b,1.0,b,1.0,1.0336815839982592,,,,,,,,,,,,,,0.0,2.0,2.0,6.0,,,,,136.78364816699468,,,,,,,,,,,,,,,,,136.77859820799495,136.87729408299492,137.67684645799454,137.66120074999344,,,,,,,,,,,,,,,,137.66959904199757,137.67684645799454,137.67684645799454,138.7127475419984,b,1.0,1.0336815839982592,,138.7137335830048,138.7252152919973,139.71151441699476,139.71775241699652,,,,,,,,,,,,,,,,,,,,sub-124,1,stroop_test,120.04315552159557,
,,,,3.0,3.0,0.0,,,,,rot,red,r,1.0,r,1.0,1.131485124991741,,,,,,,,,,,,,,0.0,3.0,3.0,0.0,,,,,139.71775241699652,,,,,,,,,,,,,,,,,139.7121805420029,140.51051495800493,141.30694712500554,141.29477987499558,,,,,,,,,,,,,,,,141.29896149999695,141.30694712500554,141.30694712500554,142.44575979199726,r,1.0,1.131485124991741,,142.4464604579989,142.45765433300403,143.44474733299285,143.45062570800656,,,,,,,,,,,,,,,,,,,,sub-124,1,stroop_test,120.04315552159557,
,,,,4.0,4.0,0.0,,,,,rot,blue,b,0.0,b,1.0,1.31967741700646,,,,,,,,,,,,,,0.0,4.0,4.0,2.0,,,,,143.45062570800656,,,,,,,,,,,,,,,,,143.44531995800207,143.54442700000072,144.3368593750056,144.3279194170027,,,,,,,,,,,,,,,,144.32884237500548,144.3368593750056,144.3368593750056,145.66223795799306,b,1.0,1.31967741700646,,145.66283079200366,145.67252012499375,146.6613226250047,146.66689720799332,,,,,,,,,,,,,,,,,,,,sub-124,1,stroop_test,120.04315552159557,
,,,,5.0,5.0,0.0,,,,,gelb,red,r,0.0,r,1.0,1.432769042003201,,,,,,,,,,,,,,0.0,5.0,5.0,8.0,,,,,146.66689720799332,,,,,,,,,,,,,,,,,146.66185808299633,147.00251162500354,147.8072383749968,147.79479708299914,,,,,,,,,,,,,,,,147.79963683300593,147.8072383749968,147.8072383749968,149.24605329199403,r,1.0,1.432769042003201,,149.24685079199844,149.25806637499772,150.24483604199486,150.25039220800682,,,,,,,,,,,,,,,,,,,,sub-124,1,stroop_test,120.04315552159557,
,,,,6.0,6.0,0.0,,,,,gelb,yellow,g,1.0,g,1.0,1.056046541008982,,,,,,,,,,,,,,0.0,6.0,6.0,10.0,,,,,150.25039220800682,,,,,,,,,,,,,,,,,150.24541066700476,150.59449195799243,151.38660741699275,151.3781807500054,,,,,,,,,,,,,,,,151.37893799999438,151.38660741699275,151.38660741699275,152.44598337500065,g,1.0,1.056046541008982,,152.446844332997,152.45775924999907,153.4448074170068,153.45107583299978,,,,,,,,,,,,,,,,,,,,sub-124,1,stroop_test,120.04315552159557,
,,,,7.0,7.0,0.0,,,,,blau,red,r,0.0,r,1.0,1.616846542005078,,,,,,,,,,,,,,0.0,7.0,7.0,4.0,,,,,153.45107583299978,,,,,,,,,,,,,,,,,153.44547062499623,154.2445955000003,155.04056525000487,155.02818554200348,,,,,,,,,,,,,,,,155.0330156669952,155.04056525000487,155.04056525000487,156.6631170000037,r,1.0,1.616846542005078,,156.6640944170067,156.6757419170026,157.6616112079937,157.6675447919988,,,,,,,,,,,,,,,,,,,,sub-124,1,stroop_test,120.04315552159557,
,,,,8.0,8.0,0.0,,,,,blau,yellow,g,0.0,g,1.0,0.9665720000048168,,,,,,,,,,,,,,0.0,8.0,8.0,7.0,,,,,157.6675447919988,,,,,,,,,,,,,,,,,157.66216545799398,158.86124916700646,159.65344470800483,159.64498587499838,,,,,,,,,,,,,,,,159.6459349999932,159.65344470800483,159.65344470800483,160.62944874999812,g,1.0,0.9665720000048168,,160.6303020829946,160.64122995799698,161.6281442920008,161.63411562499823,,,,,,,,,,,,,,,,,,,,sub-124,1,stroop_test,120.04315552159557,
,,,,9.0,9.0,0.0,,,,,gelb,yellow,g,1.0,g,1.0,0.9597819579939824,,,,,,,,,,,,,,0.0,9.0,9.0,11.0,,,,,161.63411562499823,,,,,,,,,,,,,,,,,161.6286974169925,162.4275533750042,163.22334675000457,163.2116332500009,,,,,,,,,,,,,,,,163.21583583300526,163.22334675000457,163.22334675000457,164.19602470799873,g,1.0,0.9597819579939824,,164.19680195799447,164.20740295799624,165.19499983299465,165.20113183300418,,,,,,,,,,,,,,,,,,,,sub-124,1,stroop_test,120.04315552159557,
,,,,10.0,10.0,0.0,,,,,blau,blue,b,1.0,b,1.0,1.3513814999896567,,,,,,,,,,,,,,0.0,10.0,10.0,5.0,,,,,165.20113183300418,,,,,,,,,,,,,,,,,165.19556554200244,165.54454620799515,166.33996558299987,166.3280606670014,,,,,,,,,,,,,,,,166.33254154199676,166.33996558299987,166.33996558299987,167.69599466699583,b,1.0,1.3513814999896567,,167.69680445799895,167.70797824999318,168.69486154199694,168.70071849999658,,,,,,,,,,,,,,,,,,,,sub-124,1,stroop_test,120.04315552159557,
,,,,11.0,11.0,0.0,,,,,gelb,blue,b,0.0,b,1.0,1.3394845420116326,,,,,,,,,,,,,,0.0,11.0,11.0,9.0,,,,,168.70071849999658,,,,,,,,,,,,,,,,,168.69541116700566,169.49479670799337,170.29051079199417,170.27835758299625,,,,,,,,,,,,,,,,170.2831261669926,170.29051079199417,170.29051079199417,171.63521841699549,b,1.0,1.3394845420116326,,171.6359058329981,171.64694016700378,172.6342670830054,172.64478666700597,,,,,,,,,,,,,,,,,,,,sub-124,1,stroop_test,120.04315552159557,
,,,,12.0,0.0,1.0,,,,,blau,yellow,g,0.0,g,1.0,0.9790690829977392,,,,,,,,,,,,,,1.0,0.0,12.0,7.0,,,,,172.64478666700597,,,,,,,,,,,,,,,,,172.63494925000123,172.73533441699692,173.5305839999928,173.518122124995,,,,,,,,,,,,,,,,173.5236922920012,173.5305839999928,173.5305839999928,174.5129023329937,g,1.0,0.9790690829977392,,174.51372029200138,174.52473066700622,175.5118272499967,175.51772420799534,,,,,,,,,,,,,,,,,,,,sub-124,1,stroop_test,120.04315552159557,
,,,,13.0,1.0,1.0,,,,,rot,red,r,1.0,r,1.0,0.9683379579946632,,,,,,,,,,,,,,1.0,1.0,13.0,0.0,,,,,175.51772420799534,,,,,,,,,,,,,,,,,175.5124802920036,176.71105312499276,177.50688704199274,177.4950460419932,,,,,,,,,,,,,,,,177.49966670799768,177.50688704199274,177.50688704199274,178.47962304200337,r,1.0,0.9683379579946632,,178.480397583,178.49101937499654,179.47863470799348,179.48449175000133,,,,,,,,,,,,,,,,,,,,sub-124,1,stroop_test,120.04315552159557,
,,,,14.0,2.0,1.0,,,,,rot,yellow,g,0.0,g,1.0,0.9305849169904832,,,,,,,,,,,,,,1.0,2.0,14.0,3.0,,,,,179.48449175000133,,,,,,,,,,,,,,,,,179.47928445799334,180.2777399579936,181.06982158300525,181.06166900000244,,,,,,,,,,,,,,,,181.0624416250066,181.06982158300525,181.06982158300525,182.00293925000005,g,1.0,0.9305849169904832,,182.0037093330029,182.0155100830016,183.0013275829988,183.01153916699693,,,,,,,,,,,,,,,,,,,,sub-124,1,stroop_test,120.04315552159557,
,,,,15.0,3.0,1.0,,,,,gelb,yellow,g,1.0,g,1.0,0.94517895799072,,,,,,,,,,,,,,1.0,3.0,15.0,10.0,,,,,183.01153916699693,,,,,,,,,,,,,,,,,183.0019142079982,183.1012604169955,183.89720487500017,183.8845946670044,,,,,,,,,,,,,,,,183.8895565419953,183.89720487500017,183.89720487500017,184.84635987499496,g,1.0,0.94517895799072,,184.847164042003,184.85828241700077,185.8453373329976,185.85160112500307,,,,,,,,,,,,,,,,,,,,sub-124,1,stroop_test,120.04315552159557,
,,,,16.0,4.0,1.0,,,,,blau,red,r,0.0,r,1.0,0.660294083005283,,,,,,,,,,,,,,1.0,4.0,16.0,4.0,,,,,185.85160112500307,,,,,,,,,,,,,,,,,185.8459826670005,186.64446191699244,187.44088174999345,187.4285453750053,,,,,,,,,,,,,,,,187.43348445800075,187.44088174999345,187.44088174999345,188.1129719169985,r,1.0,0.660294083005283,,188.11373316700335,188.12465579199488,189.11199725000188,189.11794704200287,,,,,,,,,,,,,,,,,,,,sub-124,1,stroop_test,120.04315552159557,
,,,,17.0,5.0,1.0,,,,,gelb,yellow,g,1.0,g,1.0,0.6336309580074158,,,,,,,,,,,,,,1.0,5.0,17.0,11.0,,,,,189.11794704200287,,,,,,,,,,,,,,,,,189.11266333299864,189.9116304579948,190.7069290829968,190.69522408299963,,,,,,,,,,,,,,,,190.69949545800048,190.7069290829968,190.7069290829968,191.346403042,g,1.0,0.6336309580074158,,191.34718825000164,191.3581567079964,192.3452778749925,192.3512129580049,,,,,,,,,,,,,,,,,,,,sub-124,1,stroop_test,120.04315552159557,
,,,,18.0,6.0,1.0,,,,,blau,blue,b,1.0,b,1.0,0.9188659579958768,,,,,,,,,,,,,,1.0,6.0,18.0,6.0,,,,,192.3512129580049,,,,,,,,,,,,,,,,,192.34582800000496,192.4449869170057,193.24106712499636,193.228653750004,,,,,,,,,,,,,,,,193.2336466669949,193.24106712499636,193.24106712499636,194.1633742080012,b,1.0,0.9188659579958768,,194.16439462499693,194.1761922500009,195.1621862080065,195.1686017080065,,,,,,,,,,,,,,,,,,,,sub-124,1,stroop_test,120.04315552159557,
,,,,19.0,7.0,1.0,,,,,rot,blue,b,0.0,r,0.0,0.5499214589945041,,,,,,,,,,,,,,1.0,7.0,19.0,2.0,,,,,195.1686017080065,,,,,,,,,,,,,,,,,195.1629243329953,195.2615383329976,196.0582025420008,196.0453087920032,,,,,,,,,,,,,,,,196.05082012500495,196.0582025420008,196.0582025420008,196.6134546669928,r,0.0,0.5499214589945041,,196.6205982919928,196.63187141700476,197.61787341699528,,,,,,,,,,,,,,,,,,,,,sub-124,1,stroop_test,120.04315552159557,
,,,,20.0,8.0,1.0,,,,,rot,red,r,1.0,r,1.0,1.5598207500006538,,,,,,,,,,,,,,1.0,8.0,20.0,1.0,,,,,197.6283023750002,,,,,,,,,,,,,,,,,197.6185062919976,198.8112983750034,199.6035804169951,199.5953125420056,,,,,,,,,,,,,,,,199.59608258299704,199.6035804169951,199.6035804169951,201.1692015419976,r,1.0,1.5598207500006538,,201.1742147920013,201.1836969580036,202.168124792006,202.1781729579961,,,,,,,,,,,,,,,,,,,,sub-124,1,stroop_test,120.04315552159557,
,,,,21.0,9.0,1.0,,,,,blau,blue,b,1.0,b,1.0,0.8071296670095762,,,,,,,,,,,,,,1.0,9.0,21.0,5.0,,,,,202.1781729579961,,,,,,,,,,,,,,,,,202.16867558300143,202.51925524999388,203.32352958299447,203.3118672080018,,,,,,,,,,,,,,,,203.3160744170018,203.32352958299447,203.32352958299447,204.13595708299545,b,1.0,0.8071296670095762,,204.13667454199455,204.14741320800383,205.13527454200084,205.1447115829942,,,,,,,,,,,,,,,,,,,,sub-124,1,stroop_test,120.04315552159557,
,,,,22.0,10.0,1.0,,,,,gelb,red,r,0.0,r,1.0,0.6997903750016121,,,,,,,,,,,,,,1.0,10.0,22.0,8.0,,,,,205.1447115829942,,,,,,,,,,,,,,,,,205.1359501249972,206.33560974999276,207.130461541994,207.1185908329935,,,,,,,,,,,,,,,,207.1235945829976,207.130461541994,207.130461541994,207.83597291700423,r,1.0,0.6997903750016121,,207.8367721249961,207.84725287499896,208.83491195799436,208.84504883299812,,,,,,,,,,,,,,,,,,,,sub-124,1,stroop_test,120.04315552159557,
,,,,23.0,11.0,1.0,,,,,gelb,blue,b,0.0,b,1.0,1.0645560410048347,,,,,,,,,,,,,,1.0,11.0,23.0,9.0,,,,,208.84504883299812,,,,,,,,,,,,,,,,,208.83551725000143,210.0357312499982,210.83675987500465,210.82871237500515,,,,,,,,,,,,,,,,210.82938516700236,210.83675987500465,210.83675987500465,211.91327345800528,b,1.0,1.0645560410048347,,211.9141197919962,211.9250119579956,212.91218841700172,212.92094804199587,,,,,,,,,,,,,,,,,,,,sub-124,1,stroop_test,120.04315552159557,
,,,,,,,,,,,,,,,,,,,,,,,,,,,,,,,,,,,,,,,,,,,,,,,,,,,,,,,,,,,,,,,,,,,,,,,,,,,,,,,,,,,,,,,212.91247179200585,212.92094804199587,212.92094804199587,215.9135247079976,space,2.986050375009654,,,,,,,,,,,,,,sub-124,1,stroop_test,120.04315552159557,
,,,,0.0,0.0,0.0,,,,,,,,,,,,,blau,blue,b,1.0,b,1.0,0.780920374993002,,,,,,,,,,0.0,0.0,0.0,5.0,215.9384257920028,,,,,,,,,,,,,,,,,215.93029783299423,216.2619289580034,217.05775229200663,217.0455223330064,,,,,,,,,,,,,,,,,,,,,,,,,,,,,,,,,,,217.0504083749984,217.05775229200663,217.05775229200663,217.84669329199824,b,1.0,0.780920374993002,,,,,,sub-124,1,stroop_test,120.04315552159557,
,,,,1.0,1.0,0.0,,,,,,,,,,,,,rot,yellow,g,0.0,g,1.0,0.5739007079973817,,,,,,,,,,0.0,1.0,1.0,3.0,217.85718970799644,,,,,,,,,,,,,,,,,217.8473316669988,219.04476775000512,219.8415487080056,219.8289429169963,,,,,,,,,,,,,,,,,,,,,,,,,,,,,,,,,,,219.83372408300056,219.8415487080056,219.8415487080056,220.41973291699836,g,1.0,0.5739007079973817,,,,,,sub-124,1,stroop_test,120.04315552159557,
,,,,2.0,2.0,0.0,,,,,,,,,,,,,rot,red,r,1.0,r,1.0,0.6476777920033783,,,,,,,,,,0.0,2.0,2.0,1.0,220.43013412499567,,,,,,,,,,,,,,,,,220.4203659170016,220.7696615830064,221.57026774999397,221.56207083299523,,,,,,,,,,,,,,,,,,,,,,,,,,,,,,,,,,,221.5628165829985,221.57026774999397,221.57026774999397,222.23003058299943,r,1.0,0.6476777920033783,,,,,,sub-124,1,stroop_test,120.04315552159557,
,,,,3.0,3.0,0.0,,,,,,,,,,,,,gelb,yellow,g,1.0,g,1.0,0.6794257080036914,,,,,,,,,,0.0,3.0,3.0,10.0,222.24029341699497,,,,,,,,,,,,,,,,,222.23068316699937,222.32838287499908,223.12415141699603,223.11219912499652,,,,,,,,,,,,,,,,,,,,,,,,,,,,,,,,,,,223.11671929199656,223.12415141699603,223.12415141699603,223.8138745420001,g,1.0,0.6794257080036914,,,,,,sub-124,1,stroop_test,120.04315552159557,
,,,,4.0,4.0,0.0,,,,,,,,,,,,,gelb,yellow,g,1.0,g,1.0,0.7052281250071246,,,,,,,,,,0.0,4.0,4.0,11.0,223.82531908300007,,,,,,,,,,,,,,,,,223.81462525000097,223.9119589579932,224.7037939580041,224.6955894999992,,,,,,,,,,,,,,,,,,,,,,,,,,,,,,,,,,,224.6963405419956,224.7037939580041,224.7037939580041,225.41335158300356,g,1.0,0.7052281250071246,,,,,,sub-124,1,stroop_test,120.04315552159557,
,,,,5.0,5.0,0.0,,,,,,,,,,,,,gelb,red,r,0.0,r,1.0,0.6637383329943987,,,,,,,,,,0.0,5.0,5.0,8.0,225.4237589169934,,,,,,,,,,,,,,,,,225.4140040420025,225.76195041699972,226.5532732080028,226.5455116249941,,,,,,,,,,,,,,,,,,,,,,,,,,,,,,,,,,,226.54618362500327,226.5532732080028,226.5532732080028,227.21980529199936,r,1.0,0.6637383329943987,,,,,,sub-124,1,stroop_test,120.04315552159557,
,,,,6.0,6.0,0.0,,,,,,,,,,,,,rot,red,r,1.0,r,1.0,0.7175367909949273,,,,,,,,,,0.0,6.0,6.0,0.0,227.2450183329929,,,,,,,,,,,,,,,,,227.22051258299325,227.56976162499632,228.374231416994,228.36226058300235,,,,,,,,,,,,,,,,,,,,,,,,,,,,,,,,,,,228.36634100000083,228.374231416994,228.374231416994,229.0966639580001,r,1.0,0.7175367909949273,,,,,,sub-124,1,stroop_test,120.04315552159557,
,,,,7.0,7.0,0.0,,,,,,,,,,,,,blau,yellow,g,0.0,g,1.0,0.7328787919977913,,,,,,,,,,0.0,7.0,7.0,7.0,229.1073662080016,,,,,,,,,,,,,,,,,229.09732020800584,230.29497958300635,231.0906832920009,231.0787868329935,,,,,,,,,,,,,,,,,,,,,,,,,,,,,,,,,,,231.0836041250004,231.0906832920009,231.0906832920009,231.8302227499953,g,1.0,0.7328787919977913,,,,,,sub-124,1,stroop_test,120.04315552159557,
,,,,8.0,8.0,0.0,,,,,,,,,,,,,rot,blue,b,0.0,b,1.0,0.8849492080044001,,,,,,,,,,0.0,8.0,8.0,2.0,231.83902391699667,,,,,,,,,,,,,,,,,231.83073400000285,232.62865691700424,233.42430158299976,233.41236274999392,,,,,,,,,,,,,,,,,,,,,,,,,,,,,,,,,,,233.41668995800137,233.42430158299976,233.42430158299976,234.3133105830057,b,1.0,0.8849492080044001,,,,,,sub-124,1,stroop_test,120.04315552159557,
,,,,9.0,9.0,0.0,,,,,,,,,,,,,blau,blue,b,1.0,b,1.0,0.8108774160064058,,,,,,,,,,0.0,9.0,9.0,6.0,234.32372549999852,,,,,,,,,,,,,,,,,234.31391349999467,235.1120557079994,235.90831670799523,235.8956551250012,,,,,,,,,,,,,,,,,,,,,,,,,,,,,,,,,,,235.90131045799356,235.90831670799523,235.90831670799523,236.73014445799345,b,1.0,0.8108774160064058,,,,,,sub-124,1,stroop_test,120.04315552159557,
,,,,10.0,10.0,0.0,,,,,,,,,,,,,blau,red,r,0.0,r,1.0,0.7909534999926109,,,,,,,,,,0.0,10.0,10.0,4.0,236.73951945800215,,,,,,,,,,,,,,,,,236.7307669580041,237.52821979200235,238.32113912499332,238.31241733299976,,,,,,,,,,,,,,,,,,,,,,,,,,,,,,,,,,,238.313326375006,238.32113912499332,238.32113912499332,239.1134514580044,r,1.0,0.7909534999926109,,,,,,sub-124,1,stroop_test,120.04315552159557,
,,,,11.0,11.0,0.0,,,,,,,,,,,,,gelb,blue,b,0.0,b,1.0,0.5412800839985721,,,,,,,,,,0.0,11.0,11.0,9.0,239.1233830830024,,,,,,,,,,,,,,,,,239.11407541700464,240.3115881249978,241.108468624996,241.0957604169962,,,,,,,,,,,,,,,,,,,,,,,,,,,,,,,,,,,241.1009892919974,241.108468624996,241.108468624996,241.65327554200485,b,1.0,0.5412800839985721,,,,,,sub-124,1,stroop_test,120.04315552159557,
,,,,12.0,0.0,1.0,,,,,,,,,,,,,gelb,yellow,g,1.0,g,1.0,0.7054571250046138,,,,,,,,,,1.0,0.0,12.0,10.0,241.6642667499982,,,,,,,,,,,,,,,,,241.65390416700396,241.7529368749965,242.5542243749951,242.54587454200373,,,,,,,,,,,,,,,,,,,,,,,,,,,,,,,,,,,242.54664158300147,242.5542243749951,242.5542243749951,243.2636011249997,g,1.0,0.7054571250046138,,,,,,sub-124,1,stroop_test,120.04315552159557,
,,,,13.0,1.0,1.0,,,,,,,,,,,,,gelb,blue,b,0.0,b,1.0,0.827402416995028,,,,,,,,,,1.0,1.0,13.0,9.0,243.27409129199805,,,,,,,,,,,,,,,,,243.26426241699664,243.3621275000041,244.15426650000157,244.14594499999657,,,,,,,,,,,,,,,,,,,,,,,,,,,,,,,,,,,244.1466944580025,244.15426650000157,244.15426650000157,244.98648666699592,b,1.0,0.827402416995028,,,,,,sub-124,1,stroop_test,120.04315552159557,
,,,,14.0,2.0,1.0,,,,,,,,,,,,,rot,red,r,1.0,r,1.0,0.5990172500023618,,,,,,,,,,1.0,2.0,14.0,1.0,245.01184691699743,,,,,,,,,,,,,,,,,244.98706270799448,245.78528279199963,246.5813059170032,246.5690507919935,,,,,,,,,,,,,,,,,,,,,,,,,,,,,,,,,,,246.57409329200163,246.5813059170032,246.5813059170032,247.1867196670064,r,1.0,0.5990172500023618,,,,,,sub-124,1,stroop_test,120.04315552159557,
,,,,15.0,3.0,1.0,,,,,,,,,,,,,blau,blue,b,1.0,b,1.0,0.6219939580041682,,,,,,,,,,1.0,3.0,15.0,6.0,247.1975542919972,,,,,,,,,,,,,,,,,247.1873600419931,248.3851855419925,249.1810048329935,249.16898283299813,,,,,,,,,,,,,,,,,,,,,,,,,,,,,,,,,,,249.17342974999335,249.1810048329935,249.1810048329935,249.813473000002,b,1.0,0.6219939580041682,,,,,,sub-124,1,stroop_test,120.04315552159557,
,,,,16.0,4.0,1.0,,,,,,,,,,,,,gelb,red,r,0.0,r,1.0,1.0388305000087712,,,,,,,,,,1.0,4.0,16.0,8.0,249.82342087499276,,,,,,,,,,,,,,,,,249.8140536669962,250.6121867079928,251.4078279999958,251.39582458299992,,,,,,,,,,,,,,,,,,,,,,,,,,,,,,,,,,,251.40008316699823,251.4078279999958,251.4078279999958,252.45315479200508,r,1.0,1.0388305000087712,,,,,,sub-124,1,stroop_test,120.04315552159557,
,,,,17.0,5.0,1.0,,,,,,,,,,,,,blau,red,r,0.0,r,1.0,0.76811699999962,,,,,,,,,,1.0,5.0,17.0,4.0,252.4785570420063,,,,,,,,,,,,,,,,,252.45380858299905,253.6529097080056,254.45753924999732,254.44591900000523,,,,,,,,,,,,,,,,,,,,,,,,,,,,,,,,,,,254.4500143329933,254.45753924999732,254.45753924999732,255.2303404169943,r,1.0,0.76811699999962,,,,,,sub-124,1,stroop_test,120.04315552159557,
,,,,18.0,6.0,1.0,,,,,,,,,,,,,rot,blue,b,0.0,b,1.0,0.5253971250058385,,,,,,,,,,1.0,6.0,18.0,2.0,255.2404522080033,,,,,,,,,,,,,,,,,255.23095895799636,256.4287855830044,257.2284988330066,257.21265395800583,,,,,,,,,,,,,,,,,,,,,,,,,,,,,,,,,,,257.2213004579972,257.2284988330066,257.2284988330066,257.7637391669996,b,1.0,0.5253971250058385,,,,,,sub-124,1,stroop_test,120.04315552159557,
,,,,19.0,7.0,1.0,,,,,,,,,,,,,gelb,yellow,g,1.0,g,1.0,0.656012292005471,,,,,,,,,,1.0,7.0,19.0,11.0,257.7751183329965,,,,,,,,,,,,,,,,,257.764367708005,258.9623008329945,259.7588969579956,259.74600166699383,,,,,,,,,,,,,,,,,,,,,,,,,,,,,,,,,,,259.75122245799867,259.7588969579956,259.7588969579956,260.4201601249952,g,1.0,0.656012292005471,,,,,,sub-124,1,stroop_test,120.04315552159557,
,,,,20.0,8.0,1.0,,,,,,,,,,,,,rot,yellow,g,0.0,g,1.0,0.7320297909900546,,,,,,,,,,1.0,8.0,20.0,3.0,260.4453078749939,,,,,,,,,,,,,,,,,260.4206729169964,261.21958691699547,262.024861124999,262.01263595800265,,,,,,,,,,,,,,,,,,,,,,,,,,,,,,,,,,,262.0172406670026,262.024861124999,262.024861124999,262.7637733330048,g,1.0,0.7320297909900546,,,,,,sub-124,1,stroop_test,120.04315552159557,
,,,,21.0,9.0,1.0,,,,,,,,,,,,,blau,blue,b,1.0,b,1.0,0.8895114999904763,,,,,,,,,,1.0,9.0,21.0,5.0,262.77449637500104,,,,,,,,,,,,,,,,,262.7643878329982,262.8614334169979,263.657894457996,263.64594379199843,,,,,,,,,,,,,,,,,,,,,,,,,,,,,,,,,,,263.650721375001,263.657894457996,263.657894457996,264.5532510829944,b,1.0,0.8895114999904763,,,,,,sub-124,1,stroop_test,120.04315552159557,
,,,,22.0,10.0,1.0,,,,,,,,,,,,,blau,yellow,g,0.0,g,1.0,1.138332624992472,,,,,,,,,,1.0,10.0,22.0,7.0,264.56268954199913,,,,,,,,,,,,,,,,,264.5537612079934,265.75302316699526,266.54516037499707,266.5358453749941,,,,,,,,,,,,,,,,,,,,,,,,,,,,,,,,,,,266.53665774999536,266.54516037499707,266.54516037499707,267.6868732919975,g,1.0,1.138332624992472,,,,,,sub-124,1,stroop_test,120.04315552159557,
,,,,23.0,11.0,1.0,,,,,,,,,,,,,rot,red,r,1.0,r,1.0,0.6475259579892736,,,,,,,,,,1.0,11.0,23.0,0.0,267.6971641669952,,,,,,,,,,,,,,,,,267.6875217920024,267.7864819170063,268.5911857080064,268.5791791670053,,,,,,,,,,,,,,,,,,,,,,,,,,,,,,,,,,,268.58357458299724,268.5911857080064,268.5911857080064,269.2471575829986,r,1.0,0.6475259579892736,,,,,,sub-124,1,stroop_test,120.04315552159557,
,,,,24.0,0.0,2.0,,,,,,,,,,,,,blau,blue,b,1.0,b,1.0,1.0540653339994606,,,,,,,,,,2.0,0.0,24.0,6.0,269.25794333299564,,,,,,,,,,,,,,,,,269.2477950829925,269.5954250829964,270.3909515830019,270.3793663329998,,,,,,,,,,,,,,,,,,,,,,,,,,,,,,,,,,,270.3836226669955,270.3909515830019,270.3909515830019,271.44731266700546,b,1.0,1.0540653339994606,,,,,,sub-124,1,stroop_test,120.04315552159557,
,,,,25.0,1.0,2.0,,,,,,,,,,,,,gelb,yellow,g,1.0,g,1.0,0.7508881660032785,,,,,,,,,,2.0,1.0,25.0,11.0,271.4582362079964,,,,,,,,,,,,,,,,,271.448104916999,272.6452860830032,273.4414921669959,273.4294054170023,,,,,,,,,,,,,,,,,,,,,,,,,,,,,,,,,,,273.43376062500465,273.4414921669959,273.4414921669959,274.19685162500537,g,1.0,0.7508881660032785,,,,,,sub-124,1,stroop_test,120.04315552159557,
,,,,26.0,2.0,2.0,,,,,,,,,,,,,gelb,blue,b,0.0,b,1.0,1.045743709008093,,,,,,,,,,2.0,2.0,26.0,9.0,274.20680320799875,,,,,,,,,,,,,,,,,274.1974235420057,274.5458019999933,275.33767379200435,275.3294463750062,,,,,,,,,,,,,,,,,,,,,,,,,,,,,,,,,,,275.3302169999952,275.33767379200435,275.33767379200435,276.3862050000025,b,1.0,1.045743709008093,,,,,,sub-124,1,stroop_test,120.04315552159557,
,,,,27.0,3.0,2.0,,,,,,,,,,,,,blau,yellow,g,0.0,g,1.0,0.8703987499902723,,,,,,,,,,2.0,3.0,27.0,7.0,276.3952807500027,,,,,,,,,,,,,,,,,276.3868724579952,276.7363322080055,277.5429269169981,277.52955154200026,,,,,,,,,,,,,,,,,,,,,,,,,,,,,,,,,,,277.5352254169993,277.5429269169981,277.5429269169981,278.4195304580062,g,1.0,0.8703987499902723,,,,,,sub-124,1,stroop_test,120.04315552159557,
,,,,28.0,4.0,2.0,,,,,,,,,,,,,gelb,yellow,g,1.0,g,1.0,0.6790924999950221,,,,,,,,,,2.0,4.0,28.0,10.0,278.42944195799646,,,,,,,,,,,,,,,,,278.420182707996,279.2196381669928,280.02473725000164,280.0128050420026,,,,,,,,,,,,,,,,,,,,,,,,,,,,,,,,,,,280.0173214170063,280.02473725000164,280.02473725000164,280.7142207500001,g,1.0,0.6790924999950221,,,,,,sub-124,1,stroop_test,120.04315552159557,
,,,,29.0,5.0,2.0,,,,,,,,,,,,,blau,red,r,0.0,r,1.0,0.7642862499924377,,,,,,,,,,2.0,5.0,29.0,4.0,280.7258555000008,,,,,,,,,,,,,,,,,280.7149645000027,281.5125420830009,282.30934599999455,282.2963188330032,,,,,,,,,,,,,,,,,,,,,,,,,,,,,,,,,,,282.3016075420019,282.30934599999455,282.30934599999455,283.0802795000054,r,1.0,0.7642862499924377,,,,,,sub-124,1,stroop_test,120.04315552159557,
,,,,30.0,6.0,2.0,,,,,,,,,,,,,rot,blue,b,0.0,b,1.0,1.0929585420090009,,,,,,,,,,2.0,6.0,30.0,2.0,283.08963795799355,,,,,,,,,,,,,,,,,283.08084016699286,283.8791690420039,284.674495416999,284.6628358330054,,,,,,,,,,,,,,,,,,,,,,,,,,,,,,,,,,,284.6670816669939,284.674495416999,284.674495416999,285.77060674999666,b,1.0,1.0929585420090009,,,,,,sub-124,1,stroop_test,120.04315552159557,
,,,,31.0,7.0,2.0,,,,,,,,,,,,,blau,blue,b,1.0,b,1.0,0.6220950419956353,,,,,,,,,,2.0,7.0,31.0,5.0,285.78161649999674,,,,,,,,,,,,,,,,,285.7713514579955,286.968993167,287.77517008299765,287.76291812499403,,,,,,,,,,,,,,,,,,,,,,,,,,,,,,,,,,,287.7679909169965,287.77517008299765,287.77517008299765,288.4036376669974,b,1.0,0.6220950419956353,,,,,,sub-124,1,stroop_test,120.04315552159557,
,,,,32.0,8.0,2.0,,,,,,,,,,,,,rot,yellow,g,0.0,g,1.0,0.9636153339961312,,,,,,,,,,2.0,8.0,32.0,3.0,288.4127907499933,,,,,,,,,,,,,,,,,288.40426212499733,289.20365033300186,290.0085134999972,289.9962422079989,,,,,,,,,,,,,,,,,,,,,,,,,,,,,,,,,,,290.00068837500294,290.0085134999972,290.0085134999972,290.9812367919949,g,1.0,0.9636153339961312,,,,,,sub-124,1,stroop_test,120.04315552159557,
,,,,33.0,9.0,2.0,,,,,,,,,,,,,gelb,red,r,0.0,r,1.0,0.6974320829904173,,,,,,,,,,2.0,9.0,33.0,8.0,290.99274558300385,,,,,,,,,,,,,,,,,290.9819763330015,292.1788027080038,292.975192583006,292.9629349169991,,,,,,,,,,,,,,,,,,,,,,,,,,,,,,,,,,,292.9680194579996,292.975192583006,292.975192583006,293.6812152079947,r,1.0,0.6974320829904173,,,,,,sub-124,1,stroop_test,120.04315552159557,
,,,,34.0,10.0,2.0,,,,,,,,,,,,,rot,red,r,1.0,r,1.0,0.69626816699747,,,,,,,,,,2.0,10.0,34.0,1.0,293.69224879199464,,,,,,,,,,,,,,,,,293.68195458299306,294.8793277079967,295.6758210830012,295.66293333300564,,,,,,,,,,,,,,,,,,,,,,,,,,,,,,,,,,,295.66803804200026,295.6758210830012,295.6758210830012,296.3807640830055,r,1.0,0.69626816699747,,,,,,sub-124,1,stroop_test,120.04315552159557,
,,,,35.0,11.0,2.0,,,,,,,,,,,,,rot,red,r,1.0,r,1.0,0.5169859580055345,,,,,,,,,,2.0,11.0,35.0,0.0,296.3912559169985,,,,,,,,,,,,,,,,,296.3814229169948,296.47933979200025,297.2717148749944,297.262679499996,,,,,,,,,,,,,,,,,,,,,,,,,,,,,,,,,,,297.26361395799904,297.2717148749944,297.2717148749944,297.79747304199554,r,1.0,0.5169859580055345,,,,,,sub-124,1,stroop_test,120.04315552159557,
,,,,36.0,0.0,3.0,,,,,,,,,,,,,rot,red,r,1.0,r,1.0,0.5558404999901541,,,,,,,,,,3.0,0.0,36.0,1.0,297.8074255829997,,,,,,,,,,,,,,,,,297.7981328750029,298.1460170000064,298.9382202919951,298.92975316700176,,,,,,,,,,,,,,,,,,,,,,,,,,,,,,,,,,,298.9306969580066,298.9382202919951,298.9382202919951,299.4974829999992,r,1.0,0.5558404999901541,,,,,,sub-124,1,stroop_test,120.04315552159557,
,,,,37.0,1.0,3.0,,,,,,,,,,,,,gelb,yellow,g,1.0,g,1.0,0.6424933329981286,,,,,,,,,,3.0,1.0,37.0,10.0,299.5072479579976,,,,,,,,,,,,,,,,,299.49812954200024,300.6960276250029,301.4915496670001,301.4795202920068,,,,,,,,,,,,,,,,,,,,,,,,,,,,,,,,,,,301.48392512499413,301.4915496670001,301.4915496670001,302.13642166700447,g,1.0,0.6424933329981286,,,,,,sub-124,1,stroop_test,120.04315552159557,
,,,,38.0,2.0,3.0,,,,,,,,,,,,,rot,yellow,g,0.0,g,1.0,0.7297562919993652,,,,,,,,,,3.0,2.0,38.0,3.0,302.1624119579937,,,,,,,,,,,,,,,,,302.1370521670033,302.23686508300307,303.0422057919932,303.02981670800364,,,,,,,,,,,,,,,,,,,,,,,,,,,,,,,,,,,303.034470832994,303.0422057919932,303.0422057919932,303.78089579200605,g,1.0,0.7297562919993652,,,,,,sub-124,1,stroop_test,120.04315552159557,
,,,,39.0,3.0,3.0,,,,,,,,,,,,,rot,red,r,1.0,r,1.0,0.7978935830033151,,,,,,,,,,3.0,3.0,39.0,0.0,303.7910565829952,,,,,,,,,,,,,,,,,303.7815152080002,304.5794316669926,305.3712754169974,305.3629953329946,,,,,,,,,,,,,,,,,,,,,,,,,,,,,,,,,,,305.3637852079992,305.3712754169974,305.3712754169974,306.170773292004,r,1.0,0.7978935830033151,,,,,,sub-124,1,stroop_test,120.04315552159557,
,,,,40.0,4.0,3.0,,,,,,,,,,,,,blau,red,r,0.0,r,1.0,0.8401130830025068,,,,,,,,,,3.0,4.0,40.0,4.0,306.1809558749956,,,,,,,,,,,,,,,,,306.17141108299256,306.970473333,307.77502116700634,307.76309287500044,,,,,,,,,,,,,,,,,,,,,,,,,,,,,,,,,,,307.76725137500034,307.77502116700634,307.77502116700634,308.62038374999247,r,1.0,0.8401130830025068,,,,,,sub-124,1,stroop_test,120.04315552159557,
,,,,41.0,5.0,3.0,,,,,,,,,,,,,gelb,blue,b,0.0,b,1.0,0.6749454999953741,,,,,,,,,,3.0,5.0,41.0,9.0,308.64578183299454,,,,,,,,,,,,,,,,,308.6208975829941,308.96997979200387,309.7755753329984,309.7631640000036,,,,,,,,,,,,,,,,,,,,,,,,,,,,,,,,,,,309.7679860829958,309.7755753329984,309.7755753329984,310.4536560419947,b,1.0,0.6749454999953741,,,,,,sub-124,1,stroop_test,120.04315552159557,
,,,,42.0,6.0,3.0,,,,,,,,,,,,,rot,blue,b,0.0,b,1.0,0.795179166001617,,,,,,,,,,3.0,6.0,42.0,2.0,310.4791344169935,,,,,,,,,,,,,,,,,310.4542790830019,311.25360112500493,312.0584220000019,312.0464705829945,,,,,,,,,,,,,,,,,,,,,,,,,,,,,,,,,,,312.0506049579999,312.0584220000019,312.0584220000019,312.8645012920024,b,1.0,0.795179166001617,,,,,,sub-124,1,stroop_test,120.04315552159557,
,,,,43.0,7.0,3.0,,,,,,,,,,,,,blau,yellow,g,0.0,g,1.0,0.6067297080007847,,,,,,,,,,3.0,7.0,43.0,7.0,312.8753895419941,,,,,,,,,,,,,,,,,312.8652849999926,312.9621171250037,313.7591537499975,313.7464557079948,,,,,,,,,,,,,,,,,,,,,,,,,,,,,,,,,,,313.7518118750013,313.7591537499975,313.7591537499975,314.3702692079969,g,1.0,0.6067297080007847,,,,,,sub-124,1,stroop_test,120.04315552159557,
,,,,44.0,8.0,3.0,,,,,,,,,,,,,gelb,red,r,0.0,r,1.0,1.115490750002209,,,,,,,,,,3.0,8.0,44.0,8.0,314.39583104199846,,,,,,,,,,,,,,,,,314.3709424580011,315.1700560419995,315.9757457920059,315.9632372920023,,,,,,,,,,,,,,,,,,,,,,,,,,,,,,,,,,,315.9681270830042,315.9757457920059,315.9757457920059,317.09767795799416,r,1.0,1.115490750002209,,,,,,sub-124,1,stroop_test,120.04315552159557,
,,,,45.0,9.0,3.0,,,,,,,,,,,,,blau,blue,b,1.0,b,1.0,0.6981914170028176,,,,,,,,,,3.0,9.0,45.0,5.0,317.10685887500586,,,,,,,,,,,,,,,,,317.0982159580017,317.1961192500021,317.9913311249984,317.9795421250019,,,,,,,,,,,,,,,,,,,,,,,,,,,,,,,,,,,317.98402408299444,317.9913311249984,317.9913311249984,318.6980821250036,b,1.0,0.6981914170028176,,,,,,sub-124,1,stroop_test,120.04315552159557,
,,,,46.0,10.0,3.0,,,,,,,,,,,,,gelb,yellow,g,1.0,g,1.0,0.5664413750055246,,,,,,,,,,3.0,10.0,46.0,11.0,318.70870970799297,,,,,,,,,,,,,,,,,318.6988008329936,319.49625962499704,320.2916112079984,320.2797114999994,,,,,,,,,,,,,,,,,,,,,,,,,,,,,,,,,,,320.2839919580001,320.2916112079984,320.2916112079984,320.8640370829962,g,1.0,0.5664413750055246,,,,,,sub-124,1,stroop_test,120.04315552159557,
,,,,47.0,11.0,3.0,,,,,,,,,,,,,blau,blue,b,1.0,b,1.0,0.6615714999934426,,,,,,,,,,3.0,11.0,47.0,6.0,320.8731488750054,,,,,,,,,,,,,,,,,320.86457283300115,320.96243941699504,321.7584492080059,321.7464089999994,,,,,,,,,,,,,,,,,,,,,,,,,,,,,,,,,,,321.7507105419936,321.7584492080059,321.7584492080059,322.4309979170066,b,1.0,0.6615714999934426,,,,,,sub-124,1,stroop_test,120.04315552159557,
,,,,48.0,0.0,4.0,,,,,,,,,,,,,blau,blue,b,1.0,b,1.0,0.6364063749933848,,,,,,,,,,4.0,0.0,48.0,6.0,322.4405096249975,,,,,,,,,,,,,,,,,322.4315989580064,323.62955391699506,324.42131033299665,324.4131171670015,,,,,,,,,,,,,,,,,,,,,,,,,,,,,,,,,,,324.41389020800125,324.42131033299665,324.42131033299665,325.0643601250049,b,1.0,0.6364063749933848,,,,,,sub-124,1,stroop_test,120.04315552159557,
,,,,49.0,1.0,4.0,,,,,,,,,,,,,blau,red,r,0.0,r,1.0,0.5960122919932473,,,,,,,,,,4.0,1.0,49.0,4.0,325.07449158300005,,,,,,,,,,,,,,,,,325.0650040000037,325.8626280419994,326.65485883300425,326.64656779200595,,,,,,,,,,,,,,,,,,,,,,,,,,,,,,,,,,,326.6473323329992,326.65485883300425,326.65485883300425,327.25414495800214,r,1.0,0.5960122919932473,,,,,,sub-124,1,stroop_test,120.04315552159557,
,,,,50.0,2.0,4.0,,,,,,,,,,,,,rot,red,r,1.0,r,1.0,0.7269805000105407,,,,,,,,,,4.0,2.0,50.0,1.0,327.2648590000026,,,,,,,,,,,,,,,,,327.25481204199605,327.35373929199704,328.1486744169961,328.1365015420015,,,,,,,,,,,,,,,,,,,,,,,,,,,,,,,,,,,328.14077908299805,328.1486744169961,328.1486744169961,328.88114491700253,r,1.0,0.7269805000105407,,,,,,sub-124,1,stroop_test,120.04315552159557,
,,,,51.0,3.0,4.0,,,,,,,,,,,,,blau,blue,b,1.0,b,1.0,0.6455423750012415,,,,,,,,,,4.0,3.0,51.0,5.0,328.8914287920052,,,,,,,,,,,,,,,,,328.88187937499606,329.2296228750056,330.025619292006,330.0132593330054,,,,,,,,,,,,,,,,,,,,,,,,,,,,,,,,,,,330.01852675000555,330.025619292006,330.025619292006,330.6813306249969,b,1.0,0.6455423750012415,,,,,,sub-124,1,stroop_test,120.04315552159557,
,,,,52.0,4.0,4.0,,,,,,,,,,,,,rot,blue,b,0.0,b,1.0,0.7772532920062076,,,,,,,,,,4.0,4.0,52.0,2.0,330.6924461250019,,,,,,,,,,,,,,,,,330.682095791999,331.02973545799614,331.82531200000085,331.8131612080033,,,,,,,,,,,,,,,,,,,,,,,,,,,,,,,,,,,331.8175209170004,331.82531200000085,331.82531200000085,332.6041097499983,b,1.0,0.7772532920062076,,,,,,sub-124,1,stroop_test,120.04315552159557,
,,,,53.0,5.0,4.0,,,,,,,,,,,,,rot,yellow,g,0.0,g,1.0,0.6565688329865225,,,,,,,,,,4.0,5.0,53.0,3.0,332.6144098749937,,,,,,,,,,,,,,,,,332.60470549999445,332.9540926250047,333.7556297499977,333.746728750004,,,,,,,,,,,,,,,,,,,,,,,,,,,,,,,,,,,333.7476430829993,333.7556297499977,333.7556297499977,334.4142768330057,g,1.0,0.6565688329865225,,,,,,sub-124,1,stroop_test,120.04315552159557,
,,,,54.0,6.0,4.0,,,,,,,,,,,,,gelb,yellow,g,1.0,g,1.0,0.5130301659955876,,,,,,,,,,4.0,6.0,54.0,11.0,334.423968957999,,,,,,,,,,,,,,,,,334.4148768330051,334.7630434169987,335.5582966249931,335.5466524170042,,,,,,,,,,,,,,,,,,,,,,,,,,,,,,,,,,,335.5510145419976,335.5582966249931,335.5582966249931,336.0812205830007,g,1.0,0.5130301659955876,,,,,,sub-124,1,stroop_test,120.04315552159557,
,,,,55.0,7.0,4.0,,,,,,,,,,,,,rot,red,r,1.0,r,1.0,0.6216354999924079,,,,,,,,,,4.0,7.0,55.0,0.0,336.0914029580017,,,,,,,,,,,,,,,,,336.08186670800205,336.1798992499971,336.9752465000056,336.963360416994,,,,,,,,,,,,,,,,,,,,,,,,,,,,,,,,,,,336.9677754580043,336.9752465000056,336.9752465000056,337.6032572499971,r,1.0,0.6216354999924079,,,,,,sub-124,1,stroop_test,120.04315552159557,
,,,,56.0,8.0,4.0,,,,,,,,,,,,,gelb,yellow,g,1.0,g,1.0,0.6368397909973282,,,,,,,,,,4.0,8.0,56.0,10.0,337.613351292006,,,,,,,,,,,,,,,,,337.60387283300224,337.9531694579928,338.75944570799766,338.7468194169924,,,,,,,,,,,,,,,,,,,,,,,,,,,,,,,,,,,338.7518212499999,338.75944570799766,338.75944570799766,339.397724208,g,1.0,0.6368397909973282,,,,,,sub-124,1,stroop_test,120.04315552159557,
,,,,57.0,9.0,4.0,,,,,,,,,,,,,gelb,blue,b,0.0,b,1.0,0.7410956249950686,,,,,,,,,,4.0,9.0,57.0,9.0,339.4074616669968,,,,,,,,,,,,,,,,,339.3983709580061,340.5963987919968,341.38797120799427,341.37989187499625,,,,,,,,,,,,,,,,,,,,,,,,,,,,,,,,,,,341.3806814580021,341.38797120799427,341.38797120799427,342.1312121249939,b,1.0,0.7410956249950686,,,,,,sub-124,1,stroop_test,120.04315552159557,
,,,,58.0,10.0,4.0,,,,,,,,,,,,,gelb,red,r,0.0,r,1.0,0.7614596250059549,,,,,,,,,,4.0,10.0,58.0,8.0,342.1416417500004,,,,,,,,,,,,,,,,,342.13187158299843,342.22907754199696,343.0223422499985,343.0135410829971,,,,,,,,,,,,,,,,,,,,,,,,,,,,,,,,,,,343.01451012499456,343.0223422499985,343.0223422499985,343.7876361249946,r,1.0,0.7614596250059549,,,,,,sub-124,1,stroop_test,120.04315552159557,
,,,,59.0,11.0,4.0,,,,,,,,,,,,,blau,yellow,g,0.0,g,1.0,0.7454527920053806,,,,,,,,,,4.0,11.0,59.0,7.0,343.7983336250036,,,,,,,,,,,,,,,,,343.7882961669966,344.5869510000048,345.38229220799985,345.3700465830043,,,,,,,,,,,,,,,,,,,,,,,,,,,,,,,,,,,345.375180832998,345.38229220799985,345.38229220799985,346.1315262919961,g,1.0,0.7454527920053806,,,,,,sub-124,1,stroop_test,120.04315552159557,
,,,,60.0,0.0,5.0,,,,,,,,,,,,,blau,yellow,g,0.0,g,1.0,0.5122634159924928,,,,,,,,,,5.0,0.0,60.0,7.0,346.14350254199235,,,,,,,,,,,,,,,,,346.13228237499425,346.4797682079952,347.2719157919928,347.2634330830042,,,,,,,,,,,,,,,,,,,,,,,,,,,,,,,,,,,347.2641981250053,347.2719157919928,347.2719157919928,347.787895417001,g,1.0,0.5122634159924928,,,,,,sub-124,1,stroop_test,120.04315552159557,
,,,,61.0,1.0,5.0,,,,,,,,,,,,,blau,red,r,0.0,r,1.0,1.1856798749940936,,,,,,,,,,5.0,1.0,61.0,4.0,347.81281537500035,,,,,,,,,,,,,,,,,347.7885704579967,348.5870874999964,349.3888699999952,349.3802147079987,,,,,,,,,,,,,,,,,,,,,,,,,,,,,,,,,,,349.38113495800644,349.3888699999952,349.3888699999952,350.5813548750011,r,1.0,1.1856798749940936,,,,,,sub-124,1,stroop_test,120.04315552159557,
,,,,62.0,2.0,5.0,,,,,,,,,,,,,gelb,red,r,0.0,r,1.0,0.5644119579956168,,,,,,,,,,5.0,2.0,62.0,8.0,350.5910617920017,,,,,,,,,,,,,,,,,350.5819882920041,350.9299120420037,351.7259684169985,351.71332241699565,,,,,,,,,,,,,,,,,,,,,,,,,,,,,,,,,,,351.71896774999914,351.7259684169985,351.7259684169985,352.29796799999895,r,1.0,0.5644119579956168,,,,,,sub-124,1,stroop_test,120.04315552159557,
,,,,63.0,3.0,5.0,,,,,,,,,,,,,rot,red,r,1.0,r,1.0,0.6119518340128707,,,,,,,,,,5.0,3.0,63.0,0.0,352.3080040420027,,,,,,,,,,,,,,,,,352.2986697919987,353.4965288749954,354.2925161250023,354.2800824169972,,,,,,,,,,,,,,,,,,,,,,,,,,,,,,,,,,,354.28508716699434,354.2925161250023,354.2925161250023,354.91472000000067,r,1.0,0.6119518340128707,,,,,,sub-124,1,stroop_test,120.04315552159557,
,,,,64.0,4.0,5.0,,,,,,,,,,,,,blau,blue,b,1.0,b,1.0,0.8010519160015974,,,,,,,,,,5.0,4.0,64.0,5.0,354.924953416994,,,,,,,,,,,,,,,,,354.9153202919988,355.0132045420032,355.808800083003,355.7966677079967,,,,,,,,,,,,,,,,,,,,,,,,,,,,,,,,,,,355.8014547079947,355.808800083003,355.808800083003,356.6143192500021,b,1.0,0.8010519160015974,,,,,,sub-124,1,stroop_test,120.04315552159557,
,,,,65.0,5.0,5.0,,,,,,,,,,,,,rot,red,r,1.0,r,1.0,0.5760909999953583,,,,,,,,,,5.0,5.0,65.0,1.0,356.62423158300226,,,,,,,,,,,,,,,,,356.61487966700224,357.81283879200055,358.6086305420031,358.5967227079964,,,,,,,,,,,,,,,,,,,,,,,,,,,,,,,,,,,358.60085820799577,358.6086305420031,358.6086305420031,359.18785016699985,r,1.0,0.5760909999953583,,,,,,sub-124,1,stroop_test,120.04315552159557,
,,,,66.0,6.0,5.0,,,,,,,,,,,,,gelb,yellow,g,1.0,g,1.0,0.6667486660007853,,,,,,,,,,5.0,6.0,66.0,10.0,359.1980946669937,,,,,,,,,,,,,,,,,359.188452375005,359.5371666249994,360.34272058299393,360.3303536250023,,,,,,,,,,,,,,,,,,,,,,,,,,,,,,,,,,,360.33498329200665,360.34272058299393,360.34272058299393,361.0149791250005,g,1.0,0.6667486660007853,,,,,,sub-124,1,stroop_test,120.04315552159557,
,,,,67.0,7.0,5.0,,,,,,,,,,,,,rot,yellow,g,0.0,g,1.0,1.0866277080058353,,,,,,,,,,5.0,7.0,67.0,3.0,361.0258365420013,,,,,,,,,,,,,,,,,361.01562599999306,361.1133069170028,361.9094181669934,361.8969113750063,,,,,,,,,,,,,,,,,,,,,,,,,,,,,,,,,,,361.9019290830038,361.9094181669934,361.9094181669934,362.9978732080053,g,1.0,1.0866277080058353,,,,,,sub-124,1,stroop_test,120.04315552159557,
,,,,68.0,8.0,5.0,,,,,,,,,,,,,rot,blue,b,0.0,r,0.0,0.6186861659953138,,,,,,,,,,5.0,8.0,68.0,2.0,363.0085326669941,,,,,,,,,,,,,,,,,362.9985606669943,363.3460860420018,364.1394667919958,364.13039708300494,,,,,,,,,,,,,,,,,,,,,,,,,,,,,,,,,,,364.1313224579935,364.1394667919958,364.1394667919958,364.7652897920052,r,0.0,0.6186861659953138,,,,,,sub-124,1,stroop_test,120.04315552159557,
,,,,69.0,9.0,5.0,,,,,,,,,,,,,gelb,yellow,g,1.0,g,1.0,0.7717274159949739,,,,,,,,,,5.0,9.0,69.0,11.0,364.7799297500024,,,,,,,,,,,,,,,,,364.7658389999997,365.56286170799285,366.3589801670023,366.3469279169949,,,,,,,,,,,,,,,,,,,,,,,,,,,,,,,,,,,366.3511811670032,366.3589801670023,366.3589801670023,367.1377736249997,g,1.0,0.7717274159949739,,,,,,sub-124,1,stroop_test,120.04315552159557,
,,,,70.0,10.0,5.0,,,,,,,,,,,,,gelb,blue,b,0.0,b,1.0,3.366256790992338,,,,,,,,,,5.0,10.0,70.0,9.0,367.1485745420068,,,,,,,,,,,,,,,,,367.1383975000063,368.33775787499326,369.1385309579928,369.13016916699416,,,,,,,,,,,,,,,,,,,,,,,,,,,,,,,,,,,369.1309417080047,369.1385309579928,369.1385309579928,372.5148858330067,b,1.0,3.366256790992338,,,,,,sub-124,1,stroop_test,120.04315552159557,
,,,,71.0,11.0,5.0,,,,,,,,,,,,,blau,blue,b,1.0,b,1.0,0.5987690000038128,,,,,,,,,,5.0,11.0,71.0,6.0,372.5253775830061,,,,,,,,,,,,,,,,,372.5155364579987,372.86275691700575,373.6594734999962,373.6468608330033,,,,,,,,,,,,,,,,,,,,,,,,,,,,,,,,,,,373.6522515419929,373.6594734999962,373.6594734999962,374.2648848329991,b,1.0,0.5987690000038128,,,,,,sub-124,1,stroop_test,120.04315552159557,
,,,,72.0,0.0,6.0,,,,,,,,,,,,,blau,blue,b,1.0,b,1.0,0.6681800419901265,,,,,,,,,,6.0,0.0,72.0,5.0,374.27522500000487,,,,,,,,,,,,,,,,,374.2655053329945,375.4633597499924,376.25535508300527,376.2471037079959,,,,,,,,,,,,,,,,,,,,,,,,,,,,,,,,,,,376.247861833006,376.25535508300527,376.25535508300527,376.9317252500041,b,1.0,0.6681800419901265,,,,,,sub-124,1,stroop_test,120.04315552159557,
,,,,73.0,1.0,6.0,,,,,,,,,,,,,gelb,red,r,0.0,g,0.0,1.1333976250025444,,,,,,,,,,6.0,1.0,73.0,8.0,376.9424512919941,,,,,,,,,,,,,,,,,376.9323607499973,377.0299282500055,377.826416750002,377.8137974580022,,,,,,,,,,,,,,,,,,,,,,,,,,,,,,,,,,,377.8187278330006,377.826416750002,377.826416750002,378.9650463750004,g,0.0,1.1333976250025444,,,,,,sub-124,1,stroop_test,120.04315552159557,
,,,,74.0,2.0,6.0,,,,,,,,,,,,,gelb,yellow,g,1.0,g,1.0,0.6560246250010096,,,,,,,,,,6.0,2.0,74.0,11.0,378.97572241700254,,,,,,,,,,,,,,,,,378.96567633299856,379.06308279199584,379.8550875829969,379.8469272499933,,,,,,,,,,,,,,,,,,,,,,,,,,,,,,,,,,,379.8476884999982,379.8550875829969,379.8550875829969,380.5144649580034,g,1.0,0.6560246250010096,,,,,,sub-124,1,stroop_test,120.04315552159557,
,,,,75.0,3.0,6.0,,,,,,,,,,,,,blau,red,r,0.0,r,1.0,1.5498187089979183,,,,,,,,,,6.0,3.0,75.0,4.0,380.5239673750039,,,,,,,,,,,,,,,,,380.5150163329963,380.8630994999985,381.6598997499968,381.6471979170019,,,,,,,,,,,,,,,,,,,,,,,,,,,,,,,,,,,381.6522851670016,381.6598997499968,381.6598997499968,383.21477062499616,r,1.0,1.5498187089979183,,,,,,sub-124,1,stroop_test,120.04315552159557,
,,,,76.0,4.0,6.0,,,,,,,,,,,,,gelb,yellow,g,1.0,g,1.0,0.8068619999976363,,,,,,,,,,6.0,4.0,76.0,10.0,383.2255753329955,,,,,,,,,,,,,,,,,383.2154333329963,384.01349162499537,384.8097651249991,384.7972329170007,,,,,,,,,,,,,,,,,,,,,,,,,,,,,,,,,,,384.802005791993,384.8097651249991,384.8097651249991,385.6214235829975,g,1.0,0.8068619999976363,,,,,,sub-124,1,stroop_test,120.04315552159557,
,,,,77.0,5.0,6.0,,,,,,,,,,,,,rot,red,r,1.0,r,1.0,0.696337958012009,,,,,,,,,,6.0,5.0,77.0,0.0,385.63202287499735,,,,,,,,,,,,,,,,,385.622082707996,386.820752707994,387.6255151249934,387.6137800830038,,,,,,,,,,,,,,,,,,,,,,,,,,,,,,,,,,,387.6184106669971,387.6255151249934,387.6255151249934,388.3316740000009,r,1.0,0.696337958012009,,,,,,sub-124,1,stroop_test,120.04315552159557,
,,,,78.0,6.0,6.0,,,,,,,,,,,,,rot,yellow,g,0.0,g,1.0,0.7692371250013821,,,,,,,,,,6.0,6.0,78.0,3.0,388.3414710829966,,,,,,,,,,,,,,,,,388.3323476249934,389.1302444169996,389.92215712499456,389.9139106670045,,,,,,,,,,,,,,,,,,,,,,,,,,,,,,,,,,,389.9147298750031,389.92215712499456,389.92215712499456,390.6981094579969,g,1.0,0.7692371250013821,,,,,,sub-124,1,stroop_test,120.04315552159557,
,,,,79.0,7.0,6.0,,,,,,,,,,,,,rot,blue,b,0.0,b,1.0,0.6693844159890432,,,,,,,,,,6.0,7.0,79.0,2.0,390.7089304580004,,,,,,,,,,,,,,,,,390.6987653749966,390.7965808750014,391.588767082998,391.5805225829972,,,,,,,,,,,,,,,,,,,,,,,,,,,,,,,,,,,391.5813040000066,391.588767082998,391.588767082998,392.2650779579999,b,1.0,0.6693844159890432,,,,,,sub-124,1,stroop_test,120.04315552159557,
,,,,80.0,8.0,6.0,,,,,,,,,,,,,gelb,blue,b,0.0,b,1.0,1.5244372080051107,,,,,,,,,,6.0,8.0,80.0,9.0,392.2751142500056,,,,,,,,,,,,,,,,,392.26574204200006,393.4633807500068,394.25944141700165,394.2472642920038,,,,,,,,,,,,,,,,,,,,,,,,,,,,,,,,,,,394.251656374996,394.25944141700165,394.25944141700165,395.7877673329931,b,1.0,1.5244372080051107,,,,,,sub-124,1,stroop_test,120.04315552159557,
,,,,81.0,9.0,6.0,,,,,,,,,,,,,rot,red,r,1.0,r,1.0,1.0428242910129484,,,,,,,,,,6.0,9.0,81.0,1.0,395.7969612080051,,,,,,,,,,,,,,,,,395.7883423750027,396.13690512499306,396.9325467500021,396.9196297080052,,,,,,,,,,,,,,,,,,,,,,,,,,,,,,,,,,,396.9250746670005,396.9325467500021,396.9325467500021,397.9813990419934,r,1.0,1.0428242910129484,,,,,,sub-124,1,stroop_test,120.04315552159557,
,,,,82.0,10.0,6.0,,,,,,,,,,,,,blau,blue,b,1.0,b,1.0,0.7793225420027738,,,,,,,,,,6.0,10.0,82.0,6.0,397.9911677920026,,,,,,,,,,,,,,,,,397.9819533749978,399.1802825420018,399.9766537079995,399.96401091699954,,,,,,,,,,,,,,,,,,,,,,,,,,,,,,,,,,,399.9691309579939,399.9766537079995,399.9766537079995,400.76507287500135,b,1.0,0.7793225420027738,,,,,,sub-124,1,stroop_test,120.04315552159557,
,,,,83.0,11.0,6.0,,,,,,,,,,,,,blau,yellow,g,0.0,g,1.0,1.8552974999911385,,,,,,,,,,6.0,11.0,83.0,7.0,400.7751719999942,,,,,,,,,,,,,,,,,400.7656929579971,401.563671750002,402.3558809999959,402.3472637920058,,,,,,,,,,,,,,,,,,,,,,,,,,,,,,,,,,,402.3482124169968,402.3558809999959,402.3558809999959,404.214969875,g,1.0,1.8552974999911385,,,,,,sub-124,1,stroop_test,120.04315552159557,
,,,,84.0,0.0,7.0,,,,,,,,,,,,,gelb,blue,b,0.0,b,1.0,0.7397140829998534,,,,,,,,,,7.0,0.0,84.0,9.0,404.22421095799655,,,,,,,,,,,,,,,,,404.2156629170058,405.4136369579937,406.20955041699926,406.1973779580003,,,,,,,,,,,,,,,,,,,,,,,,,,,,,,,,,,,406.20172604199615,406.20955041699926,406.20955041699926,406.9544737499964,b,1.0,0.7397140829998534,,,,,,sub-124,1,stroop_test,120.04315552159557,
,,,,85.0,1.0,7.0,,,,,,,,,,,,,rot,yellow,g,0.0,g,1.0,0.9635925829934422,,,,,,,,,,7.0,1.0,85.0,3.0,406.9799727079953,,,,,,,,,,,,,,,,,406.9551075000054,407.0577765829949,407.859839124998,407.8474405000016,,,,,,,,,,,,,,,,,,,,,,,,,,,,,,,,,,,407.8523026250041,407.859839124998,407.859839124998,408.83144779200666,g,1.0,0.9635925829934422,,,,,,sub-124,1,stroop_test,120.04315552159557,
,,,,86.0,2.0,7.0,,,,,,,,,,,,,gelb,yellow,g,1.0,g,1.0,0.6628486660047201,,,,,,,,,,7.0,2.0,86.0,11.0,408.8407770000049,,,,,,,,,,,,,,,,,408.83197679200384,409.6303584999987,410.42617966700345,410.4140291249933,,,,,,,,,,,,,,,,,,,,,,,,,,,,,,,,,,,410.4183835419972,410.42617966700345,410.42617966700345,411.0985913750046,g,1.0,0.6628486660047201,,,,,,sub-124,1,stroop_test,120.04315552159557,
,,,,87.0,3.0,7.0,,,,,,,,,,,,,blau,yellow,g,0.0,g,1.0,0.9967599579977104,,,,,,,,,,7.0,3.0,87.0,7.0,411.10879712499445,,,,,,,,,,,,,,,,,411.0992398329981,411.44708879200334,412.24260562499694,412.2306834170013,,,,,,,,,,,,,,,,,,,,,,,,,,,,,,,,,,,412.23554470800445,412.24260562499694,412.24260562499694,413.24855037500674,g,1.0,0.9967599579977104,,,,,,sub-124,1,stroop_test,120.04315552159557,
,,,,88.0,4.0,7.0,,,,,,,,,,,,,blau,red,r,0.0,r,1.0,0.8648872499907156,,,,,,,,,,7.0,4.0,88.0,4.0,413.2590780829924,,,,,,,,,,,,,,,,,413.2492043329985,413.3468902919994,414.13878983299946,414.1304925419972,,,,,,,,,,,,,,,,,,,,,,,,,,,,,,,,,,,414.1312840419996,414.13878983299946,414.13878983299946,415.0153568749956,r,1.0,0.8648872499907156,,,,,,sub-124,1,stroop_test,120.04315552159557,
,,,,89.0,5.0,7.0,,,,,,,,,,,,,rot,blue,b,0.0,b,1.0,1.0790268749988172,,,,,,,,,,7.0,5.0,89.0,2.0,415.0267571250006,,,,,,,,,,,,,,,,,415.0161276250001,415.8138173329935,416.6095563330018,416.5973138749978,,,,,,,,,,,,,,,,,,,,,,,,,,,,,,,,,,,416.6024492919969,416.6095563330018,416.6095563330018,417.6987625000038,b,1.0,1.0790268749988172,,,,,,sub-124,1,stroop_test,120.04315552159557,
,,,,90.0,6.0,7.0,,,,,,,,,,,,,blau,blue,b,1.0,b,1.0,0.6701241659902735,,,,,,,,,,7.0,6.0,90.0,6.0,417.7096420000016,,,,,,,,,,,,,,,,,417.69952091699815,417.79646983300336,418.59221062499273,418.5804847499967,,,,,,,,,,,,,,,,,,,,,,,,,,,,,,,,,,,418.5848784169939,418.59221062499273,418.59221062499273,419.2650794999936,b,1.0,0.6701241659902735,,,,,,sub-124,1,stroop_test,120.04315552159557,
,,,,91.0,7.0,7.0,,,,,,,,,,,,,rot,red,r,1.0,r,1.0,0.6622866250108927,,,,,,,,,,7.0,7.0,91.0,0.0,419.274928208004,,,,,,,,,,,,,,,,,419.2657250829943,420.063627083,420.8597232500033,420.847495916998,,,,,,,,,,,,,,,,,,,,,,,,,,,,,,,,,,,420.8522410830046,420.8597232500033,420.8597232500033,421.5319619170041,r,1.0,0.6622866250108927,,,,,,sub-124,1,stroop_test,120.04315552159557,
,,,,92.0,8.0,7.0,,,,,,,,,,,,,blau,blue,b,1.0,b,1.0,0.6310131250065751,,,,,,,,,,7.0,8.0,92.0,5.0,421.5423626669945,,,,,,,,,,,,,,,,,421.53258574999927,422.3302762499952,423.1260973330063,423.11419662499975,,,,,,,,,,,,,,,,,,,,,,,,,,,,,,,,,,,423.118863583004,423.1260973330063,423.1260973330063,423.7651886670064,b,1.0,0.6310131250065751,,,,,,sub-124,1,stroop_test,120.04315552159557,
,,,,93.0,9.0,7.0,,,,,,,,,,,,,rot,red,r,1.0,r,1.0,0.6364107920089737,,,,,,,,,,7.0,9.0,93.0,1.0,423.7751203329972,,,,,,,,,,,,,,,,,423.7657421250042,424.9637844999961,425.76067991700256,425.74763758300105,,,,,,,,,,,,,,,,,,,,,,,,,,,,,,,,,,,425.75274495799385,425.76067991700256,425.76067991700256,426.3986379580019,r,1.0,0.6364107920089737,,,,,,sub-124,1,stroop_test,120.04315552159557,
,,,,94.0,10.0,7.0,,,,,,,,,,,,,gelb,yellow,g,1.0,g,1.0,0.6717869169951882,,,,,,,,,,7.0,10.0,94.0,10.0,426.4088684169983,,,,,,,,,,,,,,,,,426.3992943750054,427.1966242500057,427.99257220799336,427.980867374994,,,,,,,,,,,,,,,,,,,,,,,,,,,,,,,,,,,427.9852464169962,427.99257220799336,427.99257220799336,428.67121254200174,g,1.0,0.6717869169951882,,,,,,sub-124,1,stroop_test,120.04315552159557,
,,,,95.0,11.0,7.0,,,,,,,,,,,,,gelb,red,r,0.0,r,1.0,1.0582900000008522,,,,,,,,,,7.0,11.0,95.0,8.0,428.6803668329958,,,,,,,,,,,,,,,,,428.67183008299617,428.7746127499995,429.5728242079931,429.5641753329983,,,,,,,,,,,,,,,,,,,,,,,,,,,,,,,,,,,429.564973917004,429.5728242079931,429.5728242079931,430.638440833005,r,1.0,1.0582900000008522,,,,,,sub-124,1,stroop_test,120.04315552159557,
,,,,96.0,0.0,8.0,,,,,,,,,,,,,blau,red,r,0.0,r,1.0,0.7312691249971977,,,,,,,,,,8.0,0.0,96.0,4.0,430.66359949999605,,,,,,,,,,,,,,,,,430.63916983299714,430.7383558330039,431.5426982079953,431.5307157920033,,,,,,,,,,,,,,,,,,,,,,,,,,,,,,,,,,,431.53555895799946,431.5426982079953,431.5426982079953,432.2821103330061,r,1.0,0.7312691249971977,,,,,,sub-124,1,stroop_test,120.04315552159557,
,,,,97.0,1.0,8.0,,,,,,,,,,,,,blau,blue,b,1.0,b,1.0,1.295181458001025,,,,,,,,,,8.0,1.0,97.0,5.0,432.2925682920031,,,,,,,,,,,,,,,,,432.2827413329942,433.08023995799886,433.87240670800384,433.8642399579985,,,,,,,,,,,,,,,,,,,,,,,,,,,,,,,,,,,433.8650107499998,433.87240670800384,433.87240670800384,435.1710484579962,b,1.0,1.295181458001025,,,,,,sub-124,1,stroop_test,120.04315552159557,
,,,,98.0,2.0,8.0,,,,,,,,,,,,,rot,red,r,1.0,r,1.0,0.7751019159913994,,,,,,,,,,8.0,2.0,98.0,0.0,435.1800178330013,,,,,,,,,,,,,,,,,435.1717804170039,435.2703909169941,436.0662164170062,436.0536011249933,,,,,,,,,,,,,,,,,,,,,,,,,,,,,,,,,,,436.0590109170007,436.0662164170062,436.0662164170062,436.8486237920006,r,1.0,0.7751019159913994,,,,,,sub-124,1,stroop_test,120.04315552159557,
,,,,99.0,3.0,8.0,,,,,,,,,,,,,rot,blue,b,0.0,b,1.0,1.0516322499897797,,,,,,,,,,8.0,3.0,99.0,2.0,436.8588700830005,,,,,,,,,,,,,,,,,436.8491562499985,437.646949957998,438.4396588749951,438.4310862919956,,,,,,,,,,,,,,,,,,,,,,,,,,,,,,,,,,,438.432020082997,438.4396588749951,438.4396588749951,439.49889674999577,b,1.0,1.0516322499897797,,,,,,sub-124,1,stroop_test,120.04315552159557,
,,,,100.0,4.0,8.0,,,,,,,,,,,,,gelb,yellow,g,1.0,g,1.0,0.805002584005706,,,,,,,,,,8.0,4.0,100.0,11.0,439.50894783300464,,,,,,,,,,,,,,,,,439.4995335830026,440.6968819169997,441.4936086249945,441.48106995799753,,,,,,,,,,,,,,,,,,,,,,,,,,,,,,,,,,,441.4858866669965,441.4936086249945,441.4936086249945,442.304655083004,g,1.0,0.805002584005706,,,,,,sub-124,1,stroop_test,120.04315552159557,
,,,,101.0,5.0,8.0,,,,,,,,,,,,,gelb,yellow,g,1.0,g,1.0,0.8166455419996055,,,,,,,,,,8.0,5.0,101.0,10.0,442.33033733299817,,,,,,,,,,,,,,,,,442.3052815419942,443.5046116250014,444.3059486669954,444.297668291998,,,,,,,,,,,,,,,,,,,,,,,,,,,,,,,,,,,444.29844866700296,444.3059486669954,444.3059486669954,445.13213891700434,g,1.0,0.8166455419996055,,,,,,sub-124,1,stroop_test,120.04315552159557,
,,,,102.0,6.0,8.0,,,,,,,,,,,,,rot,yellow,g,0.0,g,1.0,0.8289538340031868,,,,,,,,,,8.0,6.0,102.0,3.0,445.142921000006,,,,,,,,,,,,,,,,,445.1328114579956,445.48071312499815,446.27636420799536,446.2641328330064,,,,,,,,,,,,,,,,,,,,,,,,,,,,,,,,,,,446.2684020830056,446.27636420799536,446.27636420799536,447.115646374994,g,1.0,0.8289538340031868,,,,,,sub-124,1,stroop_test,120.04315552159557,
,,,,103.0,7.0,8.0,,,,,,,,,,,,,gelb,red,r,0.0,r,1.0,0.9477455830055987,,,,,,,,,,8.0,7.0,103.0,8.0,447.1273404999956,,,,,,,,,,,,,,,,,447.1164269169967,447.46358220800175,448.25970233300177,448.247703083005,,,,,,,,,,,,,,,,,,,,,,,,,,,,,,,,,,,448.2519664580032,448.25970233300177,448.25970233300177,449.2156150829978,r,1.0,0.9477455830055987,,,,,,sub-124,1,stroop_test,120.04315552159557,
,,,,104.0,8.0,8.0,,,,,,,,,,,,,gelb,blue,b,0.0,b,1.0,0.6973296669893898,,,,,,,,,,8.0,8.0,104.0,9.0,449.2263350419962,,,,,,,,,,,,,,,,,449.2162739579944,449.5637786250009,450.3566770420002,450.3478270420019,,,,,,,,,,,,,,,,,,,,,,,,,,,,,,,,,,,450.3487392499956,450.3566770420002,450.3566770420002,451.0655938330019,b,1.0,0.6973296669893898,,,,,,sub-124,1,stroop_test,120.04315552159557,
,,,,105.0,9.0,8.0,,,,,,,,,,,,,blau,blue,b,1.0,b,1.0,0.6828151660010917,,,,,,,,,,8.0,9.0,105.0,6.0,451.07561724999687,,,,,,,,,,,,,,,,,451.0662540000049,451.8636376670038,452.6602529579977,452.6477578329941,,,,,,,,,,,,,,,,,,,,,,,,,,,,,,,,,,,452.6527245420002,452.6602529579977,452.6602529579977,453.3488590000052,b,1.0,0.6828151660010917,,,,,,sub-124,1,stroop_test,120.04315552159557,
,,,,106.0,10.0,8.0,,,,,,,,,,,,,rot,red,r,1.0,r,1.0,0.5721795839926926,,,,,,,,,,8.0,10.0,106.0,1.0,453.35845229199913,,,,,,,,,,,,,,,,,453.3494813330035,453.6974429999973,454.4930413749971,454.4810156669992,,,,,,,,,,,,,,,,,,,,,,,,,,,,,,,,,,,454.4857317080023,454.4930413749971,454.4930413749971,455.071609666993,r,1.0,0.5721795839926926,,,,,,sub-124,1,stroop_test,120.04315552159557,
,,,,107.0,11.0,8.0,,,,,,,,,,,,,blau,yellow,g,0.0,g,1.0,0.6808514169970294,,,,,,,,,,8.0,11.0,107.0,7.0,455.09718850000354,,,,,,,,,,,,,,,,,455.0722593329992,455.17163087500376,455.978118250001,455.9645439580054,,,,,,,,,,,,,,,,,,,,,,,,,,,,,,,,,,,455.9705202920013,455.978118250001,455.978118250001,456.6657947079948,g,1.0,0.6808514169970294,,,,,,sub-124,1,stroop_test,120.04315552159557,
,,,,108.0,0.0,9.0,,,,,,,,,,,,,blau,blue,b,1.0,b,1.0,0.5927189170033671,,,,,,,,,,9.0,0.0,108.0,5.0,456.6748787079996,,,,,,,,,,,,,,,,,456.666330292006,457.4637466669956,458.25606808300654,458.247810832996,,,,,,,,,,,,,,,,,,,,,,,,,,,,,,,,,,,458.24859604200174,458.25606808300654,458.25606808300654,458.8546233749949,b,1.0,0.5927189170033671,,,,,,sub-124,1,stroop_test,120.04315552159557,
,,,,109.0,1.0,9.0,,,,,,,,,,,,,rot,yellow,g,0.0,g,1.0,0.5815575409942539,,,,,,,,,,9.0,1.0,109.0,3.0,458.8643307919992,,,,,,,,,,,,,,,,,458.8552032080042,459.6550263329991,460.4602174169995,460.4478761250066,,,,,,,,,,,,,,,,,,,,,,,,,,,,,,,,,,,460.4527769169945,460.4602174169995,460.4602174169995,461.0489338750049,g,1.0,0.5815575409942539,,,,,,sub-124,1,stroop_test,120.04315552159557,
,,,,110.0,2.0,9.0,,,,,,,,,,,,,rot,blue,b,0.0,b,1.0,0.8029918340034783,,,,,,,,,,9.0,2.0,110.0,2.0,461.0598412079999,,,,,,,,,,,,,,,,,461.0495869169972,461.8475465829979,462.6401704169984,462.6313465830026,,,,,,,,,,,,,,,,,,,,,,,,,,,,,,,,,,,462.632322874997,462.6401704169984,462.6401704169984,463.4489777919953,b,1.0,0.8029918340034783,,,,,,sub-124,1,stroop_test,120.04315552159557,
,,,,111.0,3.0,9.0,,,,,,,,,,,,,blau,red,r,0.0,r,1.0,1.0291288749867815,,,,,,,,,,9.0,3.0,111.0,4.0,463.45923470800335,,,,,,,,,,,,,,,,,463.4497300420044,464.2474407919945,465.0441405830061,465.0315082919988,,,,,,,,,,,,,,,,,,,,,,,,,,,,,,,,,,,465.0364115830016,465.0441405830061,465.0441405830061,466.0822302919987,r,1.0,1.0291288749867815,,,,,,sub-124,1,stroop_test,120.04315552159557,
,,,,112.0,4.0,9.0,,,,,,,,,,,,,gelb,red,r,0.0,r,1.0,0.5103266250080196,,,,,,,,,,9.0,4.0,112.0,8.0,466.0922917499993,,,,,,,,,,,,,,,,,466.0828233749926,467.280825666996,468.07750583300367,468.0647032499983,,,,,,,,,,,,,,,,,,,,,,,,,,,,,,,,,,,468.0698630830011,468.07750583300367,468.07750583300367,468.5992338329961,r,1.0,0.5103266250080196,,,,,,sub-124,1,stroop_test,120.04315552159557,
,,,,113.0,5.0,9.0,,,,,,,,,,,,,gelb,blue,b,0.0,b,1.0,0.6958374169917079,,,,,,,,,,9.0,5.0,113.0,9.0,468.609468374998,,,,,,,,,,,,,,,,,468.5998607079964,469.3975325000065,470.18970633299614,470.1813110420044,,,,,,,,,,,,,,,,,,,,,,,,,,,,,,,,,,,470.1821242080041,470.18970633299614,470.18970633299614,470.88862720799807,b,1.0,0.6958374169917079,,,,,,sub-124,1,stroop_test,120.04315552159557,
,,,,114.0,6.0,9.0,,,,,,,,,,,,,blau,yellow,g,0.0,g,1.0,0.6775362910120748,,,,,,,,,,9.0,6.0,114.0,7.0,470.89767495800334,,,,,,,,,,,,,,,,,470.8892532080063,470.9884282499988,471.7934247499943,471.7811925419956,,,,,,,,,,,,,,,,,,,,,,,,,,,,,,,,,,,471.7859786250047,471.7934247499943,471.7934247499943,472.4824648329959,g,1.0,0.6775362910120748,,,,,,sub-124,1,stroop_test,120.04315552159557,
,,,,115.0,7.0,9.0,,,,,,,,,,,,,rot,red,r,1.0,r,1.0,0.6075840410048841,,,,,,,,,,9.0,7.0,115.0,1.0,472.4926787500008,,,,,,,,,,,,,,,,,472.4830974999932,472.8306184999965,473.6265802919952,473.61460924999847,,,,,,,,,,,,,,,,,,,,,,,,,,,,,,,,,,,473.61878704199626,473.6265802919952,473.6265802919952,474.2384820000007,r,1.0,0.6075840410048841,,,,,,sub-124,1,stroop_test,120.04315552159557,
,,,,116.0,8.0,9.0,,,,,,,,,,,,,blau,blue,b,1.0,b,1.0,0.6054039159935201,,,,,,,,,,9.0,8.0,116.0,6.0,474.2492504169932,,,,,,,,,,,,,,,,,474.2391373749997,475.43870679200336,476.2439488329983,476.2312926669984,,,,,,,,,,,,,,,,,,,,,,,,,,,,,,,,,,,476.2370277919981,476.2439488329983,476.2439488329983,476.8540574170038,b,1.0,0.6054039159935201,,,,,,sub-124,1,stroop_test,120.04315552159557,
,,,,117.0,9.0,9.0,,,,,,,,,,,,,gelb,yellow,g,1.0,g,1.0,0.4767719590017805,,,,,,,,,,9.0,9.0,117.0,11.0,476.8639967920026,,,,,,,,,,,,,,,,,476.8546077500068,476.9539165830065,477.74955224999576,477.73742004200176,,,,,,,,,,,,,,,,,,,,,,,,,,,,,,,,,,,477.74152512500586,477.74955224999576,477.74955224999576,478.2328764999984,g,1.0,0.4767719590017805,,,,,,sub-124,1,stroop_test,120.04315552159557,
,,,,118.0,10.0,9.0,,,,,,,,,,,,,rot,red,r,1.0,r,1.0,0.5225735420099227,,,,,,,,,,9.0,10.0,118.0,0.0,478.2444331669976,,,,,,,,,,,,,,,,,478.23363320800127,479.0306009170017,479.8265972079971,479.81466708300286,,,,,,,,,,,,,,,,,,,,,,,,,,,,,,,,,,,479.819211916998,479.8265972079971,479.8265972079971,480.35546912500286,r,1.0,0.5225735420099227,,,,,,sub-124,1,stroop_test,120.04315552159557,
,,,,119.0,11.0,9.0,,,,,,,,,,,,,gelb,yellow,g,1.0,g,1.0,0.6428406670020195,,,,,,,,,,9.0,11.0,119.0,10.0,480.3656130830059,,,,,,,,,,,,,,,,,480.3561280830036,481.1551834580023,481.959501624995,481.9479299170053,,,,,,,,,,,,,,,,,,,,,,,,,,,,,,,,,,,481.95229425000434,481.959501624995,481.959501624995,482.60548766699503,g,1.0,0.6428406670020195,,,,,,sub-124,1,stroop_test,120.04315552159557,
,,,,,,,,,,,,,,,,,,,,,,,,,,,,,,,,,,,,,,,,,,,,,,,,,,,,,,,,,,,,,,,,,,,,,,,,,,,,,,,,,,,,,,,,,,,,,,,,,,,,,,482.6058294579998,482.61684704199433,487.6143465000059,487.6038687499968,sub-124,1,stroop_test,120.04315552159557,
