wordCTK,colorCTK,corrAnsCTK,congruentCTK,thisN,thisTrialN,thisRepN,keyResp_CTK.keys,keyResp_CTK.corr,keyResp_CTK.rt,keyResp_CTK.duration,wordPractice,colorPractice,corrAnsPractice,congruentPractice,respPractice.keys,respPractice.corr,respPractice.rt,respPractice.duration,word,color,corrAns,congruent,keyResp_test_run.keys,keyResp_test_run.corr,keyResp_test_run.rt,keyResp_test_run.duration,trials_CTK.thisRepN,trials_CTK.thisTrialN,trials_CTK.thisN,trials_CTK.thisIndex,trials_practice.thisRepN,trials_practice.thisTrialN,trials_practice.thisN,trials_practice.thisIndex,trials_test.thisRepN,trials_test.thisTrialN,trials_test.thisN,trials_test.thisIndex,thisRow.t,notes,instruction.started,instr_text.started,instr_image.started,instr_resp.started,instruction.stopped,instr_resp.keys,instr_resp.rt,instr_resp.duration,instr_color_to_key.started,instr_ctk.started,resp_ctk.started,instr_color_to_key.stopped,resp_ctk.keys,resp_ctk.rt,resp_ctk.duration,ITI.started,fixcross.started,fixcross.stopped,ITI.stopped,color_to_key_run.started,stimulus_CTK.started,keyResp_CTK.started,color_to_key_run.stopped,trials_CTK.keyResp_CTK.keys,trials_CTK.keyResp_CTK.corr,trials_CTK.keyResp_CTK.rt,trials_CTK.keyResp_CTK.duration,instr_practice.started,instr_practice_text.started,instr_practice_resp.started,instr_practice.stopped,instr_practice_resp.keys,instr_practice_resp.rt,instr_practice_resp.duration,practice_run.started,stimulus_practice.started,respPractice.started,practice_run.stopped,trials_practice.respPractice.keys,trials_practice.respPractice.corr,trials_practice.respPractice.rt,trials_practice.respPractice.duration,feedback.started,textFeedback.started,feedback.stopped,textFeedback.stopped,instr_test.started,instr_test_text.started,instr_test_resp.started,instr_test.stopped,instr_test_resp.keys,instr_test_resp.rt,instr_test_resp.duration,test_run.started,stimulus_test_run.started,keyResp_test_run.started,test_run.stopped,trials_test.keyResp_test_run.keys,trials_test.keyResp_test_run.corr,trials_test.keyResp_test_run.rt,trials_test.keyResp_test_run.duration,goodbye.started,textGoodbye.started,goodbye.stopped,participant,session,expName,frameRate,Unnamed: 112
,,,,,,,,,,,,,,,,,,,,,,,,,,,,,,,,,,,,,,,,,0.0029434000025503,0.0288722999976016,0.0288722999976016,0.0288722999976016,40.44287650001934,space,40.3994204000046,,,,,,,,,,,,,,,,,,,,,,,,,,,,,,,,,,,,,,,,,,,,,,,,,,,,,,,,,,sub-141,1,stroop_test,59.81870148484222,
,,,,,,,,,,,,,,,,,,,,,,,,,,,,,,,,,,,,,,,,,,,,,,,,,40.442969199997606,40.45714610000141,40.45714610000141,50.61614100000588,space,10.141816400020616,,,,,,,,,,,,,,,,,,,,,,,,,,,,,,,,,,,,,,,,,,,,,,,,,,,sub-141,1,stroop_test,59.81870148484222,
test,blue,b,1.0,0.0,0.0,0.0,b,1.0,1.3999673000071198,,,,,,,,,,,,,,,,,,0.0,0.0,0.0,2.0,,,,,,,,,50.693323300016345,,,,,,,,,,,,,,,,,50.689452799997525,51.43143990001408,52.23778920000768,52.21641900000395,52.23231730001862,52.23778920000768,52.23778920000768,53.651528899994446,b,1.0,1.3999673000071198,,,,,,,,,,,,,,,,,,,,,,,,,,,,,,,,,,,,,,,sub-141,1,stroop_test,59.81870148484222,
test,red,r,1.0,1.0,1.0,0.0,r,1.0,0.9120587999932468,,,,,,,,,,,,,,,,,,0.0,1.0,1.0,0.0,,,,,,,,,53.66640919999918,,,,,,,,,,,,,,,,,53.651997200009646,54.46669250002015,55.26762150001014,55.251770300004864,55.25241480002296,55.26762150001014,55.26762150001014,56.18720250000479,r,1.0,0.9120587999932468,,,,,,,,,,,,,,,,,,,,,,,,,,,,,,,,,,,,,,,sub-141,1,stroop_test,59.81870148484222,
test,yellow,g,1.0,2.0,2.0,0.0,g,1.0,0.5571019000199158,,,,,,,,,,,,,,,,,,0.0,2.0,2.0,1.0,,,,,,,,,56.201598300016485,,,,,,,,,,,,,,,,,56.18766820000019,56.3013608000183,57.10208929999499,57.08647650000057,57.08711750002112,57.10208929999499,57.10208929999499,57.67103870000574,g,1.0,0.5571019000199158,,,,,,,,,,,,,,,,,,,,,,,,,,,,,,,,,,,,,,,sub-141,1,stroop_test,59.81870148484222,
test,blue,b,1.0,3.0,0.0,1.0,b,1.0,0.8407189999998081,,,,,,,,,,,,,,,,,,1.0,0.0,3.0,2.0,,,,,,,,,57.68564470001729,,,,,,,,,,,,,,,,,57.671527099999366,58.88661560000037,59.68708000000333,59.67198169999756,59.67271810001694,59.68708000000333,59.68708000000333,60.539559500000905,b,1.0,0.8407189999998081,,,,,,,,,,,,,,,,,,,,,,,,,,,,,,,,,,,,,,,sub-141,1,stroop_test,59.81870148484222,
test,yellow,g,1.0,4.0,1.0,1.0,g,1.0,0.6897895000001881,,,,,,,,,,,,,,,,,,1.0,1.0,4.0,1.0,,,,,,,,,60.553549300006125,,,,,,,,,,,,,,,,,60.54006160001154,61.738526900007855,62.539028700004565,62.52337599999737,62.524015900009545,62.539028700004565,62.539028700004565,63.24176400000579,g,1.0,0.6897895000001881,,,,,,,,,,,,,,,,,,,,,,,,,,,,,,,,,,,,,,,sub-141,1,stroop_test,59.81870148484222,
test,red,r,1.0,5.0,2.0,1.0,r,1.0,0.4513765000156127,,,,,,,,,,,,,,,,,,1.0,2.0,5.0,0.0,,,,,,,,,63.25634880000143,,,,,,,,,,,,,,,,,63.24223230002099,63.35618040000554,64.15694549999898,64.14145980001194,64.14214860001812,64.15694549999898,64.15694549999898,64.62606330000563,r,1.0,0.4513765000156127,,,,,,,,,,,,,,,,,,,,,,,,,,,,,,,,,,,,,,,sub-141,1,stroop_test,59.81870148484222,
test,blue,b,1.0,6.0,0.0,2.0,b,1.0,0.5656163000094239,,,,,,,,,,,,,,,,,,2.0,0.0,6.0,2.0,,,,,,,,,64.64053130001412,,,,,,,,,,,,,,,,,64.62658370001009,65.84125530000892,66.64212600002065,66.62646220001625,66.62710830001743,66.64212600002065,66.64212600002065,67.21112409999478,b,1.0,0.5656163000094239,,,,,,,,,,,,,,,,,,,,,,,,,,,,,,,,,,,,,,,sub-141,1,stroop_test,59.81870148484222,
test,red,r,1.0,7.0,1.0,2.0,r,1.0,0.5517448000027798,,,,,,,,,,,,,,,,,,2.0,1.0,7.0,0.0,,,,,,,,,67.22566950001055,,,,,,,,,,,,,,,,,67.21163820000947,67.57597560001886,68.3765815999941,68.360915199999,68.36159200000111,68.3765815999941,68.3765815999941,68.94555500001297,r,1.0,0.5517448000027798,,,,,,,,,,,,,,,,,,,,,,,,,,,,,,,,,,,,,,,sub-141,1,stroop_test,59.81870148484222,
test,yellow,g,1.0,8.0,2.0,2.0,g,1.0,0.4579227000067476,,,,,,,,,,,,,,,,,,2.0,2.0,8.0,1.0,,,,,,,,,68.9601559000148,,,,,,,,,,,,,,,,,68.94601200000034,69.76094160001958,70.56140229999437,70.54598330002045,70.54664250000496,70.56140229999437,70.56140229999437,71.03054380000685,g,1.0,0.4579227000067476,,,,,,,,,,,,,,,,,,,,,,,,,,,,,,,,,,,,,,,sub-141,1,stroop_test,59.81870148484222,
test,blue,b,1.0,9.0,0.0,3.0,b,1.0,0.4327305000042543,,,,,,,,,,,,,,,,,,3.0,0.0,9.0,2.0,,,,,,,,,71.04488810000475,,,,,,,,,,,,,,,,,71.03102080000099,71.84530800001812,72.64601430000039,72.63054260000354,72.63121839999803,72.64601430000039,72.64601430000039,73.08211160000064,b,1.0,0.4327305000042543,,,,,,,,,,,,,,,,,,,,,,,,,,,,,,,,,,,,,,,sub-141,1,stroop_test,59.81870148484222,
test,yellow,g,1.0,10.0,1.0,3.0,g,1.0,0.5013359000149649,,,,,,,,,,,,,,,,,,3.0,1.0,10.0,1.0,,,,,,,,,73.0965326000005,,,,,,,,,,,,,,,,,73.08258220000425,73.44653650000691,74.24721530001261,74.23166320001474,74.23231880000094,74.24721530001261,74.24721530001261,74.76613400000497,g,1.0,0.5013359000149649,,,,,,,,,,,,,,,,,,,,,,,,,,,,,,,,,,,,,,,sub-141,1,stroop_test,59.81870148484222,
test,red,r,1.0,11.0,2.0,3.0,r,1.0,0.3461140999861527,,,,,,,,,,,,,,,,,,3.0,2.0,11.0,0.0,,,,,,,,,74.78088249999564,,,,,,,,,,,,,,,,,74.76661000002059,75.98187400001916,76.78242140001385,76.76676040000166,76.76747120000073,76.78242140001385,76.78242140001385,77.13487520001945,r,1.0,0.3461140999861527,,,,,,,,,,,,,,,,,,,,,,,,,,,,,,,,,,,,,,,sub-141,1,stroop_test,59.81870148484222,
,,,,,,,,,,,,,,,,,,,,,,,,,,,,,,,,,,,,,,,,,,,,,,,,,,,,,,,,,,,,,,,,,,,,77.13510800001677,77.14920549999806,77.14920549999806,89.15962859999854,space,11.999698700004956,,,,,,,,,,,,,,,,,,,,,,,,,,,,,,,,sub-141,1,stroop_test,59.81870148484222,
,,,,0.0,0.0,0.0,,,,,gelb,blue,b,0.0,b,1.0,2.3981445000099484,,,,,,,,,,,,,,0.0,0.0,0.0,9.0,,,,,89.20561350000207,,,,,,,,,,,,,,,,,89.20147010000073,89.27428480001981,90.08124300002235,90.05917910000426,,,,,,,,,,,,,,,,90.07439399999566,90.08124300002235,90.08124300002235,92.49536470000749,b,1.0,2.3981445000099484,,92.51199190001353,92.51877799999784,93.51082980001227,,,,,,,,,,,,,,,,,,,,sub-141,1,stroop_test,59.81870148484222,
,,,,1.0,1.0,0.0,,,,,blau,blue,b,1.0,b,1.0,1.1927547999948729,,,,,,,,,,,,,,0.0,1.0,1.0,5.0,,,,,93.52729260001796,,,,,,,,,,,,,,,,,93.51134090000414,94.69479000000864,95.49698570001055,95.47986640001182,,,,,,,,,,,,,,,,95.49091660001432,95.49698570001055,95.49698570001055,96.69744050002193,b,1.0,1.1927547999948729,,96.69810820001294,96.71183770001517,97.69778640000732,97.71340720000444,,,,,,,,,,,,,,,,,,,sub-141,1,stroop_test,59.81870148484222,
,,,,2.0,2.0,0.0,,,,,rot,yellow,g,0.0,g,1.0,1.0932192000036594,,,,,,,,,,,,,,0.0,2.0,2.0,3.0,,,,,97.71340720000444,,,,,,,,,,,,,,,,,97.69823700000416,97.79697730002226,98.5971163000213,98.5818535000144,,,,,,,,,,,,,,,,98.59014610000304,98.5971163000213,98.5971163000213,99.7003481000138,g,1.0,1.0932192000036594,,99.7011248000199,99.71490360001916,100.70002040002146,100.7156197000004,,,,,,,,,,,,,,,,,,,sub-141,1,stroop_test,59.81870148484222,
,,,,3.0,3.0,0.0,,,,,blau,blue,b,1.0,b,1.0,0.584833200002322,,,,,,,,,,,,,,0.0,3.0,3.0,6.0,,,,,100.7156197000004,,,,,,,,,,,,,,,,,100.70049710001332,101.51616040000226,102.31682370000637,102.3011730000144,,,,,,,,,,,,,,,,102.30592270000488,102.31682370000637,102.31682370000637,102.90410870002232,b,1.0,0.584833200002322,,102.90477839999949,102.9169522000011,103.90208150001126,103.917571900005,,,,,,,,,,,,,,,,,,,sub-141,1,stroop_test,59.81870148484222,
,,,,4.0,4.0,0.0,,,,,gelb,red,r,0.0,g,0.0,1.0903618999873288,,,,,,,,,,,,,,0.0,4.0,4.0,8.0,,,,,103.917571900005,,,,,,,,,,,,,,,,,103.902511399996,104.71744070001296,105.51901780001936,105.50352470000507,,,,,,,,,,,,,,,,105.5083930999972,105.51901780001936,105.51901780001936,106.62190960001315,g,0.0,1.0903618999873288,,106.6333121000207,106.64141500002006,107.63707820000128,,,,,,,,,,,,,,,,,,,,sub-141,1,stroop_test,59.81870148484222,
,,,,5.0,5.0,0.0,,,,,gelb,yellow,g,1.0,g,1.0,1.3216825000126846,,,,,,,,,,,,,,0.0,5.0,5.0,10.0,,,,,107.65358579999884,,,,,,,,,,,,,,,,,107.637510200002,107.98706149999634,108.78773720000754,108.77232489999732,,,,,,,,,,,,,,,,108.77295790001516,108.78773720000754,108.78773720000754,110.12426270000287,g,1.0,1.3216825000126846,,110.13047940001708,110.14023600000657,111.12388580001424,111.13928460000898,,,,,,,,,,,,,,,,,,,sub-141,1,stroop_test,59.81870148484222,
,,,,6.0,6.0,0.0,,,,,blau,yellow,g,0.0,b,0.0,1.1199277999985495,,,,,,,,,,,,,,0.0,6.0,6.0,7.0,,,,,111.13928460000898,,,,,,,,,,,,,,,,,111.12434150002082,111.48973910001224,112.29029940001784,112.27471910000897,,,,,,,,,,,,,,,,112.27967350001563,112.29029940001784,112.29029940001784,113.4263537999941,b,0.0,1.1199277999985495,,113.43224720002036,113.44071049999911,114.4267621000181,114.44192880002085,,,,,,,,,,,,,,,,,,,sub-141,1,stroop_test,59.81870148484222,
,,,,7.0,7.0,0.0,,,,,blau,red,r,0.0,r,1.0,1.0976900000241585,,,,,,,,,,,,,,0.0,7.0,7.0,4.0,,,,,114.44192880002085,,,,,,,,,,,,,,,,,114.42723470000784,114.79197900000143,115.59272869999404,115.57686749999992,,,,,,,,,,,,,,,,115.57770049999816,115.59272869999404,115.59272869999404,116.69465580000542,r,1.0,1.0976900000241585,,116.70162060001168,116.71082820001176,117.69478449999588,117.71038350000164,,,,,,,,,,,,,,,,,,,sub-141,1,stroop_test,59.81870148484222,
,,,,8.0,8.0,0.0,,,,,rot,red,r,1.0,r,1.0,0.7114366000168957,,,,,,,,,,,,,,0.0,8.0,8.0,0.0,,,,,117.71038350000164,,,,,,,,,,,,,,,,,117.69519779999972,118.49436710000737,119.2986054000212,119.28149650001431,,,,,,,,,,,,,,,,119.29211850001592,119.2986054000212,119.2986054000212,120.01433259999612,r,1.0,0.7114366000168957,,120.015121000004,120.02893460000632,121.01395240001148,121.02929289999884,,,,,,,,,,,,,,,,,,,sub-141,1,stroop_test,59.81870148484222,
,,,,9.0,9.0,0.0,,,,,rot,blue,b,0.0,b,1.0,1.0160106999974232,,,,,,,,,,,,,,0.0,9.0,9.0,2.0,,,,,121.02929289999884,,,,,,,,,,,,,,,,,121.01441319999869,121.81325970002216,122.61411829999996,122.59865150001131,,,,,,,,,,,,,,,,122.599315200001,122.61411829999996,122.61411829999996,123.63351300000797,b,1.0,1.0160106999974232,,123.63428790000034,123.64796780000324,124.63255050001317,124.64864349999698,,,,,,,,,,,,,,,,,,,sub-141,1,stroop_test,59.81870148484222,
,,,,10.0,10.0,0.0,,,,,gelb,yellow,g,1.0,g,1.0,0.945627000008244,,,,,,,,,,,,,,0.0,10.0,10.0,11.0,,,,,124.64864349999698,,,,,,,,,,,,,,,,,124.63301590000628,125.83335120000991,126.63323100001436,126.61756120002246,,,,,,,,,,,,,,,,126.62193399999524,126.63323100001436,126.63323100001436,127.58601820000332,g,1.0,0.945627000008244,,127.58682739999496,127.6007077000104,128.58584610000253,128.60136530001182,,,,,,,,,,,,,,,,,,,sub-141,1,stroop_test,59.81870148484222,
,,,,11.0,11.0,0.0,,,,,rot,red,r,1.0,r,1.0,0.6872412000084296,,,,,,,,,,,,,,0.0,11.0,11.0,1.0,,,,,128.60136530001182,,,,,,,,,,,,,,,,,128.586268700019,128.95166700001573,129.75219650001964,129.73657870001625,,,,,,,,,,,,,,,,129.74164200000814,129.75219650001964,129.75219650001964,130.4547889000096,r,1.0,0.6872412000084296,,130.4555024000001,130.4693513000093,131.4549089000211,131.47013840000727,,,,,,,,,,,,,,,,,,,sub-141,1,stroop_test,59.81870148484222,
,,,,12.0,0.0,1.0,,,,,blau,blue,b,1.0,b,1.0,1.1449377000099048,,,,,,,,,,,,,,1.0,0.0,12.0,5.0,,,,,131.47013840000727,,,,,,,,,,,,,,,,,131.45541120000416,132.65407160000177,133.4547731000057,133.43920789999538,,,,,,,,,,,,,,,,133.444166900008,133.4547731000057,133.4547731000057,134.60762389999582,b,1.0,1.1449377000099048,,134.6083040999947,134.62241540002287,135.60741920000874,135.62278390000574,,,,,,,,,,,,,,,,,,,sub-141,1,stroop_test,59.81870148484222,
,,,,13.0,1.0,1.0,,,,,rot,red,r,1.0,r,1.0,0.7903810999996495,,,,,,,,,,,,,,1.0,1.0,13.0,1.0,,,,,135.62278390000574,,,,,,,,,,,,,,,,,135.60783200000878,136.4068213000137,137.21011129999533,137.19208040001104,,,,,,,,,,,,,,,,137.19810760000837,137.21011129999533,137.21011129999533,138.00993240001844,r,1.0,0.7903810999996495,,138.01058380000177,138.024490300013,139.00985140001285,139.02509690000443,,,,,,,,,,,,,,,,,,,sub-141,1,stroop_test,59.81870148484222,
,,,,14.0,2.0,1.0,,,,,gelb,yellow,g,1.0,g,1.0,0.6838066999916919,,,,,,,,,,,,,,1.0,2.0,14.0,10.0,,,,,139.02509690000443,,,,,,,,,,,,,,,,,139.01029360000393,139.12534840000444,139.9260475000192,139.91036380000878,,,,,,,,,,,,,,,,139.91536990000168,139.9260475000192,139.9260475000192,140.61232070002006,g,1.0,0.6838066999916919,,140.6129915000056,140.62641330002225,141.61195610000868,141.62707970000338,,,,,,,,,,,,,,,,,,,sub-141,1,stroop_test,59.81870148484222,
,,,,15.0,3.0,1.0,,,,,gelb,red,r,0.0,r,1.0,1.2705679000064265,,,,,,,,,,,,,,1.0,3.0,15.0,8.0,,,,,141.62707970000338,,,,,,,,,,,,,,,,,141.61243170002126,142.42753640000592,143.22823629999766,143.21254380000755,,,,,,,,,,,,,,,,143.21314890001668,143.22823629999766,143.22823629999766,144.5143531000067,r,1.0,1.2705679000064265,,144.51505509999697,144.52932110000984,145.51410699999542,145.52992369999993,,,,,,,,,,,,,,,,,,,sub-141,1,stroop_test,59.81870148484222,
,,,,16.0,4.0,1.0,,,,,gelb,blue,b,0.0,b,1.0,1.084459000005154,,,,,,,,,,,,,,1.0,4.0,16.0,9.0,,,,,145.52992369999993,,,,,,,,,,,,,,,,,145.51454600002037,146.71381109999493,147.51484839999466,147.49879740001052,,,,,,,,,,,,,,,,147.49946640001144,147.51484839999466,147.51484839999466,148.6019964000152,b,1.0,1.084459000005154,,148.60272769999574,148.6152535000001,149.6005641000229,149.6157807999989,,,,,,,,,,,,,,,,,,,sub-141,1,stroop_test,59.81870148484222,
,,,,17.0,5.0,1.0,,,,,rot,red,r,1.0,r,1.0,0.872030900005484,,,,,,,,,,,,,,1.0,5.0,17.0,0.0,,,,,149.6157807999989,,,,,,,,,,,,,,,,,149.60098670001025,150.81667000000016,151.61752830000478,151.6019705000217,,,,,,,,,,,,,,,,151.6068043000123,151.61752830000478,151.61752830000478,152.50337550000404,r,1.0,0.872030900005484,,152.50408310000785,152.51812710001832,153.50342540000565,153.51849210000364,,,,,,,,,,,,,,,,,,,sub-141,1,stroop_test,59.81870148484222,
,,,,18.0,6.0,1.0,,,,,gelb,yellow,g,1.0,g,1.0,0.985793800005922,,,,,,,,,,,,,,1.0,6.0,18.0,11.0,,,,,153.51849210000364,,,,,,,,,,,,,,,,,153.50389630001155,154.70267800000147,155.50331749999896,155.48761020001257,,,,,,,,,,,,,,,,155.49217310000677,155.50331749999896,155.50331749999896,156.50607659999514,g,1.0,0.985793800005922,,156.50680490001105,156.52066670000204,157.50587320001796,157.5213625000033,,,,,,,,,,,,,,,,,,,sub-141,1,stroop_test,59.81870148484222,
,,,,19.0,7.0,1.0,,,,,rot,blue,b,0.0,b,1.0,1.047333200025605,,,,,,,,,,,,,,1.0,7.0,19.0,2.0,,,,,157.5213625000033,,,,,,,,,,,,,,,,,157.50627939999686,157.87161669999475,158.67223470000317,158.65659709999454,,,,,,,,,,,,,,,,158.66294760000892,158.67223470000317,158.67223470000317,159.72526750000543,b,1.0,1.047333200025605,,159.72602550001466,159.73959470001864,160.72369700000854,160.7394013000012,,,,,,,,,,,,,,,,,,,sub-141,1,stroop_test,59.81870148484222,
,,,,20.0,8.0,1.0,,,,,rot,yellow,g,0.0,g,1.0,1.3049408000078984,,,,,,,,,,,,,,1.0,8.0,20.0,3.0,,,,,160.7394013000012,,,,,,,,,,,,,,,,,160.72436429999652,161.92432780002127,162.7250156000082,162.70959040001617,,,,,,,,,,,,,,,,162.7102322000137,162.7250156000082,162.7250156000082,164.04462030000286,g,1.0,1.3049408000078984,,164.04525970001123,164.05935170000885,165.04451320000226,165.06012160002138,,,,,,,,,,,,,,,,,,,sub-141,1,stroop_test,59.81870148484222,
,,,,21.0,9.0,1.0,,,,,blau,blue,b,1.0,b,1.0,0.9887905999785288,,,,,,,,,,,,,,1.0,9.0,21.0,6.0,,,,,165.06012160002138,,,,,,,,,,,,,,,,,165.04495070001576,165.1599744000123,165.96038870001212,165.94475660001626,,,,,,,,,,,,,,,,165.94963540000026,165.96038870001212,165.96038870001212,166.9634857000201,b,1.0,0.9887905999785288,,166.96422530000564,166.977787300013,167.96330679999664,167.978654800012,,,,,,,,,,,,,,,,,,,sub-141,1,stroop_test,59.81870148484222,
,,,,22.0,10.0,1.0,,,,,blau,yellow,g,0.0,g,1.0,1.1000388000102248,,,,,,,,,,,,,,1.0,10.0,22.0,7.0,,,,,167.978654800012,,,,,,,,,,,,,,,,,167.96372670002165,168.0785633000196,168.87931899999967,168.8628748000192,,,,,,,,,,,,,,,,168.86346360002062,168.87931899999967,168.87931899999967,169.98234620000585,g,1.0,1.1000388000102248,,169.98323320000782,169.9964971000154,170.98184399999445,170.9974865000113,,,,,,,,,,,,,,,,,,,sub-141,1,stroop_test,59.81870148484222,
,,,,23.0,11.0,1.0,,,,,blau,red,r,0.0,r,1.0,1.0111025999940466,,,,,,,,,,,,,,1.0,11.0,23.0,4.0,,,,,170.9974865000113,,,,,,,,,,,,,,,,,170.98229790001642,171.09752700000536,171.89800240000477,171.88237510001636,,,,,,,,,,,,,,,,171.8831657000119,171.89800240000477,171.89800240000477,172.91742090001935,r,1.0,1.0111025999940466,,172.91814370002248,172.93204569999943,173.9173071999976,173.93283269999665,,,,,,,,,,,,,,,,,,,sub-141,1,stroop_test,59.81870148484222,
,,,,,,,,,,,,,,,,,,,,,,,,,,,,,,,,,,,,,,,,,,,,,,,,,,,,,,,,,,,,,,,,,,,,,,,,,,,,,,,,,,,,,,,173.91751180001302,173.93283269999665,173.93283269999665,200.1530058000062,space,26.207614100014325,,,,,,,,,,,,,sub-141,1,stroop_test,59.81870148484222,
,,,,0.0,0.0,0.0,,,,,,,,,,,,,blau,blue,b,1.0,b,1.0,1.093110699992394,,,,,,,,,,0.0,0.0,0.0,6.0,200.25288159999764,,,,,,,,,,,,,,,,,200.2496246000228,200.5175339000125,201.3182626000198,201.3027828000195,,,,,,,,,,,,,,,,,,,,,,,,,,,,,,,,,,,201.30743240000447,201.3182626000198,201.3182626000198,202.4212118000141,b,1.0,1.093110699992394,,,,,sub-141,1,stroop_test,59.81870148484222,
,,,,1.0,1.0,0.0,,,,,,,,,,,,,rot,yellow,g,0.0,g,1.0,1.1030903999926522,,,,,,,,,,0.0,1.0,1.0,3.0,202.4359541000158,,,,,,,,,,,,,,,,,202.42176769999787,203.63652870000809,204.43736169999465,204.42177939999965,,,,,,,,,,,,,,,,,,,,,,,,,,,,,,,,,,,204.42681309999895,204.43736169999465,204.43736169999465,205.55656550001004,g,1.0,1.1030903999926522,,,,,sub-141,1,stroop_test,59.81870148484222,
,,,,2.0,2.0,0.0,,,,,,,,,,,,,blau,yellow,g,0.0,g,1.0,1.0591227000113577,,,,,,,,,,0.0,2.0,2.0,7.0,205.57131310002296,,,,,,,,,,,,,,,,,205.55706660001303,205.67142719999535,206.4718485000194,206.45638270000927,,,,,,,,,,,,,,,,,,,,,,,,,,,,,,,,,,,206.46149950000108,206.4718485000194,206.4718485000194,207.54155940000783,g,1.0,1.0591227000113577,,,,,sub-141,1,stroop_test,59.81870148484222,
,,,,3.0,3.0,0.0,,,,,,,,,,,,,gelb,blue,b,0.0,b,1.0,1.2251496999815572,,,,,,,,,,0.0,3.0,3.0,9.0,207.55590420000956,,,,,,,,,,,,,,,,,207.54210320001584,207.6561624000024,208.4566212000209,208.4412485000212,,,,,,,,,,,,,,,,,,,,,,,,,,,,,,,,,,,208.44906110002196,208.4566212000209,208.4566212000209,209.69314730001497,b,1.0,1.2251496999815572,,,,,sub-141,1,stroop_test,59.81870148484222,
,,,,4.0,4.0,0.0,,,,,,,,,,,,,rot,red,r,1.0,r,1.0,0.6518488999863621,,,,,,,,,,0.0,4.0,4.0,1.0,209.7074693000177,,,,,,,,,,,,,,,,,209.69370340000023,210.0575613999972,210.85852239999804,210.84275540002272,,,,,,,,,,,,,,,,,,,,,,,,,,,,,,,,,,,210.84786160002116,210.85852239999804,210.85852239999804,211.52734749999945,r,1.0,0.6518488999863621,,,,,sub-141,1,stroop_test,59.81870148484222,
,,,,5.0,5.0,0.0,,,,,,,,,,,,,blau,blue,b,1.0,b,1.0,1.366673799988348,,,,,,,,,,0.0,5.0,5.0,5.0,211.54190700000615,,,,,,,,,,,,,,,,,211.52784160000735,212.3426665000152,213.143375500018,213.1276015000185,,,,,,,,,,,,,,,,,,,,,,,,,,,,,,,,,,,213.13250960002188,213.143375500018,213.143375500018,214.5127190000203,b,1.0,1.366673799988348,,,,,sub-141,1,stroop_test,59.81870148484222,
,,,,6.0,6.0,0.0,,,,,,,,,,,,,rot,red,r,1.0,r,1.0,0.8018054999993183,,,,,,,,,,0.0,6.0,6.0,0.0,214.5275590000092,,,,,,,,,,,,,,,,,214.51323199999752,215.32793990001664,216.1287272000045,216.1133856000088,,,,,,,,,,,,,,,,,,,,,,,,,,,,,,,,,,,216.1184387000103,216.1287272000045,216.1287272000045,216.94787590001943,r,1.0,0.8018054999993183,,,,,sub-141,1,stroop_test,59.81870148484222,
,,,,7.0,7.0,0.0,,,,,,,,,,,,,rot,blue,b,0.0,b,1.0,1.1476764999970328,,,,,,,,,,0.0,7.0,7.0,2.0,216.96245020002243,,,,,,,,,,,,,,,,,216.94839020000651,218.1634496000188,218.96373499999757,218.94835320001584,,,,,,,,,,,,,,,,,,,,,,,,,,,,,,,,,,,218.9490230999945,218.96373499999757,218.96373499999757,220.11659740001775,b,1.0,1.1476764999970328,,,,,sub-141,1,stroop_test,59.81870148484222,
,,,,8.0,8.0,0.0,,,,,,,,,,,,,gelb,yellow,g,1.0,g,1.0,1.128053299995372,,,,,,,,,,0.0,8.0,8.0,10.0,220.13120490001165,,,,,,,,,,,,,,,,,220.11710850000964,220.93167730001733,221.7327036000206,221.71689100001825,,,,,,,,,,,,,,,,,,,,,,,,,,,,,,,,,,,221.7213616000081,221.7327036000206,221.7327036000206,222.86881169999836,g,1.0,1.128053299995372,,,,,sub-141,1,stroop_test,59.81870148484222,
,,,,9.0,9.0,0.0,,,,,,,,,,,,,gelb,red,r,0.0,r,1.0,0.905793599988101,,,,,,,,,,0.0,9.0,9.0,8.0,222.88334349999784,,,,,,,,,,,,,,,,,222.86932759999763,224.0843213000044,224.8847140000144,224.8689089000109,,,,,,,,,,,,,,,,,,,,,,,,,,,,,,,,,,,224.8696706000192,224.8847140000144,224.8847140000144,225.8042931999953,r,1.0,0.905793599988101,,,,,sub-141,1,stroop_test,59.81870148484222,
,,,,10.0,10.0,0.0,,,,,,,,,,,,,gelb,yellow,g,1.0,g,1.0,1.002224700001534,,,,,,,,,,0.0,10.0,10.0,11.0,225.8185873000184,,,,,,,,,,,,,,,,,225.8048443000007,225.9186525999976,226.71931330001095,226.70365260000108,,,,,,,,,,,,,,,,,,,,,,,,,,,,,,,,,,,226.7043324999977,226.71931330001095,226.71931330001095,227.7385631000216,g,1.0,1.002224700001534,,,,,sub-141,1,stroop_test,59.81870148484222,
,,,,11.0,11.0,0.0,,,,,,,,,,,,,blau,red,r,0.0,r,1.0,1.1965377000160515,,,,,,,,,,0.0,11.0,11.0,4.0,227.7532840000058,,,,,,,,,,,,,,,,,227.73904340001167,228.10356190000311,228.9041724000126,228.8883621999994,,,,,,,,,,,,,,,,,,,,,,,,,,,,,,,,,,,228.8943381000136,228.9041724000126,228.9041724000126,230.10687740001595,r,1.0,1.1965377000160515,,,,,sub-141,1,stroop_test,59.81870148484222,
,,,,12.0,0.0,1.0,,,,,,,,,,,,,blau,red,r,0.0,r,1.0,0.7190867000026628,,,,,,,,,,1.0,0.0,12.0,4.0,230.1216706999985,,,,,,,,,,,,,,,,,230.10742280000704,230.9222114000004,231.722665600013,231.7073262000049,,,,,,,,,,,,,,,,,,,,,,,,,,,,,,,,,,,231.70798609999477,231.722665600013,231.722665600013,232.4584535000031,r,1.0,0.7190867000026628,,,,,sub-141,1,stroop_test,59.81870148484222,
,,,,13.0,1.0,1.0,,,,,,,,,,,,,rot,blue,b,0.0,b,1.0,1.0471033000212628,,,,,,,,,,1.0,1.0,13.0,2.0,232.47354540001837,,,,,,,,,,,,,,,,,232.4589619000035,233.673895200016,234.47473660000836,234.45881330000705,,,,,,,,,,,,,,,,,,,,,,,,,,,,,,,,,,,234.4634134999942,234.47473660000836,234.47473660000836,235.5274061000091,b,1.0,1.0471033000212628,,,,,sub-141,1,stroop_test,59.81870148484222,
,,,,14.0,2.0,1.0,,,,,,,,,,,,,gelb,yellow,g,1.0,g,1.0,0.7985853999853134,,,,,,,,,,1.0,2.0,14.0,11.0,235.5419465000159,,,,,,,,,,,,,,,,,235.527994300006,235.6421978000144,236.44242970002236,236.4270916999958,,,,,,,,,,,,,,,,,,,,,,,,,,,,,,,,,,,236.43160939999507,236.44242970002236,236.44242970002236,237.2457260999945,g,1.0,0.7985853999853134,,,,,sub-141,1,stroop_test,59.81870148484222,
,,,,15.0,3.0,1.0,,,,,,,,,,,,,gelb,blue,b,0.0,b,1.0,1.2008377000165638,,,,,,,,,,1.0,3.0,15.0,9.0,237.2598544000066,,,,,,,,,,,,,,,,,237.24625280001783,237.3597491999972,238.16022400002112,238.14456740001333,,,,,,,,,,,,,,,,,,,,,,,,,,,,,,,,,,,238.1451683000196,238.16022400002112,238.16022400002112,239.36382980001508,b,1.0,1.2008377000165638,,,,,sub-141,1,stroop_test,59.81870148484222,
,,,,16.0,4.0,1.0,,,,,,,,,,,,,rot,yellow,g,0.0,g,1.0,0.9330442000064068,,,,,,,,,,1.0,4.0,16.0,3.0,239.37807540001813,,,,,,,,,,,,,,,,,239.3643374000094,240.17845010000747,240.97896279999983,240.96355670000776,,,,,,,,,,,,,,,,,,,,,,,,,,,,,,,,,,,240.96815630001947,240.97896279999983,240.97896279999983,241.9151442000002,g,1.0,0.9330442000064068,,,,,sub-141,1,stroop_test,59.81870148484222,
,,,,17.0,5.0,1.0,,,,,,,,,,,,,blau,yellow,g,0.0,g,1.0,1.070245699986117,,,,,,,,,,1.0,5.0,17.0,7.0,241.9297879000078,,,,,,,,,,,,,,,,,241.9156575000088,242.28010500001253,243.08059240001603,243.0648720000172,,,,,,,,,,,,,,,,,,,,,,,,,,,,,,,,,,,243.0706359000178,243.08059240001603,243.08059240001603,244.16669000001275,g,1.0,1.070245699986117,,,,,sub-141,1,stroop_test,59.81870148484222,
,,,,18.0,6.0,1.0,,,,,,,,,,,,,blau,blue,b,1.0,b,1.0,0.729473000013968,,,,,,,,,,1.0,6.0,18.0,5.0,244.18120020002243,,,,,,,,,,,,,,,,,244.16720050000004,244.9817040000053,245.7824385999993,245.7666838000005,,,,,,,,,,,,,,,,,,,,,,,,,,,,,,,,,,,245.76729280001015,245.7824385999993,245.7824385999993,246.5182047999988,b,1.0,0.729473000013968,,,,,sub-141,1,stroop_test,59.81870148484222,
,,,,19.0,7.0,1.0,,,,,,,,,,,,,gelb,red,r,0.0,r,1.0,0.9370780999888666,,,,,,,,,,1.0,7.0,19.0,8.0,246.5327835000062,,,,,,,,,,,,,,,,,246.5187242999964,247.7337424000143,248.53432430000976,248.51864860000205,,,,,,,,,,,,,,,,,,,,,,,,,,,,,,,,,,,248.5230478000012,248.53432430000976,248.53432430000976,249.48705080000215,r,1.0,0.9370780999888666,,,,,sub-141,1,stroop_test,59.81870148484222,
,,,,20.0,8.0,1.0,,,,,,,,,,,,,gelb,yellow,g,1.0,g,1.0,0.9279568000056316,,,,,,,,,,1.0,8.0,20.0,10.0,249.5015949000081,,,,,,,,,,,,,,,,,249.48761380001088,250.70264910001424,251.5031047000084,251.48728530001245,,,,,,,,,,,,,,,,,,,,,,,,,,,,,,,,,,,251.48798999999417,251.5031047000084,251.5031047000084,252.43927570001688,g,1.0,0.9279568000056316,,,,,sub-141,1,stroop_test,59.81870148484222,
,,,,21.0,9.0,1.0,,,,,,,,,,,,,blau,blue,b,1.0,b,1.0,0.766418600018369,,,,,,,,,,1.0,9.0,21.0,6.0,252.45341780001763,,,,,,,,,,,,,,,,,252.4397799000144,252.8031408000097,253.6048072999984,253.58878730001743,,,,,,,,,,,,,,,,,,,,,,,,,,,,,,,,,,,253.5937889000052,253.6048072999984,253.6048072999984,254.3739276000124,b,1.0,0.766418600018369,,,,,sub-141,1,stroop_test,59.81870148484222,
,,,,22.0,10.0,1.0,,,,,,,,,,,,,rot,red,r,1.0,r,1.0,0.5710379999945872,,,,,,,,,,1.0,10.0,22.0,0.0,254.38844820001395,,,,,,,,,,,,,,,,,254.37445309999748,255.58919450000397,256.38986860000296,256.37423169999965,,,,,,,,,,,,,,,,,,,,,,,,,,,,,,,,,,,256.3790023000038,256.38986860000296,256.38986860000296,256.97556960000657,r,1.0,0.5710379999945872,,,,,sub-141,1,stroop_test,59.81870148484222,
,,,,23.0,11.0,1.0,,,,,,,,,,,,,rot,red,r,1.0,r,1.0,0.6190629999910016,,,,,,,,,,1.0,11.0,23.0,1.0,256.99031520000426,,,,,,,,,,,,,,,,,256.9760995999968,257.3405343000195,258.1411438000214,258.1253909000079,,,,,,,,,,,,,,,,,,,,,,,,,,,,,,,,,,,258.1260424000211,258.1411438000214,258.1411438000214,258.7768336000154,r,1.0,0.6190629999910016,,,,,sub-141,1,stroop_test,59.81870148484222,
,,,,24.0,0.0,2.0,,,,,,,,,,,,,blau,red,r,0.0,r,1.0,1.3484059000038542,,,,,,,,,,2.0,0.0,24.0,4.0,258.7914911000116,,,,,,,,,,,,,,,,,258.7773696000222,259.14166750002187,259.9422149000165,259.9270858000091,,,,,,,,,,,,,,,,,,,,,,,,,,,,,,,,,,,259.93287380001857,259.9422149000165,259.9422149000165,261.29542680000304,r,1.0,1.3484059000038542,,,,,sub-141,1,stroop_test,59.81870148484222,
,,,,25.0,1.0,2.0,,,,,,,,,,,,,blau,blue,b,1.0,b,1.0,0.7224861999857239,,,,,,,,,,2.0,1.0,25.0,6.0,261.3099335000152,,,,,,,,,,,,,,,,,261.2959519000142,261.6601961000124,262.4606509000005,262.4451170999964,,,,,,,,,,,,,,,,,,,,,,,,,,,,,,,,,,,262.445793699997,262.4606509000005,262.4606509000005,263.1965169000032,b,1.0,0.7224861999857239,,,,,sub-141,1,stroop_test,59.81870148484222,
,,,,26.0,2.0,2.0,,,,,,,,,,,,,rot,yellow,g,0.0,g,1.0,1.0306273000023791,,,,,,,,,,2.0,2.0,26.0,3.0,263.21100930002285,,,,,,,,,,,,,,,,,263.1970265000127,263.3112489000196,264.1115833000222,264.09638289999566,,,,,,,,,,,,,,,,,,,,,,,,,,,,,,,,,,,264.1010593000101,264.1115833000222,264.1115833000222,265.1478145000001,g,1.0,1.0306273000023791,,,,,sub-141,1,stroop_test,59.81870148484222,
,,,,27.0,3.0,2.0,,,,,,,,,,,,,gelb,red,r,0.0,r,1.0,0.967764500004705,,,,,,,,,,2.0,3.0,27.0,8.0,265.16236770001706,,,,,,,,,,,,,,,,,265.1483390000067,266.3631068000104,267.16365460000816,267.14798380000866,,,,,,,,,,,,,,,,,,,,,,,,,,,,,,,,,,,267.1520208000147,267.16365460000816,267.16365460000816,268.13434820002294,r,1.0,0.967764500004705,,,,,sub-141,1,stroop_test,59.81870148484222,
,,,,28.0,4.0,2.0,,,,,,,,,,,,,rot,red,r,1.0,r,1.0,0.6951598000014201,,,,,,,,,,2.0,4.0,28.0,1.0,268.14794190000976,,,,,,,,,,,,,,,,,268.134981500014,268.2478407000017,269.04750539999804,269.03214170000865,,,,,,,,,,,,,,,,,,,,,,,,,,,,,,,,,,,269.0368029999954,269.04750539999804,269.04750539999804,269.75160889999825,r,1.0,0.6951598000014201,,,,,sub-141,1,stroop_test,59.81870148484222,
,,,,29.0,5.0,2.0,,,,,,,,,,,,,rot,blue,b,0.0,b,1.0,0.8162655000051018,,,,,,,,,,2.0,5.0,29.0,2.0,269.76560000001336,,,,,,,,,,,,,,,,,269.7521757000068,270.11590560001787,270.9162956000073,270.90100780001376,,,,,,,,,,,,,,,,,,,,,,,,,,,,,,,,,,,270.90168589999666,270.9162956000073,270.9162956000073,271.73554280001554,b,1.0,0.8162655000051018,,,,,sub-141,1,stroop_test,59.81870148484222,
,,,,30.0,6.0,2.0,,,,,,,,,,,,,blau,yellow,g,0.0,g,1.0,1.202034599991748,,,,,,,,,,2.0,6.0,30.0,7.0,271.7504158000229,,,,,,,,,,,,,,,,,271.7360533000028,271.8504188999941,272.6508920000051,272.6354564000212,,,,,,,,,,,,,,,,,,,,,,,,,,,,,,,,,,,272.64031899999827,272.6508920000051,272.6508920000051,273.8702971000166,g,1.0,1.202034599991748,,,,,sub-141,1,stroop_test,59.81870148484222,
,,,,31.0,7.0,2.0,,,,,,,,,,,,,rot,red,r,1.0,r,1.0,0.7261007000051904,,,,,,,,,,2.0,7.0,31.0,0.0,273.885168000008,,,,,,,,,,,,,,,,,273.8708452999999,273.9852998999995,274.78583920001984,274.77005039999494,,,,,,,,,,,,,,,,,,,,,,,,,,,,,,,,,,,274.7758731000067,274.78583920001984,274.78583920001984,275.52091510000173,r,1.0,0.7261007000051904,,,,,sub-141,1,stroop_test,59.81870148484222,
,,,,32.0,8.0,2.0,,,,,,,,,,,,,gelb,yellow,g,1.0,g,1.0,1.1649718999979086,,,,,,,,,,2.0,8.0,32.0,10.0,275.5361165000068,,,,,,,,,,,,,,,,,275.5213172000076,275.8864872000122,276.68696350001846,276.67148129999987,,,,,,,,,,,,,,,,,,,,,,,,,,,,,,,,,,,276.6757176000101,276.68696350001846,276.68696350001846,277.8569569000101,g,1.0,1.1649718999979086,,,,,sub-141,1,stroop_test,59.81870148484222,
,,,,33.0,9.0,2.0,,,,,,,,,,,,,blau,blue,b,1.0,b,1.0,0.909724199998891,,,,,,,,,,2.0,9.0,33.0,5.0,277.87107009999454,,,,,,,,,,,,,,,,,277.85751490000985,278.2215292000037,279.0219030000153,279.006557900022,,,,,,,,,,,,,,,,,,,,,,,,,,,,,,,,,,,279.0122104000184,279.0219030000153,279.0219030000153,279.94132000001264,b,1.0,0.909724199998891,,,,,sub-141,1,stroop_test,59.81870148484222,
,,,,34.0,10.0,2.0,,,,,,,,,,,,,gelb,yellow,g,1.0,g,1.0,0.9158084999944548,,,,,,,,,,2.0,10.0,34.0,11.0,279.95588260001387,,,,,,,,,,,,,,,,,279.9419033000013,280.306195400015,281.10694520000834,281.09097270001075,,,,,,,,,,,,,,,,,,,,,,,,,,,,,,,,,,,281.0954939000076,281.10694520000834,281.10694520000834,282.0258831999963,g,1.0,0.9158084999944548,,,,,sub-141,1,stroop_test,59.81870148484222,
,,,,35.0,11.0,2.0,,,,,,,,,,,,,gelb,blue,b,0.0,b,1.0,0.9701295999984724,,,,,,,,,,2.0,11.0,35.0,9.0,282.0408817999996,,,,,,,,,,,,,,,,,282.02658870001324,283.2414499000006,284.0422615999996,284.0266408000025,,,,,,,,,,,,,,,,,,,,,,,,,,,,,,,,,,,284.0272974999971,284.0422615999996,284.0422615999996,285.02800520000164,b,1.0,0.9701295999984724,,,,,sub-141,1,stroop_test,59.81870148484222,
,,,,36.0,0.0,3.0,,,,,,,,,,,,,rot,yellow,g,0.0,g,1.0,1.1679527999949642,,,,,,,,,,3.0,0.0,36.0,3.0,285.04258340000524,,,,,,,,,,,,,,,,,285.0285574000154,285.3930446000013,286.19374790001893,286.17813010001555,,,,,,,,,,,,,,,,,,,,,,,,,,,,,,,,,,,286.18298149999464,286.19374790001893,286.19374790001893,287.3640451999963,g,1.0,1.1679527999949642,,,,,sub-141,1,stroop_test,59.81870148484222,
,,,,37.0,1.0,3.0,,,,,,,,,,,,,blau,red,r,0.0,r,1.0,1.0340258000069298,,,,,,,,,,3.0,1.0,37.0,4.0,287.3776918000076,,,,,,,,,,,,,,,,,287.3645574999973,287.47796030002064,288.27852240001084,288.26281480002217,,,,,,,,,,,,,,,,,,,,,,,,,,,,,,,,,,,288.2684685999993,288.27852240001084,288.27852240001084,289.3153619999939,r,1.0,1.0340258000069298,,,,,sub-141,1,stroop_test,59.81870148484222,
,,,,38.0,2.0,3.0,,,,,,,,,,,,,gelb,red,r,0.0,r,1.0,0.9927104000234976,,,,,,,,,,3.0,2.0,38.0,8.0,289.3293418000103,,,,,,,,,,,,,,,,,289.31590470002266,289.4291019999946,290.2296156000229,290.21420560000115,,,,,,,,,,,,,,,,,,,,,,,,,,,,,,,,,,,290.2191131,290.2296156000229,290.2296156000229,291.2326920000196,r,1.0,0.9927104000234976,,,,,sub-141,1,stroop_test,59.81870148484222,
,,,,39.0,3.0,3.0,,,,,,,,,,,,,blau,yellow,g,0.0,g,1.0,0.9734025000070688,,,,,,,,,,3.0,3.0,39.0,7.0,291.2470629000163,,,,,,,,,,,,,,,,,291.2332046000229,292.0475554000004,292.84830939999665,292.8328809000086,,,,,,,,,,,,,,,,,,,,,,,,,,,,,,,,,,,292.8394851000048,292.84830939999665,292.84830939999665,293.8346337999974,g,1.0,0.9734025000070688,,,,,sub-141,1,stroop_test,59.81870148484222,
,,,,40.0,4.0,3.0,,,,,,,,,,,,,blau,blue,b,1.0,b,1.0,0.6721145999908913,,,,,,,,,,3.0,4.0,40.0,6.0,293.84900750001543,,,,,,,,,,,,,,,,,293.8352268000017,295.04955009999685,295.85035960000823,295.8345811000036,,,,,,,,,,,,,,,,,,,,,,,,,,,,,,,,,,,295.83526310001616,295.85035960000823,295.85035960000823,296.5364181000041,b,1.0,0.6721145999908913,,,,,sub-141,1,stroop_test,59.81870148484222,
,,,,41.0,5.0,3.0,,,,,,,,,,,,,gelb,yellow,g,1.0,g,1.0,0.851350300014019,,,,,,,,,,3.0,5.0,41.0,10.0,296.55103339999914,,,,,,,,,,,,,,,,,296.53694030002225,296.90110459999414,297.70153630001005,297.68618970000534,,,,,,,,,,,,,,,,,,,,,,,,,,,,,,,,,,,297.69065689999843,297.70153630001005,297.70153630001005,298.5553603000008,g,1.0,0.851350300014019,,,,,sub-141,1,stroop_test,59.81870148484222,
,,,,42.0,6.0,3.0,,,,,,,,,,,,,gelb,blue,b,0.0,b,1.0,1.0836344999843277,,,,,,,,,,3.0,6.0,42.0,9.0,298.56887540000025,,,,,,,,,,,,,,,,,298.5558867000218,298.66907110001193,299.4694582000084,299.4539840000216,,,,,,,,,,,,,,,,,,,,,,,,,,,,,,,,,,,299.45463330001803,299.4694582000084,299.4694582000084,300.55593679999583,b,1.0,1.0836344999843277,,,,,sub-141,1,stroop_test,59.81870148484222,
,,,,43.0,7.0,3.0,,,,,,,,,,,,,gelb,yellow,g,1.0,g,1.0,0.7910166000074241,,,,,,,,,,3.0,7.0,43.0,11.0,300.5702580000216,,,,,,,,,,,,,,,,,300.55641960000503,301.7711876000103,302.5717602999939,302.55580329999793,,,,,,,,,,,,,,,,,,,,,,,,,,,,,,,,,,,302.55645190001815,302.5717602999939,302.5717602999939,303.37474790000124,g,1.0,0.7910166000074241,,,,,sub-141,1,stroop_test,59.81870148484222,
,,,,44.0,8.0,3.0,,,,,,,,,,,,,rot,blue,b,0.0,b,1.0,0.932839300017804,,,,,,,,,,3.0,8.0,44.0,2.0,303.38893640000606,,,,,,,,,,,,,,,,,303.3752448000014,304.5895397000131,305.3901821000036,305.3746543000161,,,,,,,,,,,,,,,,,,,,,,,,,,,,,,,,,,,305.37956880001,305.3901821000036,305.3901821000036,306.32642090000445,b,1.0,0.932839300017804,,,,,sub-141,1,stroop_test,59.81870148484222,
,,,,45.0,9.0,3.0,,,,,,,,,,,,,rot,red,r,1.0,r,1.0,0.5614351000112947,,,,,,,,,,3.0,9.0,45.0,1.0,306.34089920000406,,,,,,,,,,,,,,,,,306.32695489999605,306.6910511000024,307.49165520002134,307.47626769999624,,,,,,,,,,,,,,,,,,,,,,,,,,,,,,,,,,,307.4769312000135,307.49165520002134,307.49165520002134,308.0608032000018,r,1.0,0.5614351000112947,,,,,sub-141,1,stroop_test,59.81870148484222,
,,,,46.0,10.0,3.0,,,,,,,,,,,,,blau,blue,b,1.0,b,1.0,0.8261808000097517,,,,,,,,,,3.0,10.0,46.0,5.0,308.0753750000149,,,,,,,,,,,,,,,,,308.0613091000123,308.4256997000193,309.2261930000095,309.21073660001275,,,,,,,,,,,,,,,,,,,,,,,,,,,,,,,,,,,309.21557530001155,309.2261930000095,309.2261930000095,310.06247610002174,b,1.0,0.8261808000097517,,,,,sub-141,1,stroop_test,59.81870148484222,
,,,,47.0,11.0,3.0,,,,,,,,,,,,,rot,red,r,1.0,r,1.0,0.7939886999956798,,,,,,,,,,3.0,11.0,47.0,0.0,310.07686640002066,,,,,,,,,,,,,,,,,310.0629538000212,310.4271328000177,311.2277829000086,311.2123136000009,,,,,,,,,,,,,,,,,,,,,,,,,,,,,,,,,,,311.2175150999974,311.2277829000086,311.2277829000086,312.0301329000213,r,1.0,0.7939886999956798,,,,,sub-141,1,stroop_test,59.81870148484222,
,,,,48.0,0.0,4.0,,,,,,,,,,,,,gelb,blue,b,0.0,b,1.0,1.305842699977802,,,,,,,,,,4.0,0.0,48.0,9.0,312.04479780001566,,,,,,,,,,,,,,,,,312.0309701000224,312.39502690001973,313.1957793000038,313.1805815999978,,,,,,,,,,,,,,,,,,,,,,,,,,,,,,,,,,,313.1849390999996,313.1957793000038,313.1957793000038,314.51533789999667,b,1.0,1.305842699977802,,,,,sub-141,1,stroop_test,59.81870148484222,
,,,,49.0,1.0,4.0,,,,,,,,,,,,,rot,blue,b,0.0,b,1.0,0.7716392000147607,,,,,,,,,,4.0,1.0,49.0,2.0,314.5300482000166,,,,,,,,,,,,,,,,,314.51589400001103,314.6302043000178,315.43070520000765,315.4147823000094,,,,,,,,,,,,,,,,,,,,,,,,,,,,,,,,,,,315.41940949999844,315.43070520000765,315.43070520000765,316.2164805000066,b,1.0,0.7716392000147607,,,,,sub-141,1,stroop_test,59.81870148484222,
,,,,50.0,2.0,4.0,,,,,,,,,,,,,blau,blue,b,1.0,b,1.0,0.6290130999987014,,,,,,,,,,4.0,2.0,50.0,6.0,316.2309935000085,,,,,,,,,,,,,,,,,316.21701510000275,317.431923199998,318.2327542999992,318.21680990001187,,,,,,,,,,,,,,,,,,,,,,,,,,,,,,,,,,,318.22172810000484,318.2327542999992,318.2327542999992,318.8683335999958,b,1.0,0.6290130999987014,,,,,sub-141,1,stroop_test,59.81870148484222,
,,,,51.0,3.0,4.0,,,,,,,,,,,,,rot,red,r,1.0,r,1.0,0.7495917000051122,,,,,,,,,,4.0,3.0,51.0,1.0,318.8827871000103,,,,,,,,,,,,,,,,,318.86886190000223,318.9829869999958,319.7835697999981,319.76771750001353,,,,,,,,,,,,,,,,,,,,,,,,,,,,,,,,,,,319.77316860001883,319.7835697999981,319.7835697999981,320.5362514000153,r,1.0,0.7495917000051122,,,,,sub-141,1,stroop_test,59.81870148484222,
,,,,52.0,4.0,4.0,,,,,,,,,,,,,blau,yellow,g,0.0,g,1.0,0.8202903000055812,,,,,,,,,,4.0,4.0,52.0,7.0,320.55064940001466,,,,,,,,,,,,,,,,,320.5367296000186,321.75147050002124,322.55211899999995,322.5365012999973,,,,,,,,,,,,,,,,,,,,,,,,,,,,,,,,,,,322.5412021999946,322.55211899999995,322.55211899999995,323.38801720002084,g,1.0,0.8202903000055812,,,,,sub-141,1,stroop_test,59.81870148484222,
,,,,53.0,5.0,4.0,,,,,,,,,,,,,rot,yellow,g,0.0,g,1.0,0.7692141000006814,,,,,,,,,,4.0,5.0,53.0,3.0,323.4025733000017,,,,,,,,,,,,,,,,,323.3885354000085,324.20323640000424,325.0030515000108,324.9873573000077,,,,,,,,,,,,,,,,,,,,,,,,,,,,,,,,,,,324.99243600000045,325.0030515000108,325.0030515000108,325.7894299000036,g,1.0,0.7692141000006814,,,,,sub-141,1,stroop_test,59.81870148484222,
,,,,54.0,6.0,4.0,,,,,,,,,,,,,blau,red,r,0.0,r,1.0,0.6669835000066087,,,,,,,,,,4.0,6.0,54.0,4.0,325.8042756000068,,,,,,,,,,,,,,,,,325.7899355000118,326.15439250000054,326.9549959000142,326.9395288999949,,,,,,,,,,,,,,,,,,,,,,,,,,,,,,,,,,,326.9445697000192,326.9549959000142,326.9549959000142,327.6245915000036,r,1.0,0.6669835000066087,,,,,sub-141,1,stroop_test,59.81870148484222,
,,,,55.0,7.0,4.0,,,,,,,,,,,,,gelb,red,r,0.0,r,1.0,0.8934325000154786,,,,,,,,,,4.0,7.0,55.0,8.0,327.6389471000002,,,,,,,,,,,,,,,,,327.62515050001093,327.73892870001146,328.5395771000185,328.5237909000134,,,,,,,,,,,,,,,,,,,,,,,,,,,,,,,,,,,328.5286219000118,328.5395771000185,328.5395771000185,329.44283330001053,r,1.0,0.8934325000154786,,,,,sub-141,1,stroop_test,59.81870148484222,
,,,,56.0,8.0,4.0,,,,,,,,,,,,,blau,blue,b,1.0,b,1.0,0.66427229999681,,,,,,,,,,4.0,8.0,56.0,5.0,329.45675740001025,,,,,,,,,,,,,,,,,329.4435030000168,330.25742740000715,331.0580135000055,331.04242400001385,,,,,,,,,,,,,,,,,,,,,,,,,,,,,,,,,,,331.0479577000078,331.0580135000055,331.0580135000055,331.72695750001003,b,1.0,0.66427229999681,,,,,sub-141,1,stroop_test,59.81870148484222,
,,,,57.0,9.0,4.0,,,,,,,,,,,,,rot,red,r,1.0,r,1.0,0.6802703999856021,,,,,,,,,,4.0,9.0,57.0,0.0,331.7418813999975,,,,,,,,,,,,,,,,,331.72748450000654,331.84181620000163,332.64280100000906,332.6268457999977,,,,,,,,,,,,,,,,,,,,,,,,,,,,,,,,,,,332.6315155000193,332.64280100000906,332.64280100000906,333.3282517000044,r,1.0,0.6802703999856021,,,,,sub-141,1,stroop_test,59.81870148484222,
,,,,58.0,10.0,4.0,,,,,,,,,,,,,gelb,yellow,g,1.0,g,1.0,0.6993573000072502,,,,,,,,,,4.0,10.0,58.0,10.0,333.3431755000201,,,,,,,,,,,,,,,,,333.3287178000028,333.69303510000464,334.4937031000154,334.4782122000179,,,,,,,,,,,,,,,,,,,,,,,,,,,,,,,,,,,334.4833855000033,334.4937031000154,334.4937031000154,335.19608230001177,g,1.0,0.6993573000072502,,,,,sub-141,1,stroop_test,59.81870148484222,
,,,,59.0,11.0,4.0,,,,,,,,,,,,,gelb,yellow,g,1.0,g,1.0,0.9599398999998812,,,,,,,,,,4.0,11.0,59.0,11.0,335.210963599995,,,,,,,,,,,,,,,,,335.1966292000143,336.41149810000206,337.2123137000017,337.19656620000023,,,,,,,,,,,,,,,,,,,,,,,,,,,,,,,,,,,337.19729530002223,337.2123137000017,337.2123137000017,338.18226510001114,g,1.0,0.9599398999998812,,,,,sub-141,1,stroop_test,59.81870148484222,
,,,,60.0,0.0,5.0,,,,,,,,,,,,,gelb,blue,b,0.0,b,1.0,1.2047414999979082,,,,,,,,,,5.0,0.0,60.0,9.0,338.19642720001866,,,,,,,,,,,,,,,,,338.1828217000002,338.2962926000182,339.0971201000212,339.08135280001443,,,,,,,,,,,,,,,,,,,,,,,,,,,,,,,,,,,339.0820118999982,339.0971201000212,339.0971201000212,340.3166182000132,b,1.0,1.2047414999979082,,,,,sub-141,1,stroop_test,59.81870148484222,
,,,,61.0,1.0,5.0,,,,,,,,,,,,,gelb,red,r,0.0,r,1.0,0.9101650999800768,,,,,,,,,,5.0,1.0,61.0,8.0,340.33131440001307,,,,,,,,,,,,,,,,,340.3172396000009,341.5317924999981,342.332524700003,342.3170523000008,,,,,,,,,,,,,,,,,,,,,,,,,,,,,,,,,,,342.3177224000101,342.332524700003,342.332524700003,343.252410999994,r,1.0,0.9101650999800768,,,,,sub-141,1,stroop_test,59.81870148484222,
,,,,62.0,2.0,5.0,,,,,,,,,,,,,rot,red,r,1.0,r,1.0,0.5347683999862056,,,,,,,,,,5.0,2.0,62.0,0.0,343.26657340000384,,,,,,,,,,,,,,,,,343.25295090000145,344.0669173000206,344.8674248000025,344.85207459999947,,,,,,,,,,,,,,,,,,,,,,,,,,,,,,,,,,,344.8571021000098,344.8674248000025,344.8674248000025,345.4200486000045,r,1.0,0.5347683999862056,,,,,sub-141,1,stroop_test,59.81870148484222,
,,,,63.0,3.0,5.0,,,,,,,,,,,,,gelb,yellow,g,1.0,g,1.0,1.126551000023028,,,,,,,,,,5.0,3.0,63.0,10.0,345.43472610000754,,,,,,,,,,,,,,,,,345.42056130000856,346.2352638000157,347.03575480001746,347.0199208999984,,,,,,,,,,,,,,,,,,,,,,,,,,,,,,,,,,,347.0243855000008,347.03575480001746,347.03575480001746,348.1720168000029,g,1.0,1.126551000023028,,,,,sub-141,1,stroop_test,59.81870148484222,
,,,,64.0,4.0,5.0,,,,,,,,,,,,,gelb,yellow,g,1.0,g,1.0,0.6169198999996297,,,,,,,,,,5.0,4.0,64.0,11.0,348.18632710000384,,,,,,,,,,,,,,,,,348.172527000017,349.387160400016,350.187948900013,350.1724504000158,,,,,,,,,,,,,,,,,,,,,,,,,,,,,,,,,,,350.1731616000179,350.187948900013,350.187948900013,350.80781019999995,g,1.0,0.6169198999996297,,,,,sub-141,1,stroop_test,59.81870148484222,
,,,,65.0,5.0,5.0,,,,,,,,,,,,,rot,yellow,g,0.0,g,1.0,0.8698510999965947,,,,,,,,,,5.0,5.0,65.0,3.0,350.821568400017,,,,,,,,,,,,,,,,,350.80831860000035,351.62206460000016,352.4229171000188,352.40720820002025,,,,,,,,,,,,,,,,,,,,,,,,,,,,,,,,,,,352.4122918000212,352.4229171000188,352.4229171000188,353.30878089999896,g,1.0,0.8698510999965947,,,,,sub-141,1,stroop_test,59.81870148484222,
,,,,66.0,6.0,5.0,,,,,,,,,,,,,rot,red,r,1.0,r,1.0,0.6690534000226762,,,,,,,,,,5.0,6.0,66.0,1.0,353.3230916000029,,,,,,,,,,,,,,,,,353.30927070000325,353.42343009999604,354.22428769999533,354.2086401999986,,,,,,,,,,,,,,,,,,,,,,,,,,,,,,,,,,,354.2093063000066,354.22428769999533,354.22428769999533,354.9097195000213,r,1.0,0.6690534000226762,,,,,sub-141,1,stroop_test,59.81870148484222,
,,,,67.0,7.0,5.0,,,,,,,,,,,,,blau,blue,b,1.0,b,1.0,0.7278768000251148,,,,,,,,,,5.0,7.0,67.0,6.0,354.9244810999953,,,,,,,,,,,,,,,,,354.9102334000054,355.72480640001595,356.52584119999665,356.5100378000061,,,,,,,,,,,,,,,,,,,,,,,,,,,,,,,,,,,356.5153649999993,356.52584119999665,356.52584119999665,357.2616981000174,b,1.0,0.7278768000251148,,,,,sub-141,1,stroop_test,59.81870148484222,
,,,,68.0,8.0,5.0,,,,,,,,,,,,,blau,blue,b,1.0,b,1.0,0.5065841000177898,,,,,,,,,,5.0,8.0,68.0,5.0,357.27600780001376,,,,,,,,,,,,,,,,,357.2622448000184,357.6264320000191,358.4269254000101,358.4114473000227,,,,,,,,,,,,,,,,,,,,,,,,,,,,,,,,,,,358.4122109000164,358.4269254000101,358.4269254000101,358.9460819000087,b,1.0,0.5065841000177898,,,,,sub-141,1,stroop_test,59.81870148484222,
,,,,69.0,9.0,5.0,,,,,,,,,,,,,blau,red,r,0.0,r,1.0,1.0110815000080038,,,,,,,,,,5.0,9.0,69.0,4.0,358.9608661000093,,,,,,,,,,,,,,,,,358.9466548000055,359.3108981999976,360.1116088000126,360.0957920000073,,,,,,,,,,,,,,,,,,,,,,,,,,,,,,,,,,,360.0964601000014,360.1116088000126,360.1116088000126,361.1309867000091,r,1.0,1.0110815000080038,,,,,sub-141,1,stroop_test,59.81870148484222,
,,,,70.0,10.0,5.0,,,,,,,,,,,,,blau,yellow,g,0.0,g,1.0,0.6167551999969874,,,,,,,,,,5.0,10.0,70.0,7.0,361.1451725999941,,,,,,,,,,,,,,,,,361.1314777999942,361.49562480000895,362.2966553000151,362.2806972000108,,,,,,,,,,,,,,,,,,,,,,,,,,,,,,,,,,,362.28134710001177,362.2966553000151,362.2966553000151,362.9161004000052,g,1.0,0.6167551999969874,,,,,sub-141,1,stroop_test,59.81870148484222,
,,,,71.0,11.0,5.0,,,,,,,,,,,,,rot,blue,b,0.0,b,1.0,1.2717443000001367,,,,,,,,,,5.0,11.0,71.0,2.0,362.92988579999655,,,,,,,,,,,,,,,,,362.9166793000186,364.1306323000172,364.93127160001313,364.9159953000199,,,,,,,,,,,,,,,,,,,,,,,,,,,,,,,,,,,364.9215465000016,364.93127160001313,364.93127160001313,366.2177087000164,b,1.0,1.2717443000001367,,,,,sub-141,1,stroop_test,59.81870148484222,
,,,,72.0,0.0,6.0,,,,,,,,,,,,,blau,yellow,g,0.0,g,1.0,1.280807700008154,,,,,,,,,,6.0,0.0,72.0,7.0,366.2320202999981,,,,,,,,,,,,,,,,,366.2182163000107,366.3322630000184,367.1330407000205,367.1174498000182,,,,,,,,,,,,,,,,,,,,,,,,,,,,,,,,,,,367.1231092000089,367.1330407000205,367.1330407000205,368.4194520000019,g,1.0,1.280807700008154,,,,,sub-141,1,stroop_test,59.81870148484222,
,,,,73.0,1.0,6.0,,,,,,,,,,,,,rot,red,r,1.0,r,1.0,0.7178175000008196,,,,,,,,,,6.0,1.0,73.0,0.0,368.43383480000193,,,,,,,,,,,,,,,,,368.42007469999953,369.6341150000226,370.4351453999989,370.4196055000066,,,,,,,,,,,,,,,,,,,,,,,,,,,,,,,,,,,370.4260365000228,370.4351453999989,370.4351453999989,371.15494510001736,r,1.0,0.7178175000008196,,,,,sub-141,1,stroop_test,59.81870148484222,
,,,,74.0,2.0,6.0,,,,,,,,,,,,,blau,blue,b,1.0,b,1.0,0.8735116999887396,,,,,,,,,,6.0,2.0,74.0,6.0,371.1690561000141,,,,,,,,,,,,,,,,,371.1554500000202,371.96974749999936,372.7701661000028,372.7548270999978,,,,,,,,,,,,,,,,,,,,,,,,,,,,,,,,,,,372.75938930001575,372.7701661000028,372.7701661000028,373.6557100000209,b,1.0,0.8735116999887396,,,,,sub-141,1,stroop_test,59.81870148484222,
,,,,75.0,3.0,6.0,,,,,,,,,,,,,rot,red,r,1.0,r,1.0,0.611593499983428,,,,,,,,,,6.0,3.0,75.0,1.0,373.6708239,,,,,,,,,,,,,,,,,373.6562169000099,374.4713386000076,375.27196260000346,375.25661989999935,,,,,,,,,,,,,,,,,,,,,,,,,,,,,,,,,,,375.261869000009,375.27196260000346,375.27196260000346,375.891276600014,r,1.0,0.611593499983428,,,,,sub-141,1,stroop_test,59.81870148484222,
,,,,76.0,4.0,6.0,,,,,,,,,,,,,rot,blue,b,0.0,b,1.0,0.8864014999999199,,,,,,,,,,6.0,4.0,76.0,2.0,375.9056844000006,,,,,,,,,,,,,,,,,375.89188559999457,376.7062789000047,377.5068716999958,377.4910878000082,,,,,,,,,,,,,,,,,,,,,,,,,,,,,,,,,,,377.4918466999952,377.5068716999958,377.5068716999958,378.40936290001264,b,1.0,0.8864014999999199,,,,,sub-141,1,stroop_test,59.81870148484222,
,,,,77.0,5.0,6.0,,,,,,,,,,,,,rot,yellow,g,0.0,g,1.0,1.0174992000102066,,,,,,,,,,6.0,5.0,77.0,3.0,378.4239922999986,,,,,,,,,,,,,,,,,378.4099233000016,379.6250466000056,380.42521580000175,380.40988290001405,,,,,,,,,,,,,,,,,,,,,,,,,,,,,,,,,,,380.4105767000001,380.42521580000175,380.42521580000175,381.4451530000079,g,1.0,1.0174992000102066,,,,,sub-141,1,stroop_test,59.81870148484222,
,,,,78.0,6.0,6.0,,,,,,,,,,,,,gelb,yellow,g,1.0,g,1.0,0.5829327999963425,,,,,,,,,,6.0,6.0,78.0,11.0,381.4596333999944,,,,,,,,,,,,,,,,,381.4456327999942,382.6603804000188,383.46095030001015,383.4454521000153,,,,,,,,,,,,,,,,,,,,,,,,,,,,,,,,,,,383.4502899000072,383.46095030001015,383.46095030001015,384.0468842000119,g,1.0,0.5829327999963425,,,,,sub-141,1,stroop_test,59.81870148484222,
,,,,79.0,7.0,6.0,,,,,,,,,,,,,blau,red,r,0.0,r,1.0,1.0210490000026766,,,,,,,,,,6.0,7.0,79.0,4.0,384.0613321000128,,,,,,,,,,,,,,,,,384.04743580002105,384.4116343000205,385.2114651000011,385.1959021000075,,,,,,,,,,,,,,,,,,,,,,,,,,,,,,,,,,,385.2015758000198,385.2114651000011,385.2114651000011,386.2478043000156,r,1.0,1.0210490000026766,,,,,sub-141,1,stroop_test,59.81870148484222,
,,,,80.0,8.0,6.0,,,,,,,,,,,,,gelb,red,r,0.0,r,1.0,1.1792157999880146,,,,,,,,,,6.0,8.0,80.0,8.0,386.2629061000189,,,,,,,,,,,,,,,,,386.2482946999953,386.3628916000016,387.1634570000169,387.1476498999982,,,,,,,,,,,,,,,,,,,,,,,,,,,,,,,,,,,387.1522637000016,387.1634570000169,387.1634570000169,388.34910340001807,r,1.0,1.1792157999880146,,,,,sub-141,1,stroop_test,59.81870148484222,
,,,,81.0,9.0,6.0,,,,,,,,,,,,,gelb,blue,b,0.0,b,1.0,0.9681102999893484,,,,,,,,,,6.0,9.0,81.0,9.0,388.3639319000067,,,,,,,,,,,,,,,,,388.3496005000197,388.464235499996,389.2650944000052,389.2492458000197,,,,,,,,,,,,,,,,,,,,,,,,,,,,,,,,,,,389.250011199998,389.2650944000052,389.2650944000052,390.2489648000046,b,1.0,0.9681102999893484,,,,,sub-141,1,stroop_test,59.81870148484222,
,,,,82.0,10.0,6.0,,,,,,,,,,,,,gelb,yellow,g,1.0,g,1.0,0.8143122000037692,,,,,,,,,,6.0,10.0,82.0,10.0,390.2647915999987,,,,,,,,,,,,,,,,,390.2492024000094,390.3481180999952,391.1496207000164,391.13383870001417,,,,,,,,,,,,,,,,,,,,,,,,,,,,,,,,,,,391.1345027000061,391.1496207000164,391.1496207000164,391.9687769000011,g,1.0,0.8143122000037692,,,,,sub-141,1,stroop_test,59.81870148484222,
,,,,83.0,11.0,6.0,,,,,,,,,,,,,blau,blue,b,1.0,b,1.0,0.8181207000161521,,,,,,,,,,6.0,11.0,83.0,5.0,391.98357100001886,,,,,,,,,,,,,,,,,391.9693407000159,392.78385810001055,393.5847512000182,393.56892510000034,,,,,,,,,,,,,,,,,,,,,,,,,,,,,,,,,,,393.5742363000172,393.5847512000182,393.5847512000182,394.42044330001227,b,1.0,0.8181207000161521,,,,,sub-141,1,stroop_test,59.81870148484222,
,,,,84.0,0.0,7.0,,,,,,,,,,,,,gelb,red,r,0.0,r,1.0,0.788198399997782,,,,,,,,,,7.0,0.0,84.0,8.0,394.4351588000136,,,,,,,,,,,,,,,,,394.4211433000164,394.5351557999966,395.3358539000037,395.3200211000221,,,,,,,,,,,,,,,,,,,,,,,,,,,,,,,,,,,395.3244655000162,395.3358539000037,395.3358539000037,396.1382644000114,r,1.0,0.788198399997782,,,,,sub-141,1,stroop_test,59.81870148484222,
,,,,85.0,1.0,7.0,,,,,,,,,,,,,blau,yellow,g,0.0,g,1.0,0.9981855000078212,,,,,,,,,,7.0,1.0,85.0,7.0,396.15298850002,,,,,,,,,,,,,,,,,396.13873999999487,396.95368940001936,397.7559503999946,397.7390805000032,,,,,,,,,,,,,,,,,,,,,,,,,,,,,,,,,,,397.7445229000005,397.7559503999946,397.7559503999946,398.757388500002,g,1.0,0.9981855000078212,,,,,sub-141,1,stroop_test,59.81870148484222,
,,,,86.0,2.0,7.0,,,,,,,,,,,,,gelb,yellow,g,1.0,g,1.0,0.5008454000053462,,,,,,,,,,7.0,2.0,86.0,10.0,398.7715183999972,,,,,,,,,,,,,,,,,398.75789150001947,398.87140620002174,399.67211860002135,399.6566313000221,,,,,,,,,,,,,,,,,,,,,,,,,,,,,,,,,,,399.6621694000205,399.67211860002135,399.67211860002135,400.1752495999972,g,1.0,0.5008454000053462,,,,,sub-141,1,stroop_test,59.81870148484222,
,,,,87.0,3.0,7.0,,,,,,,,,,,,,blau,blue,b,1.0,b,1.0,0.6240600000019185,,,,,,,,,,7.0,3.0,87.0,6.0,400.1890433000226,,,,,,,,,,,,,,,,,400.17572830000427,400.9896282000118,401.7902629000018,401.7748152000131,,,,,,,,,,,,,,,,,,,,,,,,,,,,,,,,,,,401.7801083000086,401.7902629000018,401.7902629000018,402.4258584000054,b,1.0,0.6240600000019185,,,,,sub-141,1,stroop_test,59.81870148484222,
,,,,88.0,4.0,7.0,,,,,,,,,,,,,gelb,yellow,g,1.0,g,1.0,0.7012803999823518,,,,,,,,,,7.0,4.0,88.0,11.0,402.4405429000035,,,,,,,,,,,,,,,,,402.4263929000008,402.5407716000045,403.341551599995,403.3258907000127,,,,,,,,,,,,,,,,,,,,,,,,,,,,,,,,,,,403.3308522000152,403.341551599995,403.341551599995,404.0602332999988,g,1.0,0.7012803999823518,,,,,sub-141,1,stroop_test,59.81870148484222,
,,,,89.0,5.0,7.0,,,,,,,,,,,,,rot,red,r,1.0,r,1.0,0.6647563999867998,,,,,,,,,,7.0,5.0,89.0,1.0,404.0755649000057,,,,,,,,,,,,,,,,,404.0607297999959,404.87559440001496,405.6781223000144,405.66033590000006,,,,,,,,,,,,,,,,,,,,,,,,,,,,,,,,,,,405.6653642000165,405.6781223000144,405.6781223000144,406.3455227999948,r,1.0,0.6647563999867998,,,,,sub-141,1,stroop_test,59.81870148484222,
,,,,90.0,6.0,7.0,,,,,,,,,,,,,blau,blue,b,1.0,b,1.0,0.7116950000054203,,,,,,,,,,7.0,6.0,90.0,5.0,406.3600342000136,,,,,,,,,,,,,,,,,406.34599820000585,406.7102046000073,407.512742299994,407.4952602999984,,,,,,,,,,,,,,,,,,,,,,,,,,,,,,,,,,,407.50015460001305,407.512742299994,407.512742299994,408.22999200000777,b,1.0,0.7116950000054203,,,,,sub-141,1,stroop_test,59.81870148484222,
,,,,91.0,7.0,7.0,,,,,,,,,,,,,rot,red,r,1.0,r,1.0,0.6206347999977879,,,,,,,,,,7.0,7.0,91.0,0.0,408.244597700017,,,,,,,,,,,,,,,,,408.230566800019,409.4454936000111,410.2529586000019,410.2304259999946,,,,,,,,,,,,,,,,,,,,,,,,,,,,,,,,,,,410.2361240000173,410.2529586000019,410.2529586000019,410.8824787000194,r,1.0,0.6206347999977879,,,,,sub-141,1,stroop_test,59.81870148484222,
,,,,92.0,8.0,7.0,,,,,,,,,,,,,blau,red,r,0.0,r,1.0,1.2161545999988448,,,,,,,,,,7.0,8.0,92.0,4.0,410.8963816000032,,,,,,,,,,,,,,,,,410.8830482000194,412.0973017000069,412.8980962000205,412.882528200018,,,,,,,,,,,,,,,,,,,,,,,,,,,,,,,,,,,412.8875950000074,412.8980962000205,412.8980962000205,414.1173175000004,r,1.0,1.2161545999988448,,,,,sub-141,1,stroop_test,59.81870148484222,
,,,,93.0,9.0,7.0,,,,,,,,,,,,,gelb,blue,b,0.0,b,1.0,1.0505841000122018,,,,,,,,,,7.0,9.0,93.0,9.0,414.1320495000109,,,,,,,,,,,,,,,,,414.1177967000112,414.23195030001807,415.03281279999646,415.0169016,,,,,,,,,,,,,,,,,,,,,,,,,,,,,,,,,,,415.0217231000133,415.03281279999646,415.03281279999646,416.0853123000125,b,1.0,1.0505841000122018,,,,,sub-141,1,stroop_test,59.81870148484222,
,,,,94.0,10.0,7.0,,,,,,,,,,,,,rot,blue,b,0.0,b,1.0,1.033995900012087,,,,,,,,,,7.0,10.0,94.0,2.0,416.100007800007,,,,,,,,,,,,,,,,,416.0858644999971,416.4505705000192,417.250953300012,417.235313400015,,,,,,,,,,,,,,,,,,,,,,,,,,,,,,,,,,,417.2400744000042,417.250953300012,417.250953300012,418.2877587999974,b,1.0,1.033995900012087,,,,,sub-141,1,stroop_test,59.81870148484222,
,,,,95.0,11.0,7.0,,,,,,,,,,,,,rot,yellow,g,0.0,g,1.0,0.7013032999821007,,,,,,,,,,7.0,11.0,95.0,3.0,418.3016590000189,,,,,,,,,,,,,,,,,418.2882336000039,418.4015530000033,419.2023861000198,419.1868708000111,,,,,,,,,,,,,,,,,,,,,,,,,,,,,,,,,,,419.1875041000021,419.2023861000198,419.2023861000198,419.9208667000057,g,1.0,0.7013032999821007,,,,,sub-141,1,stroop_test,59.81870148484222,
,,,,96.0,0.0,8.0,,,,,,,,,,,,,gelb,yellow,g,1.0,g,1.0,0.6335027999884915,,,,,,,,,,8.0,0.0,96.0,10.0,419.9361729000229,,,,,,,,,,,,,,,,,419.9213529000117,420.720161300007,421.5205700999941,421.5048395000049,,,,,,,,,,,,,,,,,,,,,,,,,,,,,,,,,,,421.5095661999949,421.5205700999941,421.5205700999941,422.15691580000566,g,1.0,0.6335027999884915,,,,,sub-141,1,stroop_test,59.81870148484222,
,,,,97.0,1.0,8.0,,,,,,,,,,,,,blau,red,r,0.0,r,1.0,1.25796519999858,,,,,,,,,,8.0,1.0,97.0,4.0,422.1710683999991,,,,,,,,,,,,,,,,,422.1574041999993,422.9716751000087,423.77556050001294,423.75681730001816,,,,,,,,,,,,,,,,,,,,,,,,,,,,,,,,,,,423.7624769000104,423.77556050001294,423.77556050001294,425.0410000999982,r,1.0,1.25796519999858,,,,,sub-141,1,stroop_test,59.81870148484222,
,,,,98.0,2.0,8.0,,,,,,,,,,,,,rot,blue,b,0.0,b,1.0,1.0624392000027,,,,,,,,,,8.0,2.0,98.0,2.0,425.05567550001433,,,,,,,,,,,,,,,,,425.0413730000146,426.2403947999992,427.04096710000886,427.02570739999646,,,,,,,,,,,,,,,,,,,,,,,,,,,,,,,,,,,427.03091349999886,427.04096710000886,427.04096710000886,428.1110363000189,b,1.0,1.0624392000027,,,,,sub-141,1,stroop_test,59.81870148484222,
,,,,99.0,3.0,8.0,,,,,,,,,,,,,rot,red,r,1.0,r,1.0,0.7080875000101514,,,,,,,,,,8.0,3.0,99.0,0.0,428.1251200000115,,,,,,,,,,,,,,,,,428.1116162000108,428.47524080000585,429.2759630000219,429.26036030001706,,,,,,,,,,,,,,,,,,,,,,,,,,,,,,,,,,,429.26105890001054,429.2759630000219,429.2759630000219,429.99526310001966,r,1.0,0.7080875000101514,,,,,sub-141,1,stroop_test,59.81870148484222,
,,,,100.0,4.0,8.0,,,,,,,,,,,,,blau,yellow,g,0.0,g,1.0,0.9526239999977406,,,,,,,,,,8.0,4.0,100.0,7.0,430.0097849000013,,,,,,,,,,,,,,,,,429.9958045000094,430.3598481999943,431.1606141999946,431.1447307000053,,,,,,,,,,,,,,,,,,,,,,,,,,,,,,,,,,,431.14929880001,431.1606141999946,431.1606141999946,432.1298671000113,g,1.0,0.9526239999977406,,,,,sub-141,1,stroop_test,59.81870148484222,
,,,,101.0,5.0,8.0,,,,,,,,,,,,,blau,blue,b,1.0,b,1.0,0.6789837999967858,,,,,,,,,,8.0,5.0,101.0,5.0,432.1443966999941,,,,,,,,,,,,,,,,,432.1303954000177,433.3453374000092,434.14588630001526,434.1305024000176,,,,,,,,,,,,,,,,,,,,,,,,,,,,,,,,,,,434.1311676000186,434.14588630001526,434.14588630001526,434.8317642000038,b,1.0,0.6789837999967858,,,,,sub-141,1,stroop_test,59.81870148484222,
,,,,102.0,6.0,8.0,,,,,,,,,,,,,rot,yellow,g,0.0,g,1.0,1.736556899995776,,,,,,,,,,8.0,6.0,102.0,3.0,434.8461622000032,,,,,,,,,,,,,,,,,434.8322756999987,435.1964692000183,435.9973296000098,435.98143290000735,,,,,,,,,,,,,,,,,,,,,,,,,,,,,,,,,,,435.9862992000126,435.9973296000098,435.9973296000098,437.75039930001367,g,1.0,1.736556899995776,,,,,sub-141,1,stroop_test,59.81870148484222,
,,,,103.0,7.0,8.0,,,,,,,,,,,,,gelb,blue,b,0.0,b,1.0,1.0982195000106003,,,,,,,,,,8.0,7.0,103.0,9.0,437.7652532000211,,,,,,,,,,,,,,,,,437.75098640000215,438.9660946000077,439.7667147000029,439.75111450001714,,,,,,,,,,,,,,,,,,,,,,,,,,,,,,,,,,,439.7569473000185,439.7667147000029,439.7667147000029,440.869302600011,b,1.0,1.0982195000106003,,,,,sub-141,1,stroop_test,59.81870148484222,
,,,,104.0,8.0,8.0,,,,,,,,,,,,,gelb,red,r,0.0,r,1.0,1.0796557000139728,,,,,,,,,,8.0,8.0,104.0,8.0,440.8836860000156,,,,,,,,,,,,,,,,,440.86982089999947,441.6843741000048,442.48484630000894,442.469368399994,,,,,,,,,,,,,,,,,,,,,,,,,,,,,,,,,,,442.4700017000141,442.48484630000894,442.48484630000894,443.57120760000544,r,1.0,1.0796557000139728,,,,,sub-141,1,stroop_test,59.81870148484222,
,,,,105.0,9.0,8.0,,,,,,,,,,,,,rot,red,r,1.0,r,1.0,0.6867331999819726,,,,,,,,,,8.0,9.0,105.0,1.0,443.5856744000048,,,,,,,,,,,,,,,,,443.571734600002,444.7865774999955,445.5871486999968,445.5715766000212,,,,,,,,,,,,,,,,,,,,,,,,,,,,,,,,,,,445.5761843000073,445.5871486999968,445.5871486999968,446.2896990000154,r,1.0,0.6867331999819726,,,,,sub-141,1,stroop_test,59.81870148484222,
,,,,106.0,10.0,8.0,,,,,,,,,,,,,blau,blue,b,1.0,b,1.0,0.7598356999806128,,,,,,,,,,8.0,10.0,106.0,6.0,446.3041490000032,,,,,,,,,,,,,,,,,446.2902345000184,447.5051623000181,448.3056438000058,448.2900224000041,,,,,,,,,,,,,,,,,,,,,,,,,,,,,,,,,,,448.2946862000099,448.3056438000058,448.3056438000058,449.0751465000212,b,1.0,0.7598356999806128,,,,,sub-141,1,stroop_test,59.81870148484222,
,,,,107.0,11.0,8.0,,,,,,,,,,,,,gelb,yellow,g,1.0,g,1.0,0.7143107999872882,,,,,,,,,,8.0,11.0,107.0,11.0,449.0896701000165,,,,,,,,,,,,,,,,,449.0757626999985,449.1895635999972,449.9905464000185,449.97469410000485,,,,,,,,,,,,,,,,,,,,,,,,,,,,,,,,,,,449.97958899999503,449.9905464000185,449.9905464000185,450.7096762000001,g,1.0,0.7143107999872882,,,,,sub-141,1,stroop_test,59.81870148484222,
,,,,108.0,0.0,9.0,,,,,,,,,,,,,rot,red,r,1.0,r,1.0,1.451144100021338,,,,,,,,,,9.0,0.0,108.0,1.0,450.7241544999997,,,,,,,,,,,,,,,,,450.7102259999956,450.8240451000165,451.62440329999663,451.60911069999565,,,,,,,,,,,,,,,,,,,,,,,,,,,,,,,,,,,451.6144691999944,451.62440329999663,451.62440329999663,453.0782095000032,r,1.0,1.451144100021338,,,,,sub-141,1,stroop_test,59.81870148484222,
,,,,109.0,1.0,9.0,,,,,,,,,,,,,blau,red,r,0.0,r,1.0,1.2212782000133302,,,,,,,,,,9.0,1.0,109.0,4.0,453.0921413000033,,,,,,,,,,,,,,,,,453.0786900999956,453.8931524000072,454.6936042000016,454.6778101999953,,,,,,,,,,,,,,,,,,,,,,,,,,,,,,,,,,,454.6842242999992,454.6936042000016,454.6936042000016,455.9298659000197,r,1.0,1.2212782000133302,,,,,sub-141,1,stroop_test,59.81870148484222,
,,,,110.0,2.0,9.0,,,,,,,,,,,,,gelb,blue,b,0.0,b,1.0,1.0292931000003591,,,,,,,,,,9.0,2.0,110.0,9.0,455.9442448000191,,,,,,,,,,,,,,,,,455.9304258000048,456.0444255000039,456.8449277000036,456.829536300007,,,,,,,,,,,,,,,,,,,,,,,,,,,,,,,,,,,456.8341928000154,456.8449277000036,456.8449277000036,457.88119040001766,b,1.0,1.0292931000003591,,,,,sub-141,1,stroop_test,59.81870148484222,
,,,,111.0,3.0,9.0,,,,,,,,,,,,,gelb,yellow,g,1.0,g,1.0,0.7978320000111125,,,,,,,,,,9.0,3.0,111.0,10.0,457.8958446000179,,,,,,,,,,,,,,,,,457.8817010000057,457.9955756000127,458.7962801000104,458.7807524999953,,,,,,,,,,,,,,,,,,,,,,,,,,,,,,,,,,,458.7814164000156,458.7962801000104,458.7962801000104,459.59863720001886,g,1.0,0.7978320000111125,,,,,sub-141,1,stroop_test,59.81870148484222,
,,,,112.0,4.0,9.0,,,,,,,,,,,,,gelb,red,r,0.0,r,1.0,0.6905137000139803,,,,,,,,,,9.0,4.0,112.0,8.0,459.6134985999961,,,,,,,,,,,,,,,,,459.5991937000072,460.4139213000017,461.21466120000696,461.19905610001297,,,,,,,,,,,,,,,,,,,,,,,,,,,,,,,,,,,461.1997095000115,461.21466120000696,461.21466120000696,461.9172945000173,r,1.0,0.6905137000139803,,,,,sub-141,1,stroop_test,59.81870148484222,
,,,,113.0,5.0,9.0,,,,,,,,,,,,,blau,blue,b,1.0,b,1.0,0.7406834000139497,,,,,,,,,,9.0,5.0,113.0,6.0,461.9316605000058,,,,,,,,,,,,,,,,,461.9177728000213,462.0317482000101,462.8337841000175,462.8172003000218,,,,,,,,,,,,,,,,,,,,,,,,,,,,,,,,,,,462.8224035000021,462.8337841000175,462.8337841000175,463.585101500008,b,1.0,0.7406834000139497,,,,,sub-141,1,stroop_test,59.81870148484222,
,,,,114.0,6.0,9.0,,,,,,,,,,,,,rot,red,r,1.0,r,1.0,0.6650194000103511,,,,,,,,,,9.0,6.0,114.0,0.0,463.5995064000017,,,,,,,,,,,,,,,,,463.5856412000139,463.9498145999969,464.7502898999956,464.7346199000021,,,,,,,,,,,,,,,,,,,,,,,,,,,,,,,,,,,464.74070950000896,464.7502898999956,464.7502898999956,465.4195228000172,r,1.0,0.6650194000103511,,,,,sub-141,1,stroop_test,59.81870148484222,
,,,,115.0,7.0,9.0,,,,,,,,,,,,,blau,blue,b,1.0,b,1.0,1.000780600006692,,,,,,,,,,9.0,7.0,115.0,5.0,465.4339650000038,,,,,,,,,,,,,,,,,465.4200778999948,466.2347258999944,467.0352511999954,467.0195662000042,,,,,,,,,,,,,,,,,,,,,,,,,,,,,,,,,,,467.02395329999854,467.0352511999954,467.0352511999954,468.03878450000775,b,1.0,1.000780600006692,,,,,sub-141,1,stroop_test,59.81870148484222,
,,,,116.0,8.0,9.0,,,,,,,,,,,,,rot,blue,b,0.0,b,1.0,1.169981100014411,,,,,,,,,,9.0,8.0,116.0,2.0,468.0526265000226,,,,,,,,,,,,,,,,,468.0393045000092,469.2533911000064,470.05410710000433,470.0387039000052,,,,,,,,,,,,,,,,,,,,,,,,,,,,,,,,,,,470.04464209999423,470.05410710000433,470.05410710000433,471.24023739999393,b,1.0,1.169981100014411,,,,,sub-141,1,stroop_test,59.81870148484222,
,,,,117.0,9.0,9.0,,,,,,,,,,,,,rot,yellow,g,0.0,g,1.0,0.8300385999900755,,,,,,,,,,9.0,9.0,117.0,3.0,471.2549129000108,,,,,,,,,,,,,,,,,471.2407119999989,471.3550395000202,472.1556823000137,472.1398536000052,,,,,,,,,,,,,,,,,,,,,,,,,,,,,,,,,,,472.1405481999973,472.1556823000137,472.1556823000137,472.9914540000027,g,1.0,0.8300385999900755,,,,,sub-141,1,stroop_test,59.81870148484222,
,,,,118.0,10.0,9.0,,,,,,,,,,,,,gelb,yellow,g,1.0,g,1.0,0.637676599988481,,,,,,,,,,9.0,10.0,118.0,11.0,473.0061026000185,,,,,,,,,,,,,,,,,472.9919790000131,473.35627300001215,474.15686690001166,474.1417484999984,,,,,,,,,,,,,,,,,,,,,,,,,,,,,,,,,,,474.146305000002,474.15686690001166,474.15686690001166,474.8093563000148,g,1.0,0.637676599988481,,,,,sub-141,1,stroop_test,59.81870148484222,
,,,,119.0,11.0,9.0,,,,,,,,,,,,,blau,yellow,g,0.0,g,1.0,0.6898976000084076,,,,,,,,,,9.0,11.0,119.0,7.0,474.8238801000116,,,,,,,,,,,,,,,,,474.8098430999962,476.0247798000055,476.8255741000176,476.8099022000097,,,,,,,,,,,,,,,,,,,,,,,,,,,,,,,,,,,476.8150372999953,476.8255741000176,476.8255741000176,477.5279702999978,g,1.0,0.6898976000084076,,,,,sub-141,1,stroop_test,59.81870148484222,
,,,,,,,,,,,,,,,,,,,,,,,,,,,,,,,,,,,,,,,,,,,,,,,,,,,,,,,,,,,,,,,,,,,,,,,,,,,,,,,,,,,,,,,,,,,,,,,,,,,,,,477.52823670001817,477.54250140002114,482.5296343000082,sub-141,1,stroop_test,59.81870148484222,
