wordCTK,colorCTK,corrAnsCTK,congruentCTK,thisN,thisTrialN,thisRepN,keyResp_CTK.keys,keyResp_CTK.corr,keyResp_CTK.rt,keyResp_CTK.duration,wordPractice,colorPractice,corrAnsPractice,congruentPractice,respPractice.keys,respPractice.corr,respPractice.rt,respPractice.duration,word,color,corrAns,congruent,keyResp_test_run.keys,keyResp_test_run.corr,keyResp_test_run.rt,keyResp_test_run.duration,trials_CTK.thisRepN,trials_CTK.thisTrialN,trials_CTK.thisN,trials_CTK.thisIndex,trials_practice.thisRepN,trials_practice.thisTrialN,trials_practice.thisN,trials_practice.thisIndex,trials_test.thisRepN,trials_test.thisTrialN,trials_test.thisN,trials_test.thisIndex,thisRow.t,notes,instruction.started,instr_text.started,instr_image.started,instr_resp.started,instruction.stopped,instr_resp.keys,instr_resp.rt,instr_resp.duration,instr_color_to_key.started,instr_ctk.started,resp_ctk.started,instr_color_to_key.stopped,resp_ctk.keys,resp_ctk.rt,resp_ctk.duration,ITI.started,fixcross.started,fixcross.stopped,ITI.stopped,color_to_key_run.started,stimulus_CTK.started,keyResp_CTK.started,color_to_key_run.stopped,trials_CTK.keyResp_CTK.keys,trials_CTK.keyResp_CTK.corr,trials_CTK.keyResp_CTK.rt,trials_CTK.keyResp_CTK.duration,instr_practice.started,instr_practice_text.started,instr_practice_resp.started,instr_practice.stopped,instr_practice_resp.keys,instr_practice_resp.rt,instr_practice_resp.duration,practice_run.started,stimulus_practice.started,respPractice.started,practice_run.stopped,trials_practice.respPractice.keys,trials_practice.respPractice.corr,trials_practice.respPractice.rt,trials_practice.respPractice.duration,feedback.started,textFeedback.started,feedback.stopped,textFeedback.stopped,instr_test.started,instr_test_text.started,instr_test_resp.started,instr_test.stopped,instr_test_resp.keys,instr_test_resp.rt,instr_test_resp.duration,test_run.started,stimulus_test_run.started,keyResp_test_run.started,test_run.stopped,trials_test.keyResp_test_run.keys,trials_test.keyResp_test_run.corr,trials_test.keyResp_test_run.rt,trials_test.keyResp_test_run.duration,goodbye.started,textGoodbye.started,goodbye.stopped,participant,session,expName,frameRate,Unnamed: 112
,,,,,,,,,,,,,,,,,,,,,,,,,,,,,,,,,,,,,,,,,0.0030859000107739,0.0701647000096272,0.0701647000096272,0.0701647000096272,63.52565060000052,space,63.36670390001382,,,,,,,,,,,,,,,,,,,,,,,,,,,,,,,,,,,,,,,,,,,,,,,,,,,,,,,,,,sub-214,1,stroop_test,59.96591537246034,
,,,,,,,,,,,,,,,,,,,,,,,,,,,,,,,,,,,,,,,,,,,,,,,,,63.52571240000543,63.530913100010366,63.530913100010366,85.42385099999956,space,21.88803780000308,,,,,,,,,,,,,,,,,,,,,,,,,,,,,,,,,,,,,,,,,,,,,,,,,,,sub-214,1,stroop_test,59.96591537246034,
test,yellow,g,1.0,0.0,0.0,0.0,g,1.0,3.0801618000114104,,,,,,,,,,,,,,,,,,0.0,0.0,0.0,1.0,,,,,,,,,85.44736350000312,,,,,,,,,,,,,,,,,85.44286399999692,86.23924740000803,87.03957610001089,87.0243988000002,87.03399000001082,87.03957610001089,87.03957610001089,90.12798030000704,g,1.0,3.0801618000114104,,,,,,,,,,,,,,,,,,,,,,,,,,,,,,,,,,,,,,,sub-214,1,stroop_test,59.96591537246034,
test,blue,b,1.0,1.0,1.0,0.0,b,1.0,1.4343576000101166,,,,,,,,,,,,,,,,,,0.0,1.0,1.0,2.0,,,,,,,,,90.14253860000464,,,,,,,,,,,,,,,,,90.12840919999871,91.34352200001013,92.14431489999696,92.1286114000104,92.12920530000702,92.14431489999696,92.14431489999696,93.5809847000055,b,1.0,1.4343576000101166,,,,,,,,,,,,,,,,,,,,,,,,,,,,,,,,,,,,,,,sub-214,1,stroop_test,59.96591537246034,
test,red,r,1.0,2.0,2.0,0.0,r,1.0,0.5577316999988398,,,,,,,,,,,,,,,,,,0.0,2.0,2.0,0.0,,,,,,,,,93.59536910000315,,,,,,,,,,,,,,,,,93.58142830000725,94.39613590000954,95.19683200000144,95.18131390000052,95.1819766999979,95.19683200000144,95.19683200000144,95.76603969999996,r,1.0,0.5577316999988398,,,,,,,,,,,,,,,,,,,,,,,,,,,,,,,,,,,,,,,sub-214,1,stroop_test,59.96591537246034,
test,red,r,1.0,3.0,0.0,1.0,r,1.0,0.3857764999993378,,,,,,,,,,,,,,,,,,1.0,0.0,3.0,0.0,,,,,,,,,95.78058299999977,,,,,,,,,,,,,,,,,95.7665110000089,96.58095800000592,97.38207400000827,97.366474200011,97.36708730000828,97.38207400000827,97.38207400000827,97.7844855000003,r,1.0,0.3857764999993378,,,,,,,,,,,,,,,,,,,,,,,,,,,,,,,,,,,,,,,sub-214,1,stroop_test,59.96591537246034,
test,yellow,g,1.0,4.0,1.0,1.0,g,1.0,0.5067409999901429,,,,,,,,,,,,,,,,,,1.0,1.0,4.0,1.0,,,,,,,,,97.79890780001006,,,,,,,,,,,,,,,,,97.78502440000013,98.59949049999705,99.40030880000268,99.38462660000368,99.38524889999826,99.40030880000268,99.40030880000268,99.91937030000554,g,1.0,0.5067409999901429,,,,,,,,,,,,,,,,,,,,,,,,,,,,,,,,,,,,,,,sub-214,1,stroop_test,59.96591537246034,
test,blue,b,1.0,5.0,2.0,1.0,b,1.0,0.4905273000040324,,,,,,,,,,,,,,,,,,1.0,2.0,5.0,2.0,,,,,,,,,99.9338143000059,,,,,,,,,,,,,,,,,99.91979010000068,100.73490490000404,101.53558989999874,101.52006940000864,101.52068240000516,101.53558989999874,101.53558989999874,102.03788240000722,b,1.0,0.4905273000040324,,,,,,,,,,,,,,,,,,,,,,,,,,,,,,,,,,,,,,,sub-214,1,stroop_test,59.96591537246034,
test,yellow,g,1.0,6.0,0.0,2.0,g,1.0,0.5859925000113435,,,,,,,,,,,,,,,,,,2.0,0.0,6.0,1.0,,,,,,,,,102.0524024000042,,,,,,,,,,,,,,,,,102.03835240000626,102.15242779999971,102.95321680000052,102.93761809999704,102.93824830000813,102.95321680000052,102.95321680000052,103.55579480000596,g,1.0,0.5859925000113435,,,,,,,,,,,,,,,,,,,,,,,,,,,,,,,,,,,,,,,sub-214,1,stroop_test,59.96591537246034,
test,red,r,1.0,7.0,1.0,2.0,r,1.0,0.4306257999996887,,,,,,,,,,,,,,,,,,2.0,1.0,7.0,0.0,,,,,,,,,103.57044589999714,,,,,,,,,,,,,,,,,103.5562140999973,104.3711081000074,105.1716652000032,105.15621590000228,105.15681810000387,105.1716652000032,105.1716652000032,105.6073485000088,r,1.0,0.4306257999996887,,,,,,,,,,,,,,,,,,,,,,,,,,,,,,,,,,,,,,,sub-214,1,stroop_test,59.96591537246034,
test,blue,b,1.0,8.0,2.0,2.0,b,1.0,0.8692060000030324,,,,,,,,,,,,,,,,,,2.0,2.0,8.0,2.0,,,,,,,,,105.62197220000962,,,,,,,,,,,,,,,,,105.60777200000302,105.97233940000297,106.77298140000494,106.75757440000598,106.75820480000402,106.77298140000494,106.77298140000494,107.65918980000424,b,1.0,0.8692060000030324,,,,,,,,,,,,,,,,,,,,,,,,,,,,,,,,,,,,,,,sub-214,1,stroop_test,59.96591537246034,
test,red,r,1.0,9.0,0.0,3.0,r,1.0,0.746062999998685,,,,,,,,,,,,,,,,,,3.0,0.0,9.0,0.0,,,,,,,,,107.67368020000868,,,,,,,,,,,,,,,,,107.65960559999805,107.77394820000336,108.5743899000081,108.5591698000062,108.55983740001102,108.5743899000081,108.5743899000081,109.32703400000172,r,1.0,0.746062999998685,,,,,,,,,,,,,,,,,,,,,,,,,,,,,,,,,,,,,,,sub-214,1,stroop_test,59.96591537246034,
test,blue,b,1.0,10.0,1.0,3.0,b,1.0,0.6219999999884749,,,,,,,,,,,,,,,,,,3.0,1.0,10.0,2.0,,,,,,,,,109.34176860000298,,,,,,,,,,,,,,,,,109.32748330000322,109.44186320000154,110.24270680001064,110.22727390000364,110.22792910000136,110.24270680001064,110.24270680001064,110.87854849999712,b,1.0,0.6219999999884749,,,,,,,,,,,,,,,,,,,,,,,,,,,,,,,,,,,,,,,sub-214,1,stroop_test,59.96591537246034,
test,yellow,g,1.0,11.0,2.0,3.0,g,1.0,0.6484198000107426,,,,,,,,,,,,,,,,,,3.0,2.0,11.0,1.0,,,,,,,,,110.89316150000376,,,,,,,,,,,,,,,,,110.87901099999726,110.99336580000818,111.79379960001096,111.7781651999976,111.77878100000088,111.79379960001096,111.79379960001096,112.44638609999674,g,1.0,0.6484198000107426,,,,,,,,,,,,,,,,,,,,,,,,,,,,,,,,,,,,,,,sub-214,1,stroop_test,59.96591537246034,
,,,,,,,,,,,,,,,,,,,,,,,,,,,,,,,,,,,,,,,,,,,,,,,,,,,,,,,,,,,,,,,,,,,,112.44656399999803,112.46088160001092,112.46088160001092,128.32637439999962,space,15.851328599994304,,,,,,,,,,,,,,,,,,,,,,,,,,,,,,,,sub-214,1,stroop_test,59.96591537246034,
,,,,0.0,0.0,0.0,,,,,rot,red,r,1.0,r,1.0,1.3302124999900116,,,,,,,,,,,,,,0.0,0.0,0.0,1.0,,,,,128.34390400000848,,,,,,,,,,,,,,,,,128.34026930000982,128.69117590000678,129.4914012000081,129.47626120000496,,,,,,,,,,,,,,,,129.48518709999917,129.4914012000081,129.4914012000081,130.82823320000898,r,1.0,1.3302124999900116,,130.84118370000215,130.8483031000069,131.84393889999774,,,,,,,,,,,,,,,,,,,,sub-214,1,stroop_test,59.96591537246034,
,,,,1.0,1.0,0.0,,,,,gelb,blue,b,0.0,g,0.0,0.9362147000065306,,,,,,,,,,,,,,0.0,1.0,1.0,9.0,,,,,131.86049690000073,,,,,,,,,,,,,,,,,131.84450269999795,133.02809720000369,133.8285474000004,133.81342400000722,,,,,,,,,,,,,,,,133.821294399997,133.8285474000004,133.8285474000004,134.78159070000402,g,0.0,0.9362147000065306,,134.79205220000586,134.79894010000862,135.79736490000505,,,,,,,,,,,,,,,,,,,,sub-214,1,stroop_test,59.96591537246034,
,,,,2.0,2.0,0.0,,,,,blau,red,r,0.0,r,1.0,1.6110346000059508,,,,,,,,,,,,,,0.0,2.0,2.0,4.0,,,,,135.8137015000102,,,,,,,,,,,,,,,,,135.79791619999742,135.89721930000815,136.69775170000503,136.68237290000252,,,,,,,,,,,,,,,,136.68909770000027,136.69775170000503,136.69775170000503,138.31780360000266,r,1.0,1.6110346000059508,,138.3237525000004,138.33240990000195,139.3179816000047,139.3332858000067,,,,,,,,,,,,,,,,,,,sub-214,1,stroop_test,59.96591537246034,
,,,,3.0,3.0,0.0,,,,,rot,yellow,g,0.0,g,1.0,0.885434299998451,,,,,,,,,,,,,,0.0,3.0,3.0,3.0,,,,,139.3332858000067,,,,,,,,,,,,,,,,,139.31841030000942,139.6837928000023,140.48424620000878,140.46876860001066,,,,,,,,,,,,,,,,140.47309159999713,140.48424620000878,140.48424620000878,141.387117700011,g,1.0,0.885434299998451,,141.38778780000575,141.4017720999982,142.38721760000044,142.4025963000022,,,,,,,,,,,,,,,,,,,sub-214,1,stroop_test,59.96591537246034,
,,,,4.0,4.0,0.0,,,,,blau,blue,b,1.0,b,1.0,0.723126000011689,,,,,,,,,,,,,,0.0,4.0,4.0,5.0,,,,,142.4025963000022,,,,,,,,,,,,,,,,,142.38766079999914,143.58679020000272,144.3875371000031,144.37209060000896,,,,,,,,,,,,,,,,144.37646210000094,144.3875371000031,144.3875371000031,145.1237312000012,b,1.0,0.723126000011689,,145.12437460001092,145.13821109999844,146.12345420000202,146.13907020000624,,,,,,,,,,,,,,,,,,,sub-214,1,stroop_test,59.96591537246034,
,,,,5.0,5.0,0.0,,,,,rot,red,r,1.0,r,1.0,0.5160605999990366,,,,,,,,,,,,,,0.0,5.0,5.0,0.0,,,,,146.13907020000624,,,,,,,,,,,,,,,,,146.12384310000925,146.48923320000176,147.29008449999674,147.27445280000393,,,,,,,,,,,,,,,,147.27880660000665,147.29008449999674,147.29008449999674,147.808967200006,r,1.0,0.5160605999990366,,147.80963660000998,147.82359300000826,148.80921279999893,148.82453690000693,,,,,,,,,,,,,,,,,,,sub-214,1,stroop_test,59.96591537246034,
,,,,6.0,6.0,0.0,,,,,blau,blue,b,1.0,b,1.0,0.7813809999934165,,,,,,,,,,,,,,0.0,6.0,6.0,6.0,,,,,148.82453690000693,,,,,,,,,,,,,,,,,148.8096544,149.1582117000071,149.958856199999,149.94321250000212,,,,,,,,,,,,,,,,149.94763280000188,149.958856199999,149.958856199999,150.74471389999962,b,1.0,0.7813809999934165,,150.74534850000057,150.75950310000917,151.7448490000097,151.76024869999674,,,,,,,,,,,,,,,,,,,sub-214,1,stroop_test,59.96591537246034,
,,,,7.0,7.0,0.0,,,,,gelb,red,r,0.0,r,1.0,0.7643442999979015,,,,,,,,,,,,,,0.0,7.0,7.0,8.0,,,,,151.76024869999674,,,,,,,,,,,,,,,,,151.74526370000967,152.9442427000031,153.74503289999848,153.7294183000049,,,,,,,,,,,,,,,,153.7349469000037,153.74503289999848,153.74503289999848,154.5141849000065,r,1.0,0.7643442999979015,,154.5148043000081,154.52904350000608,155.51486310000473,155.53024259999802,,,,,,,,,,,,,,,,,,,sub-214,1,stroop_test,59.96591537246034,
,,,,8.0,8.0,0.0,,,,,rot,blue,b,0.0,b,1.0,0.8665166999999201,,,,,,,,,,,,,,0.0,8.0,8.0,2.0,,,,,155.53024259999802,,,,,,,,,,,,,,,,,155.51540760000353,156.3140080000012,157.11474840001028,157.09931410000718,,,,,,,,,,,,,,,,157.10506430000532,157.11474840001028,157.11474840001028,157.98479420000513,b,1.0,0.8665166999999201,,157.98548040000605,157.99902260000815,158.9840191000112,158.99961790000089,,,,,,,,,,,,,,,,,,,sub-214,1,stroop_test,59.96591537246034,
,,,,9.0,9.0,0.0,,,,,blau,yellow,g,0.0,g,1.0,1.1496430999977747,,,,,,,,,,,,,,0.0,9.0,9.0,7.0,,,,,158.99961790000089,,,,,,,,,,,,,,,,,158.98445780000475,159.80038480000803,160.6008703999978,160.58558050000283,,,,,,,,,,,,,,,,160.59019750000152,160.6008703999978,160.6008703999978,161.75408929999685,g,1.0,1.1496430999977747,,161.75475110000116,161.7685829000111,162.75395880000724,162.7690958000021,,,,,,,,,,,,,,,,,,,sub-214,1,stroop_test,59.96591537246034,
,,,,10.0,10.0,0.0,,,,,gelb,yellow,g,1.0,g,1.0,0.8673041000001831,,,,,,,,,,,,,,0.0,10.0,10.0,11.0,,,,,162.7690958000021,,,,,,,,,,,,,,,,,162.75453150000249,163.9536550000048,164.75431280001067,164.7390616000048,,,,,,,,,,,,,,,,164.7437789000105,164.75431280001067,164.75431280001067,165.62416630001098,g,1.0,0.8673041000001831,,165.62480190000497,165.6384073000081,166.62394920000224,166.63925940000627,,,,,,,,,,,,,,,,,,,sub-214,1,stroop_test,59.96591537246034,
,,,,11.0,11.0,0.0,,,,,gelb,yellow,g,1.0,g,1.0,0.588779900004738,,,,,,,,,,,,,,0.0,11.0,11.0,10.0,,,,,166.63925940000627,,,,,,,,,,,,,,,,,166.62453280000773,166.9730966000061,167.7736855999974,167.75807090000308,,,,,,,,,,,,,,,,167.75869110001076,167.7736855999974,167.7736855999974,168.3765749000013,g,1.0,0.588779900004738,,168.37727650000306,168.39094360001036,169.3763736999972,169.39159189999918,,,,,,,,,,,,,,,,,,,sub-214,1,stroop_test,59.96591537246034,
,,,,12.0,0.0,1.0,,,,,rot,blue,b,0.0,r,0.0,0.8504072999930941,,,,,,,,,,,,,,1.0,0.0,12.0,2.0,,,,,169.39159189999918,,,,,,,,,,,,,,,,,169.37685830000555,170.57588190000388,171.376531300004,171.3611430000019,,,,,,,,,,,,,,,,171.3654077000101,171.376531300004,171.376531300004,172.22947640001075,r,0.0,0.8504072999930941,,172.23609489999944,172.24378960000467,173.2293769000098,173.24493110000913,,,,,,,,,,,,,,,,,,,sub-214,1,stroop_test,59.96591537246034,
,,,,13.0,1.0,1.0,,,,,blau,blue,b,1.0,b,1.0,0.8584046999894781,,,,,,,,,,,,,,1.0,1.0,13.0,6.0,,,,,173.24493110000913,,,,,,,,,,,,,,,,,173.22982690000208,173.59523420000914,174.39566700000432,174.38001520000398,,,,,,,,,,,,,,,,174.38451150000037,174.39566700000432,174.39566700000432,175.26524800001062,b,1.0,0.8584046999894781,,175.27106700000877,175.27953349999734,176.26500530001067,176.28053530000034,,,,,,,,,,,,,,,,,,,sub-214,1,stroop_test,59.96591537246034,
,,,,14.0,2.0,1.0,,,,,blau,red,r,0.0,r,1.0,1.047349700005725,,,,,,,,,,,,,,1.0,2.0,14.0,4.0,,,,,176.28053530000034,,,,,,,,,,,,,,,,,176.26539529999718,177.46484330001113,178.26559530000668,178.2499805999978,,,,,,,,,,,,,,,,178.25058710000303,178.26559530000668,178.26559530000668,179.3185572000075,r,1.0,1.047349700005725,,179.319281700009,179.33327370000188,180.3185086000012,180.33394989999945,,,,,,,,,,,,,,,,,,,sub-214,1,stroop_test,59.96591537246034,
,,,,15.0,3.0,1.0,,,,,blau,yellow,g,0.0,g,1.0,0.714062200000626,,,,,,,,,,,,,,1.0,3.0,15.0,7.0,,,,,180.33394989999945,,,,,,,,,,,,,,,,,180.3189163000061,181.11808700000984,181.9185546000081,181.90300070001103,,,,,,,,,,,,,,,,181.90371389999927,181.9185546000081,181.9185546000081,182.6380271000089,g,1.0,0.714062200000626,,182.63905779999916,182.65265650000947,183.6385453000112,183.6533810999972,,,,,,,,,,,,,,,,,,,sub-214,1,stroop_test,59.96591537246034,
,,,,16.0,4.0,1.0,,,,,gelb,yellow,g,1.0,g,1.0,0.5937326999992365,,,,,,,,,,,,,,1.0,4.0,16.0,11.0,,,,,183.6533810999972,,,,,,,,,,,,,,,,,183.6391994000005,184.83761800000505,185.63818110000284,185.6228259000054,,,,,,,,,,,,,,,,185.62742200000503,185.63818110000284,185.63818110000284,186.24074710000423,g,1.0,0.5937326999992365,,186.24139360000845,186.2555375000084,187.2410574000096,187.25634130000253,,,,,,,,,,,,,,,,,,,sub-214,1,stroop_test,59.96591537246034,
,,,,17.0,5.0,1.0,,,,,rot,red,r,1.0,r,1.0,0.6654389000032097,,,,,,,,,,,,,,1.0,5.0,17.0,0.0,,,,,187.25634130000253,,,,,,,,,,,,,,,,,187.2414712000027,187.59015080000967,188.3914441000088,188.37524490000212,,,,,,,,,,,,,,,,188.37924350000685,188.3914441000088,188.3914441000088,189.0601268000028,r,1.0,0.6654389000032097,,189.0607893999986,189.0745480000041,190.0598966000107,190.07530789999876,,,,,,,,,,,,,,,,,,,sub-214,1,stroop_test,59.96591537246034,
,,,,18.0,6.0,1.0,,,,,rot,red,r,1.0,r,1.0,0.5114756999973906,,,,,,,,,,,,,,1.0,6.0,18.0,1.0,,,,,190.07530789999876,,,,,,,,,,,,,,,,,190.06031220000293,190.17535840001077,190.97607770000468,190.9606396000017,,,,,,,,,,,,,,,,190.9612906999973,190.97607770000468,190.97607770000468,191.4948589999985,r,1.0,0.5114756999973906,,191.4955590000027,191.5100786000112,192.49488720000957,192.51076889999968,,,,,,,,,,,,,,,,,,,sub-214,1,stroop_test,59.96591537246034,
,,,,19.0,7.0,1.0,,,,,blau,blue,b,1.0,b,1.0,0.6579347999941092,,,,,,,,,,,,,,1.0,7.0,19.0,5.0,,,,,192.51076889999968,,,,,,,,,,,,,,,,,192.4952997000073,193.29477469999983,194.09510940000476,194.0796973999968,,,,,,,,,,,,,,,,194.08447260000685,194.09510940000476,194.09510940000476,194.76449040000443,b,1.0,0.6579347999941092,,194.76519940000435,194.7793085000012,195.76461169999675,195.7800690000004,,,,,,,,,,,,,,,,,,,sub-214,1,stroop_test,59.96591537246034,
,,,,20.0,8.0,1.0,,,,,gelb,red,r,0.0,r,1.0,2.168407900011516,,,,,,,,,,,,,,1.0,8.0,20.0,8.0,,,,,195.7800690000004,,,,,,,,,,,,,,,,,195.7650300000096,196.13035110000052,196.93084590000217,196.9155456000008,,,,,,,,,,,,,,,,196.9211712999968,196.93084590000217,196.93084590000217,199.10193530000103,r,1.0,2.168407900011516,,199.10260220000052,199.11630590001005,200.1014079000015,200.1171265000012,,,,,,,,,,,,,,,,,,,sub-214,1,stroop_test,59.96591537246034,
,,,,21.0,9.0,1.0,,,,,rot,yellow,g,0.0,g,1.0,1.3336558000009973,,,,,,,,,,,,,,1.0,9.0,21.0,3.0,,,,,200.1171265000012,,,,,,,,,,,,,,,,,200.10184210000443,200.2172014000098,201.01781750000373,201.00228480000808,,,,,,,,,,,,,,,,201.0084213000082,201.01781750000373,201.01781750000373,202.35432740001124,g,1.0,1.3336558000009973,,202.3550025000004,202.3688659000036,203.35414039999887,203.36972410000453,,,,,,,,,,,,,,,,,,,sub-214,1,stroop_test,59.96591537246034,
,,,,22.0,10.0,1.0,,,,,gelb,blue,b,0.0,b,1.0,1.215937999993912,,,,,,,,,,,,,,1.0,10.0,22.0,9.0,,,,,203.36972410000453,,,,,,,,,,,,,,,,,203.35455699999875,203.7199776000052,204.5206057000032,204.5049527000083,,,,,,,,,,,,,,,,204.5099458000041,204.5206057000032,204.5206057000032,205.74046709999675,b,1.0,1.215937999993912,,205.74112240000977,205.75530309999888,206.74038070000825,206.7558851000067,,,,,,,,,,,,,,,,,,,sub-214,1,stroop_test,59.96591537246034,
,,,,23.0,11.0,1.0,,,,,gelb,yellow,g,1.0,g,1.0,0.7330069000017829,,,,,,,,,,,,,,1.0,11.0,23.0,10.0,,,,,206.7558851000067,,,,,,,,,,,,,,,,,206.74082069999716,207.94033399999896,208.74085529999863,208.7253995000065,,,,,,,,,,,,,,,,208.72598149999976,208.74085529999863,208.74085529999863,209.47722130001057,g,1.0,0.7330069000017829,,209.4779336000065,209.49132430000464,210.4769529000041,210.4920827000024,,,,,,,,,,,,,,,,,,,sub-214,1,stroop_test,59.96591537246034,
,,,,,,,,,,,,,,,,,,,,,,,,,,,,,,,,,,,,,,,,,,,,,,,,,,,,,,,,,,,,,,,,,,,,,,,,,,,,,,,,,,,,,,,210.47712680000404,210.4920827000024,210.4920827000024,225.5234308000072,space,15.022916700007045,,,,,,,,,,,,,sub-214,1,stroop_test,59.96591537246034,
,,,,0.0,0.0,0.0,,,,,,,,,,,,,rot,blue,b,0.0,b,1.0,1.002513800005545,,,,,,,,,,0.0,0.0,0.0,2.0,225.54325830000744,,,,,,,,,,,,,,,,,225.53921940000143,226.3388096999988,227.13945230000536,227.1242386000085,,,,,,,,,,,,,,,,,,,,,,,,,,,,,,,,,,,227.12919469999903,227.13945230000536,227.13945230000536,228.15849680000971,b,1.0,1.002513800005545,,,,,sub-214,1,stroop_test,59.96591537246034,
,,,,1.0,1.0,0.0,,,,,,,,,,,,,gelb,red,r,0.0,r,1.0,0.852059900003951,,,,,,,,,,0.0,1.0,1.0,8.0,228.17357120000813,,,,,,,,,,,,,,,,,228.15899500000523,229.35784120000608,230.1586490000045,230.1428367000044,,,,,,,,,,,,,,,,,,,,,,,,,,,,,,,,,,,230.14772490000175,230.1586490000045,230.1586490000045,231.02815700000792,r,1.0,0.852059900003951,,,,,sub-214,1,stroop_test,59.96591537246034,
,,,,2.0,2.0,0.0,,,,,,,,,,,,,blau,red,r,0.0,r,1.0,0.8287312000029488,,,,,,,,,,0.0,2.0,2.0,4.0,231.04258330000448,,,,,,,,,,,,,,,,,231.02865870000096,232.24345670000184,233.0442890999984,233.02901589999965,,,,,,,,,,,,,,,,,,,,,,,,,,,,,,,,,,,233.0357523999992,233.0442890999984,233.0442890999984,233.880301600002,r,1.0,0.8287312000029488,,,,,sub-214,1,stroop_test,59.96591537246034,
,,,,3.0,3.0,0.0,,,,,,,,,,,,,rot,red,r,1.0,r,1.0,0.5389696000056574,,,,,,,,,,0.0,3.0,3.0,0.0,233.89505479999931,,,,,,,,,,,,,,,,,233.8807983000006,233.9951249000005,234.7958653000096,234.78030130000843,,,,,,,,,,,,,,,,,,,,,,,,,,,,,,,,,,,234.784719400006,234.7958653000096,234.7958653000096,235.34838280000255,r,1.0,0.5389696000056574,,,,,sub-214,1,stroop_test,59.96591537246034,
,,,,4.0,4.0,0.0,,,,,,,,,,,,,blau,blue,b,1.0,b,1.0,0.5630433999904199,,,,,,,,,,0.0,4.0,4.0,6.0,235.36303010000847,,,,,,,,,,,,,,,,,235.34896600000505,236.1636950000102,236.96412910000072,236.94834149999951,,,,,,,,,,,,,,,,,,,,,,,,,,,,,,,,,,,236.95308240001032,236.96412910000072,236.96412910000072,237.5322573000012,b,1.0,0.5630433999904199,,,,,sub-214,1,stroop_test,59.96591537246034,
,,,,5.0,5.0,0.0,,,,,,,,,,,,,rot,red,r,1.0,r,1.0,0.5425728999980493,,,,,,,,,,0.0,5.0,5.0,1.0,237.54773540000315,,,,,,,,,,,,,,,,,237.5325222000101,237.88135760001023,238.68184750000364,238.6663505000033,,,,,,,,,,,,,,,,,,,,,,,,,,,,,,,,,,,238.6717134000064,238.68184750000364,238.68184750000364,239.2355324000091,r,1.0,0.5425728999980493,,,,,sub-214,1,stroop_test,59.96591537246034,
,,,,6.0,6.0,0.0,,,,,,,,,,,,,gelb,blue,b,0.0,b,1.0,0.5648212999949465,,,,,,,,,,0.0,6.0,6.0,9.0,239.24998259999848,,,,,,,,,,,,,,,,,239.23599080000716,239.59971629999927,240.39992029999848,240.38459480000893,,,,,,,,,,,,,,,,,,,,,,,,,,,,,,,,,,,240.3889169000031,240.39992029999848,240.39992029999848,240.9693362999969,b,1.0,0.5648212999949465,,,,,sub-214,1,stroop_test,59.96591537246034,
,,,,7.0,7.0,0.0,,,,,,,,,,,,,gelb,yellow,g,1.0,g,1.0,0.5441748000012012,,,,,,,,,,0.0,7.0,7.0,11.0,240.9839068000001,,,,,,,,,,,,,,,,,240.9698312999972,241.3344106000004,242.1354638000048,242.11965860000052,,,,,,,,,,,,,,,,,,,,,,,,,,,,,,,,,,,242.12029859999893,242.1354638000048,242.1354638000048,242.68792160000885,g,1.0,0.5441748000012012,,,,,sub-214,1,stroop_test,59.96591537246034,
,,,,8.0,8.0,0.0,,,,,,,,,,,,,gelb,yellow,g,1.0,g,1.0,0.4798978999897372,,,,,,,,,,0.0,8.0,8.0,10.0,242.70237590000036,,,,,,,,,,,,,,,,,242.6884264000109,243.05269150000825,243.85325270000607,243.8378271999973,,,,,,,,,,,,,,,,,,,,,,,,,,,,,,,,,,,243.83839660001104,243.85325270000607,243.85325270000607,244.339384100007,g,1.0,0.4798978999897372,,,,,sub-214,1,stroop_test,59.96591537246034,
,,,,9.0,9.0,0.0,,,,,,,,,,,,,blau,blue,b,1.0,b,1.0,0.4516733999917051,,,,,,,,,,0.0,9.0,9.0,5.0,244.35337920000893,,,,,,,,,,,,,,,,,244.33986220000952,245.154234600006,245.95495250000383,245.93962440000905,,,,,,,,,,,,,,,,,,,,,,,,,,,,,,,,,,,245.9439323999977,245.95495250000383,245.95495250000383,246.4236813000025,b,1.0,0.4516733999917051,,,,,sub-214,1,stroop_test,59.96591537246034,
,,,,10.0,10.0,0.0,,,,,,,,,,,,,rot,yellow,g,0.0,g,1.0,0.5543448999960674,,,,,,,,,,0.0,10.0,10.0,3.0,246.4387134999997,,,,,,,,,,,,,,,,,246.42426590000105,246.78919280000264,247.65582919999724,247.57402770000044,,,,,,,,,,,,,,,,,,,,,,,,,,,,,,,,,,,247.6513457999972,247.65582919999724,247.65582919999724,248.2256100000086,g,1.0,0.5543448999960674,,,,,sub-214,1,stroop_test,59.96591537246034,
,,,,11.0,11.0,0.0,,,,,,,,,,,,,blau,yellow,g,0.0,g,1.0,0.5801136000081897,,,,,,,,,,0.0,11.0,11.0,7.0,248.2401913000067,,,,,,,,,,,,,,,,,248.2260802000092,248.5905238999985,249.39113370000268,249.37562479999903,,,,,,,,,,,,,,,,,,,,,,,,,,,,,,,,,,,249.380098300011,249.39113370000268,249.39113370000268,249.97721840000304,g,1.0,0.5801136000081897,,,,,sub-214,1,stroop_test,59.96591537246034,
,,,,12.0,0.0,1.0,,,,,,,,,,,,,rot,red,r,1.0,r,1.0,0.5157563999964623,,,,,,,,,,1.0,0.0,12.0,0.0,249.99155510000128,,,,,,,,,,,,,,,,,249.9777030999976,250.3419761999976,251.14283630000136,251.1271950000082,,,,,,,,,,,,,,,,,,,,,,,,,,,,,,,,,,,251.13144550001016,251.14283630000136,251.14283630000136,251.66164299999943,r,1.0,0.5157563999964623,,,,,sub-214,1,stroop_test,59.96591537246034,
,,,,13.0,1.0,1.0,,,,,,,,,,,,,gelb,yellow,g,1.0,g,1.0,0.509654599998612,,,,,,,,,,1.0,1.0,13.0,10.0,251.6771407000051,,,,,,,,,,,,,,,,,251.66211900000053,252.02678870000815,252.827391800005,252.81185080000432,,,,,,,,,,,,,,,,,,,,,,,,,,,,,,,,,,,252.81651210000564,252.827391800005,252.827391800005,253.34682330000211,g,1.0,0.509654599998612,,,,,sub-214,1,stroop_test,59.96591537246034,
,,,,14.0,2.0,1.0,,,,,,,,,,,,,blau,blue,b,1.0,b,1.0,0.5414307000028202,,,,,,,,,,1.0,2.0,14.0,5.0,253.36108790000435,,,,,,,,,,,,,,,,,253.34730470000068,254.56208240000703,255.36276980000548,255.34737119999767,,,,,,,,,,,,,,,,,,,,,,,,,,,,,,,,,,,255.35221670000465,255.36276980000548,255.36276980000548,255.9152240000112,b,1.0,0.5414307000028202,,,,,sub-214,1,stroop_test,59.96591537246034,
,,,,15.0,3.0,1.0,,,,,,,,,,,,,rot,yellow,g,0.0,g,1.0,0.6583607000065967,,,,,,,,,,1.0,3.0,15.0,3.0,255.92994950000136,,,,,,,,,,,,,,,,,255.91570030000003,257.131005400006,257.93170890001056,257.9170521000051,,,,,,,,,,,,,,,,,,,,,,,,,,,,,,,,,,,257.9215611000109,257.93170890001056,257.93170890001056,258.60087639999983,g,1.0,0.6583607000065967,,,,,sub-214,1,stroop_test,59.96591537246034,
,,,,16.0,4.0,1.0,,,,,,,,,,,,,gelb,blue,b,0.0,b,1.0,0.8193289000046207,,,,,,,,,,1.0,4.0,16.0,9.0,258.6157365000108,,,,,,,,,,,,,,,,,258.60139670000353,258.7155992000044,259.5162085000047,259.50075659999857,,,,,,,,,,,,,,,,,,,,,,,,,,,,,,,,,,,259.50551110001106,259.5162085000047,259.5162085000047,260.35243430000264,b,1.0,0.8193289000046207,,,,,sub-214,1,stroop_test,59.96591537246034,
,,,,17.0,5.0,1.0,,,,,,,,,,,,,gelb,yellow,g,1.0,g,1.0,0.6155942999903345,,,,,,,,,,1.0,5.0,17.0,11.0,260.36695650000183,,,,,,,,,,,,,,,,,260.35293239999737,260.71775250000064,261.51795039999706,261.5024396000081,,,,,,,,,,,,,,,,,,,,,,,,,,,,,,,,,,,261.5030589000089,261.51795039999706,261.51795039999706,262.137066700001,g,1.0,0.6155942999903345,,,,,sub-214,1,stroop_test,59.96591537246034,
,,,,18.0,6.0,1.0,,,,,,,,,,,,,blau,yellow,g,0.0,g,1.0,0.6021645000000717,,,,,,,,,,1.0,6.0,18.0,7.0,262.1517557000043,,,,,,,,,,,,,,,,,262.1375368000008,262.95243279999704,263.75324420000834,263.7376094000065,,,,,,,,,,,,,,,,,,,,,,,,,,,,,,,,,,,263.7420223000081,263.75324420000834,263.75324420000834,264.37233730001026,g,1.0,0.6021645000000717,,,,,sub-214,1,stroop_test,59.96591537246034,
,,,,19.0,7.0,1.0,,,,,,,,,,,,,blau,red,r,0.0,r,1.0,0.46011549999821,,,,,,,,,,1.0,7.0,19.0,4.0,264.3868618999986,,,,,,,,,,,,,,,,,264.3728209999972,265.17148960000486,265.9715557000018,265.95600879999984,,,,,,,,,,,,,,,,,,,,,,,,,,,,,,,,,,,265.956843100008,265.9715557000018,265.9715557000018,266.44057079999766,r,1.0,0.46011549999821,,,,,sub-214,1,stroop_test,59.96591537246034,
,,,,20.0,8.0,1.0,,,,,,,,,,,,,gelb,red,r,0.0,r,1.0,0.5731432000029599,,,,,,,,,,1.0,8.0,20.0,8.0,266.45517180000024,,,,,,,,,,,,,,,,,266.44106640000246,267.25592740000866,268.0566465000011,268.0411588999996,,,,,,,,,,,,,,,,,,,,,,,,,,,,,,,,,,,268.0454841000028,268.0566465000011,268.0566465000011,268.6425132000004,r,1.0,0.5731432000029599,,,,,sub-214,1,stroop_test,59.96591537246034,
,,,,21.0,9.0,1.0,,,,,,,,,,,,,rot,red,r,1.0,r,1.0,0.5029328000091482,,,,,,,,,,1.0,9.0,21.0,1.0,268.6571874000074,,,,,,,,,,,,,,,,,268.6430311000004,268.75717989999976,269.5577919000061,269.5424109000014,,,,,,,,,,,,,,,,,,,,,,,,,,,,,,,,,,,269.5484102000046,269.5577919000061,269.5577919000061,270.0769750000036,r,1.0,0.5029328000091482,,,,,sub-214,1,stroop_test,59.96591537246034,
,,,,22.0,10.0,1.0,,,,,,,,,,,,,rot,blue,b,0.0,b,1.0,0.5378360000031535,,,,,,,,,,1.0,10.0,22.0,2.0,270.0918643000041,,,,,,,,,,,,,,,,,270.0774498000101,270.8924177000008,271.6933609999978,271.6771160000062,,,,,,,,,,,,,,,,,,,,,,,,,,,,,,,,,,,271.6777938000014,271.6933609999978,271.6933609999978,272.24535019999894,b,1.0,0.5378360000031535,,,,,sub-214,1,stroop_test,59.96591537246034,
,,,,23.0,11.0,1.0,,,,,,,,,,,,,blau,blue,b,1.0,b,1.0,0.499244099992211,,,,,,,,,,1.0,11.0,23.0,6.0,272.26009100000374,,,,,,,,,,,,,,,,,272.2458557000064,272.6105346999975,273.4113584000006,273.3954328000109,,,,,,,,,,,,,,,,,,,,,,,,,,,,,,,,,,,273.3997157999984,273.4113584000006,273.4113584000006,273.9137345000054,b,1.0,0.499244099992211,,,,,sub-214,1,stroop_test,59.96591537246034,
,,,,24.0,0.0,2.0,,,,,,,,,,,,,rot,red,r,1.0,r,1.0,0.5724690000060946,,,,,,,,,,2.0,0.0,24.0,0.0,273.92816609999863,,,,,,,,,,,,,,,,,273.9142060000013,274.0282082000049,274.8290823999996,274.81343670000206,,,,,,,,,,,,,,,,,,,,,,,,,,,,,,,,,,,274.8180052000098,274.8290823999996,274.8290823999996,275.41467280000506,r,1.0,0.5724690000060946,,,,,sub-214,1,stroop_test,59.96591537246034,
,,,,25.0,1.0,2.0,,,,,,,,,,,,,gelb,yellow,g,1.0,g,1.0,0.4527510000043548,,,,,,,,,,2.0,1.0,25.0,10.0,275.42937700000766,,,,,,,,,,,,,,,,,275.41514660000394,275.7798480000056,276.580521099997,276.56481650000205,,,,,,,,,,,,,,,,,,,,,,,,,,,,,,,,,,,276.5695229999983,276.580521099997,276.580521099997,277.0494798,g,1.0,0.4527510000043548,,,,,sub-214,1,stroop_test,59.96591537246034,
,,,,26.0,2.0,2.0,,,,,,,,,,,,,blau,blue,b,1.0,b,1.0,1.4740751999925124,,,,,,,,,,2.0,2.0,26.0,6.0,277.0641707000032,,,,,,,,,,,,,,,,,277.0499486000044,277.4144484999997,278.21495510000386,278.1994540000014,,,,,,,,,,,,,,,,,,,,,,,,,,,,,,,,,,,278.20342710000114,278.21495510000386,278.21495510000386,279.7022549000103,b,1.0,1.4740751999925124,,,,,sub-214,1,stroop_test,59.96591537246034,
,,,,27.0,3.0,2.0,,,,,,,,,,,,,rot,red,r,1.0,r,1.0,0.418526200010092,,,,,,,,,,2.0,3.0,27.0,1.0,279.7166234000033,,,,,,,,,,,,,,,,,279.7027644000045,280.51697370001057,281.31738180000684,281.3018899000017,,,,,,,,,,,,,,,,,,,,,,,,,,,,,,,,,,,281.3065770000103,281.31738180000684,281.31738180000684,281.75302240000747,r,1.0,0.418526200010092,,,,,sub-214,1,stroop_test,59.96591537246034,
,,,,28.0,4.0,2.0,,,,,,,,,,,,,gelb,blue,b,0.0,b,1.0,0.5753580999880796,,,,,,,,,,2.0,4.0,28.0,9.0,281.76820900000166,,,,,,,,,,,,,,,,,281.7535057000059,282.95236520000617,283.753217999998,283.73749340001086,,,,,,,,,,,,,,,,,,,,,,,,,,,,,,,,,,,283.74291990000347,283.753217999998,283.753217999998,284.3389656000072,b,1.0,0.5753580999880796,,,,,sub-214,1,stroop_test,59.96591537246034,
,,,,29.0,5.0,2.0,,,,,,,,,,,,,blau,blue,b,1.0,b,1.0,0.5829733999999007,,,,,,,,,,2.0,5.0,29.0,5.0,284.3532097999996,,,,,,,,,,,,,,,,,284.3396209000057,284.45381649999763,285.25440560000425,285.23888910000096,,,,,,,,,,,,,,,,,,,,,,,,,,,,,,,,,,,285.24336810001114,285.25440560000425,285.25440560000425,285.84035250000306,b,1.0,0.5829733999999007,,,,,sub-214,1,stroop_test,59.96591537246034,
,,,,30.0,6.0,2.0,,,,,,,,,,,,,rot,blue,b,0.0,b,1.0,0.5443928000022424,,,,,,,,,,2.0,6.0,30.0,2.0,285.85481869999785,,,,,,,,,,,,,,,,,285.84082769999804,286.20520670000406,287.0056828000088,286.99047900000005,,,,,,,,,,,,,,,,,,,,,,,,,,,,,,,,,,,286.9945512999984,287.0056828000088,287.0056828000088,287.55814510000346,b,1.0,0.5443928000022424,,,,,sub-214,1,stroop_test,59.96591537246034,
,,,,31.0,7.0,2.0,,,,,,,,,,,,,gelb,yellow,g,1.0,g,1.0,0.5730483000079403,,,,,,,,,,2.0,7.0,31.0,11.0,287.57270289999724,,,,,,,,,,,,,,,,,287.55861580000783,287.6729505999974,288.4735843000089,288.4582589000056,,,,,,,,,,,,,,,,,,,,,,,,,,,,,,,,,,,288.4639018000016,288.4735843000089,288.4735843000089,289.0649305999977,g,1.0,0.5730483000079403,,,,,sub-214,1,stroop_test,59.96591537246034,
,,,,32.0,8.0,2.0,,,,,,,,,,,,,blau,red,r,0.0,r,1.0,0.44825669999409,,,,,,,,,,2.0,8.0,32.0,4.0,289.0739256000088,,,,,,,,,,,,,,,,,289.0655383999984,289.87485380000726,290.6754260000016,290.6599935999984,,,,,,,,,,,,,,,,,,,,,,,,,,,,,,,,,,,290.66463090000616,290.6754260000016,290.6754260000016,291.1291589000029,r,1.0,0.44825669999409,,,,,sub-214,1,stroop_test,59.96591537246034,
,,,,33.0,9.0,2.0,,,,,,,,,,,,,gelb,red,r,0.0,r,1.0,0.4761246999987634,,,,,,,,,,2.0,9.0,33.0,8.0,291.1424262000073,,,,,,,,,,,,,,,,,291.1298083000001,291.9431424000068,292.7438537999988,292.7283857000002,,,,,,,,,,,,,,,,,,,,,,,,,,,,,,,,,,,292.73283770000853,292.7438537999988,292.7438537999988,293.23013910000736,r,1.0,0.4761246999987634,,,,,sub-214,1,stroop_test,59.96591537246034,
,,,,34.0,10.0,2.0,,,,,,,,,,,,,rot,yellow,g,0.0,g,1.0,0.5881862999958685,,,,,,,,,,2.0,10.0,34.0,3.0,293.2440915000043,,,,,,,,,,,,,,,,,293.2305820000038,294.0449923999986,294.84544099999766,294.83003779999854,,,,,,,,,,,,,,,,,,,,,,,,,,,,,,,,,,,294.83570619999955,294.84544099999766,294.84544099999766,295.4480377,g,1.0,0.5881862999958685,,,,,sub-214,1,stroop_test,59.96591537246034,
,,,,35.0,11.0,2.0,,,,,,,,,,,,,blau,yellow,g,0.0,g,1.0,0.8235310000018217,,,,,,,,,,2.0,11.0,35.0,7.0,295.4626532000111,,,,,,,,,,,,,,,,,295.4485435000097,295.8129273000086,296.6136936999974,296.5982087000011,,,,,,,,,,,,,,,,,,,,,,,,,,,,,,,,,,,296.602438300004,296.6136936999974,296.6136936999974,297.4497390000033,g,1.0,0.8235310000018217,,,,,sub-214,1,stroop_test,59.96591537246034,
,,,,36.0,0.0,3.0,,,,,,,,,,,,,gelb,blue,b,0.0,b,1.0,0.5920200999971712,,,,,,,,,,3.0,0.0,36.0,9.0,297.4641794000054,,,,,,,,,,,,,,,,,297.4502615000092,297.5647592000023,298.36532360001,298.34966940000595,,,,,,,,,,,,,,,,,,,,,,,,,,,,,,,,,,,298.35416840000835,298.36532360001,298.36532360001,298.96765580000647,b,1.0,0.5920200999971712,,,,,sub-214,1,stroop_test,59.96591537246034,
,,,,37.0,1.0,3.0,,,,,,,,,,,,,blau,blue,b,1.0,b,1.0,0.5210449999867706,,,,,,,,,,3.0,1.0,37.0,6.0,298.9824607000046,,,,,,,,,,,,,,,,,298.96815480000805,299.7828587000113,300.5835982999997,300.5681120000081,,,,,,,,,,,,,,,,,,,,,,,,,,,,,,,,,,,300.57269760000054,300.5835982999997,300.5835982999997,301.11936080000305,b,1.0,0.5210449999867706,,,,,sub-214,1,stroop_test,59.96591537246034,
,,,,38.0,2.0,3.0,,,,,,,,,,,,,rot,red,r,1.0,r,1.0,0.608304199995473,,,,,,,,,,3.0,2.0,38.0,0.0,301.13408390000404,,,,,,,,,,,,,,,,,301.1198781999992,301.48451500000374,302.2851673999976,302.2696502000035,,,,,,,,,,,,,,,,,,,,,,,,,,,,,,,,,,,302.2742280000093,302.2851673999976,302.2851673999976,302.90422170000966,r,1.0,0.608304199995473,,,,,sub-214,1,stroop_test,59.96591537246034,
,,,,39.0,3.0,3.0,,,,,,,,,,,,,gelb,yellow,g,1.0,g,1.0,0.6425649999873713,,,,,,,,,,3.0,3.0,39.0,10.0,302.9189420000039,,,,,,,,,,,,,,,,,302.90469960001064,303.0190537000017,303.819771399998,303.80406120000407,,,,,,,,,,,,,,,,,,,,,,,,,,,,,,,,,,,303.8084455000062,303.819771399998,303.819771399998,304.4722696000099,g,1.0,0.6425649999873713,,,,,sub-214,1,stroop_test,59.96591537246034,
,,,,40.0,4.0,3.0,,,,,,,,,,,,,blau,yellow,g,0.0,g,1.0,0.5661915999953635,,,,,,,,,,3.0,4.0,40.0,7.0,304.4867735000007,,,,,,,,,,,,,,,,,304.4727390000044,305.28744470000674,306.08822520000103,306.0728918000096,,,,,,,,,,,,,,,,,,,,,,,,,,,,,,,,,,,306.07829630000924,306.08822520000103,306.08822520000103,306.6573398000037,g,1.0,0.5661915999953635,,,,,sub-214,1,stroop_test,59.96591537246034,
,,,,41.0,5.0,3.0,,,,,,,,,,,,,rot,blue,b,0.0,b,1.0,0.9311201000091388,,,,,,,,,,3.0,5.0,41.0,2.0,306.6719184000103,,,,,,,,,,,,,,,,,306.65781119999883,307.8730185000022,308.67355810001027,308.6580799000076,,,,,,,,,,,,,,,,,,,,,,,,,,,,,,,,,,,308.66253040000447,308.67355810001027,308.67355810001027,309.609712400008,b,1.0,0.9311201000091388,,,,,sub-214,1,stroop_test,59.96591537246034,
,,,,42.0,6.0,3.0,,,,,,,,,,,,,gelb,yellow,g,1.0,g,1.0,0.6168264000007184,,,,,,,,,,3.0,6.0,42.0,11.0,309.6245094000042,,,,,,,,,,,,,,,,,309.61022129999765,310.82533190000686,311.626153899997,311.61060810000345,,,,,,,,,,,,,,,,,,,,,,,,,,,,,,,,,,,311.6159742000018,311.626153899997,311.626153899997,312.2455173000053,g,1.0,0.6168264000007184,,,,,sub-214,1,stroop_test,59.96591537246034,
,,,,43.0,7.0,3.0,,,,,,,,,,,,,blau,red,r,0.0,r,1.0,0.4809636999998474,,,,,,,,,,3.0,7.0,43.0,4.0,312.2600636999996,,,,,,,,,,,,,,,,,312.24599260000105,313.0606759000075,313.8613788000075,313.8457829000108,,,,,,,,,,,,,,,,,,,,,,,,,,,,,,,,,,,313.8501596999995,313.8613788000075,313.8613788000075,314.3468588000105,r,1.0,0.4809636999998474,,,,,sub-214,1,stroop_test,59.96591537246034,
,,,,44.0,8.0,3.0,,,,,,,,,,,,,rot,yellow,g,0.0,g,1.0,0.6963391000026604,,,,,,,,,,3.0,8.0,44.0,3.0,314.3615785000002,,,,,,,,,,,,,,,,,314.3473839000071,315.5460107000108,316.34661810001126,316.331380100004,,,,,,,,,,,,,,,,,,,,,,,,,,,,,,,,,,,316.3357987000054,316.34661810001126,316.34661810001126,317.0492920999968,g,1.0,0.6963391000026604,,,,,sub-214,1,stroop_test,59.96591537246034,
,,,,45.0,9.0,3.0,,,,,,,,,,,,,rot,red,r,1.0,r,1.0,0.597936899997876,,,,,,,,,,3.0,9.0,45.0,1.0,317.0639303000062,,,,,,,,,,,,,,,,,317.0497641999973,317.41436599999724,318.21484710001096,318.1994648000109,,,,,,,,,,,,,,,,,,,,,,,,,,,,,,,,,,,318.2001512999996,318.21484710001096,318.21484710001096,318.81742459999805,r,1.0,0.597936899997876,,,,,sub-214,1,stroop_test,59.96591537246034,
,,,,46.0,10.0,3.0,,,,,,,,,,,,,blau,blue,b,1.0,b,1.0,0.5768381000088993,,,,,,,,,,3.0,10.0,46.0,5.0,318.8320776000037,,,,,,,,,,,,,,,,,318.8178976000054,318.93233950001013,319.73290129999805,319.7172015999968,,,,,,,,,,,,,,,,,,,,,,,,,,,,,,,,,,,319.721778200008,319.73290129999805,319.73290129999805,320.3187883000064,b,1.0,0.5768381000088993,,,,,sub-214,1,stroop_test,59.96591537246034,
,,,,47.0,11.0,3.0,,,,,,,,,,,,,gelb,red,r,0.0,r,1.0,0.7115044999954989,,,,,,,,,,3.0,11.0,47.0,8.0,320.33306099999754,,,,,,,,,,,,,,,,,320.31925919999776,320.4333200999972,321.23487430000387,321.2184961000021,,,,,,,,,,,,,,,,,,,,,,,,,,,,,,,,,,,321.2237710000045,321.23487430000387,321.23487430000387,321.9534376000084,r,1.0,0.7115044999954989,,,,,sub-214,1,stroop_test,59.96591537246034,
,,,,48.0,0.0,4.0,,,,,,,,,,,,,blau,blue,b,1.0,b,1.0,0.4219250000023749,,,,,,,,,,4.0,0.0,48.0,6.0,321.9681955999986,,,,,,,,,,,,,,,,,321.9539068000013,323.16902400000254,323.9697906000074,323.95418020000216,,,,,,,,,,,,,,,,,,,,,,,,,,,,,,,,,,,323.95845700000064,323.9697906000074,323.9697906000074,324.4054485000088,b,1.0,0.4219250000023749,,,,,sub-214,1,stroop_test,59.96591537246034,
,,,,49.0,1.0,4.0,,,,,,,,,,,,,gelb,yellow,g,1.0,g,1.0,0.4950863999983994,,,,,,,,,,4.0,1.0,49.0,10.0,324.4201946000103,,,,,,,,,,,,,,,,,324.4059216000024,324.7704178999993,325.57102309999755,325.55549630000314,,,,,,,,,,,,,,,,,,,,,,,,,,,,,,,,,,,325.5601289000042,325.57102309999755,325.57102309999755,326.07358229999954,g,1.0,0.4950863999983994,,,,,sub-214,1,stroop_test,59.96591537246034,
,,,,50.0,2.0,4.0,,,,,,,,,,,,,blau,blue,b,1.0,b,1.0,0.5649272999871755,,,,,,,,,,4.0,2.0,50.0,5.0,326.08823120000307,,,,,,,,,,,,,,,,,326.0740516000078,327.2893085000105,328.0897941000003,328.07434289999946,,,,,,,,,,,,,,,,,,,,,,,,,,,,,,,,,,,328.0787973999977,328.0897941000003,328.0897941000003,328.6589992000081,b,1.0,0.5649272999871755,,,,,sub-214,1,stroop_test,59.96591537246034,
,,,,51.0,3.0,4.0,,,,,,,,,,,,,rot,yellow,g,0.0,g,1.0,0.6538463000033516,,,,,,,,,,4.0,3.0,51.0,3.0,328.6735828000092,,,,,,,,,,,,,,,,,328.6594757999992,329.47436890000245,330.27491750000627,330.2595927000075,,,,,,,,,,,,,,,,,,,,,,,,,,,,,,,,,,,330.2639313000109,330.27491750000627,330.27491750000627,330.9443720999989,g,1.0,0.6538463000033516,,,,,sub-214,1,stroop_test,59.96591537246034,
,,,,52.0,4.0,4.0,,,,,,,,,,,,,gelb,yellow,g,1.0,g,1.0,0.4898081999999704,,,,,,,,,,4.0,4.0,52.0,11.0,330.958933300004,,,,,,,,,,,,,,,,,330.94487160000426,331.058858400007,331.8596498999977,331.8441519000044,,,,,,,,,,,,,,,,,,,,,,,,,,,,,,,,,,,331.8488464999973,331.8596498999977,331.8596498999977,332.36191760000656,g,1.0,0.4898081999999704,,,,,sub-214,1,stroop_test,59.96591537246034,
,,,,53.0,5.0,4.0,,,,,,,,,,,,,blau,red,r,0.0,r,1.0,1.0624164999899222,,,,,,,,,,4.0,5.0,53.0,4.0,332.3766064000083,,,,,,,,,,,,,,,,,332.362438000011,333.17720390000613,333.9783640000096,333.9624687000032,,,,,,,,,,,,,,,,,,,,,,,,,,,,,,,,,,,333.9675748000009,333.9783640000096,333.9783640000096,335.04759030000423,r,1.0,1.0624164999899222,,,,,sub-214,1,stroop_test,59.96591537246034,
,,,,54.0,6.0,4.0,,,,,,,,,,,,,rot,red,r,1.0,r,1.0,0.533477099990705,,,,,,,,,,4.0,6.0,54.0,1.0,335.06218370000715,,,,,,,,,,,,,,,,,335.0481105000072,336.2630543999985,337.0638009000104,337.0481812000071,,,,,,,,,,,,,,,,,,,,,,,,,,,,,,,,,,,337.05243450000125,337.0638009000104,337.0638009000104,337.59978760000376,r,1.0,0.533477099990705,,,,,sub-214,1,stroop_test,59.96591537246034,
,,,,55.0,7.0,4.0,,,,,,,,,,,,,gelb,red,r,0.0,r,1.0,0.4798515000002226,,,,,,,,,,4.0,7.0,55.0,8.0,337.6141516000061,,,,,,,,,,,,,,,,,337.6004428000015,338.8153156000044,339.615804800007,339.6005472000106,,,,,,,,,,,,,,,,,,,,,,,,,,,,,,,,,,,339.60528299999714,339.615804800007,339.615804800007,340.1016782000079,r,1.0,0.4798515000002226,,,,,sub-214,1,stroop_test,59.96591537246034,
,,,,56.0,8.0,4.0,,,,,,,,,,,,,blau,yellow,g,0.0,g,1.0,0.5683530000096653,,,,,,,,,,4.0,8.0,56.0,7.0,340.11643840000033,,,,,,,,,,,,,,,,,340.1021655000077,340.2165098999976,341.0171902000002,341.0016171000025,,,,,,,,,,,,,,,,,,,,,,,,,,,,,,,,,,,341.00611539999954,341.0171902000002,341.0171902000002,341.6028817000042,g,1.0,0.5683530000096653,,,,,sub-214,1,stroop_test,59.96591537246034,
,,,,57.0,9.0,4.0,,,,,,,,,,,,,gelb,blue,b,0.0,b,1.0,0.6502897999889683,,,,,,,,,,4.0,9.0,57.0,9.0,341.6176176000008,,,,,,,,,,,,,,,,,341.60335289999784,342.41831160000584,343.2188432999974,343.20353910000995,,,,,,,,,,,,,,,,,,,,,,,,,,,,,,,,,,,343.2080047000054,343.2188432999974,343.2188432999974,343.8715921000112,b,1.0,0.6502897999889683,,,,,sub-214,1,stroop_test,59.96591537246034,
,,,,58.0,10.0,4.0,,,,,,,,,,,,,rot,blue,b,0.0,b,1.0,0.6295047000021441,,,,,,,,,,4.0,10.0,58.0,2.0,343.8861168000003,,,,,,,,,,,,,,,,,343.872079400011,344.68673880001006,345.48747230001027,345.47217570000794,,,,,,,,,,,,,,,,,,,,,,,,,,,,,,,,,,,345.47631199999887,345.48747230001027,345.48747230001027,346.1246072000067,b,1.0,0.6295047000021441,,,,,sub-214,1,stroop_test,59.96591537246034,
,,,,59.0,11.0,4.0,,,,,,,,,,,,,rot,red,r,1.0,r,1.0,0.5639011000021128,,,,,,,,,,4.0,11.0,59.0,0.0,346.13853070000187,,,,,,,,,,,,,,,,,346.12507310000365,346.4884848000074,347.2888884999993,347.27348060000804,,,,,,,,,,,,,,,,,,,,,,,,,,,,,,,,,,,347.274098599999,347.2888884999993,347.2888884999993,347.8575545000058,r,1.0,0.5639011000021128,,,,,sub-214,1,stroop_test,59.96591537246034,
,,,,60.0,0.0,5.0,,,,,,,,,,,,,gelb,yellow,g,1.0,g,1.0,0.5416294000024209,,,,,,,,,,5.0,0.0,60.0,11.0,347.87271560000954,,,,,,,,,,,,,,,,,347.858075199998,347.9729905999993,348.7732725000096,348.7578652000084,,,,,,,,,,,,,,,,,,,,,,,,,,,,,,,,,,,348.76473049999913,348.7732725000096,348.7732725000096,349.32596000000194,g,1.0,0.5416294000024209,,,,,sub-214,1,stroop_test,59.96591537246034,
,,,,61.0,1.0,5.0,,,,,,,,,,,,,blau,blue,b,1.0,b,1.0,0.6932416000054218,,,,,,,,,,5.0,1.0,61.0,5.0,349.34068470000057,,,,,,,,,,,,,,,,,349.32643370000005,350.5249393999984,351.32602230001066,351.3101239000098,,,,,,,,,,,,,,,,,,,,,,,,,,,,,,,,,,,351.31435880000936,351.32602230001066,351.32602230001066,352.0282630000001,b,1.0,0.6932416000054218,,,,,sub-214,1,stroop_test,59.96591537246034,
,,,,62.0,2.0,5.0,,,,,,,,,,,,,gelb,yellow,g,1.0,g,1.0,0.7310515000135638,,,,,,,,,,5.0,2.0,62.0,10.0,352.0429654000036,,,,,,,,,,,,,,,,,352.0288881000015,353.24396290000004,354.04455880000023,354.02899750000506,,,,,,,,,,,,,,,,,,,,,,,,,,,,,,,,,,,354.0333754000021,354.04455880000023,354.04455880000023,354.780648400003,g,1.0,0.7310515000135638,,,,,sub-214,1,stroop_test,59.96591537246034,
,,,,63.0,3.0,5.0,,,,,,,,,,,,,gelb,blue,b,0.0,b,1.0,0.7084470999980113,,,,,,,,,,5.0,3.0,63.0,9.0,354.7953265999968,,,,,,,,,,,,,,,,,354.78116220000084,355.59619500000554,356.39651859999867,356.3813311999984,,,,,,,,,,,,,,,,,,,,,,,,,,,,,,,,,,,356.3819501000107,356.39651859999867,356.39651859999867,357.11591049999697,b,1.0,0.7084470999980113,,,,,sub-214,1,stroop_test,59.96591537246034,
,,,,64.0,4.0,5.0,,,,,,,,,,,,,rot,yellow,g,0.0,g,1.0,0.8024038000003202,,,,,,,,,,5.0,4.0,64.0,3.0,357.13030000000435,,,,,,,,,,,,,,,,,357.116382799999,357.4806941999996,358.28138520001085,358.2659935999982,,,,,,,,,,,,,,,,,,,,,,,,,,,,,,,,,,,358.27031530000386,358.28138520001085,358.28138520001085,359.1007191000099,g,1.0,0.8024038000003202,,,,,sub-214,1,stroop_test,59.96591537246034,
,,,,65.0,5.0,5.0,,,,,,,,,,,,,gelb,red,r,0.0,r,1.0,0.5724038000043947,,,,,,,,,,5.0,5.0,65.0,8.0,359.11525390000315,,,,,,,,,,,,,,,,,359.10120790000656,359.46565179999743,360.26644790000864,360.25099780000164,,,,,,,,,,,,,,,,,,,,,,,,,,,,,,,,,,,360.2556425000075,360.26644790000864,360.26644790000864,360.8523650999996,r,1.0,0.5724038000043947,,,,,sub-214,1,stroop_test,59.96591537246034,
,,,,66.0,6.0,5.0,,,,,,,,,,,,,blau,yellow,g,0.0,g,1.0,0.6265313000039896,,,,,,,,,,5.0,6.0,66.0,7.0,360.8668427000084,,,,,,,,,,,,,,,,,360.8528675999987,362.0679742000066,362.8687306000065,362.8529494000104,,,,,,,,,,,,,,,,,,,,,,,,,,,,,,,,,,,362.85765450001054,362.8687306000065,362.8687306000065,363.5047678999981,g,1.0,0.6265313000039896,,,,,sub-214,1,stroop_test,59.96591537246034,
,,,,67.0,7.0,5.0,,,,,,,,,,,,,rot,red,r,1.0,r,1.0,0.5106358000048203,,,,,,,,,,5.0,7.0,67.0,1.0,363.5192298000038,,,,,,,,,,,,,,,,,363.50536160000775,363.8693187000026,364.670094000001,364.6545709000056,,,,,,,,,,,,,,,,,,,,,,,,,,,,,,,,,,,364.65959570001,364.670094000001,364.670094000001,365.1889042999974,r,1.0,0.5106358000048203,,,,,sub-214,1,stroop_test,59.96591537246034,
,,,,68.0,8.0,5.0,,,,,,,,,,,,,rot,red,r,1.0,r,1.0,0.5116224000084912,,,,,,,,,,5.0,8.0,68.0,0.0,365.203895300001,,,,,,,,,,,,,,,,,365.1894324000023,366.0045412000036,366.8052762000007,366.7897200000007,,,,,,,,,,,,,,,,,,,,,,,,,,,,,,,,,,,366.7903960000112,366.8052762000007,366.8052762000007,367.3241730000009,r,1.0,0.5116224000084912,,,,,sub-214,1,stroop_test,59.96591537246034,
,,,,69.0,9.0,5.0,,,,,,,,,,,,,rot,blue,b,0.0,b,1.0,0.593826700001955,,,,,,,,,,5.0,9.0,69.0,2.0,367.3390626000037,,,,,,,,,,,,,,,,,367.324643800006,368.13953860000765,368.94023960000777,368.9246759000089,,,,,,,,,,,,,,,,,,,,,,,,,,,,,,,,,,,368.92526740000176,368.94023960000777,368.94023960000777,369.54294690000825,b,1.0,0.593826700001955,,,,,sub-214,1,stroop_test,59.96591537246034,
,,,,70.0,10.0,5.0,,,,,,,,,,,,,blau,blue,b,1.0,b,1.0,0.6688229999999749,,,,,,,,,,5.0,10.0,70.0,6.0,369.5573389000056,,,,,,,,,,,,,,,,,369.5434574000101,370.7582723000087,371.5592084000091,371.5435137000022,,,,,,,,,,,,,,,,,,,,,,,,,,,,,,,,,,,371.5479275000107,371.5592084000091,371.5592084000091,372.2450189000083,b,1.0,0.6688229999999749,,,,,sub-214,1,stroop_test,59.96591537246034,
,,,,71.0,11.0,5.0,,,,,,,,,,,,,blau,red,r,0.0,r,1.0,0.5801783000060823,,,,,,,,,,5.0,11.0,71.0,4.0,372.2596473000012,,,,,,,,,,,,,,,,,372.2455696000106,373.0602394000016,373.8610008000105,373.8453790000058,,,,,,,,,,,,,,,,,,,,,,,,,,,,,,,,,,,373.8461080999987,373.8610008000105,373.8610008000105,374.4471001000056,r,1.0,0.5801783000060823,,,,,sub-214,1,stroop_test,59.96591537246034,
,,,,72.0,0.0,6.0,,,,,,,,,,,,,rot,blue,b,0.0,b,1.0,0.6847714000032283,,,,,,,,,,6.0,0.0,72.0,2.0,374.4615198000101,,,,,,,,,,,,,,,,,374.4476291000028,375.662353599997,376.4631889000011,376.4477776999993,,,,,,,,,,,,,,,,,,,,,,,,,,,,,,,,,,,376.4521061999985,376.4631889000011,376.4631889000011,377.16593830000784,b,1.0,0.6847714000032283,,,,,sub-214,1,stroop_test,59.96591537246034,
,,,,73.0,1.0,6.0,,,,,,,,,,,,,gelb,blue,b,0.0,b,1.0,0.618448699999135,,,,,,,,,,6.0,1.0,73.0,9.0,377.1804604000063,,,,,,,,,,,,,,,,,377.1664217000071,377.280382500001,378.0811873000057,378.06556990000536,,,,,,,,,,,,,,,,,,,,,,,,,,,,,,,,,,,378.07018520000565,378.0811873000057,378.0811873000057,378.71673820000433,b,1.0,0.618448699999135,,,,,sub-214,1,stroop_test,59.96591537246034,
,,,,74.0,2.0,6.0,,,,,,,,,,,,,blau,yellow,g,0.0,g,1.0,0.5315043000009609,,,,,,,,,,6.0,2.0,74.0,7.0,378.7316078000004,,,,,,,,,,,,,,,,,378.7171817000053,378.8317346999975,379.6324294000078,379.6169184000028,,,,,,,,,,,,,,,,,,,,,,,,,,,,,,,,,,,379.6213758000085,379.6324294000078,379.6324294000078,380.1682164000085,g,1.0,0.5315043000009609,,,,,sub-214,1,stroop_test,59.96591537246034,
,,,,75.0,3.0,6.0,,,,,,,,,,,,,rot,red,r,1.0,r,1.0,0.396703600010369,,,,,,,,,,6.0,3.0,75.0,1.0,380.1829990999977,,,,,,,,,,,,,,,,,380.1686855000007,381.3838814000046,382.1846838000056,382.1691982000048,,,,,,,,,,,,,,,,,,,,,,,,,,,,,,,,,,,382.1742516000086,382.1846838000056,382.1846838000056,382.5873515999992,r,1.0,0.396703600010369,,,,,sub-214,1,stroop_test,59.96591537246034,
,,,,76.0,4.0,6.0,,,,,,,,,,,,,rot,red,r,1.0,b,0.0,0.5247893000050681,,,,,,,,,,6.0,4.0,76.0,0.0,382.6015067999979,,,,,,,,,,,,,,,,,382.58781710000767,382.9517701000004,383.7524589000095,383.7370419000072,,,,,,,,,,,,,,,,,,,,,,,,,,,,,,,,,,,383.73766520000936,383.7524589000095,383.7524589000095,384.2883882000024,b,0.0,0.5247893000050681,,,,,sub-214,1,stroop_test,59.96591537246034,
,,,,77.0,5.0,6.0,,,,,,,,,,,,,blau,red,r,0.0,r,1.0,0.8477316000062274,,,,,,,,,,6.0,5.0,77.0,4.0,384.302966400006,,,,,,,,,,,,,,,,,384.28891119999753,384.6533748000074,385.4540582000045,385.43848910000816,,,,,,,,,,,,,,,,,,,,,,,,,,,,,,,,,,,385.44287769999937,385.4540582000045,385.4540582000045,386.3067231000023,r,1.0,0.8477316000062274,,,,,sub-214,1,stroop_test,59.96591537246034,
,,,,78.0,6.0,6.0,,,,,,,,,,,,,gelb,red,r,0.0,r,1.0,0.5234611000050791,,,,,,,,,,6.0,6.0,78.0,8.0,386.3213044000004,,,,,,,,,,,,,,,,,386.30722090000927,387.1221082999982,387.922662500001,387.9071974000108,,,,,,,,,,,,,,,,,,,,,,,,,,,,,,,,,,,387.911863900008,387.922662500001,387.922662500001,388.45856920001097,r,1.0,0.5234611000050791,,,,,sub-214,1,stroop_test,59.96591537246034,
,,,,79.0,7.0,6.0,,,,,,,,,,,,,rot,yellow,g,0.0,g,1.0,0.5996377999981632,,,,,,,,,,6.0,7.0,79.0,3.0,388.4731536000036,,,,,,,,,,,,,,,,,388.4590900000039,389.27369960000215,390.07437590000336,390.0589503000083,,,,,,,,,,,,,,,,,,,,,,,,,,,,,,,,,,,390.0639074000064,390.07437590000336,390.07437590000336,390.6770800000086,g,1.0,0.5996377999981632,,,,,sub-214,1,stroop_test,59.96591537246034,
,,,,80.0,8.0,6.0,,,,,,,,,,,,,gelb,yellow,g,1.0,g,1.0,0.5187482999899657,,,,,,,,,,6.0,8.0,80.0,10.0,390.6915265999996,,,,,,,,,,,,,,,,,390.6775562000112,391.8925450000097,392.693322799998,392.6778306000051,,,,,,,,,,,,,,,,,,,,,,,,,,,,,,,,,,,392.6824273000093,392.693322799998,392.693322799998,393.2291297000047,g,1.0,0.5187482999899657,,,,,sub-214,1,stroop_test,59.96591537246034,
,,,,81.0,9.0,6.0,,,,,,,,,,,,,blau,blue,b,1.0,b,1.0,0.5473481999943033,,,,,,,,,,6.0,9.0,81.0,6.0,393.2437656000111,,,,,,,,,,,,,,,,,393.2296176000091,394.4448650999984,395.2454435999971,395.2297935000097,,,,,,,,,,,,,,,,,,,,,,,,,,,,,,,,,,,395.2339586000016,395.2454435999971,395.2454435999971,395.7980324000091,b,1.0,0.5473481999943033,,,,,sub-214,1,stroop_test,59.96591537246034,
,,,,82.0,10.0,6.0,,,,,,,,,,,,,gelb,yellow,g,1.0,g,1.0,0.4707193000067491,,,,,,,,,,6.0,10.0,82.0,11.0,395.8123759000009,,,,,,,,,,,,,,,,,395.7985056000034,397.0136547000002,397.814096800008,397.7989079000108,,,,,,,,,,,,,,,,,,,,,,,,,,,,,,,,,,,397.8048694000026,397.814096800008,397.814096800008,398.30003620000207,g,1.0,0.4707193000067491,,,,,sub-214,1,stroop_test,59.96591537246034,
,,,,83.0,11.0,6.0,,,,,,,,,,,,,blau,blue,b,1.0,b,1.0,0.5621239000029163,,,,,,,,,,6.0,11.0,83.0,5.0,398.31460640000296,,,,,,,,,,,,,,,,,398.30051000000094,399.5154372000106,400.31636160000926,400.3006754000089,,,,,,,,,,,,,,,,,,,,,,,,,,,,,,,,,,,400.3049463000061,400.31636160000926,400.31636160000926,400.88550479999685,b,1.0,0.5621239000029163,,,,,sub-214,1,stroop_test,59.96591537246034,
,,,,84.0,0.0,7.0,,,,,,,,,,,,,blau,blue,b,1.0,b,1.0,0.55657169999904,,,,,,,,,,7.0,0.0,84.0,5.0,400.8999454000004,,,,,,,,,,,,,,,,,400.8860072000098,401.00006700000085,401.8009919000033,401.7852120000025,,,,,,,,,,,,,,,,,,,,,,,,,,,,,,,,,,,401.7857941999973,401.8009919000033,401.8009919000033,402.3699536000058,b,1.0,0.55657169999904,,,,,sub-214,1,stroop_test,59.96591537246034,
,,,,85.0,1.0,7.0,,,,,,,,,,,,,rot,yellow,g,0.0,g,1.0,0.723469100004877,,,,,,,,,,7.0,1.0,85.0,3.0,402.3846038000047,,,,,,,,,,,,,,,,,402.3704166000098,403.5856523999973,404.3862760000047,404.3707140000042,,,,,,,,,,,,,,,,,,,,,,,,,,,,,,,,,,,404.3751377000008,404.3862760000047,404.3862760000047,405.1223655000067,g,1.0,0.723469100004877,,,,,sub-214,1,stroop_test,59.96591537246034,
,,,,86.0,2.0,7.0,,,,,,,,,,,,,gelb,yellow,g,1.0,g,1.0,0.543706900003599,,,,,,,,,,7.0,2.0,86.0,11.0,405.1368350999983,,,,,,,,,,,,,,,,,405.1228575999994,406.32203570001,407.1219162000052,407.10629690000496,,,,,,,,,,,,,,,,,,,,,,,,,,,,,,,,,,,407.110915199999,407.1219162000052,407.1219162000052,407.6744231000048,g,1.0,0.543706900003599,,,,,sub-214,1,stroop_test,59.96591537246034,
,,,,87.0,3.0,7.0,,,,,,,,,,,,,gelb,red,r,0.0,r,1.0,0.9724504999903728,,,,,,,,,,7.0,3.0,87.0,8.0,407.6889506000007,,,,,,,,,,,,,,,,,407.6748930000031,408.890015099998,409.69061840001086,409.6751446999988,,,,,,,,,,,,,,,,,,,,,,,,,,,,,,,,,,,409.6757434000028,409.69061840001086,409.69061840001086,410.6768592000008,r,1.0,0.9724504999903728,,,,,sub-214,1,stroop_test,59.96591537246034,
,,,,88.0,4.0,7.0,,,,,,,,,,,,,rot,blue,b,0.0,b,1.0,1.0061110999959055,,,,,,,,,,7.0,4.0,88.0,2.0,410.6914498999977,,,,,,,,,,,,,,,,,410.6773554000101,411.8927069000056,412.6931956000044,412.677473600008,,,,,,,,,,,,,,,,,,,,,,,,,,,,,,,,,,,412.68185410001024,412.6931956000044,412.6931956000044,413.712620899998,b,1.0,1.0061110999959055,,,,,sub-214,1,stroop_test,59.96591537246034,
,,,,89.0,5.0,7.0,,,,,,,,,,,,,blau,red,r,0.0,r,1.0,0.5864086000074167,,,,,,,,,,7.0,5.0,89.0,4.0,413.72732079999696,,,,,,,,,,,,,,,,,413.7131185000035,414.528095200003,415.3286741000047,415.3131088000082,,,,,,,,,,,,,,,,,,,,,,,,,,,,,,,,,,,415.318861599997,415.3286741000047,415.3286741000047,415.9310725000105,r,1.0,0.5864086000074167,,,,,sub-214,1,stroop_test,59.96591537246034,
,,,,90.0,6.0,7.0,,,,,,,,,,,,,gelb,blue,b,0.0,b,1.0,0.5808531999937259,,,,,,,,,,7.0,6.0,90.0,9.0,415.9456082999968,,,,,,,,,,,,,,,,,415.93160930000886,416.7463929000078,417.5474386999995,417.5317619999987,,,,,,,,,,,,,,,,,,,,,,,,,,,,,,,,,,,417.5363904999977,417.5474386999995,417.5474386999995,418.13313690001087,b,1.0,0.5808531999937259,,,,,sub-214,1,stroop_test,59.96591537246034,
,,,,91.0,7.0,7.0,,,,,,,,,,,,,rot,red,r,1.0,r,1.0,0.5141308000020217,,,,,,,,,,7.0,7.0,91.0,1.0,418.14750400000776,,,,,,,,,,,,,,,,,418.13364680000814,418.4979541000066,419.2987569000106,419.2831571999996,,,,,,,,,,,,,,,,,,,,,,,,,,,,,,,,,,,419.2876606000064,419.2987569000106,419.2987569000106,419.8182663000043,r,1.0,0.5141308000020217,,,,,sub-214,1,stroop_test,59.96591537246034,
,,,,92.0,8.0,7.0,,,,,,,,,,,,,rot,red,r,1.0,r,1.0,0.5240075000037905,,,,,,,,,,7.0,8.0,92.0,0.0,419.8323773000011,,,,,,,,,,,,,,,,,419.81875859999855,419.9326655000041,420.7330797000032,420.7178470000072,,,,,,,,,,,,,,,,,,,,,,,,,,,,,,,,,,,420.7184599000029,420.7330797000032,420.7330797000032,421.269068499998,r,1.0,0.5240075000037905,,,,,sub-214,1,stroop_test,59.96591537246034,
,,,,93.0,9.0,7.0,,,,,,,,,,,,,blau,blue,b,1.0,b,1.0,0.5377900000021327,,,,,,,,,,7.0,9.0,93.0,6.0,421.2836821000092,,,,,,,,,,,,,,,,,421.2695676000003,422.4846171000099,423.285220500009,423.2698817000055,,,,,,,,,,,,,,,,,,,,,,,,,,,,,,,,,,,423.275017699998,423.285220500009,423.285220500009,423.8377039000042,b,1.0,0.5377900000021327,,,,,sub-214,1,stroop_test,59.96591537246034,
,,,,94.0,10.0,7.0,,,,,,,,,,,,,gelb,yellow,g,1.0,g,1.0,0.5320844999951078,,,,,,,,,,7.0,10.0,94.0,10.0,423.8523524000048,,,,,,,,,,,,,,,,,423.83818400000746,424.6531149000075,425.4537882000004,425.4381981000042,,,,,,,,,,,,,,,,,,,,,,,,,,,,,,,,,,,425.4426393000031,425.4537882000004,425.4537882000004,425.9897898000054,g,1.0,0.5320844999951078,,,,,sub-214,1,stroop_test,59.96591537246034,
,,,,95.0,11.0,7.0,,,,,,,,,,,,,blau,yellow,g,0.0,g,1.0,0.5473608000029344,,,,,,,,,,7.0,11.0,95.0,7.0,426.0040939000028,,,,,,,,,,,,,,,,,425.9902603000082,426.80517110000073,427.60564170000725,427.5899834000011,,,,,,,,,,,,,,,,,,,,,,,,,,,,,,,,,,,427.5948653000087,427.60564170000725,427.60564170000725,428.15802860000986,g,1.0,0.5473608000029344,,,,,sub-214,1,stroop_test,59.96591537246034,
,,,,96.0,0.0,8.0,,,,,,,,,,,,,rot,red,r,1.0,r,1.0,0.6624219999939669,,,,,,,,,,8.0,0.0,96.0,1.0,428.1725581000064,,,,,,,,,,,,,,,,,428.15849430000526,429.3736531000032,430.174425300007,430.15892230000463,,,,,,,,,,,,,,,,,,,,,,,,,,,,,,,,,,,430.1641654999985,430.174425300007,430.174425300007,430.84373659999983,r,1.0,0.6624219999939669,,,,,sub-214,1,stroop_test,59.96591537246034,
,,,,97.0,1.0,8.0,,,,,,,,,,,,,blau,blue,b,1.0,b,1.0,0.7469831000053091,,,,,,,,,,8.0,1.0,97.0,6.0,430.85823670000536,,,,,,,,,,,,,,,,,430.8442247000057,430.958295000004,431.7590812999988,431.74346880000667,,,,,,,,,,,,,,,,,,,,,,,,,,,,,,,,,,,431.74785410000186,431.7590812999988,431.7590812999988,432.5114087000111,b,1.0,0.7469831000053091,,,,,sub-214,1,stroop_test,59.96591537246034,
,,,,98.0,2.0,8.0,,,,,,,,,,,,,blau,red,r,0.0,r,1.0,0.5449244000046747,,,,,,,,,,8.0,2.0,98.0,4.0,432.5266551000095,,,,,,,,,,,,,,,,,432.5118569000042,432.8766434999998,433.6772408000106,433.6619905999978,,,,,,,,,,,,,,,,,,,,,,,,,,,,,,,,,,,433.6626165000053,433.6772408000106,433.6772408000106,434.2298252000037,r,1.0,0.5449244000046747,,,,,sub-214,1,stroop_test,59.96591537246034,
,,,,99.0,3.0,8.0,,,,,,,,,,,,,gelb,yellow,g,1.0,g,1.0,0.5770128000003751,,,,,,,,,,8.0,3.0,99.0,11.0,434.2443653000082,,,,,,,,,,,,,,,,,434.23032790000434,434.3445416000032,435.14514520000375,435.1296052000107,,,,,,,,,,,,,,,,,,,,,,,,,,,,,,,,,,,435.1338439000101,435.14514520000375,435.14514520000375,435.7311690000061,g,1.0,0.5770128000003751,,,,,sub-214,1,stroop_test,59.96591537246034,
,,,,100.0,4.0,8.0,,,,,,,,,,,,,blau,yellow,g,0.0,g,1.0,0.5906924000009894,,,,,,,,,,8.0,4.0,100.0,7.0,435.7456632000103,,,,,,,,,,,,,,,,,435.73163770000974,436.0958214999992,436.89652330000536,436.8811432000075,,,,,,,,,,,,,,,,,,,,,,,,,,,,,,,,,,,436.8854664000101,436.89652330000536,436.89652330000536,437.50070080001024,g,1.0,0.5906924000009894,,,,,sub-214,1,stroop_test,59.96591537246034,
,,,,101.0,5.0,8.0,,,,,,,,,,,,,gelb,yellow,g,1.0,g,1.0,0.4303938999946695,,,,,,,,,,8.0,5.0,101.0,10.0,437.5137457000092,,,,,,,,,,,,,,,,,437.50116280000657,437.86408860000665,438.6647268000088,438.6490608000022,,,,,,,,,,,,,,,,,,,,,,,,,,,,,,,,,,,438.6533333999978,438.6647268000088,438.6647268000088,439.10044840000046,g,1.0,0.4303938999946695,,,,,sub-214,1,stroop_test,59.96591537246034,
,,,,102.0,6.0,8.0,,,,,,,,,,,,,rot,red,r,1.0,r,1.0,0.379428000000189,,,,,,,,,,8.0,6.0,102.0,0.0,439.11489040000015,,,,,,,,,,,,,,,,,439.1009156000073,440.29945960000623,441.1000564999995,441.08444520000194,,,,,,,,,,,,,,,,,,,,,,,,,,,,,,,,,,,441.0890568000032,441.1000564999995,441.1000564999995,441.4857134000049,r,1.0,0.379428000000189,,,,,sub-214,1,stroop_test,59.96591537246034,
,,,,103.0,7.0,8.0,,,,,,,,,,,,,rot,blue,b,0.0,b,1.0,0.5150320999964606,,,,,,,,,,8.0,7.0,103.0,2.0,441.5004441000056,,,,,,,,,,,,,,,,,441.48618030000944,442.6847495000111,443.4852750999999,443.46994950000953,,,,,,,,,,,,,,,,,,,,,,,,,,,,,,,,,,,443.4705740000063,443.4852750999999,443.4852750999999,444.0045781000081,b,1.0,0.5150320999964606,,,,,sub-214,1,stroop_test,59.96591537246034,
,,,,104.0,8.0,8.0,,,,,,,,,,,,,gelb,blue,b,0.0,b,1.0,0.5417671999894083,,,,,,,,,,8.0,8.0,104.0,9.0,444.0189898000099,,,,,,,,,,,,,,,,,444.0050843000063,444.8197910000017,445.620553700006,445.6050145000045,,,,,,,,,,,,,,,,,,,,,,,,,,,,,,,,,,,445.61014630000864,445.620553700006,445.620553700006,446.17306890001055,b,1.0,0.5417671999894083,,,,,sub-214,1,stroop_test,59.96591537246034,
,,,,105.0,9.0,8.0,,,,,,,,,,,,,rot,yellow,g,0.0,g,1.0,0.7146202000003541,,,,,,,,,,8.0,9.0,105.0,3.0,446.1877078000107,,,,,,,,,,,,,,,,,446.1735655000084,447.38855450000847,448.1891046000092,448.17370690000826,,,,,,,,,,,,,,,,,,,,,,,,,,,,,,,,,,,448.17820680000295,448.1891046000092,448.1891046000092,448.9086625000055,g,1.0,0.7146202000003541,,,,,sub-214,1,stroop_test,59.96591537246034,
,,,,106.0,10.0,8.0,,,,,,,,,,,,,blau,blue,b,1.0,b,1.0,0.9751840999961132,,,,,,,,,,8.0,10.0,106.0,5.0,448.9231293000048,,,,,,,,,,,,,,,,,448.90915900000255,449.7239331000019,450.52463929999794,450.5090036000038,,,,,,,,,,,,,,,,,,,,,,,,,,,,,,,,,,,450.5132535000012,450.52463929999794,450.52463929999794,451.5109863999969,b,1.0,0.9751840999961132,,,,,sub-214,1,stroop_test,59.96591537246034,
,,,,107.0,11.0,8.0,,,,,,,,,,,,,gelb,red,r,0.0,r,1.0,0.5657769999961602,,,,,,,,,,8.0,11.0,107.0,8.0,451.5254480000003,,,,,,,,,,,,,,,,,451.511496799998,452.7262880000053,453.5270574000024,453.511714200009,,,,,,,,,,,,,,,,,,,,,,,,,,,,,,,,,,,453.5163365000044,453.5270574000024,453.5270574000024,454.0960013000004,r,1.0,0.5657769999961602,,,,,sub-214,1,stroop_test,59.96591537246034,
,,,,108.0,0.0,9.0,,,,,,,,,,,,,rot,red,r,1.0,r,1.0,0.4529917999898316,,,,,,,,,,9.0,0.0,108.0,1.0,454.1108852000034,,,,,,,,,,,,,,,,,454.09651170000143,454.9116824000084,455.7120556000009,455.6966753000015,,,,,,,,,,,,,,,,,,,,,,,,,,,,,,,,,,,455.7009972000087,455.7120556000009,455.7120556000009,456.1812634000089,r,1.0,0.4529917999898316,,,,,sub-214,1,stroop_test,59.96591537246034,
,,,,109.0,1.0,9.0,,,,,,,,,,,,,gelb,blue,b,0.0,b,1.0,0.5155113999935566,,,,,,,,,,9.0,1.0,109.0,9.0,456.1958492999984,,,,,,,,,,,,,,,,,456.1817164000095,456.99676629999885,457.79714290000265,457.7819113000005,,,,,,,,,,,,,,,,,,,,,,,,,,,,,,,,,,,457.78632410000137,457.79714290000265,457.79714290000265,458.31675189999805,b,1.0,0.5155113999935566,,,,,sub-214,1,stroop_test,59.96591537246034,
,,,,110.0,2.0,9.0,,,,,,,,,,,,,blau,yellow,g,0.0,g,1.0,0.5726888999924995,,,,,,,,,,9.0,2.0,110.0,7.0,458.3309117000026,,,,,,,,,,,,,,,,,458.3172431999992,459.5320883000095,460.3324474999972,460.3169911000005,,,,,,,,,,,,,,,,,,,,,,,,,,,,,,,,,,,460.3224356999999,460.3324474999972,460.3324474999972,460.9181411000027,g,1.0,0.5726888999924995,,,,,sub-214,1,stroop_test,59.96591537246034,
,,,,111.0,3.0,9.0,,,,,,,,,,,,,blau,red,r,0.0,r,1.0,0.6492563000065275,,,,,,,,,,9.0,3.0,111.0,4.0,460.93323390001024,,,,,,,,,,,,,,,,,460.9186100000079,461.0333102000004,461.83385270000144,461.81857230000605,,,,,,,,,,,,,,,,,,,,,,,,,,,,,,,,,,,461.819441700005,461.83385270000144,461.83385270000144,462.4866596000065,r,1.0,0.6492563000065275,,,,,sub-214,1,stroop_test,59.96591537246034,
,,,,112.0,4.0,9.0,,,,,,,,,,,,,blau,blue,b,1.0,b,1.0,0.5254853000078583,,,,,,,,,,9.0,4.0,112.0,5.0,462.5011624000035,,,,,,,,,,,,,,,,,462.4872062000068,463.7021707000095,464.50296199999866,464.4871966000064,,,,,,,,,,,,,,,,,,,,,,,,,,,,,,,,,,,464.48781320000126,464.50296199999866,464.50296199999866,465.0387233000074,b,1.0,0.5254853000078583,,,,,sub-214,1,stroop_test,59.96591537246034,
,,,,113.0,5.0,9.0,,,,,,,,,,,,,rot,red,r,1.0,r,1.0,0.5535838999931002,,,,,,,,,,9.0,5.0,113.0,0.0,465.053061700004,,,,,,,,,,,,,,,,,465.0392021000007,465.15338470001006,465.9540138000011,465.9382410000108,,,,,,,,,,,,,,,,,,,,,,,,,,,,,,,,,,,465.9424129000108,465.9540138000011,465.9540138000011,466.52308410000114,r,1.0,0.5535838999931002,,,,,sub-214,1,stroop_test,59.96591537246034,
,,,,114.0,6.0,9.0,,,,,,,,,,,,,gelb,red,r,0.0,r,1.0,0.5181434999976773,,,,,,,,,,9.0,6.0,114.0,8.0,466.5378495000041,,,,,,,,,,,,,,,,,466.5236179000058,467.7386662000063,468.5393413999991,468.5240507999988,,,,,,,,,,,,,,,,,,,,,,,,,,,,,,,,,,,468.52844550000736,468.5393413999991,468.5393413999991,469.0751172000018,r,1.0,0.5181434999976773,,,,,sub-214,1,stroop_test,59.96591537246034,
,,,,115.0,7.0,9.0,,,,,,,,,,,,,blau,blue,b,1.0,b,1.0,0.6151568000059342,,,,,,,,,,9.0,7.0,115.0,6.0,469.08990210000775,,,,,,,,,,,,,,,,,469.0756595999992,469.8904564999975,470.6911763000098,470.6758214000001,,,,,,,,,,,,,,,,,,,,,,,,,,,,,,,,,,,470.6805274000071,470.6911763000098,470.6911763000098,471.3105511000031,b,1.0,0.6151568000059342,,,,,sub-214,1,stroop_test,59.96591537246034,
,,,,116.0,8.0,9.0,,,,,,,,,,,,,rot,yellow,g,0.0,g,1.0,0.8958857000106946,,,,,,,,,,9.0,8.0,116.0,3.0,471.3250402999984,,,,,,,,,,,,,,,,,471.31110780000745,471.4253041000047,472.22579670000414,472.2104596999998,,,,,,,,,,,,,,,,,,,,,,,,,,,,,,,,,,,472.2147276000032,472.22579670000414,472.22579670000414,473.1286462999997,g,1.0,0.8958857000106946,,,,,sub-214,1,stroop_test,59.96591537246034,
,,,,117.0,9.0,9.0,,,,,,,,,,,,,rot,blue,b,0.0,b,1.0,0.8414064999960829,,,,,,,,,,9.0,9.0,117.0,2.0,473.14312790000986,,,,,,,,,,,,,,,,,473.12914289999753,473.4932377000077,474.294238500006,474.2786833999999,,,,,,,,,,,,,,,,,,,,,,,,,,,,,,,,,,,474.2792961000087,474.294238500006,474.294238500006,475.1472177000105,b,1.0,0.8414064999960829,,,,,sub-214,1,stroop_test,59.96591537246034,
,,,,118.0,10.0,9.0,,,,,,,,,,,,,gelb,yellow,g,1.0,g,1.0,0.684158899995964,,,,,,,,,,9.0,10.0,118.0,10.0,475.16155580000486,,,,,,,,,,,,,,,,,475.14772300000186,475.26167639999767,476.0622931999969,476.0470025000104,,,,,,,,,,,,,,,,,,,,,,,,,,,,,,,,,,,476.05220240000926,476.0622931999969,476.0622931999969,476.7486925999983,g,1.0,0.684158899995964,,,,,sub-214,1,stroop_test,59.96591537246034,
,,,,119.0,11.0,9.0,,,,,,,,,,,,,gelb,yellow,g,1.0,g,1.0,0.50182049999421,,,,,,,,,,9.0,11.0,119.0,11.0,476.7625778000074,,,,,,,,,,,,,,,,,476.7491544000077,476.864219199997,477.6638151000079,477.6482657000015,,,,,,,,,,,,,,,,,,,,,,,,,,,,,,,,,,,477.64899620000506,477.6638151000079,477.6638151000079,478.1826359999977,g,1.0,0.50182049999421,,,,,sub-214,1,stroop_test,59.96591537246034,
,,,,,,,,,,,,,,,,,,,,,,,,,,,,,,,,,,,,,,,,,,,,,,,,,,,,,,,,,,,,,,,,,,,,,,,,,,,,,,,,,,,,,,,,,,,,,,,,,,,,,,478.1828871000034,478.19769980000274,483.1851546999969,sub-214,1,stroop_test,59.96591537246034,
