wordCTK,colorCTK,corrAnsCTK,congruentCTK,thisN,thisTrialN,thisRepN,keyResp_CTK.keys,keyResp_CTK.corr,keyResp_CTK.rt,keyResp_CTK.duration,wordPractice,colorPractice,corrAnsPractice,congruentPractice,respPractice.keys,respPractice.corr,respPractice.rt,respPractice.duration,word,color,corrAns,congruent,keyResp_test_run.keys,keyResp_test_run.corr,keyResp_test_run.rt,keyResp_test_run.duration,trials_CTK.thisRepN,trials_CTK.thisTrialN,trials_CTK.thisN,trials_CTK.thisIndex,trials_practice.thisRepN,trials_practice.thisTrialN,trials_practice.thisN,trials_practice.thisIndex,trials_test.thisRepN,trials_test.thisTrialN,trials_test.thisN,trials_test.thisIndex,thisRow.t,notes,instruction.started,instr_text.started,instr_image.started,instr_resp.started,instruction.stopped,instr_resp.keys,instr_resp.rt,instr_resp.duration,instr_color_to_key.started,instr_ctk.started,resp_ctk.started,instr_color_to_key.stopped,resp_ctk.keys,resp_ctk.rt,resp_ctk.duration,ITI.started,fixcross.started,fixcross.stopped,ITI.stopped,color_to_key_run.started,stimulus_CTK.started,keyResp_CTK.started,color_to_key_run.stopped,trials_CTK.keyResp_CTK.keys,trials_CTK.keyResp_CTK.corr,trials_CTK.keyResp_CTK.rt,trials_CTK.keyResp_CTK.duration,instr_practice.started,instr_practice_text.started,instr_practice_resp.started,instr_practice.stopped,instr_practice_resp.keys,instr_practice_resp.rt,instr_practice_resp.duration,practice_run.started,stimulus_practice.started,respPractice.started,practice_run.stopped,trials_practice.respPractice.keys,trials_practice.respPractice.corr,trials_practice.respPractice.rt,trials_practice.respPractice.duration,feedback.started,textFeedback.started,feedback.stopped,textFeedback.stopped,instr_test.started,instr_test_text.started,instr_test_resp.started,instr_test.stopped,instr_test_resp.keys,instr_test_resp.rt,instr_test_resp.duration,test_run.started,stimulus_test_run.started,keyResp_test_run.started,test_run.stopped,trials_test.keyResp_test_run.keys,trials_test.keyResp_test_run.corr,trials_test.keyResp_test_run.rt,trials_test.keyResp_test_run.duration,goodbye.started,textGoodbye.started,textGoodbye.stopped,goodbye.stopped,participant,session,expName,frameRate,Unnamed: 113
,,,,,,,,,,,,,,,,,,,,,,,,,,,,,,,,,,,,,,,,,0.0128609410021454,0.0461195149982813,0.0461195149982813,0.0461195149982813,49.20360148698092,space,48.96747652598424,,,,,,,,,,,,,,,,,,,,,,,,,,,,,,,,,,,,,,,,,,,,,,,,,,,,,,,,,,,sub-192,1,stroop_test,60.52666320268667,
,,,,,,,,,,,,,,,,,,,,,,,,,,,,,,,,,,,,,,,,,,,,,,,,,49.20365518698236,49.21804480699939,49.21804480699939,55.80823357999907,space,6.574006418988574,,,,,,,,,,,,,,,,,,,,,,,,,,,,,,,,,,,,,,,,,,,,,,,,,,,,sub-192,1,stroop_test,60.52666320268667,
test,red,r,1.0,0.0,0.0,0.0,r,1.0,1.5565114570199512,,,,,,,,,,,,,,,,,,0.0,0.0,0.0,0.0,,,,,,,,,55.841762208990986,,,,,,,,,,,,,,,,,55.82821287598927,55.92324215298868,56.72514883099939,56.70706260600127,56.71193093800685,56.72514883099939,56.72514883099939,58.2907596110017,r,1.0,1.5565114570199512,,,,,,,,,,,,,,,,,,,,,,,,,,,,,,,,,,,,,,,,sub-192,1,stroop_test,60.52666320268667,
test,blue,b,1.0,1.0,1.0,0.0,b,1.0,0.9074977090058384,,,,,,,,,,,,,,,,,,0.0,1.0,1.0,2.0,,,,,,,,,58.30678952098242,,,,,,,,,,,,,,,,,58.29116465998232,58.639939774002414,59.439735652995296,59.42342364499928,59.42401603999315,59.439735652995296,59.439735652995296,60.35742081998615,b,1.0,0.9074977090058384,,,,,,,,,,,,,,,,,,,,,,,,,,,,,,,,,,,,,,,,sub-192,1,stroop_test,60.52666320268667,
test,yellow,g,1.0,2.0,2.0,0.0,g,1.0,1.9838839930016547,,,,,,,,,,,,,,,,,,0.0,2.0,2.0,1.0,,,,,,,,,60.373093857982894,,,,,,,,,,,,,,,,,60.35769946197979,61.55644908398972,62.35646958000143,62.3402109729941,62.34080417800578,62.35646958000143,62.35646958000143,64.35747707900009,g,1.0,1.9838839930016547,,,,,,,,,,,,,,,,,,,,,,,,,,,,,,,,,,,,,,,,sub-192,1,stroop_test,60.52666320268667,
test,blue,b,1.0,3.0,0.0,1.0,r,0.0,1.1836359580047429,,,,,,,,,,,,,,,,,,1.0,0.0,3.0,2.0,,,,,,,,,64.37321390298894,,,,,,,,,,,,,,,,,64.35780570600764,64.47357021999778,65.27315752199502,65.25685751298442,65.25744388398016,65.27315752199502,65.27315752199502,66.47410916598164,r,0.0,1.1836359580047429,,,,,,,,,,,,,,,,,,,,,,,,,,,,,,,,,,,,,,,,sub-192,1,stroop_test,60.52666320268667,
test,yellow,g,1.0,4.0,1.0,1.0,g,1.0,1.6159252020006534,,,,,,,,,,,,,,,,,,1.0,1.0,4.0,1.0,,,,,,,,,66.48962170499726,,,,,,,,,,,,,,,,,66.47444095398532,66.57343401000253,67.3731144379999,67.35686769100721,67.35747380400426,67.3731144379999,67.3731144379999,68.99101842800155,g,1.0,1.6159252020006534,,,,,,,,,,,,,,,,,,,,,,,,,,,,,,,,,,,,,,,,sub-192,1,stroop_test,60.52666320268667,
test,red,r,1.0,5.0,2.0,1.0,r,1.0,1.5593175789981617,,,,,,,,,,,,,,,,,,1.0,2.0,5.0,0.0,,,,,,,,,69.00602876499761,,,,,,,,,,,,,,,,,68.99135891799233,69.10655946398037,69.90636681200704,69.8898758989817,69.89038894599071,69.90636681200704,69.90636681200704,71.47409637700184,r,1.0,1.5593175789981617,,,,,,,,,,,,,,,,,,,,,,,,,,,,,,,,,,,,,,,,sub-192,1,stroop_test,60.52666320268667,
test,yellow,g,1.0,6.0,0.0,2.0,g,1.0,1.586132453987375,,,,,,,,,,,,,,,,,,2.0,0.0,6.0,1.0,,,,,,,,,71.48957622298622,,,,,,,,,,,,,,,,,71.47436482299236,72.28956606300198,73.08968087600078,73.0733356809942,73.07393153500743,73.08968087600078,73.08968087600078,74.69075489600073,g,1.0,1.586132453987375,,,,,,,,,,,,,,,,,,,,,,,,,,,,,,,,,,,,,,,,sub-192,1,stroop_test,60.52666320268667,
test,blue,b,1.0,7.0,1.0,2.0,b,1.0,0.6071347509860061,,,,,,,,,,,,,,,,,,2.0,1.0,7.0,2.0,,,,,,,,,74.70623714200337,,,,,,,,,,,,,,,,,74.69110462500248,75.50645440799417,76.30634065900813,76.28998757398222,76.29056907398626,76.30634065900813,76.30634065900813,76.92394340998726,b,1.0,0.6071347509860061,,,,,,,,,,,,,,,,,,,,,,,,,,,,,,,,,,,,,,,,sub-192,1,stroop_test,60.52666320268667,
test,red,r,1.0,8.0,2.0,2.0,r,1.0,0.6935589360073209,,,,,,,,,,,,,,,,,,2.0,2.0,8.0,0.0,,,,,,,,,76.93939814000623,,,,,,,,,,,,,,,,,76.92422346398234,77.72297690698178,78.5228507760039,78.5066873379983,78.50723548399401,78.5228507760039,78.5228507760039,79.22410829999717,r,1.0,0.6935589360073209,,,,,,,,,,,,,,,,,,,,,,,,,,,,,,,,,,,,,,,,sub-192,1,stroop_test,60.52666320268667,
test,yellow,g,1.0,9.0,0.0,3.0,g,1.0,0.4550220810051542,,,,,,,,,,,,,,,,,,3.0,0.0,9.0,1.0,,,,,,,,,79.23965221899562,,,,,,,,,,,,,,,,,79.22438567999052,80.03950993099716,80.83959336599219,80.823281725985,80.82387227998697,80.83959336599219,80.83959336599219,81.30798977398081,g,1.0,0.4550220810051542,,,,,,,,,,,,,,,,,,,,,,,,,,,,,,,,,,,,,,,,sub-192,1,stroop_test,60.52666320268667,
test,red,r,1.0,10.0,1.0,3.0,r,1.0,0.7334054490202107,,,,,,,,,,,,,,,,,,3.0,1.0,10.0,0.0,,,,,,,,,81.32300812899484,,,,,,,,,,,,,,,,,81.30827181099448,82.12274386000354,82.92294103599852,82.906639007997,82.90720854699612,82.92294103599852,82.92294103599852,83.67276640399359,r,1.0,0.7334054490202107,,,,,,,,,,,,,,,,,,,,,,,,,,,,,,,,,,,,,,,,sub-192,1,stroop_test,60.52666320268667,
test,blue,b,1.0,11.0,2.0,3.0,b,1.0,0.5585391029890161,,,,,,,,,,,,,,,,,,3.0,2.0,11.0,2.0,,,,,,,,,83.68948618398281,,,,,,,,,,,,,,,,,83.67311170700123,84.0229702249926,84.82295629699365,84.80656318398542,84.80718468100531,84.82295629699365,84.82295629699365,85.39040478199604,b,1.0,0.5585391029890161,,,,,,,,,,,,,,,,,,,,,,,,,,,,,,,,,,,,,,,,sub-192,1,stroop_test,60.52666320268667,
,,,,,,,,,,,,,,,,,,,,,,,,,,,,,,,,,,,,,,,,,,,,,,,,,,,,,,,,,,,,,,,,,,,,85.39053414098453,85.40696256697993,85.40696256697993,98.37361980800053,space,12.95446033301414,,,,,,,,,,,,,,,,,,,,,,,,,,,,,,,,,sub-192,1,stroop_test,60.52666320268667,
,,,,0.0,0.0,0.0,,,,,gelb,yellow,g,1.0,g,1.0,1.807616533013061,,,,,,,,,,,,,,0.0,0.0,0.0,11.0,,,,,98.39832911998384,,,,,,,,,,,,,,,,,98.38693858499757,99.17270957698928,99.97423303400863,99.95634578799944,,,,,,,,,,,,,,,,99.96095722200698,99.97423303400863,99.97423303400863,101.79020019600284,g,1.0,1.807616533013061,,101.79472204498596,101.8093308749958,102.80612136499258,,,,,,,,,,,,,,,,,,,,,sub-192,1,stroop_test,60.52666320268667,
,,,,1.0,1.0,0.0,,,,,blau,blue,b,1.0,b,1.0,0.6975652580149472,,,,,,,,,,,,,,0.0,1.0,1.0,5.0,,,,,102.82281951099868,,,,,,,,,,,,,,,,,102.80663301900496,103.58937473699916,104.39003869399312,104.37283804398612,,,,,,,,,,,,,,,,104.37663318699924,104.39003869399312,104.39003869399312,105.09051761598676,b,1.0,0.6975652580149472,,105.09103796698037,105.10633212898392,106.08967393598869,106.10587361600484,,,,,,,,,,,,,,,,,,,,sub-192,1,stroop_test,60.52666320268667,
,,,,2.0,2.0,0.0,,,,,blau,red,r,0.0,r,1.0,1.0848133380059153,,,,,,,,,,,,,,0.0,2.0,2.0,4.0,,,,,106.10587361600484,,,,,,,,,,,,,,,,,106.08999538698116,107.3063228050014,108.10597857899847,108.08954639098374,,,,,,,,,,,,,,,,108.09013603499623,108.10597857899847,108.10597857899847,109.2068906360073,r,1.0,1.0848133380059153,,109.2073606250051,109.22249409000506,110.20620057499036,110.22249609199936,,,,,,,,,,,,,,,,,,,,sub-192,1,stroop_test,60.52666320268667,
,,,,3.0,3.0,0.0,,,,,rot,yellow,g,0.0,g,1.0,1.4785425479931291,,,,,,,,,,,,,,0.0,3.0,3.0,3.0,,,,,110.22249609199936,,,,,,,,,,,,,,,,,110.20663118499216,110.57258715599892,111.37320843499036,111.35604856099236,,,,,,,,,,,,,,,,111.35948054899929,111.37320843499036,111.37320843499036,112.857197609992,g,1.0,1.4785425479931291,,112.8577379139897,112.8728719810024,113.8561036500032,113.87252415399416,,,,,,,,,,,,,,,,,,,,sub-192,1,stroop_test,60.52666320268667,
,,,,4.0,4.0,0.0,,,,,rot,blue,b,0.0,b,1.0,0.7589246059942525,,,,,,,,,,,,,,0.0,4.0,4.0,2.0,,,,,113.87252415399416,,,,,,,,,,,,,,,,,113.85651871099252,113.97213596999065,114.7725214509992,114.75591765798164,,,,,,,,,,,,,,,,114.75650397798744,114.7725214509992,114.7725214509992,115.54022340598748,b,1.0,0.7589246059942525,,115.54077699800835,115.55589929100825,116.53935581099358,116.5558051749831,,,,,,,,,,,,,,,,,,,,sub-192,1,stroop_test,60.52666320268667,
,,,,5.0,5.0,0.0,,,,,rot,red,r,1.0,r,1.0,0.7587668920168653,,,,,,,,,,,,,,0.0,5.0,5.0,0.0,,,,,116.5558051749831,,,,,,,,,,,,,,,,,116.53978292498503,116.90596690098756,117.70562376800808,117.68944550299784,,,,,,,,,,,,,,,,117.68997563899028,117.70562376800808,117.70562376800808,118.47318631300004,r,1.0,0.7587668920168653,,118.47362331100156,118.48893383899122,119.47271358899889,119.48912997698062,,,,,,,,,,,,,,,,,,,,sub-192,1,stroop_test,60.52666320268667,
,,,,6.0,6.0,0.0,,,,,gelb,blue,b,0.0,b,1.0,0.6935951129999012,,,,,,,,,,,,,,0.0,6.0,6.0,9.0,,,,,119.48912997698062,,,,,,,,,,,,,,,,,119.47313521098113,119.57252551999407,120.37247173200012,120.35590939299436,,,,,,,,,,,,,,,,120.3584686809918,120.37247173200012,120.37247173200012,121.0736206760048,b,1.0,0.6935951129999012,,121.07405816399842,121.08902583300367,122.07271035498708,122.0889870999963,,,,,,,,,,,,,,,,,,,,sub-192,1,stroop_test,60.52666320268667,
,,,,7.0,7.0,0.0,,,,,gelb,red,r,0.0,r,1.0,0.7760901739820838,,,,,,,,,,,,,,0.0,7.0,7.0,8.0,,,,,122.0889870999963,,,,,,,,,,,,,,,,,122.07312728700344,122.18910046300152,122.98898743800235,122.97262140698147,,,,,,,,,,,,,,,,122.97312652500112,122.98898743800235,122.98898743800235,123.77339468800346,r,1.0,0.7760901739820838,,123.77383025700692,123.7889337069937,124.77276940099546,124.7890161240066,,,,,,,,,,,,,,,,,,,,sub-192,1,stroop_test,60.52666320268667,
,,,,8.0,8.0,0.0,,,,,blau,yellow,g,0.0,g,1.0,0.552860285009956,,,,,,,,,,,,,,0.0,8.0,8.0,7.0,,,,,124.7890161240066,,,,,,,,,,,,,,,,,124.77320157698703,125.98894014299732,126.78941395500442,126.77261796899256,,,,,,,,,,,,,,,,126.77548921399284,126.78941395500442,126.78941395500442,127.35692835098598,g,1.0,0.552860285009956,,127.35739098800696,127.3724027260032,128.35604618000798,128.37236690399004,,,,,,,,,,,,,,,,,,,,sub-192,1,stroop_test,60.52666320268667,
,,,,9.0,9.0,0.0,,,,,gelb,yellow,g,1.0,g,1.0,0.7732812490139622,,,,,,,,,,,,,,0.0,9.0,9.0,10.0,,,,,128.37236690399004,,,,,,,,,,,,,,,,,128.35648656499689,129.57235907300492,130.37253080899245,130.35577646299498,,,,,,,,,,,,,,,,130.35879458498675,130.37253080899245,130.37253080899245,131.15654207099578,g,1.0,0.7732812490139622,,131.15707164199557,131.1723101969983,132.15548837199458,132.1721995639964,,,,,,,,,,,,,,,,,,,,sub-192,1,stroop_test,60.52666320268667,
,,,,10.0,10.0,0.0,,,,,blau,blue,b,1.0,b,1.0,0.364105634012958,,,,,,,,,,,,,,0.0,10.0,10.0,6.0,,,,,132.1721995639964,,,,,,,,,,,,,,,,,132.15593244699994,132.2723663719953,133.0725868139998,133.05592354998225,,,,,,,,,,,,,,,,133.05876118000015,133.0725868139998,133.0725868139998,133.43999914999586,b,1.0,0.364105634012958,,133.44049991798238,133.45572645100765,134.43921266999678,134.4555786389974,,,,,,,,,,,,,,,,,,,,sub-192,1,stroop_test,60.52666320268667,
,,,,11.0,11.0,0.0,,,,,rot,red,r,1.0,r,1.0,0.3372126909962389,,,,,,,,,,,,,,0.0,11.0,11.0,1.0,,,,,134.4555786389974,,,,,,,,,,,,,,,,,134.4396415289957,135.25562702398747,136.05582894099643,136.03918592000264,,,,,,,,,,,,,,,,136.04193554000813,136.05582894099643,136.05582894099643,136.40633222999168,r,1.0,0.3372126909962389,,136.40678720199503,136.4220193149813,137.40573209000286,137.42210326498025,,,,,,,,,,,,,,,,,,,,sub-192,1,stroop_test,60.52666320268667,
,,,,12.0,0.0,1.0,,,,,rot,yellow,g,0.0,g,1.0,0.4140664779988583,,,,,,,,,,,,,,1.0,0.0,12.0,3.0,,,,,137.42210326498025,,,,,,,,,,,,,,,,,137.40606267098337,138.20560915398528,139.0055336259829,138.98916925300728,,,,,,,,,,,,,,,,138.98977408499923,139.0055336259829,139.0055336259829,139.42328560198075,g,1.0,0.4140664779988583,,139.42377503600437,139.44070307799848,140.43909299600637,,,,,,,,,,,,,,,,,,,,,sub-192,1,stroop_test,60.52666320268667,
,,,,13.0,1.0,1.0,,,,,blau,blue,b,1.0,b,1.0,0.3060816189972684,,,,,,,,,,,,,,1.0,1.0,13.0,5.0,,,,,140.45544093998615,,,,,,,,,,,,,,,,,140.43946335598594,140.78914240398444,141.58940862800227,141.57251300098142,,,,,,,,,,,,,,,,141.57532099899254,141.58940862800227,141.58940862800227,141.90607449499657,b,1.0,0.3060816189972684,,141.90650698999525,141.92175081500318,142.9055545220035,142.9220818390022,,,,,,,,,,,,,,,,,,,,sub-192,1,stroop_test,60.52666320268667,
,,,,14.0,2.0,1.0,,,,,gelb,red,r,0.0,g,0.0,0.7174187340133358,,,,,,,,,,,,,,1.0,2.0,14.0,8.0,,,,,142.9220818390022,,,,,,,,,,,,,,,,,142.90594361099647,143.2553460559866,144.05589448698447,144.0392697089992,,,,,,,,,,,,,,,,144.04206046499894,144.05589448698447,144.05589448698447,144.7897017369978,g,0.0,0.7174187340133358,,144.7930839670007,144.80795064099948,145.80554314597975,,,,,,,,,,,,,,,,,,,,,sub-192,1,stroop_test,60.52666320268667,
,,,,15.0,3.0,1.0,,,,,rot,blue,b,0.0,b,1.0,0.6984090020123404,,,,,,,,,,,,,,1.0,3.0,15.0,2.0,,,,,145.82208498500404,,,,,,,,,,,,,,,,,145.80589099499048,145.88861528999405,146.6888539879874,146.67198284700862,,,,,,,,,,,,,,,,146.67486082800315,146.6888539879874,146.6888539879874,147.38990505898255,b,1.0,0.6984090020123404,,147.39320732298074,147.40830555098364,148.40509421599563,,,,,,,,,,,,,,,,,,,,,sub-192,1,stroop_test,60.52666320268667,
,,,,16.0,4.0,1.0,,,,,blau,blue,b,1.0,b,1.0,0.6582431629940402,,,,,,,,,,,,,,1.0,4.0,16.0,6.0,,,,,148.42196886899185,,,,,,,,,,,,,,,,,148.4054648159945,148.5050849939871,149.3052199849917,149.28872418400715,,,,,,,,,,,,,,,,149.29151023898157,149.3052199849917,149.3052199849917,149.9728075559833,b,1.0,0.6582431629940402,,149.97335882400512,149.98838847500156,150.972655288002,150.98835598299047,,,,,,,,,,,,,,,,,,,,sub-192,1,stroop_test,60.52666320268667,
,,,,17.0,5.0,1.0,,,,,rot,red,r,1.0,r,1.0,0.4297485150163993,,,,,,,,,,,,,,1.0,5.0,17.0,0.0,,,,,150.98835598299047,,,,,,,,,,,,,,,,,150.972946141992,151.7718842169852,152.57166121900082,152.55553303999477,,,,,,,,,,,,,,,,152.5579838269914,152.57166121900082,152.57166121900082,153.00659206698765,r,1.0,0.4297485150163993,,153.00707302699448,153.02197031799005,154.0056453649886,154.0219067260041,,,,,,,,,,,,,,,,,,,,sub-192,1,stroop_test,60.52666320268667,
,,,,18.0,6.0,1.0,,,,,gelb,yellow,g,1.0,g,1.0,0.3366686189838219,,,,,,,,,,,,,,1.0,6.0,18.0,11.0,,,,,154.0219067260041,,,,,,,,,,,,,,,,,154.00600000598934,154.1220037349849,154.92261189600686,154.9055584029993,,,,,,,,,,,,,,,,154.9083871069888,154.92261189600686,154.92261189600686,155.27280122198863,g,1.0,0.3366686189838219,,155.27323487200192,155.2885302299983,156.27217618600116,156.2886251519958,,,,,,,,,,,,,,,,,,,,sub-192,1,stroop_test,60.52666320268667,
,,,,19.0,7.0,1.0,,,,,blau,red,r,0.0,r,1.0,0.8240802179789171,,,,,,,,,,,,,,1.0,7.0,19.0,4.0,,,,,156.2886251519958,,,,,,,,,,,,,,,,,156.27244733000407,157.4718538679881,158.27196217799792,158.25523783799144,,,,,,,,,,,,,,,,158.25805109500652,158.27196217799792,158.27196217799792,159.1060430019861,r,1.0,0.8240802179789171,,159.10649197199382,159.12182253200444,160.1053431739856,160.12173655300285,,,,,,,,,,,,,,,,,,,,sub-192,1,stroop_test,60.52666320268667,
,,,,20.0,8.0,1.0,,,,,rot,red,r,1.0,r,1.0,0.6172368550032843,,,,,,,,,,,,,,1.0,8.0,20.0,1.0,,,,,160.12173655300285,,,,,,,,,,,,,,,,,160.10572196898283,161.32172874399112,162.12169729499146,162.10525507299462,,,,,,,,,,,,,,,,162.1079671960033,162.12169729499146,162.12169729499146,162.75538429999142,r,1.0,0.6172368550032843,,162.75582749798195,162.77164801899926,163.75522227498004,163.77170110098086,,,,,,,,,,,,,,,,,,,,sub-192,1,stroop_test,60.52666320268667,
,,,,21.0,9.0,1.0,,,,,blau,yellow,g,0.0,g,1.0,0.5825152930046897,,,,,,,,,,,,,,1.0,9.0,21.0,7.0,,,,,163.77170110098086,,,,,,,,,,,,,,,,,163.75553883300745,163.85503206099384,164.65524587000257,164.63866079298896,,,,,,,,,,,,,,,,164.6416135939944,164.65524587000257,164.65524587000257,165.2395558040007,g,1.0,0.5825152930046897,,165.240042016987,165.25536757800728,166.23885521598277,166.25506608499563,,,,,,,,,,,,,,,,,,,,sub-192,1,stroop_test,60.52666320268667,
,,,,22.0,10.0,1.0,,,,,gelb,blue,b,0.0,b,1.0,0.3338857870257925,,,,,,,,,,,,,,1.0,10.0,22.0,9.0,,,,,166.25506608499563,,,,,,,,,,,,,,,,,166.23928132199217,166.58861447000527,167.38871205900796,167.37181694200262,,,,,,,,,,,,,,,,167.37462988999323,167.38871205900796,167.38871205900796,167.7397376220033,b,1.0,0.3338857870257925,,167.74018585198792,167.75541823898675,168.73894137598109,168.75508621899644,,,,,,,,,,,,,,,,,,,,sub-192,1,stroop_test,60.52666320268667,
,,,,23.0,11.0,1.0,,,,,gelb,yellow,g,1.0,g,1.0,0.6864961230021436,,,,,,,,,,,,,,1.0,11.0,23.0,10.0,,,,,168.75508621899644,,,,,,,,,,,,,,,,,168.73935851399438,169.9383097300015,170.73829307299457,170.72207943099784,,,,,,,,,,,,,,,,170.7228662959824,170.73829307299457,170.73829307299457,171.4396519669972,g,1.0,0.6864961230021436,,171.44017188198632,171.4553256839863,172.4386527579918,172.45511768799042,,,,,,,,,,,,,,,,,,,,sub-192,1,stroop_test,60.52666320268667,
,,,,,,,,,,,,,,,,,,,,,,,,,,,,,,,,,,,,,,,,,,,,,,,,,,,,,,,,,,,,,,,,,,,,,,,,,,,,,,,,,,,,,,,172.43877858499764,172.45511768799042,172.45511768799042,190.9229076750053,space,18.45877622300759,,,,,,,,,,,,,,sub-192,1,stroop_test,60.52666320268667,
,,,,0.0,0.0,0.0,,,,,,,,,,,,,rot,red,r,1.0,r,1.0,0.4636419390153605,,,,,,,,,,0.0,0.0,0.0,0.0,190.947762900003,,,,,,,,,,,,,,,,,190.93740780599185,192.12128381198272,192.9218314269965,192.9051665389852,,,,,,,,,,,,,,,,,,,,,,,,,,,,,,,,,,,192.90795990699556,192.9218314269965,192.9218314269965,193.38908656599236,r,1.0,0.4636419390153605,,,,,,sub-192,1,stroop_test,60.52666320268667,
,,,,1.0,1.0,0.0,,,,,,,,,,,,,gelb,blue,b,0.0,b,1.0,1.301096120994771,,,,,,,,,,0.0,1.0,1.0,9.0,193.40468102699376,,,,,,,,,,,,,,,,,193.3894188249833,194.6051645819971,195.4051966209954,195.38842257400395,,,,,,,,,,,,,,,,,,,,,,,,,,,,,,,,,,,195.39123035999364,195.4051966209954,195.4051966209954,196.7225168949808,b,1.0,1.301096120994771,,,,,,sub-192,1,stroop_test,60.52666320268667,
,,,,2.0,2.0,0.0,,,,,,,,,,,,,blau,blue,b,1.0,b,1.0,0.5830134210118558,,,,,,,,,,0.0,2.0,2.0,5.0,196.7378016570001,,,,,,,,,,,,,,,,,196.72283919499023,196.8380694289808,197.63836481099133,197.62166666300615,,,,,,,,,,,,,,,,,,,,,,,,,,,,,,,,,,,197.62465895398051,197.63836481099133,197.63836481099133,198.2228633519844,b,1.0,0.5830134210118558,,,,,,sub-192,1,stroop_test,60.52666320268667,
,,,,3.0,3.0,0.0,,,,,,,,,,,,,blau,blue,b,1.0,b,1.0,0.6043093810149003,,,,,,,,,,0.0,3.0,3.0,6.0,198.2376785299857,,,,,,,,,,,,,,,,,198.22324679800656,199.4381273429899,200.2381370899966,200.22169922100147,,,,,,,,,,,,,,,,,,,,,,,,,,,,,,,,,,,200.2222835010034,200.2381370899966,200.2381370899966,200.8557362369902,b,1.0,0.6043093810149003,,,,,,sub-192,1,stroop_test,60.52666320268667,
,,,,4.0,4.0,0.0,,,,,,,,,,,,,blau,red,r,0.0,r,1.0,0.8130370849976316,,,,,,,,,,0.0,4.0,4.0,4.0,200.8711286409816,,,,,,,,,,,,,,,,,200.85605504200797,201.671351751982,202.4711638779845,202.4547559589846,,,,,,,,,,,,,,,,,,,,,,,,,,,,,,,,,,,202.4553171919833,202.4711638779845,202.4711638779845,203.28895088500576,r,1.0,0.8130370849976316,,,,,,sub-192,1,stroop_test,60.52666320268667,
,,,,5.0,5.0,0.0,,,,,,,,,,,,,gelb,yellow,g,1.0,g,1.0,0.5744368610030506,,,,,,,,,,0.0,5.0,5.0,10.0,203.30433989898305,,,,,,,,,,,,,,,,,203.28926388398395,203.4047215119936,204.2065705989953,204.18836860198644,,,,,,,,,,,,,,,,,,,,,,,,,,,,,,,,,,,204.19182553800056,204.2065705989953,204.2065705989953,204.7890407280065,g,1.0,0.5744368610030506,,,,,,sub-192,1,stroop_test,60.52666320268667,
,,,,6.0,6.0,0.0,,,,,,,,,,,,,blau,yellow,g,0.0,g,1.0,0.5429015240224544,,,,,,,,,,0.0,6.0,6.0,7.0,204.80441297299691,,,,,,,,,,,,,,,,,204.7893669609912,205.1379460110038,205.9380543300067,205.9212265649985,,,,,,,,,,,,,,,,,,,,,,,,,,,,,,,,,,,205.9241490550048,205.9380543300067,205.9380543300067,206.4890743909928,g,1.0,0.5429015240224544,,,,,,sub-192,1,stroop_test,60.52666320268667,
,,,,7.0,7.0,0.0,,,,,,,,,,,,,rot,red,r,1.0,r,1.0,0.4766661129833665,,,,,,,,,,0.0,7.0,7.0,1.0,206.50436572698527,,,,,,,,,,,,,,,,,206.4893868289946,207.3046163159888,208.10527054499835,208.0882523659966,,,,,,,,,,,,,,,,,,,,,,,,,,,,,,,,,,,208.0910507529916,208.10527054499835,208.10527054499835,208.5891550059896,r,1.0,0.4766661129833665,,,,,,sub-192,1,stroop_test,60.52666320268667,
,,,,8.0,8.0,0.0,,,,,,,,,,,,,gelb,yellow,g,1.0,g,1.0,0.4183282690064516,,,,,,,,,,0.0,8.0,8.0,11.0,208.60454191698227,,,,,,,,,,,,,,,,,208.5894646749948,209.80447092300165,210.60461393298465,210.5881672049873,,,,,,,,,,,,,,,,,,,,,,,,,,,,,,,,,,,210.5909786440025,210.60461393298465,210.60461393298465,211.03841475900845,g,1.0,0.4183282690064516,,,,,,sub-192,1,stroop_test,60.52666320268667,
,,,,9.0,9.0,0.0,,,,,,,,,,,,,rot,blue,b,0.0,b,1.0,0.4505438120104372,,,,,,,,,,0.0,9.0,9.0,2.0,211.05424851400312,,,,,,,,,,,,,,,,,211.03879317099927,211.3877107439912,212.18819349299883,212.17147026298332,,,,,,,,,,,,,,,,,,,,,,,,,,,,,,,,,,,212.17427719998523,212.18819349299883,212.18819349299883,212.6549604829925,b,1.0,0.4505438120104372,,,,,,sub-192,1,stroop_test,60.52666320268667,
,,,,10.0,10.0,0.0,,,,,,,,,,,,,rot,yellow,g,0.0,g,1.0,0.7016149859991856,,,,,,,,,,0.0,10.0,10.0,3.0,212.6709509170032,,,,,,,,,,,,,,,,,212.65533542100457,213.8545064739883,214.65415907098213,214.6378619809984,,,,,,,,,,,,,,,,,,,,,,,,,,,,,,,,,,,214.63844576699196,214.65415907098213,214.65415907098213,215.3714582420071,g,1.0,0.7016149859991856,,,,,,sub-192,1,stroop_test,60.52666320268667,
,,,,11.0,11.0,0.0,,,,,,,,,,,,,gelb,red,r,0.0,r,1.0,0.7170182880072389,,,,,,,,,,0.0,11.0,11.0,8.0,215.38741589998244,,,,,,,,,,,,,,,,,215.37182841499447,215.47114393900847,216.27161807598893,216.25449971400667,,,,,,,,,,,,,,,,,,,,,,,,,,,,,,,,,,,216.2584572570049,216.27161807598893,216.27161807598893,217.00544139399423,r,1.0,0.7170182880072389,,,,,,sub-192,1,stroop_test,60.52666320268667,
,,,,12.0,0.0,1.0,,,,,,,,,,,,,gelb,yellow,g,1.0,g,1.0,0.6038359669910278,,,,,,,,,,1.0,0.0,12.0,11.0,217.02096911598343,,,,,,,,,,,,,,,,,217.00575314598973,217.8211557019968,218.6211143209948,218.6046216739924,,,,,,,,,,,,,,,,,,,,,,,,,,,,,,,,,,,218.6052081039816,218.6211143209948,218.6211143209948,219.23871226600025,g,1.0,0.6038359669910278,,,,,,sub-192,1,stroop_test,60.52666320268667,
,,,,13.0,1.0,1.0,,,,,,,,,,,,,gelb,blue,b,0.0,r,0.0,0.4922996209934354,,,,,,,,,,1.0,1.0,13.0,9.0,219.25429702800463,,,,,,,,,,,,,,,,,219.23903709999288,220.0378047050035,220.83742069799337,220.82097003998933,,,,,,,,,,,,,,,,,,,,,,,,,,,,,,,,,,,220.82138434099036,220.83742069799337,220.83742069799337,221.33841141100856,r,0.0,0.4922996209934354,,,,,,sub-192,1,stroop_test,60.52666320268667,
,,,,14.0,2.0,1.0,,,,,,,,,,,,,rot,red,r,1.0,r,1.0,0.6597840079921298,,,,,,,,,,1.0,2.0,14.0,1.0,221.35418384199147,,,,,,,,,,,,,,,,,221.33871192898368,222.15433536699857,222.95465909998163,222.93801484198772,,,,,,,,,,,,,,,,,,,,,,,,,,,,,,,,,,,222.94080075298552,222.95465909998163,222.95465909998163,223.62205689199615,r,1.0,0.6597840079921298,,,,,,sub-192,1,stroop_test,60.52666320268667,
,,,,15.0,3.0,1.0,,,,,,,,,,,,,blau,blue,b,1.0,b,1.0,0.5717301669938024,,,,,,,,,,1.0,3.0,15.0,5.0,223.6375833149941,,,,,,,,,,,,,,,,,223.6223694079963,224.82141847800813,225.62206108498503,225.60497093800225,,,,,,,,,,,,,,,,,,,,,,,,,,,,,,,,,,,225.60783701599576,225.62206108498503,225.62206108498503,226.20570799298,b,1.0,0.5717301669938024,,,,,,sub-192,1,stroop_test,60.52666320268667,
,,,,16.0,4.0,1.0,,,,,,,,,,,,,rot,blue,b,0.0,b,1.0,0.3157819930056575,,,,,,,,,,1.0,4.0,16.0,2.0,226.22117707898724,,,,,,,,,,,,,,,,,226.20603141200263,227.42480191000504,228.23845574699223,228.22130605598795,,,,,,,,,,,,,,,,,,,,,,,,,,,,,,,,,,,228.22370230898375,228.23845574699223,228.23845574699223,228.5719914859801,b,1.0,0.3157819930056575,,,,,,sub-192,1,stroop_test,60.52666320268667,
,,,,17.0,5.0,1.0,,,,,,,,,,,,,blau,blue,b,1.0,b,1.0,0.470772761007538,,,,,,,,,,1.0,5.0,17.0,6.0,228.5876099889865,,,,,,,,,,,,,,,,,228.57232614399985,228.688356817991,229.4888102489931,229.4716394559946,,,,,,,,,,,,,,,,,,,,,,,,,,,,,,,,,,,229.47448710000023,229.4888102489931,229.4888102489931,229.97246809198987,b,1.0,0.470772761007538,,,,,,sub-192,1,stroop_test,60.52666320268667,
,,,,18.0,6.0,1.0,,,,,,,,,,,,,blau,yellow,g,0.0,g,1.0,0.5555023810011335,,,,,,,,,,1.0,6.0,18.0,7.0,229.9881786830083,,,,,,,,,,,,,,,,,229.9728929619887,230.08779583399885,230.8878923339944,230.87151780098796,,,,,,,,,,,,,,,,,,,,,,,,,,,,,,,,,,,230.87200087000383,230.8878923339944,230.8878923339944,231.45588449199568,g,1.0,0.5555023810011335,,,,,,sub-192,1,stroop_test,60.52666320268667,
,,,,19.0,7.0,1.0,,,,,,,,,,,,,rot,yellow,g,0.0,g,1.0,0.4002193500055,,,,,,,,,,1.0,7.0,19.0,3.0,231.4711848679872,,,,,,,,,,,,,,,,,231.4562526269874,232.67120407699255,233.4718877520063,233.4548201650032,,,,,,,,,,,,,,,,,,,,,,,,,,,,,,,,,,,233.4574561610061,233.4718877520063,233.4718877520063,233.88899524899895,g,1.0,0.4002193500055,,,,,,sub-192,1,stroop_test,60.52666320268667,
,,,,20.0,8.0,1.0,,,,,,,,,,,,,rot,red,r,1.0,r,1.0,0.4755910800013225,,,,,,,,,,1.0,8.0,20.0,0.0,233.90444410199416,,,,,,,,,,,,,,,,,233.8893190640083,234.25461658998395,235.0545871509821,235.03821409598456,,,,,,,,,,,,,,,,,,,,,,,,,,,,,,,,,,,235.03887175698765,235.0545871509821,235.0545871509821,235.5386664950056,r,1.0,0.4755910800013225,,,,,,sub-192,1,stroop_test,60.52666320268667,
,,,,21.0,9.0,1.0,,,,,,,,,,,,,gelb,yellow,g,1.0,g,1.0,0.5313568029960152,,,,,,,,,,1.0,9.0,21.0,10.0,235.5545906680054,,,,,,,,,,,,,,,,,235.53897414798848,235.6379854499828,236.4388729509956,236.4215384249983,,,,,,,,,,,,,,,,,,,,,,,,,,,,,,,,,,,236.4249042699812,236.4388729509956,236.4388729509956,236.9727867539914,g,1.0,0.5313568029960152,,,,,,sub-192,1,stroop_test,60.52666320268667,
,,,,22.0,10.0,1.0,,,,,,,,,,,,,blau,red,r,0.0,r,1.0,0.6320324600092135,,,,,,,,,,1.0,10.0,22.0,4.0,236.9878668320016,,,,,,,,,,,,,,,,,236.9732598529954,238.18776987798628,238.98806713399244,238.97102002499744,,,,,,,,,,,,,,,,,,,,,,,,,,,,,,,,,,,238.9733325779962,238.98806713399244,238.98806713399244,239.6221191479999,r,1.0,0.6320324600092135,,,,,,sub-192,1,stroop_test,60.52666320268667,
,,,,23.0,11.0,1.0,,,,,,,,,,,,,gelb,red,r,0.0,r,1.0,0.3372290850093122,,,,,,,,,,1.0,11.0,23.0,8.0,239.63786827700096,,,,,,,,,,,,,,,,,239.62249979699843,239.98780004499716,240.78805066499623,240.7714125099883,,,,,,,,,,,,,,,,,,,,,,,,,,,,,,,,,,,240.7737271799997,240.78805066499623,240.78805066499623,241.13889170298356,r,1.0,0.3372290850093122,,,,,,sub-192,1,stroop_test,60.52666320268667,
,,,,24.0,0.0,2.0,,,,,,,,,,,,,blau,blue,b,1.0,b,1.0,0.5607831619854551,,,,,,,,,,2.0,0.0,24.0,6.0,241.15439234499357,,,,,,,,,,,,,,,,,241.13921041198773,241.5045072089997,242.3061402589956,242.2878651790088,,,,,,,,,,,,,,,,,,,,,,,,,,,,,,,,,,,242.29143286598264,242.3061402589956,242.3061402589956,242.8719489070063,b,1.0,0.5607831619854551,,,,,,sub-192,1,stroop_test,60.52666320268667,
,,,,25.0,1.0,2.0,,,,,,,,,,,,,blau,yellow,g,0.0,g,1.0,0.6320267089759,,,,,,,,,,2.0,1.0,25.0,7.0,242.88781037399892,,,,,,,,,,,,,,,,,242.872423466004,243.6874445349968,244.4874237269978,244.4710271859949,,,,,,,,,,,,,,,,,,,,,,,,,,,,,,,,,,,244.47161674700328,244.4874237269978,244.4874237269978,245.1214488699916,g,1.0,0.6320267089759,,,,,,sub-192,1,stroop_test,60.52666320268667,
,,,,26.0,2.0,2.0,,,,,,,,,,,,,gelb,yellow,g,1.0,g,1.0,0.2830690240080002,,,,,,,,,,2.0,2.0,26.0,10.0,245.137254811998,,,,,,,,,,,,,,,,,245.12181578899617,245.92070378299104,246.7208905550069,246.70418315098505,,,,,,,,,,,,,,,,,,,,,,,,,,,,,,,,,,,246.7068451369996,246.7208905550069,246.7208905550069,247.00517586799103,g,1.0,0.2830690240080002,,,,,,sub-192,1,stroop_test,60.52666320268667,
,,,,27.0,3.0,2.0,,,,,,,,,,,,,gelb,yellow,g,1.0,g,1.0,0.4829652979969978,,,,,,,,,,2.0,3.0,27.0,11.0,247.0206041689962,,,,,,,,,,,,,,,,,247.0055737060029,247.370499844983,248.1706946659833,248.15423868998187,,,,,,,,,,,,,,,,,,,,,,,,,,,,,,,,,,,248.15473427798133,248.1706946659833,248.1706946659833,248.67170609498865,g,1.0,0.4829652979969978,,,,,,sub-192,1,stroop_test,60.52666320268667,
,,,,28.0,4.0,2.0,,,,,,,,,,,,,blau,blue,b,1.0,b,1.0,0.5014459060039371,,,,,,,,,,2.0,4.0,28.0,5.0,248.6869437499845,,,,,,,,,,,,,,,,,248.6720358360035,249.0207223930047,249.82129166199596,249.80437921499836,,,,,,,,,,,,,,,,,,,,,,,,,,,,,,,,,,,249.80718322499888,249.82129166199596,249.82129166199596,250.3381727770029,b,1.0,0.5014459060039371,,,,,,sub-192,1,stroop_test,60.52666320268667,
,,,,29.0,5.0,2.0,,,,,,,,,,,,,blau,red,r,0.0,r,1.0,0.5328610180004034,,,,,,,,,,2.0,5.0,29.0,4.0,250.35374326998132,,,,,,,,,,,,,,,,,250.33854530600365,251.53743511700304,252.33706731599523,252.320989305008,,,,,,,,,,,,,,,,,,,,,,,,,,,,,,,,,,,252.3215748340008,252.33706731599523,252.33706731599523,252.87174997699915,r,1.0,0.5328610180004034,,,,,,sub-192,1,stroop_test,60.52666320268667,
,,,,30.0,6.0,2.0,,,,,,,,,,,,,rot,red,r,1.0,r,1.0,0.4160795009811409,,,,,,,,,,2.0,6.0,30.0,0.0,252.8869027539913,,,,,,,,,,,,,,,,,252.8721239790029,254.08711919598863,254.8876590039872,254.8707449020003,,,,,,,,,,,,,,,,,,,,,,,,,,,,,,,,,,,254.8740854469943,254.8876590039872,254.8876590039872,255.30497029298567,r,1.0,0.4160795009811409,,,,,,sub-192,1,stroop_test,60.52666320268667,
,,,,31.0,7.0,2.0,,,,,,,,,,,,,rot,yellow,g,0.0,r,0.0,0.4109213369956705,,,,,,,,,,2.0,7.0,31.0,3.0,255.3205737069948,,,,,,,,,,,,,,,,,255.3053913539916,256.12067097300314,256.92058657700545,256.9042299400025,,,,,,,,,,,,,,,,,,,,,,,,,,,,,,,,,,,256.90481891998206,256.92058657700545,256.92058657700545,257.3385822599812,r,0.0,0.4109213369956705,,,,,,sub-192,1,stroop_test,60.52666320268667,
,,,,32.0,8.0,2.0,,,,,,,,,,,,,gelb,red,r,0.0,r,1.0,0.7319827149913181,,,,,,,,,,2.0,8.0,32.0,8.0,257.35387670400087,,,,,,,,,,,,,,,,,257.33888720299,257.4541586819978,258.25424473700696,258.23748975998024,,,,,,,,,,,,,,,,,,,,,,,,,,,,,,,,,,,258.2402858799905,258.25424473700696,258.25424473700696,258.9881872389815,r,1.0,0.7319827149913181,,,,,,sub-192,1,stroop_test,60.52666320268667,
,,,,33.0,9.0,2.0,,,,,,,,,,,,,rot,red,r,1.0,r,1.0,0.5556978739914484,,,,,,,,,,2.0,9.0,33.0,1.0,259.0039851760084,,,,,,,,,,,,,,,,,258.9885406589892,259.33717130700825,260.1369800819957,260.1205314240069,,,,,,,,,,,,,,,,,,,,,,,,,,,,,,,,,,,260.1231514649989,260.1369800819957,260.1369800819957,260.70510933798505,r,1.0,0.5556978739914484,,,,,,sub-192,1,stroop_test,60.52666320268667,
,,,,34.0,10.0,2.0,,,,,,,,,,,,,rot,blue,b,0.0,b,1.0,0.6618620869994629,,,,,,,,,,2.0,10.0,34.0,2.0,260.72073043198907,,,,,,,,,,,,,,,,,260.7054326350044,261.07079393800814,261.870599619986,261.85413320199586,,,,,,,,,,,,,,,,,,,,,,,,,,,,,,,,,,,261.85474233099376,261.870599619986,261.870599619986,262.5382989849895,b,1.0,0.6618620869994629,,,,,,sub-192,1,stroop_test,60.52666320268667,
,,,,35.0,11.0,2.0,,,,,,,,,,,,,gelb,blue,b,0.0,b,1.0,0.383751948014833,,,,,,,,,,2.0,11.0,35.0,9.0,262.55384434200823,,,,,,,,,,,,,,,,,262.5386684819823,262.90388485899894,263.70427116099745,263.68750959198223,,,,,,,,,,,,,,,,,,,,,,,,,,,,,,,,,,,263.690347006981,263.70427116099745,263.70427116099745,264.10453040499124,b,1.0,0.383751948014833,,,,,,sub-192,1,stroop_test,60.52666320268667,
,,,,36.0,0.0,3.0,,,,,,,,,,,,,rot,red,r,1.0,r,1.0,0.5425877119996585,,,,,,,,,,3.0,0.0,36.0,1.0,264.12025706400163,,,,,,,,,,,,,,,,,264.10483727400424,265.3035310319974,266.1034504319832,266.0869337650074,,,,,,,,,,,,,,,,,,,,,,,,,,,,,,,,,,,266.0894294680038,266.1034504319832,266.1034504319832,266.65437075699447,r,1.0,0.5425877119996585,,,,,,sub-192,1,stroop_test,60.52666320268667,
,,,,37.0,1.0,3.0,,,,,,,,,,,,,rot,blue,b,0.0,b,1.0,0.5769777789828368,,,,,,,,,,3.0,1.0,37.0,2.0,266.6699932240008,,,,,,,,,,,,,,,,,266.6547017490084,267.0200061649957,267.81995308498153,267.8035773099982,,,,,,,,,,,,,,,,,,,,,,,,,,,,,,,,,,,267.80399251700146,267.81995308498153,267.81995308498153,268.4046627180069,b,1.0,0.5769777789828368,,,,,,sub-192,1,stroop_test,60.52666320268667,
,,,,38.0,2.0,3.0,,,,,,,,,,,,,gelb,yellow,g,1.0,g,1.0,0.3476769539993256,,,,,,,,,,3.0,2.0,38.0,11.0,268.4199904809939,,,,,,,,,,,,,,,,,268.4050043830066,269.219984580006,270.02114314198843,270.0038026639959,,,,,,,,,,,,,,,,,,,,,,,,,,,,,,,,,,,270.007106398989,270.02114314198843,270.02114314198843,270.37105721299304,g,1.0,0.3476769539993256,,,,,,sub-192,1,stroop_test,60.52666320268667,
,,,,39.0,3.0,3.0,,,,,,,,,,,,,blau,blue,b,1.0,b,1.0,0.5079020530101843,,,,,,,,,,3.0,3.0,39.0,6.0,270.3865058439842,,,,,,,,,,,,,,,,,270.3715361240029,270.7365389519837,271.5369495569903,271.5200361300085,,,,,,,,,,,,,,,,,,,,,,,,,,,,,,,,,,,271.5231006880058,271.5369495569903,271.5369495569903,272.05434237999725,b,1.0,0.5079020530101843,,,,,,sub-192,1,stroop_test,60.52666320268667,
,,,,40.0,4.0,3.0,,,,,,,,,,,,,rot,yellow,g,0.0,g,1.0,0.426023322972469,,,,,,,,,,3.0,4.0,40.0,3.0,272.0699689949979,,,,,,,,,,,,,,,,,272.0546845549834,272.41984224299085,273.2197795620013,273.20350072998554,,,,,,,,,,,,,,,,,,,,,,,,,,,,,,,,,,,273.2059079759929,273.2197795620013,273.2197795620013,273.6544376490056,g,1.0,0.426023322972469,,,,,,sub-192,1,stroop_test,60.52666320268667,
,,,,41.0,5.0,3.0,,,,,,,,,,,,,rot,red,r,1.0,r,1.0,0.5576676990021951,,,,,,,,,,3.0,5.0,41.0,0.0,273.6698445699876,,,,,,,,,,,,,,,,,273.6547492959944,274.0034507169912,274.8034086349944,274.7870110399963,,,,,,,,,,,,,,,,,,,,,,,,,,,,,,,,,,,274.78759490000084,274.8034086349944,274.8034086349944,275.37088812,r,1.0,0.5576676990021951,,,,,,sub-192,1,stroop_test,60.52666320268667,
,,,,42.0,6.0,3.0,,,,,,,,,,,,,gelb,blue,b,0.0,b,1.0,0.4423390350129921,,,,,,,,,,3.0,6.0,42.0,9.0,275.386633807997,,,,,,,,,,,,,,,,,275.37120476498967,276.1700609819964,276.9705085119931,276.95404517799034,,,,,,,,,,,,,,,,,,,,,,,,,,,,,,,,,,,276.95674722999684,276.9705085119931,276.9705085119931,277.42114460098674,b,1.0,0.4423390350129921,,,,,,sub-192,1,stroop_test,60.52666320268667,
,,,,43.0,7.0,3.0,,,,,,,,,,,,,blau,red,r,0.0,g,0.0,0.5867004129977431,,,,,,,,,,3.0,7.0,43.0,4.0,277.4363846539927,,,,,,,,,,,,,,,,,277.4214648449852,277.52008116198704,278.3204490149801,278.30377648200374,,,,,,,,,,,,,,,,,,,,,,,,,,,,,,,,,,,278.306605130987,278.3204490149801,278.3204490149801,278.9206983569893,g,0.0,0.5867004129977431,,,,,,sub-192,1,stroop_test,60.52666320268667,
,,,,44.0,8.0,3.0,,,,,,,,,,,,,blau,yellow,g,0.0,g,1.0,0.8039552480040584,,,,,,,,,,3.0,8.0,44.0,7.0,278.9366772499925,,,,,,,,,,,,,,,,,278.9210200700036,280.1199745649937,280.92000455298694,280.90373359198566,,,,,,,,,,,,,,,,,,,,,,,,,,,,,,,,,,,280.9043455880019,280.92000455298694,280.92000455298694,281.7372725830064,g,1.0,0.8039552480040584,,,,,,sub-192,1,stroop_test,60.52666320268667,
,,,,45.0,9.0,3.0,,,,,,,,,,,,,gelb,red,r,0.0,r,1.0,0.4966921720188111,,,,,,,,,,3.0,9.0,45.0,8.0,281.7529822590004,,,,,,,,,,,,,,,,,281.7375862269837,282.5368848920043,283.3370138219907,283.3203789840045,,,,,,,,,,,,,,,,,,,,,,,,,,,,,,,,,,,283.32324208298814,283.3370138219907,283.3370138219907,283.8379818789836,r,1.0,0.4966921720188111,,,,,,sub-192,1,stroop_test,60.52666320268667,
,,,,46.0,10.0,3.0,,,,,,,,,,,,,gelb,yellow,g,1.0,g,1.0,0.629469372011954,,,,,,,,,,3.0,10.0,46.0,10.0,283.8533629830053,,,,,,,,,,,,,,,,,283.838300665986,284.2032958639902,285.003233394993,284.98704113200074,,,,,,,,,,,,,,,,,,,,,,,,,,,,,,,,,,,284.98754877000465,285.003233394993,285.003233394993,285.6378493139928,g,1.0,0.629469372011954,,,,,,sub-192,1,stroop_test,60.52666320268667,
,,,,47.0,11.0,3.0,,,,,,,,,,,,,blau,blue,b,1.0,b,1.0,0.6298549679922871,,,,,,,,,,3.0,11.0,47.0,5.0,285.65338037200854,,,,,,,,,,,,,,,,,285.63823986798525,286.8534332769923,287.6536528169818,287.6369993829867,,,,,,,,,,,,,,,,,,,,,,,,,,,,,,,,,,,287.6398443779908,287.6536528169818,287.6536528169818,288.28775121999206,b,1.0,0.6298549679922871,,,,,,sub-192,1,stroop_test,60.52666320268667,
,,,,48.0,0.0,4.0,,,,,,,,,,,,,blau,blue,b,1.0,b,1.0,0.6574261180066969,,,,,,,,,,4.0,0.0,48.0,6.0,288.3032987229817,,,,,,,,,,,,,,,,,288.2881669749913,289.5037026659993,290.30293746100506,290.28714430099353,,,,,,,,,,,,,,,,,,,,,,,,,,,,,,,,,,,290.287629095983,290.30293746100506,290.30293746100506,290.970601057983,b,1.0,0.6574261180066969,,,,,,sub-192,1,stroop_test,60.52666320268667,
,,,,49.0,1.0,4.0,,,,,,,,,,,,,rot,red,r,1.0,r,1.0,0.8381503639975563,,,,,,,,,,4.0,1.0,49.0,1.0,290.9863629769825,,,,,,,,,,,,,,,,,290.9709109799878,291.76993399098865,292.5705196589988,292.5536904069886,,,,,,,,,,,,,,,,,,,,,,,,,,,,,,,,,,,292.5567909659876,292.5705196589988,292.5705196589988,293.420565006003,r,1.0,0.8381503639975563,,,,,,sub-192,1,stroop_test,60.52666320268667,
,,,,50.0,2.0,4.0,,,,,,,,,,,,,gelb,blue,b,0.0,b,1.0,0.6811214069894049,,,,,,,,,,4.0,2.0,50.0,9.0,293.43702225299785,,,,,,,,,,,,,,,,,293.4208767210075,293.7698082139832,294.57010596300825,294.55352063998,,,,,,,,,,,,,,,,,,,,,,,,,,,,,,,,,,,294.5562823090004,294.57010596300825,294.57010596300825,295.254357658996,b,1.0,0.6811214069894049,,,,,,sub-192,1,stroop_test,60.52666320268667,
,,,,51.0,3.0,4.0,,,,,,,,,,,,,blau,yellow,g,0.0,g,1.0,0.9295316179923248,,,,,,,,,,4.0,3.0,51.0,7.0,295.2700753569952,,,,,,,,,,,,,,,,,295.25470850398415,295.6198166429822,296.4198330359941,296.4036491549923,,,,,,,,,,,,,,,,,,,,,,,,,,,,,,,,,,,296.40616778700496,296.4198330359941,296.4198330359941,297.3542829749931,g,1.0,0.9295316179923248,,,,,,sub-192,1,stroop_test,60.52666320268667,
,,,,52.0,4.0,4.0,,,,,,,,,,,,,gelb,red,r,0.0,r,1.0,0.57316359700053,,,,,,,,,,4.0,4.0,52.0,8.0,297.3695394140086,,,,,,,,,,,,,,,,,297.3545891880058,297.7196622939955,298.51990523698623,298.50333380600205,,,,,,,,,,,,,,,,,,,,,,,,,,,,,,,,,,,298.5061783219862,298.51990523698623,298.51990523698623,299.1038864830043,r,1.0,0.57316359700053,,,,,,sub-192,1,stroop_test,60.52666320268667,
,,,,53.0,5.0,4.0,,,,,,,,,,,,,rot,blue,b,0.0,b,1.0,0.7828590479912236,,,,,,,,,,4.0,5.0,53.0,2.0,299.1195836289844,,,,,,,,,,,,,,,,,299.10427693399834,299.20290766400285,300.00336267999955,299.9867723089992,,,,,,,,,,,,,,,,,,,,,,,,,,,,,,,,,,,299.9895360429946,300.00336267999955,300.00336267999955,300.7876151060045,b,1.0,0.7828590479912236,,,,,,sub-192,1,stroop_test,60.52666320268667,
,,,,54.0,6.0,4.0,,,,,,,,,,,,,blau,blue,b,1.0,b,1.0,0.596800113999052,,,,,,,,,,4.0,6.0,54.0,5.0,300.8027138139878,,,,,,,,,,,,,,,,,300.78798495899537,301.1531307080004,301.95326315198326,301.936754172988,,,,,,,,,,,,,,,,,,,,,,,,,,,,,,,,,,,301.93930335799814,301.95326315198326,301.95326315198326,302.554386792006,b,1.0,0.596800113999052,,,,,,sub-192,1,stroop_test,60.52666320268667,
,,,,55.0,7.0,4.0,,,,,,,,,,,,,blau,red,r,0.0,r,1.0,0.5191884789965115,,,,,,,,,,4.0,7.0,55.0,4.0,302.56930070000817,,,,,,,,,,,,,,,,,302.5548346969881,303.76980908898986,304.5698689940036,304.5534549409931,,,,,,,,,,,,,,,,,,,,,,,,,,,,,,,,,,,304.5540645800065,304.5698689940036,304.5698689940036,305.1037476079946,r,1.0,0.5191884789965115,,,,,,sub-192,1,stroop_test,60.52666320268667,
,,,,56.0,8.0,4.0,,,,,,,,,,,,,rot,yellow,g,0.0,g,1.0,0.5992171769903507,,,,,,,,,,4.0,8.0,56.0,3.0,305.119420907984,,,,,,,,,,,,,,,,,305.1040854199964,306.30332408699905,307.1045317389944,307.0868955400074,,,,,,,,,,,,,,,,,,,,,,,,,,,,,,,,,,,307.0899690829974,307.1045317389944,307.1045317389944,307.72026872000424,g,1.0,0.5992171769903507,,,,,,sub-192,1,stroop_test,60.52666320268667,
,,,,57.0,9.0,4.0,,,,,,,,,,,,,gelb,yellow,g,1.0,g,1.0,0.4093081419996451,,,,,,,,,,4.0,9.0,57.0,10.0,307.736249560985,,,,,,,,,,,,,,,,,307.7205865099968,307.8195015609963,308.6204450329824,308.60352769398014,,,,,,,,,,,,,,,,,,,,,,,,,,,,,,,,,,,308.60648658298305,308.6204450329824,308.6204450329824,309.03793663400575,g,1.0,0.4093081419996451,,,,,,sub-192,1,stroop_test,60.52666320268667,
,,,,58.0,10.0,4.0,,,,,,,,,,,,,rot,red,r,1.0,r,1.0,0.5092173329903744,,,,,,,,,,4.0,10.0,58.0,0.0,309.05284184400807,,,,,,,,,,,,,,,,,309.0382560789876,309.4032868309878,310.2034791850019,310.1867143730051,,,,,,,,,,,,,,,,,,,,,,,,,,,,,,,,,,,310.1894954239833,310.2034791850019,310.2034791850019,310.7209481050086,r,1.0,0.5092173329903744,,,,,,sub-192,1,stroop_test,60.52666320268667,
,,,,59.0,11.0,4.0,,,,,,,,,,,,,gelb,yellow,g,1.0,g,1.0,0.626594720990397,,,,,,,,,,4.0,11.0,59.0,11.0,310.73650008198456,,,,,,,,,,,,,,,,,310.7212583759974,310.8365335819836,311.637005416007,311.62069421299384,,,,,,,,,,,,,,,,,,,,,,,,,,,,,,,,,,,311.62292038000305,311.637005416007,311.637005416007,312.270865597995,g,1.0,0.626594720990397,,,,,,sub-192,1,stroop_test,60.52666320268667,
,,,,60.0,0.0,5.0,,,,,,,,,,,,,blau,blue,b,1.0,b,1.0,0.5372080350061879,,,,,,,,,,5.0,0.0,60.0,5.0,312.2865797090053,,,,,,,,,,,,,,,,,312.2711708259885,312.63649799500126,313.4368239149917,313.42015512500075,,,,,,,,,,,,,,,,,,,,,,,,,,,,,,,,,,,313.42298480900354,313.4368239149917,313.4368239149917,313.9872637850058,b,1.0,0.5372080350061879,,,,,,sub-192,1,stroop_test,60.52666320268667,
,,,,61.0,1.0,5.0,,,,,,,,,,,,,gelb,blue,b,0.0,b,1.0,0.3119051660178229,,,,,,,,,,5.0,1.0,61.0,9.0,314.0031013980042,,,,,,,,,,,,,,,,,313.98762256800546,314.78655877299025,315.5869125039899,315.570280874992,,,,,,,,,,,,,,,,,,,,,,,,,,,,,,,,,,,315.57315412699245,315.5869125039899,315.5869125039899,315.90420697198715,b,1.0,0.3119051660178229,,,,,,sub-192,1,stroop_test,60.52666320268667,
,,,,62.0,2.0,5.0,,,,,,,,,,,,,blau,red,r,0.0,r,1.0,0.4615789479867089,,,,,,,,,,5.0,2.0,62.0,4.0,315.91980175100616,,,,,,,,,,,,,,,,,315.90451593499165,316.01945697300835,316.8201681629871,316.8033856760012,,,,,,,,,,,,,,,,,,,,,,,,,,,,,,,,,,,316.80614783000783,316.8201681629871,316.8201681629871,317.2875557770021,r,1.0,0.4615789479867089,,,,,,sub-192,1,stroop_test,60.52666320268667,
,,,,63.0,3.0,5.0,,,,,,,,,,,,,gelb,red,r,0.0,r,1.0,0.4491593480051961,,,,,,,,,,5.0,3.0,63.0,8.0,317.3031110939919,,,,,,,,,,,,,,,,,317.2879058989929,318.5028686459991,319.3036717780051,319.2867898310069,,,,,,,,,,,,,,,,,,,,,,,,,,,,,,,,,,,319.2896204979916,319.3036717780051,319.3036717780051,319.7542590170051,r,1.0,0.4491593480051961,,,,,,sub-192,1,stroop_test,60.52666320268667,
,,,,64.0,4.0,5.0,,,,,,,,,,,,,blau,blue,b,1.0,g,0.0,0.5216664600011427,,,,,,,,,,5.0,4.0,64.0,6.0,319.7697558789805,,,,,,,,,,,,,,,,,319.7546659359941,320.9696928850026,321.7701092019852,321.7532116469811,,,,,,,,,,,,,,,,,,,,,,,,,,,,,,,,,,,321.75600066798506,321.7701092019852,321.7701092019852,322.3041883340047,g,0.0,0.5216664600011427,,,,,,sub-192,1,stroop_test,60.52666320268667,
,,,,65.0,5.0,5.0,,,,,,,,,,,,,rot,red,r,1.0,r,1.0,0.6526959809998516,,,,,,,,,,5.0,5.0,65.0,1.0,322.31952295600786,,,,,,,,,,,,,,,,,322.3045052870002,323.1197534579842,323.91982925200136,323.9033241209981,,,,,,,,,,,,,,,,,,,,,,,,,,,,,,,,,,,323.9060383029864,323.91982925200136,323.91982925200136,324.5871885899978,r,1.0,0.6526959809998516,,,,,,sub-192,1,stroop_test,60.52666320268667,
,,,,66.0,6.0,5.0,,,,,,,,,,,,,blau,yellow,g,0.0,g,1.0,0.6720540380047169,,,,,,,,,,5.0,6.0,66.0,7.0,324.60306840299745,,,,,,,,,,,,,,,,,324.5875079630059,324.6867020420032,325.486595372,325.4699893689831,,,,,,,,,,,,,,,,,,,,,,,,,,,,,,,,,,,325.472721395985,325.486595372,325.486595372,326.1711004730023,g,1.0,0.6720540380047169,,,,,,sub-192,1,stroop_test,60.52666320268667,
,,,,67.0,7.0,5.0,,,,,,,,,,,,,rot,blue,b,0.0,b,1.0,0.7384103340154979,,,,,,,,,,5.0,7.0,67.0,2.0,326.1865688620019,,,,,,,,,,,,,,,,,326.1714165379817,326.5366689930088,327.33717643099953,327.3202647719881,,,,,,,,,,,,,,,,,,,,,,,,,,,,,,,,,,,327.32301561298664,327.33717643099953,327.33717643099953,328.0876995649887,b,1.0,0.7384103340154979,,,,,,sub-192,1,stroop_test,60.52666320268667,
,,,,68.0,8.0,5.0,,,,,,,,,,,,,gelb,yellow,g,1.0,g,1.0,0.6154450809990522,,,,,,,,,,5.0,8.0,68.0,10.0,328.1032003989967,,,,,,,,,,,,,,,,,328.0880801519961,328.1867142909905,328.98680974400486,328.9699698929908,,,,,,,,,,,,,,,,,,,,,,,,,,,,,,,,,,,328.97247726499336,328.98680974400486,328.98680974400486,329.60421669099014,g,1.0,0.6154450809990522,,,,,,sub-192,1,stroop_test,60.52666320268667,
,,,,69.0,9.0,5.0,,,,,,,,,,,,,gelb,yellow,g,1.0,g,1.0,0.4132985709875356,,,,,,,,,,5.0,9.0,69.0,11.0,329.6196566379804,,,,,,,,,,,,,,,,,329.6045437459834,329.72044256099616,330.5199520129827,330.5033941459842,,,,,,,,,,,,,,,,,,,,,,,,,,,,,,,,,,,330.50394361498184,330.5199520129827,330.5199520129827,330.9373767100042,g,1.0,0.4132985709875356,,,,,,sub-192,1,stroop_test,60.52666320268667,
,,,,70.0,10.0,5.0,,,,,,,,,,,,,rot,yellow,g,0.0,g,1.0,0.3928596879995893,,,,,,,,,,5.0,10.0,70.0,3.0,330.9528862889856,,,,,,,,,,,,,,,,,330.9377471600019,331.28657828000723,332.0873028099886,332.07023514198954,,,,,,,,,,,,,,,,,,,,,,,,,,,,,,,,,,,332.0729291650059,332.0873028099886,332.0873028099886,332.4872086039977,g,1.0,0.3928596879995893,,,,,,sub-192,1,stroop_test,60.52666320268667,
,,,,71.0,11.0,5.0,,,,,,,,,,,,,rot,red,r,1.0,r,1.0,0.6794730380061083,,,,,,,,,,5.0,11.0,71.0,0.0,332.5030799699889,,,,,,,,,,,,,,,,,332.4875138839998,333.2864381200052,334.08668064899393,334.070236597996,,,,,,,,,,,,,,,,,,,,,,,,,,,,,,,,,,,334.0708367439802,334.08668064899393,334.08668064899393,334.7707875309861,r,1.0,0.6794730380061083,,,,,,sub-192,1,stroop_test,60.52666320268667,
,,,,72.0,0.0,6.0,,,,,,,,,,,,,gelb,yellow,g,1.0,g,1.0,0.567873708991101,,,,,,,,,,6.0,0.0,72.0,11.0,334.78669916198123,,,,,,,,,,,,,,,,,334.7710861300002,335.56976811698405,336.37125732100685,336.3536065389926,,,,,,,,,,,,,,,,,,,,,,,,,,,,,,,,,,,336.35694192300434,336.37125732100685,336.37125732100685,336.9542521050025,g,1.0,0.567873708991101,,,,,,sub-192,1,stroop_test,60.52666320268667,
,,,,73.0,1.0,6.0,,,,,,,,,,,,,gelb,red,r,0.0,r,1.0,0.6071186019980814,,,,,,,,,,6.0,1.0,73.0,8.0,336.9695066839922,,,,,,,,,,,,,,,,,336.9545709230006,337.3199712019996,338.11981167498743,338.10353886100347,,,,,,,,,,,,,,,,,,,,,,,,,,,,,,,,,,,338.1041186199873,338.11981167498743,338.11981167498743,338.73740738700144,r,1.0,0.6071186019980814,,,,,,sub-192,1,stroop_test,60.52666320268667,
,,,,74.0,2.0,6.0,,,,,,,,,,,,,blau,blue,b,1.0,b,1.0,0.6764404269924853,,,,,,,,,,6.0,2.0,74.0,6.0,338.75300199500634,,,,,,,,,,,,,,,,,338.73771974700503,339.0864417109988,339.887532823981,339.87025687500136,,,,,,,,,,,,,,,,,,,,,,,,,,,,,,,,,,,339.8730945529824,339.887532823981,339.887532823981,340.57093756698305,b,1.0,0.6764404269924853,,,,,,sub-192,1,stroop_test,60.52666320268667,
,,,,75.0,3.0,6.0,,,,,,,,,,,,,blau,yellow,g,0.0,g,1.0,0.4385057799809146,,,,,,,,,,6.0,3.0,75.0,7.0,340.5864429780049,,,,,,,,,,,,,,,,,340.5712347959925,340.9364370559924,341.7365360650001,341.72009975198307,,,,,,,,,,,,,,,,,,,,,,,,,,,,,,,,,,,341.7206850459916,341.7365360650001,341.7365360650001,342.18782675499097,g,1.0,0.4385057799809146,,,,,,sub-192,1,stroop_test,60.52666320268667,
,,,,76.0,4.0,6.0,,,,,,,,,,,,,blau,blue,b,1.0,b,1.0,0.6207539360038936,,,,,,,,,,6.0,4.0,76.0,5.0,342.2030507339805,,,,,,,,,,,,,,,,,342.1882088109851,342.30302222497994,343.10330012399936,343.0866415909841,,,,,,,,,,,,,,,,,,,,,,,,,,,,,,,,,,,343.08721876100753,343.10330012399936,343.10330012399936,343.7373518059904,b,1.0,0.6207539360038936,,,,,,sub-192,1,stroop_test,60.52666320268667,
,,,,77.0,5.0,6.0,,,,,,,,,,,,,rot,yellow,g,0.0,g,1.0,0.3950295069953426,,,,,,,,,,6.0,5.0,77.0,3.0,343.7527939819847,,,,,,,,,,,,,,,,,343.737661422987,344.1027482349891,344.90381702498416,344.8866747879947,,,,,,,,,,,,,,,,,,,,,,,,,,,,,,,,,,,344.88945315100136,344.90381702498416,344.90381702498416,345.3040689099871,g,1.0,0.3950295069953426,,,,,,sub-192,1,stroop_test,60.52666320268667,
,,,,78.0,6.0,6.0,,,,,,,,,,,,,gelb,blue,b,0.0,b,1.0,0.3902339389896951,,,,,,,,,,6.0,6.0,78.0,9.0,345.31989614199847,,,,,,,,,,,,,,,,,345.30437022200204,346.11971253799857,346.920493120997,346.9035100519832,,,,,,,,,,,,,,,,,,,,,,,,,,,,,,,,,,,346.9063850620005,346.920493120997,346.920493120997,347.32025098000304,b,1.0,0.3902339389896951,,,,,,sub-192,1,stroop_test,60.52666320268667,
,,,,79.0,7.0,6.0,,,,,,,,,,,,,rot,red,r,1.0,r,1.0,0.6743553479900584,,,,,,,,,,6.0,7.0,79.0,1.0,347.33613056998,,,,,,,,,,,,,,,,,347.3205573519808,348.5198867399886,349.3204448510078,349.3033369180048,,,,,,,,,,,,,,,,,,,,,,,,,,,,,,,,,,,349.3063223689969,349.3204448510078,349.3204448510078,350.0038643649896,r,1.0,0.6743553479900584,,,,,,sub-192,1,stroop_test,60.52666320268667,
,,,,80.0,8.0,6.0,,,,,,,,,,,,,gelb,yellow,g,1.0,g,1.0,0.6200072539795656,,,,,,,,,,6.0,8.0,80.0,10.0,350.0196088049852,,,,,,,,,,,,,,,,,350.0041908590065,350.8030128069804,351.60385258999304,351.5865283999883,,,,,,,,,,,,,,,,,,,,,,,,,,,,,,,,,,,351.58915814198554,351.60385258999304,351.60385258999304,352.2372290880012,g,1.0,0.6200072539795656,,,,,,sub-192,1,stroop_test,60.52666320268667,
,,,,81.0,9.0,6.0,,,,,,,,,,,,,rot,red,r,1.0,r,1.0,0.6294631860218942,,,,,,,,,,6.0,9.0,81.0,0.0,352.25272794798366,,,,,,,,,,,,,,,,,352.237595152983,352.3362219929986,353.1370986039983,353.1200078880065,,,,,,,,,,,,,,,,,,,,,,,,,,,,,,,,,,,353.12332691199845,353.1370986039983,353.1370986039983,353.7705786750012,r,1.0,0.6294631860218942,,,,,,sub-192,1,stroop_test,60.52666320268667,
,,,,82.0,10.0,6.0,,,,,,,,,,,,,rot,blue,b,0.0,b,1.0,0.6834685379872099,,,,,,,,,,6.0,10.0,82.0,2.0,353.78619130598963,,,,,,,,,,,,,,,,,353.77095497300616,354.96951672199066,355.76982977599255,355.7534621850064,,,,,,,,,,,,,,,,,,,,,,,,,,,,,,,,,,,355.7540285919968,355.76982977599255,355.76982977599255,356.4700932549895,b,1.0,0.6834685379872099,,,,,,sub-192,1,stroop_test,60.52666320268667,
,,,,83.0,11.0,6.0,,,,,,,,,,,,,blau,red,r,0.0,r,1.0,1.1152741730038542,,,,,,,,,,6.0,11.0,83.0,4.0,356.4860691819922,,,,,,,,,,,,,,,,,356.4704195779923,356.8199013560079,357.6200781109801,357.6031928109878,,,,,,,,,,,,,,,,,,,,,,,,,,,,,,,,,,,357.6059008470038,357.6200781109801,357.6200781109801,358.73725518700667,r,1.0,1.1152741730038542,,,,,,sub-192,1,stroop_test,60.52666320268667,
,,,,84.0,0.0,7.0,,,,,,,,,,,,,rot,blue,b,0.0,b,1.0,0.9813543699856382,,,,,,,,,,7.0,0.0,84.0,2.0,358.7527722390077,,,,,,,,,,,,,,,,,358.73761880298844,359.5527199879871,360.3538496439869,360.3365369050007,,,,,,,,,,,,,,,,,,,,,,,,,,,,,,,,,,,360.3393332359847,360.3538496439869,360.3538496439869,361.3374100140063,b,1.0,0.9813543699856382,,,,,,sub-192,1,stroop_test,60.52666320268667,
,,,,85.0,1.0,7.0,,,,,,,,,,,,,blau,yellow,g,0.0,g,1.0,0.6217042700154707,,,,,,,,,,7.0,1.0,85.0,7.0,361.35253078499227,,,,,,,,,,,,,,,,,361.33780554900295,361.4528277599893,362.2538286369818,362.236425879004,,,,,,,,,,,,,,,,,,,,,,,,,,,,,,,,,,,362.2392601659813,362.2538286369818,362.2538286369818,362.8871198569832,g,1.0,0.6217042700154707,,,,,,sub-192,1,stroop_test,60.52666320268667,
,,,,86.0,2.0,7.0,,,,,,,,,,,,,gelb,red,r,0.0,r,1.0,0.5188006340176798,,,,,,,,,,7.0,2.0,86.0,8.0,362.902661686996,,,,,,,,,,,,,,,,,362.8874861889926,363.702794042998,364.5036404269922,364.48656453500735,,,,,,,,,,,,,,,,,,,,,,,,,,,,,,,,,,,364.4894450279826,364.5036404269922,364.5036404269922,365.03733345799264,r,1.0,0.5188006340176798,,,,,,sub-192,1,stroop_test,60.52666320268667,
,,,,87.0,3.0,7.0,,,,,,,,,,,,,blau,blue,b,1.0,b,1.0,0.613310510001611,,,,,,,,,,7.0,3.0,87.0,5.0,365.0525767789805,,,,,,,,,,,,,,,,,365.0376942139992,365.1530283799802,365.9537002279831,365.9365001319966,,,,,,,,,,,,,,,,,,,,,,,,,,,,,,,,,,,365.939361177996,365.9537002279831,365.9537002279831,366.5705391689844,b,1.0,0.613310510001611,,,,,,sub-192,1,stroop_test,60.52666320268667,
,,,,88.0,4.0,7.0,,,,,,,,,,,,,blau,red,r,0.0,r,1.0,0.8139779950142838,,,,,,,,,,7.0,4.0,88.0,4.0,366.5870132590062,,,,,,,,,,,,,,,,,366.5708941599878,367.3862083639833,368.1860297009989,368.16963503399165,,,,,,,,,,,,,,,,,,,,,,,,,,,,,,,,,,,368.1701094459859,368.1860297009989,368.1860297009989,369.0037270140019,r,1.0,0.8139779950142838,,,,,,sub-192,1,stroop_test,60.52666320268667,
,,,,89.0,5.0,7.0,,,,,,,,,,,,,gelb,blue,b,0.0,b,1.0,0.4572424110083375,,,,,,,,,,7.0,5.0,89.0,9.0,369.0191546779824,,,,,,,,,,,,,,,,,369.0041011569847,370.2027138689882,371.0038202219876,370.9865223990055,,,,,,,,,,,,,,,,,,,,,,,,,,,,,,,,,,,370.9898965290049,371.0038202219876,371.0038202219876,371.4701334139973,b,1.0,0.4572424110083375,,,,,,sub-192,1,stroop_test,60.52666320268667,
,,,,90.0,6.0,7.0,,,,,,,,,,,,,rot,red,r,1.0,r,1.0,0.7471487630100455,,,,,,,,,,7.0,6.0,90.0,0.0,371.4860676350072,,,,,,,,,,,,,,,,,371.4704381619813,371.5693581060041,372.3696686179901,372.3529020429996,,,,,,,,,,,,,,,,,,,,,,,,,,,,,,,,,,,372.35553777599125,372.3696686179901,372.3696686179901,373.1203791729931,r,1.0,0.7471487630100455,,,,,,sub-192,1,stroop_test,60.52666320268667,
,,,,91.0,7.0,7.0,,,,,,,,,,,,,rot,yellow,g,0.0,g,1.0,0.3991097070102114,,,,,,,,,,7.0,7.0,91.0,3.0,373.1357727579889,,,,,,,,,,,,,,,,,373.120746244007,373.2363011699927,374.0358770460007,374.01954887999455,,,,,,,,,,,,,,,,,,,,,,,,,,,,,,,,,,,374.01996634399984,374.0358770460007,374.0358770460007,374.43712405100814,g,1.0,0.3991097070102114,,,,,,sub-192,1,stroop_test,60.52666320268667,
,,,,92.0,8.0,7.0,,,,,,,,,,,,,rot,red,r,1.0,r,1.0,0.5204070439795032,,,,,,,,,,7.0,8.0,92.0,1.0,374.4524563199957,,,,,,,,,,,,,,,,,374.4374807869899,375.6527940020024,376.4527353979938,376.4361851940048,,,,,,,,,,,,,,,,,,,,,,,,,,,,,,,,,,,376.4367993630003,376.4527353979938,376.4527353979938,376.9868597280001,r,1.0,0.5204070439795032,,,,,,sub-192,1,stroop_test,60.52666320268667,
,,,,93.0,9.0,7.0,,,,,,,,,,,,,gelb,yellow,g,1.0,g,1.0,0.5072132190107368,,,,,,,,,,7.0,9.0,93.0,11.0,377.0024948100036,,,,,,,,,,,,,,,,,376.987175983988,377.3359115229978,378.1366145999928,378.1195137290051,,,,,,,,,,,,,,,,,,,,,,,,,,,,,,,,,,,378.122272159002,378.1366145999928,378.1366145999928,378.6534466559824,g,1.0,0.5072132190107368,,,,,,sub-192,1,stroop_test,60.52666320268667,
,,,,94.0,10.0,7.0,,,,,,,,,,,,,gelb,yellow,g,1.0,g,1.0,0.5970270049874671,,,,,,,,,,7.0,10.0,94.0,10.0,378.6691454889951,,,,,,,,,,,,,,,,,378.6537511849892,379.4526895919989,380.2525790910004,380.2362132979906,,,,,,,,,,,,,,,,,,,,,,,,,,,,,,,,,,,380.2367120029812,380.2525790910004,380.2525790910004,380.8532982289908,g,1.0,0.5970270049874671,,,,,,sub-192,1,stroop_test,60.52666320268667,
,,,,95.0,11.0,7.0,,,,,,,,,,,,,blau,blue,b,1.0,r,0.0,0.4936483190103899,,,,,,,,,,7.0,11.0,95.0,6.0,380.8693306100031,,,,,,,,,,,,,,,,,380.853625549993,381.652532032982,382.45311175799,382.4361693990068,,,,,,,,,,,,,,,,,,,,,,,,,,,,,,,,,,,382.438663945999,382.45311175799,382.45311175799,382.95333612099057,r,0.0,0.4936483190103899,,,,,,sub-192,1,stroop_test,60.52666320268667,
,,,,96.0,0.0,8.0,,,,,,,,,,,,,blau,blue,b,1.0,b,1.0,0.5962527400115505,,,,,,,,,,8.0,0.0,96.0,6.0,382.9690758189827,,,,,,,,,,,,,,,,,382.9536449119914,383.3025877740001,384.1024665359873,384.086336990993,,,,,,,,,,,,,,,,,,,,,,,,,,,,,,,,,,,384.08691416098736,384.1024665359873,384.1024665359873,384.7036267140065,b,1.0,0.5962527400115505,,,,,,sub-192,1,stroop_test,60.52666320268667,
,,,,97.0,1.0,8.0,,,,,,,,,,,,,rot,red,r,1.0,r,1.0,0.5455555479857139,,,,,,,,,,8.0,1.0,97.0,1.0,384.7189566379821,,,,,,,,,,,,,,,,,384.70396719599376,385.51912578899646,386.3199794740067,386.30287908099126,,,,,,,,,,,,,,,,,,,,,,,,,,,,,,,,,,,386.305644328997,386.3199794740067,386.3199794740067,386.8700139609864,r,1.0,0.5455555479857139,,,,,,sub-192,1,stroop_test,60.52666320268667,
,,,,98.0,2.0,8.0,,,,,,,,,,,,,rot,red,r,1.0,r,1.0,0.5555318679835182,,,,,,,,,,8.0,2.0,98.0,0.0,386.88584576,,,,,,,,,,,,,,,,,386.8703172529931,387.6693012279866,388.4691186629934,388.45271961198887,,,,,,,,,,,,,,,,,,,,,,,,,,,,,,,,,,,388.4533117429819,388.4691186629934,388.4691186629934,389.0367844940047,r,1.0,0.5555318679835182,,,,,,sub-192,1,stroop_test,60.52666320268667,
,,,,99.0,3.0,8.0,,,,,,,,,,,,,gelb,blue,b,0.0,b,1.0,0.5329762320034206,,,,,,,,,,8.0,3.0,99.0,9.0,389.0525773609989,,,,,,,,,,,,,,,,,389.0371460150054,389.8359410119883,390.63628522199,390.6192998589832,,,,,,,,,,,,,,,,,,,,,,,,,,,,,,,,,,,390.6219006149913,390.63628522199,390.63628522199,391.1865163499897,b,1.0,0.5329762320034206,,,,,,sub-192,1,stroop_test,60.52666320268667,
,,,,100.0,4.0,8.0,,,,,,,,,,,,,blau,yellow,g,0.0,g,1.0,0.4233667140069883,,,,,,,,,,8.0,4.0,100.0,7.0,391.20259671699023,,,,,,,,,,,,,,,,,391.1868887029996,391.5357312569977,392.3370611119899,392.3194713869889,,,,,,,,,,,,,,,,,,,,,,,,,,,,,,,,,,,392.3228441969841,392.3370611119899,392.3370611119899,392.7696722259861,g,1.0,0.4233667140069883,,,,,,sub-192,1,stroop_test,60.52666320268667,
,,,,101.0,5.0,8.0,,,,,,,,,,,,,blau,blue,b,1.0,b,1.0,0.4831219179905019,,,,,,,,,,8.0,5.0,101.0,5.0,392.7860215989931,,,,,,,,,,,,,,,,,392.76997387298616,393.1190757349832,393.9191397030081,393.9028234419821,,,,,,,,,,,,,,,,,,,,,,,,,,,,,,,,,,,393.9034282460052,393.9191397030081,393.9191397030081,394.403480937006,b,1.0,0.4831219179905019,,,,,,sub-192,1,stroop_test,60.52666320268667,
,,,,102.0,6.0,8.0,,,,,,,,,,,,,rot,blue,b,0.0,b,1.0,0.7279149699897971,,,,,,,,,,8.0,6.0,102.0,2.0,394.4186557990033,,,,,,,,,,,,,,,,,394.4038830729842,394.5190572179854,395.31937964999815,395.3026699299808,,,,,,,,,,,,,,,,,,,,,,,,,,,,,,,,,,,395.3051242159854,395.31937964999815,395.31937964999815,396.0532807199925,b,1.0,0.7279149699897971,,,,,,sub-192,1,stroop_test,60.52666320268667,
,,,,103.0,7.0,8.0,,,,,,,,,,,,,gelb,yellow,g,1.0,g,1.0,0.3817952960089315,,,,,,,,,,8.0,7.0,103.0,10.0,396.0689774409984,,,,,,,,,,,,,,,,,396.05359512599534,396.169064769987,396.9695862710069,396.9526037469914,,,,,,,,,,,,,,,,,,,,,,,,,,,,,,,,,,,396.9553946039814,396.9695862710069,396.9695862710069,397.3532269629941,g,1.0,0.3817952960089315,,,,,,sub-192,1,stroop_test,60.52666320268667,
,,,,104.0,8.0,8.0,,,,,,,,,,,,,blau,red,r,0.0,r,1.0,0.4701854449813254,,,,,,,,,,8.0,8.0,104.0,4.0,397.3686939539912,,,,,,,,,,,,,,,,,397.3535584000056,398.5521885519847,399.3532055109972,399.3358958669997,,,,,,,,,,,,,,,,,,,,,,,,,,,,,,,,,,,399.3386349180073,399.3532055109972,399.3532055109972,399.83649998300825,r,1.0,0.4701854449813254,,,,,,sub-192,1,stroop_test,60.52666320268667,
,,,,105.0,9.0,8.0,,,,,,,,,,,,,gelb,yellow,g,1.0,g,1.0,0.5797848610091023,,,,,,,,,,8.0,9.0,105.0,11.0,399.8524881709891,,,,,,,,,,,,,,,,,399.8368133640033,399.93574618999264,400.736339761992,400.7193146210048,,,,,,,,,,,,,,,,,,,,,,,,,,,,,,,,,,,400.7221582499915,400.736339761992,400.736339761992,401.3200606839964,g,1.0,0.5797848610091023,,,,,,sub-192,1,stroop_test,60.52666320268667,
,,,,106.0,10.0,8.0,,,,,,,,,,,,,rot,yellow,g,0.0,g,1.0,0.631741974997567,,,,,,,,,,8.0,10.0,106.0,3.0,401.3356429080013,,,,,,,,,,,,,,,,,401.3204300329962,401.4356637049932,402.2363819250022,402.21938038800727,,,,,,,,,,,,,,,,,,,,,,,,,,,,,,,,,,,402.222155017982,402.2363819250022,402.2363819250022,402.86989954000455,g,1.0,0.631741974997567,,,,,,sub-192,1,stroop_test,60.52666320268667,
,,,,107.0,11.0,8.0,,,,,,,,,,,,,gelb,red,r,0.0,r,1.0,0.5685193699900992,,,,,,,,,,8.0,11.0,107.0,8.0,402.8854701119999,,,,,,,,,,,,,,,,,402.8702318230062,403.21895733699785,404.0194571489992,404.0025659519888,,,,,,,,,,,,,,,,,,,,,,,,,,,,,,,,,,,404.00530909298686,404.0194571489992,404.0194571489992,404.6038591079996,r,1.0,0.5685193699900992,,,,,,sub-192,1,stroop_test,60.52666320268667,
,,,,108.0,0.0,9.0,,,,,,,,,,,,,blau,red,r,0.0,r,1.0,0.4099746319989208,,,,,,,,,,9.0,0.0,108.0,4.0,404.619002589985,,,,,,,,,,,,,,,,,404.60423381999135,404.71830135799246,405.5200565069972,405.502760828007,,,,,,,,,,,,,,,,,,,,,,,,,,,,,,,,,,,405.5060601650039,405.5200565069972,405.5200565069972,405.9365502099972,r,1.0,0.4099746319989208,,,,,,sub-192,1,stroop_test,60.52666320268667,
,,,,109.0,1.0,9.0,,,,,,,,,,,,,rot,yellow,g,0.0,g,1.0,0.4968933330092113,,,,,,,,,,9.0,1.0,109.0,3.0,405.9524222209875,,,,,,,,,,,,,,,,,405.93685984800686,407.1518783560023,407.9519429589855,407.935573655006,,,,,,,,,,,,,,,,,,,,,,,,,,,,,,,,,,,407.9378293369955,407.9519429589855,407.9519429589855,408.4527828079881,g,1.0,0.4968933330092113,,,,,,sub-192,1,stroop_test,60.52666320268667,
,,,,110.0,2.0,9.0,,,,,,,,,,,,,blau,blue,b,1.0,b,1.0,0.4906377379957121,,,,,,,,,,9.0,2.0,110.0,5.0,408.4682826210046,,,,,,,,,,,,,,,,,408.4531442190055,409.25171854600194,410.0520037309907,410.0352652579895,,,,,,,,,,,,,,,,,,,,,,,,,,,,,,,,,,,410.0376087139885,410.0520037309907,410.0520037309907,410.5530914239935,b,1.0,0.4906377379957121,,,,,,sub-192,1,stroop_test,60.52666320268667,
,,,,111.0,3.0,9.0,,,,,,,,,,,,,rot,blue,b,0.0,b,1.0,0.5998401340038981,,,,,,,,,,9.0,3.0,111.0,2.0,410.56818503999966,,,,,,,,,,,,,,,,,410.55345514198416,410.9185916729912,411.71882641298,411.7022688270081,,,,,,,,,,,,,,,,,,,,,,,,,,,,,,,,,,,411.7050781389989,411.71882641298,411.71882641298,412.31988997600274,b,1.0,0.5998401340038981,,,,,,sub-192,1,stroop_test,60.52666320268667,
,,,,112.0,4.0,9.0,,,,,,,,,,,,,gelb,blue,b,0.0,b,1.0,0.4500267489929683,,,,,,,,,,9.0,4.0,112.0,9.0,412.3350032430026,,,,,,,,,,,,,,,,,412.32028130299295,413.1350060979894,413.9354928050016,413.9188050919911,,,,,,,,,,,,,,,,,,,,,,,,,,,,,,,,,,,413.9216435679991,413.9354928050016,413.9354928050016,414.4030707549828,b,1.0,0.4500267489929683,,,,,,sub-192,1,stroop_test,60.52666320268667,
,,,,113.0,5.0,9.0,,,,,,,,,,,,,blau,yellow,g,0.0,g,1.0,0.3825189979979768,,,,,,,,,,9.0,5.0,113.0,7.0,414.41833341598976,,,,,,,,,,,,,,,,,414.40355278298375,414.7685536519857,415.56887719299993,415.5520562019956,,,,,,,,,,,,,,,,,,,,,,,,,,,,,,,,,,,415.5548356520012,415.56887719299993,415.56887719299993,415.9531160219922,g,1.0,0.3825189979979768,,,,,,sub-192,1,stroop_test,60.52666320268667,
,,,,114.0,6.0,9.0,,,,,,,,,,,,,gelb,yellow,g,1.0,g,1.0,0.3728565080091357,,,,,,,,,,9.0,6.0,114.0,11.0,415.9681162299821,,,,,,,,,,,,,,,,,415.9535962739901,416.3185157569824,417.1188471420028,417.102094907983,,,,,,,,,,,,,,,,,,,,,,,,,,,,,,,,,,,417.1049864460074,417.1188471420028,417.1188471420028,417.5029133140051,g,1.0,0.3728565080091357,,,,,,sub-192,1,stroop_test,60.52666320268667,
,,,,115.0,7.0,9.0,,,,,,,,,,,,,rot,red,r,1.0,r,1.0,0.4342844439961482,,,,,,,,,,9.0,7.0,115.0,1.0,417.5180301780056,,,,,,,,,,,,,,,,,417.5032454699976,417.8684476729832,418.6690331419813,418.6518027409911,,,,,,,,,,,,,,,,,,,,,,,,,,,,,,,,,,,418.6554377079883,418.6690331419813,418.6690331419813,419.1194675150036,r,1.0,0.4342844439961482,,,,,,sub-192,1,stroop_test,60.52666320268667,
,,,,116.0,8.0,9.0,,,,,,,,,,,,,gelb,red,r,0.0,r,1.0,0.4898642220068723,,,,,,,,,,9.0,8.0,116.0,8.0,419.135126298992,,,,,,,,,,,,,,,,,419.1197944839951,420.31842348899227,421.1184129989997,421.101932761987,,,,,,,,,,,,,,,,,,,,,,,,,,,,,,,,,,,421.1045940539916,421.1184129989997,421.1184129989997,421.6191966519982,r,1.0,0.4898642220068723,,,,,,sub-192,1,stroop_test,60.52666320268667,
,,,,117.0,9.0,9.0,,,,,,,,,,,,,rot,red,r,1.0,r,1.0,0.456541557010496,,,,,,,,,,9.0,9.0,117.0,0.0,421.63484214100754,,,,,,,,,,,,,,,,,421.6195102259808,421.7184257530025,422.5187403979944,422.5018285829865,,,,,,,,,,,,,,,,,,,,,,,,,,,,,,,,,,,422.50477238200256,422.5187403979944,422.5187403979944,422.9859655019827,r,1.0,0.456541557010496,,,,,,sub-192,1,stroop_test,60.52666320268667,
,,,,118.0,10.0,9.0,,,,,,,,,,,,,blau,blue,b,1.0,b,1.0,0.6590380400011782,,,,,,,,,,9.0,10.0,118.0,6.0,423.0014990810014,,,,,,,,,,,,,,,,,422.9862768749881,423.3356273690006,424.13528021998354,424.1186780739809,,,,,,,,,,,,,,,,,,,,,,,,,,,,,,,,,,,424.1213469459908,424.13528021998354,424.13528021998354,424.80255621898687,b,1.0,0.6590380400011782,,,,,,sub-192,1,stroop_test,60.52666320268667,
,,,,119.0,11.0,9.0,,,,,,,,,,,,,gelb,yellow,g,1.0,g,1.0,0.4525926969945431,,,,,,,,,,9.0,11.0,119.0,10.0,424.81805930499104,,,,,,,,,,,,,,,,,424.8028598669917,426.0017060230021,426.8017584939953,426.7851477939985,,,,,,,,,,,,,,,,,,,,,,,,,,,,,,,,,,,426.7879138709977,426.8017584939953,426.8017584939953,427.2690130849951,g,1.0,0.4525926969945431,,,,,,sub-192,1,stroop_test,60.52666320268667,
,,,,,,,,,,,,,,,,,,,,,,,,,,,,,,,,,,,,,,,,,,,,,,,,,,,,,,,,,,,,,,,,,,,,,,,,,,,,,,,,,,,,,,,,,,,,,,,,,,,,,,427.269163096993,427.2850042849896,432.2846166469972,432.269005337992,sub-192,1,stroop_test,60.52666320268667,
