wordCTK,colorCTK,corrAnsCTK,congruentCTK,wordPractice,colorPractice,corrAnsPractice,congruentPractice,word,color,corrAns,congruent,trials_CTK.thisRepN,trials_CTK.thisTrialN,trials_CTK.thisN,trials_CTK.thisIndex,trials_practice.thisRepN,trials_practice.thisTrialN,trials_practice.thisN,trials_practice.thisIndex,trials_test.thisRepN,trials_test.thisTrialN,trials_test.thisN,trials_test.thisIndex,thisRow.t,notes,instruction.started,instr_text.started,instr_image.started,instr_resp.started,instruction.stopped,instr_resp.keys,instr_resp.rt,instr_resp.duration,instr_color_to_key.started,instr_ctk.started,resp_ctk.started,instr_color_to_key.stopped,resp_ctk.keys,resp_ctk.rt,resp_ctk.duration,ITI.started,fixcross.started,fixcross.stopped,ITI.stopped,color_to_key_run.started,stimulus_CTK.started,keyResp_CTK.started,color_to_key_run.stopped,keyResp_CTK.keys,keyResp_CTK.corr,keyResp_CTK.rt,keyResp_CTK.duration,instr_practice.started,instr_practice_text.started,instr_practice_resp.started,instr_practice.stopped,instr_practice_resp.keys,instr_practice_resp.rt,instr_practice_resp.duration,practice_run.started,stimulus_practice.started,respPractice.started,practice_run.stopped,respPractice.keys,respPractice.corr,respPractice.rt,respPractice.duration,feedback.started,textFeedback.started,textFeedback.stopped,feedback.stopped,instr_test.started,instr_test_text.started,instr_test_resp.started,instr_test.stopped,instr_test_resp.keys,instr_test_resp.rt,instr_test_resp.duration,test_run.started,stimulus_test_run.started,keyResp_test_run.started,test_run.stopped,keyResp_test_run.keys,keyResp_test_run.corr,keyResp_test_run.rt,keyResp_test_run.duration,goodbye.started,textGoodbye.started,textGoodbye.stopped,goodbye.stopped,participant,session,expName,frameRate,Unnamed: 98
,,,,,,,,,,,,,,,,,,,,,,,,,,0.0016879999966477,0.0323420999993686,0.0323420999993686,0.0323420999993686,42.46742599999925,space,42.4261391,,,,,,,,,,,,,,,,,,,,,,,,,,,,,,,,,,,,,,,,,,,,,,,,,,,,,,,,,,,sub-062,1.0,stroop_test,60.02260451378681,
,,,,,,,,,,,,,,,,,,,,,,,,,,,,,,,,,,42.46747129999858,42.482861099997535,42.482861099997535,52.18250579999949,space,9.685308800002533,,,,,,,,,,,,,,,,,,,,,,,,,,,,,,,,,,,,,,,,,,,,,,,,,,,,sub-062,1.0,stroop_test,60.02260451378681,
test,blue,b,1.0,,,,,,,,,0.0,0.0,0.0,2.0,,,,,,,,,52.25256089999675,,,,,,,,,,,,,,,,,52.24955929999851,52.99778819999847,53.797804499998165,53.781631099998776,53.78165839999929,53.797804499998165,53.797804499998165,54.81515020000006,b,1.0,1.0111993999998958,,,,,,,,,,,,,,,,,,,,,,,,,,,,,,,,,,,,,,,,sub-062,1.0,stroop_test,60.02260451378681,
test,yellow,g,1.0,,,,,,,,,0.0,1.0,1.0,1.0,,,,,,,,,54.83082529999956,,,,,,,,,,,,,,,,,54.81636660000004,55.63056239999787,56.43047609999849,56.41462639999736,56.41465359999711,56.43047609999849,56.43047609999849,57.76479709999694,g,1.0,1.3323921999981394,,,,,,,,,,,,,,,,,,,,,,,,,,,,,,,,,,,,,,,,sub-062,1.0,stroop_test,60.02260451378681,
test,red,r,1.0,,,,,,,,,0.0,2.0,2.0,0.0,,,,,,,,,57.78015929999674,,,,,,,,,,,,,,,,,57.76567470000009,58.5801907999994,59.38005759999942,59.363992799997504,59.36402029999954,59.38005759999942,59.38005759999942,60.71424339999794,r,1.0,1.3189945999984047,,,,,,,,,,,,,,,,,,,,,,,,,,,,,,,,,,,,,,,,sub-062,1.0,stroop_test,60.02260451378681,
test,yellow,g,1.0,,,,,,,,,1.0,0.0,3.0,1.0,,,,,,,,,60.72981179999988,,,,,,,,,,,,,,,,,60.71512259999872,60.82965029999832,61.62967079999726,61.61366499999713,61.61369289999857,61.62967079999726,61.62967079999726,62.68065419999766,g,1.0,1.04295540000021,,,,,,,,,,,,,,,,,,,,,,,,,,,,,,,,,,,,,,,,sub-062,1.0,stroop_test,60.02260451378681,
test,blue,b,1.0,,,,,,,,,1.0,1.0,4.0,2.0,,,,,,,,,62.696188699999766,,,,,,,,,,,,,,,,,62.68152679999912,63.49606609999682,64.29579239999657,64.27987349999967,64.27990099999806,64.29579239999657,64.29579239999657,64.91349459999765,b,1.0,0.6152890000012121,,,,,,,,,,,,,,,,,,,,,,,,,,,,,,,,,,,,,,,,sub-062,1.0,stroop_test,60.02260451378681,
test,red,r,1.0,,,,,,,,,1.0,2.0,5.0,0.0,,,,,,,,,64.92910679999841,,,,,,,,,,,,,,,,,64.9143903999975,65.72900679999657,66.5289653999971,66.51288459999705,66.51291219999985,66.5289653999971,66.5289653999971,67.21313229999942,r,1.0,0.6668767999981355,,,,,,,,,,,,,,,,,,,,,,,,,,,,,,,,,,,,,,,,sub-062,1.0,stroop_test,60.02260451378681,
test,red,r,1.0,,,,,,,,,2.0,0.0,6.0,0.0,,,,,,,,,67.22869409999839,,,,,,,,,,,,,,,,,67.21400579999681,67.3286784999982,68.12859759999992,68.11223719999907,68.11225299999933,68.12859759999992,68.12859759999992,68.82958419999704,r,1.0,0.6884505999987596,,,,,,,,,,,,,,,,,,,,,,,,,,,,,,,,,,,,,,,,sub-062,1.0,stroop_test,60.02260451378681,
test,blue,b,1.0,,,,,,,,,2.0,1.0,7.0,2.0,,,,,,,,,68.84513049999805,,,,,,,,,,,,,,,,,68.83046359999935,69.64505519999875,70.44506199999887,70.42891289999898,70.42894039999737,70.44506199999887,70.44506199999887,71.21312629999738,b,1.0,0.7665966000022308,,,,,,,,,,,,,,,,,,,,,,,,,,,,,,,,,,,,,,,,sub-062,1.0,stroop_test,60.02260451378681,
test,yellow,g,1.0,,,,,,,,,2.0,2.0,8.0,1.0,,,,,,,,,71.22806969999874,,,,,,,,,,,,,,,,,71.21416229999886,72.42776679999952,73.22775709999769,73.21173699999781,73.21176419999756,73.22775709999769,73.22775709999769,74.71196090000012,g,1.0,1.476151700000628,,,,,,,,,,,,,,,,,,,,,,,,,,,,,,,,,,,,,,,,sub-062,1.0,stroop_test,60.02260451378681,
test,yellow,g,1.0,,,,,,,,,3.0,0.0,9.0,1.0,,,,,,,,,74.72758379999868,,,,,,,,,,,,,,,,,74.71295409999948,75.07740689999991,75.87734849999833,75.86124469999777,75.86127189999752,75.87734849999833,75.87734849999833,76.59507069999745,g,1.0,0.7054366000011214,,,,,,,,,,,,,,,,,,,,,,,,,,,,,,,,,,,,,,,,sub-062,1.0,stroop_test,60.02260451378681,
test,blue,b,1.0,,,,,,,,,3.0,1.0,10.0,2.0,,,,,,,,,76.61043209999843,,,,,,,,,,,,,,,,,76.59593779999705,76.96044649999749,77.76023319999877,77.74431779999941,77.74434560000009,77.76023319999877,77.76023319999877,78.84476769999674,b,1.0,1.082014100000379,,,,,,,,,,,,,,,,,,,,,,,,,,,,,,,,,,,,,,,,sub-062,1.0,stroop_test,60.02260451378681,
test,red,r,1.0,,,,,,,,,3.0,2.0,11.0,0.0,,,,,,,,,78.86023809999824,,,,,,,,,,,,,,,,,78.84564679999676,79.21008579999761,80.0101674999969,79.99413429999913,79.9941633999988,80.0101674999969,80.0101674999969,80.71089289999873,r,1.0,0.6841980999997759,,,,,,,,,,,,,,,,,,,,,,,,,,,,,,,,,,,,,,,,sub-062,1.0,stroop_test,60.02260451378681,
,,,,,,,,,,,,,,,,,,,,,,,,,,,,,,,,,,,,,,,,,,,,,,,,,,,,,80.71154549999846,80.72666969999773,80.72666969999773,86.54381439999997,space,5.8153435000022,,,,,,,,,,,,,,,,,,,,,,,,,,,,,,,,,sub-062,1.0,stroop_test,60.02260451378681,
,,,,blau,yellow,g,0.0,,,,,,,,,0.0,0.0,0.0,7.0,,,,,86.6052959999979,,,,,,,,,,,,,,,,,86.6023114999989,86.65895199999795,87.45886289999908,87.44287229999827,,,,,,,,,,,,,,,,87.44289969999954,87.45886289999908,87.45886289999908,90.00952979999784,g,1.0,2.5379629999988538,,90.01039039999887,90.02531889999955,91.02491499999816,91.00892919999752,,,,,,,,,,,,,,,,,,,,sub-062,1.0,stroop_test,60.02260451378681,
,,,,rot,red,r,1.0,,,,,,,,,0.0,1.0,1.0,1.0,,,,,91.02491499999816,,,,,,,,,,,,,,,,,91.0093788999984,91.12478980000014,91.924999699997,91.90876779999962,,,,,,,,,,,,,,,,91.90879479999784,91.924999699997,91.924999699997,92.75915629999872,r,1.0,0.8252773999993224,,92.7597741999998,92.77461669999684,93.77443799999674,93.75832859999718,,,,,,,,,,,,,,,,,,,,sub-062,1.0,stroop_test,60.02260451378681,
,,,,gelb,yellow,g,1.0,,,,,,,,,0.0,2.0,2.0,11.0,,,,,93.77443799999674,,,,,,,,,,,,,,,,,93.758757399999,94.5742384999976,95.37454789999902,95.35846519999905,,,,,,,,,,,,,,,,95.35849959999904,95.37454789999902,95.37454789999902,96.70841929999732,g,1.0,1.320166400000744,,96.70898779999698,96.72406319999936,97.72377069999855,97.70777799999996,,,,,,,,,,,,,,,,,,,,sub-062,1.0,stroop_test,60.02260451378681,
,,,,blau,red,r,0.0,,,,,,,,,0.0,3.0,3.0,4.0,,,,,97.72377069999855,,,,,,,,,,,,,,,,,97.70823609999934,97.8237799999988,98.62369509999915,98.60766019999936,,,,,,,,,,,,,,,,98.60768769999775,98.62369509999915,98.62369509999915,99.64134939999713,r,1.0,1.0038242999980866,,99.64192149999872,99.65698339999652,100.65652769999724,100.64067040000008,,,,,,,,,,,,,,,,,,,,sub-062,1.0,stroop_test,60.02260451378681,
,,,,gelb,yellow,g,1.0,,,,,,,,,0.0,4.0,4.0,10.0,,,,,100.65652769999724,,,,,,,,,,,,,,,,,100.64112819999718,101.00658719999774,101.80638439999892,101.79039289999857,,,,,,,,,,,,,,,,101.79042089999712,101.80638439999892,101.80638439999892,102.80746399999772,g,1.0,0.9970075999990512,,102.80805169999805,102.82302960000015,103.82275279999884,103.8069257999996,,,,,,,,,,,,,,,,,,,,sub-062,1.0,stroop_test,60.02260451378681,
,,,,rot,blue,b,0.0,,,,,,,,,0.0,5.0,5.0,2.0,,,,,103.82275279999884,,,,,,,,,,,,,,,,,103.80736959999922,105.02247449999776,105.82251279999764,105.8063289999991,,,,,,,,,,,,,,,,105.80635699999766,105.82251279999764,105.82251279999764,106.45675839999969,b,1.0,0.6307391000009375,,106.4573298999967,106.4723051999972,107.4723122999967,107.45624999999929,,,,,,,,,,,,,,,,,,,,sub-062,1.0,stroop_test,60.02260451378681,
,,,,gelb,blue,b,0.0,,,,,,,,,0.0,6.0,6.0,9.0,,,,,107.4723122999967,,,,,,,,,,,,,,,,,107.45668899999872,108.27211189999798,109.07184309999866,109.05601309999838,,,,,,,,,,,,,,,,109.05603999999948,109.07184309999866,109.07184309999866,109.90624339999704,b,1.0,0.8318948999985878,,109.90683019999778,109.9217381999988,110.92156869999964,110.90556129999824,,,,,,,,,,,,,,,,,,,,sub-062,1.0,stroop_test,60.02260451378681,
,,,,rot,red,r,1.0,,,,,,,,,0.0,7.0,7.0,0.0,,,,,110.92156869999964,,,,,,,,,,,,,,,,,110.9059918999992,111.72148519999972,112.5212623999978,112.50535759999912,,,,,,,,,,,,,,,,112.50538509999753,112.5212623999978,112.5212623999978,113.23904749999927,r,1.0,0.7052196000004187,,113.2396095999975,113.25448669999967,114.25435189999916,114.2384052999987,,,,,,,,,,,,,,,,,,,,sub-062,1.0,stroop_test,60.02260451378681,
,,,,blau,blue,b,1.0,,,,,,,,,0.0,8.0,8.0,6.0,,,,,114.25435189999916,,,,,,,,,,,,,,,,,114.23884929999986,114.60434319999696,115.40422149999722,115.38837209999838,,,,,,,,,,,,,,,,115.38839949999964,115.40422149999722,115.40422149999722,116.522279599998,b,1.0,1.1165148000000045,,116.52285049999772,116.5372991999975,117.53723139999784,117.52127809999728,,,,,,,,,,,,,,,,,,,,sub-062,1.0,stroop_test,60.02260451378681,
,,,,rot,yellow,g,0.0,,,,,,,,,0.0,9.0,9.0,3.0,,,,,117.53723139999784,,,,,,,,,,,,,,,,,117.52172059999792,117.63724799999908,118.43704189999698,118.4210159999966,,,,,,,,,,,,,,,,118.42104339999788,118.43704189999698,118.43704189999698,119.33807759999765,g,1.0,0.8959625999996206,,119.33866259999922,119.35370479999985,120.3533475999975,120.33741179999924,,,,,,,,,,,,,,,,,,,,sub-062,1.0,stroop_test,60.02260451378681,
,,,,blau,blue,b,1.0,,,,,,,,,0.0,10.0,10.0,5.0,,,,,120.3533475999975,,,,,,,,,,,,,,,,,120.33785389999684,121.15334319999964,121.95321989999866,121.93712769999912,,,,,,,,,,,,,,,,121.9371554999998,121.95321989999866,121.95321989999866,122.55427899999997,b,1.0,0.5883336999977473,,122.55484629999772,122.56981569999698,123.56968309999866,123.55370529999708,,,,,,,,,,,,,,,,,,,,sub-062,1.0,stroop_test,60.02260451378681,
,,,,gelb,red,r,0.0,,,,,,,,,0.0,11.0,11.0,8.0,,,,,123.56968309999866,,,,,,,,,,,,,,,,,123.55414629999724,123.66968669999916,124.46952339999916,124.45352459999776,,,,,,,,,,,,,,,,124.45355169999677,124.46952339999916,124.46952339999916,125.30376369999794,r,1.0,0.829147100001137,,125.304341199997,125.31934889999684,126.31918450000012,126.30305769999904,,,,,,,,,,,,,,,,,,,,sub-062,1.0,stroop_test,60.02260451378681,
,,,,rot,yellow,g,0.0,,,,,,,,,1.0,0.0,12.0,3.0,,,,,126.31918450000012,,,,,,,,,,,,,,,,,126.30350929999986,126.66894359999787,127.4689210999968,127.4528883999992,,,,,,,,,,,,,,,,127.45291569999972,127.4689210999968,127.4689210999968,128.33606609999697,g,1.0,0.8584349000011571,,128.33659449999686,128.3519286999981,129.35190309999962,129.3359188999966,,,,,,,,,,,,,,,,,,,,sub-062,1.0,stroop_test,60.02260451378681,
,,,,blau,blue,b,1.0,,,,,,,,,1.0,1.0,13.0,6.0,,,,,129.35190309999962,,,,,,,,,,,,,,,,,129.33635829999912,130.55188839999755,131.35168759999942,131.33573239999896,,,,,,,,,,,,,,,,131.3357597999966,131.35168759999942,131.35168759999942,132.1024217999984,b,1.0,0.7395949000019755,,132.1028039999983,132.11839989999862,133.11780109999745,133.10169509999832,,,,,,,,,,,,,,,,,,,,sub-062,1.0,stroop_test,60.02260451378681,
,,,,gelb,blue,b,0.0,,,,,,,,,1.0,2.0,14.0,9.0,,,,,133.11780109999745,,,,,,,,,,,,,,,,,133.1021084999993,133.46797279999737,134.2678734000001,134.25193129999752,,,,,,,,,,,,,,,,134.2519582999994,134.2678734000001,134.2678734000001,135.30222009999852,g,0.0,1.0225361999982852,,135.30281229999673,135.31779349999852,136.31742200000008,136.30168029999913,,,,,,,,,,,,,,,,,,,,sub-062,1.0,stroop_test,60.02260451378681,
,,,,blau,blue,b,1.0,,,,,,,,,1.0,3.0,15.0,5.0,,,,,136.31742200000008,,,,,,,,,,,,,,,,,136.3021422999991,136.4175355999978,137.21741459999976,137.20132359999843,,,,,,,,,,,,,,,,137.20135189999928,137.21741459999976,137.21741459999976,138.00169599999936,b,1.0,0.7769216000015149,,138.0022691999984,138.01713089999976,139.01699769999686,139.0011627999993,,,,,,,,,,,,,,,,,,,,sub-062,1.0,stroop_test,60.02260451378681,
,,,,rot,red,r,1.0,,,,,,,,,1.0,4.0,16.0,0.0,,,,,139.01699769999686,,,,,,,,,,,,,,,,,139.00160659999892,139.81698969999707,140.61688559999675,140.6006935999976,,,,,,,,,,,,,,,,140.60072209999998,140.61688559999675,140.61688559999675,141.36775159999888,r,1.0,0.7467328999991878,,141.36833569999726,141.38328529999853,142.38313059999928,142.3671723999978,,,,,,,,,,,,,,,,,,,,sub-062,1.0,stroop_test,60.02260451378681,
,,,,blau,red,r,0.0,,,,,,,,,1.0,5.0,17.0,4.0,,,,,142.38313059999928,,,,,,,,,,,,,,,,,142.36761049999768,142.48307889999705,143.28303400000004,143.26716229999874,,,,,,,,,,,,,,,,143.26719109999976,143.28303400000004,143.28303400000004,144.2840729999989,r,1.0,0.9961341000016546,,144.28465159999905,144.2997101999972,145.2995747999994,145.2836561999975,,,,,,,,,,,,,,,,,,,,sub-062,1.0,stroop_test,60.02260451378681,
,,,,gelb,yellow,g,1.0,,,,,,,,,1.0,6.0,18.0,10.0,,,,,145.2995747999994,,,,,,,,,,,,,,,,,145.28408819999822,146.49961619999883,147.2997254999973,147.28358679999656,,,,,,,,,,,,,,,,147.2836145000001,147.2997254999973,147.2997254999973,148.03404099999898,g,1.0,0.721792500000447,,148.03460619999896,148.04957209999702,149.04879789999904,149.0328677999969,,,,,,,,,,,,,,,,,,,,sub-062,1.0,stroop_test,60.02260451378681,
,,,,gelb,red,r,0.0,,,,,,,,,1.0,7.0,19.0,8.0,,,,,149.04879789999904,,,,,,,,,,,,,,,,,149.03330239999923,149.8486861999991,150.64842619999763,150.632577999997,,,,,,,,,,,,,,,,150.63260529999752,150.64842619999763,150.64842619999763,151.4495354999999,r,1.0,0.798580700000457,,151.45010959999854,151.4653690999985,152.46484319999945,152.4486702999966,,,,,,,,,,,,,,,,,,,,sub-062,1.0,stroop_test,60.02260451378681,
,,,,rot,red,r,1.0,,,,,,,,,1.0,8.0,20.0,1.0,,,,,152.46484319999945,,,,,,,,,,,,,,,,,152.44892619999882,153.6647079999966,154.46464299999934,154.44855169999937,,,,,,,,,,,,,,,,154.44857950000005,154.46464299999934,154.46464299999934,155.16565959999934,r,1.0,0.6881740000026184,,155.16623529999924,155.18111469999712,156.18098409999948,156.16516259999844,,,,,,,,,,,,,,,,,,,,sub-062,1.0,stroop_test,60.02260451378681,
,,,,gelb,yellow,g,1.0,,,,,,,,,1.0,9.0,21.0,11.0,,,,,156.18098409999948,,,,,,,,,,,,,,,,,156.1655957999974,156.28080649999902,157.08061599999928,157.0648078999984,,,,,,,,,,,,,,,,157.06483579999986,157.08061599999928,157.08061599999928,157.79869779999717,g,1.0,0.7144896999998309,,157.79930299999978,157.81403449999925,158.81407809999655,158.79794959999708,,,,,,,,,,,,,,,,,,,,sub-062,1.0,stroop_test,60.02260451378681,
,,,,rot,blue,b,0.0,,,,,,,,,1.0,10.0,22.0,2.0,,,,,158.81407809999655,,,,,,,,,,,,,,,,,158.79838489999747,160.01379039999665,160.8135482999969,160.79756179999822,,,,,,,,,,,,,,,,160.79758929999662,160.8135482999969,160.8135482999969,161.7812629,b,1.0,0.9502979999997478,,161.78184059999694,161.79658109999946,162.79643849999775,162.7806157999985,,,,,,,,,,,,,,,,,,,,sub-062,1.0,stroop_test,60.02260451378681,
,,,,blau,yellow,g,0.0,,,,,,,,,1.0,11.0,23.0,7.0,,,,,162.79643849999775,,,,,,,,,,,,,,,,,162.78105869999854,162.89643619999697,163.69640199999776,163.68048669999916,,,,,,,,,,,,,,,,163.6805140999968,163.69640199999776,163.69640199999776,164.8643318999966,g,1.0,1.1585509000033198,,164.86482609999803,164.8796227999992,165.87948049999977,165.8633482999976,,,,,,,,,,,,,,,,,,,,sub-062,1.0,stroop_test,60.02260451378681,
,,,,,,,,,,,,,,,,,,,,,,,,,,,,,,,,,,,,,,,,,,,,,,,,,,,,,,,,,,,,,,,,,,,,,,,,165.86343209999905,165.87948049999977,165.87948049999977,167.48042239999995,space,1.5927761000020837,,,,,,,,,,,,,,sub-062,1.0,stroop_test,60.02260451378681,
,,,,,,,,gelb,red,r,0.0,,,,,,,,,0.0,0.0,0.0,8.0,167.54585509999742,,,,,,,,,,,,,,,,,167.5426841999979,168.69550449999952,169.49547449999957,169.47955719999663,,,,,,,,,,,,,,,,,,,,,,,,,,,,,,,,,,,169.4795852999996,169.49547449999957,169.49547449999957,170.3131852999977,r,1.0,0.8136613000024226,,,,,,sub-062,1.0,stroop_test,60.02260451378681,
,,,,,,,,rot,red,r,1.0,,,,,,,,,0.0,1.0,1.0,0.0,170.32855279999785,,,,,,,,,,,,,,,,,170.3146233999978,170.6786816999993,171.4785529999972,171.4624100000001,,,,,,,,,,,,,,,,,,,,,,,,,,,,,,,,,,,171.46243779999713,171.4785529999972,171.4785529999972,172.31280179999885,r,1.0,0.8277154999996128,,,,,,sub-062,1.0,stroop_test,60.02260451378681,
,,,,,,,,gelb,yellow,g,1.0,,,,,,,,,0.0,2.0,2.0,11.0,172.32833779999785,,,,,,,,,,,,,,,,,172.3137923999966,173.5281795999981,174.32814209999924,174.3119381999968,,,,,,,,,,,,,,,,,,,,,,,,,,,,,,,,,,,174.31196539999655,174.32814209999924,174.32814209999924,174.97909719999734,g,1.0,0.6343755999987479,,,,,,sub-062,1.0,stroop_test,60.02260451378681,
,,,,,,,,rot,blue,b,0.0,,,,,,,,,0.0,3.0,3.0,2.0,174.99452369999926,,,,,,,,,,,,,,,,,174.98008229999687,176.19424759999674,176.99430179999763,176.9781090999968,,,,,,,,,,,,,,,,,,,,,,,,,,,,,,,,,,,176.9781359999979,176.99430179999763,176.99430179999763,177.89554289999796,b,1.0,0.8996855000004871,,,,,,sub-062,1.0,stroop_test,60.02260451378681,
,,,,,,,,rot,red,r,1.0,,,,,,,,,0.0,4.0,4.0,1.0,177.9107667999997,,,,,,,,,,,,,,,,,177.8965223999985,178.01069619999907,178.8105508999979,178.79456039999786,,,,,,,,,,,,,,,,,,,,,,,,,,,,,,,,,,,178.79458739999973,178.8105508999979,178.8105508999979,179.62826609999684,r,1.0,0.8052290000014182,,,,,,sub-062,1.0,stroop_test,60.02260451378681,
,,,,,,,,blau,red,r,0.0,,,,,,,,,0.0,5.0,5.0,4.0,179.64387459999853,,,,,,,,,,,,,,,,,179.6292315999999,180.4435574999989,181.24361219999992,181.2276615999981,,,,,,,,,,,,,,,,,,,,,,,,,,,,,,,,,,,181.22768689999796,181.24361219999992,181.24361219999992,182.79458749999685,r,1.0,1.5427029999991646,,,,,,sub-062,1.0,stroop_test,60.02260451378681,
,,,,,,,,blau,blue,b,1.0,,,,,,,,,0.0,6.0,6.0,5.0,182.80999619999784,,,,,,,,,,,,,,,,,182.79555809999877,183.1599645999995,183.9599361999972,183.9438687999973,,,,,,,,,,,,,,,,,,,,,,,,,,,,,,,,,,,183.94388780000008,183.9599361999972,183.9599361999972,184.81085729999904,b,1.0,0.8360455000001821,,,,,,sub-062,1.0,stroop_test,60.02260451378681,
,,,,,,,,blau,blue,b,1.0,,,,,,,,,0.0,7.0,7.0,6.0,184.8262039000001,,,,,,,,,,,,,,,,,184.8118343999995,185.6260575999986,186.42612339999687,186.4100279999984,,,,,,,,,,,,,,,,,,,,,,,,,,,,,,,,,,,186.4100553999997,186.42612339999687,186.42612339999687,187.2271194999994,b,1.0,0.7970381000013731,,,,,,sub-062,1.0,stroop_test,60.02260451378681,
,,,,,,,,gelb,blue,b,0.0,,,,,,,,,0.0,8.0,8.0,9.0,187.2425570999985,,,,,,,,,,,,,,,,,187.2280929999979,188.0424766999968,188.8422597999997,188.82606969999688,,,,,,,,,,,,,,,,,,,,,,,,,,,,,,,,,,,188.826086699999,188.8422597999997,188.8422597999997,189.9761177999972,b,1.0,1.1203230999999505,,,,,,sub-062,1.0,stroop_test,60.02260451378681,
,,,,,,,,blau,yellow,g,0.0,,,,,,,,,0.0,9.0,9.0,7.0,189.9921101,,,,,,,,,,,,,,,,,189.97671269999773,190.79189809999664,191.59183329999723,191.57586559999984,,,,,,,,,,,,,,,,,,,,,,,,,,,,,,,,,,,191.5758928999967,191.59183329999723,191.59183329999723,192.54413829999976,g,1.0,0.9381032999990566,,,,,,sub-062,1.0,stroop_test,60.02260451378681,
,,,,,,,,rot,yellow,g,0.0,,,,,,,,,0.0,10.0,10.0,3.0,192.5583107999992,,,,,,,,,,,,,,,,,192.54512129999785,193.35826669999733,194.15803519999827,194.14210959999764,,,,,,,,,,,,,,,,,,,,,,,,,,,,,,,,,,,194.1421371999968,194.15803519999827,194.15803519999827,195.2923529999971,g,1.0,1.121650500001124,,,,,,sub-062,1.0,stroop_test,60.02260451378681,
,,,,,,,,gelb,yellow,g,1.0,,,,,,,,,0.0,11.0,11.0,10.0,195.30783639999936,,,,,,,,,,,,,,,,,195.29332959999735,196.10793639999972,196.90771109999696,196.89162079999733,,,,,,,,,,,,,,,,,,,,,,,,,,,,,,,,,,,196.8916477999992,196.90771109999696,196.90771109999696,197.75874750000003,g,1.0,0.841392000002088,,,,,,sub-062,1.0,stroop_test,60.02260451378681,
,,,,,,,,gelb,red,r,0.0,,,,,,,,,1.0,0.0,12.0,8.0,197.774370799998,,,,,,,,,,,,,,,,,197.7597872999977,198.57413649999944,199.3740628999985,199.3580133999967,,,,,,,,,,,,,,,,,,,,,,,,,,,,,,,,,,,199.35804089999877,199.3740628999985,199.3740628999985,200.30830579999747,r,1.0,0.928333299998485,,,,,,sub-062,1.0,stroop_test,60.02260451378681,
,,,,,,,,blau,yellow,g,0.0,,,,,,,,,1.0,1.0,13.0,7.0,200.32366569999795,,,,,,,,,,,,,,,,,200.3093283999988,200.4238598999982,201.2236653,201.20766379999984,,,,,,,,,,,,,,,,,,,,,,,,,,,,,,,,,,,201.20769129999823,201.2236653,201.2236653,202.8417465999992,g,1.0,1.6166182999986631,,,,,,sub-062,1.0,stroop_test,60.02260451378681,
,,,,,,,,gelb,blue,b,0.0,,,,,,,,,1.0,2.0,14.0,9.0,202.8566031999981,,,,,,,,,,,,,,,,,202.84272619999683,203.65669139999957,204.45648169999916,204.4404977999984,,,,,,,,,,,,,,,,,,,,,,,,,,,,,,,,,,,204.4405253999976,204.45648169999916,204.45648169999916,205.50739949999843,b,1.0,1.0356309000017063,,,,,,sub-062,1.0,stroop_test,60.02260451378681,
,,,,,,,,rot,yellow,g,0.0,,,,,,,,,1.0,3.0,15.0,3.0,205.52299270000003,,,,,,,,,,,,,,,,,205.50837479999973,205.87277819999872,206.672674999998,206.6567265999984,,,,,,,,,,,,,,,,,,,,,,,,,,,,,,,,,,,206.6567531999972,206.672674999998,206.672674999998,207.7404768999986,g,1.0,1.0596514999997453,,,,,,sub-062,1.0,stroop_test,60.02260451378681,
,,,,,,,,gelb,yellow,g,1.0,,,,,,,,,1.0,4.0,16.0,11.0,207.7558805999979,,,,,,,,,,,,,,,,,207.7414402999966,207.856018399998,208.65567699999883,208.63979990000007,,,,,,,,,,,,,,,,,,,,,,,,,,,,,,,,,,,208.6398276,208.65567699999883,208.65567699999883,209.75669899999772,g,1.0,1.084871099999873,,,,,,sub-062,1.0,stroop_test,60.02260451378681,
,,,,,,,,blau,red,r,0.0,,,,,,,,,1.0,5.0,17.0,4.0,209.77226619999783,,,,,,,,,,,,,,,,,209.75767300000007,209.8721273999981,210.67208599999867,210.65607420000012,,,,,,,,,,,,,,,,,,,,,,,,,,,,,,,,,,,210.65610169999852,210.67208599999867,210.67208599999867,211.4899568999972,r,1.0,0.8111064999975497,,,,,,sub-062,1.0,stroop_test,60.02260451378681,
,,,,,,,,rot,blue,b,0.0,,,,,,,,,1.0,6.0,18.0,2.0,211.50540439999892,,,,,,,,,,,,,,,,,211.49093029999855,211.855410199998,212.6550792999988,212.6388767999997,,,,,,,,,,,,,,,,,,,,,,,,,,,,,,,,,,,212.6388984999976,212.6550792999988,212.6550792999988,213.4228669999975,b,1.0,0.7642135999994935,,,,,,sub-062,1.0,stroop_test,60.02260451378681,
,,,,,,,,gelb,yellow,g,1.0,,,,,,,,,1.0,7.0,19.0,10.0,213.4382294999996,,,,,,,,,,,,,,,,,213.42385029999787,213.5382049,214.3381260999995,214.3221924999998,,,,,,,,,,,,,,,,,,,,,,,,,,,,,,,,,,,214.32222029999684,214.3381260999995,214.3381260999995,215.8726766,g,1.0,1.52583980000054,,,,,,sub-062,1.0,stroop_test,60.02260451378681,
,,,,,,,,blau,blue,b,1.0,,,,,,,,,1.0,8.0,20.0,6.0,215.88803089999783,,,,,,,,,,,,,,,,,215.8736641999967,215.9880611999979,216.78783089999703,216.771655499997,,,,,,,,,,,,,,,,,,,,,,,,,,,,,,,,,,,216.77168299999903,216.78783089999703,216.78783089999703,218.22201679999853,b,1.0,1.4186890999990285,,,,,,sub-062,1.0,stroop_test,60.02260451378681,
,,,,,,,,rot,red,r,1.0,,,,,,,,,1.0,9.0,21.0,1.0,218.2374339999988,,,,,,,,,,,,,,,,,218.22298769999907,218.5874824999992,219.3874220999969,219.37137619999703,,,,,,,,,,,,,,,,,,,,,,,,,,,,,,,,,,,219.37140409999847,219.3874220999969,219.3874220999969,220.1218091999981,r,1.0,0.7207845999982965,,,,,,sub-062,1.0,stroop_test,60.02260451378681,
,,,,,,,,rot,red,r,1.0,,,,,,,,,1.0,10.0,22.0,0.0,220.13737709999987,,,,,,,,,,,,,,,,,220.12278899999728,220.23709739999688,221.03698449999865,221.02107089999845,,,,,,,,,,,,,,,,,,,,,,,,,,,,,,,,,,,221.02109799999744,221.03698449999865,221.03698449999865,221.65519719999796,r,1.0,0.6168728999982704,,,,,,sub-062,1.0,stroop_test,60.02260451378681,
,,,,,,,,blau,blue,b,1.0,,,,,,,,,1.0,11.0,23.0,5.0,221.67042339999895,,,,,,,,,,,,,,,,,221.6561690999988,222.8703109999988,223.6700098000001,223.6541100999966,,,,,,,,,,,,,,,,,,,,,,,,,,,,,,,,,,,223.6541376999994,223.6700098000001,223.6700098000001,224.53764969999972,b,1.0,0.8605944000009913,,,,,,sub-062,1.0,stroop_test,60.02260451378681,
,,,,,,,,rot,yellow,g,0.0,,,,,,,,,2.0,0.0,24.0,3.0,224.55308709999736,,,,,,,,,,,,,,,,,224.5386198999986,224.9029980999985,225.7030758999972,225.68703649999952,,,,,,,,,,,,,,,,,,,,,,,,,,,,,,,,,,,225.6870638999972,225.7030758999972,225.7030758999972,226.5540020999979,g,1.0,0.846201000000292,,,,,,sub-062,1.0,stroop_test,60.02260451378681,
,,,,,,,,rot,red,r,1.0,,,,,,,,,2.0,1.0,25.0,1.0,226.5696214999989,,,,,,,,,,,,,,,,,226.55497729999843,226.66957719999849,227.4695090999994,227.45343559999677,,,,,,,,,,,,,,,,,,,,,,,,,,,,,,,,,,,227.45346339999745,227.4695090999994,227.4695090999994,228.13713969999665,r,1.0,0.6622040000002016,,,,,,sub-062,1.0,stroop_test,60.02260451378681,
,,,,,,,,gelb,red,r,0.0,,,,,,,,,2.0,2.0,26.0,8.0,228.15262660000008,,,,,,,,,,,,,,,,,228.1381181999968,228.50255639999887,229.3024643999997,229.2863182999972,,,,,,,,,,,,,,,,,,,,,,,,,,,,,,,,,,,229.28634559999773,229.3024643999997,229.3024643999997,230.38676049999776,r,1.0,1.071454699998867,,,,,,sub-062,1.0,stroop_test,60.02260451378681,
,,,,,,,,rot,red,r,1.0,,,,,,,,,2.0,3.0,27.0,0.0,230.4022515999968,,,,,,,,,,,,,,,,,230.3877457999988,230.50216299999735,231.3021486999969,231.28617779999692,,,,,,,,,,,,,,,,,,,,,,,,,,,,,,,,,,,231.28620519999825,231.3021486999969,231.3021486999969,231.83722339999804,r,1.0,0.5334906999996747,,,,,,sub-062,1.0,stroop_test,60.02260451378681,
,,,,,,,,blau,blue,b,1.0,,,,,,,,,2.0,4.0,28.0,6.0,231.85199619999912,,,,,,,,,,,,,,,,,231.838189099999,231.95195799999783,232.75193579999905,232.7357110999983,,,,,,,,,,,,,,,,,,,,,,,,,,,,,,,,,,,232.7357384999996,232.75193579999905,232.75193579999905,233.46962339999664,b,1.0,0.7002116999974533,,,,,,sub-062,1.0,stroop_test,60.02260451378681,
,,,,,,,,gelb,yellow,g,1.0,,,,,,,,,2.0,5.0,29.0,10.0,233.48495759999787,,,,,,,,,,,,,,,,,233.4706049999986,234.6848092,235.4848893999988,235.4687008999972,,,,,,,,,,,,,,,,,,,,,,,,,,,,,,,,,,,235.4687277999983,235.4848893999988,235.4848893999988,236.4024864999992,g,1.0,0.910497500000929,,,,,,sub-062,1.0,stroop_test,60.02260451378681,
,,,,,,,,gelb,yellow,g,1.0,,,,,,,,,2.0,6.0,30.0,11.0,236.41782799999783,,,,,,,,,,,,,,,,,236.40345279999747,237.2177090999976,238.01757409999848,238.00166360000003,,,,,,,,,,,,,,,,,,,,,,,,,,,,,,,,,,,238.0016908999969,238.01757409999848,238.01757409999848,238.5520691999991,g,1.0,0.5285508000015398,,,,,,sub-062,1.0,stroop_test,60.02260451378681,
,,,,,,,,blau,blue,b,1.0,,,,,,,,,2.0,7.0,31.0,5.0,238.5676557999977,,,,,,,,,,,,,,,,,238.55305299999964,239.7675017999973,240.5671422999985,240.55147469999795,,,,,,,,,,,,,,,,,,,,,,,,,,,,,,,,,,,240.55150329999745,240.5671422999985,240.5671422999985,241.3015966999992,b,1.0,0.7326560000001336,,,,,,sub-062,1.0,stroop_test,60.02260451378681,
,,,,,,,,rot,blue,b,0.0,,,,,,,,,2.0,8.0,32.0,2.0,241.3171470999987,,,,,,,,,,,,,,,,,241.3025904999995,242.51698179999948,243.31691939999652,243.3007405999997,,,,,,,,,,,,,,,,,,,,,,,,,,,,,,,,,,,243.30076740000004,243.31691939999652,243.31691939999652,244.351219199998,b,1.0,1.025239299997338,,,,,,sub-062,1.0,stroop_test,60.02260451378681,
,,,,,,,,blau,red,r,0.0,,,,,,,,,2.0,9.0,33.0,4.0,244.3665826999968,,,,,,,,,,,,,,,,,244.35218969999917,244.7165320999993,245.5163167999999,245.5004231999992,,,,,,,,,,,,,,,,,,,,,,,,,,,,,,,,,,,245.50045099999988,245.5163167999999,245.5163167999999,246.48459659999932,r,1.0,0.9668627000028208,,,,,,sub-062,1.0,stroop_test,60.02260451378681,
,,,,,,,,gelb,blue,b,0.0,,,,,,,,,2.0,10.0,34.0,9.0,246.4996591999989,,,,,,,,,,,,,,,,,246.4855796999982,246.8496792999977,247.6496064999992,247.63340659999807,,,,,,,,,,,,,,,,,,,,,,,,,,,,,,,,,,,247.63343389999864,247.6496064999992,247.6496064999992,249.03315049999944,b,1.0,1.3682234000007156,,,,,,sub-062,1.0,stroop_test,60.02260451378681,
,,,,,,,,blau,yellow,g,0.0,,,,,,,,,2.0,11.0,35.0,7.0,249.04896199999712,,,,,,,,,,,,,,,,,249.0340835999996,249.3991915999977,250.1991172999988,250.1829263,,,,,,,,,,,,,,,,,,,,,,,,,,,,,,,,,,,250.1829459999972,250.1991172999988,250.1991172999988,251.4666873999995,g,1.0,1.254898700000922,,,,,,sub-062,1.0,stroop_test,60.02260451378681,
,,,,,,,,gelb,yellow,g,1.0,,,,,,,,,3.0,0.0,36.0,11.0,251.48224429999755,,,,,,,,,,,,,,,,,251.46765989999767,251.5821107999982,252.38209839999763,252.36602769999809,,,,,,,,,,,,,,,,,,,,,,,,,,,,,,,,,,,252.36606189999657,252.38209839999763,252.38209839999763,253.19962979999764,g,1.0,0.803880700001173,,,,,,sub-062,1.0,stroop_test,60.02260451378681,
,,,,,,,,blau,red,r,0.0,,,,,,,,,3.0,1.0,37.0,4.0,253.21507129999736,,,,,,,,,,,,,,,,,253.2006374999983,253.3152005999982,254.11508929999763,254.09899869999936,,,,,,,,,,,,,,,,,,,,,,,,,,,,,,,,,,,254.09902650000004,254.11508929999763,254.11508929999763,254.96609559999703,r,1.0,0.8432680999976583,,,,,,sub-062,1.0,stroop_test,60.02260451378681,
,,,,,,,,rot,red,r,1.0,,,,,,,,,3.0,2.0,38.0,0.0,254.98147329999847,,,,,,,,,,,,,,,,,254.96706379999887,255.33145799999693,256.1312726999968,256.11556749999727,,,,,,,,,,,,,,,,,,,,,,,,,,,,,,,,,,,256.11559419999685,256.1312726999968,256.1312726999968,256.6494368999993,r,1.0,0.5164064999989932,,,,,,sub-062,1.0,stroop_test,60.02260451378681,
,,,,,,,,blau,blue,b,1.0,,,,,,,,,3.0,3.0,39.0,5.0,256.66451649999726,,,,,,,,,,,,,,,,,256.65040419999787,257.86432839999907,258.6644312999997,258.6483756999987,,,,,,,,,,,,,,,,,,,,,,,,,,,,,,,,,,,258.6484028999985,258.6644312999997,258.6644312999997,259.3321349999969,b,1.0,0.6579609000000346,,,,,,sub-062,1.0,stroop_test,60.02260451378681,
,,,,,,,,gelb,red,r,0.0,,,,,,,,,3.0,4.0,40.0,8.0,259.34751099999994,,,,,,,,,,,,,,,,,259.3331444999967,259.6975000999992,260.4973929999978,260.4813336999978,,,,,,,,,,,,,,,,,,,,,,,,,,,,,,,,,,,260.48136039999736,260.4973929999978,260.4973929999978,261.3315895999985,r,1.0,0.8254746999991767,,,,,,sub-062,1.0,stroop_test,60.02260451378681,
,,,,,,,,blau,blue,b,1.0,,,,,,,,,3.0,5.0,41.0,6.0,261.3472258999973,,,,,,,,,,,,,,,,,261.3325557999997,261.6971503999994,262.49704129999736,262.48106319999715,,,,,,,,,,,,,,,,,,,,,,,,,,,,,,,,,,,262.4810906999992,262.49704129999736,262.49704129999736,263.5480780999969,b,1.0,1.0366638999985298,,,,,,sub-062,1.0,stroop_test,60.02260451378681,
,,,,,,,,gelb,yellow,g,1.0,,,,,,,,,3.0,6.0,42.0,10.0,263.563548099999,,,,,,,,,,,,,,,,,263.5490574999967,263.6636244000001,264.46342169999843,264.4473859999998,,,,,,,,,,,,,,,,,,,,,,,,,,,,,,,,,,,264.4474127999965,264.46342169999843,264.46342169999843,265.3476425999979,g,1.0,0.8762405999987095,,,,,,sub-062,1.0,stroop_test,60.02260451378681,
,,,,,,,,rot,yellow,g,0.0,,,,,,,,,3.0,7.0,43.0,3.0,265.363159499997,,,,,,,,,,,,,,,,,265.3486250999995,265.46309369999653,266.26296999999977,266.24712029999864,,,,,,,,,,,,,,,,,,,,,,,,,,,,,,,,,,,266.2471478999978,266.26296999999977,266.26296999999977,267.11418259999846,g,1.0,0.8414988000004087,,,,,,sub-062,1.0,stroop_test,60.02260451378681,
,,,,,,,,rot,blue,b,0.0,,,,,,,,,3.0,8.0,44.0,2.0,267.1296743999992,,,,,,,,,,,,,,,,,267.1151433999985,267.4795477999978,268.2792912999976,268.2633537999973,,,,,,,,,,,,,,,,,,,,,,,,,,,,,,,,,,,268.26338049999686,268.2792912999976,268.2792912999976,269.21337479999784,b,1.0,0.9187864000014088,,,,,,sub-062,1.0,stroop_test,60.02260451378681,
,,,,,,,,rot,red,r,1.0,,,,,,,,,3.0,9.0,45.0,1.0,269.2291331999986,,,,,,,,,,,,,,,,,269.2141434999976,270.4289718999971,271.2290712999966,271.2128916999973,,,,,,,,,,,,,,,,,,,,,,,,,,,,,,,,,,,271.2129196999995,271.2290712999966,271.2290712999966,271.8641540999997,r,1.0,0.6334543000011763,,,,,,sub-062,1.0,stroop_test,60.02260451378681,
,,,,,,,,blau,yellow,g,0.0,,,,,,,,,3.0,10.0,46.0,7.0,271.8787909999992,,,,,,,,,,,,,,,,,271.8651226999973,272.67873039999904,273.47852710000006,273.462569299998,,,,,,,,,,,,,,,,,,,,,,,,,,,,,,,,,,,273.46259649999774,273.47852710000006,273.47852710000006,274.2967194999983,g,1.0,0.8167883999994956,,,,,,sub-062,1.0,stroop_test,60.02260451378681,
,,,,,,,,gelb,blue,b,0.0,,,,,,,,,3.0,11.0,47.0,9.0,274.31179339999653,,,,,,,,,,,,,,,,,274.2976963999972,274.6615875999996,275.46156169999813,275.44562159999987,,,,,,,,,,,,,,,,,,,,,,,,,,,,,,,,,,,275.4456487999996,275.46156169999813,275.46156169999813,276.3292635999969,b,1.0,0.8559649999988324,,,,,,sub-062,1.0,stroop_test,60.02260451378681,
,,,,,,,,gelb,yellow,g,1.0,,,,,,,,,4.0,0.0,48.0,10.0,276.3447587999981,,,,,,,,,,,,,,,,,276.3302681999994,276.6947119999968,277.4944934999985,277.4785501999977,,,,,,,,,,,,,,,,,,,,,,,,,,,,,,,,,,,277.4785768999973,277.4944934999985,277.4944934999985,278.5955557999987,g,1.0,1.0981950999994297,,,,,,sub-062,1.0,stroop_test,60.02260451378681,
,,,,,,,,rot,red,r,1.0,,,,,,,,,4.0,1.0,49.0,1.0,278.61114459999953,,,,,,,,,,,,,,,,,278.59653179999805,279.41091739999683,280.2112148999986,280.19493769999826,,,,,,,,,,,,,,,,,,,,,,,,,,,,,,,,,,,280.19496439999784,280.2112148999986,280.2112148999986,280.8284465999968,r,1.0,0.6001224999999977,,,,,,sub-062,1.0,stroop_test,60.02260451378681,
,,,,,,,,blau,blue,b,1.0,,,,,,,,,4.0,2.0,50.0,5.0,280.84389849999934,,,,,,,,,,,,,,,,,280.8294694999968,280.94406889999664,281.74393019999843,281.727815299997,,,,,,,,,,,,,,,,,,,,,,,,,,,,,,,,,,,281.72784319999846,281.74393019999843,281.74393019999843,282.4616619999979,b,1.0,0.7057105000021693,,,,,,sub-062,1.0,stroop_test,60.02260451378681,
,,,,,,,,blau,yellow,g,0.0,,,,,,,,,4.0,3.0,51.0,7.0,282.4771802999967,,,,,,,,,,,,,,,,,282.46264459999657,282.82710549999683,283.6269119999997,283.6110453000001,,,,,,,,,,,,,,,,,,,,,,,,,,,,,,,,,,,283.6110730999972,283.6269119999997,283.6269119999997,284.5777299000001,g,1.0,0.9388417000009212,,,,,,sub-062,1.0,stroop_test,60.02260451378681,
,,,,,,,,rot,yellow,g,0.0,,,,,,,,,4.0,4.0,52.0,3.0,284.5934502999989,,,,,,,,,,,,,,,,,284.57870550000007,284.69332519999807,285.4931519999991,285.4773088999973,,,,,,,,,,,,,,,,,,,,,,,,,,,,,,,,,,,285.4773365000001,285.4931519999991,285.4931519999991,287.4775230999985,g,1.0,1.9727364999998829,,,,,,sub-062,1.0,stroop_test,60.02260451378681,
,,,,,,,,gelb,yellow,g,1.0,,,,,,,,,4.0,5.0,53.0,11.0,287.4929263999984,,,,,,,,,,,,,,,,,287.47851249999803,288.69264779999867,289.49270819999947,289.47659249999924,,,,,,,,,,,,,,,,,,,,,,,,,,,,,,,,,,,289.4766197999997,289.49270819999947,289.49270819999947,290.17710149999766,g,1.0,0.6713579999996,,,,,,sub-062,1.0,stroop_test,60.02260451378681,
,,,,,,,,gelb,red,r,0.0,,,,,,,,,4.0,6.0,54.0,8.0,290.19243469999856,,,,,,,,,,,,,,,,,290.1780714999986,291.39243109999734,292.1922386999977,292.17617399999654,,,,,,,,,,,,,,,,,,,,,,,,,,,,,,,,,,,292.17620909999823,292.1922386999977,292.1922386999977,293.2097392999967,r,1.0,1.0140464999967662,,,,,,sub-062,1.0,stroop_test,60.02260451378681,
,,,,,,,,rot,blue,b,0.0,,,,,,,,,4.0,7.0,55.0,2.0,293.22532429999774,,,,,,,,,,,,,,,,,293.21071649999794,294.42519919999904,295.22514449999653,295.209006699999,,,,,,,,,,,,,,,,,,,,,,,,,,,,,,,,,,,295.2090333999986,295.22514449999653,295.22514449999653,296.14282399999865,b,1.0,0.9112701000012748,,,,,,sub-062,1.0,stroop_test,60.02260451378681,
,,,,,,,,blau,red,r,0.0,,,,,,,,,4.0,8.0,56.0,4.0,296.158106699997,,,,,,,,,,,,,,,,,296.143812899998,296.9579801999971,297.75787319999654,297.74199529999896,,,,,,,,,,,,,,,,,,,,,,,,,,,,,,,,,,,297.7420226999966,297.75787319999654,297.75787319999654,298.75904509999964,r,1.0,0.9969547999971836,,,,,,sub-062,1.0,stroop_test,60.02260451378681,
,,,,,,,,blau,blue,b,1.0,,,,,,,,,4.0,9.0,57.0,6.0,298.77452899999844,,,,,,,,,,,,,,,,,298.7600175999978,298.87460779999674,299.6743014999993,299.6584109999967,,,,,,,,,,,,,,,,,,,,,,,,,,,,,,,,,,,299.6584382999972,299.6743014999993,299.6743014999993,300.5753659999973,b,1.0,0.8911241999994672,,,,,,sub-062,1.0,stroop_test,60.02260451378681,
,,,,,,,,gelb,blue,b,0.0,,,,,,,,,4.0,10.0,58.0,9.0,300.5909455000001,,,,,,,,,,,,,,,,,300.57632620000004,300.6907448999991,301.49059099999795,301.4747290999985,,,,,,,,,,,,,,,,,,,,,,,,,,,,,,,,,,,301.47475589999885,301.49059099999795,301.49059099999795,302.69219389999853,b,1.0,1.2001895000030345,,,,,,sub-062,1.0,stroop_test,60.02260451378681,
,,,,,,,,rot,red,r,1.0,,,,,,,,,4.0,11.0,59.0,0.0,302.7072956999982,,,,,,,,,,,,,,,,,302.6931741999979,302.80706499999724,303.6072834999977,303.5910370999991,,,,,,,,,,,,,,,,,,,,,,,,,,,,,,,,,,,303.5910644999967,303.6072834999977,303.6072834999977,304.25805529999707,r,1.0,0.6345119000034174,,,,,,sub-062,1.0,stroop_test,60.02260451378681,
,,,,,,,,rot,blue,b,0.0,,,,,,,,,5.0,0.0,60.0,2.0,304.2734548999979,,,,,,,,,,,,,,,,,304.25906829999803,305.4734892999986,306.2732706999996,306.2572583999972,,,,,,,,,,,,,,,,,,,,,,,,,,,,,,,,,,,306.257285599997,306.2732706999996,306.2732706999996,307.17436219999945,b,1.0,0.8950881999990088,,,,,,sub-062,1.0,stroop_test,60.02260451378681,
,,,,,,,,blau,yellow,g,0.0,,,,,,,,,5.0,1.0,61.0,7.0,307.1898437999989,,,,,,,,,,,,,,,,,307.1754742999983,307.2898215999994,308.08948739999687,308.0737670999988,,,,,,,,,,,,,,,,,,,,,,,,,,,,,,,,,,,308.0737945999972,308.08948739999687,308.08948739999687,309.3900569999969,b,0.0,1.2860040000014124,,,,,,sub-062,1.0,stroop_test,60.02260451378681,
,,,,,,,,rot,red,r,1.0,,,,,,,,,5.0,2.0,62.0,1.0,309.4059985999993,,,,,,,,,,,,,,,,,309.39061579999907,310.6060046999992,311.40574859999833,311.3898710999965,,,,,,,,,,,,,,,,,,,,,,,,,,,,,,,,,,,311.3898984999978,311.40574859999833,311.40574859999833,312.2400756999996,r,1.0,0.8206043999998656,,,,,,sub-062,1.0,stroop_test,60.02260451378681,
,,,,,,,,gelb,yellow,g,1.0,,,,,,,,,5.0,3.0,63.0,11.0,312.25564969999687,,,,,,,,,,,,,,,,,312.241066999999,313.4554627999969,314.2552480999984,314.2391977999978,,,,,,,,,,,,,,,,,,,,,,,,,,,,,,,,,,,314.23922479999965,314.2552480999984,314.2552480999984,315.4896128999972,g,1.0,1.230560300002253,,,,,,sub-062,1.0,stroop_test,60.02260451378681,
,,,,,,,,gelb,red,r,0.0,,,,,,,,,5.0,4.0,64.0,8.0,315.5052185999993,,,,,,,,,,,,,,,,,315.4906026999997,316.30497209999885,317.10474389999945,317.0888473999985,,,,,,,,,,,,,,,,,,,,,,,,,,,,,,,,,,,317.0888750999984,317.10474389999945,317.10474389999945,317.85593639999934,r,1.0,0.7453994999996212,,,,,,sub-062,1.0,stroop_test,60.02260451378681,
,,,,,,,,gelb,yellow,g,1.0,,,,,,,,,5.0,5.0,65.0,10.0,317.8713897999987,,,,,,,,,,,,,,,,,317.8568962999998,319.07118959999934,319.871089799999,319.85515849999865,,,,,,,,,,,,,,,,,,,,,,,,,,,,,,,,,,,319.8551864000001,319.871089799999,319.871089799999,321.00529299999835,g,1.0,1.1168862000013178,,,,,,sub-062,1.0,stroop_test,60.02260451378681,
,,,,,,,,rot,yellow,g,0.0,,,,,,,,,5.0,6.0,66.0,3.0,321.0208473999992,,,,,,,,,,,,,,,,,321.0062665999976,321.37067919999754,322.17056089999824,322.1547205999996,,,,,,,,,,,,,,,,,,,,,,,,,,,,,,,,,,,322.1547486999989,322.17056089999824,322.17056089999824,323.5216044999979,g,1.0,1.3423161999999138,,,,,,sub-062,1.0,stroop_test,60.02260451378681,
,,,,,,,,rot,red,r,1.0,,,,,,,,,5.0,7.0,67.0,0.0,323.5372138999992,,,,,,,,,,,,,,,,,323.5225833999976,324.33700269999827,325.1368915999992,325.12073749999763,,,,,,,,,,,,,,,,,,,,,,,,,,,,,,,,,,,325.12076439999873,325.1368915999992,325.1368915999992,325.8045698999995,r,1.0,0.6599017000007734,,,,,,sub-062,1.0,stroop_test,60.02260451378681,
,,,,,,,,blau,blue,b,1.0,,,,,,,,,5.0,8.0,68.0,6.0,325.81995899999674,,,,,,,,,,,,,,,,,325.80552909999824,325.9201149999972,326.7200082999989,326.70402599999943,,,,,,,,,,,,,,,,,,,,,,,,,,,,,,,,,,,326.7040538000001,326.7200082999989,326.7200082999989,327.5211131999968,b,1.0,0.7949506000004476,,,,,,sub-062,1.0,stroop_test,60.02260451378681,
,,,,,,,,blau,blue,b,1.0,,,,,,,,,5.0,9.0,69.0,5.0,327.5365626999992,,,,,,,,,,,,,,,,,327.5221215999991,327.8864388999973,328.686185999999,328.6702443999966,,,,,,,,,,,,,,,,,,,,,,,,,,,,,,,,,,,328.67027229999803,328.686185999999,328.686185999999,329.20403669999723,b,1.0,0.5060464999987744,,,,,,sub-062,1.0,stroop_test,60.02260451378681,
,,,,,,,,blau,red,r,0.0,,,,,,,,,5.0,10.0,70.0,4.0,329.2194385999974,,,,,,,,,,,,,,,,,329.205011799997,330.419354499998,331.2193120999982,331.2032306000001,,,,,,,,,,,,,,,,,,,,,,,,,,,,,,,,,,,331.20325819999925,331.2193120999982,331.2193120999982,331.97049179999885,r,1.0,0.7442557000031229,,,,,,sub-062,1.0,stroop_test,60.02260451378681,
,,,,,,,,gelb,blue,b,0.0,,,,,,,,,5.0,11.0,71.0,9.0,331.9856366999993,,,,,,,,,,,,,,,,,331.9714502999996,332.08562299999903,332.88563879999856,332.8696850999986,,,,,,,,,,,,,,,,,,,,,,,,,,,,,,,,,,,332.86971359999734,332.88563879999856,332.88563879999856,334.0031420999985,b,1.0,1.1025551999991876,,,,,,sub-062,1.0,stroop_test,60.02260451378681,
,,,,,,,,blau,red,r,0.0,,,,,,,,,6.0,0.0,72.0,4.0,334.01867299999867,,,,,,,,,,,,,,,,,334.00410439999905,334.368741899998,335.16852449999715,335.1526692999978,,,,,,,,,,,,,,,,,,,,,,,,,,,,,,,,,,,335.1526965999983,335.16852449999715,335.16852449999715,335.91977569999653,r,1.0,0.7350496999970346,,,,,,sub-062,1.0,stroop_test,60.02260451378681,
,,,,,,,,blau,blue,b,1.0,,,,,,,,,6.0,1.0,73.0,6.0,335.9351268999999,,,,,,,,,,,,,,,,,335.9207489999972,336.2850518999985,337.0849724,337.0687830999996,,,,,,,,,,,,,,,,,,,,,,,,,,,,,,,,,,,337.06881149999754,337.0849724,337.0849724,337.80270259999816,b,1.0,0.7162484999971639,,,,,,sub-062,1.0,stroop_test,60.02260451378681,
,,,,,,,,gelb,yellow,g,1.0,,,,,,,,,6.0,2.0,74.0,10.0,337.818080699999,,,,,,,,,,,,,,,,,337.80368709999675,338.16808390000006,338.9680561999994,338.9520053999986,,,,,,,,,,,,,,,,,,,,,,,,,,,,,,,,,,,338.9520329999977,338.9680561999994,338.9680561999994,339.8856896999969,g,1.0,0.9107517000011284,,,,,,sub-062,1.0,stroop_test,60.02260451378681,
,,,,,,,,rot,red,r,1.0,,,,,,,,,6.0,3.0,75.0,0.0,339.90129069999966,,,,,,,,,,,,,,,,,339.88666669999657,340.701051,341.50074739999764,341.4847456999996,,,,,,,,,,,,,,,,,,,,,,,,,,,,,,,,,,,341.4847725999971,341.50074739999764,341.50074739999764,342.18509939999785,r,1.0,0.6814302999991924,,,,,,sub-062,1.0,stroop_test,60.02260451378681,
,,,,,,,,rot,red,r,1.0,,,,,,,,,6.0,4.0,76.0,1.0,342.20063599999776,,,,,,,,,,,,,,,,,342.18608289999975,342.30066929999884,343.1006630999982,343.0845929999996,,,,,,,,,,,,,,,,,,,,,,,,,,,,,,,,,,,343.08462019999934,343.1006630999982,343.1006630999982,343.85168559999875,r,1.0,0.7440453999988677,,,,,,sub-062,1.0,stroop_test,60.02260451378681,
,,,,,,,,rot,yellow,g,0.0,,,,,,,,,6.0,5.0,77.0,3.0,343.86710719999974,,,,,,,,,,,,,,,,,343.8526815999976,343.9671570999999,344.7670217999985,344.75085919999765,,,,,,,,,,,,,,,,,,,,,,,,,,,,,,,,,,,344.75088649999816,344.7670217999985,344.7670217999985,345.5680137999989,g,1.0,0.7882673000021896,,,,,,sub-062,1.0,stroop_test,60.02260451378681,
,,,,,,,,gelb,yellow,g,1.0,,,,,,,,,6.0,6.0,78.0,11.0,345.5835326999986,,,,,,,,,,,,,,,,,345.5690472999995,346.383509299998,347.18325959999856,347.1672469999976,,,,,,,,,,,,,,,,,,,,,,,,,,,,,,,,,,,347.1672746999975,347.18325959999856,347.18325959999856,347.9010454999989,g,1.0,0.7122691000004124,,,,,,sub-062,1.0,stroop_test,60.02260451378681,
,,,,,,,,gelb,blue,b,0.0,,,,,,,,,6.0,7.0,79.0,9.0,347.91663770000014,,,,,,,,,,,,,,,,,347.9020340999996,348.71639119999963,349.516291699998,349.5002510999984,,,,,,,,,,,,,,,,,,,,,,,,,,,,,,,,,,,349.5002791999977,349.516291699998,349.516291699998,350.750505,b,1.0,1.2316594000003531,,,,,,sub-062,1.0,stroop_test,60.02260451378681,
,,,,,,,,rot,blue,b,0.0,,,,,,,,,6.0,8.0,80.0,2.0,350.76590339999893,,,,,,,,,,,,,,,,,350.75150159999976,351.9658101999994,352.76560849999805,352.74981099999786,,,,,,,,,,,,,,,,,,,,,,,,,,,,,,,,,,,352.7498386999978,352.76560849999805,352.76560849999805,353.9331725999982,b,1.0,1.160534099999495,,,,,,sub-062,1.0,stroop_test,60.02260451378681,
,,,,,,,,blau,blue,b,1.0,,,,,,,,,6.0,9.0,81.0,5.0,353.94872979999855,,,,,,,,,,,,,,,,,353.934172199999,354.2988187999981,355.0987634999983,355.08273989999725,,,,,,,,,,,,,,,,,,,,,,,,,,,,,,,,,,,355.0827669999999,355.0987634999983,355.0987634999983,355.7829084999976,b,1.0,0.6795151000005717,,,,,,sub-062,1.0,stroop_test,60.02260451378681,
,,,,,,,,blau,yellow,g,0.0,,,,,,,,,6.0,10.0,82.0,7.0,355.7985087999987,,,,,,,,,,,,,,,,,355.7835973000001,356.1484778999984,356.948414399998,356.9322988999993,,,,,,,,,,,,,,,,,,,,,,,,,,,,,,,,,,,356.93232609999905,356.948414399998,356.948414399998,357.9665348999988,g,1.0,1.0163116000003356,,,,,,sub-062,1.0,stroop_test,60.02260451378681,
,,,,,,,,gelb,red,r,0.0,,,,,,,,,6.0,11.0,83.0,8.0,357.98161159999654,,,,,,,,,,,,,,,,,357.96751719999884,358.08139239999946,358.88147039999967,358.8652838999988,,,,,,,,,,,,,,,,,,,,,,,,,,,,,,,,,,,358.86531099999775,358.88147039999967,358.88147039999967,359.732465699999,r,1.0,0.848048200001358,,,,,,sub-062,1.0,stroop_test,60.02260451378681,
,,,,,,,,rot,blue,b,0.0,,,,,,,,,7.0,0.0,84.0,2.0,359.748037399997,,,,,,,,,,,,,,,,,359.73345999999947,360.94759749999866,361.7474640999972,361.731734099998,,,,,,,,,,,,,,,,,,,,,,,,,,,,,,,,,,,361.7317619999994,361.7474640999972,361.7474640999972,362.8486993999977,b,1.0,1.0901924000027066,,,,,,sub-062,1.0,stroop_test,60.02260451378681,
,,,,,,,,gelb,blue,b,0.0,,,,,,,,,7.0,1.0,85.0,9.0,362.8641007999977,,,,,,,,,,,,,,,,,362.8497185999986,363.21410789999936,364.0140578999999,363.9979781999973,,,,,,,,,,,,,,,,,,,,,,,,,,,,,,,,,,,363.9980051999992,364.0140578999999,364.0140578999999,365.71469389999766,b,1.0,1.691704300003039,,,,,,sub-062,1.0,stroop_test,60.02260451378681,
,,,,,,,,gelb,yellow,g,1.0,,,,,,,,,7.0,2.0,86.0,11.0,365.7303173999972,,,,,,,,,,,,,,,,,365.7156773999996,366.0802083999988,366.8801830999983,366.8641665999967,,,,,,,,,,,,,,,,,,,,,,,,,,,,,,,,,,,366.8641945999989,366.8801830999983,366.8801830999983,368.4142503999974,g,1.0,1.528400099999999,,,,,,sub-062,1.0,stroop_test,60.02260451378681,
,,,,,,,,rot,yellow,g,0.0,,,,,,,,,7.0,3.0,87.0,3.0,368.4297951999979,,,,,,,,,,,,,,,,,368.4152542999982,369.62973959999727,370.4294974999975,370.4135878999987,,,,,,,,,,,,,,,,,,,,,,,,,,,,,,,,,,,370.4136153,370.4294974999975,370.4294974999975,371.56395319999865,g,1.0,1.1262507000028563,,,,,,sub-062,1.0,stroop_test,60.02260451378681,
,,,,,,,,rot,red,r,1.0,,,,,,,,,7.0,4.0,88.0,0.0,371.5794186999992,,,,,,,,,,,,,,,,,371.5649253999982,372.779010899998,373.5788804999975,373.5628797999998,,,,,,,,,,,,,,,,,,,,,,,,,,,,,,,,,,,373.5629071999974,373.5788804999975,373.5788804999975,374.2299972999972,r,1.0,0.6345777999995335,,,,,,sub-062,1.0,stroop_test,60.02260451378681,
,,,,,,,,blau,red,r,0.0,,,,,,,,,7.0,5.0,89.0,4.0,374.2455802999975,,,,,,,,,,,,,,,,,374.2309694999967,374.3454493999998,375.1453909999982,375.12946779999766,,,,,,,,,,,,,,,,,,,,,,,,,,,,,,,,,,,375.1294951999989,375.1453909999982,375.1453909999982,376.5295921999968,r,1.0,1.373665399998572,,,,,,sub-062,1.0,stroop_test,60.02260451378681,
,,,,,,,,blau,blue,b,1.0,,,,,,,,,7.0,6.0,90.0,5.0,376.5450411999991,,,,,,,,,,,,,,,,,376.5305673999974,377.7448606999969,378.5447675999967,378.52887819999887,,,,,,,,,,,,,,,,,,,,,,,,,,,,,,,,,,,378.5289060999967,378.5447675999967,378.5447675999967,379.312691799998,b,1.0,0.7654648999996425,,,,,,sub-062,1.0,stroop_test,60.02260451378681,
,,,,,,,,blau,blue,b,1.0,,,,,,,,,7.0,7.0,91.0,6.0,379.3281551,,,,,,,,,,,,,,,,,379.3136450999991,380.5277590999976,381.3278495999984,381.3117591999981,,,,,,,,,,,,,,,,,,,,,,,,,,,,,,,,,,,381.3117867000001,381.3278495999984,381.3278495999984,382.0953593999984,b,1.0,0.7648984999977984,,,,,,sub-062,1.0,stroop_test,60.02260451378681,
,,,,,,,,gelb,red,r,0.0,,,,,,,,,7.0,8.0,92.0,8.0,382.1109497999969,,,,,,,,,,,,,,,,,382.0963241999998,382.2109829999972,383.01077879999866,382.9948768999966,,,,,,,,,,,,,,,,,,,,,,,,,,,,,,,,,,,382.9949042999978,383.01077879999866,383.01077879999866,384.21185069999774,r,1.0,1.197532800000772,,,,,,sub-062,1.0,stroop_test,60.02260451378681,
,,,,,,,,gelb,yellow,g,1.0,,,,,,,,,7.0,9.0,93.0,10.0,384.2272585999999,,,,,,,,,,,,,,,,,384.2128159999993,385.42718389999936,386.2268636999979,386.2109311999993,,,,,,,,,,,,,,,,,,,,,,,,,,,,,,,,,,,386.21095849999983,386.2268636999979,386.2268636999979,387.1278788999989,g,1.0,0.8928734000000986,,,,,,sub-062,1.0,stroop_test,60.02260451378681,
,,,,,,,,blau,yellow,g,0.0,,,,,,,,,7.0,10.0,94.0,7.0,387.14350449999984,,,,,,,,,,,,,,,,,387.1288513,387.9433990999969,388.7431046999991,388.7272233999975,,,,,,,,,,,,,,,,,,,,,,,,,,,,,,,,,,,388.72725029999856,388.7431046999991,388.7431046999991,389.9107695999992,g,1.0,1.1517505000010717,,,,,,sub-062,1.0,stroop_test,60.02260451378681,
,,,,,,,,rot,red,r,1.0,,,,,,,,,7.0,11.0,95.0,1.0,389.9263111,,,,,,,,,,,,,,,,,389.9117649,390.7262338000001,391.5261769999997,391.5100980999996,,,,,,,,,,,,,,,,,,,,,,,,,,,,,,,,,,,391.5101251999986,391.5261769999997,391.5261769999997,392.2772565999985,r,1.0,0.7442932999983896,,,,,,sub-062,1.0,stroop_test,60.02260451378681,
,,,,,,,,blau,yellow,g,0.0,,,,,,,,,8.0,0.0,96.0,7.0,392.2926308999995,,,,,,,,,,,,,,,,,392.278230099997,392.6425939999972,393.4423212999973,393.4264914999985,,,,,,,,,,,,,,,,,,,,,,,,,,,,,,,,,,,393.4265189999969,393.4423212999973,393.4423212999973,394.3600911999965,g,1.0,0.9134207999995853,,,,,,sub-062,1.0,stroop_test,60.02260451378681,
,,,,,,,,rot,red,r,1.0,,,,,,,,,8.0,1.0,97.0,1.0,394.37552629999846,,,,,,,,,,,,,,,,,394.3610797999973,394.7254811999992,395.5255289999986,395.5095392999974,,,,,,,,,,,,,,,,,,,,,,,,,,,,,,,,,,,395.5095664999972,395.5255289999986,395.5255289999986,396.1597608999982,r,1.0,0.6236337000009371,,,,,,sub-062,1.0,stroop_test,60.02260451378681,
,,,,,,,,gelb,yellow,g,1.0,,,,,,,,,8.0,2.0,98.0,10.0,396.1752125999992,,,,,,,,,,,,,,,,,396.16071849999935,396.5251836999996,397.3251924999968,397.3089863999994,,,,,,,,,,,,,,,,,,,,,,,,,,,,,,,,,,,397.3090140999993,397.3251924999968,397.3251924999968,398.00961219999954,g,1.0,0.6793517000005522,,,,,,sub-062,1.0,stroop_test,60.02260451378681,
,,,,,,,,blau,red,r,0.0,,,,,,,,,8.0,3.0,99.0,4.0,398.025039199998,,,,,,,,,,,,,,,,,398.0105831999972,398.3748554999984,399.17491829999926,399.1588981999994,,,,,,,,,,,,,,,,,,,,,,,,,,,,,,,,,,,399.1589256999978,399.17491829999926,399.17491829999926,400.4257418999987,r,1.0,1.2362432000008994,,,,,,sub-062,1.0,stroop_test,60.02260451378681,
,,,,,,,,rot,yellow,g,0.0,,,,,,,,,8.0,4.0,100.0,3.0,400.4411618999984,,,,,,,,,,,,,,,,,400.4267058999976,400.5412695999985,401.3411650999988,401.32502679999743,,,,,,,,,,,,,,,,,,,,,,,,,,,,,,,,,,,401.3250546999989,401.3411650999988,401.3411650999988,402.3421030999998,g,1.0,0.9898592999998072,,,,,,sub-062,1.0,stroop_test,60.02260451378681,
,,,,,,,,gelb,blue,b,0.0,,,,,,,,,8.0,5.0,101.0,9.0,402.3576809999977,,,,,,,,,,,,,,,,,402.343084199998,403.1574317999985,403.9575337999995,403.9415610999968,,,,,,,,,,,,,,,,,,,,,,,,,,,,,,,,,,,403.9415885999988,403.9575337999995,403.9575337999995,404.82504979999794,b,1.0,0.8587774999978137,,,,,,sub-062,1.0,stroop_test,60.02260451378681,
,,,,,,,,rot,red,r,1.0,,,,,,,,,8.0,6.0,102.0,0.0,404.84058749999895,,,,,,,,,,,,,,,,,404.8260334999977,404.9405193999992,405.7404549999992,405.7243795999966,,,,,,,,,,,,,,,,,,,,,,,,,,,,,,,,,,,405.7244065999985,405.7404549999992,405.7404549999992,406.5081111999971,r,1.0,0.7561959000013303,,,,,,sub-062,1.0,stroop_test,60.02260451378681,
,,,,,,,,gelb,red,r,0.0,,,,,,,,,8.0,7.0,103.0,8.0,406.5235156999988,,,,,,,,,,,,,,,,,406.5090769999988,406.8737077999977,407.6737398999976,407.6574800999988,,,,,,,,,,,,,,,,,,,,,,,,,,,,,,,,,,,407.657518,407.6737398999976,407.6737398999976,409.9742469999983,r,1.0,2.294777899998735,,,,,,sub-062,1.0,stroop_test,60.02260451378681,
,,,,,,,,gelb,yellow,g,1.0,,,,,,,,,8.0,8.0,104.0,11.0,409.9898342999986,,,,,,,,,,,,,,,,,409.9752082999985,410.78971269999965,411.5894690999994,411.57358679999743,,,,,,,,,,,,,,,,,,,,,,,,,,,,,,,,,,,411.5736139999972,411.5894690999994,411.5894690999994,412.2904834000001,g,1.0,0.6983598000006168,,,,,,sub-062,1.0,stroop_test,60.02260451378681,
,,,,,,,,rot,blue,b,0.0,,,,,,,,,8.0,9.0,105.0,2.0,412.3059583999966,,,,,,,,,,,,,,,,,412.2914497999991,413.10601809999935,413.9058232999996,413.8897165999988,,,,,,,,,,,,,,,,,,,,,,,,,,,,,,,,,,,413.88974459999736,413.9058232999996,413.9058232999996,414.7570134999987,b,1.0,0.8477903999992122,,,,,,sub-062,1.0,stroop_test,60.02260451378681,
,,,,,,,,blau,blue,b,1.0,,,,,,,,,8.0,10.0,106.0,6.0,414.7723077999981,,,,,,,,,,,,,,,,,414.7580195999981,414.87232689999655,415.6722852999992,415.6562758999971,,,,,,,,,,,,,,,,,,,,,,,,,,,,,,,,,,,415.65630279999823,415.6722852999992,415.6722852999992,416.2237838999972,b,1.0,0.5497307000005094,,,,,,sub-062,1.0,stroop_test,60.02260451378681,
,,,,,,,,blau,blue,b,1.0,,,,,,,,,8.0,11.0,107.0,5.0,416.23871659999713,,,,,,,,,,,,,,,,,416.22474269999657,417.4385903999973,418.2385033999999,418.22241639999993,,,,,,,,,,,,,,,,,,,,,,,,,,,,,,,,,,,418.2224435999997,418.2385033999999,418.2385033999999,418.7729508999983,b,1.0,0.522432599998865,,,,,,sub-062,1.0,stroop_test,60.02260451378681,
,,,,,,,,gelb,yellow,g,1.0,,,,,,,,,9.0,0.0,108.0,10.0,418.78837099999873,,,,,,,,,,,,,,,,,418.7739163999977,419.9882741000001,420.78790599999775,420.7720029999982,,,,,,,,,,,,,,,,,,,,,,,,,,,,,,,,,,,420.7720300999972,420.78790599999775,420.78790599999775,421.322332599997,g,1.0,0.5270776000033948,,,,,,sub-062,1.0,stroop_test,60.02260451378681,
,,,,,,,,gelb,red,r,0.0,,,,,,,,,9.0,1.0,109.0,8.0,421.3379444999992,,,,,,,,,,,,,,,,,421.32331769999655,422.537636699999,423.3378820999969,423.3218574999992,,,,,,,,,,,,,,,,,,,,,,,,,,,,,,,,,,,423.3218850999983,423.3378820999969,423.3378820999969,423.8886886999972,r,1.0,0.541093699997873,,,,,,sub-062,1.0,stroop_test,60.02260451378681,
,,,,,,,,rot,blue,b,0.0,,,,,,,,,9.0,2.0,110.0,2.0,423.9039997999971,,,,,,,,,,,,,,,,,423.88967649999904,424.2541041999975,425.0541973,425.0379788999999,,,,,,,,,,,,,,,,,,,,,,,,,,,,,,,,,,,425.0380072999978,425.0541973,425.0541973,425.9049457999972,b,1.0,0.8402447999978904,,,,,,sub-062,1.0,stroop_test,60.02260451378681,
,,,,,,,,blau,blue,b,1.0,,,,,,,,,9.0,3.0,111.0,5.0,425.92072039999766,,,,,,,,,,,,,,,,,425.9059269999998,426.7201610999982,427.5202137999986,427.5043444999974,,,,,,,,,,,,,,,,,,,,,,,,,,,,,,,,,,,427.50437189999866,427.5202137999986,427.5202137999986,428.10457569999926,b,1.0,0.5691458000001148,,,,,,sub-062,1.0,stroop_test,60.02260451378681,
,,,,,,,,blau,yellow,g,0.0,,,,,,,,,9.0,4.0,112.0,7.0,428.12003959999856,,,,,,,,,,,,,,,,,428.10554389999743,428.2199993999966,429.0198943999967,429.0038626999994,,,,,,,,,,,,,,,,,,,,,,,,,,,,,,,,,,,429.0038902999986,429.0198943999967,429.0198943999967,429.8210123999997,g,1.0,0.7945183000010729,,,,,,sub-062,1.0,stroop_test,60.02260451378681,
,,,,,,,,rot,red,r,1.0,,,,,,,,,9.0,5.0,113.0,1.0,429.83639369999946,,,,,,,,,,,,,,,,,429.82198029999927,429.93658399999913,430.736442999998,430.720405,,,,,,,,,,,,,,,,,,,,,,,,,,,,,,,,,,,430.7204325999992,430.736442999998,430.736442999998,431.2375432999979,r,1.0,0.4917172999994363,,,,,,sub-062,1.0,stroop_test,60.02260451378681,
,,,,,,,,gelb,yellow,g,1.0,,,,,,,,,9.0,6.0,114.0,11.0,431.2529532999979,,,,,,,,,,,,,,,,,431.2385325999967,431.3530318999983,432.1528289999988,432.1367168999968,,,,,,,,,,,,,,,,,,,,,,,,,,,,,,,,,,,432.13674399999945,432.1528289999988,432.1528289999988,433.00372759999664,g,1.0,0.8382358999988355,,,,,,sub-062,1.0,stroop_test,60.02260451378681,
,,,,,,,,rot,yellow,g,0.0,,,,,,,,,9.0,7.0,115.0,3.0,433.0193943999984,,,,,,,,,,,,,,,,,433.0047041999969,433.3692273999986,434.1691667999985,434.1530876999968,,,,,,,,,,,,,,,,,,,,,,,,,,,,,,,,,,,434.1531148999966,434.1691667999985,434.1691667999985,435.80343699999867,g,1.0,1.6191814000012528,,,,,,sub-062,1.0,stroop_test,60.02260451378681,
,,,,,,,,rot,red,r,1.0,,,,,,,,,9.0,8.0,116.0,0.0,435.8190207999978,,,,,,,,,,,,,,,,,435.8044166,436.1688600999987,436.96875379999983,436.9527318,,,,,,,,,,,,,,,,,,,,,,,,,,,,,,,,,,,436.9527595999971,436.96875379999983,436.96875379999983,437.6196039999995,r,1.0,0.6345449000000372,,,,,,sub-062,1.0,stroop_test,60.02260451378681,
,,,,,,,,blau,blue,b,1.0,,,,,,,,,9.0,9.0,117.0,6.0,437.6352737999987,,,,,,,,,,,,,,,,,437.6205990999988,438.8350353999994,439.6350929,439.6190394999976,,,,,,,,,,,,,,,,,,,,,,,,,,,,,,,,,,,439.6190672999983,439.6350929,439.6350929,440.2691382999983,b,1.0,0.6321626999997534,,,,,,sub-062,1.0,stroop_test,60.02260451378681,
,,,,,,,,blau,red,r,0.0,,,,,,,,,9.0,10.0,118.0,4.0,440.2848398999995,,,,,,,,,,,,,,,,,440.2701391999981,440.6347650999997,441.4346508999988,441.41865389999657,,,,,,,,,,,,,,,,,,,,,,,,,,,,,,,,,,,441.4186813999986,441.4346508999988,441.4346508999988,442.5697831999969,r,1.0,1.1334516999995683,,,,,,sub-062,1.0,stroop_test,60.02260451378681,
,,,,,,,,gelb,blue,b,0.0,,,,,,,,,9.0,11.0,119.0,9.0,442.5843927999995,,,,,,,,,,,,,,,,,442.5707498999982,442.9345065999987,443.7344104999975,443.7183560999984,,,,,,,,,,,,,,,,,,,,,,,,,,,,,,,,,,,443.7183836999975,443.7344104999975,443.7344104999975,444.7852582999985,b,1.0,1.0422199000022374,,,,,,sub-062,1.0,stroop_test,60.02260451378681,
,,,,,,,,,,,,,,,,,,,,,,,,,,,,,,,,,,,,,,,,,,,,,,,,,,,,,,,,,,,,,,,,,,,,,,,,,,,,,,,,,,,,,,,444.78595669999777,444.80071249999673,449.7999501999984,449.7840135999977,sub-062,,,,
