wordCTK,colorCTK,corrAnsCTK,congruentCTK,thisN,thisTrialN,thisRepN,keyResp_CTK.keys,keyResp_CTK.corr,keyResp_CTK.rt,keyResp_CTK.duration,wordPractice,colorPractice,corrAnsPractice,congruentPractice,respPractice.keys,respPractice.corr,respPractice.rt,respPractice.duration,word,color,corrAns,congruent,keyResp_test_run.keys,keyResp_test_run.corr,keyResp_test_run.rt,keyResp_test_run.duration,trials_CTK.thisRepN,trials_CTK.thisTrialN,trials_CTK.thisN,trials_CTK.thisIndex,trials_practice.thisRepN,trials_practice.thisTrialN,trials_practice.thisN,trials_practice.thisIndex,trials_test.thisRepN,trials_test.thisTrialN,trials_test.thisN,trials_test.thisIndex,thisRow.t,notes,instruction.started,instr_text.started,instr_image.started,instr_resp.started,instruction.stopped,instr_resp.keys,instr_resp.rt,instr_resp.duration,instr_color_to_key.started,instr_ctk.started,resp_ctk.started,instr_color_to_key.stopped,resp_ctk.keys,resp_ctk.rt,resp_ctk.duration,ITI.started,fixcross.started,fixcross.stopped,ITI.stopped,color_to_key_run.started,stimulus_CTK.started,keyResp_CTK.started,color_to_key_run.stopped,trials_CTK.keyResp_CTK.keys,trials_CTK.keyResp_CTK.corr,trials_CTK.keyResp_CTK.rt,trials_CTK.keyResp_CTK.duration,instr_practice.started,instr_practice_text.started,instr_practice_resp.started,instr_practice.stopped,instr_practice_resp.keys,instr_practice_resp.rt,instr_practice_resp.duration,practice_run.started,stimulus_practice.started,respPractice.started,practice_run.stopped,trials_practice.respPractice.keys,trials_practice.respPractice.corr,trials_practice.respPractice.rt,trials_practice.respPractice.duration,feedback.started,textFeedback.started,feedback.stopped,textFeedback.stopped,instr_test.started,instr_test_text.started,instr_test_resp.started,instr_test.stopped,instr_test_resp.keys,instr_test_resp.rt,instr_test_resp.duration,test_run.started,stimulus_test_run.started,keyResp_test_run.started,test_run.stopped,trials_test.keyResp_test_run.keys,trials_test.keyResp_test_run.corr,trials_test.keyResp_test_run.rt,trials_test.keyResp_test_run.duration,goodbye.started,textGoodbye.started,goodbye.stopped,participant,session,expName,frameRate,Unnamed: 112
,,,,,,,,,,,,,,,,,,,,,,,,,,,,,,,,,,,,,,,,,0.0274317999719642,0.0785214999923482,0.0785214999923482,0.0785214999923482,27.534201200003736,space,27.102685099991504,,,,,,,,,,,,,,,,,,,,,,,,,,,,,,,,,,,,,,,,,,,,,,,,,,,,,,,,,,sub-018,1,stroop_test,60.296974674742266,
,,,,,,,,,,,,,,,,,,,,,,,,,,,,,,,,,,,,,,,,,,,,,,,,,27.534321299986917,27.54499979998218,27.54499979998218,32.313824000011664,space,4.754436000017449,,,,,,,,,,,,,,,,,,,,,,,,,,,,,,,,,,,,,,,,,,,,,,,,,,,sub-018,1,stroop_test,60.296974674742266,
test,red,r,1.0,0.0,0.0,0.0,r,1.0,1.174414999957662,,,,,,,,,,,,,,,,,,0.0,0.0,0.0,0.0,,,,,,,,,32.343736800015904,,,,,,,,,,,,,,,,,32.33947060001083,33.126775999960955,33.93226420000428,33.91072159999749,33.92606359999627,33.93226420000428,33.93226420000428,35.11189529998228,r,1.0,1.174414999957662,,,,,,,,,,,,,,,,,,,,,,,,,,,,,,,,,,,,,,,sub-018,1,stroop_test,60.296974674742266,
test,yellow,g,1.0,1.0,1.0,0.0,r,0.0,1.281028099998366,,,,,,,,,,,,,,,,,,0.0,1.0,1.0,1.0,,,,,,,,,35.12511889997404,,,,,,,,,,,,,,,,,35.11282929999288,35.224745699961204,36.02385840000352,36.00933019997319,36.01055379997706,36.02385840000352,36.02385840000352,37.31015159998788,r,0.0,1.281028099998366,,,,,,,,,,,,,,,,,,,,,,,,,,,,,,,,,,,,,,,sub-018,1,stroop_test,60.296974674742266,
test,blue,b,1.0,2.0,2.0,0.0,b,1.0,0.3617241999600082,,,,,,,,,,,,,,,,,,0.0,2.0,2.0,2.0,,,,,,,,,37.32278069999302,,,,,,,,,,,,,,,,,37.31074390001595,38.12237549998099,38.921665799978655,38.906573999964166,38.908075299987104,38.921665799978655,38.921665799978655,39.290861000015866,b,1.0,0.3617241999600082,,,,,,,,,,,,,,,,,,,,,,,,,,,,,,,,,,,,,,,sub-018,1,stroop_test,60.296974674742266,
test,yellow,g,1.0,3.0,0.0,1.0,g,1.0,0.924821000022348,,,,,,,,,,,,,,,,,,1.0,0.0,3.0,1.0,,,,,,,,,39.30398679996142,,,,,,,,,,,,,,,,,39.291774399986025,40.503301899996586,41.31899339996744,41.30275959998835,41.30323819996556,41.31899339996744,41.31899339996744,42.25522589997854,g,1.0,0.924821000022348,,,,,,,,,,,,,,,,,,,,,,,,,,,,,,,,,,,,,,,sub-018,1,stroop_test,60.296974674742266,
test,red,r,1.0,4.0,1.0,1.0,r,1.0,0.5430019000195898,,,,,,,,,,,,,,,,,,1.0,1.0,4.0,0.0,,,,,,,,,42.2681229999871,,,,,,,,,,,,,,,,,42.2561185999657,43.46732290001819,44.26619250001386,44.2515476999688,44.25306449999334,44.26619250001386,44.26619250001386,44.81878189998679,r,1.0,0.5430019000195898,,,,,,,,,,,,,,,,,,,,,,,,,,,,,,,,,,,,,,,sub-018,1,stroop_test,60.296974674742266,
test,blue,b,1.0,5.0,2.0,1.0,b,1.0,0.4008831999963149,,,,,,,,,,,,,,,,,,1.0,2.0,5.0,2.0,,,,,,,,,44.832255799963605,,,,,,,,,,,,,,,,,44.819555299996864,44.93223759997636,45.74776419997215,45.73165179998614,45.73197079997044,45.74776419997215,45.74776419997215,46.15227339998819,b,1.0,0.4008831999963149,,,,,,,,,,,,,,,,,,,,,,,,,,,,,,,,,,,,,,,sub-018,1,stroop_test,60.296974674742266,
test,blue,b,1.0,6.0,0.0,2.0,b,1.0,0.3770158000406809,,,,,,,,,,,,,,,,,,2.0,0.0,6.0,2.0,,,,,,,,,46.16440780000994,,,,,,,,,,,,,,,,,46.15307529998245,46.96419119997881,47.779792200017255,47.76396660000319,47.76485420000972,47.779792200017255,47.779792200017255,48.16638030001195,b,1.0,0.3770158000406809,,,,,,,,,,,,,,,,,,,,,,,,,,,,,,,,,,,,,,,sub-018,1,stroop_test,60.296974674742266,
test,red,r,1.0,7.0,1.0,2.0,r,1.0,0.5027732000453398,,,,,,,,,,,,,,,,,,2.0,1.0,7.0,0.0,,,,,,,,,48.17932619998464,,,,,,,,,,,,,,,,,48.16727759997593,48.27931129996432,49.07876419997774,49.06296539999312,49.06385719997343,49.07876419997774,49.07876419997774,49.59751489997143,r,1.0,0.5027732000453398,,,,,,,,,,,,,,,,,,,,,,,,,,,,,,,,,,,,,,,sub-018,1,stroop_test,60.296974674742266,
test,yellow,g,1.0,8.0,2.0,2.0,g,1.0,0.3355204999679699,,,,,,,,,,,,,,,,,,2.0,2.0,8.0,1.0,,,,,,,,,49.61121050000656,,,,,,,,,,,,,,,,,49.598322800011374,49.961127699993085,50.7602320999722,50.74606599996332,50.74773359997198,50.7602320999722,50.7602320999722,51.11281510000117,g,1.0,0.3355204999679699,,,,,,,,,,,,,,,,,,,,,,,,,,,,,,,,,,,,,,,sub-018,1,stroop_test,60.296974674742266,
test,blue,b,1.0,9.0,0.0,3.0,b,1.0,0.5499055000254884,,,,,,,,,,,,,,,,,,3.0,0.0,9.0,2.0,,,,,,,,,51.12645410001278,,,,,,,,,,,,,,,,,51.113605099963024,51.92630950000603,52.74191599996993,52.72745569999097,52.72892550000688,52.74191599996993,52.74191599996993,53.294448099972215,b,1.0,0.5499055000254884,,,,,,,,,,,,,,,,,,,,,,,,,,,,,,,,,,,,,,,sub-018,1,stroop_test,60.296974674742266,
test,red,r,1.0,10.0,1.0,3.0,r,1.0,0.5932034999714233,,,,,,,,,,,,,,,,,,3.0,1.0,10.0,0.0,,,,,,,,,53.30776870000409,,,,,,,,,,,,,,,,,53.29516819998389,54.50698629999533,55.30630699999165,55.29113739996683,55.29258959996514,55.30630699999165,55.30630699999165,55.90875399997458,r,1.0,0.5932034999714233,,,,,,,,,,,,,,,,,,,,,,,,,,,,,,,,,,,,,,,sub-018,1,stroop_test,60.296974674742266,
test,yellow,g,1.0,11.0,2.0,3.0,g,1.0,0.7714280000072904,,,,,,,,,,,,,,,,,,3.0,2.0,11.0,1.0,,,,,,,,,55.92205379996449,,,,,,,,,,,,,,,,,55.90967399999499,56.27185449999524,57.07087090000277,57.0570687999716,57.05855660000816,57.07087090000277,57.07087090000277,57.85689569998067,g,1.0,0.7714280000072904,,,,,,,,,,,,,,,,,,,,,,,,,,,,,,,,,,,,,,,sub-018,1,stroop_test,60.296974674742266,
,,,,,,,,,,,,,,,,,,,,,,,,,,,,,,,,,,,,,,,,,,,,,,,,,,,,,,,,,,,,,,,,,,,,57.85735890001524,57.87050000001909,57.87050000001909,62.60239369998453,space,4.72770590003347,,,,,,,,,,,,,,,,,,,,,,,,,,,,,,,,sub-018,1,stroop_test,60.296974674742266,
,,,,0.0,0.0,0.0,,,,,blau,blue,b,1.0,b,1.0,1.2453594999969937,,,,,,,,,,,,,,0.0,0.0,0.0,6.0,,,,,62.62597479997203,,,,,,,,,,,,,,,,,62.621685899968725,63.814900500001386,64.619001700019,64.59862249996513,,,,,,,,,,,,,,,,64.61309539998183,64.619001700019,64.619001700019,65.88175060000503,b,1.0,1.2453594999969937,,65.89869890001137,65.90458839997882,66.89572779997252,,,,,,,,,,,,,,,,,,,,sub-018,1,stroop_test,60.296974674742266,
,,,,1.0,1.0,0.0,,,,,gelb,blue,b,0.0,b,1.0,0.6082200999953784,,,,,,,,,,,,,,0.0,1.0,1.0,9.0,,,,,66.91207349998876,,,,,,,,,,,,,,,,,66.89662730001146,66.9954313999624,67.79559549997794,67.77984709996963,,,,,,,,,,,,,,,,67.78828019998036,67.79559549997794,67.79559549997794,68.4125730000087,b,1.0,0.6082200999953784,,68.41355529997963,68.42688719998114,69.41144170000916,69.42628620000323,,,,,,,,,,,,,,,,,,,sub-018,1,stroop_test,60.296974674742266,
,,,,2.0,2.0,0.0,,,,,blau,red,r,0.0,r,1.0,0.8108083999832161,,,,,,,,,,,,,,0.0,2.0,2.0,4.0,,,,,69.42628620000323,,,,,,,,,,,,,,,,,69.41237149998778,69.526384399971,70.32832839997718,70.31081709999125,,,,,,,,,,,,,,,,70.31986639997922,70.32832839997718,70.32832839997718,71.14440769999055,r,1.0,0.8108083999832161,,71.1457500999677,71.15791899996111,72.14095789997373,72.15690110001015,,,,,,,,,,,,,,,,,,,sub-018,1,stroop_test,60.296974674742266,
,,,,3.0,3.0,0.0,,,,,blau,blue,b,1.0,b,1.0,0.6396822999813594,,,,,,,,,,,,,,0.0,3.0,3.0,5.0,,,,,72.15690110001015,,,,,,,,,,,,,,,,,72.14126549998764,73.35577819996979,74.15550399996573,74.14017179998336,,,,,,,,,,,,,,,,74.1416404999909,74.15550399996573,74.15550399996573,74.80750819999957,b,1.0,0.6396822999813594,,74.80884559999686,74.82113309996203,75.82022140000481,,,,,,,,,,,,,,,,,,,,sub-018,1,stroop_test,60.296974674742266,
,,,,4.0,4.0,0.0,,,,,blau,yellow,g,0.0,g,1.0,0.4820658999960869,,,,,,,,,,,,,,0.0,4.0,4.0,7.0,,,,,75.83676109998487,,,,,,,,,,,,,,,,,75.82061890000477,76.6195740000112,77.41884840000421,77.4039269000059,,,,,,,,,,,,,,,,77.40542329999153,77.41884840000421,77.41884840000421,77.90375930001028,g,1.0,0.4820658999960869,,77.90476030000718,77.91805139998905,78.9027457999764,78.91769899998326,,,,,,,,,,,,,,,,,,,sub-018,1,stroop_test,60.296974674742266,
,,,,5.0,5.0,0.0,,,,,gelb,yellow,g,1.0,g,1.0,0.4114755999762565,,,,,,,,,,,,,,0.0,5.0,5.0,11.0,,,,,78.91769899998326,,,,,,,,,,,,,,,,,78.90361360000679,79.0176171999774,79.82008629996562,79.80197039997438,,,,,,,,,,,,,,,,79.81269859999884,79.82008629996562,79.82008629996562,80.23552390001714,g,1.0,0.4114755999762565,,80.23689890000969,80.24917219998315,81.23412149999058,81.24879879999207,,,,,,,,,,,,,,,,,,,sub-018,1,stroop_test,60.296974674742266,
,,,,6.0,6.0,0.0,,,,,gelb,red,r,0.0,r,1.0,0.3488401000504382,,,,,,,,,,,,,,0.0,6.0,6.0,8.0,,,,,81.24879879999207,,,,,,,,,,,,,,,,,81.23501040000701,81.59813910000958,82.39760640001623,82.38255069998559,,,,,,,,,,,,,,,,82.38398929999676,82.39760640001623,82.39760640001623,82.75110900000436,r,1.0,0.3488401000504382,,82.75275939999847,82.76368799997726,83.74715929996455,83.76281260000542,,,,,,,,,,,,,,,,,,,sub-018,1,stroop_test,60.296974674742266,
,,,,7.0,7.0,0.0,,,,,rot,blue,b,0.0,b,1.0,0.3787856000126339,,,,,,,,,,,,,,0.0,7.0,7.0,2.0,,,,,83.76281260000542,,,,,,,,,,,,,,,,,83.747661100002,84.96187940001255,85.76442570000654,85.74601060000714,,,,,,,,,,,,,,,,85.75807929999428,85.76442570000654,85.76442570000654,86.1452222999651,b,1.0,0.3787856000126339,,86.14587209996535,86.16018279996933,87.14419129997259,87.15977769996971,,,,,,,,,,,,,,,,,,,sub-018,1,stroop_test,60.296974674742266,
,,,,8.0,8.0,0.0,,,,,gelb,yellow,g,1.0,g,1.0,0.6826185000245459,,,,,,,,,,,,,,0.0,8.0,8.0,10.0,,,,,87.15977769996971,,,,,,,,,,,,,,,,,87.14478049997706,87.50968219997594,88.31005339999683,88.29395119997207,,,,,,,,,,,,,,,,88.30245419999119,88.31005339999683,88.31005339999683,89.010232599976,g,1.0,0.6826185000245459,,89.01160119997803,89.02441429998726,90.00841309997486,90.02380299998913,,,,,,,,,,,,,,,,,,,sub-018,1,stroop_test,60.296974674742266,
,,,,9.0,9.0,0.0,,,,,rot,yellow,g,0.0,g,1.0,0.8949776000226848,,,,,,,,,,,,,,0.0,9.0,9.0,3.0,,,,,90.02380299998913,,,,,,,,,,,,,,,,,90.00915549998172,90.12369179999224,90.93896259996107,90.92285440000704,,,,,,,,,,,,,,,,90.92535659996793,90.93896259996107,90.93896259996107,91.83914230001392,g,1.0,0.8949776000226848,,91.8396672999952,91.8548306999728,92.83932079997612,92.85428309999406,,,,,,,,,,,,,,,,,,,sub-018,1,stroop_test,60.296974674742266,
,,,,10.0,10.0,0.0,,,,,rot,red,r,1.0,r,1.0,0.3599649000097997,,,,,,,,,,,,,,0.0,10.0,10.0,0.0,,,,,92.85428309999406,,,,,,,,,,,,,,,,,92.84010159998434,93.203608300013,94.00302419997752,93.9872438000166,,,,,,,,,,,,,,,,93.98787030001404,94.00302419997752,94.00302419997752,94.37266759999328,r,1.0,0.3599649000097997,,94.37429649999832,94.38591509999242,95.37050029996315,95.38526720000664,,,,,,,,,,,,,,,,,,,sub-018,1,stroop_test,60.296974674742266,
,,,,11.0,11.0,0.0,,,,,rot,red,r,1.0,r,1.0,0.5623102000099607,,,,,,,,,,,,,,0.0,11.0,11.0,1.0,,,,,95.38526720000664,,,,,,,,,,,,,,,,,95.37138989998492,95.4852670999826,96.28476339997724,96.26995069999248,,,,,,,,,,,,,,,,96.27139110001735,96.28476339997724,96.28476339997724,96.85404179996112,r,1.0,0.5623102000099607,,96.85511960001897,96.86702050000896,97.85087229998317,97.86626480001723,,,,,,,,,,,,,,,,,,,sub-018,1,stroop_test,60.296974674742266,
,,,,12.0,0.0,1.0,,,,,rot,red,r,1.0,r,1.0,0.3790595000027679,,,,,,,,,,,,,,1.0,0.0,12.0,1.0,,,,,97.86626480001723,,,,,,,,,,,,,,,,,97.85143629997036,98.2160783999716,99.01554569997823,99.00082439999096,,,,,,,,,,,,,,,,99.00248239998471,99.01554569997823,99.01554569997823,99.39923989999808,r,1.0,0.3790595000027679,,99.39981019997504,99.41439350001748,100.39785409998149,100.4134664000012,,,,,,,,,,,,,,,,,,,sub-018,1,stroop_test,60.296974674742266,
,,,,13.0,1.0,1.0,,,,,blau,blue,b,1.0,b,1.0,0.3359382999478839,,,,,,,,,,,,,,1.0,1.0,13.0,6.0,,,,,100.4134664000012,,,,,,,,,,,,,,,,,100.39840920001734,100.76315770001383,101.56461220001802,101.54829339997376,,,,,,,,,,,,,,,,101.5576299999957,101.56461220001802,101.56461220001802,101.91429919999791,b,1.0,0.3359382999478839,,101.91519669996342,101.92906070000026,102.91398060001666,102.92858760000672,,,,,,,,,,,,,,,,,,,sub-018,1,stroop_test,60.296974674742266,
,,,,14.0,2.0,1.0,,,,,blau,blue,b,1.0,b,1.0,0.3311924000154249,,,,,,,,,,,,,,1.0,2.0,14.0,5.0,,,,,102.92858760000672,,,,,,,,,,,,,,,,,102.91489449999062,103.7278695999994,104.52714309998557,104.51239340001484,,,,,,,,,,,,,,,,104.51390459999676,104.52714309998557,104.52714309998557,104.86354589997792,b,1.0,0.3311924000154249,,104.86516049999044,104.87623120000352,105.86070929997368,105.87535439996282,,,,,,,,,,,,,,,,,,,sub-018,1,stroop_test,60.296974674742266,
,,,,15.0,3.0,1.0,,,,,rot,red,r,1.0,r,1.0,0.3908207000349648,,,,,,,,,,,,,,1.0,3.0,15.0,0.0,,,,,105.87535439996282,,,,,,,,,,,,,,,,,105.86147810000692,107.07476789999056,107.8931216999772,107.87531570001738,,,,,,,,,,,,,,,,107.886234399979,107.8931216999772,107.8931216999772,108.29341619997284,r,1.0,0.3908207000349648,,108.2949360999628,108.30760389997158,109.30626479996135,,,,,,,,,,,,,,,,,,,,sub-018,1,stroop_test,60.296974674742266,
,,,,16.0,4.0,1.0,,,,,gelb,yellow,g,1.0,g,1.0,0.9782855000230484,,,,,,,,,,,,,,1.0,4.0,16.0,10.0,,,,,109.32238329999382,,,,,,,,,,,,,,,,,109.30709539999953,110.50447310000892,111.30329519999214,111.28921319998337,,,,,,,,,,,,,,,,111.296362699999,111.30329519999214,111.30329519999214,112.28800030000276,g,1.0,0.9782855000230484,,112.28887719998602,112.30255239998225,113.2876676999731,113.30195230001118,,,,,,,,,,,,,,,,,,,sub-018,1,stroop_test,60.296974674742266,
,,,,17.0,5.0,1.0,,,,,blau,yellow,g,0.0,g,1.0,0.3031725999899208,,,,,,,,,,,,,,1.0,5.0,17.0,7.0,,,,,113.30195230001118,,,,,,,,,,,,,,,,,113.28859299997566,114.10078179999256,114.9000314999721,114.88412519998384,,,,,,,,,,,,,,,,114.888060999976,114.9000314999721,114.9000314999721,115.21789859997808,g,1.0,0.3031725999899208,,115.21859740000218,115.23304079996888,116.21595739998156,116.23190549999708,,,,,,,,,,,,,,,,,,,sub-018,1,stroop_test,60.296974674742266,
,,,,18.0,6.0,1.0,,,,,gelb,yellow,g,1.0,g,1.0,0.4610769000137225,,,,,,,,,,,,,,1.0,6.0,18.0,11.0,,,,,116.23190549999708,,,,,,,,,,,,,,,,,116.21620209998218,116.58168900001328,117.38173039996764,117.3668134000036,,,,,,,,,,,,,,,,117.37453420000384,117.38173039996764,117.38173039996764,117.84847809997154,g,1.0,0.4610769000137225,,117.84895829996094,117.86381229996914,118.84815669996895,118.8636044000159,,,,,,,,,,,,,,,,,,,sub-018,1,stroop_test,60.296974674742266,
,,,,19.0,7.0,1.0,,,,,blau,red,r,0.0,r,1.0,0.7703624999849126,,,,,,,,,,,,,,1.0,7.0,19.0,4.0,,,,,118.8636044000159,,,,,,,,,,,,,,,,,118.84883360000094,119.21325689996593,120.0141372999642,119.99774710001655,,,,,,,,,,,,,,,,120.00651259999722,120.0141372999642,120.0141372999642,120.7956268999842,r,1.0,0.7703624999849126,,120.79609099996742,120.81106599996563,121.79675879998832,121.810662999982,,,,,,,,,,,,,,,,,,,sub-018,1,stroop_test,60.296974674742266,
,,,,20.0,8.0,1.0,,,,,rot,yellow,g,0.0,g,1.0,0.4751877000089735,,,,,,,,,,,,,,1.0,8.0,20.0,3.0,,,,,121.810662999982,,,,,,,,,,,,,,,,,121.7977962999721,123.00957499997456,123.80911460000787,123.79325950000202,,,,,,,,,,,,,,,,123.8014422999695,123.80911460000787,123.80911460000787,124.2940152999945,g,1.0,0.4751877000089735,,124.2949806000106,124.30796469998312,125.29290389997186,125.30750160000753,,,,,,,,,,,,,,,,,,,sub-018,1,stroop_test,60.296974674742266,
,,,,21.0,9.0,1.0,,,,,gelb,red,r,0.0,r,1.0,0.5184160000062548,,,,,,,,,,,,,,1.0,9.0,21.0,8.0,,,,,125.30750160000753,,,,,,,,,,,,,,,,,125.29377150000072,125.65734450001035,126.47274830000242,126.45716409996383,,,,,,,,,,,,,,,,126.46395020000637,126.47274830000242,126.47274830000242,127.00834970001596,r,1.0,0.5184160000062548,,127.0097012000042,127.0223762000096,128.00700829998823,128.02184070000658,,,,,,,,,,,,,,,,,,,sub-018,1,stroop_test,60.296974674742266,
,,,,22.0,10.0,1.0,,,,,rot,blue,b,0.0,b,1.0,0.7606252999976277,,,,,,,,,,,,,,1.0,10.0,22.0,2.0,,,,,128.02184070000658,,,,,,,,,,,,,,,,,128.00787239999045,128.37122899998212,129.17438199999742,129.1552784999949,,,,,,,,,,,,,,,,129.16464390000328,129.17438199999742,129.17438199999742,129.9398785000085,b,1.0,0.7606252999976277,,129.9414367999998,129.9529126000125,130.95195099996636,,,,,,,,,,,,,,,,,,,,sub-018,1,stroop_test,60.296974674742266,
,,,,23.0,11.0,1.0,,,,,gelb,blue,b,0.0,b,1.0,0.4852364999824203,,,,,,,,,,,,,,1.0,11.0,23.0,9.0,,,,,130.96837799996138,,,,,,,,,,,,,,,,,130.95227489998797,131.75169150001602,132.57353920000605,132.55246029997943,,,,,,,,,,,,,,,,132.56385629996657,132.57353920000605,132.57353920000605,133.07045679999283,b,1.0,0.4852364999824203,,133.072007699986,133.0831698999973,134.06746270001167,134.08264679997228,,,,,,,,,,,,,,,,,,,sub-018,1,stroop_test,60.296974674742266,
,,,,,,,,,,,,,,,,,,,,,,,,,,,,,,,,,,,,,,,,,,,,,,,,,,,,,,,,,,,,,,,,,,,,,,,,,,,,,,,,,,,,,,,134.06774470000528,134.08264679997228,134.08264679997228,136.95042459998513,space,2.8627456999965943,,,,,,,,,,,,,sub-018,1,stroop_test,60.296974674742266,
,,,,0.0,0.0,0.0,,,,,,,,,,,,,gelb,red,r,0.0,r,1.0,0.526823099993635,,,,,,,,,,0.0,0.0,0.0,8.0,136.9786340999999,,,,,,,,,,,,,,,,,136.97446779999882,137.76275689998874,138.56533929996658,138.54716670000926,,,,,,,,,,,,,,,,,,,,,,,,,,,,,,,,,,,138.5576353999786,138.56533929996658,138.56533929996658,139.09803589998046,r,1.0,0.526823099993635,,,,,sub-018,1,stroop_test,60.296974674742266,
,,,,1.0,1.0,0.0,,,,,,,,,,,,,gelb,blue,b,0.0,b,1.0,0.5408188999863341,,,,,,,,,,0.0,1.0,1.0,9.0,139.11082950001585,,,,,,,,,,,,,,,,,139.0991723999614,139.21101420000196,140.0104770999751,139.9956717999885,,,,,,,,,,,,,,,,,,,,,,,,,,,,,,,,,,,139.99714310001582,140.0104770999751,140.0104770999751,140.563174800016,b,1.0,0.5408188999863341,,,,,sub-018,1,stroop_test,60.296974674742266,
,,,,2.0,2.0,0.0,,,,,,,,,,,,,rot,yellow,g,0.0,r,0.0,0.4532718999544158,,,,,,,,,,0.0,2.0,2.0,3.0,140.57605470001,,,,,,,,,,,,,,,,,140.56423019996146,141.37594619998708,142.17623069998808,142.16033739998238,,,,,,,,,,,,,,,,,,,,,,,,,,,,,,,,,,,142.16871299996274,142.17623069998808,142.17623069998808,142.6448522999999,r,0.0,0.4532718999544158,,,,,sub-018,1,stroop_test,60.296974674742266,
,,,,3.0,3.0,0.0,,,,,,,,,,,,,blau,yellow,g,0.0,g,1.0,0.6048323000431992,,,,,,,,,,0.0,3.0,3.0,7.0,142.65772560000187,,,,,,,,,,,,,,,,,142.64599220000673,142.75740880001104,143.5568445000099,143.54215930000646,,,,,,,,,,,,,,,,,,,,,,,,,,,,,,,,,,,143.5492002000101,143.5568445000099,143.5568445000099,144.17668219999177,g,1.0,0.6048323000431992,,,,,sub-018,1,stroop_test,60.296974674742266,
,,,,4.0,4.0,0.0,,,,,,,,,,,,,rot,red,r,1.0,r,1.0,0.4759489999851212,,,,,,,,,,0.0,4.0,4.0,1.0,144.18940350000048,,,,,,,,,,,,,,,,,144.17769569996744,144.5397215000121,145.3416454999824,145.32406600000104,,,,,,,,,,,,,,,,,,,,,,,,,,,,,,,,,,,145.333885799977,145.3416454999824,145.3416454999824,145.8241898000124,r,1.0,0.4759489999851212,,,,,sub-018,1,stroop_test,60.296974674742266,
,,,,5.0,5.0,0.0,,,,,,,,,,,,,rot,red,r,1.0,r,1.0,0.5573814999661408,,,,,,,,,,0.0,5.0,5.0,0.0,145.83810920000542,,,,,,,,,,,,,,,,,145.82510449999245,146.1877977999975,146.9871184999938,146.97252899996238,,,,,,,,,,,,,,,,,,,,,,,,,,,,,,,,,,,146.9741379999905,146.9871184999938,146.9871184999938,147.5536859999993,r,1.0,0.5573814999661408,,,,,sub-018,1,stroop_test,60.296974674742266,
,,,,6.0,6.0,0.0,,,,,,,,,,,,,blau,blue,b,1.0,b,1.0,0.3314842999679968,,,,,,,,,,0.0,6.0,6.0,6.0,147.56935509998584,,,,,,,,,,,,,,,,,147.55393679998815,148.36871860001702,149.17413379997015,149.15440240001772,,,,,,,,,,,,,,,,,,,,,,,,,,,,,,,,,,,149.16435340000317,149.17413379997015,149.17413379997015,149.5219839999918,b,1.0,0.3314842999679968,,,,,sub-018,1,stroop_test,60.296974674742266,
,,,,7.0,7.0,0.0,,,,,,,,,,,,,blau,blue,b,1.0,b,1.0,0.3236439999891445,,,,,,,,,,0.0,7.0,7.0,5.0,149.5346230000141,,,,,,,,,,,,,,,,,149.52300509996712,149.88449540000877,150.69983210001374,150.6837209999794,,,,,,,,,,,,,,,,,,,,,,,,,,,,,,,,,,,150.68406659999164,150.69983210001374,150.69983210001374,151.03371909999987,b,1.0,0.3236439999891445,,,,,sub-018,1,stroop_test,60.296974674742266,
,,,,8.0,8.0,0.0,,,,,,,,,,,,,rot,blue,b,0.0,b,1.0,0.308598899981007,,,,,,,,,,0.0,8.0,8.0,2.0,151.04945409996435,,,,,,,,,,,,,,,,,151.03397220000625,151.84873570001218,152.64792899996974,152.63176600000588,,,,,,,,,,,,,,,,,,,,,,,,,,,,,,,,,,,152.6344122000155,152.64792899996974,152.64792899996974,152.966917200014,b,1.0,0.308598899981007,,,,,sub-018,1,stroop_test,60.296974674742266,
,,,,9.0,9.0,0.0,,,,,,,,,,,,,gelb,yellow,g,1.0,g,1.0,0.3957904000417329,,,,,,,,,,0.0,9.0,9.0,10.0,152.9814200999681,,,,,,,,,,,,,,,,,152.9675693999743,153.33072430000175,154.1328966000001,154.11546170001384,,,,,,,,,,,,,,,,,,,,,,,,,,,,,,,,,,,154.12518560001627,154.1328966000001,154.1328966000001,154.53312069998356,g,1.0,0.3957904000417329,,,,,sub-018,1,stroop_test,60.296974674742266,
,,,,10.0,10.0,0.0,,,,,,,,,,,,,blau,red,r,0.0,r,1.0,0.5116850000340492,,,,,,,,,,0.0,10.0,10.0,4.0,154.5466674999916,,,,,,,,,,,,,,,,,154.53403769998113,154.89650360000087,155.69696299999487,155.68078509997576,,,,,,,,,,,,,,,,,,,,,,,,,,,,,,,,,,,155.6897275999654,155.69696299999487,155.69696299999487,156.21475509996526,r,1.0,0.5116850000340492,,,,,sub-018,1,stroop_test,60.296974674742266,
,,,,11.0,11.0,0.0,,,,,,,,,,,,,gelb,yellow,g,1.0,g,1.0,0.5576422000303864,,,,,,,,,,0.0,11.0,11.0,11.0,156.22832739999285,,,,,,,,,,,,,,,,,156.21565749996807,157.42748770001344,158.22734839998884,158.21201179997297,,,,,,,,,,,,,,,,,,,,,,,,,,,,,,,,,,,158.21979930001544,158.22734839998884,158.22734839998884,158.79548649996286,g,1.0,0.5576422000303864,,,,,sub-018,1,stroop_test,60.296974674742266,
,,,,12.0,0.0,1.0,,,,,,,,,,,,,gelb,yellow,g,1.0,g,1.0,0.3574956999509595,,,,,,,,,,1.0,0.0,12.0,10.0,158.80930359999184,,,,,,,,,,,,,,,,,158.79637110000476,159.6088080999907,160.40814839996165,160.39334489998873,,,,,,,,,,,,,,,,,,,,,,,,,,,,,,,,,,,160.39480710000498,160.40814839996165,160.40814839996165,160.7780836999882,g,1.0,0.3574956999509595,,,,,sub-018,1,stroop_test,60.296974674742266,
,,,,13.0,1.0,1.0,,,,,,,,,,,,,rot,blue,b,0.0,b,1.0,0.5602246000198647,,,,,,,,,,1.0,1.0,13.0,2.0,160.79062839999096,,,,,,,,,,,,,,,,,160.77909899997758,161.9901362999808,162.79111739998916,162.77429679996567,,,,,,,,,,,,,,,,,,,,,,,,,,,,,,,,,,,162.7835704999743,162.79111739998916,162.79111739998916,163.357050599996,b,1.0,0.5602246000198647,,,,,sub-018,1,stroop_test,60.296974674742266,
,,,,14.0,2.0,1.0,,,,,,,,,,,,,gelb,yellow,g,1.0,g,1.0,0.4970564999966882,,,,,,,,,,1.0,2.0,14.0,11.0,163.37151669996092,,,,,,,,,,,,,,,,,163.35777050000615,164.1712783999974,164.972990499984,164.95536929997616,,,,,,,,,,,,,,,,,,,,,,,,,,,,,,,,,,,164.9648320999695,164.972990499984,164.972990499984,165.47246019996237,g,1.0,0.4970564999966882,,,,,sub-018,1,stroop_test,60.296974674742266,
,,,,15.0,3.0,1.0,,,,,,,,,,,,,blau,yellow,g,0.0,g,1.0,0.721381300012581,,,,,,,,,,1.0,3.0,15.0,7.0,165.48623019998195,,,,,,,,,,,,,,,,,165.47310599999037,165.83640570001444,166.63749990001088,166.62058649997925,,,,,,,,,,,,,,,,,,,,,,,,,,,,,,,,,,,166.62986079999246,166.63749990001088,166.63749990001088,167.3695365000167,g,1.0,0.721381300012581,,,,,sub-018,1,stroop_test,60.296974674742266,
,,,,16.0,4.0,1.0,,,,,,,,,,,,,rot,red,r,1.0,r,1.0,0.3798659999738447,,,,,,,,,,1.0,4.0,16.0,1.0,167.3844730000128,,,,,,,,,,,,,,,,,167.37004269997124,168.18358620000072,168.98383209999884,168.96838769997703,,,,,,,,,,,,,,,,,,,,,,,,,,,,,,,,,,,168.9762197000091,168.98383209999884,168.98383209999884,169.36694099998567,r,1.0,0.3798659999738447,,,,,sub-018,1,stroop_test,60.296974674742266,
,,,,17.0,5.0,1.0,,,,,,,,,,,,,blau,blue,b,1.0,b,1.0,0.6159457999747247,,,,,,,,,,1.0,5.0,17.0,5.0,169.38225119997514,,,,,,,,,,,,,,,,,169.36723520001397,170.58189219998894,171.38208459998714,171.3663421999663,,,,,,,,,,,,,,,,,,,,,,,,,,,,,,,,,,,171.37496779998764,171.38208459998714,171.38208459998714,172.01538270001765,b,1.0,0.6159457999747247,,,,,sub-018,1,stroop_test,60.296974674742266,
,,,,18.0,6.0,1.0,,,,,,,,,,,,,blau,red,r,0.0,r,1.0,0.4977247000206262,,,,,,,,,,1.0,6.0,18.0,4.0,172.03013069997542,,,,,,,,,,,,,,,,,172.01605410000775,173.22938679996878,174.02868509996915,174.01421769999433,,,,,,,,,,,,,,,,,,,,,,,,,,,,,,,,,,,174.01581889996305,174.02868509996915,174.02868509996915,174.53179969999474,r,1.0,0.4977247000206262,,,,,sub-018,1,stroop_test,60.296974674742266,
,,,,19.0,7.0,1.0,,,,,,,,,,,,,blau,blue,b,1.0,b,1.0,0.4362743999809026,,,,,,,,,,1.0,7.0,19.0,6.0,174.544737899967,,,,,,,,,,,,,,,,,174.53282530000433,174.89450789999682,175.6937598999939,175.67921639996348,,,,,,,,,,,,,,,,,,,,,,,,,,,,,,,,,,,175.68072639999446,175.6937598999939,175.6937598999939,176.14597999997204,b,1.0,0.4362743999809026,,,,,sub-018,1,stroop_test,60.296974674742266,
,,,,20.0,8.0,1.0,,,,,,,,,,,,,rot,yellow,g,0.0,g,1.0,0.4636322999722324,,,,,,,,,,1.0,8.0,20.0,3.0,176.1596999000176,,,,,,,,,,,,,,,,,176.1468792000087,176.25960619997932,177.06677229999332,177.04428689996712,,,,,,,,,,,,,,,,,,,,,,,,,,,,,,,,,,,177.05723899998702,177.06677229999332,177.06677229999332,177.54527539998526,g,1.0,0.4636322999722324,,,,,sub-018,1,stroop_test,60.296974674742266,
,,,,21.0,9.0,1.0,,,,,,,,,,,,,rot,red,r,1.0,r,1.0,0.4512507000472396,,,,,,,,,,1.0,9.0,21.0,0.0,177.55858070001705,,,,,,,,,,,,,,,,,177.54632690001745,177.90860169997904,178.72430960001657,178.70954899996286,,,,,,,,,,,,,,,,,,,,,,,,,,,,,,,,,,,178.7109771000105,178.72430960001657,178.72430960001657,179.1926095999661,r,1.0,0.4512507000472396,,,,,sub-018,1,stroop_test,60.296974674742266,
,,,,22.0,10.0,1.0,,,,,,,,,,,,,gelb,blue,b,0.0,b,1.0,0.5065376000129618,,,,,,,,,,1.0,10.0,22.0,9.0,179.20679729996482,,,,,,,,,,,,,,,,,179.19351969996933,179.3070444999612,180.12364070001058,180.1076916999882,,,,,,,,,,,,,,,,,,,,,,,,,,,,,,,,,,,180.11637449997943,180.12364070001058,180.12364070001058,180.6401599000092,b,1.0,0.5065376000129618,,,,,sub-018,1,stroop_test,60.296974674742266,
,,,,23.0,11.0,1.0,,,,,,,,,,,,,gelb,red,r,0.0,r,1.0,0.51011119998293,,,,,,,,,,1.0,11.0,23.0,8.0,180.6551812000107,,,,,,,,,,,,,,,,,180.6404927999829,180.75502509996292,181.55487130000256,181.53895650000777,,,,,,,,,,,,,,,,,,,,,,,,,,,,,,,,,,,181.5396095999749,181.55487130000256,181.55487130000256,182.0739636999788,r,1.0,0.51011119998293,,,,,sub-018,1,stroop_test,60.296974674742266,
,,,,24.0,0.0,2.0,,,,,,,,,,,,,rot,yellow,g,0.0,g,1.0,0.4763672000262886,,,,,,,,,,2.0,0.0,24.0,3.0,182.0875284000067,,,,,,,,,,,,,,,,,182.07484889996704,182.8872182999621,183.69039649999468,183.67148469999665,,,,,,,,,,,,,,,,,,,,,,,,,,,,,,,,,,,183.68256749998545,183.69039649999468,183.69039649999468,184.17267230001744,g,1.0,0.4763672000262886,,,,,sub-018,1,stroop_test,60.296974674742266,
,,,,25.0,1.0,2.0,,,,,,,,,,,,,gelb,red,r,0.0,r,1.0,0.5157307999907061,,,,,,,,,,2.0,1.0,25.0,8.0,184.1854230000172,,,,,,,,,,,,,,,,,184.17368999996688,185.3849936000188,186.1852596999961,186.16935229999945,,,,,,,,,,,,,,,,,,,,,,,,,,,,,,,,,,,186.17756159999408,186.1852596999961,186.1852596999961,186.71818460000213,r,1.0,0.5157307999907061,,,,,sub-018,1,stroop_test,60.296974674742266,
,,,,26.0,2.0,2.0,,,,,,,,,,,,,rot,red,r,1.0,r,1.0,0.4377666999935172,,,,,,,,,,2.0,2.0,26.0,1.0,186.7330395000172,,,,,,,,,,,,,,,,,186.7188199000084,187.53273939999053,188.3383117999765,188.31750389997612,,,,,,,,,,,,,,,,,,,,,,,,,,,,,,,,,,,188.3301582999993,188.3383117999765,188.3383117999765,188.7816182000097,r,1.0,0.4377666999935172,,,,,sub-018,1,stroop_test,60.296974674742266,
,,,,27.0,3.0,2.0,,,,,,,,,,,,,blau,blue,b,1.0,b,1.0,0.4183819000027142,,,,,,,,,,2.0,3.0,27.0,6.0,188.7975020000013,,,,,,,,,,,,,,,,,188.78189019998536,189.9966451000073,190.79595950001385,190.7816825999762,,,,,,,,,,,,,,,,,,,,,,,,,,,,,,,,,,,190.7886462999741,190.79595950001385,190.79595950001385,191.23163679998837,b,1.0,0.4183819000027142,,,,,sub-018,1,stroop_test,60.296974674742266,
,,,,28.0,4.0,2.0,,,,,,,,,,,,,gelb,blue,b,0.0,b,1.0,0.3506135999923572,,,,,,,,,,2.0,4.0,28.0,9.0,191.2456603000173,,,,,,,,,,,,,,,,,191.2325359999668,192.44444900000235,193.2518183999928,193.22953439998676,,,,,,,,,,,,,,,,,,,,,,,,,,,,,,,,,,,193.2404698000173,193.2518183999928,193.2518183999928,193.61377789999824,b,1.0,0.3506135999923572,,,,,sub-018,1,stroop_test,60.296974674742266,
,,,,29.0,5.0,2.0,,,,,,,,,,,,,rot,red,r,1.0,r,1.0,0.4782817999948747,,,,,,,,,,2.0,5.0,29.0,0.0,193.62686809996376,,,,,,,,,,,,,,,,,193.6148967999616,193.9768812999828,194.77867649996188,194.7612247999641,,,,,,,,,,,,,,,,,,,,,,,,,,,,,,,,,,,194.77120449999347,194.77867649996188,194.77867649996188,195.26059399999207,r,1.0,0.4782817999948747,,,,,sub-018,1,stroop_test,60.296974674742266,
,,,,30.0,6.0,2.0,,,,,,,,,,,,,rot,blue,b,0.0,b,1.0,0.705253099964466,,,,,,,,,,2.0,6.0,30.0,2.0,195.27500630001305,,,,,,,,,,,,,,,,,195.2611730999779,196.0747286999831,196.87383769999724,196.85905049997385,,,,,,,,,,,,,,,,,,,,,,,,,,,,,,,,,,,196.8605502999853,196.87383769999724,196.87383769999724,197.5919248000137,b,1.0,0.705253099964466,,,,,sub-018,1,stroop_test,60.296974674742266,
,,,,31.0,7.0,2.0,,,,,,,,,,,,,blau,red,r,0.0,r,1.0,0.7107407000148669,,,,,,,,,,2.0,7.0,31.0,4.0,197.60633199999572,,,,,,,,,,,,,,,,,197.5925676000188,198.40611819998597,199.2227944000042,199.2065028999932,,,,,,,,,,,,,,,,,,,,,,,,,,,,,,,,,,,199.2147699999623,199.2227944000042,199.2227944000042,199.93963069998424,r,1.0,0.7107407000148669,,,,,sub-018,1,stroop_test,60.296974674742266,
,,,,32.0,8.0,2.0,,,,,,,,,,,,,gelb,yellow,g,1.0,g,1.0,0.3383930999552831,,,,,,,,,,2.0,8.0,32.0,10.0,199.95418780000185,,,,,,,,,,,,,,,,,199.94027269998327,200.05400349997217,200.86029899999264,200.83895519998623,,,,,,,,,,,,,,,,,,,,,,,,,,,,,,,,,,,200.8517115999712,200.86029899999264,200.86029899999264,201.205134799995,g,1.0,0.3383930999552831,,,,,sub-018,1,stroop_test,60.296974674742266,
,,,,33.0,9.0,2.0,,,,,,,,,,,,,gelb,yellow,g,1.0,g,1.0,0.4393916000262834,,,,,,,,,,2.0,9.0,33.0,11.0,201.21940190001624,,,,,,,,,,,,,,,,,201.205775999988,201.5698061999865,202.3852370000095,202.36964059999443,,,,,,,,,,,,,,,,,,,,,,,,,,,,,,,,,,,202.37062870000955,202.3852370000095,202.3852370000095,202.83794060000216,g,1.0,0.4393916000262834,,,,,sub-018,1,stroop_test,60.296974674742266,
,,,,34.0,10.0,2.0,,,,,,,,,,,,,blau,yellow,g,0.0,b,0.0,0.4035074000130407,,,,,,,,,,2.0,10.0,34.0,7.0,202.85146219999297,,,,,,,,,,,,,,,,,202.8388369000168,204.0508621999761,204.85250079998517,204.8352247999865,,,,,,,,,,,,,,,,,,,,,,,,,,,,,,,,,,,204.8441667999723,204.85250079998517,204.85250079998517,205.26935720001347,b,0.0,0.4035074000130407,,,,,sub-018,1,stroop_test,60.296974674742266,
,,,,35.0,11.0,2.0,,,,,,,,,,,,,blau,blue,b,1.0,b,1.0,0.4789395999978296,,,,,,,,,,2.0,11.0,35.0,5.0,205.2826507000136,,,,,,,,,,,,,,,,,205.27038729999916,205.3823961999733,206.18166980001843,206.16628409997796,,,,,,,,,,,,,,,,,,,,,,,,,,,,,,,,,,,206.16715150000528,206.18166980001843,206.18166980001843,206.668311299989,b,1.0,0.4789395999978296,,,,,sub-018,1,stroop_test,60.296974674742266,
,,,,36.0,0.0,3.0,,,,,,,,,,,,,gelb,yellow,g,1.0,g,1.0,0.528082600038033,,,,,,,,,,3.0,0.0,36.0,11.0,206.6813495999668,,,,,,,,,,,,,,,,,206.6693864999688,206.78132979996732,207.5869899999816,207.56625829997935,,,,,,,,,,,,,,,,,,,,,,,,,,,,,,,,,,,207.57793520001,207.5869899999816,207.5869899999816,208.13155890000053,g,1.0,0.528082600038033,,,,,sub-018,1,stroop_test,60.296974674742266,
,,,,37.0,1.0,3.0,,,,,,,,,,,,,rot,blue,b,0.0,b,1.0,0.7894561999710277,,,,,,,,,,3.0,1.0,37.0,2.0,208.146239899972,,,,,,,,,,,,,,,,,208.13214299996616,208.2466179999756,209.0471463999711,209.0312419999973,,,,,,,,,,,,,,,,,,,,,,,,,,,,,,,,,,,209.03991130000213,209.0471463999711,209.0471463999711,209.84779430000344,b,1.0,0.7894561999710277,,,,,sub-018,1,stroop_test,60.296974674742266,
,,,,38.0,2.0,3.0,,,,,,,,,,,,,gelb,yellow,g,1.0,g,1.0,0.5237084000254981,,,,,,,,,,3.0,2.0,38.0,10.0,209.8614739999757,,,,,,,,,,,,,,,,,209.84872239996912,210.21157839999069,211.02682749996893,211.0107253000024,,,,,,,,,,,,,,,,,,,,,,,,,,,,,,,,,,,211.01309839996972,211.02682749996893,211.02682749996893,211.56057889998192,g,1.0,0.5237084000254981,,,,,sub-018,1,stroop_test,60.296974674742266,
,,,,39.0,3.0,3.0,,,,,,,,,,,,,gelb,red,r,0.0,r,1.0,0.4838968000258319,,,,,,,,,,3.0,3.0,39.0,8.0,211.57622859999535,,,,,,,,,,,,,,,,,211.56082429998787,212.37558559997703,213.1751147999894,213.15942310000537,,,,,,,,,,,,,,,,,,,,,,,,,,,,,,,,,,,213.1602773999912,213.1751147999894,213.1751147999894,213.6752458999981,r,1.0,0.4838968000258319,,,,,sub-018,1,stroop_test,60.296974674742266,
,,,,40.0,4.0,3.0,,,,,,,,,,,,,blau,yellow,g,0.0,g,1.0,0.7269602000014856,,,,,,,,,,3.0,4.0,40.0,7.0,213.6909551999997,,,,,,,,,,,,,,,,,213.67549970000985,213.79084319999677,214.59055739996256,214.57504219998373,,,,,,,,,,,,,,,,,,,,,,,,,,,,,,,,,,,214.58113720000256,214.59055739996256,214.59055739996256,215.3255205000169,g,1.0,0.7269602000014856,,,,,sub-018,1,stroop_test,60.296974674742266,
,,,,41.0,5.0,3.0,,,,,,,,,,,,,rot,red,r,1.0,r,1.0,0.4693774000043049,,,,,,,,,,3.0,5.0,41.0,1.0,215.33980449999217,,,,,,,,,,,,,,,,,215.32624279998709,215.4400552000152,216.24469279998448,216.22428239998408,,,,,,,,,,,,,,,,,,,,,,,,,,,,,,,,,,,216.23529879999117,216.24469279998448,216.24469279998448,216.724044099974,r,1.0,0.4693774000043049,,,,,sub-018,1,stroop_test,60.296974674742266,
,,,,42.0,6.0,3.0,,,,,,,,,,,,,blau,blue,b,1.0,b,1.0,0.7395231000264175,,,,,,,,,,3.0,6.0,42.0,6.0,216.7382132000057,,,,,,,,,,,,,,,,,216.72468629997456,217.53800419997424,218.3402672999655,218.32243850000668,,,,,,,,,,,,,,,,,,,,,,,,,,,,,,,,,,,218.3311440999969,218.3402672999655,218.3402672999655,219.09039179998217,b,1.0,0.7395231000264175,,,,,sub-018,1,stroop_test,60.296974674742266,
,,,,43.0,7.0,3.0,,,,,,,,,,,,,rot,yellow,g,0.0,g,1.0,0.6106939999735914,,,,,,,,,,3.0,7.0,43.0,3.0,219.10294700000668,,,,,,,,,,,,,,,,,219.09139650000725,219.2027819000068,220.00181869999503,219.98595249996288,,,,,,,,,,,,,,,,,,,,,,,,,,,,,,,,,,,219.9899804000161,220.00181869999503,220.00181869999503,220.6190153000061,g,1.0,0.6106939999735914,,,,,sub-018,1,stroop_test,60.296974674742266,
,,,,44.0,8.0,3.0,,,,,,,,,,,,,blau,red,r,0.0,r,1.0,0.590876699949149,,,,,,,,,,3.0,8.0,44.0,4.0,220.6345469999942,,,,,,,,,,,,,,,,,220.61936459998836,220.9682125999825,221.76876469998388,221.75277570000617,,,,,,,,,,,,,,,,,,,,,,,,,,,,,,,,,,,221.7615459999652,221.76876469998388,221.76876469998388,222.36968979996163,r,1.0,0.590876699949149,,,,,sub-018,1,stroop_test,60.296974674742266,
,,,,45.0,9.0,3.0,,,,,,,,,,,,,gelb,blue,b,0.0,b,1.0,0.5717045000055805,,,,,,,,,,3.0,9.0,45.0,9.0,222.38323410000885,,,,,,,,,,,,,,,,,222.37060169997855,223.58218399999896,224.38129809999373,224.3658262999961,,,,,,,,,,,,,,,,,,,,,,,,,,,,,,,,,,,224.37256009998964,224.38129809999373,224.38129809999373,224.9675709999865,b,1.0,0.5717045000055805,,,,,sub-018,1,stroop_test,60.296974674742266,
,,,,46.0,10.0,3.0,,,,,,,,,,,,,blau,blue,b,1.0,b,1.0,0.551234399958048,,,,,,,,,,3.0,10.0,46.0,5.0,224.98091240000213,,,,,,,,,,,,,,,,,224.9684452000074,225.0806877000141,225.88000720000127,225.8653447999968,,,,,,,,,,,,,,,,,,,,,,,,,,,,,,,,,,,225.8725368999876,225.88000720000127,225.88000720000127,226.4484855000046,b,1.0,0.551234399958048,,,,,sub-018,1,stroop_test,60.296974674742266,
,,,,47.0,11.0,3.0,,,,,,,,,,,,,rot,red,r,1.0,r,1.0,0.5065347999916412,,,,,,,,,,3.0,11.0,47.0,0.0,226.4625252999831,,,,,,,,,,,,,,,,,226.4493550999905,227.6622115999926,228.4777979999781,228.46242349996464,,,,,,,,,,,,,,,,,,,,,,,,,,,,,,,,,,,228.4710677000112,228.4777979999781,228.4777979999781,228.99577410001075,r,1.0,0.5065347999916412,,,,,sub-018,1,stroop_test,60.296974674742266,
,,,,48.0,0.0,4.0,,,,,,,,,,,,,rot,red,r,1.0,r,1.0,0.3723870999529026,,,,,,,,,,4.0,0.0,48.0,0.0,229.0103434000048,,,,,,,,,,,,,,,,,228.99635370000036,230.20978599996303,231.00889160000952,230.9939511999837,,,,,,,,,,,,,,,,,,,,,,,,,,,,,,,,,,,230.99515339999925,231.00889160000952,231.00889160000952,231.39478460000828,r,1.0,0.3723870999529026,,,,,sub-018,1,stroop_test,60.296974674742266,
,,,,49.0,1.0,4.0,,,,,,,,,,,,,blau,blue,b,1.0,b,1.0,0.4581136000342667,,,,,,,,,,4.0,1.0,49.0,6.0,231.40793879999543,,,,,,,,,,,,,,,,,231.3958181999624,232.2076450000168,233.0068339999998,232.9911963999621,,,,,,,,,,,,,,,,,,,,,,,,,,,,,,,,,,,232.9966556999716,233.0068339999998,233.0068339999998,233.47578199999407,b,1.0,0.4581136000342667,,,,,sub-018,1,stroop_test,60.296974674742266,
,,,,50.0,2.0,4.0,,,,,,,,,,,,,gelb,red,r,0.0,r,1.0,0.7608540000510402,,,,,,,,,,4.0,2.0,50.0,8.0,233.4895449000178,,,,,,,,,,,,,,,,,233.4767122999765,234.2888927999884,235.092229300004,235.07342510001035,,,,,,,,,,,,,,,,,,,,,,,,,,,,,,,,,,,235.0845289999852,235.092229300004,235.092229300004,235.85800730000483,r,1.0,0.7608540000510402,,,,,sub-018,1,stroop_test,60.296974674742266,
,,,,51.0,3.0,4.0,,,,,,,,,,,,,blau,yellow,g,0.0,b,0.0,0.4235893999575637,,,,,,,,,,4.0,3.0,51.0,7.0,235.87062319996767,,,,,,,,,,,,,,,,,235.8590590999811,236.67003189999377,237.4725177999935,237.45458789996337,,,,,,,,,,,,,,,,,,,,,,,,,,,,,,,,,,,237.46322699997108,237.4725177999935,237.4725177999935,237.9055028000148,b,0.0,0.4235893999575637,,,,,sub-018,1,stroop_test,60.296974674742266,
,,,,52.0,4.0,4.0,,,,,,,,,,,,,gelb,yellow,g,1.0,g,1.0,0.4626513999537565,,,,,,,,,,4.0,4.0,52.0,10.0,237.9186933999881,,,,,,,,,,,,,,,,,237.90642810001737,238.0186794999754,238.820123100013,238.8026224999921,,,,,,,,,,,,,,,,,,,,,,,,,,,,,,,,,,,238.81188659998588,238.820123100013,238.820123100013,239.28773199999705,g,1.0,0.4626513999537565,,,,,sub-018,1,stroop_test,60.296974674742266,
,,,,53.0,5.0,4.0,,,,,,,,,,,,,gelb,yellow,g,1.0,g,1.0,0.3376405000453815,,,,,,,,,,4.0,5.0,53.0,11.0,239.30076620000185,,,,,,,,,,,,,,,,,239.28875810001043,239.6507527999929,240.46616670000367,240.4502345999936,,,,,,,,,,,,,,,,,,,,,,,,,,,,,,,,,,,240.45091770001451,240.46616670000367,240.46616670000367,240.81711920001544,g,1.0,0.3376405000453815,,,,,sub-018,1,stroop_test,60.296974674742266,
,,,,54.0,6.0,4.0,,,,,,,,,,,,,rot,red,r,1.0,r,1.0,0.4618871000129729,,,,,,,,,,4.0,6.0,54.0,1.0,240.832356799976,,,,,,,,,,,,,,,,,240.8175674999948,242.03186099999584,242.84711899998365,242.8310240000137,,,,,,,,,,,,,,,,,,,,,,,,,,,,,,,,,,,242.83356840000488,242.84711899998365,242.84711899998365,243.3149073999957,r,1.0,0.4618871000129729,,,,,sub-018,1,stroop_test,60.296974674742266,
,,,,55.0,7.0,4.0,,,,,,,,,,,,,blau,red,r,0.0,r,1.0,0.5594539999729022,,,,,,,,,,4.0,7.0,55.0,4.0,243.33042030001525,,,,,,,,,,,,,,,,,243.3152582999901,244.5294968999806,245.3292381999781,245.31370810000223,,,,,,,,,,,,,,,,,,,,,,,,,,,,,,,,,,,245.32107449998148,245.3292381999781,245.3292381999781,245.89764049998485,r,1.0,0.5594539999729022,,,,,sub-018,1,stroop_test,60.296974674742266,
,,,,56.0,8.0,4.0,,,,,,,,,,,,,rot,blue,b,0.0,r,0.0,0.4650539000285789,,,,,,,,,,4.0,8.0,56.0,2.0,245.91164369997568,,,,,,,,,,,,,,,,,245.89851759996964,246.7108004000038,247.52624989999455,247.5106963000144,,,,,,,,,,,,,,,,,,,,,,,,,,,,,,,,,,,247.51696280000036,247.52624989999455,247.52624989999455,247.99308960000053,r,0.0,0.4650539000285789,,,,,sub-018,1,stroop_test,60.296974674742266,
,,,,57.0,9.0,4.0,,,,,,,,,,,,,gelb,blue,b,0.0,b,1.0,0.4342139000073075,,,,,,,,,,4.0,9.0,57.0,9.0,248.0088566999766,,,,,,,,,,,,,,,,,247.993330999976,249.20780370000284,250.0071642000112,249.99097970000005,,,,,,,,,,,,,,,,,,,,,,,,,,,,,,,,,,,249.9936659999657,250.0071642000112,250.0071642000112,250.45746130001496,b,1.0,0.4342139000073075,,,,,sub-018,1,stroop_test,60.296974674742266,
,,,,58.0,10.0,4.0,,,,,,,,,,,,,rot,yellow,g,0.0,g,1.0,0.6363388999598101,,,,,,,,,,4.0,10.0,58.0,3.0,250.4733015999664,,,,,,,,,,,,,,,,,250.4576972000068,251.6721996999695,252.4714745999663,252.45542010001373,,,,,,,,,,,,,,,,,,,,,,,,,,,,,,,,,,,252.4589778999798,252.4714745999663,252.4714745999663,253.1220503000077,g,1.0,0.6363388999598101,,,,,sub-018,1,stroop_test,60.296974674742266,
,,,,59.0,11.0,4.0,,,,,,,,,,,,,blau,blue,b,1.0,r,0.0,0.4622038999805227,,,,,,,,,,4.0,11.0,59.0,5.0,253.137561200012,,,,,,,,,,,,,,,,,253.12240789999487,253.9367776999716,254.73605299997143,254.71972009999445,,,,,,,,,,,,,,,,,,,,,,,,,,,,,,,,,,,254.7218004000024,254.73605299997143,254.73605299997143,255.2050105999806,r,0.0,0.4622038999805227,,,,,sub-018,1,stroop_test,60.296974674742266,
,,,,60.0,0.0,5.0,,,,,,,,,,,,,blau,yellow,g,0.0,g,1.0,0.6121110999956727,,,,,,,,,,5.0,0.0,60.0,7.0,255.219116399996,,,,,,,,,,,,,,,,,255.20571209996703,256.0181451999815,256.8174426999758,256.80133250000654,,,,,,,,,,,,,,,,,,,,,,,,,,,,,,,,,,,256.8017024999717,256.8174426999758,256.8174426999758,257.4349669999792,g,1.0,0.6121110999956727,,,,,sub-018,1,stroop_test,60.296974674742266,
,,,,61.0,1.0,5.0,,,,,,,,,,,,,gelb,red,r,0.0,r,1.0,0.6353607999626547,,,,,,,,,,5.0,1.0,61.0,8.0,257.4501089999685,,,,,,,,,,,,,,,,,257.43524429999525,257.79973769997014,258.5992030999623,258.58300340001006,,,,,,,,,,,,,,,,,,,,,,,,,,,,,,,,,,,258.58595649997005,258.5992030999623,258.5992030999623,259.2493827000144,r,1.0,0.6353607999626547,,,,,sub-018,1,stroop_test,60.296974674742266,
,,,,62.0,2.0,5.0,,,,,,,,,,,,,rot,red,r,1.0,r,1.0,0.5233540000044741,,,,,,,,,,5.0,2.0,62.0,1.0,259.26506599999266,,,,,,,,,,,,,,,,,259.24961489997804,259.3649764999864,260.16425359999994,260.14811269997153,,,,,,,,,,,,,,,,,,,,,,,,,,,,,,,,,,,260.15044659998966,260.16425359999994,260.16425359999994,260.69794410001487,r,1.0,0.5233540000044741,,,,,sub-018,1,stroop_test,60.296974674742266,
,,,,63.0,3.0,5.0,,,,,,,,,,,,,blau,red,r,0.0,r,1.0,0.4830155000090599,,,,,,,,,,5.0,3.0,63.0,4.0,260.71382860001177,,,,,,,,,,,,,,,,,260.6981921999832,261.063397299964,261.86279340001056,261.84678730001906,,,,,,,,,,,,,,,,,,,,,,,,,,,,,,,,,,,261.85013340000296,261.86279340001056,261.86279340001056,262.3493082000059,r,1.0,0.4830155000090599,,,,,sub-018,1,stroop_test,60.296974674742266,
,,,,64.0,4.0,5.0,,,,,,,,,,,,,blau,blue,b,1.0,b,1.0,0.4192208999884315,,,,,,,,,,5.0,4.0,64.0,5.0,262.3622532999725,,,,,,,,,,,,,,,,,262.3499699999811,263.5614518999937,264.36089100001846,264.34641090000514,,,,,,,,,,,,,,,,,,,,,,,,,,,,,,,,,,,264.347896399966,264.36089100001846,264.36089100001846,264.7975677999784,b,1.0,0.4192208999884315,,,,,sub-018,1,stroop_test,60.296974674742266,
,,,,65.0,5.0,5.0,,,,,,,,,,,,,rot,yellow,g,0.0,g,1.0,0.8210396000067703,,,,,,,,,,5.0,5.0,65.0,3.0,264.8103820999968,,,,,,,,,,,,,,,,,264.79843650001567,265.609951499966,266.4292060000007,266.4105305999983,,,,,,,,,,,,,,,,,,,,,,,,,,,,,,,,,,,266.42102339997655,266.4292060000007,266.4292060000007,267.2619963000179,g,1.0,0.8210396000067703,,,,,sub-018,1,stroop_test,60.296974674742266,
,,,,66.0,6.0,5.0,,,,,,,,,,,,,blau,blue,b,1.0,b,1.0,0.631603299989365,,,,,,,,,,5.0,6.0,66.0,6.0,267.2749634999782,,,,,,,,,,,,,,,,,267.262863299984,268.0744134999695,268.87542060000123,268.8585202000104,,,,,,,,,,,,,,,,,,,,,,,,,,,,,,,,,,,268.86714029998984,268.87542060000123,268.87542060000123,269.51042319997214,b,1.0,0.631603299989365,,,,,sub-018,1,stroop_test,60.296974674742266,
,,,,67.0,7.0,5.0,,,,,,,,,,,,,gelb,blue,b,0.0,b,1.0,0.4569470999995246,,,,,,,,,,5.0,7.0,67.0,9.0,269.5228069999721,,,,,,,,,,,,,,,,,269.5113037999836,269.8727634999668,270.6750571000157,270.65705609996803,,,,,,,,,,,,,,,,,,,,,,,,,,,,,,,,,,,270.66782139998395,270.6750571000157,270.6750571000157,271.1388951999834,b,1.0,0.4569470999995246,,,,,sub-018,1,stroop_test,60.296974674742266,
,,,,68.0,8.0,5.0,,,,,,,,,,,,,rot,blue,b,0.0,b,1.0,0.3640595000470057,,,,,,,,,,5.0,8.0,68.0,2.0,271.15404220001074,,,,,,,,,,,,,,,,,271.13925959996413,271.25393100001384,272.0534278000123,272.0372067000135,,,,,,,,,,,,,,,,,,,,,,,,,,,,,,,,,,,272.0398618999752,272.0534278000123,272.0534278000123,272.42033799999626,b,1.0,0.3640595000470057,,,,,sub-018,1,stroop_test,60.296974674742266,
,,,,69.0,9.0,5.0,,,,,,,,,,,,,rot,red,r,1.0,r,1.0,0.3741999000194482,,,,,,,,,,5.0,9.0,69.0,0.0,272.4360871000099,,,,,,,,,,,,,,,,,272.420564399974,273.2356259999797,274.0348482999834,274.0188058000058,,,,,,,,,,,,,,,,,,,,,,,,,,,,,,,,,,,274.0192918999819,274.0348482999834,274.0348482999834,274.4184838999645,r,1.0,0.3741999000194482,,,,,sub-018,1,stroop_test,60.296974674742266,
,,,,70.0,10.0,5.0,,,,,,,,,,,,,gelb,yellow,g,1.0,g,1.0,0.4327782000182196,,,,,,,,,,5.0,10.0,70.0,10.0,274.434225999983,,,,,,,,,,,,,,,,,274.4187293999712,274.5175609000144,275.32146629999625,275.30288739997195,,,,,,,,,,,,,,,,,,,,,,,,,,,,,,,,,,,275.3127715999726,275.32146629999625,275.32146629999625,275.7695858000079,g,1.0,0.4327782000182196,,,,,sub-018,1,stroop_test,60.296974674742266,
,,,,71.0,11.0,5.0,,,,,,,,,,,,,gelb,yellow,g,1.0,g,1.0,0.34976320003625,,,,,,,,,,5.0,11.0,71.0,11.0,275.78358069999376,,,,,,,,,,,,,,,,,275.7705006999895,275.8835606999928,276.6827869999688,276.6681700999616,,,,,,,,,,,,,,,,,,,,,,,,,,,,,,,,,,,276.6695837000152,276.6827869999688,276.6827869999688,277.0366988999885,g,1.0,0.34976320003625,,,,,sub-018,1,stroop_test,60.296974674742266,
,,,,72.0,0.0,6.0,,,,,,,,,,,,,gelb,red,r,0.0,r,1.0,0.4689588000182993,,,,,,,,,,6.0,0.0,72.0,8.0,277.04903320001904,,,,,,,,,,,,,,,,,277.0377514999709,277.39906759996666,278.1980753999669,278.1833329999936,,,,,,,,,,,,,,,,,,,,,,,,,,,,,,,,,,,278.1848170000012,278.1980753999669,278.1980753999669,278.68355119996704,r,1.0,0.4689588000182993,,,,,sub-018,1,stroop_test,60.296974674742266,
,,,,73.0,1.0,6.0,,,,,,,,,,,,,gelb,yellow,g,1.0,g,1.0,0.4535899999900721,,,,,,,,,,6.0,1.0,73.0,10.0,278.69769840000663,,,,,,,,,,,,,,,,,278.6844474999816,279.8964162999764,280.69583320000675,280.68102630000794,,,,,,,,,,,,,,,,,,,,,,,,,,,,,,,,,,,280.68247259996133,280.69583320000675,280.69583320000675,281.1653253000113,g,1.0,0.4535899999900721,,,,,sub-018,1,stroop_test,60.296974674742266,
,,,,74.0,2.0,6.0,,,,,,,,,,,,,blau,yellow,g,0.0,g,1.0,0.408569700026419,,,,,,,,,,6.0,2.0,74.0,7.0,281.1787919999915,,,,,,,,,,,,,,,,,281.1663605999784,281.97783940000227,282.77704139996786,282.7615356000024,,,,,,,,,,,,,,,,,,,,,,,,,,,,,,,,,,,282.76884139998583,282.77704139996786,282.77704139996786,283.197011900018,g,1.0,0.408569700026419,,,,,sub-018,1,stroop_test,60.296974674742266,
,,,,75.0,3.0,6.0,,,,,,,,,,,,,rot,blue,b,0.0,b,1.0,0.5607621999806724,,,,,,,,,,6.0,3.0,75.0,2.0,283.2098294000025,,,,,,,,,,,,,,,,,283.1980485999957,283.30991680000443,284.1129207999911,284.0945041999803,,,,,,,,,,,,,,,,,,,,,,,,,,,,,,,,,,,284.10489319998305,284.1129207999911,284.1129207999911,284.6788238000008,b,1.0,0.5607621999806724,,,,,sub-018,1,stroop_test,60.296974674742266,
,,,,76.0,4.0,6.0,,,,,,,,,,,,,blau,red,r,0.0,r,1.0,0.4384997000452131,,,,,,,,,,6.0,4.0,76.0,4.0,284.69167390000075,,,,,,,,,,,,,,,,,284.6799357999698,284.7920989000122,285.59409759996925,285.5765182999894,,,,,,,,,,,,,,,,,,,,,,,,,,,,,,,,,,,285.5856375999865,285.59409759996925,285.59409759996925,286.0427030000137,r,1.0,0.4384997000452131,,,,,sub-018,1,stroop_test,60.296974674742266,
,,,,77.0,5.0,6.0,,,,,,,,,,,,,rot,yellow,g,0.0,g,1.0,0.5223711999715306,,,,,,,,,,6.0,5.0,77.0,3.0,286.05718930001603,,,,,,,,,,,,,,,,,286.0433476999752,286.1572954999865,286.97766460001003,286.9583638999611,,,,,,,,,,,,,,,,,,,,,,,,,,,,,,,,,,,286.9694022999611,286.97766460001003,286.97766460001003,287.50905709998915,g,1.0,0.5223711999715306,,,,,sub-018,1,stroop_test,60.296974674742266,
,,,,78.0,6.0,6.0,,,,,,,,,,,,,gelb,yellow,g,1.0,g,1.0,0.3765884999884292,,,,,,,,,,6.0,6.0,78.0,11.0,287.5223497999832,,,,,,,,,,,,,,,,,287.50994580000406,287.87245109997457,288.6767053999938,288.6568833999918,,,,,,,,,,,,,,,,,,,,,,,,,,,,,,,,,,,288.66828270000406,288.6767053999938,288.6767053999938,289.0569672000129,g,1.0,0.3765884999884292,,,,,sub-018,1,stroop_test,60.296974674742266,
,,,,79.0,7.0,6.0,,,,,,,,,,,,,gelb,blue,b,0.0,b,1.0,0.4509223999921232,,,,,,,,,,6.0,7.0,79.0,9.0,289.0709401000058,,,,,,,,,,,,,,,,,289.0576814999804,289.1709219000186,289.9703802000149,289.9547839000006,,,,,,,,,,,,,,,,,,,,,,,,,,,,,,,,,,,289.9556497000158,289.9703802000149,289.9703802000149,290.43997790000867,b,1.0,0.4509223999921232,,,,,sub-018,1,stroop_test,60.296974674742266,
,,,,80.0,8.0,6.0,,,,,,,,,,,,,blau,blue,b,1.0,b,1.0,0.4823628999874927,,,,,,,,,,6.0,8.0,80.0,5.0,290.45298309996724,,,,,,,,,,,,,,,,,290.4407172999927,291.25221609999426,292.0678480999777,292.0517645999789,,,,,,,,,,,,,,,,,,,,,,,,,,,,,,,,,,,292.0548758999794,292.0678480999777,292.0678480999777,292.55297640000936,b,1.0,0.4823628999874927,,,,,sub-018,1,stroop_test,60.296974674742266,
,,,,81.0,9.0,6.0,,,,,,,,,,,,,rot,red,r,1.0,r,1.0,0.5021111000096425,,,,,,,,,,6.0,9.0,81.0,0.0,292.5678327999776,,,,,,,,,,,,,,,,,292.55348220001906,292.91779889998725,293.7240407000063,293.7019290999742,,,,,,,,,,,,,,,,,,,,,,,,,,,,,,,,,,,293.7133065999951,293.7240407000063,293.7240407000063,294.23348170000827,r,1.0,0.5021111000096425,,,,,sub-018,1,stroop_test,60.296974674742266,
,,,,82.0,10.0,6.0,,,,,,,,,,,,,blau,blue,b,1.0,b,1.0,0.4381108999950811,,,,,,,,,,6.0,10.0,82.0,6.0,294.2491297000088,,,,,,,,,,,,,,,,,294.2337333000032,295.04934520000825,295.84932410001056,295.8331867000088,,,,,,,,,,,,,,,,,,,,,,,,,,,,,,,,,,,295.8410635999753,295.84932410001056,295.84932410001056,296.3006705999724,b,1.0,0.4381108999950811,,,,,sub-018,1,stroop_test,60.296974674742266,
,,,,83.0,11.0,6.0,,,,,,,,,,,,,rot,red,r,1.0,r,1.0,0.504971599963028,,,,,,,,,,6.0,11.0,83.0,1.0,296.3145936999936,,,,,,,,,,,,,,,,,296.301563200017,296.664116800006,297.4793944999692,297.4631541999988,,,,,,,,,,,,,,,,,,,,,,,,,,,,,,,,,,,297.4654344000155,297.4793944999692,297.4793944999692,297.9963573999703,r,1.0,0.504971599963028,,,,,sub-018,1,stroop_test,60.296974674742266,
,,,,84.0,0.0,7.0,,,,,,,,,,,,,rot,red,r,1.0,r,1.0,0.4497635000152513,,,,,,,,,,7.0,0.0,84.0,1.0,298.0122165000066,,,,,,,,,,,,,,,,,297.9965791999712,298.811983099964,299.6117046999861,299.5966939000064,,,,,,,,,,,,,,,,,,,,,,,,,,,,,,,,,,,299.5980943000177,299.6117046999861,299.6117046999861,300.064649500011,r,1.0,0.4497635000152513,,,,,sub-018,1,stroop_test,60.296974674742266,
,,,,85.0,1.0,7.0,,,,,,,,,,,,,blau,yellow,g,0.0,g,1.0,0.4478581000003032,,,,,,,,,,7.0,1.0,85.0,7.0,300.0775428999914,,,,,,,,,,,,,,,,,300.0655428000028,300.17780409997795,300.9793295999989,300.96248689998174,,,,,,,,,,,,,,,,,,,,,,,,,,,,,,,,,,,300.9726205000188,300.9793295999989,300.9793295999989,301.4436438999837,g,1.0,0.4478581000003032,,,,,sub-018,1,stroop_test,60.296974674742266,
,,,,86.0,2.0,7.0,,,,,,,,,,,,,gelb,blue,b,0.0,b,1.0,0.3706940999836661,,,,,,,,,,7.0,2.0,86.0,9.0,301.4590402999893,,,,,,,,,,,,,,,,,301.44402310001897,302.25855849997606,303.06300650001504,303.04345709999325,,,,,,,,,,,,,,,,,,,,,,,,,,,,,,,,,,,303.05463659996167,303.06300650001504,303.06300650001504,303.44454290001886,b,1.0,0.3706940999836661,,,,,sub-018,1,stroop_test,60.296974674742266,
,,,,87.0,3.0,7.0,,,,,,,,,,,,,gelb,red,r,0.0,r,1.0,0.3906356000225059,,,,,,,,,,7.0,3.0,87.0,8.0,303.45808389998274,,,,,,,,,,,,,,,,,303.4455506000086,303.8075155999977,304.60699850000674,304.5918214999838,,,,,,,,,,,,,,,,,,,,,,,,,,,,,,,,,,,304.5932638999657,304.60699850000674,304.60699850000674,305.00979939999525,r,1.0,0.3906356000225059,,,,,sub-018,1,stroop_test,60.296974674742266,
,,,,88.0,4.0,7.0,,,,,,,,,,,,,blau,blue,b,1.0,b,1.0,0.484388199984096,,,,,,,,,,7.0,4.0,88.0,5.0,305.0227567999973,,,,,,,,,,,,,,,,,305.0108180000097,305.3729540999629,306.175665399991,306.15733650000766,,,,,,,,,,,,,,,,,,,,,,,,,,,,,,,,,,,306.16619889996946,306.175665399991,306.175665399991,306.6749762999825,b,1.0,0.484388199984096,,,,,sub-018,1,stroop_test,60.296974674742266,
,,,,89.0,5.0,7.0,,,,,,,,,,,,,rot,blue,b,0.0,b,1.0,0.6945846999878995,,,,,,,,,,7.0,5.0,89.0,2.0,306.68805459997384,,,,,,,,,,,,,,,,,306.6760143999709,306.7880137999892,307.5922993000131,307.57258789998014,,,,,,,,,,,,,,,,,,,,,,,,,,,,,,,,,,,307.5838999999687,307.5922993000131,307.5922993000131,308.29107759997714,b,1.0,0.6945846999878995,,,,,sub-018,1,stroop_test,60.296974674742266,
,,,,90.0,6.0,7.0,,,,,,,,,,,,,blau,red,r,0.0,r,1.0,0.402807499980554,,,,,,,,,,7.0,6.0,90.0,4.0,308.303129500011,,,,,,,,,,,,,,,,,308.29212960001314,309.10254709998844,309.90238529996714,309.8865251999814,,,,,,,,,,,,,,,,,,,,,,,,,,,,,,,,,,,309.894602699962,309.90238529996714,309.90238529996714,310.31983839999884,r,1.0,0.402807499980554,,,,,sub-018,1,stroop_test,60.296974674742266,
,,,,91.0,7.0,7.0,,,,,,,,,,,,,blau,blue,b,1.0,r,0.0,0.4570773000014014,,,,,,,,,,7.0,7.0,91.0,6.0,310.33457549999,,,,,,,,,,,,,,,,,310.32046670001,310.6846092999913,311.50013279996347,311.48392359999707,,,,,,,,,,,,,,,,,,,,,,,,,,,,,,,,,,,311.4844324999722,311.50013279996347,311.50013279996347,311.9699050000054,r,0.0,0.4570773000014014,,,,,sub-018,1,stroop_test,60.296974674742266,
,,,,92.0,8.0,7.0,,,,,,,,,,,,,gelb,yellow,g,1.0,g,1.0,0.551702499971725,,,,,,,,,,7.0,8.0,92.0,11.0,311.9831686000107,,,,,,,,,,,,,,,,,311.9709490999812,312.0830879000132,312.88816309999675,312.8680155000184,,,,,,,,,,,,,,,,,,,,,,,,,,,,,,,,,,,312.8793195000035,312.88816309999675,312.88816309999675,313.451302499976,g,1.0,0.551702499971725,,,,,sub-018,1,stroop_test,60.296974674742266,
,,,,93.0,9.0,7.0,,,,,,,,,,,,,rot,red,r,1.0,r,1.0,0.5254554999992251,,,,,,,,,,7.0,9.0,93.0,0.0,313.46476599999005,,,,,,,,,,,,,,,,,313.4522927000071,313.81416660000104,314.6190609000041,314.59932769997977,,,,,,,,,,,,,,,,,,,,,,,,,,,,,,,,,,,314.6115725999698,314.6190609000041,314.6190609000041,315.1471971999854,r,1.0,0.5254554999992251,,,,,sub-018,1,stroop_test,60.296974674742266,
,,,,94.0,10.0,7.0,,,,,,,,,,,,,rot,yellow,g,0.0,g,1.0,0.5609101000009105,,,,,,,,,,7.0,10.0,94.0,3.0,315.16291600000113,,,,,,,,,,,,,,,,,315.1474383000168,315.2464125999832,316.04593029996613,316.03139680001186,,,,,,,,,,,,,,,,,,,,,,,,,,,,,,,,,,,316.0328007999924,316.04593029996613,316.04593029996613,316.61484589998145,g,1.0,0.5609101000009105,,,,,sub-018,1,stroop_test,60.296974674742266,
,,,,95.0,11.0,7.0,,,,,,,,,,,,,gelb,yellow,g,1.0,g,1.0,0.4608087000087835,,,,,,,,,,7.0,11.0,95.0,10.0,316.62872529996093,,,,,,,,,,,,,,,,,316.61573670001235,316.9783549999702,317.77748429996427,317.7620221999823,,,,,,,,,,,,,,,,,,,,,,,,,,,,,,,,,,,317.76932600000873,317.77748429996427,317.77748429996427,318.2475630000117,g,1.0,0.4608087000087835,,,,,sub-018,1,stroop_test,60.296974674742266,
,,,,96.0,0.0,8.0,,,,,,,,,,,,,rot,yellow,g,0.0,g,1.0,0.3632920000236481,,,,,,,,,,8.0,0.0,96.0,3.0,318.2606211999664,,,,,,,,,,,,,,,,,318.2486070999876,318.61039609997533,319.427504399966,319.41096329997526,,,,,,,,,,,,,,,,,,,,,,,,,,,,,,,,,,,319.4205707999645,319.427504399966,319.427504399966,319.7959018999827,g,1.0,0.3632920000236481,,,,,sub-018,1,stroop_test,60.296974674742266,
,,,,97.0,1.0,8.0,,,,,,,,,,,,,gelb,blue,b,0.0,b,1.0,0.4249215999734588,,,,,,,,,,8.0,1.0,97.0,9.0,319.80886300001293,,,,,,,,,,,,,,,,,319.7970678000129,320.60862459999043,321.43007800000487,321.4097802999895,,,,,,,,,,,,,,,,,,,,,,,,,,,,,,,,,,,321.4225771999918,321.43007800000487,321.43007800000487,321.8605762000079,b,1.0,0.4249215999734588,,,,,sub-018,1,stroop_test,60.296974674742266,
,,,,98.0,2.0,8.0,,,,,,,,,,,,,gelb,yellow,g,1.0,g,1.0,0.551579299964942,,,,,,,,,,8.0,2.0,98.0,10.0,321.87394139997195,,,,,,,,,,,,,,,,,321.8615836999961,321.97413029999007,322.7733266999712,322.75837120000506,,,,,,,,,,,,,,,,,,,,,,,,,,,,,,,,,,,322.7598038999713,322.7733266999712,322.7733266999712,323.3418421999668,g,1.0,0.551579299964942,,,,,sub-018,1,stroop_test,60.296974674742266,
,,,,99.0,3.0,8.0,,,,,,,,,,,,,rot,blue,b,0.0,b,1.0,0.6304183999891393,,,,,,,,,,8.0,3.0,99.0,2.0,323.355965499999,,,,,,,,,,,,,,,,,323.34275559999514,324.1553664999665,324.9575274999952,324.9398062999826,,,,,,,,,,,,,,,,,,,,,,,,,,,,,,,,,,,324.9500861999695,324.9575274999952,324.9575274999952,325.5917595999781,b,1.0,0.6304183999891393,,,,,sub-018,1,stroop_test,60.296974674742266,
,,,,100.0,4.0,8.0,,,,,,,,,,,,,blau,yellow,g,0.0,g,1.0,0.8429987000417896,,,,,,,,,,8.0,4.0,100.0,7.0,325.60375169996405,,,,,,,,,,,,,,,,,325.5927851999877,325.7034603999928,326.50264839996817,326.48812559997896,,,,,,,,,,,,,,,,,,,,,,,,,,,,,,,,,,,326.4954470999656,326.50264839996817,326.50264839996817,327.35517419996904,g,1.0,0.8429987000417896,,,,,sub-018,1,stroop_test,60.296974674742266,
,,,,101.0,5.0,8.0,,,,,,,,,,,,,blau,blue,b,1.0,b,1.0,0.5184742999845184,,,,,,,,,,8.0,5.0,101.0,5.0,327.3688220999902,,,,,,,,,,,,,,,,,327.356038399972,328.56777590001,329.3666780999629,329.3528253000113,,,,,,,,,,,,,,,,,,,,,,,,,,,,,,,,,,,329.35420860000886,329.3666780999629,329.3666780999629,329.90292209998006,b,1.0,0.5184742999845184,,,,,sub-018,1,stroop_test,60.296974674742266,
,,,,102.0,6.0,8.0,,,,,,,,,,,,,rot,red,r,1.0,r,1.0,0.4611173000303097,,,,,,,,,,8.0,6.0,102.0,1.0,329.91634349996457,,,,,,,,,,,,,,,,,329.9036976000061,330.26622669998324,331.06905310001457,331.0506216000067,,,,,,,,,,,,,,,,,,,,,,,,,,,,,,,,,,,331.0616426999913,331.06905310001457,331.06905310001457,331.5351956000086,r,1.0,0.4611173000303097,,,,,sub-018,1,stroop_test,60.296974674742266,
,,,,103.0,7.0,8.0,,,,,,,,,,,,,gelb,red,r,0.0,r,1.0,0.502655699965544,,,,,,,,,,8.0,7.0,103.0,8.0,331.5481872999808,,,,,,,,,,,,,,,,,331.53626919997623,332.74698260001605,333.55106369999703,333.53150629997253,,,,,,,,,,,,,,,,,,,,,,,,,,,,,,,,,,,333.5428347999696,333.55106369999703,333.55106369999703,334.0653710999759,r,1.0,0.502655699965544,,,,,sub-018,1,stroop_test,60.296974674742266,
,,,,104.0,8.0,8.0,,,,,,,,,,,,,blau,blue,b,1.0,b,1.0,0.4680002999957651,,,,,,,,,,8.0,8.0,104.0,6.0,334.07919700001366,,,,,,,,,,,,,,,,,334.066242699977,335.2784042999847,336.0798478999641,336.0627206999925,,,,,,,,,,,,,,,,,,,,,,,,,,,,,,,,,,,336.07318399997894,336.0798478999641,336.0798478999641,336.5633890000172,b,1.0,0.4680002999957651,,,,,sub-018,1,stroop_test,60.296974674742266,
,,,,105.0,9.0,8.0,,,,,,,,,,,,,blau,red,r,0.0,r,1.0,0.8831471999874339,,,,,,,,,,8.0,9.0,105.0,4.0,336.57683560001897,,,,,,,,,,,,,,,,,336.5644000999746,336.67701320000924,337.49263890000293,337.47704699996393,,,,,,,,,,,,,,,,,,,,,,,,,,,,,,,,,,,337.4779367999872,337.49263890000293,337.49263890000293,338.3925872999825,r,1.0,0.8831471999874339,,,,,sub-018,1,stroop_test,60.296974674742266,
,,,,106.0,10.0,8.0,,,,,,,,,,,,,rot,red,r,1.0,r,1.0,0.3385479999706149,,,,,,,,,,8.0,10.0,106.0,0.0,338.4080673999852,,,,,,,,,,,,,,,,,338.39298130001407,339.2077649999992,340.0108957999619,339.9920984999626,,,,,,,,,,,,,,,,,,,,,,,,,,,,,,,,,,,340.00355369999306,340.0108957999619,340.0108957999619,340.359847899992,r,1.0,0.3385479999706149,,,,,sub-018,1,stroop_test,60.296974674742266,
,,,,107.0,11.0,8.0,,,,,,,,,,,,,gelb,yellow,g,1.0,g,1.0,1.1789514000411143,,,,,,,,,,8.0,11.0,107.0,11.0,340.37334509997163,,,,,,,,,,,,,,,,,340.36085870000534,341.17284020001534,341.97633859998314,341.95743159996346,,,,,,,,,,,,,,,,,,,,,,,,,,,,,,,,,,,341.9696693000151,341.97633859998314,341.97633859998314,343.1723458999768,g,1.0,1.1789514000411143,,,,,sub-018,1,stroop_test,60.296974674742266,
,,,,108.0,0.0,9.0,,,,,,,,,,,,,blau,red,r,0.0,b,0.0,0.7283534000162035,,,,,,,,,,9.0,0.0,108.0,4.0,343.18698090000544,,,,,,,,,,,,,,,,,343.17292219999945,343.53724480001256,344.3360321999644,344.32158759998856,,,,,,,,,,,,,,,,,,,,,,,,,,,,,,,,,,,344.3289851999725,344.3360321999644,344.3360321999644,345.07154649996664,b,0.0,0.7283534000162035,,,,,sub-018,1,stroop_test,60.296974674742266,
,,,,109.0,1.0,9.0,,,,,,,,,,,,,rot,red,r,1.0,r,1.0,0.5006922999746166,,,,,,,,,,9.0,1.0,109.0,1.0,345.0855020000017,,,,,,,,,,,,,,,,,345.0724285999895,345.88501719996566,346.6874257000163,346.66946870001266,,,,,,,,,,,,,,,,,,,,,,,,,,,,,,,,,,,346.6798494000104,346.6874257000163,346.6874257000163,347.2033355999738,r,1.0,0.5006922999746166,,,,,sub-018,1,stroop_test,60.296974674742266,
,,,,110.0,2.0,9.0,,,,,,,,,,,,,rot,blue,b,0.0,b,1.0,0.7331986000062898,,,,,,,,,,9.0,2.0,110.0,2.0,347.2169555000146,,,,,,,,,,,,,,,,,347.20423430000665,348.41521269996883,349.2150035999948,349.2005705999909,,,,,,,,,,,,,,,,,,,,,,,,,,,,,,,,,,,349.2019435999682,349.2150035999948,349.2150035999948,349.964953000017,b,1.0,0.7331986000062898,,,,,sub-018,1,stroop_test,60.296974674742266,
,,,,111.0,3.0,9.0,,,,,,,,,,,,,gelb,blue,b,0.0,b,1.0,0.6987590999924578,,,,,,,,,,9.0,3.0,111.0,9.0,349.9804607999977,,,,,,,,,,,,,,,,,349.9654159999918,350.06388149998384,350.8701271999744,350.84902530000545,,,,,,,,,,,,,,,,,,,,,,,,,,,,,,,,,,,350.86027209996246,350.8701271999744,350.8701271999744,351.5802956999978,b,1.0,0.6987590999924578,,,,,sub-018,1,stroop_test,60.296974674742266,
,,,,112.0,4.0,9.0,,,,,,,,,,,,,gelb,yellow,g,1.0,g,1.0,0.3750661999802105,,,,,,,,,,9.0,4.0,112.0,11.0,351.59617570001865,,,,,,,,,,,,,,,,,351.58065730001545,352.39545349997934,353.1946874000132,353.1792090999661,,,,,,,,,,,,,,,,,,,,,,,,,,,,,,,,,,,353.180280599976,353.1946874000132,353.1946874000132,353.5809084000066,g,1.0,0.3750661999802105,,,,,sub-018,1,stroop_test,60.296974674742266,
,,,,113.0,5.0,9.0,,,,,,,,,,,,,gelb,yellow,g,1.0,g,1.0,0.4648084999644197,,,,,,,,,,9.0,5.0,113.0,10.0,353.59439460001886,,,,,,,,,,,,,,,,,353.5819594999776,353.9437292999937,354.7434293999686,354.7285668000113,,,,,,,,,,,,,,,,,,,,,,,,,,,,,,,,,,,354.7300036000088,354.7434293999686,354.7434293999686,355.21267109998735,g,1.0,0.4648084999644197,,,,,sub-018,1,stroop_test,60.296974674742266,
,,,,114.0,6.0,9.0,,,,,,,,,,,,,rot,red,r,1.0,r,1.0,0.3695109999971464,,,,,,,,,,9.0,6.0,114.0,0.0,355.22612669999944,,,,,,,,,,,,,,,,,355.2135707999696,356.4251248000073,357.2439238000079,357.2253739999724,,,,,,,,,,,,,,,,,,,,,,,,,,,,,,,,,,,357.23514120001346,357.2439238000079,357.2439238000079,357.6246012999909,r,1.0,0.3695109999971464,,,,,sub-018,1,stroop_test,60.296974674742266,
,,,,115.0,7.0,9.0,,,,,,,,,,,,,blau,yellow,g,0.0,g,1.0,0.551823899964802,,,,,,,,,,9.0,7.0,115.0,7.0,357.6402552999789,,,,,,,,,,,,,,,,,357.6249658999732,357.9904615000123,358.8060898999684,358.79102689999854,,,,,,,,,,,,,,,,,,,,,,,,,,,,,,,,,,,358.7969537000172,358.8060898999684,358.8060898999684,359.3753937999718,g,1.0,0.551823899964802,,,,,sub-018,1,stroop_test,60.296974674742266,
,,,,116.0,8.0,9.0,,,,,,,,,,,,,rot,yellow,g,0.0,g,1.0,0.5920369000523351,,,,,,,,,,9.0,8.0,116.0,3.0,359.3891528999666,,,,,,,,,,,,,,,,,359.37649479997344,360.5877880000044,361.3865600000136,361.3708681999706,,,,,,,,,,,,,,,,,,,,,,,,,,,,,,,,,,,361.3746014999924,361.3865600000136,361.3865600000136,361.988319600001,g,1.0,0.5920369000523351,,,,,sub-018,1,stroop_test,60.296974674742266,
,,,,117.0,9.0,9.0,,,,,,,,,,,,,gelb,red,r,0.0,r,1.0,0.5127221000147983,,,,,,,,,,9.0,9.0,117.0,8.0,362.0028206999996,,,,,,,,,,,,,,,,,361.9889593999833,362.8023411000031,363.6020716999774,363.586401699984,,,,,,,,,,,,,,,,,,,,,,,,,,,,,,,,,,,363.594454200007,363.6020716999774,363.6020716999774,364.1204947999795,r,1.0,0.5127221000147983,,,,,sub-018,1,stroop_test,60.296974674742266,
,,,,118.0,10.0,9.0,,,,,,,,,,,,,blau,blue,b,1.0,b,1.0,0.5620537999784574,,,,,,,,,,9.0,10.0,118.0,6.0,364.1343467999832,,,,,,,,,,,,,,,,,364.1213718999643,365.33343309996417,366.1355189000024,366.1176759999944,,,,,,,,,,,,,,,,,,,,,,,,,,,,,,,,,,,366.1268309999723,366.1355189000024,366.1355189000024,366.7001766000176,b,1.0,0.5620537999784574,,,,,sub-018,1,stroop_test,60.296974674742266,
,,,,119.0,11.0,9.0,,,,,,,,,,,,,blau,blue,b,1.0,b,1.0,0.4481235000421293,,,,,,,,,,9.0,11.0,119.0,5.0,366.71496259997366,,,,,,,,,,,,,,,,,366.7006190000102,366.8155643999926,367.61481609998737,367.60008090001065,,,,,,,,,,,,,,,,,,,,,,,,,,,,,,,,,,,367.6014592999709,367.61481609998737,367.61481609998737,368.0667916999664,b,1.0,0.4481235000421293,,,,,sub-018,1,stroop_test,60.296974674742266,
,,,,,,,,,,,,,,,,,,,,,,,,,,,,,,,,,,,,,,,,,,,,,,,,,,,,,,,,,,,,,,,,,,,,,,,,,,,,,,,,,,,,,,,,,,,,,,,,,,,,,,368.0671774999937,368.0807354999706,373.07658910000464,sub-018,1,stroop_test,60.296974674742266,
