wordCTK,colorCTK,corrAnsCTK,congruentCTK,thisN,thisTrialN,thisRepN,keyResp_CTK.keys,keyResp_CTK.corr,keyResp_CTK.rt,keyResp_CTK.duration,wordPractice,colorPractice,corrAnsPractice,congruentPractice,respPractice.keys,respPractice.corr,respPractice.rt,respPractice.duration,word,color,corrAns,congruent,keyResp_test_run.keys,keyResp_test_run.corr,keyResp_test_run.rt,keyResp_test_run.duration,trials_CTK.thisRepN,trials_CTK.thisTrialN,trials_CTK.thisN,trials_CTK.thisIndex,trials_practice.thisRepN,trials_practice.thisTrialN,trials_practice.thisN,trials_practice.thisIndex,trials_test.thisRepN,trials_test.thisTrialN,trials_test.thisN,trials_test.thisIndex,thisRow.t,notes,instruction.started,instr_text.started,instr_image.started,instr_resp.started,instruction.stopped,instr_resp.keys,instr_resp.rt,instr_resp.duration,instr_color_to_key.started,instr_ctk.started,resp_ctk.started,instr_color_to_key.stopped,resp_ctk.keys,resp_ctk.rt,resp_ctk.duration,ITI.started,fixcross.started,fixcross.stopped,ITI.stopped,color_to_key_run.started,stimulus_CTK.started,keyResp_CTK.started,color_to_key_run.stopped,trials_CTK.keyResp_CTK.keys,trials_CTK.keyResp_CTK.corr,trials_CTK.keyResp_CTK.rt,trials_CTK.keyResp_CTK.duration,instr_practice.started,instr_practice_text.started,instr_practice_resp.started,instr_practice.stopped,instr_practice_resp.keys,instr_practice_resp.rt,instr_practice_resp.duration,practice_run.started,stimulus_practice.started,respPractice.started,practice_run.stopped,trials_practice.respPractice.keys,trials_practice.respPractice.corr,trials_practice.respPractice.rt,trials_practice.respPractice.duration,feedback.started,textFeedback.started,feedback.stopped,textFeedback.stopped,instr_test.started,instr_test_text.started,instr_test_resp.started,instr_test.stopped,instr_test_resp.keys,instr_test_resp.rt,instr_test_resp.duration,test_run.started,stimulus_test_run.started,keyResp_test_run.started,test_run.stopped,trials_test.keyResp_test_run.keys,trials_test.keyResp_test_run.corr,trials_test.keyResp_test_run.rt,trials_test.keyResp_test_run.duration,goodbye.started,textGoodbye.started,goodbye.stopped,participant,session,expName,frameRate,Unnamed: 112
,,,,,,,,,,,,,,,,,,,,,,,,,,,,,,,,,,,,,,,,,0.0040905999999267,0.0897129999998469,0.0897129999998469,0.0897129999998469,66.94125770000005,space,66.78995699999996,,,,,,,,,,,,,,,,,,,,,,,,,,,,,,,,,,,,,,,,,,,,,,,,,,,,,,,,,,sub-024,1,stroop_test,59.99138523706625,
,,,,,,,,,,,,,,,,,,,,,,,,,,,,,,,,,,,,,,,,,,,,,,,,,66.94133420000003,66.94822640000007,66.94822640000007,76.08926369999995,space,9.132824999999912,,,,,,,,,,,,,,,,,,,,,,,,,,,,,,,,,,,,,,,,,,,,,,,,,,,sub-024,1,stroop_test,59.99138523706625,
test,yellow,g,1.0,0.0,0.0,0.0,g,1.0,2.225475700000061,,,,,,,,,,,,,,,,,,0.0,0.0,0.0,1.0,,,,,,,,,76.12322070000005,,,,,,,,,,,,,,,,,76.11683389999985,76.45393990000002,77.26491379999993,77.23920750000002,77.25741689999995,77.26491379999993,77.26491379999993,79.50804049999988,g,1.0,2.225475700000061,,,,,,,,,,,,,,,,,,,,,,,,,,,,,,,,,,,,,,,sub-024,1,stroop_test,59.99138523706625,
test,blue,b,1.0,1.0,1.0,0.0,b,1.0,1.825774200000069,,,,,,,,,,,,,,,,,,0.0,1.0,1.0,2.0,,,,,,,,,79.52252959999987,,,,,,,,,,,,,,,,,79.50857659999997,80.72376469999995,81.5242275999999,81.50862140000004,81.50936739999997,81.5242275999999,81.5242275999999,83.36077030000001,b,1.0,1.825774200000069,,,,,,,,,,,,,,,,,,,,,,,,,,,,,,,,,,,,,,,sub-024,1,stroop_test,59.99138523706625,
test,red,r,1.0,2.0,2.0,0.0,r,1.0,1.0239751000001434,,,,,,,,,,,,,,,,,,0.0,2.0,2.0,0.0,,,,,,,,,83.37512419999985,,,,,,,,,,,,,,,,,83.36138059999985,83.72546719999991,84.5260894999999,84.51069869999992,84.51151559999994,84.5260894999999,84.5260894999999,85.5629993,r,1.0,1.0239751000001434,,,,,,,,,,,,,,,,,,,,,,,,,,,,,,,,,,,,,,,sub-024,1,stroop_test,59.99138523706625,
test,blue,b,1.0,3.0,0.0,1.0,b,1.0,1.782254899999998,,,,,,,,,,,,,,,,,,1.0,0.0,3.0,2.0,,,,,,,,,85.57683670000006,,,,,,,,,,,,,,,,,85.5635929,86.37733449999996,87.17786389999992,87.16247989999988,87.16335639999988,87.17786389999992,87.17786389999992,88.96528360000002,b,1.0,1.782254899999998,,,,,,,,,,,,,,,,,,,,,,,,,,,,,,,,,,,,,,,sub-024,1,stroop_test,59.99138523706625,
test,red,r,1.0,4.0,1.0,1.0,r,1.0,0.8900605000001178,,,,,,,,,,,,,,,,,,1.0,1.0,4.0,0.0,,,,,,,,,88.97904960000005,,,,,,,,,,,,,,,,,88.9658359,89.32966379999993,90.13002129999995,90.11548629999992,90.11633719999986,90.13002129999995,90.13002129999995,91.03285669999993,r,1.0,0.8900605000001178,,,,,,,,,,,,,,,,,,,,,,,,,,,,,,,,,,,,,,,sub-024,1,stroop_test,59.99138523706625,
test,yellow,g,1.0,5.0,2.0,1.0,g,1.0,0.832127299999911,,,,,,,,,,,,,,,,,,1.0,2.0,5.0,1.0,,,,,,,,,91.0471293999999,,,,,,,,,,,,,,,,,91.03383770000003,91.39754459999996,92.19780889999991,92.18412199999987,92.1852824,92.19780889999991,92.19780889999991,93.03765109999996,g,1.0,0.832127299999911,,,,,,,,,,,,,,,,,,,,,,,,,,,,,,,,,,,,,,,sub-024,1,stroop_test,59.99138523706625,
test,yellow,g,1.0,6.0,0.0,2.0,g,1.0,1.160551299999952,,,,,,,,,,,,,,,,,,2.0,0.0,6.0,1.0,,,,,,,,,93.04861039999992,,,,,,,,,,,,,,,,,93.03821659999994,94.24938989999988,95.05003480000003,95.0347096999999,95.03545310000004,95.05003480000003,95.05003480000003,96.22071329999994,g,1.0,1.160551299999952,,,,,,,,,,,,,,,,,,,,,,,,,,,,,,,,,,,,,,,sub-024,1,stroop_test,59.99138523706625,
test,blue,b,1.0,7.0,1.0,2.0,b,1.0,1.4552131000000372,,,,,,,,,,,,,,,,,,2.0,1.0,7.0,2.0,,,,,,,,,96.23405529999992,,,,,,,,,,,,,,,,,96.2214262,97.43505019999998,98.23542780000002,98.22026959999994,98.22123319999992,98.23542780000002,98.23542780000002,99.70522289999984,b,1.0,1.4552131000000372,,,,,,,,,,,,,,,,,,,,,,,,,,,,,,,,,,,,,,,sub-024,1,stroop_test,59.99138523706625,
test,red,r,1.0,8.0,2.0,2.0,r,1.0,0.88942800000018,,,,,,,,,,,,,,,,,,2.0,2.0,8.0,0.0,,,,,,,,,99.71981989999996,,,,,,,,,,,,,,,,,99.7059491,100.06998419999992,100.87076430000002,100.8558693,100.85673180000003,100.87076430000002,100.87076430000002,101.77548980000006,r,1.0,0.88942800000018,,,,,,,,,,,,,,,,,,,,,,,,,,,,,,,,,,,,,,,sub-024,1,stroop_test,59.99138523706625,
test,blue,b,1.0,9.0,0.0,3.0,b,1.0,1.4321717000000262,,,,,,,,,,,,,,,,,,3.0,0.0,9.0,2.0,,,,,,,,,101.7879175999999,,,,,,,,,,,,,,,,,101.7760581,101.8883217,102.68872659999988,102.67342059999989,102.67416549999984,102.68872659999988,102.68872659999988,104.12514940000004,b,1.0,1.4321717000000262,,,,,,,,,,,,,,,,,,,,,,,,,,,,,,,,,,,,,,,sub-024,1,stroop_test,59.99138523706625,
test,yellow,g,1.0,10.0,1.0,3.0,g,1.0,0.677103999999872,,,,,,,,,,,,,,,,,,3.0,1.0,10.0,1.0,,,,,,,,,104.13942829999996,,,,,,,,,,,,,,,,,104.12568009999995,104.48973260000002,105.29303319999984,105.27504679999991,105.27580749999991,105.29303319999984,105.29303319999984,105.9770082,g,1.0,0.677103999999872,,,,,,,,,,,,,,,,,,,,,,,,,,,,,,,,,,,,,,,sub-024,1,stroop_test,59.99138523706625,
test,red,r,1.0,11.0,2.0,3.0,r,1.0,1.8882211000000095,,,,,,,,,,,,,,,,,,3.0,2.0,11.0,0.0,,,,,,,,,105.99075659999994,,,,,,,,,,,,,,,,,105.97761739999989,106.79141729999992,107.59219409999992,107.57665900000006,107.57749910000008,107.59219409999992,107.59219409999992,109.49570930000004,r,1.0,1.8882211000000095,,,,,,,,,,,,,,,,,,,,,,,,,,,,,,,,,,,,,,,sub-024,1,stroop_test,59.99138523706625,
,,,,,,,,,,,,,,,,,,,,,,,,,,,,,,,,,,,,,,,,,,,,,,,,,,,,,,,,,,,,,,,,,,,,109.49597319999998,109.51000079999994,109.51000079999994,122.58852780000008,space,13.070419899999932,,,,,,,,,,,,,,,,,,,,,,,,,,,,,,,,sub-024,1,stroop_test,59.99138523706625,
,,,,0.0,0.0,0.0,,,,,blau,blue,b,1.0,b,1.0,1.7820580000000064,,,,,,,,,,,,,,0.0,0.0,0.0,5.0,,,,,122.61781810000002,,,,,,,,,,,,,,,,,122.61234960000002,123.38639109999986,124.19789500000002,124.17158949999998,,,,,,,,,,,,,,,,124.19001439999988,124.19789500000002,124.19789500000002,125.98970519999988,b,1.0,1.7820580000000064,,126.00462930000003,126.0120437999999,127.00590289999992,,,,,,,,,,,,,,,,,,,,sub-024,1,stroop_test,59.99138523706625,
,,,,1.0,1.0,0.0,,,,,blau,red,r,0.0,r,1.0,0.9209743000001254,,,,,,,,,,,,,,0.0,1.0,1.0,4.0,,,,,127.02217930000006,,,,,,,,,,,,,,,,,127.00641309999992,127.33905200000004,128.13957779999987,128.12454479999997,,,,,,,,,,,,,,,,128.12531480000007,128.13957779999987,128.13957779999987,129.07753359999992,r,1.0,0.9209743000001254,,129.07833059999984,129.09010769999986,130.07636219999995,130.0909833999999,,,,,,,,,,,,,,,,,,,sub-024,1,stroop_test,59.99138523706625,
,,,,2.0,2.0,0.0,,,,,gelb,yellow,g,1.0,g,1.0,1.3682016000000203,,,,,,,,,,,,,,0.0,2.0,2.0,10.0,,,,,130.0909833999999,,,,,,,,,,,,,,,,,130.07687269999997,130.89147129999992,131.6921643999999,131.67670980000003,,,,,,,,,,,,,,,,131.68388359999994,131.6921643999999,131.6921643999999,133.06271019999986,g,1.0,1.3682016000000203,,133.06354880000004,133.07632169999988,134.06187569999997,134.07703259999994,,,,,,,,,,,,,,,,,,,sub-024,1,stroop_test,59.99138523706625,
,,,,3.0,3.0,0.0,,,,,gelb,yellow,g,1.0,g,1.0,1.2926183000001856,,,,,,,,,,,,,,0.0,3.0,3.0,11.0,,,,,134.07703259999994,,,,,,,,,,,,,,,,,134.06234339999992,134.8777144999999,135.6782679999999,135.66268489999993,,,,,,,,,,,,,,,,135.66334430000006,135.6782679999999,135.6782679999999,136.98229620000006,g,1.0,1.2926183000001856,,136.98334750000004,136.99568249999993,137.98150039999996,137.99643719999997,,,,,,,,,,,,,,,,,,,sub-024,1,stroop_test,59.99138523706625,
,,,,4.0,4.0,0.0,,,,,rot,red,r,1.0,r,1.0,0.6929909000000407,,,,,,,,,,,,,,0.0,4.0,4.0,1.0,,,,,137.99643719999997,,,,,,,,,,,,,,,,,137.98202319999996,138.3465609,139.14802069999996,139.13163740000005,,,,,,,,,,,,,,,,139.14065219999998,139.14802069999996,139.14802069999996,139.8497992,r,1.0,0.6929909000000407,,139.8506812999999,139.86424420000003,140.85015359999989,140.86492129999988,,,,,,,,,,,,,,,,,,,sub-024,1,stroop_test,59.99138523706625,
,,,,5.0,5.0,0.0,,,,,rot,yellow,g,0.0,g,1.0,0.9648259000000508,,,,,,,,,,,,,,0.0,5.0,5.0,3.0,,,,,140.86492129999988,,,,,,,,,,,,,,,,,140.85087210000006,141.66593420000004,142.4661888999999,142.4508361999999,,,,,,,,,,,,,,,,142.4516432999999,142.4661888999999,142.4661888999999,143.43620009999995,g,1.0,0.9648259000000508,,143.43706900000006,143.45015569999987,144.43583549999994,144.45107229999985,,,,,,,,,,,,,,,,,,,sub-024,1,stroop_test,59.99138523706625,
,,,,6.0,6.0,0.0,,,,,blau,yellow,g,0.0,g,1.0,0.9883703999998944,,,,,,,,,,,,,,0.0,6.0,6.0,7.0,,,,,144.45107229999985,,,,,,,,,,,,,,,,,144.43633509999995,144.80122140000003,145.60170549999998,145.58657319999998,,,,,,,,,,,,,,,,145.59325279999985,145.60170549999998,145.60170549999998,146.60463720000007,g,1.0,0.9883703999998944,,146.60561789999997,146.6190904,147.6045698999999,147.6202882,,,,,,,,,,,,,,,,,,,sub-024,1,stroop_test,59.99138523706625,
,,,,7.0,7.0,0.0,,,,,gelb,red,r,0.0,r,1.0,1.0099655000001349,,,,,,,,,,,,,,0.0,7.0,7.0,8.0,,,,,147.6202882,,,,,,,,,,,,,,,,,147.60515970000006,147.97004620000007,148.7705615,148.75533419999988,,,,,,,,,,,,,,,,148.7622558999999,148.7705615,148.7705615,149.79009139999994,r,1.0,1.0099655000001349,,149.7909992,149.80455979999988,150.79036229999997,150.80532930000004,,,,,,,,,,,,,,,,,,,sub-024,1,stroop_test,59.99138523706625,
,,,,8.0,8.0,0.0,,,,,gelb,blue,b,0.0,b,1.0,0.8605712999999469,,,,,,,,,,,,,,0.0,8.0,8.0,9.0,,,,,150.80532930000004,,,,,,,,,,,,,,,,,150.79088890000003,151.98942039999997,152.78997460000005,152.7749879999999,,,,,,,,,,,,,,,,152.77584239999987,152.78997460000005,152.78997460000005,153.65958139999998,b,1.0,0.8605712999999469,,153.6605138,153.6737728999999,154.65941169999996,154.67462939999996,,,,,,,,,,,,,,,,,,,sub-024,1,stroop_test,59.99138523706625,
,,,,9.0,9.0,0.0,,,,,blau,blue,b,1.0,b,1.0,0.7855584999999792,,,,,,,,,,,,,,0.0,9.0,9.0,6.0,,,,,154.67462939999996,,,,,,,,,,,,,,,,,154.65990979999992,155.47515449999992,156.27591959999995,156.26047189999986,,,,,,,,,,,,,,,,156.2670839,156.27591959999995,156.27591959999995,157.07821079999985,b,1.0,0.7855584999999792,,157.07933809999986,157.09521109999991,158.0938761,,,,,,,,,,,,,,,,,,,,sub-024,1,stroop_test,59.99138523706625,
,,,,10.0,10.0,0.0,,,,,rot,blue,b,0.0,r,0.0,1.0739880000000994,,,,,,,,,,,,,,0.0,10.0,10.0,2.0,,,,,158.11023209999985,,,,,,,,,,,,,,,,,158.09440719999998,158.42733999999996,159.22830870000007,159.2125077999999,,,,,,,,,,,,,,,,159.21970859999988,159.22830870000007,159.22830870000007,160.3145242999999,r,0.0,1.0739880000000994,,160.32707379999988,160.33630919999996,161.33072349999998,,,,,,,,,,,,,,,,,,,,sub-024,1,stroop_test,59.99138523706625,
,,,,11.0,11.0,0.0,,,,,rot,red,r,1.0,r,1.0,1.330182700000023,,,,,,,,,,,,,,0.0,11.0,11.0,0.0,,,,,161.3457019,,,,,,,,,,,,,,,,,161.33104430000003,161.42939290000004,162.23027879999995,162.2145906000001,,,,,,,,,,,,,,,,162.2156485999999,162.23027879999995,162.23027879999995,163.56640429999993,r,1.0,1.330182700000023,,163.5722977999999,163.58121529999994,164.56629329999987,164.5817723,,,,,,,,,,,,,,,,,,,sub-024,1,stroop_test,59.99138523706625,
,,,,12.0,0.0,1.0,,,,,gelb,blue,b,0.0,b,1.0,1.5341268999998192,,,,,,,,,,,,,,1.0,0.0,12.0,9.0,,,,,164.5817723,,,,,,,,,,,,,,,,,164.56677530000002,165.76578229999996,166.56651620000002,166.55073399999992,,,,,,,,,,,,,,,,166.55655980000006,166.56651620000002,166.56651620000002,168.10333179999998,b,1.0,1.5341268999998192,,168.10414689999993,168.11727189999988,169.10267699999986,169.11816759999988,,,,,,,,,,,,,,,,,,,sub-024,1,stroop_test,59.99138523706625,
,,,,13.0,1.0,1.0,,,,,gelb,yellow,g,1.0,g,1.0,0.6713882000001377,,,,,,,,,,,,,,1.0,1.0,13.0,11.0,,,,,169.11816759999988,,,,,,,,,,,,,,,,,169.1034393,170.31872750000002,171.11911799999984,171.10304150000002,,,,,,,,,,,,,,,,171.1034477999999,171.11911799999984,171.11911799999984,171.8047426999999,g,1.0,0.6713882000001377,,171.8052829000001,171.81963930000006,172.80557649999992,172.82042980000006,,,,,,,,,,,,,,,,,,,sub-024,1,stroop_test,59.99138523706625,
,,,,14.0,2.0,1.0,,,,,blau,blue,b,1.0,b,1.0,1.2662740999999187,,,,,,,,,,,,,,1.0,2.0,14.0,6.0,,,,,172.82042980000006,,,,,,,,,,,,,,,,,172.8060785,174.0044332,174.80500029999985,174.78945529999987,,,,,,,,,,,,,,,,174.7947749,174.80500029999985,174.80500029999985,176.07506999999987,b,1.0,1.2662740999999187,,176.07609809999985,176.08919289999994,177.07420359999992,177.0903601,,,,,,,,,,,,,,,,,,,sub-024,1,stroop_test,59.99138523706625,
,,,,15.0,3.0,1.0,,,,,rot,red,r,1.0,r,1.0,0.4993646000000353,,,,,,,,,,,,,,1.0,3.0,15.0,1.0,,,,,177.0903601,,,,,,,,,,,,,,,,,177.0746153,177.18989779999993,177.99094420000006,177.97521329999995,,,,,,,,,,,,,,,,177.97845600000005,177.99094420000006,177.99094420000006,178.49389440000004,r,1.0,0.4993646000000353,,178.4946405999999,178.50800149999986,179.49369379999985,179.50885019999987,,,,,,,,,,,,,,,,,,,sub-024,1,stroop_test,59.99138523706625,
,,,,16.0,4.0,1.0,,,,,gelb,red,r,0.0,r,1.0,1.3167499999999563,,,,,,,,,,,,,,1.0,4.0,16.0,8.0,,,,,179.50885019999987,,,,,,,,,,,,,,,,,179.49458619999996,180.7093585,181.51353010000005,181.4955258,,,,,,,,,,,,,,,,181.5043713,181.51353010000005,181.51353010000005,182.84619729999983,r,1.0,1.3167499999999563,,182.847094,182.8613651999999,183.8464179,183.86176389999991,,,,,,,,,,,,,,,,,,,sub-024,1,stroop_test,59.99138523706625,
,,,,17.0,5.0,1.0,,,,,rot,red,r,1.0,r,1.0,0.7841467999999168,,,,,,,,,,,,,,1.0,5.0,17.0,0.0,,,,,183.86176389999991,,,,,,,,,,,,,,,,,183.84691529999984,184.64559689999987,185.4473332,185.43059889999995,,,,,,,,,,,,,,,,185.43740809999983,185.4473332,185.4473332,186.24844970000004,r,1.0,0.7841467999999168,,186.24935269999992,186.2635656,187.24881430000005,187.26394230000005,,,,,,,,,,,,,,,,,,,sub-024,1,stroop_test,59.99138523706625,
,,,,18.0,6.0,1.0,,,,,blau,yellow,g,0.0,g,1.0,1.3312430999999378,,,,,,,,,,,,,,1.0,6.0,18.0,7.0,,,,,187.26394230000005,,,,,,,,,,,,,,,,,187.2493505,188.448308,189.24957999999992,189.2334558,,,,,,,,,,,,,,,,189.2394207,189.24957999999992,189.24957999999992,190.5858748999999,g,1.0,1.3312430999999378,,190.58710589999987,190.5997006,191.58537819999992,191.6001924,,,,,,,,,,,,,,,,,,,sub-024,1,stroop_test,59.99138523706625,
,,,,19.0,7.0,1.0,,,,,gelb,yellow,g,1.0,g,1.0,1.156109699999888,,,,,,,,,,,,,,1.0,7.0,19.0,10.0,,,,,191.6001924,,,,,,,,,,,,,,,,,191.5859556999999,191.95042190000004,192.75442479999992,192.73570359999985,,,,,,,,,,,,,,,,192.74159029999987,192.75442479999992,192.75442479999992,193.9215460999999,g,1.0,1.156109699999888,,193.92271499999995,193.935082,194.9213494999999,194.93582459999996,,,,,,,,,,,,,,,,,,,sub-024,1,stroop_test,59.99138523706625,
,,,,20.0,8.0,1.0,,,,,rot,blue,b,0.0,b,1.0,1.0837848000001031,,,,,,,,,,,,,,1.0,8.0,20.0,2.0,,,,,194.93582459999996,,,,,,,,,,,,,,,,,194.92193159999988,195.7362748999999,196.53752179999992,196.5219543999999,,,,,,,,,,,,,,,,196.5284614,196.53752179999992,196.53752179999992,197.6238019,b,1.0,1.0837848000001031,,197.62455869999985,197.63776770000004,198.62367990000007,198.63840699999992,,,,,,,,,,,,,,,,,,,sub-024,1,stroop_test,59.99138523706625,
,,,,21.0,9.0,1.0,,,,,blau,blue,b,1.0,b,1.0,0.4905043999999634,,,,,,,,,,,,,,1.0,9.0,21.0,5.0,,,,,198.63840699999992,,,,,,,,,,,,,,,,,198.6243649999999,199.4388710000001,200.23999559999996,200.2244928,,,,,,,,,,,,,,,,200.23033570000007,200.23999559999996,200.23999559999996,200.74214239999992,b,1.0,0.4905043999999634,,200.7427332,200.75674460000005,201.7420863,201.7572768,,,,,,,,,,,,,,,,,,,sub-024,1,stroop_test,59.99138523706625,
,,,,22.0,10.0,1.0,,,,,rot,yellow,g,0.0,g,1.0,0.7521260000000893,,,,,,,,,,,,,,1.0,10.0,22.0,3.0,,,,,201.7572768,,,,,,,,,,,,,,,,,201.74262959999987,201.85742359999995,202.6582059,202.64264159999996,,,,,,,,,,,,,,,,202.6489227,202.6582059,202.6582059,203.42685400000005,g,1.0,0.7521260000000893,,203.4273498,203.44212270000003,204.42942219999983,,,,,,,,,,,,,,,,,,,,sub-024,1,stroop_test,59.99138523706625,
,,,,23.0,11.0,1.0,,,,,blau,red,r,0.0,r,1.0,2.123472300000003,,,,,,,,,,,,,,1.0,11.0,23.0,4.0,,,,,204.44240109999987,,,,,,,,,,,,,,,,,204.4299311,205.62681999999995,206.42730499999996,206.41191860000004,,,,,,,,,,,,,,,,206.4166567,206.42730499999996,206.42730499999996,208.56406990000005,r,1.0,2.123472300000003,,208.5650039,208.5787235,209.5644628,209.57957839999997,,,,,,,,,,,,,,,,,,,sub-024,1,stroop_test,59.99138523706625,
,,,,,,,,,,,,,,,,,,,,,,,,,,,,,,,,,,,,,,,,,,,,,,,,,,,,,,,,,,,,,,,,,,,,,,,,,,,,,,,,,,,,,,,209.5646701000001,209.57957839999997,209.57957839999997,222.87462779999987,space,13.281351200000016,,,,,,,,,,,,,sub-024,1,stroop_test,59.99138523706625,
,,,,0.0,0.0,0.0,,,,,,,,,,,,,gelb,yellow,g,1.0,g,1.0,1.0302560999998605,,,,,,,,,,0.0,0.0,0.0,11.0,222.9039986,,,,,,,,,,,,,,,,,222.89832120000003,224.08939280000004,224.8907697,224.8748946000001,,,,,,,,,,,,,,,,,,,,,,,,,,,,,,,,,,,224.88206509999983,224.8907697,224.8907697,225.9265765,g,1.0,1.0302560999998605,,,,,sub-024,1,stroop_test,59.99138523706625,
,,,,1.0,1.0,0.0,,,,,,,,,,,,,gelb,blue,b,0.0,b,1.0,1.1501328999997895,,,,,,,,,,0.0,1.0,1.0,9.0,225.9407896,,,,,,,,,,,,,,,,,225.9272389,226.04081640000004,226.8412584,226.82602810000003,,,,,,,,,,,,,,,,,,,,,,,,,,,,,,,,,,,226.8271138,226.8412584,226.8412584,227.99528940000005,b,1.0,1.1501328999997895,,,,,sub-024,1,stroop_test,59.99138523706625,
,,,,2.0,2.0,0.0,,,,,,,,,,,,,gelb,yellow,g,1.0,g,1.0,1.0018640999999209,,,,,,,,,,0.0,2.0,2.0,10.0,228.00899630000004,,,,,,,,,,,,,,,,,227.99624070000004,228.35905490000005,229.15955940000003,229.14489809999984,,,,,,,,,,,,,,,,,,,,,,,,,,,,,,,,,,,229.1458358,229.15955940000003,229.15955940000003,230.1789859999999,g,1.0,1.0018640999999209,,,,,sub-024,1,stroop_test,59.99138523706625,
,,,,3.0,3.0,0.0,,,,,,,,,,,,,rot,red,r,1.0,r,1.0,0.8268680000001041,,,,,,,,,,0.0,3.0,3.0,1.0,230.19379639999988,,,,,,,,,,,,,,,,,230.17948090000004,230.5439733000001,231.34444800000009,231.32907049999997,,,,,,,,,,,,,,,,,,,,,,,,,,,,,,,,,,,231.33592669999985,231.34444800000009,231.34444800000009,232.18065789999991,r,1.0,0.8268680000001041,,,,,sub-024,1,stroop_test,59.99138523706625,
,,,,4.0,4.0,0.0,,,,,,,,,,,,,blau,blue,b,1.0,b,1.0,0.7144203999998808,,,,,,,,,,0.0,4.0,4.0,5.0,232.1948874,,,,,,,,,,,,,,,,,232.181517,232.54542990000004,233.34685139999988,233.33168619999992,,,,,,,,,,,,,,,,,,,,,,,,,,,,,,,,,,,233.33848379999995,233.34685139999988,233.34685139999988,234.0655927,b,1.0,0.7144203999998808,,,,,sub-024,1,stroop_test,59.99138523706625,
,,,,5.0,5.0,0.0,,,,,,,,,,,,,gelb,red,r,0.0,r,1.0,0.8286899999998241,,,,,,,,,,0.0,5.0,5.0,8.0,234.0798682,,,,,,,,,,,,,,,,,234.0665047,234.8800927,235.6818619000001,235.6658276999999,,,,,,,,,,,,,,,,,,,,,,,,,,,,,,,,,,,235.67249889999997,235.6818619000001,235.6818619000001,236.5169675,r,1.0,0.8286899999998241,,,,,sub-024,1,stroop_test,59.99138523706625,
,,,,6.0,6.0,0.0,,,,,,,,,,,,,blau,blue,b,1.0,b,1.0,0.6983820999998898,,,,,,,,,,0.0,6.0,6.0,6.0,236.53135299999985,,,,,,,,,,,,,,,,,236.51759530000004,237.3319245999999,238.1326015,238.11718829999995,,,,,,,,,,,,,,,,,,,,,,,,,,,,,,,,,,,238.1230229,238.1326015,238.1326015,238.83519409999985,b,1.0,0.6983820999998898,,,,,sub-024,1,stroop_test,59.99138523706625,
,,,,7.0,7.0,0.0,,,,,,,,,,,,,rot,blue,b,0.0,b,1.0,1.1719137000000046,,,,,,,,,,0.0,7.0,7.0,2.0,238.84976729999997,,,,,,,,,,,,,,,,,238.8358403,239.65342349999992,240.46899140000005,240.45276079999985,,,,,,,,,,,,,,,,,,,,,,,,,,,,,,,,,,,240.4601508000001,240.46899140000005,240.46899140000005,241.6545739999999,b,1.0,1.1719137000000046,,,,,sub-024,1,stroop_test,59.99138523706625,
,,,,8.0,8.0,0.0,,,,,,,,,,,,,rot,red,r,1.0,r,1.0,0.652163900000005,,,,,,,,,,0.0,8.0,8.0,0.0,241.6682535,,,,,,,,,,,,,,,,,241.65509939999995,242.86939729999995,243.6697795,243.6543861,,,,,,,,,,,,,,,,,,,,,,,,,,,,,,,,,,,243.6551892,243.6697795,243.6697795,244.3392469999999,r,1.0,0.652163900000005,,,,,sub-024,1,stroop_test,59.99138523706625,
,,,,9.0,9.0,0.0,,,,,,,,,,,,,blau,red,r,0.0,r,1.0,1.9369948000000927,,,,,,,,,,0.0,9.0,9.0,4.0,244.35383179999985,,,,,,,,,,,,,,,,,244.33983450000005,244.7039861000001,245.5043713,245.48942969999985,,,,,,,,,,,,,,,,,,,,,,,,,,,,,,,,,,,245.4955445999999,245.5043713,245.5043713,247.4574137,r,1.0,1.9369948000000927,,,,,sub-024,1,stroop_test,59.99138523706625,
,,,,10.0,10.0,0.0,,,,,,,,,,,,,rot,yellow,g,0.0,g,1.0,0.828437200000053,,,,,,,,,,0.0,10.0,10.0,3.0,247.4723096,,,,,,,,,,,,,,,,,247.45790119999992,247.57257929999992,248.3729318000001,248.35775489999992,,,,,,,,,,,,,,,,,,,,,,,,,,,,,,,,,,,248.36359679999987,248.3729318000001,248.3729318000001,249.2091628999999,g,1.0,0.828437200000053,,,,,sub-024,1,stroop_test,59.99138523706625,
,,,,11.0,11.0,0.0,,,,,,,,,,,,,blau,yellow,g,0.0,g,1.0,0.5767576999999164,,,,,,,,,,0.0,11.0,11.0,7.0,249.22365259999992,,,,,,,,,,,,,,,,,249.20982549999985,250.424581,251.22519310000007,251.2097285,,,,,,,,,,,,,,,,,,,,,,,,,,,,,,,,,,,251.21598629999997,251.22519310000007,251.22519310000007,251.8112841,g,1.0,0.5767576999999164,,,,,sub-024,1,stroop_test,59.99138523706625,
,,,,12.0,0.0,1.0,,,,,,,,,,,,,rot,red,r,1.0,r,1.0,0.9345084000001408,,,,,,,,,,1.0,0.0,12.0,1.0,251.8252898000001,,,,,,,,,,,,,,,,,251.81194260000007,251.92545640000003,252.72706189999985,252.71072149999983,,,,,,,,,,,,,,,,,,,,,,,,,,,,,,,,,,,252.71808659999988,252.72706189999985,252.72706189999985,253.67881999999983,r,1.0,0.9345084000001408,,,,,sub-024,1,stroop_test,59.99138523706625,
,,,,13.0,1.0,1.0,,,,,,,,,,,,,rot,yellow,g,0.0,g,1.0,1.1566176999999698,,,,,,,,,,1.0,1.0,13.0,3.0,253.69352690000005,,,,,,,,,,,,,,,,,253.67935450000004,254.0436548,254.8440962,254.828767,,,,,,,,,,,,,,,,,,,,,,,,,,,,,,,,,,,254.82989109999997,254.8440962,254.8440962,256.01376549999986,g,1.0,1.1566176999999698,,,,,sub-024,1,stroop_test,59.99138523706625,
,,,,14.0,2.0,1.0,,,,,,,,,,,,,blau,red,r,0.0,r,1.0,0.7513958000001821,,,,,,,,,,1.0,2.0,14.0,4.0,256.0284148999999,,,,,,,,,,,,,,,,,256.0143902,257.2289963999999,258.0298545999999,258.0142257,,,,,,,,,,,,,,,,,,,,,,,,,,,,,,,,,,,258.0202264,258.0298545999999,258.0298545999999,258.7979928,r,1.0,0.7513958000001821,,,,,sub-024,1,stroop_test,59.99138523706625,
,,,,15.0,3.0,1.0,,,,,,,,,,,,,blau,blue,b,1.0,b,1.0,0.8165056000000277,,,,,,,,,,1.0,3.0,15.0,5.0,258.8134889999999,,,,,,,,,,,,,,,,,258.79843890000006,258.913765,259.71408759999986,259.6990974999999,,,,,,,,,,,,,,,,,,,,,,,,,,,,,,,,,,,259.69985539999993,259.71408759999986,259.71408759999986,260.5341182,b,1.0,0.8165056000000277,,,,,sub-024,1,stroop_test,59.99138523706625,
,,,,16.0,4.0,1.0,,,,,,,,,,,,,gelb,yellow,g,1.0,g,1.0,0.8009523999999146,,,,,,,,,,1.0,4.0,16.0,11.0,260.5479006999999,,,,,,,,,,,,,,,,,260.5348804,260.898381,261.6998022999999,261.6838350999999,,,,,,,,,,,,,,,,,,,,,,,,,,,,,,,,,,,261.69105739999986,261.6998022999999,261.6998022999999,262.51830730000006,g,1.0,0.8009523999999146,,,,,sub-024,1,stroop_test,59.99138523706625,
,,,,17.0,5.0,1.0,,,,,,,,,,,,,blau,yellow,g,0.0,g,1.0,1.2370785999999043,,,,,,,,,,1.0,5.0,17.0,7.0,262.53265480000005,,,,,,,,,,,,,,,,,262.5190018999999,263.33336829999985,264.13374,264.1183240999999,,,,,,,,,,,,,,,,,,,,,,,,,,,,,,,,,,,264.1231269,264.13374,264.13374,265.38703050000004,g,1.0,1.2370785999999043,,,,,sub-024,1,stroop_test,59.99138523706625,
,,,,18.0,6.0,1.0,,,,,,,,,,,,,rot,blue,b,0.0,b,1.0,0.4686065000000781,,,,,,,,,,1.0,6.0,18.0,2.0,265.40150389999985,,,,,,,,,,,,,,,,,265.38754760000006,266.2020332,267.00251159999993,266.9873083,,,,,,,,,,,,,,,,,,,,,,,,,,,,,,,,,,,266.9942203999999,267.00251159999993,267.00251159999993,267.48821539999994,b,1.0,0.4686065000000781,,,,,sub-024,1,stroop_test,59.99138523706625,
,,,,19.0,7.0,1.0,,,,,,,,,,,,,gelb,red,r,0.0,r,1.0,0.4469123999999738,,,,,,,,,,1.0,7.0,19.0,8.0,267.50309879999986,,,,,,,,,,,,,,,,,267.4889871999999,268.7036684,269.50423019999994,269.48932749999994,,,,,,,,,,,,,,,,,,,,,,,,,,,,,,,,,,,269.495909,269.50423019999994,269.50423019999994,269.9567371999999,r,1.0,0.4469123999999738,,,,,sub-024,1,stroop_test,59.99138523706625,
,,,,20.0,8.0,1.0,,,,,,,,,,,,,gelb,blue,b,0.0,b,1.0,1.038459800000055,,,,,,,,,,1.0,8.0,20.0,9.0,269.9712245999999,,,,,,,,,,,,,,,,,269.95736969999984,270.0717895999999,270.87240359999987,270.85678200000007,,,,,,,,,,,,,,,,,,,,,,,,,,,,,,,,,,,270.85843469999986,270.87240359999987,270.87240359999987,271.92458839999995,b,1.0,1.038459800000055,,,,,sub-024,1,stroop_test,59.99138523706625,
,,,,21.0,9.0,1.0,,,,,,,,,,,,,rot,red,r,1.0,r,1.0,0.940336200000047,,,,,,,,,,1.0,9.0,21.0,0.0,271.9425752,,,,,,,,,,,,,,,,,271.9252317999999,272.73980630000005,273.54057309999985,273.52534479999986,,,,,,,,,,,,,,,,,,,,,,,,,,,,,,,,,,,273.53197810000006,273.54057309999985,273.54057309999985,274.4937161999999,r,1.0,0.940336200000047,,,,,sub-024,1,stroop_test,59.99138523706625,
,,,,22.0,10.0,1.0,,,,,,,,,,,,,blau,blue,b,1.0,b,1.0,0.8226138999998511,,,,,,,,,,1.0,10.0,22.0,6.0,274.5076079999999,,,,,,,,,,,,,,,,,274.4947050999999,274.8579906,275.6586199999999,275.6432038999999,,,,,,,,,,,,,,,,,,,,,,,,,,,,,,,,,,,275.6510610999999,275.6586199999999,275.6586199999999,276.4943337,b,1.0,0.8226138999998511,,,,,sub-024,1,stroop_test,59.99138523706625,
,,,,23.0,11.0,1.0,,,,,,,,,,,,,gelb,yellow,g,1.0,g,1.0,0.8199819000001298,,,,,,,,,,1.0,11.0,23.0,10.0,276.5090912999999,,,,,,,,,,,,,,,,,276.4951077999999,277.30958140000007,278.1116173999999,278.0954204,,,,,,,,,,,,,,,,,,,,,,,,,,,,,,,,,,,278.1020876,278.1116173999999,278.1116173999999,278.947224,g,1.0,0.8199819000001298,,,,,sub-024,1,stroop_test,59.99138523706625,
,,,,24.0,0.0,2.0,,,,,,,,,,,,,gelb,yellow,g,1.0,g,1.0,0.7691027999999278,,,,,,,,,,2.0,0.0,24.0,11.0,278.9607421999999,,,,,,,,,,,,,,,,,278.9478300999999,279.76145930000007,280.5619285999999,280.54672949999986,,,,,,,,,,,,,,,,,,,,,,,,,,,,,,,,,,,280.5477404999999,280.5619285999999,280.5619285999999,281.3480058,g,1.0,0.7691027999999278,,,,,sub-024,1,stroop_test,59.99138523706625,
,,,,25.0,1.0,2.0,,,,,,,,,,,,,rot,yellow,g,0.0,r,0.0,0.7736320999999862,,,,,,,,,,2.0,1.0,25.0,3.0,281.3625992,,,,,,,,,,,,,,,,,281.348581,281.71273339999993,282.51807540000004,282.49806910000007,,,,,,,,,,,,,,,,,,,,,,,,,,,,,,,,,,,282.5054977,282.51807540000004,282.51807540000004,283.29960979999987,r,0.0,0.7736320999999862,,,,,sub-024,1,stroop_test,59.99138523706625,
,,,,26.0,2.0,2.0,,,,,,,,,,,,,rot,red,r,1.0,r,1.0,1.1166273000001183,,,,,,,,,,2.0,2.0,26.0,0.0,283.3137866,,,,,,,,,,,,,,,,,283.3001953999999,283.6641970999999,284.4646273999999,284.4497592,,,,,,,,,,,,,,,,,,,,,,,,,,,,,,,,,,,284.45065069999987,284.4646273999999,284.4646273999999,285.58446090000007,r,1.0,1.1166273000001183,,,,,sub-024,1,stroop_test,59.99138523706625,
,,,,27.0,3.0,2.0,,,,,,,,,,,,,gelb,blue,b,0.0,b,1.0,0.7515129000000798,,,,,,,,,,2.0,3.0,27.0,9.0,285.59861810000007,,,,,,,,,,,,,,,,,285.5851074,285.9489832,286.7495084,286.7348878999999,,,,,,,,,,,,,,,,,,,,,,,,,,,,,,,,,,,286.74140510000007,286.7495084,286.7495084,287.5032973,b,1.0,0.7515129000000798,,,,,sub-024,1,stroop_test,59.99138523706625,
,,,,28.0,4.0,2.0,,,,,,,,,,,,,gelb,yellow,g,1.0,g,1.0,0.6932211000000734,,,,,,,,,,2.0,4.0,28.0,10.0,287.5165970999999,,,,,,,,,,,,,,,,,287.50388580000003,288.3172631,289.1179906,289.1025542,,,,,,,,,,,,,,,,,,,,,,,,,,,,,,,,,,,289.1034038999999,289.1179906,289.1179906,289.8204656999999,g,1.0,0.6932211000000734,,,,,sub-024,1,stroop_test,59.99138523706625,
,,,,29.0,5.0,2.0,,,,,,,,,,,,,gelb,red,r,0.0,r,1.0,1.0555259000000206,,,,,,,,,,2.0,5.0,29.0,8.0,289.83507029999987,,,,,,,,,,,,,,,,,289.821426,290.6355767,291.4360712,291.42133910000007,,,,,,,,,,,,,,,,,,,,,,,,,,,,,,,,,,,291.4221132,291.4360712,291.4360712,292.5059219,r,1.0,1.0555259000000206,,,,,sub-024,1,stroop_test,59.99138523706625,
,,,,30.0,6.0,2.0,,,,,,,,,,,,,rot,red,r,1.0,r,1.0,0.7993453999999929,,,,,,,,,,2.0,6.0,30.0,1.0,292.52020689999995,,,,,,,,,,,,,,,,,292.50648780000006,293.3207637999999,294.1217194999999,294.1067258999999,,,,,,,,,,,,,,,,,,,,,,,,,,,,,,,,,,,294.11370220000003,294.1217194999999,294.1217194999999,294.92398660000003,r,1.0,0.7993453999999929,,,,,sub-024,1,stroop_test,59.99138523706625,
,,,,31.0,7.0,2.0,,,,,,,,,,,,,blau,blue,b,1.0,b,1.0,0.6921580999999151,,,,,,,,,,2.0,7.0,31.0,5.0,294.9385858999999,,,,,,,,,,,,,,,,,294.92465330000005,295.7391373999999,296.5397756,296.5243933,,,,,,,,,,,,,,,,,,,,,,,,,,,,,,,,,,,296.5303756999999,296.5397756,296.5397756,297.24252379999984,b,1.0,0.6921580999999151,,,,,sub-024,1,stroop_test,59.99138523706625,
,,,,32.0,8.0,2.0,,,,,,,,,,,,,blau,red,r,0.0,r,1.0,1.5128884999999173,,,,,,,,,,2.0,8.0,32.0,4.0,297.25656789999994,,,,,,,,,,,,,,,,,297.2431386999999,298.05755499999987,298.85813029999986,298.84340270000007,,,,,,,,,,,,,,,,,,,,,,,,,,,,,,,,,,,298.8443585,298.85813029999986,298.85813029999986,300.37884800000006,r,1.0,1.5128884999999173,,,,,sub-024,1,stroop_test,59.99138523706625,
,,,,33.0,9.0,2.0,,,,,,,,,,,,,rot,blue,b,0.0,b,1.0,1.2180787000002056,,,,,,,,,,2.0,9.0,33.0,2.0,300.3923768,,,,,,,,,,,,,,,,,300.37941350000006,300.74243,301.5430875,301.5279235999999,,,,,,,,,,,,,,,,,,,,,,,,,,,,,,,,,,,301.53449320000004,301.5430875,301.5430875,302.7637064999999,b,1.0,1.2180787000002056,,,,,sub-024,1,stroop_test,59.99138523706625,
,,,,34.0,10.0,2.0,,,,,,,,,,,,,blau,blue,b,1.0,b,1.0,0.8523648999998841,,,,,,,,,,2.0,10.0,34.0,6.0,302.77731700000004,,,,,,,,,,,,,,,,,302.76445569999987,303.97815249999985,304.7787025,304.7634578,,,,,,,,,,,,,,,,,,,,,,,,,,,,,,,,,,,304.7695978,304.7787025,304.7787025,305.64781819999985,b,1.0,0.8523648999998841,,,,,sub-024,1,stroop_test,59.99138523706625,
,,,,35.0,11.0,2.0,,,,,,,,,,,,,blau,yellow,g,0.0,g,1.0,0.8878890999999385,,,,,,,,,,2.0,11.0,35.0,7.0,305.6630714999999,,,,,,,,,,,,,,,,,305.64833269999986,306.46341959999995,307.26405180000006,307.2483872,,,,,,,,,,,,,,,,,,,,,,,,,,,,,,,,,,,307.24925659999985,307.26405180000006,307.26405180000006,308.16662070000007,g,1.0,0.8878890999999385,,,,,sub-024,1,stroop_test,59.99138523706625,
,,,,36.0,0.0,3.0,,,,,,,,,,,,,rot,red,r,1.0,r,1.0,0.6978025000000798,,,,,,,,,,3.0,0.0,36.0,1.0,308.1813227,,,,,,,,,,,,,,,,,308.16739170000005,309.38190340000006,310.18336980000004,310.16736960000003,,,,,,,,,,,,,,,,,,,,,,,,,,,,,,,,,,,310.1748914,310.18336980000004,310.18336980000004,310.8851895999999,r,1.0,0.6978025000000798,,,,,sub-024,1,stroop_test,59.99138523706625,
,,,,37.0,1.0,3.0,,,,,,,,,,,,,gelb,yellow,g,1.0,g,1.0,0.8195538999998462,,,,,,,,,,3.0,1.0,37.0,11.0,310.89959640000006,,,,,,,,,,,,,,,,,310.88593130000004,311.2500244999999,312.0515014,312.0350779999999,,,,,,,,,,,,,,,,,,,,,,,,,,,,,,,,,,,312.04245709999987,312.0515014,312.0515014,312.88650729999995,g,1.0,0.8195538999998462,,,,,sub-024,1,stroop_test,59.99138523706625,
,,,,38.0,2.0,3.0,,,,,,,,,,,,,gelb,blue,b,0.0,b,1.0,0.759294299999965,,,,,,,,,,3.0,2.0,38.0,9.0,312.90095139999994,,,,,,,,,,,,,,,,,312.8871173,313.251311,314.0521309999999,314.03674609999985,,,,,,,,,,,,,,,,,,,,,,,,,,,,,,,,,,,314.0375563,314.0521309999999,314.0521309999999,314.82127949999995,b,1.0,0.759294299999965,,,,,sub-024,1,stroop_test,59.99138523706625,
,,,,39.0,3.0,3.0,,,,,,,,,,,,,rot,red,r,1.0,r,1.0,0.753998700000011,,,,,,,,,,3.0,3.0,39.0,0.0,314.8356371,,,,,,,,,,,,,,,,,314.82190489999994,315.6363134999999,316.4372056,316.42127089999985,,,,,,,,,,,,,,,,,,,,,,,,,,,,,,,,,,,316.42832939999994,316.4372056,316.4372056,317.2063507999999,r,1.0,0.753998700000011,,,,,sub-024,1,stroop_test,59.99138523706625,
,,,,40.0,4.0,3.0,,,,,,,,,,,,,gelb,yellow,g,1.0,g,1.0,0.7979003000000375,,,,,,,,,,3.0,4.0,40.0,10.0,317.22064550000005,,,,,,,,,,,,,,,,,317.20715599999994,318.0215461,318.8250906999999,318.80688340000006,,,,,,,,,,,,,,,,,,,,,,,,,,,,,,,,,,,318.8167197,318.8250906999999,318.8250906999999,319.6256048,g,1.0,0.7979003000000375,,,,,sub-024,1,stroop_test,59.99138523706625,
,,,,41.0,5.0,3.0,,,,,,,,,,,,,blau,red,r,0.0,r,1.0,0.9626258000000688,,,,,,,,,,3.0,5.0,41.0,4.0,319.63892510000005,,,,,,,,,,,,,,,,,319.6261944999999,320.4395625,321.2402440999999,321.2249219999999,,,,,,,,,,,,,,,,,,,,,,,,,,,,,,,,,,,321.23105409999994,321.2402440999999,321.2402440999999,322.2102709999999,r,1.0,0.9626258000000688,,,,,sub-024,1,stroop_test,59.99138523706625,
,,,,42.0,6.0,3.0,,,,,,,,,,,,,gelb,red,r,0.0,r,1.0,1.2065344000000096,,,,,,,,,,3.0,6.0,42.0,8.0,322.22403629999985,,,,,,,,,,,,,,,,,322.2109234,322.57446830000004,323.3751525,323.35932649999995,,,,,,,,,,,,,,,,,,,,,,,,,,,,,,,,,,,323.3674813,323.3751525,323.3751525,324.5949837999999,r,1.0,1.2065344000000096,,,,,sub-024,1,stroop_test,59.99138523706625,
,,,,43.0,7.0,3.0,,,,,,,,,,,,,rot,yellow,g,0.0,g,1.0,0.9216627999999218,,,,,,,,,,3.0,7.0,43.0,3.0,324.60920880000003,,,,,,,,,,,,,,,,,324.5957590999999,324.70941530000005,325.509779,325.49450249999995,,,,,,,,,,,,,,,,,,,,,,,,,,,,,,,,,,,325.5013463999999,325.509779,325.509779,326.44576719999986,g,1.0,0.9216627999999218,,,,,sub-024,1,stroop_test,59.99138523706625,
,,,,44.0,8.0,3.0,,,,,,,,,,,,,rot,blue,b,0.0,b,1.0,0.9799945000002026,,,,,,,,,,3.0,8.0,44.0,2.0,326.460376,,,,,,,,,,,,,,,,,326.44631200000003,326.81076499999995,327.61147170000004,327.5958946999999,,,,,,,,,,,,,,,,,,,,,,,,,,,,,,,,,,,327.59673010000006,327.61147170000004,327.61147170000004,328.5977321999999,b,1.0,0.9799945000002026,,,,,sub-024,1,stroop_test,59.99138523706625,
,,,,45.0,9.0,3.0,,,,,,,,,,,,,blau,blue,b,1.0,b,1.0,0.939811299999974,,,,,,,,,,3.0,9.0,45.0,5.0,328.6119053,,,,,,,,,,,,,,,,,328.5983374,328.71215099999995,329.5125722,329.49663140000007,,,,,,,,,,,,,,,,,,,,,,,,,,,,,,,,,,,329.500546,329.5125722,329.5125722,330.4669707999999,b,1.0,0.939811299999974,,,,,sub-024,1,stroop_test,59.99138523706625,
,,,,46.0,10.0,3.0,,,,,,,,,,,,,blau,blue,b,1.0,b,1.0,0.6800442999999632,,,,,,,,,,3.0,10.0,46.0,6.0,330.47977709999986,,,,,,,,,,,,,,,,,330.4675585,331.6806661999999,332.48131119999994,332.46644960000003,,,,,,,,,,,,,,,,,,,,,,,,,,,,,,,,,,,332.4673012999999,332.48131119999994,332.48131119999994,333.1676559,b,1.0,0.6800442999999632,,,,,sub-024,1,stroop_test,59.99138523706625,
,,,,47.0,11.0,3.0,,,,,,,,,,,,,blau,yellow,g,0.0,g,1.0,1.128331100000196,,,,,,,,,,3.0,11.0,47.0,7.0,333.1815982999999,,,,,,,,,,,,,,,,,333.16836569999987,334.38258099999985,335.18320459999995,335.1680357,,,,,,,,,,,,,,,,,,,,,,,,,,,,,,,,,,,335.1689323999999,335.18320459999995,335.18320459999995,336.3198104999999,g,1.0,1.128331100000196,,,,,sub-024,1,stroop_test,59.99138523706625,
,,,,48.0,0.0,4.0,,,,,,,,,,,,,gelb,yellow,g,1.0,g,1.0,0.6960828999999649,,,,,,,,,,4.0,0.0,48.0,10.0,336.3339853,,,,,,,,,,,,,,,,,336.3207892999999,337.1344666,337.9356353999999,337.9198789,,,,,,,,,,,,,,,,,,,,,,,,,,,,,,,,,,,337.92738029999987,337.9356353999999,337.9356353999999,338.63810349999994,g,1.0,0.6960828999999649,,,,,sub-024,1,stroop_test,59.99138523706625,
,,,,49.0,1.0,4.0,,,,,,,,,,,,,blau,red,r,0.0,r,1.0,0.5085689000000002,,,,,,,,,,4.0,1.0,49.0,4.0,338.6521903999999,,,,,,,,,,,,,,,,,338.63867549999986,339.8531235999999,340.65401129999987,340.63842210000007,,,,,,,,,,,,,,,,,,,,,,,,,,,,,,,,,,,340.64444460000004,340.65401129999987,340.65401129999987,341.17303849999985,r,1.0,0.5085689000000002,,,,,sub-024,1,stroop_test,59.99138523706625,
,,,,50.0,2.0,4.0,,,,,,,,,,,,,gelb,blue,b,0.0,b,1.0,0.5826724000000922,,,,,,,,,,4.0,2.0,50.0,9.0,341.1871723,,,,,,,,,,,,,,,,,341.1735805999999,341.9877876999999,342.7886882,342.7731991999999,,,,,,,,,,,,,,,,,,,,,,,,,,,,,,,,,,,342.78032029999986,342.7886882,342.7886882,343.37455249999994,b,1.0,0.5826724000000922,,,,,sub-024,1,stroop_test,59.99138523706625,
,,,,51.0,3.0,4.0,,,,,,,,,,,,,blau,yellow,g,0.0,g,1.0,0.8628565999999864,,,,,,,,,,4.0,3.0,51.0,7.0,343.3888895,,,,,,,,,,,,,,,,,343.3750370999999,343.4890493999999,344.28943129999993,344.27403520000007,,,,,,,,,,,,,,,,,,,,,,,,,,,,,,,,,,,344.2809447,344.28943129999993,344.28943129999993,345.15907249999987,g,1.0,0.8628565999999864,,,,,sub-024,1,stroop_test,59.99138523706625,
,,,,52.0,4.0,4.0,,,,,,,,,,,,,rot,red,r,1.0,r,1.0,0.8670561999999791,,,,,,,,,,4.0,4.0,52.0,0.0,345.1734158,,,,,,,,,,,,,,,,,345.15989079999986,345.5240234999999,346.32500119999986,346.3095444999999,,,,,,,,,,,,,,,,,,,,,,,,,,,,,,,,,,,346.31635630000005,346.32500119999986,346.32500119999986,347.194446,r,1.0,0.8670561999999791,,,,,sub-024,1,stroop_test,59.99138523706625,
,,,,53.0,5.0,4.0,,,,,,,,,,,,,rot,red,r,1.0,r,1.0,0.6532420999999431,,,,,,,,,,4.0,5.0,53.0,1.0,347.20807190000005,,,,,,,,,,,,,,,,,347.19510620000005,347.30832970000006,348.10872819999986,348.09382370000003,,,,,,,,,,,,,,,,,,,,,,,,,,,,,,,,,,,348.09459300000003,348.10872819999986,348.10872819999986,348.7780954,r,1.0,0.6532420999999431,,,,,sub-024,1,stroop_test,59.99138523706625,
,,,,54.0,6.0,4.0,,,,,,,,,,,,,gelb,yellow,g,1.0,g,1.0,0.8282764000000498,,,,,,,,,,4.0,6.0,54.0,11.0,348.79299990000004,,,,,,,,,,,,,,,,,348.7788386,349.99342150000007,350.7939864,350.7787206999999,,,,,,,,,,,,,,,,,,,,,,,,,,,,,,,,,,,350.7859237,350.7939864,350.7939864,351.6304895999999,g,1.0,0.8282764000000498,,,,,sub-024,1,stroop_test,59.99138523706625,
,,,,55.0,7.0,4.0,,,,,,,,,,,,,rot,blue,b,0.0,b,1.0,0.866262499999948,,,,,,,,,,4.0,7.0,55.0,2.0,351.64443200000005,,,,,,,,,,,,,,,,,351.6311684,352.4449918,353.2456204,353.2309467,,,,,,,,,,,,,,,,,,,,,,,,,,,,,,,,,,,353.2376881,353.2456204,353.2456204,354.1158447999999,b,1.0,0.866262499999948,,,,,sub-024,1,stroop_test,59.99138523706625,
,,,,56.0,8.0,4.0,,,,,,,,,,,,,rot,yellow,g,0.0,g,1.0,1.002299100000073,,,,,,,,,,4.0,8.0,56.0,3.0,354.1295683999999,,,,,,,,,,,,,,,,,354.11637840000003,354.22973609999985,355.03038089999995,355.0187071999999,,,,,,,,,,,,,,,,,,,,,,,,,,,,,,,,,,,355.01966879999986,355.03038089999995,355.03038089999995,356.05065949999994,g,1.0,1.002299100000073,,,,,sub-024,1,stroop_test,59.99138523706625,
,,,,57.0,9.0,4.0,,,,,,,,,,,,,gelb,red,r,0.0,r,1.0,0.7147130000000743,,,,,,,,,,4.0,9.0,57.0,8.0,356.0644596,,,,,,,,,,,,,,,,,356.0513039,357.2654104999999,358.06725729999994,358.05120179999994,,,,,,,,,,,,,,,,,,,,,,,,,,,,,,,,,,,358.05892070000004,358.06725729999994,358.06725729999994,358.7852943999999,r,1.0,0.7147130000000743,,,,,sub-024,1,stroop_test,59.99138523706625,
,,,,58.0,10.0,4.0,,,,,,,,,,,,,blau,blue,b,1.0,b,1.0,0.8019646999998713,,,,,,,,,,4.0,10.0,58.0,5.0,358.7994508,,,,,,,,,,,,,,,,,358.7860249999999,359.1497485,359.9504285999999,359.93503340000007,,,,,,,,,,,,,,,,,,,,,,,,,,,,,,,,,,,359.9415273,359.9504285999999,359.9504285999999,360.7696423,b,1.0,0.8019646999998713,,,,,sub-024,1,stroop_test,59.99138523706625,
,,,,59.0,11.0,4.0,,,,,,,,,,,,,blau,blue,b,1.0,b,1.0,0.7262806999999611,,,,,,,,,,4.0,11.0,59.0,6.0,360.78423509999993,,,,,,,,,,,,,,,,,360.7702342999999,361.9853504,362.7856672,362.77072210000006,,,,,,,,,,,,,,,,,,,,,,,,,,,,,,,,,,,362.7715561,362.7856672,362.7856672,363.521497,b,1.0,0.7262806999999611,,,,,sub-024,1,stroop_test,59.99138523706625,
,,,,60.0,0.0,5.0,,,,,,,,,,,,,rot,yellow,g,0.0,g,1.0,1.355052900000146,,,,,,,,,,5.0,0.0,60.0,3.0,363.5363614,,,,,,,,,,,,,,,,,363.5220147999999,363.6360894,364.4370477,364.4217933,,,,,,,,,,,,,,,,,,,,,,,,,,,,,,,,,,,364.4284112999999,364.4370477,364.4370477,365.8068715,g,1.0,1.355052900000146,,,,,sub-024,1,stroop_test,59.99138523706625,
,,,,61.0,1.0,5.0,,,,,,,,,,,,,blau,yellow,g,0.0,g,1.0,0.7297691999999643,,,,,,,,,,5.0,1.0,61.0,7.0,365.8213595,,,,,,,,,,,,,,,,,365.807757,365.9211086,366.7217622999999,366.706917,,,,,,,,,,,,,,,,,,,,,,,,,,,,,,,,,,,366.7127800999999,366.7217622999999,366.7217622999999,367.4577835,g,1.0,0.7297691999999643,,,,,sub-024,1,stroop_test,59.99138523706625,
,,,,62.0,2.0,5.0,,,,,,,,,,,,,rot,red,r,1.0,r,1.0,0.6982127000001128,,,,,,,,,,5.0,2.0,62.0,0.0,367.4723904999999,,,,,,,,,,,,,,,,,367.4584313999999,368.2727783,369.0736586999999,369.0583150999999,,,,,,,,,,,,,,,,,,,,,,,,,,,,,,,,,,,369.0651771,369.0736586999999,369.0736586999999,369.7763135,r,1.0,0.6982127000001128,,,,,sub-024,1,stroop_test,59.99138523706625,
,,,,63.0,3.0,5.0,,,,,,,,,,,,,rot,red,r,1.0,r,1.0,0.9605016999998952,,,,,,,,,,5.0,3.0,63.0,1.0,369.7907038999999,,,,,,,,,,,,,,,,,369.7768455,370.9914739999999,371.792087,371.7764745,,,,,,,,,,,,,,,,,,,,,,,,,,,,,,,,,,,371.7775446999999,371.792087,371.792087,372.7615152999999,r,1.0,0.9605016999998952,,,,,sub-024,1,stroop_test,59.99138523706625,
,,,,64.0,4.0,5.0,,,,,,,,,,,,,blau,blue,b,1.0,b,1.0,0.7431154000000788,,,,,,,,,,5.0,4.0,64.0,6.0,372.7756958,,,,,,,,,,,,,,,,,372.7621359,373.5763838,374.3785149,374.3615613,,,,,,,,,,,,,,,,,,,,,,,,,,,,,,,,,,,374.3706445999999,374.3785149,374.3785149,375.1297519,b,1.0,0.7431154000000788,,,,,sub-024,1,stroop_test,59.99138523706625,
,,,,65.0,5.0,5.0,,,,,,,,,,,,,blau,red,r,0.0,r,1.0,0.9869595000000118,,,,,,,,,,5.0,5.0,65.0,4.0,375.1442135,,,,,,,,,,,,,,,,,375.13054050000005,375.2445515,376.0447314000001,376.0298599,,,,,,,,,,,,,,,,,,,,,,,,,,,,,,,,,,,376.0305945,376.0447314000001,376.0447314000001,377.0481835000001,r,1.0,0.9869595000000118,,,,,sub-024,1,stroop_test,59.99138523706625,
,,,,66.0,6.0,5.0,,,,,,,,,,,,,gelb,yellow,g,1.0,g,1.0,0.8482328000000052,,,,,,,,,,5.0,6.0,66.0,10.0,377.0621656999999,,,,,,,,,,,,,,,,,377.0488301999999,377.4126663,378.2133211,378.1976164,,,,,,,,,,,,,,,,,,,,,,,,,,,,,,,,,,,378.2031645,378.2133211,378.2133211,379.0657809,g,1.0,0.8482328000000052,,,,,sub-024,1,stroop_test,59.99138523706625,
,,,,67.0,7.0,5.0,,,,,,,,,,,,,gelb,yellow,g,1.0,g,1.0,0.570138199999974,,,,,,,,,,5.0,7.0,67.0,11.0,379.0802171999999,,,,,,,,,,,,,,,,,379.0663841999999,379.8807311999999,380.68188370000007,380.666,,,,,,,,,,,,,,,,,,,,,,,,,,,,,,,,,,,380.667048,380.68188370000007,380.68188370000007,381.2676832,g,1.0,0.570138199999974,,,,,sub-024,1,stroop_test,59.99138523706625,
,,,,68.0,8.0,5.0,,,,,,,,,,,,,blau,blue,b,1.0,b,1.0,0.6487056999999368,,,,,,,,,,5.0,8.0,68.0,5.0,381.28193540000007,,,,,,,,,,,,,,,,,381.2683153,382.4826275,383.2835683999999,383.2678552,,,,,,,,,,,,,,,,,,,,,,,,,,,,,,,,,,,383.27449120000006,383.2835683999999,383.2835683999999,383.9358089,b,1.0,0.6487056999999368,,,,,sub-024,1,stroop_test,59.99138523706625,
,,,,69.0,9.0,5.0,,,,,,,,,,,,,gelb,blue,b,0.0,b,1.0,0.4705870999998751,,,,,,,,,,5.0,9.0,69.0,9.0,383.9501826999999,,,,,,,,,,,,,,,,,383.9363644999999,385.1512172,385.9520025,385.9359411999999,,,,,,,,,,,,,,,,,,,,,,,,,,,,,,,,,,,385.94005189999984,385.9520025,385.9520025,386.4363724,b,1.0,0.4705870999998751,,,,,sub-024,1,stroop_test,59.99138523706625,
,,,,70.0,10.0,5.0,,,,,,,,,,,,,gelb,red,r,0.0,r,1.0,0.445921300000009,,,,,,,,,,5.0,10.0,70.0,8.0,386.4515999999999,,,,,,,,,,,,,,,,,386.4367904999999,387.2358732,388.0365995,388.0211284,,,,,,,,,,,,,,,,,,,,,,,,,,,,,,,,,,,388.021945,388.0365995,388.0365995,388.4893275,r,1.0,0.445921300000009,,,,,sub-024,1,stroop_test,59.99138523706625,
,,,,71.0,11.0,5.0,,,,,,,,,,,,,rot,blue,b,0.0,b,1.0,0.7347869000000173,,,,,,,,,,5.0,11.0,71.0,2.0,388.5033546,,,,,,,,,,,,,,,,,388.4899376999999,389.70430940000006,390.5068922,390.4901439999999,,,,,,,,,,,,,,,,,,,,,,,,,,,,,,,,,,,390.4982078000001,390.5068922,390.5068922,391.25724420000006,b,1.0,0.7347869000000173,,,,,sub-024,1,stroop_test,59.99138523706625,
,,,,72.0,0.0,6.0,,,,,,,,,,,,,gelb,yellow,g,1.0,g,1.0,0.8686916999999994,,,,,,,,,,6.0,0.0,72.0,11.0,391.2720144,,,,,,,,,,,,,,,,,391.2577168,391.6222499,392.4229527999999,392.40765579999993,,,,,,,,,,,,,,,,,,,,,,,,,,,,,,,,,,,392.4143526,392.4229527999999,392.4229527999999,393.3090204,g,1.0,0.8686916999999994,,,,,sub-024,1,stroop_test,59.99138523706625,
,,,,73.0,1.0,6.0,,,,,,,,,,,,,rot,red,r,1.0,r,1.0,0.7360998999999993,,,,,,,,,,6.0,1.0,73.0,1.0,393.32353680000006,,,,,,,,,,,,,,,,,393.3095530000001,394.5241787999999,395.325677,395.3098327999999,,,,,,,,,,,,,,,,,,,,,,,,,,,,,,,,,,,395.3169625000001,395.325677,395.325677,396.0778799,r,1.0,0.7360998999999993,,,,,sub-024,1,stroop_test,59.99138523706625,
,,,,74.0,2.0,6.0,,,,,,,,,,,,,gelb,red,r,0.0,r,1.0,0.7470272000000477,,,,,,,,,,6.0,2.0,74.0,8.0,396.0921262,,,,,,,,,,,,,,,,,396.0785074999999,397.29285719999984,398.0946331999999,398.0780723999999,,,,,,,,,,,,,,,,,,,,,,,,,,,,,,,,,,,398.0855409999999,398.0946331999999,398.0946331999999,398.8471881,r,1.0,0.7470272000000477,,,,,sub-024,1,stroop_test,59.99138523706625,
,,,,75.0,3.0,6.0,,,,,,,,,,,,,rot,yellow,g,0.0,g,1.0,0.5574592000000393,,,,,,,,,,6.0,3.0,75.0,3.0,398.8609672999999,,,,,,,,,,,,,,,,,398.8482669999999,400.06181029999993,400.8645019999999,400.8468128,,,,,,,,,,,,,,,,,,,,,,,,,,,,,,,,,,,400.8553520999999,400.8645019999999,400.8645019999999,401.4313336999999,g,1.0,0.5574592000000393,,,,,sub-024,1,stroop_test,59.99138523706625,
,,,,76.0,4.0,6.0,,,,,,,,,,,,,rot,red,r,1.0,r,1.0,0.905818599999975,,,,,,,,,,6.0,4.0,76.0,0.0,401.4459279,,,,,,,,,,,,,,,,,401.43189400000006,401.5457756999999,402.3463185999999,402.3310486,,,,,,,,,,,,,,,,,,,,,,,,,,,,,,,,,,,402.3318058,402.3463185999999,402.3463185999999,403.26586900000007,r,1.0,0.905818599999975,,,,,sub-024,1,stroop_test,59.99138523706625,
,,,,77.0,5.0,6.0,,,,,,,,,,,,,blau,blue,b,1.0,b,1.0,0.7905424999999013,,,,,,,,,,6.0,5.0,77.0,5.0,403.2806555,,,,,,,,,,,,,,,,,403.2668689,404.4811809,405.2819167999999,405.2666053999999,,,,,,,,,,,,,,,,,,,,,,,,,,,,,,,,,,,405.27265510000007,405.2819167999999,405.2819167999999,406.0845798999999,b,1.0,0.7905424999999013,,,,,sub-024,1,stroop_test,59.99138523706625,
,,,,78.0,6.0,6.0,,,,,,,,,,,,,rot,blue,b,0.0,b,1.0,2.1419902000000093,,,,,,,,,,6.0,6.0,78.0,2.0,406.0989517999999,,,,,,,,,,,,,,,,,406.085063,406.4491610999999,407.2499777,407.2346442999999,,,,,,,,,,,,,,,,,,,,,,,,,,,,,,,,,,,407.240951,407.2499777,407.2499777,409.4047258999999,b,1.0,2.1419902000000093,,,,,sub-024,1,stroop_test,59.99138523706625,
,,,,79.0,7.0,6.0,,,,,,,,,,,,,blau,red,r,0.0,r,1.0,1.393327399999862,,,,,,,,,,6.0,7.0,79.0,4.0,409.4180767,,,,,,,,,,,,,,,,,409.4054002,409.7682143,410.5688118000001,410.5533782,,,,,,,,,,,,,,,,,,,,,,,,,,,,,,,,,,,410.5591548,410.5688118000001,410.5688118000001,411.9722715,r,1.0,1.393327399999862,,,,,sub-024,1,stroop_test,59.99138523706625,
,,,,80.0,8.0,6.0,,,,,,,,,,,,,gelb,blue,b,0.0,g,0.0,0.8252028000001701,,,,,,,,,,6.0,8.0,80.0,9.0,411.9866969,,,,,,,,,,,,,,,,,411.9728594999999,412.3367372,413.1372549,413.12198250000006,,,,,,,,,,,,,,,,,,,,,,,,,,,,,,,,,,,413.1286470999999,413.1372549,413.1372549,413.97375349999993,g,0.0,0.8252028000001701,,,,,sub-024,1,stroop_test,59.99138523706625,
,,,,81.0,9.0,6.0,,,,,,,,,,,,,gelb,yellow,g,1.0,g,1.0,0.8331505999999536,,,,,,,,,,6.0,9.0,81.0,10.0,413.9880266999999,,,,,,,,,,,,,,,,,413.9746413999999,414.3379852999999,415.1387815000001,415.1233703,,,,,,,,,,,,,,,,,,,,,,,,,,,,,,,,,,,415.1241086999999,415.1387815000001,415.1387815000001,415.975637,g,1.0,0.8331505999999536,,,,,sub-024,1,stroop_test,59.99138523706625,
,,,,82.0,10.0,6.0,,,,,,,,,,,,,blau,yellow,g,0.0,g,1.0,1.091893700000128,,,,,,,,,,6.0,10.0,82.0,7.0,415.989086,,,,,,,,,,,,,,,,,415.9762080999999,417.1899996,417.9907609,417.9755396999999,,,,,,,,,,,,,,,,,,,,,,,,,,,,,,,,,,,417.9822159,417.9907609,417.9907609,419.0944812,g,1.0,1.091893700000128,,,,,sub-024,1,stroop_test,59.99138523706625,
,,,,83.0,11.0,6.0,,,,,,,,,,,,,blau,blue,b,1.0,b,1.0,0.7237880000000132,,,,,,,,,,6.0,11.0,83.0,6.0,419.1080909,,,,,,,,,,,,,,,,,419.0951625999999,419.4583447999999,420.25886620000006,420.2434056,,,,,,,,,,,,,,,,,,,,,,,,,,,,,,,,,,,420.2442048,420.25886620000006,420.25886620000006,420.9947239999999,b,1.0,0.7237880000000132,,,,,sub-024,1,stroop_test,59.99138523706625,
,,,,84.0,0.0,7.0,,,,,,,,,,,,,rot,red,r,1.0,r,1.0,0.779300400000011,,,,,,,,,,7.0,0.0,84.0,0.0,421.0092795999999,,,,,,,,,,,,,,,,,420.9953223999999,421.1098864000001,421.9125052,421.8945941,,,,,,,,,,,,,,,,,,,,,,,,,,,,,,,,,,,421.9034167,421.9125052,421.9125052,422.6962325,r,1.0,0.779300400000011,,,,,sub-024,1,stroop_test,59.99138523706625,
,,,,85.0,1.0,7.0,,,,,,,,,,,,,gelb,red,r,0.0,r,1.0,1.9816799000000171,,,,,,,,,,7.0,1.0,85.0,8.0,422.71031790000006,,,,,,,,,,,,,,,,,422.6968818,423.0608877,423.8612298000001,423.84620760000007,,,,,,,,,,,,,,,,,,,,,,,,,,,,,,,,,,,423.8525167,423.8612298000001,423.8612298000001,425.8486181999999,r,1.0,1.9816799000000171,,,,,sub-024,1,stroop_test,59.99138523706625,
,,,,86.0,2.0,7.0,,,,,,,,,,,,,gelb,yellow,g,1.0,g,1.0,0.8682995000001483,,,,,,,,,,7.0,2.0,86.0,10.0,425.86259569999993,,,,,,,,,,,,,,,,,425.8494466,427.0634353999999,427.8641306,427.8501933,,,,,,,,,,,,,,,,,,,,,,,,,,,,,,,,,,,427.8513427999999,427.8641306,427.8641306,428.7346476,g,1.0,0.8682995000001483,,,,,sub-024,1,stroop_test,59.99138523706625,
,,,,87.0,3.0,7.0,,,,,,,,,,,,,blau,blue,b,1.0,b,1.0,0.4643177000000378,,,,,,,,,,7.0,3.0,87.0,5.0,428.7480742999999,,,,,,,,,,,,,,,,,428.7355931,429.5484552,430.3493753,430.3340733999999,,,,,,,,,,,,,,,,,,,,,,,,,,,,,,,,,,,430.3392147,430.3493753,430.3493753,430.8186523,b,1.0,0.4643177000000378,,,,,sub-024,1,stroop_test,59.99138523706625,
,,,,88.0,4.0,7.0,,,,,,,,,,,,,rot,blue,b,0.0,b,1.0,1.3093428999998196,,,,,,,,,,7.0,4.0,88.0,2.0,430.8327886,,,,,,,,,,,,,,,,,430.8195105,431.6335096999999,432.4340110999999,432.41898850000007,,,,,,,,,,,,,,,,,,,,,,,,,,,,,,,,,,,432.4244827,432.4340110999999,432.4340110999999,433.7536178,b,1.0,1.3093428999998196,,,,,sub-024,1,stroop_test,59.99138523706625,
,,,,89.0,5.0,7.0,,,,,,,,,,,,,gelb,yellow,g,1.0,g,1.0,0.6523236000000452,,,,,,,,,,7.0,5.0,89.0,11.0,433.7681339999999,,,,,,,,,,,,,,,,,433.7541948999999,434.5688126999999,435.3694444999999,435.3539913,,,,,,,,,,,,,,,,,,,,,,,,,,,,,,,,,,,435.3606594,435.3694444999999,435.3694444999999,436.0388083999999,g,1.0,0.6523236000000452,,,,,sub-024,1,stroop_test,59.99138523706625,
,,,,90.0,6.0,7.0,,,,,,,,,,,,,rot,red,r,1.0,r,1.0,0.5164092999998502,,,,,,,,,,7.0,6.0,90.0,1.0,436.0531289000001,,,,,,,,,,,,,,,,,436.03946300000007,437.25410710000006,438.0556603,438.0395607,,,,,,,,,,,,,,,,,,,,,,,,,,,,,,,,,,,438.0470046999999,438.0556603,438.0556603,438.57395900000006,r,1.0,0.5164092999998502,,,,,sub-024,1,stroop_test,59.99138523706625,
,,,,91.0,7.0,7.0,,,,,,,,,,,,,blau,blue,b,1.0,b,1.0,0.8332324000000426,,,,,,,,,,7.0,7.0,91.0,6.0,438.5882362,,,,,,,,,,,,,,,,,438.5744995,439.3887617999999,440.1893324,440.1739556999999,,,,,,,,,,,,,,,,,,,,,,,,,,,,,,,,,,,440.17923,440.1893324,440.1893324,441.0256132,b,1.0,0.8332324000000426,,,,,sub-024,1,stroop_test,59.99138523706625,
,,,,92.0,8.0,7.0,,,,,,,,,,,,,gelb,blue,b,0.0,b,1.0,0.8902296999999635,,,,,,,,,,7.0,8.0,92.0,9.0,441.0397793,,,,,,,,,,,,,,,,,441.0261762,442.2406564999999,443.0429036000001,443.0263183,,,,,,,,,,,,,,,,,,,,,,,,,,,,,,,,,,,443.0337494,443.0429036000001,443.0429036000001,443.9442227,b,1.0,0.8902296999999635,,,,,sub-024,1,stroop_test,59.99138523706625,
,,,,93.0,9.0,7.0,,,,,,,,,,,,,blau,red,r,0.0,r,1.0,1.1726794999999584,,,,,,,,,,7.0,9.0,93.0,4.0,443.9586440000001,,,,,,,,,,,,,,,,,443.9449129,445.1593281999999,445.9599174999999,445.9448233999999,,,,,,,,,,,,,,,,,,,,,,,,,,,,,,,,,,,445.9521034,445.9599174999999,445.9599174999999,447.1466218999999,r,1.0,1.1726794999999584,,,,,sub-024,1,stroop_test,59.99138523706625,
,,,,94.0,10.0,7.0,,,,,,,,,,,,,blau,yellow,g,0.0,g,1.0,0.7301457999999457,,,,,,,,,,7.0,10.0,94.0,7.0,447.16076870000006,,,,,,,,,,,,,,,,,447.1472246999999,448.3619597,449.162198,449.14693510000006,,,,,,,,,,,,,,,,,,,,,,,,,,,,,,,,,,,449.1478915,449.162198,449.162198,449.89819710000006,g,1.0,0.7301457999999457,,,,,sub-024,1,stroop_test,59.99138523706625,
,,,,95.0,11.0,7.0,,,,,,,,,,,,,rot,yellow,g,0.0,g,1.0,0.5192279999998846,,,,,,,,,,7.0,11.0,95.0,3.0,449.9126847999999,,,,,,,,,,,,,,,,,449.8988431999999,451.1135555999999,451.9140206,451.8986321,,,,,,,,,,,,,,,,,,,,,,,,,,,,,,,,,,,451.9061393,451.9140206,451.9140206,452.4499681,g,1.0,0.5192279999998846,,,,,sub-024,1,stroop_test,59.99138523706625,
,,,,96.0,0.0,8.0,,,,,,,,,,,,,gelb,yellow,g,1.0,g,1.0,0.7744347000000289,,,,,,,,,,8.0,0.0,96.0,10.0,452.464471,,,,,,,,,,,,,,,,,452.4505910999999,453.6651998,454.4673722999999,454.4505763,,,,,,,,,,,,,,,,,,,,,,,,,,,,,,,,,,,454.4585109,454.4673722999999,454.4673722999999,455.2507332999999,g,1.0,0.7744347000000289,,,,,sub-024,1,stroop_test,59.99138523706625,
,,,,97.0,1.0,8.0,,,,,,,,,,,,,blau,blue,b,1.0,b,1.0,0.6314758000000893,,,,,,,,,,8.0,1.0,97.0,5.0,455.2663436999999,,,,,,,,,,,,,,,,,455.2511193,456.4508065999999,457.251293,457.235719,,,,,,,,,,,,,,,,,,,,,,,,,,,,,,,,,,,457.241329,457.251293,457.251293,457.8873051999999,b,1.0,0.6314758000000893,,,,,sub-024,1,stroop_test,59.99138523706625,
,,,,98.0,2.0,8.0,,,,,,,,,,,,,gelb,yellow,g,1.0,g,1.0,0.8392255000001114,,,,,,,,,,8.0,2.0,98.0,11.0,457.9017486999999,,,,,,,,,,,,,,,,,457.887929,459.1022662999999,459.9029576,459.8880179999999,,,,,,,,,,,,,,,,,,,,,,,,,,,,,,,,,,,459.8939186999999,459.9029576,459.9029576,460.7558976,g,1.0,0.8392255000001114,,,,,sub-024,1,stroop_test,59.99138523706625,
,,,,99.0,3.0,8.0,,,,,,,,,,,,,blau,red,r,0.0,r,1.0,0.9906082999998488,,,,,,,,,,8.0,3.0,99.0,4.0,460.7703239999999,,,,,,,,,,,,,,,,,460.7565184999999,461.9710564,462.7716487,462.756222,,,,,,,,,,,,,,,,,,,,,,,,,,,,,,,,,,,462.762377,462.7716487,462.7716487,463.77488,r,1.0,0.9906082999998488,,,,,sub-024,1,stroop_test,59.99138523706625,
,,,,100.0,4.0,8.0,,,,,,,,,,,,,gelb,blue,b,0.0,b,1.0,0.6521712999999636,,,,,,,,,,8.0,4.0,100.0,9.0,463.78883470000005,,,,,,,,,,,,,,,,,463.7755599,464.1392369999999,464.94004760000007,464.9246487,,,,,,,,,,,,,,,,,,,,,,,,,,,,,,,,,,,464.931347,464.94004760000007,464.94004760000007,465.6093976,b,1.0,0.6521712999999636,,,,,sub-024,1,stroop_test,59.99138523706625,
,,,,101.0,5.0,8.0,,,,,,,,,,,,,blau,yellow,g,0.0,g,1.0,0.5848800999999639,,,,,,,,,,8.0,5.0,101.0,7.0,465.6239029999999,,,,,,,,,,,,,,,,,465.6099695999999,466.4240852,467.2270111,467.20926600000007,,,,,,,,,,,,,,,,,,,,,,,,,,,,,,,,,,,467.2169245999999,467.2270111,467.2270111,467.8273313,g,1.0,0.5848800999999639,,,,,sub-024,1,stroop_test,59.99138523706625,
,,,,102.0,6.0,8.0,,,,,,,,,,,,,rot,red,r,1.0,r,1.0,0.754658599999857,,,,,,,,,,8.0,6.0,102.0,0.0,467.8418348999999,,,,,,,,,,,,,,,,,467.8279298,469.0425083,469.84813570000006,469.8276093,,,,,,,,,,,,,,,,,,,,,,,,,,,,,,,,,,,469.8394401000001,469.84813570000006,469.84813570000006,470.6128088999999,r,1.0,0.754658599999857,,,,,sub-024,1,stroop_test,59.99138523706625,
,,,,103.0,7.0,8.0,,,,,,,,,,,,,rot,yellow,g,0.0,g,1.0,1.404358099999854,,,,,,,,,,8.0,7.0,103.0,3.0,470.6269037,,,,,,,,,,,,,,,,,470.6133832,470.7274628999999,471.5277219,471.51244270000007,,,,,,,,,,,,,,,,,,,,,,,,,,,,,,,,,,,471.51355319999993,471.5277219,471.5277219,472.947899,g,1.0,1.404358099999854,,,,,sub-024,1,stroop_test,59.99138523706625,
,,,,104.0,8.0,8.0,,,,,,,,,,,,,rot,red,r,1.0,r,1.0,0.8887841999999182,,,,,,,,,,8.0,8.0,104.0,1.0,472.9619316999999,,,,,,,,,,,,,,,,,472.9485342,474.1629298,474.9634564999999,474.9481057999999,,,,,,,,,,,,,,,,,,,,,,,,,,,,,,,,,,,474.94905330000006,474.9634564999999,474.9634564999999,475.8661046,r,1.0,0.8887841999999182,,,,,sub-024,1,stroop_test,59.99138523706625,
,,,,105.0,9.0,8.0,,,,,,,,,,,,,rot,blue,b,0.0,b,1.0,0.9408895000001394,,,,,,,,,,8.0,9.0,105.0,2.0,475.8805072999999,,,,,,,,,,,,,,,,,475.8671463999999,475.9806951999999,476.78126010000005,476.76613,,,,,,,,,,,,,,,,,,,,,,,,,,,,,,,,,,,476.7670699,476.78126010000005,476.78126010000005,477.7344145,b,1.0,0.9408895000001394,,,,,sub-024,1,stroop_test,59.99138523706625,
,,,,106.0,10.0,8.0,,,,,,,,,,,,,gelb,red,r,0.0,r,1.0,1.1518867999998292,,,,,,,,,,8.0,10.0,106.0,8.0,477.7487693999999,,,,,,,,,,,,,,,,,477.7349795999999,477.84868200000005,478.6501948,478.6340874,,,,,,,,,,,,,,,,,,,,,,,,,,,,,,,,,,,478.6417652999999,478.6501948,478.6501948,479.8192936,r,1.0,1.1518867999998292,,,,,sub-024,1,stroop_test,59.99138523706625,
,,,,107.0,11.0,8.0,,,,,,,,,,,,,blau,blue,b,1.0,b,1.0,0.847349099999974,,,,,,,,,,8.0,11.0,107.0,6.0,479.8338058,,,,,,,,,,,,,,,,,479.8199104999999,480.6342745,481.4353524999999,481.4196356,,,,,,,,,,,,,,,,,,,,,,,,,,,,,,,,,,,481.4260348,481.4353524999999,481.4353524999999,482.2876371,b,1.0,0.847349099999974,,,,,sub-024,1,stroop_test,59.99138523706625,
,,,,108.0,0.0,9.0,,,,,,,,,,,,,rot,blue,b,0.0,b,1.0,0.8607543999999052,,,,,,,,,,9.0,0.0,108.0,2.0,482.3017812000001,,,,,,,,,,,,,,,,,482.28820339999993,483.1025600999999,483.9029112999999,483.8876544,,,,,,,,,,,,,,,,,,,,,,,,,,,,,,,,,,,483.8949255999999,483.9029112999999,483.9029112999999,484.7725418999999,b,1.0,0.8607543999999052,,,,,sub-024,1,stroop_test,59.99138523706625,
,,,,109.0,1.0,9.0,,,,,,,,,,,,,gelb,yellow,g,1.0,g,1.0,0.7841880999999375,,,,,,,,,,9.0,1.0,109.0,11.0,484.7869389999999,,,,,,,,,,,,,,,,,484.7730701,485.5877799,486.3879989,486.3727423999999,,,,,,,,,,,,,,,,,,,,,,,,,,,,,,,,,,,486.3790010999999,486.3879989,486.3879989,487.1747972999999,g,1.0,0.7841880999999375,,,,,sub-024,1,stroop_test,59.99138523706625,
,,,,110.0,2.0,9.0,,,,,,,,,,,,,blau,yellow,g,0.0,g,1.0,0.7630769999998392,,,,,,,,,,9.0,2.0,110.0,7.0,487.1887148999999,,,,,,,,,,,,,,,,,487.1755524,488.3892865999999,489.18991299999993,489.1743998,,,,,,,,,,,,,,,,,,,,,,,,,,,,,,,,,,,489.17995270000006,489.18991299999993,489.18991299999993,489.959198,g,1.0,0.7630769999998392,,,,,sub-024,1,stroop_test,59.99138523706625,
,,,,111.0,3.0,9.0,,,,,,,,,,,,,rot,red,r,1.0,r,1.0,0.716028999999935,,,,,,,,,,9.0,3.0,111.0,0.0,489.9736086999999,,,,,,,,,,,,,,,,,489.9597933,490.7744751999999,491.5771193000001,491.5599851,,,,,,,,,,,,,,,,,,,,,,,,,,,,,,,,,,,491.5678398,491.5771193000001,491.5771193000001,492.31062040000006,r,1.0,0.716028999999935,,,,,sub-024,1,stroop_test,59.99138523706625,
,,,,112.0,4.0,9.0,,,,,,,,,,,,,gelb,red,r,0.0,r,1.0,1.6159523999999692,,,,,,,,,,9.0,4.0,112.0,8.0,492.3260608000001,,,,,,,,,,,,,,,,,492.3109829999999,493.12598159999993,493.9265507999999,493.9118157,,,,,,,,,,,,,,,,,,,,,,,,,,,,,,,,,,,493.9176244,493.9265507999999,493.9265507999999,495.54771030000006,r,1.0,1.6159523999999692,,,,,sub-024,1,stroop_test,59.99138523706625,
,,,,113.0,5.0,9.0,,,,,,,,,,,,,gelb,blue,b,0.0,b,1.0,0.690064300000131,,,,,,,,,,9.0,5.0,113.0,9.0,495.56104099999993,,,,,,,,,,,,,,,,,495.54863610000007,495.91161480000005,496.7120433,496.69644160000007,,,,,,,,,,,,,,,,,,,,,,,,,,,,,,,,,,,496.6972168,496.7120433,496.7120433,497.41474560000006,b,1.0,0.690064300000131,,,,,sub-024,1,stroop_test,59.99138523706625,
,,,,114.0,6.0,9.0,,,,,,,,,,,,,blau,blue,b,1.0,b,1.0,1.6498937999999723,,,,,,,,,,9.0,6.0,114.0,5.0,497.4290031999999,,,,,,,,,,,,,,,,,497.4153208999999,497.7791783999999,498.5824516999999,498.5643714,,,,,,,,,,,,,,,,,,,,,,,,,,,,,,,,,,,498.5733286,498.5824516999999,498.5824516999999,500.2499556,b,1.0,1.6498937999999723,,,,,sub-024,1,stroop_test,59.99138523706625,
,,,,115.0,7.0,9.0,,,,,,,,,,,,,gelb,yellow,g,1.0,g,1.0,0.7255989999998746,,,,,,,,,,9.0,7.0,115.0,10.0,500.2641044,,,,,,,,,,,,,,,,,500.2508045,500.3644261,501.1667746999999,501.1508951999999,,,,,,,,,,,,,,,,,,,,,,,,,,,,,,,,,,,501.1576118,501.1667746999999,501.1667746999999,501.9016262,g,1.0,0.7255989999998746,,,,,sub-024,1,stroop_test,59.99138523706625,
,,,,116.0,8.0,9.0,,,,,,,,,,,,,rot,yellow,g,0.0,g,1.0,0.8770277999999507,,,,,,,,,,9.0,8.0,116.0,3.0,501.9155387999999,,,,,,,,,,,,,,,,,501.9021359999999,502.26565860000005,503.0664795999999,503.0510594,,,,,,,,,,,,,,,,,,,,,,,,,,,,,,,,,,,503.0578553,503.0664795999999,503.0664795999999,503.95310730000006,g,1.0,0.8770277999999507,,,,,sub-024,1,stroop_test,59.99138523706625,
,,,,117.0,9.0,9.0,,,,,,,,,,,,,blau,blue,b,1.0,b,1.0,0.6644320999998854,,,,,,,,,,9.0,9.0,117.0,6.0,503.9669359,,,,,,,,,,,,,,,,,503.953769,504.0670419000001,504.8679035,504.8521461999999,,,,,,,,,,,,,,,,,,,,,,,,,,,,,,,,,,,504.8579832,504.8679035,504.8679035,505.5367257,b,1.0,0.6644320999998854,,,,,sub-024,1,stroop_test,59.99138523706625,
,,,,118.0,10.0,9.0,,,,,,,,,,,,,rot,red,r,1.0,r,1.0,0.7589721000001646,,,,,,,,,,9.0,10.0,118.0,1.0,505.5514948999999,,,,,,,,,,,,,,,,,505.5371576,505.6515482,506.4533899000001,506.43756239999993,,,,,,,,,,,,,,,,,,,,,,,,,,,,,,,,,,,506.4445532,506.4533899000001,506.4533899000001,507.2233363,r,1.0,0.7589721000001646,,,,,sub-024,1,stroop_test,59.99138523706625,
,,,,119.0,11.0,9.0,,,,,,,,,,,,,blau,red,r,0.0,r,1.0,1.6158936000001631,,,,,,,,,,9.0,11.0,119.0,4.0,507.2357729999999,,,,,,,,,,,,,,,,,507.2241692,508.0364543999999,508.8370657,508.8217393,,,,,,,,,,,,,,,,,,,,,,,,,,,,,,,,,,,508.8292036,508.8370657,508.8370657,510.4569717,r,1.0,1.6158936000001631,,,,,sub-024,1,stroop_test,59.99138523706625,
,,,,,,,,,,,,,,,,,,,,,,,,,,,,,,,,,,,,,,,,,,,,,,,,,,,,,,,,,,,,,,,,,,,,,,,,,,,,,,,,,,,,,,,,,,,,,,,,,,,,,,510.4572476999999,510.4713268999999,515.4585989,sub-024,1,stroop_test,59.99138523706625,
