wordCTK,colorCTK,corrAnsCTK,congruentCTK,thisN,thisTrialN,thisRepN,keyResp_CTK.keys,keyResp_CTK.corr,keyResp_CTK.rt,keyResp_CTK.duration,wordPractice,colorPractice,corrAnsPractice,congruentPractice,respPractice.keys,respPractice.corr,respPractice.rt,respPractice.duration,word,color,corrAns,congruent,keyResp_test_run.keys,keyResp_test_run.corr,keyResp_test_run.rt,keyResp_test_run.duration,trials_CTK.thisRepN,trials_CTK.thisTrialN,trials_CTK.thisN,trials_CTK.thisIndex,trials_practice.thisRepN,trials_practice.thisTrialN,trials_practice.thisN,trials_practice.thisIndex,trials_test.thisRepN,trials_test.thisTrialN,trials_test.thisN,trials_test.thisIndex,thisRow.t,notes,instruction.started,instr_text.started,instr_image.started,instr_resp.started,instruction.stopped,instr_resp.keys,instr_resp.rt,instr_resp.duration,instr_color_to_key.started,instr_ctk.started,resp_ctk.started,instr_color_to_key.stopped,resp_ctk.keys,resp_ctk.rt,resp_ctk.duration,ITI.started,fixcross.started,fixcross.stopped,ITI.stopped,color_to_key_run.started,stimulus_CTK.started,keyResp_CTK.started,color_to_key_run.stopped,trials_CTK.keyResp_CTK.keys,trials_CTK.keyResp_CTK.corr,trials_CTK.keyResp_CTK.rt,trials_CTK.keyResp_CTK.duration,instr_practice.started,instr_practice_text.started,instr_practice_resp.started,instr_practice.stopped,instr_practice_resp.keys,instr_practice_resp.rt,instr_practice_resp.duration,practice_run.started,stimulus_practice.started,respPractice.started,practice_run.stopped,trials_practice.respPractice.keys,trials_practice.respPractice.corr,trials_practice.respPractice.rt,trials_practice.respPractice.duration,feedback.started,textFeedback.started,feedback.stopped,textFeedback.stopped,instr_test.started,instr_test_text.started,instr_test_resp.started,instr_test.stopped,instr_test_resp.keys,instr_test_resp.rt,instr_test_resp.duration,test_run.started,stimulus_test_run.started,keyResp_test_run.started,test_run.stopped,trials_test.keyResp_test_run.keys,trials_test.keyResp_test_run.corr,trials_test.keyResp_test_run.rt,trials_test.keyResp_test_run.duration,goodbye.started,textGoodbye.started,participant,session,expName,frameRate,Unnamed: 111
,,,,,,,,,,,,,,,,,,,,,,,,,,,,,,,,,,,,,,,,,0.0033961000008275,0.0266265999962342,0.0266265999962342,0.0266265999962342,8.578675799995835,space,8.506749499996658,,,,,,,,,,,,,,,,,,,,,,,,,,,,,,,,,,,,,,,,,,,,,,,,,,,,,,,,,sub-008,1.0,stroop_test,60.069332022978365,
,,,,,,,,,,,,,,,,,,,,,,,,,,,,,,,,,,,,,,,,,,,,,,,,,8.578729900000326,8.583669499996176,8.583669499996176,10.202649799997744,space,1.6075607000020682,,,,,,,,,,,,,,,,,,,,,,,,,,,,,,,,,,,,,,,,,,,,,,,,,,sub-008,1.0,stroop_test,60.069332022978365,
test,blue,b,1.0,0.0,0.0,0.0,b,1.0,2.804161499996553,,,,,,,,,,,,,,,,,,0.0,0.0,0.0,2.0,,,,,,,,,10.21762199999648,,,,,,,,,,,,,,,,,10.211492199996428,10.318057199998291,11.1173689999996,11.102061099998537,11.109989600001429,11.1173689999996,11.1173689999996,13.934036899998318,b,1.0,2.804161499996553,,,,,,,,,,,,,,,,,,,,,,,,,,,,,,,,,,,,,,sub-008,1.0,stroop_test,60.069332022978365,
test,red,r,1.0,1.0,1.0,0.0,r,1.0,0.8169908999989275,,,,,,,,,,,,,,,,,,0.0,1.0,1.0,0.0,,,,,,,,,13.948920899994846,,,,,,,,,,,,,,,,,13.934342900000049,14.048671099997591,14.84820039999613,14.834580199996708,14.835130300001763,14.84820039999613,14.84820039999613,15.683551399997668,r,1.0,0.8169908999989275,,,,,,,,,,,,,,,,,,,,,,,,,,,,,,,,,,,,,,sub-008,1.0,stroop_test,60.069332022978365,
test,yellow,g,1.0,2.0,2.0,0.0,g,1.0,0.940858699999808,,,,,,,,,,,,,,,,,,0.0,2.0,2.0,1.0,,,,,,,,,15.697677500000282,,,,,,,,,,,,,,,,,15.684020799999416,16.897014399997715,17.6962898999991,17.6806604999947,17.681121699999494,17.6962898999991,17.6962898999991,18.647531299997357,g,1.0,0.940858699999808,,,,,,,,,,,,,,,,,,,,,,,,,,,,,,,,,,,,,,sub-008,1.0,stroop_test,60.069332022978365,
test,blue,b,1.0,3.0,0.0,1.0,b,1.0,0.6776439999957802,,,,,,,,,,,,,,,,,,1.0,0.0,3.0,2.0,,,,,,,,,18.662583500001347,,,,,,,,,,,,,,,,,18.64784359999612,18.762582099996507,19.561984299994947,19.54664259999845,19.54787209999631,19.561984299994947,19.561984299994947,20.24834220000048,b,1.0,0.6776439999957802,,,,,,,,,,,,,,,,,,,,,,,,,,,,,,,,,,,,,,sub-008,1.0,stroop_test,60.069332022978365,
test,red,r,1.0,4.0,1.0,1.0,r,1.0,0.4889824999991106,,,,,,,,,,,,,,,,,,1.0,1.0,4.0,0.0,,,,,,,,,20.2617334999959,,,,,,,,,,,,,,,,,20.24876489999588,21.46075629999541,22.260443300001494,22.245295499997155,22.246691699998337,22.260443300001494,22.260443300001494,22.761592599999855,r,1.0,0.4889824999991106,,,,,,,,,,,,,,,,,,,,,,,,,,,,,,,,,,,,,,sub-008,1.0,stroop_test,60.069332022978365,
test,yellow,g,1.0,5.0,2.0,1.0,g,1.0,1.88089570000011,,,,,,,,,,,,,,,,,,1.0,2.0,5.0,1.0,,,,,,,,,22.776655599998776,,,,,,,,,,,,,,,,,22.761944699996093,22.87676439999632,23.676123699995514,23.66077769999538,23.66139779999503,23.676123699995514,23.676123699995514,25.55919349999749,g,1.0,1.88089570000011,,,,,,,,,,,,,,,,,,,,,,,,,,,,,,,,,,,,,,sub-008,1.0,stroop_test,60.069332022978365,
test,red,r,1.0,6.0,0.0,2.0,r,1.0,0.7387135999961174,,,,,,,,,,,,,,,,,,2.0,0.0,6.0,0.0,,,,,,,,,25.574546999996528,,,,,,,,,,,,,,,,,25.559431900001076,25.92460679999931,26.72411409999768,26.709668799994688,26.710961400000087,26.72411409999768,26.72411409999768,27.47476359999564,r,1.0,0.7387135999961174,,,,,,,,,,,,,,,,,,,,,,,,,,,,,,,,,,,,,,sub-008,1.0,stroop_test,60.069332022978365,
test,yellow,g,1.0,7.0,1.0,2.0,g,1.0,5.077042100005201,,,,,,,,,,,,,,,,,,2.0,1.0,7.0,1.0,,,,,,,,,27.490132399994764,,,,,,,,,,,,,,,,,27.475059699994745,28.68966830000136,29.488895900001808,29.47350989999541,29.474056799997925,29.488895900001808,29.488895900001808,34.5711250999957,g,1.0,5.077042100005201,,,,,,,,,,,,,,,,,,,,,,,,,,,,,,,,,,,,,,sub-008,1.0,stroop_test,60.069332022978365,
test,blue,b,1.0,8.0,2.0,2.0,b,1.0,0.897218400001293,,,,,,,,,,,,,,,,,,2.0,2.0,8.0,2.0,,,,,,,,,34.58589729999949,,,,,,,,,,,,,,,,,34.57153919999837,34.685844100000395,35.4851376000006,35.46971279999707,35.47025439999561,35.4851376000006,35.4851376000006,36.38777509999636,b,1.0,0.897218400001293,,,,,,,,,,,,,,,,,,,,,,,,,,,,,,,,,,,,,,sub-008,1.0,stroop_test,60.069332022978365,
test,yellow,g,1.0,9.0,0.0,3.0,g,1.0,1.972857799999474,,,,,,,,,,,,,,,,,,3.0,0.0,9.0,1.0,,,,,,,,,36.40138709999883,,,,,,,,,,,,,,,,,36.38815089999844,37.60066430000006,38.40043460000015,38.38532159999886,38.386667599996144,38.40043460000015,38.40043460000015,40.38440509999782,g,1.0,1.972857799999474,,,,,,,,,,,,,,,,,,,,,,,,,,,,,,,,,,,,,,sub-008,1.0,stroop_test,60.069332022978365,
test,red,r,1.0,10.0,1.0,3.0,r,1.0,0.5911655000018072,,,,,,,,,,,,,,,,,,3.0,1.0,10.0,0.0,,,,,,,,,40.39879139999539,,,,,,,,,,,,,,,,,40.38484459999745,40.748566900001606,41.54810970000108,41.533073499995226,41.53363620000164,41.54810970000108,41.54810970000108,42.14924009999959,r,1.0,0.5911655000018072,,,,,,,,,,,,,,,,,,,,,,,,,,,,,,,,,,,,,,sub-008,1.0,stroop_test,60.069332022978365,
test,blue,b,1.0,11.0,2.0,3.0,b,1.0,0.7907250000062049,,,,,,,,,,,,,,,,,,3.0,2.0,11.0,2.0,,,,,,,,,42.16418829999748,,,,,,,,,,,,,,,,,42.1495003999953,42.514053899998544,43.313397999998415,43.29794469999615,43.29863040000055,43.313397999998415,43.313397999998415,44.114102999999886,b,1.0,0.7907250000062049,,,,,,,,,,,,,,,,,,,,,,,,,,,,,,,,,,,,,,sub-008,1.0,stroop_test,60.069332022978365,
,,,,,,,,,,,,,,,,,,,,,,,,,,,,,,,,,,,,,,,,,,,,,,,,,,,,,,,,,,,,,,,,,,,,44.11420099999668,44.12964249999641,44.12964249999641,46.27974539999559,space,2.141967299998214,,,,,,,,,,,,,,,,,,,,,,,,,,,,,,,sub-008,1.0,stroop_test,60.069332022978365,
,,,,0.0,0.0,0.0,,,,,rot,blue,b,0.0,b,1.0,1.2575878999996348,,,,,,,,,,,,,,0.0,0.0,0.0,2.0,,,,,46.29494279999926,,,,,,,,,,,,,,,,,46.2877251999962,47.09476490000088,47.89380399999936,47.878899600000295,,,,,,,,,,,,,,,,47.884593399998266,47.89380399999936,47.89380399999936,49.16266249999899,b,1.0,1.2575878999996348,,49.17268959999637,49.1794888000004,50.1764136999991,,,,,,,,,,,,,,,,,,,sub-008,1.0,stroop_test,60.069332022978365,
,,,,1.0,1.0,0.0,,,,,blau,red,r,0.0,r,1.0,0.4311715999938315,,,,,,,,,,,,,,0.0,1.0,1.0,4.0,,,,,50.19252730000153,,,,,,,,,,,,,,,,,50.17690079999738,50.9753023000012,51.77459770000132,51.75990559999627,,,,,,,,,,,,,,,,51.76559529999941,51.77459770000132,51.77459770000132,52.20886269999755,r,1.0,0.4311715999938315,,52.20924139999988,52.2243651999961,53.20796970000083,53.22383830000035,,,,,,,,,,,,,,,,,,sub-008,1.0,stroop_test,60.069332022978365,
,,,,2.0,2.0,0.0,,,,,blau,yellow,g,0.0,g,1.0,3.2451765000005253,,,,,,,,,,,,,,0.0,2.0,2.0,7.0,,,,,53.22383830000035,,,,,,,,,,,,,,,,,53.20819869999832,53.32395839999663,54.123483899995335,54.10882380000112,,,,,,,,,,,,,,,,54.10945509999874,54.123483899995335,54.123483899995335,57.37357669999619,g,1.0,3.2451765000005253,,57.37416459999804,57.38825669999642,58.372465000000375,58.38732860000164,,,,,,,,,,,,,,,,,,sub-008,1.0,stroop_test,60.069332022978365,
,,,,3.0,3.0,0.0,,,,,rot,red,r,1.0,r,1.0,0.5656891000035102,,,,,,,,,,,,,,0.0,3.0,3.0,0.0,,,,,58.38732860000164,,,,,,,,,,,,,,,,,58.37280759999703,58.7371725999983,59.53662249999616,59.521303599998646,,,,,,,,,,,,,,,,59.52623949999543,59.53662249999616,59.53662249999616,60.10633080000116,r,1.0,0.5656891000035102,,60.10705149999558,60.11986749999778,61.10400970000046,61.11898849999852,,,,,,,,,,,,,,,,,,sub-008,1.0,stroop_test,60.069332022978365,
,,,,4.0,4.0,0.0,,,,,rot,yellow,g,0.0,b,0.0,2.136080399999628,,,,,,,,,,,,,,0.0,4.0,4.0,3.0,,,,,61.11898849999852,,,,,,,,,,,,,,,,,61.10436630000186,61.4687724999967,62.26829949999956,62.25307549999707,,,,,,,,,,,,,,,,62.25433569999586,62.26829949999956,62.26829949999956,64.42011089999869,b,0.0,2.136080399999628,,64.42401919999975,64.43334099999629,65.41819549999491,65.43295249999937,,,,,,,,,,,,,,,,,,sub-008,1.0,stroop_test,60.069332022978365,
,,,,5.0,5.0,0.0,,,,,blau,blue,b,1.0,b,1.0,1.7227992999978596,,,,,,,,,,,,,,0.0,5.0,5.0,6.0,,,,,65.43295249999937,,,,,,,,,,,,,,,,,65.4187047000014,66.6322155999951,67.43146020000131,67.41672470000049,,,,,,,,,,,,,,,,67.41964390000066,67.43146020000131,67.43146020000131,69.16517190000013,b,1.0,1.7227992999978596,,69.16909379999561,69.1804123999973,70.16390690000117,70.17971179999586,,,,,,,,,,,,,,,,,,sub-008,1.0,stroop_test,60.069332022978365,
,,,,6.0,6.0,0.0,,,,,rot,red,r,1.0,r,1.0,0.5561950000046636,,,,,,,,,,,,,,0.0,6.0,6.0,1.0,,,,,70.17971179999586,,,,,,,,,,,,,,,,,70.16411979999975,71.37900789999549,72.1785818999997,72.163152299996,,,,,,,,,,,,,,,,72.16690250000102,72.1785818999997,72.1785818999997,72.74742100000003,r,1.0,0.5561950000046636,,72.7479458999951,72.7615752999991,73.74571789999754,73.76118180000049,,,,,,,,,,,,,,,,,,sub-008,1.0,stroop_test,60.069332022978365,
,,,,7.0,7.0,0.0,,,,,blau,blue,b,1.0,b,1.0,2.2335050999972736,,,,,,,,,,,,,,0.0,7.0,7.0,5.0,,,,,73.76118180000049,,,,,,,,,,,,,,,,,73.74603669999487,74.56027319999703,75.35985799999617,75.34606319999875,,,,,,,,,,,,,,,,75.35190750000038,75.35985799999617,75.35985799999617,77.60972979999497,b,1.0,2.2335050999972736,,77.61020779999672,77.62516179999511,78.60873169999832,78.62448500000028,,,,,,,,,,,,,,,,,,sub-008,1.0,stroop_test,60.069332022978365,
,,,,8.0,8.0,0.0,,,,,gelb,red,r,0.0,r,1.0,2.019529700002749,,,,,,,,,,,,,,0.0,8.0,8.0,8.0,,,,,78.62448500000028,,,,,,,,,,,,,,,,,78.60902530000021,79.82387249999738,80.62324889999582,80.60793869999907,,,,,,,,,,,,,,,,80.61118799999531,80.62324889999582,80.62324889999582,82.65658149999945,r,1.0,2.019529700002749,,82.65705940000043,82.67204029999994,83.65581240000029,83.67138149999664,,,,,,,,,,,,,,,,,,sub-008,1.0,stroop_test,60.069332022978365,
,,,,9.0,9.0,0.0,,,,,gelb,yellow,g,1.0,g,1.0,0.9505200999992668,,,,,,,,,,,,,,0.0,9.0,9.0,10.0,,,,,83.67138149999664,,,,,,,,,,,,,,,,,83.65611720000015,83.77095410000038,84.57078729999921,84.554865099999,,,,,,,,,,,,,,,,84.55532139999559,84.57078729999921,84.57078729999921,85.53825109999889,g,1.0,0.9505200999992668,,85.53870610000013,85.55333049999899,86.53713799999969,86.5530362999998,,,,,,,,,,,,,,,,,,sub-008,1.0,stroop_test,60.069332022978365,
,,,,10.0,10.0,0.0,,,,,gelb,yellow,g,1.0,g,1.0,1.322842400004447,,,,,,,,,,,,,,0.0,10.0,10.0,11.0,,,,,86.5530362999998,,,,,,,,,,,,,,,,,86.53748369999812,87.35207010000158,88.15159639999911,88.13615379999828,,,,,,,,,,,,,,,,88.13662279999699,88.15159639999911,88.15159639999911,89.48631100000057,g,1.0,1.322842400004447,,89.48685829999886,89.50079019999976,90.48610879999616,90.5004112999959,,,,,,,,,,,,,,,,,,sub-008,1.0,stroop_test,60.069332022978365,
,,,,11.0,11.0,0.0,,,,,gelb,blue,b,0.0,b,1.0,1.4628264999992098,,,,,,,,,,,,,,0.0,11.0,11.0,9.0,,,,,90.5004112999959,,,,,,,,,,,,,,,,,90.48660219999874,91.69956609999645,92.49892739999632,92.48373529999662,,,,,,,,,,,,,,,,92.48434799999814,92.49892739999632,92.49892739999632,93.9681253000017,b,1.0,1.4628264999992098,,93.96900539999478,93.98163399999612,94.9657561999993,94.98078520000126,,,,,,,,,,,,,,,,,,sub-008,1.0,stroop_test,60.069332022978365,
,,,,12.0,0.0,1.0,,,,,rot,yellow,g,0.0,g,1.0,0.8234905999997864,,,,,,,,,,,,,,1.0,0.0,12.0,3.0,,,,,94.98078520000126,,,,,,,,,,,,,,,,,94.96609709999755,95.08065219999844,95.88035719999608,95.8655404999954,,,,,,,,,,,,,,,,95.86911269999835,95.88035719999608,95.88035719999608,96.71573920000084,g,1.0,0.8234905999997864,,96.71665219999704,96.7300561000011,97.71476450000046,97.72911179999936,,,,,,,,,,,,,,,,,,sub-008,1.0,stroop_test,60.069332022978365,
,,,,13.0,1.0,1.0,,,,,rot,blue,b,0.0,b,1.0,0.5951801999981399,,,,,,,,,,,,,,1.0,1.0,13.0,2.0,,,,,97.72911179999936,,,,,,,,,,,,,,,,,97.71505859999888,98.92819469999812,99.7279156000004,99.7124449999974,,,,,,,,,,,,,,,,99.71293629999856,99.7279156000004,99.7279156000004,100.32957009999518,b,1.0,0.5951801999981399,,100.33006690000184,100.3439442999952,101.32827220000036,101.3432593999969,,,,,,,,,,,,,,,,,,sub-008,1.0,stroop_test,60.069332022978365,
,,,,14.0,2.0,1.0,,,,,rot,red,r,1.0,r,1.0,0.3914645000040764,,,,,,,,,,,,,,1.0,2.0,14.0,0.0,,,,,101.3432593999969,,,,,,,,,,,,,,,,,101.32871119999618,102.14305299999978,102.94220159999531,102.92718519999472,,,,,,,,,,,,,,,,102.92784820000088,102.94220159999531,102.94220159999531,103.3448767000009,r,1.0,0.3914645000040764,,103.3455030999976,103.35871599999518,104.34331499999826,104.3580709999951,,,,,,,,,,,,,,,,,,sub-008,1.0,stroop_test,60.069332022978365,
,,,,15.0,3.0,1.0,,,,,gelb,red,r,0.0,r,1.0,0.2972217999995337,,,,,,,,,,,,,,1.0,3.0,15.0,8.0,,,,,104.3580709999951,,,,,,,,,,,,,,,,,104.3443746999983,105.55735350000032,106.3568696000002,106.34239209999942,,,,,,,,,,,,,,,,106.34935739999491,106.3568696000002,106.3568696000002,106.65934079999715,r,1.0,0.2972217999995337,,106.65989489999627,106.67339759999597,107.65782400000172,107.6727150000006,,,,,,,,,,,,,,,,,,sub-008,1.0,stroop_test,60.069332022978365,
,,,,16.0,4.0,1.0,,,,,blau,blue,b,1.0,b,1.0,0.3430953999995836,,,,,,,,,,,,,,1.0,4.0,16.0,6.0,,,,,107.6727150000006,,,,,,,,,,,,,,,,,107.65818040000158,108.02246439999726,108.8220508999948,108.8068701000011,,,,,,,,,,,,,,,,108.8105085999996,108.8220508999948,108.8220508999948,109.17337189999672,b,1.0,0.3430953999995836,,109.17386219999752,109.1882517999984,110.1724789,110.18758739999612,,,,,,,,,,,,,,,,,,sub-008,1.0,stroop_test,60.069332022978365,
,,,,17.0,5.0,1.0,,,,,gelb,yellow,g,1.0,g,1.0,0.2989091999988886,,,,,,,,,,,,,,1.0,5.0,17.0,10.0,,,,,110.18758739999612,,,,,,,,,,,,,,,,,110.17290050000156,110.9870393999954,111.78650529999868,111.77092109999649,,,,,,,,,,,,,,,,111.7735388000001,111.78650529999868,111.78650529999868,112.0879316999999,g,1.0,0.2989091999988886,,112.08843820000038,112.10316439999588,113.08766379999724,113.10268939999514,,,,,,,,,,,,,,,,,,sub-008,1.0,stroop_test,60.069332022978365,
,,,,18.0,6.0,1.0,,,,,gelb,yellow,g,1.0,b,0.0,0.3892392999987351,,,,,,,,,,,,,,1.0,6.0,18.0,11.0,,,,,113.10268939999514,,,,,,,,,,,,,,,,,113.08813509999892,114.30207900000096,115.1015727999984,115.0857823999977,,,,,,,,,,,,,,,,115.08634929999972,115.1015727999984,115.1015727999984,115.50423749999754,b,0.0,0.3892392999987351,,115.50996149999992,115.51787689999765,116.50186649999524,116.51700770000024,,,,,,,,,,,,,,,,,,sub-008,1.0,stroop_test,60.069332022978365,
,,,,19.0,7.0,1.0,,,,,rot,red,r,1.0,r,1.0,0.5857255999944755,,,,,,,,,,,,,,1.0,7.0,19.0,1.0,,,,,116.51700770000024,,,,,,,,,,,,,,,,,116.50221469999816,116.61720090000016,117.41646709999624,117.40197919999628,,,,,,,,,,,,,,,,117.4075171000004,117.41646709999624,117.41646709999624,118.0179349999962,r,1.0,0.5857255999944755,,118.02117859999998,118.0326825000011,119.0175678999949,119.03214689999731,,,,,,,,,,,,,,,,,,sub-008,1.0,stroop_test,60.069332022978365,
,,,,20.0,8.0,1.0,,,,,blau,red,r,0.0,r,1.0,2.094963499999721,,,,,,,,,,,,,,1.0,8.0,20.0,4.0,,,,,119.03214689999731,,,,,,,,,,,,,,,,,119.0179730000018,119.13205690000176,119.93147299999691,119.9159451999949,,,,,,,,,,,,,,,,119.92058910000196,119.93147299999691,119.93147299999691,122.03161089999776,r,1.0,2.094963499999721,,122.0321139000007,122.0468125999978,123.03063799999654,123.04640529999595,,,,,,,,,,,,,,,,,,sub-008,1.0,stroop_test,60.069332022978365,
,,,,21.0,9.0,1.0,,,,,gelb,blue,b,0.0,b,1.0,1.8611892000044463,,,,,,,,,,,,,,1.0,9.0,21.0,9.0,,,,,123.04640529999595,,,,,,,,,,,,,,,,,123.03100059999996,123.84587169999575,124.64539149999472,124.6300936999978,,,,,,,,,,,,,,,,124.63406739999482,124.64539149999472,124.64539149999472,126.51342889999796,b,1.0,1.8611892000044463,,126.51406119999592,126.52717439999832,127.51105639999878,127.52677129999938,,,,,,,,,,,,,,,,,,sub-008,1.0,stroop_test,60.069332022978365,
,,,,22.0,10.0,1.0,,,,,blau,blue,b,1.0,b,1.0,0.9127152000000932,,,,,,,,,,,,,,1.0,10.0,22.0,5.0,,,,,127.52677129999938,,,,,,,,,,,,,,,,,127.5113657999973,127.626657599998,128.42634220000036,128.41104719999566,,,,,,,,,,,,,,,,128.41449499999726,128.42634220000036,128.42634220000036,129.34519039999577,b,1.0,0.9127152000000932,,129.34624500000064,129.35913069999515,130.34356010000192,130.3584858999966,,,,,,,,,,,,,,,,,,sub-008,1.0,stroop_test,60.069332022978365,
,,,,23.0,11.0,1.0,,,,,blau,yellow,g,0.0,g,1.0,1.021998199998052,,,,,,,,,,,,,,1.0,11.0,23.0,7.0,,,,,130.3584858999966,,,,,,,,,,,,,,,,,130.34457269999984,130.4584939999986,131.25772219999635,131.24222739999823,,,,,,,,,,,,,,,,131.24278899999626,131.25772219999635,131.25772219999635,132.29194769999594,g,1.0,1.021998199998052,,132.29245989999615,132.3073293999987,133.2916760000007,133.3067716000005,,,,,,,,,,,,,,,,,,sub-008,1.0,stroop_test,60.069332022978365,
,,,,,,,,,,,,,,,,,,,,,,,,,,,,,,,,,,,,,,,,,,,,,,,,,,,,,,,,,,,,,,,,,,,,,,,,,,,,,,,,,,,,,,,133.29198259999976,133.3067716000005,133.3067716000005,136.57265129999723,space,3.2506761999975424,,,,,,,,,,,,sub-008,1.0,stroop_test,60.069332022978365,
,,,,0.0,0.0,0.0,,,,,,,,,,,,,gelb,yellow,g,1.0,g,1.0,1.401022499994724,,,,,,,,,,0.0,0.0,0.0,11.0,136.5874016999951,,,,,,,,,,,,,,,,,136.58339780000097,136.93751299999713,137.73720039999898,137.72214320000057,,,,,,,,,,,,,,,,,,,,,,,,,,,,,,,,,,,137.727830799995,137.73720039999898,137.73720039999898,139.15515869999945,g,1.0,1.401022499994724,,,,sub-008,1.0,stroop_test,60.069332022978365,
,,,,1.0,1.0,0.0,,,,,,,,,,,,,rot,yellow,g,0.0,g,1.0,0.6432176000016625,,,,,,,,,,0.0,1.0,1.0,3.0,139.16918019999866,,,,,,,,,,,,,,,,,139.15589850000106,140.36881079999876,141.16802029999965,141.15288719999808,,,,,,,,,,,,,,,,,,,,,,,,,,,,,,,,,,,141.15622240000084,141.16802029999965,141.16802029999965,141.8194635999971,g,1.0,0.6432176000016625,,,,sub-008,1.0,stroop_test,60.069332022978365,
,,,,2.0,2.0,0.0,,,,,,,,,,,,,rot,blue,b,0.0,b,1.0,0.768383199996606,,,,,,,,,,0.0,2.0,2.0,2.0,141.8342244000014,,,,,,,,,,,,,,,,,141.8198235999953,142.63385949999793,143.43332939999527,143.41853170000104,,,,,,,,,,,,,,,,,,,,,,,,,,,,,,,,,,,143.41959530000167,143.43332939999527,143.43332939999527,144.2188679999963,b,1.0,0.768383199996606,,,,sub-008,1.0,stroop_test,60.069332022978365,
,,,,3.0,3.0,0.0,,,,,,,,,,,,,gelb,yellow,g,1.0,g,1.0,1.6987308999960078,,,,,,,,,,0.0,3.0,3.0,10.0,144.2330065999995,,,,,,,,,,,,,,,,,144.21965449999698,145.43228039999667,146.23168489999807,146.2163786999954,,,,,,,,,,,,,,,,,,,,,,,,,,,,,,,,,,,146.22149399999762,146.23168489999807,146.23168489999807,147.9322594999976,g,1.0,1.6987308999960078,,,,sub-008,1.0,stroop_test,60.069332022978365,
,,,,4.0,4.0,0.0,,,,,,,,,,,,,blau,blue,b,1.0,b,1.0,0.4605210999943665,,,,,,,,,,0.0,4.0,4.0,6.0,147.9469667999947,,,,,,,,,,,,,,,,,147.93253459999687,148.74673919999623,149.54621880000195,149.53088249999564,,,,,,,,,,,,,,,,,,,,,,,,,,,,,,,,,,,149.5347733000017,149.54621880000195,149.54621880000195,150.0155373000016,b,1.0,0.4605210999943665,,,,sub-008,1.0,stroop_test,60.069332022978365,
,,,,5.0,5.0,0.0,,,,,,,,,,,,,blau,red,r,0.0,r,1.0,0.2907361000034143,,,,,,,,,,0.0,5.0,5.0,4.0,150.0292935999969,,,,,,,,,,,,,,,,,150.01610249999794,150.82857559999684,151.62815359999513,151.6127256999971,,,,,,,,,,,,,,,,,,,,,,,,,,,,,,,,,,,151.61325249999936,151.62815359999513,151.62815359999513,151.92895619999763,r,1.0,0.2907361000034143,,,,sub-008,1.0,stroop_test,60.069332022978365,
,,,,6.0,6.0,0.0,,,,,,,,,,,,,blau,blue,b,1.0,b,1.0,0.6744164999981876,,,,,,,,,,0.0,6.0,6.0,5.0,151.94464709999738,,,,,,,,,,,,,,,,,151.92923280000105,152.2942886000019,153.09392579999985,153.07891859999654,,,,,,,,,,,,,,,,,,,,,,,,,,,,,,,,,,,153.07948359999864,153.09392579999985,153.09392579999985,153.7788040000014,b,1.0,0.6744164999981876,,,,sub-008,1.0,stroop_test,60.069332022978365,
,,,,7.0,7.0,0.0,,,,,,,,,,,,,rot,red,r,1.0,r,1.0,0.5259746000010637,,,,,,,,,,0.0,7.0,7.0,0.0,153.79347499999858,,,,,,,,,,,,,,,,,153.77915709999797,153.89329929999803,154.6928981000019,154.67810779999854,,,,,,,,,,,,,,,,,,,,,,,,,,,,,,,,,,,154.6814258000013,154.6928981000019,154.6928981000019,155.2287490000017,r,1.0,0.5259746000010637,,,,sub-008,1.0,stroop_test,60.069332022978365,
,,,,8.0,8.0,0.0,,,,,,,,,,,,,rot,red,r,1.0,r,1.0,0.4617276999997557,,,,,,,,,,0.0,8.0,8.0,1.0,155.2425985000009,,,,,,,,,,,,,,,,,155.22933270000067,155.59209969999938,156.39178320000065,156.3768035999965,,,,,,,,,,,,,,,,,,,,,,,,,,,,,,,,,,,156.37738649999665,156.39178320000065,156.39178320000065,156.85935079999763,r,1.0,0.4617276999997557,,,,sub-008,1.0,stroop_test,60.069332022978365,
,,,,9.0,9.0,0.0,,,,,,,,,,,,,blau,yellow,g,0.0,g,1.0,0.6773687000022619,,,,,,,,,,0.0,9.0,9.0,7.0,156.87460439999995,,,,,,,,,,,,,,,,,156.85964799999783,157.6743972999975,158.4736591999972,158.45809379999992,,,,,,,,,,,,,,,,,,,,,,,,,,,,,,,,,,,158.46085389999644,158.4736591999972,158.4736591999972,159.15862639999978,g,1.0,0.6773687000022619,,,,sub-008,1.0,stroop_test,60.069332022978365,
,,,,10.0,10.0,0.0,,,,,,,,,,,,,gelb,blue,b,0.0,b,1.0,0.6568836999940686,,,,,,,,,,0.0,10.0,10.0,9.0,159.17333409999992,,,,,,,,,,,,,,,,,159.15900909999618,159.2735670999973,160.07285129999946,160.0581252999982,,,,,,,,,,,,,,,,,,,,,,,,,,,,,,,,,,,160.0614390999981,160.07285129999946,160.07285129999946,160.74051699999836,b,1.0,0.6568836999940686,,,,sub-008,1.0,stroop_test,60.069332022978365,
,,,,11.0,11.0,0.0,,,,,,,,,,,,,gelb,red,r,0.0,r,1.0,0.5677070000019739,,,,,,,,,,0.0,11.0,11.0,8.0,160.75542470000073,,,,,,,,,,,,,,,,,160.74085969999578,161.95488599999953,162.7545628000007,162.73960459999944,,,,,,,,,,,,,,,,,,,,,,,,,,,,,,,,,,,162.74048590000166,162.7545628000007,162.7545628000007,163.32494439999573,r,1.0,0.5677070000019739,,,,sub-008,1.0,stroop_test,60.069332022978365,
,,,,12.0,0.0,1.0,,,,,,,,,,,,,blau,blue,b,1.0,b,1.0,0.5557086999979219,,,,,,,,,,1.0,0.0,12.0,6.0,163.3374702000001,,,,,,,,,,,,,,,,,163.32551109999622,164.13702380000177,164.93642399999953,164.92202109999926,,,,,,,,,,,,,,,,,,,,,,,,,,,,,,,,,,,164.92607169999974,164.93642399999953,164.93642399999953,165.50393149999582,b,1.0,0.5557086999979219,,,,sub-008,1.0,stroop_test,60.069332022978365,
,,,,13.0,1.0,1.0,,,,,,,,,,,,,rot,yellow,g,0.0,g,1.0,0.3387105000001611,,,,,,,,,,1.0,1.0,13.0,3.0,165.519303699999,,,,,,,,,,,,,,,,,165.50423500000034,166.71854419999727,167.51809539999522,167.50301749999926,,,,,,,,,,,,,,,,,,,,,,,,,,,,,,,,,,,167.50826519999828,167.51809539999522,167.51809539999522,167.86992479999753,g,1.0,0.3387105000001611,,,,sub-008,1.0,stroop_test,60.069332022978365,
,,,,14.0,2.0,1.0,,,,,,,,,,,,,blau,blue,b,1.0,b,1.0,0.465141799999401,,,,,,,,,,1.0,2.0,14.0,5.0,167.8842519999962,,,,,,,,,,,,,,,,,167.8702964999975,168.68395790000068,169.48364919999585,169.46818479999638,,,,,,,,,,,,,,,,,,,,,,,,,,,,,,,,,,,169.47226019999653,169.48364919999585,169.48364919999585,169.95339879999665,b,1.0,0.465141799999401,,,,sub-008,1.0,stroop_test,60.069332022978365,
,,,,15.0,3.0,1.0,,,,,,,,,,,,,gelb,blue,b,0.0,b,1.0,0.5571531000023242,,,,,,,,,,1.0,3.0,15.0,9.0,169.96674869999697,,,,,,,,,,,,,,,,,169.95444729999872,170.316330499998,171.11605540000164,171.10043880000012,,,,,,,,,,,,,,,,,,,,,,,,,,,,,,,,,,,171.1057684999978,171.11605540000164,171.11605540000164,171.68361799999548,b,1.0,0.5571531000023242,,,,sub-008,1.0,stroop_test,60.069332022978365,
,,,,16.0,4.0,1.0,,,,,,,,,,,,,blau,red,r,0.0,r,1.0,0.5881972999995924,,,,,,,,,,1.0,4.0,16.0,4.0,171.69864759999473,,,,,,,,,,,,,,,,,171.68396460000076,171.7984002000012,172.59800739999628,172.58289009999862,,,,,,,,,,,,,,,,,,,,,,,,,,,,,,,,,,,172.5864384000015,172.59800739999628,172.59800739999628,173.19901889999892,r,1.0,0.5881972999995924,,,,sub-008,1.0,stroop_test,60.069332022978365,
,,,,17.0,5.0,1.0,,,,,,,,,,,,,gelb,red,r,0.0,r,1.0,0.5601793000023463,,,,,,,,,,1.0,5.0,17.0,8.0,173.21431559999473,,,,,,,,,,,,,,,,,173.19931830000132,173.31417059999512,174.11385579999478,174.0978965999966,,,,,,,,,,,,,,,,,,,,,,,,,,,,,,,,,,,174.100423099997,174.11385579999478,174.11385579999478,174.6820230999947,r,1.0,0.5601793000023463,,,,sub-008,1.0,stroop_test,60.069332022978365,
,,,,18.0,6.0,1.0,,,,,,,,,,,,,rot,red,r,1.0,r,1.0,0.4297520999971311,,,,,,,,,,1.0,6.0,18.0,0.0,174.69668109999475,,,,,,,,,,,,,,,,,174.68242299999838,175.0464509999947,175.8457930000004,175.83135819999734,,,,,,,,,,,,,,,,,,,,,,,,,,,,,,,,,,,175.83663759999763,175.8457930000004,175.8457930000004,176.2815816000002,r,1.0,0.4297520999971311,,,,sub-008,1.0,stroop_test,60.069332022978365,
,,,,19.0,7.0,1.0,,,,,,,,,,,,,blau,yellow,g,0.0,b,0.0,0.4327206000016304,,,,,,,,,,1.0,7.0,19.0,7.0,176.2956320999947,,,,,,,,,,,,,,,,,176.28184229999897,177.09535529999994,177.89449969999987,177.87888150000072,,,,,,,,,,,,,,,,,,,,,,,,,,,,,,,,,,,177.88164539999707,177.89449969999987,177.89449969999987,178.33101789999637,b,0.0,0.4327206000016304,,,,sub-008,1.0,stroop_test,60.069332022978365,
,,,,20.0,8.0,1.0,,,,,,,,,,,,,rot,red,r,1.0,r,1.0,0.4393609999970067,,,,,,,,,,1.0,8.0,20.0,1.0,178.34427779999533,,,,,,,,,,,,,,,,,178.3313468999986,179.14442289999715,179.96016729999974,179.94427609999548,,,,,,,,,,,,,,,,,,,,,,,,,,,,,,,,,,,179.94860469999549,179.96016729999974,179.96016729999974,180.412808699999,r,1.0,0.4393609999970067,,,,sub-008,1.0,stroop_test,60.069332022978365,
,,,,21.0,9.0,1.0,,,,,,,,,,,,,gelb,yellow,g,1.0,g,1.0,1.059764999998151,,,,,,,,,,1.0,9.0,21.0,11.0,180.42647049999505,,,,,,,,,,,,,,,,,180.4136512999976,180.5263880999992,181.32599639999532,181.3111112999977,,,,,,,,,,,,,,,,,,,,,,,,,,,,,,,,,,,181.31632979999995,181.32599639999532,181.32599639999532,182.3939619000012,g,1.0,1.059764999998151,,,,sub-008,1.0,stroop_test,60.069332022978365,
,,,,22.0,10.0,1.0,,,,,,,,,,,,,rot,blue,b,0.0,b,1.0,0.894121899997117,,,,,,,,,,1.0,10.0,22.0,2.0,182.4085347,,,,,,,,,,,,,,,,,182.39441819999772,183.60809419999717,184.40750839999964,184.39288790000137,,,,,,,,,,,,,,,,,,,,,,,,,,,,,,,,,,,184.3960598999984,184.40750839999964,184.40750839999964,185.30902989999595,b,1.0,0.894121899997117,,,,sub-008,1.0,stroop_test,60.069332022978365,
,,,,23.0,11.0,1.0,,,,,,,,,,,,,gelb,yellow,g,1.0,g,1.0,0.8748039999991306,,,,,,,,,,1.0,11.0,23.0,10.0,185.32348189999905,,,,,,,,,,,,,,,,,185.30939539999963,185.42379860000077,186.23934839999856,186.223925899998,,,,,,,,,,,,,,,,,,,,,,,,,,,,,,,,,,,186.22677329999715,186.23934839999856,186.23934839999856,187.12377959999867,g,1.0,0.8748039999991306,,,,sub-008,1.0,stroop_test,60.069332022978365,
,,,,24.0,0.0,2.0,,,,,,,,,,,,,blau,red,r,0.0,r,1.0,0.3891419999999925,,,,,,,,,,2.0,0.0,24.0,4.0,187.13873809999492,,,,,,,,,,,,,,,,,187.1241636999985,187.4889167000001,188.2880589999986,188.27314630000183,,,,,,,,,,,,,,,,,,,,,,,,,,,,,,,,,,,188.2784612999967,188.2880589999986,188.2880589999986,188.6892934999996,r,1.0,0.3891419999999925,,,,sub-008,1.0,stroop_test,60.069332022978365,
,,,,25.0,1.0,2.0,,,,,,,,,,,,,gelb,blue,b,0.0,b,1.0,0.3236533000017516,,,,,,,,,,2.0,1.0,25.0,9.0,188.7045551999981,,,,,,,,,,,,,,,,,188.6896498999995,189.50405039999896,190.30353379999724,190.2892103999984,,,,,,,,,,,,,,,,,,,,,,,,,,,,,,,,,,,190.2939469999983,190.30353379999724,190.30353379999724,190.6391176999969,b,1.0,0.3236533000017516,,,,sub-008,1.0,stroop_test,60.069332022978365,
,,,,26.0,2.0,2.0,,,,,,,,,,,,,gelb,yellow,g,1.0,g,1.0,0.5668124000003445,,,,,,,,,,2.0,2.0,26.0,11.0,190.65347789999944,,,,,,,,,,,,,,,,,190.63961749999729,190.75343379999688,191.5528578999947,191.5370563999968,,,,,,,,,,,,,,,,,,,,,,,,,,,,,,,,,,,191.53762409999763,191.5528578999947,191.5528578999947,192.12129529999947,g,1.0,0.5668124000003445,,,,sub-008,1.0,stroop_test,60.069332022978365,
,,,,27.0,3.0,2.0,,,,,,,,,,,,,gelb,red,r,0.0,r,1.0,0.5724623999994947,,,,,,,,,,2.0,3.0,27.0,8.0,192.1356350999995,,,,,,,,,,,,,,,,,192.12164140000093,192.2354387000014,193.03516839999796,193.01961599999777,,,,,,,,,,,,,,,,,,,,,,,,,,,,,,,,,,,193.02015499999837,193.03516839999796,193.03516839999796,193.62005929999577,r,1.0,0.5724623999994947,,,,sub-008,1.0,stroop_test,60.069332022978365,
,,,,28.0,4.0,2.0,,,,,,,,,,,,,blau,yellow,g,0.0,g,1.0,0.5770894000015687,,,,,,,,,,2.0,4.0,28.0,7.0,193.63454439999623,,,,,,,,,,,,,,,,,193.6203228999948,193.9849591999955,194.7840662000017,194.76916429999983,,,,,,,,,,,,,,,,,,,,,,,,,,,,,,,,,,,194.77617869999813,194.7840662000017,194.7840662000017,195.36913519999507,g,1.0,0.5770894000015687,,,,sub-008,1.0,stroop_test,60.069332022978365,
,,,,29.0,5.0,2.0,,,,,,,,,,,,,rot,red,r,1.0,r,1.0,0.4416725999981281,,,,,,,,,,2.0,5.0,29.0,1.0,195.38334799999572,,,,,,,,,,,,,,,,,195.36973769999892,196.18316760000016,196.9825659999988,196.96674989999883,,,,,,,,,,,,,,,,,,,,,,,,,,,,,,,,,,,196.96874799999927,196.9825659999988,196.9825659999988,197.43483399999968,r,1.0,0.4416725999981281,,,,sub-008,1.0,stroop_test,60.069332022978365,
,,,,30.0,6.0,2.0,,,,,,,,,,,,,gelb,yellow,g,1.0,g,1.0,0.4410482999956002,,,,,,,,,,2.0,6.0,30.0,10.0,197.4494172999985,,,,,,,,,,,,,,,,,197.43539999999484,198.24821079999677,199.04801239999503,199.0326019999993,,,,,,,,,,,,,,,,,,,,,,,,,,,,,,,,,,,199.03755380000075,199.04801239999503,199.04801239999503,199.50023109999893,g,1.0,0.4410482999956002,,,,sub-008,1.0,stroop_test,60.069332022978365,
,,,,31.0,7.0,2.0,,,,,,,,,,,,,rot,blue,b,0.0,b,1.0,1.5945117000010214,,,,,,,,,,2.0,7.0,31.0,2.0,199.51450820000173,,,,,,,,,,,,,,,,,199.500641599996,199.8644417999967,200.66369069999928,200.6478721999956,,,,,,,,,,,,,,,,,,,,,,,,,,,,,,,,,,,200.65008210000087,200.66369069999928,200.66369069999928,202.2640367999993,b,1.0,1.5945117000010214,,,,sub-008,1.0,stroop_test,60.069332022978365,
,,,,32.0,8.0,2.0,,,,,,,,,,,,,rot,yellow,g,0.0,g,1.0,1.9226124999986496,,,,,,,,,,2.0,8.0,32.0,3.0,202.28150469999676,,,,,,,,,,,,,,,,,202.26433710000128,202.62916579999728,203.4286662999948,203.41438789999663,,,,,,,,,,,,,,,,,,,,,,,,,,,,,,,,,,,203.41532480000023,203.4286662999948,203.4286662999948,205.362598599997,g,1.0,1.9226124999986496,,,,sub-008,1.0,stroop_test,60.069332022978365,
,,,,33.0,9.0,2.0,,,,,,,,,,,,,rot,red,r,1.0,r,1.0,0.5956681000025128,,,,,,,,,,2.0,9.0,33.0,0.0,205.3770881999953,,,,,,,,,,,,,,,,,205.36288490000152,205.72721810000075,206.5268068000005,206.51096600000164,,,,,,,,,,,,,,,,,,,,,,,,,,,,,,,,,,,206.511550999996,206.5268068000005,206.5268068000005,207.1280270999996,r,1.0,0.5956681000025128,,,,sub-008,1.0,stroop_test,60.069332022978365,
,,,,34.0,10.0,2.0,,,,,,,,,,,,,blau,blue,b,1.0,b,1.0,0.9231128000028548,,,,,,,,,,2.0,10.0,34.0,6.0,207.14311989999987,,,,,,,,,,,,,,,,,207.12840180000055,208.3427057000008,209.1584679000007,209.1436517999973,,,,,,,,,,,,,,,,,,,,,,,,,,,,,,,,,,,209.14995959999945,209.1584679000007,209.1584679000007,210.0923460999984,b,1.0,0.9231128000028548,,,,sub-008,1.0,stroop_test,60.069332022978365,
,,,,35.0,11.0,2.0,,,,,,,,,,,,,blau,blue,b,1.0,b,1.0,0.5578238999951282,,,,,,,,,,2.0,11.0,35.0,5.0,210.10758669999632,,,,,,,,,,,,,,,,,210.0926876999947,210.45745799999716,211.25728449999588,211.24176720000105,,,,,,,,,,,,,,,,,,,,,,,,,,,,,,,,,,,211.24234549999528,211.25728449999588,211.25728449999588,211.82454000000143,b,1.0,0.5578238999951282,,,,sub-008,1.0,stroop_test,60.069332022978365,
,,,,36.0,0.0,3.0,,,,,,,,,,,,,blau,blue,b,1.0,b,1.0,0.3836483000050066,,,,,,,,,,3.0,0.0,36.0,5.0,211.83978419999767,,,,,,,,,,,,,,,,,211.8248853999976,212.19010870000056,212.98925329999477,212.97487049999472,,,,,,,,,,,,,,,,,,,,,,,,,,,,,,,,,,,212.97540219999792,212.98925329999477,212.98925329999477,213.3904494999952,b,1.0,0.3836483000050066,,,,sub-008,1.0,stroop_test,60.069332022978365,
,,,,37.0,1.0,3.0,,,,,,,,,,,,,gelb,yellow,g,1.0,g,1.0,0.8437351000029594,,,,,,,,,,3.0,1.0,37.0,10.0,213.4054965999967,,,,,,,,,,,,,,,,,213.3907872999989,214.20499089999797,215.00444479999717,214.9905795999948,,,,,,,,,,,,,,,,,,,,,,,,,,,,,,,,,,,214.99543679999624,215.00444479999717,215.00444479999717,215.8584443,g,1.0,0.8437351000029594,,,,sub-008,1.0,stroop_test,60.069332022978365,
,,,,38.0,2.0,3.0,,,,,,,,,,,,,blau,blue,b,1.0,b,1.0,0.8398572000005515,,,,,,,,,,3.0,2.0,38.0,6.0,215.8704426999975,,,,,,,,,,,,,,,,,215.8591624999972,216.22028979999595,217.0197186000005,217.00501149999764,,,,,,,,,,,,,,,,,,,,,,,,,,,,,,,,,,,217.01093079999555,217.0197186000005,217.0197186000005,217.87066559999948,b,1.0,0.8398572000005515,,,,sub-008,1.0,stroop_test,60.069332022978365,
,,,,39.0,3.0,3.0,,,,,,,,,,,,,blau,yellow,g,0.0,g,1.0,1.0597225000019534,,,,,,,,,,3.0,3.0,39.0,7.0,217.8859106999953,,,,,,,,,,,,,,,,,217.87095209999825,219.08532959999863,219.88475379999727,219.86963860000105,,,,,,,,,,,,,,,,,,,,,,,,,,,,,,,,,,,219.87027839999791,219.88475379999727,219.88475379999727,220.95340149999535,g,1.0,1.0597225000019534,,,,sub-008,1.0,stroop_test,60.069332022978365,
,,,,40.0,4.0,3.0,,,,,,,,,,,,,gelb,blue,b,0.0,b,1.0,0.8990100999944843,,,,,,,,,,3.0,4.0,40.0,9.0,220.96724439999525,,,,,,,,,,,,,,,,,220.9537844000006,221.7671430999981,222.5662861000019,222.55188009999983,,,,,,,,,,,,,,,,,,,,,,,,,,,,,,,,,,,222.5575011999972,222.5662861000019,222.5662861000019,223.4690902000002,b,1.0,0.8990100999944843,,,,sub-008,1.0,stroop_test,60.069332022978365,
,,,,41.0,5.0,3.0,,,,,,,,,,,,,rot,blue,b,0.0,b,1.0,0.7621873999960371,,,,,,,,,,3.0,5.0,41.0,2.0,223.482714699996,,,,,,,,,,,,,,,,,223.4694699999964,224.2820575000005,225.0816588999951,225.06642009999632,,,,,,,,,,,,,,,,,,,,,,,,,,,,,,,,,,,225.06948289999852,225.0816588999951,225.0816588999951,225.84961949999703,b,1.0,0.7621873999960371,,,,sub-008,1.0,stroop_test,60.069332022978365,
,,,,42.0,6.0,3.0,,,,,,,,,,,,,rot,red,r,1.0,r,1.0,0.5177313000021968,,,,,,,,,,3.0,6.0,42.0,1.0,225.8642708999978,,,,,,,,,,,,,,,,,225.84992970000167,226.66372489999776,227.46342829999776,227.44987160000164,,,,,,,,,,,,,,,,,,,,,,,,,,,,,,,,,,,227.45103689999812,227.46342829999776,227.46342829999776,227.99695809999685,r,1.0,0.5177313000021968,,,,sub-008,1.0,stroop_test,60.069332022978365,
,,,,43.0,7.0,3.0,,,,,,,,,,,,,gelb,red,r,0.0,r,1.0,0.7408569999970496,,,,,,,,,,3.0,7.0,43.0,8.0,228.01274700000067,,,,,,,,,,,,,,,,,227.9972147000008,228.8122596999965,229.61179889999767,229.59713460000057,,,,,,,,,,,,,,,,,,,,,,,,,,,,,,,,,,,229.60317349999968,229.61179889999767,229.61179889999767,230.36334360000183,r,1.0,0.7408569999970496,,,,sub-008,1.0,stroop_test,60.069332022978365,
,,,,44.0,8.0,3.0,,,,,,,,,,,,,gelb,yellow,g,1.0,g,1.0,0.5668321999983164,,,,,,,,,,3.0,8.0,44.0,11.0,230.37816759999987,,,,,,,,,,,,,,,,,230.3637353999948,231.177691799996,231.97719209999923,231.9623186999961,,,,,,,,,,,,,,,,,,,,,,,,,,,,,,,,,,,231.9635072000019,231.97719209999923,231.97719209999923,232.54530700000032,g,1.0,0.5668321999983164,,,,sub-008,1.0,stroop_test,60.069332022978365,
,,,,45.0,9.0,3.0,,,,,,,,,,,,,rot,red,r,1.0,r,1.0,1.4709335000006831,,,,,,,,,,3.0,9.0,45.0,0.0,232.55972169999583,,,,,,,,,,,,,,,,,232.5456424000004,232.9093928000002,233.70954340000023,233.69453670000075,,,,,,,,,,,,,,,,,,,,,,,,,,,,,,,,,,,233.69780589999573,233.70954340000023,233.70954340000023,235.19312279999576,r,1.0,1.4709335000006831,,,,sub-008,1.0,stroop_test,60.069332022978365,
,,,,46.0,10.0,3.0,,,,,,,,,,,,,blau,red,r,0.0,r,1.0,1.8736568999956944,,,,,,,,,,3.0,10.0,46.0,4.0,235.20841809999547,,,,,,,,,,,,,,,,,235.19345030000116,236.0078601999994,236.8073050999956,236.792289099998,,,,,,,,,,,,,,,,,,,,,,,,,,,,,,,,,,,236.79743369999775,236.8073050999956,236.8073050999956,238.6914619000017,r,1.0,1.8736568999956944,,,,sub-008,1.0,stroop_test,60.069332022978365,
,,,,47.0,11.0,3.0,,,,,,,,,,,,,rot,yellow,g,0.0,g,1.0,0.8841685000006692,,,,,,,,,,3.0,11.0,47.0,3.0,238.7060538000005,,,,,,,,,,,,,,,,,238.69179350000195,239.05588339999667,239.85545999999889,239.8405913999959,,,,,,,,,,,,,,,,,,,,,,,,,,,,,,,,,,,239.8450564000013,239.85545999999889,239.85545999999889,240.75600760000088,g,1.0,0.8841685000006692,,,,sub-008,1.0,stroop_test,60.069332022978365,
,,,,48.0,0.0,4.0,,,,,,,,,,,,,rot,red,r,1.0,r,1.0,0.4313653999997768,,,,,,,,,,4.0,0.0,48.0,1.0,240.7714904999957,,,,,,,,,,,,,,,,,240.7562914000009,241.97114199999487,242.77028530000095,242.7547415000008,,,,,,,,,,,,,,,,,,,,,,,,,,,,,,,,,,,242.7552815999952,242.77028530000095,242.77028530000095,243.20521559999904,r,1.0,0.4313653999997768,,,,sub-008,1.0,stroop_test,60.069332022978365,
,,,,49.0,1.0,4.0,,,,,,,,,,,,,gelb,yellow,g,1.0,g,1.0,2.670373500004644,,,,,,,,,,4.0,1.0,49.0,11.0,243.21996819999916,,,,,,,,,,,,,,,,,243.20557589999956,243.31999229999929,244.1193862,244.1041152999969,,,,,,,,,,,,,,,,,,,,,,,,,,,,,,,,,,,244.10957239999695,244.1193862,244.1193862,246.8023033999998,g,1.0,2.670373500004644,,,,sub-008,1.0,stroop_test,60.069332022978365,
,,,,50.0,2.0,4.0,,,,,,,,,,,,,blau,red,r,0.0,r,1.0,0.952074900000298,,,,,,,,,,4.0,2.0,50.0,4.0,246.81743299999653,,,,,,,,,,,,,,,,,246.80260360000105,247.16731089999664,247.96671290000089,247.95101050000085,,,,,,,,,,,,,,,,,,,,,,,,,,,,,,,,,,,247.95370520000145,247.96671290000089,247.96671290000089,248.9367746999997,r,1.0,0.952074900000298,,,,sub-008,1.0,stroop_test,60.069332022978365,
,,,,51.0,3.0,4.0,,,,,,,,,,,,,blau,blue,b,1.0,b,1.0,1.0314063999976495,,,,,,,,,,4.0,3.0,51.0,5.0,248.9497711000004,,,,,,,,,,,,,,,,,248.93738969999688,249.2995557999966,250.09884189999863,250.08383099999628,,,,,,,,,,,,,,,,,,,,,,,,,,,,,,,,,,,250.0844711999962,250.09884189999863,250.09884189999863,251.133636999999,b,1.0,1.0314063999976495,,,,sub-008,1.0,stroop_test,60.069332022978365,
,,,,52.0,4.0,4.0,,,,,,,,,,,,,blau,yellow,g,0.0,g,1.0,0.5800864999982878,,,,,,,,,,4.0,4.0,52.0,7.0,251.1482784999971,,,,,,,,,,,,,,,,,251.1339993000001,251.2478581999967,252.04759029999693,252.0320558999956,,,,,,,,,,,,,,,,,,,,,,,,,,,,,,,,,,,252.0326134999996,252.04759029999693,252.04759029999693,252.6337324999986,g,1.0,0.5800864999982878,,,,sub-008,1.0,stroop_test,60.069332022978365,
,,,,53.0,5.0,4.0,,,,,,,,,,,,,gelb,red,r,0.0,r,1.0,0.4063172999958624,,,,,,,,,,4.0,5.0,53.0,8.0,252.64740480000185,,,,,,,,,,,,,,,,,252.634349699998,252.99700089999533,253.79631549999613,253.78181960000077,,,,,,,,,,,,,,,,,,,,,,,,,,,,,,,,,,,253.78737259999616,253.79631549999613,253.79631549999613,254.21467770000163,r,1.0,0.4063172999958624,,,,sub-008,1.0,stroop_test,60.069332022978365,
,,,,54.0,6.0,4.0,,,,,,,,,,,,,rot,yellow,g,0.0,g,1.0,2.142520699999295,,,,,,,,,,4.0,6.0,54.0,3.0,254.229551299999,,,,,,,,,,,,,,,,,254.21507330000168,254.57967139999528,255.3788851999998,255.36358810000087,,,,,,,,,,,,,,,,,,,,,,,,,,,,,,,,,,,255.3672739999965,255.3788851999998,255.3788851999998,257.5311839999995,g,1.0,2.142520699999295,,,,sub-008,1.0,stroop_test,60.069332022978365,
,,,,55.0,7.0,4.0,,,,,,,,,,,,,gelb,blue,b,0.0,b,1.0,0.4156837000045925,,,,,,,,,,4.0,7.0,55.0,9.0,257.54410449999705,,,,,,,,,,,,,,,,,257.5317836999966,257.8939046000014,258.6933127000011,258.67774259999715,,,,,,,,,,,,,,,,,,,,,,,,,,,,,,,,,,,258.68055150000146,258.6933127000011,258.6933127000011,259.11317789999885,b,1.0,0.4156837000045925,,,,sub-008,1.0,stroop_test,60.069332022978365,
,,,,56.0,8.0,4.0,,,,,,,,,,,,,gelb,yellow,g,1.0,g,1.0,0.7332059999971534,,,,,,,,,,4.0,8.0,56.0,10.0,259.1266392999969,,,,,,,,,,,,,,,,,259.11385719999817,259.4763888999951,260.2761993999957,260.26208139999653,,,,,,,,,,,,,,,,,,,,,,,,,,,,,,,,,,,260.2630527000001,260.2761993999957,260.2761993999957,261.0114087999973,g,1.0,0.7332059999971534,,,,sub-008,1.0,stroop_test,60.069332022978365,
,,,,57.0,9.0,4.0,,,,,,,,,,,,,rot,red,r,1.0,r,1.0,0.5450175000005402,,,,,,,,,,4.0,9.0,57.0,0.0,261.02556589999585,,,,,,,,,,,,,,,,,261.0118159999984,261.3752171999949,262.1746800999972,262.15955640000175,,,,,,,,,,,,,,,,,,,,,,,,,,,,,,,,,,,262.16572189999715,262.1746800999972,262.1746800999972,262.725603699997,r,1.0,0.5450175000005402,,,,sub-008,1.0,stroop_test,60.069332022978365,
,,,,58.0,10.0,4.0,,,,,,,,,,,,,rot,blue,b,0.0,b,1.0,0.7014022000003024,,,,,,,,,,4.0,10.0,58.0,2.0,262.74064659999567,,,,,,,,,,,,,,,,,262.7258918000007,262.8406910999984,263.6404202999984,263.6250158999974,,,,,,,,,,,,,,,,,,,,,,,,,,,,,,,,,,,263.6256285999989,263.6404202999984,263.6404202999984,264.35830319999513,b,1.0,0.7014022000003024,,,,sub-008,1.0,stroop_test,60.069332022978365,
,,,,59.0,11.0,4.0,,,,,,,,,,,,,blau,blue,b,1.0,b,1.0,0.5893729000017629,,,,,,,,,,4.0,11.0,59.0,6.0,264.3734345999983,,,,,,,,,,,,,,,,,264.3586447999988,264.72295279999526,265.52225570000155,265.5084362999987,,,,,,,,,,,,,,,,,,,,,,,,,,,,,,,,,,,265.51182410000183,265.52225570000155,265.52225570000155,266.1239732999966,b,1.0,0.5893729000017629,,,,sub-008,1.0,stroop_test,60.069332022978365,
,,,,60.0,0.0,5.0,,,,,,,,,,,,,blau,blue,b,1.0,b,1.0,0.426538799998525,,,,,,,,,,5.0,0.0,60.0,5.0,266.1387220999968,,,,,,,,,,,,,,,,,266.1243264000004,266.2385041999951,267.0381339999949,267.02398489999905,,,,,,,,,,,,,,,,,,,,,,,,,,,,,,,,,,,267.02556170000025,267.0381339999949,267.0381339999949,267.4729695999995,b,1.0,0.426538799998525,,,,sub-008,1.0,stroop_test,60.069332022978365,
,,,,61.0,1.0,5.0,,,,,,,,,,,,,gelb,yellow,g,1.0,g,1.0,0.6818449999991572,,,,,,,,,,5.0,1.0,61.0,10.0,267.48755099999835,,,,,,,,,,,,,,,,,267.4733353999982,267.8375820000001,268.6370009999955,268.62276310000016,,,,,,,,,,,,,,,,,,,,,,,,,,,,,,,,,,,268.6268301000018,268.6370009999955,268.6370009999955,269.32204679999995,g,1.0,0.6818449999991572,,,,sub-008,1.0,stroop_test,60.069332022978365,
,,,,62.0,2.0,5.0,,,,,,,,,,,,,rot,red,r,1.0,r,1.0,0.4394044000000576,,,,,,,,,,5.0,2.0,62.0,0.0,269.33668419999594,,,,,,,,,,,,,,,,,269.3224537999995,269.436558399997,270.236058399998,270.22114509999665,,,,,,,,,,,,,,,,,,,,,,,,,,,,,,,,,,,270.22391179999977,270.236058399998,270.236058399998,270.687593900002,r,1.0,0.4394044000000576,,,,sub-008,1.0,stroop_test,60.069332022978365,
,,,,63.0,3.0,5.0,,,,,,,,,,,,,blau,blue,b,1.0,b,1.0,0.5296411000017542,,,,,,,,,,5.0,3.0,63.0,6.0,270.70254069999646,,,,,,,,,,,,,,,,,270.6880007,271.9019377000004,272.7011480000001,272.68587169999955,,,,,,,,,,,,,,,,,,,,,,,,,,,,,,,,,,,272.6904491999958,272.7011480000001,272.7011480000001,273.2381712999995,b,1.0,0.5296411000017542,,,,sub-008,1.0,stroop_test,60.069332022978365,
,,,,64.0,4.0,5.0,,,,,,,,,,,,,rot,red,r,1.0,r,1.0,0.4868053999962285,,,,,,,,,,5.0,4.0,64.0,1.0,273.25088629999664,,,,,,,,,,,,,,,,,273.2388185000018,273.600523299996,274.4002978999997,274.3848184999952,,,,,,,,,,,,,,,,,,,,,,,,,,,,,,,,,,,274.38982089999627,274.4002978999997,274.4002978999997,274.90237089999573,r,1.0,0.4868053999962285,,,,sub-008,1.0,stroop_test,60.069332022978365,
,,,,65.0,5.0,5.0,,,,,,,,,,,,,gelb,red,r,0.0,r,1.0,0.6221717999942484,,,,,,,,,,5.0,5.0,65.0,8.0,274.9169333999962,,,,,,,,,,,,,,,,,274.9028615999996,275.26616880000074,276.06576340000174,276.0508340000015,,,,,,,,,,,,,,,,,,,,,,,,,,,,,,,,,,,276.05654969999887,276.06576340000174,276.06576340000174,276.7008117000005,r,1.0,0.6221717999942484,,,,sub-008,1.0,stroop_test,60.069332022978365,
,,,,66.0,6.0,5.0,,,,,,,,,,,,,blau,yellow,g,0.0,g,1.0,0.8904954000026919,,,,,,,,,,5.0,6.0,66.0,7.0,276.71552629999496,,,,,,,,,,,,,,,,,276.7011854000011,276.8157274999976,277.63131050000084,277.6159900999992,,,,,,,,,,,,,,,,,,,,,,,,,,,,,,,,,,,277.61895820000063,277.63131050000084,277.63131050000084,278.53206189999764,g,1.0,0.8904954000026919,,,,sub-008,1.0,stroop_test,60.069332022978365,
,,,,67.0,7.0,5.0,,,,,,,,,,,,,blau,red,r,0.0,r,1.0,0.5072767000019667,,,,,,,,,,5.0,7.0,67.0,4.0,278.5475140999988,,,,,,,,,,,,,,,,,278.53238129999954,278.6476237999959,279.4475741999995,279.4321719,,,,,,,,,,,,,,,,,,,,,,,,,,,,,,,,,,,279.4333533999961,279.4475741999995,279.4475741999995,279.9658705999973,r,1.0,0.5072767000019667,,,,sub-008,1.0,stroop_test,60.069332022978365,
,,,,68.0,8.0,5.0,,,,,,,,,,,,,gelb,blue,b,0.0,b,1.0,0.6205211999986204,,,,,,,,,,5.0,8.0,68.0,9.0,279.9801462999967,,,,,,,,,,,,,,,,,279.9664961000017,280.3297497999956,281.1292136999982,281.11420689999795,,,,,,,,,,,,,,,,,,,,,,,,,,,,,,,,,,,281.1201452999958,281.1292136999982,281.1292136999982,281.76345559999754,b,1.0,0.6205211999986204,,,,sub-008,1.0,stroop_test,60.069332022978365,
,,,,69.0,9.0,5.0,,,,,,,,,,,,,gelb,yellow,g,1.0,g,1.0,0.5817139000064344,,,,,,,,,,5.0,9.0,69.0,11.0,281.77894989999913,,,,,,,,,,,,,,,,,281.7637637000007,282.128535799995,282.9279295000015,282.9135666000002,,,,,,,,,,,,,,,,,,,,,,,,,,,,,,,,,,,282.91446500000166,282.9279295000015,282.9279295000015,283.5136818999963,g,1.0,0.5817139000064344,,,,sub-008,1.0,stroop_test,60.069332022978365,
,,,,70.0,10.0,5.0,,,,,,,,,,,,,rot,yellow,g,0.0,g,1.0,0.5980338000008487,,,,,,,,,,5.0,10.0,70.0,3.0,283.527482999998,,,,,,,,,,,,,,,,,283.5141086000003,284.32729010000185,285.12677209999674,285.11090619999595,,,,,,,,,,,,,,,,,,,,,,,,,,,,,,,,,,,285.1141604000004,285.12677209999674,285.12677209999674,285.72910330000013,g,1.0,0.5980338000008487,,,,sub-008,1.0,stroop_test,60.069332022978365,
,,,,71.0,11.0,5.0,,,,,,,,,,,,,rot,blue,b,0.0,b,1.0,0.5107963000045856,,,,,,,,,,5.0,11.0,71.0,2.0,285.7428365999949,,,,,,,,,,,,,,,,,285.729585299996,286.9424418999988,287.7416422999959,287.72631569999794,,,,,,,,,,,,,,,,,,,,,,,,,,,,,,,,,,,287.7270206999965,287.7416422999959,287.7416422999959,288.2612362,b,1.0,0.5107963000045856,,,,sub-008,1.0,stroop_test,60.069332022978365,
,,,,72.0,0.0,6.0,,,,,,,,,,,,,rot,red,r,1.0,r,1.0,0.5138322999991942,,,,,,,,,,6.0,0.0,72.0,1.0,288.2746735999972,,,,,,,,,,,,,,,,,288.26176529999793,289.47382559999824,290.27338459999737,290.25754649999726,,,,,,,,,,,,,,,,,,,,,,,,,,,,,,,,,,,290.2579751999947,290.27338459999737,290.27338459999737,290.79158720000123,r,1.0,0.5138322999991942,,,,sub-008,1.0,stroop_test,60.069332022978365,
,,,,73.0,1.0,6.0,,,,,,,,,,,,,blau,blue,b,1.0,b,1.0,0.8922802000015508,,,,,,,,,,6.0,1.0,73.0,6.0,290.8063287999976,,,,,,,,,,,,,,,,,290.7919150000016,291.15609969999787,291.9558037999959,291.9407817999964,,,,,,,,,,,,,,,,,,,,,,,,,,,,,,,,,,,291.9459414000012,291.9558037999959,291.9558037999959,292.8568546999959,b,1.0,0.8922802000015508,,,,sub-008,1.0,stroop_test,60.069332022978365,
,,,,74.0,2.0,6.0,,,,,,,,,,,,,blau,yellow,g,0.0,g,1.0,0.4641128000002936,,,,,,,,,,6.0,2.0,74.0,7.0,292.87151710000035,,,,,,,,,,,,,,,,,292.8571293999994,294.070762299998,294.8703641999964,294.85646049999923,,,,,,,,,,,,,,,,,,,,,,,,,,,,,,,,,,,294.85762299999624,294.8703641999964,294.8703641999964,295.338791999995,g,1.0,0.4641128000002936,,,,sub-008,1.0,stroop_test,60.069332022978365,
,,,,75.0,3.0,6.0,,,,,,,,,,,,,gelb,yellow,g,1.0,g,1.0,0.4698299999945448,,,,,,,,,,6.0,3.0,75.0,11.0,295.3534884999972,,,,,,,,,,,,,,,,,295.3394238999972,296.55278199999884,297.3525819999996,297.33702210000047,,,,,,,,,,,,,,,,,,,,,,,,,,,,,,,,,,,297.3409319999992,297.3525819999996,297.3525819999996,297.8372655999992,g,1.0,0.4698299999945448,,,,sub-008,1.0,stroop_test,60.069332022978365,
,,,,76.0,4.0,6.0,,,,,,,,,,,,,gelb,yellow,g,1.0,g,1.0,0.5497371999954339,,,,,,,,,,6.0,4.0,76.0,10.0,297.85205049999786,,,,,,,,,,,,,,,,,297.8376165000009,299.0511618999953,299.850689699997,299.8361678000001,,,,,,,,,,,,,,,,,,,,,,,,,,,,,,,,,,,299.83672749999823,299.850689699997,299.850689699997,300.4036927999987,g,1.0,0.5497371999954339,,,,sub-008,1.0,stroop_test,60.069332022978365,
,,,,77.0,5.0,6.0,,,,,,,,,,,,,gelb,blue,b,0.0,b,1.0,0.3558491000003414,,,,,,,,,,6.0,5.0,77.0,9.0,300.4173459999947,,,,,,,,,,,,,,,,,300.4041251999952,301.21640079999634,302.01573649999773,302.0011271999974,,,,,,,,,,,,,,,,,,,,,,,,,,,,,,,,,,,302.00169599999936,302.01573649999773,302.01573649999773,302.38557059999584,b,1.0,0.3558491000003414,,,,sub-008,1.0,stroop_test,60.069332022978365,
,,,,78.0,6.0,6.0,,,,,,,,,,,,,blau,red,r,0.0,r,1.0,0.3679946999982348,,,,,,,,,,6.0,6.0,78.0,4.0,302.3994767999975,,,,,,,,,,,,,,,,,302.3863648999977,303.1985061999949,303.9981544999973,303.98304669999925,,,,,,,,,,,,,,,,,,,,,,,,,,,,,,,,,,,303.9875918999969,303.9981544999973,303.9981544999973,304.3829618000018,r,1.0,0.3679946999982348,,,,sub-008,1.0,stroop_test,60.069332022978365,
,,,,79.0,7.0,6.0,,,,,,,,,,,,,gelb,red,r,0.0,r,1.0,0.505372300001909,,,,,,,,,,6.0,7.0,79.0,8.0,304.39799259999563,,,,,,,,,,,,,,,,,304.38337569999567,304.7477290999959,305.54688709999755,305.5317798999968,,,,,,,,,,,,,,,,,,,,,,,,,,,,,,,,,,,305.53487550000136,305.54688709999755,305.54688709999755,306.0645177999977,r,1.0,0.505372300001909,,,,sub-008,1.0,stroop_test,60.069332022978365,
,,,,80.0,8.0,6.0,,,,,,,,,,,,,rot,yellow,g,0.0,g,1.0,0.4847153000009712,,,,,,,,,,6.0,8.0,80.0,3.0,306.08004939999955,,,,,,,,,,,,,,,,,306.0648437999989,306.87984940000024,307.678851699995,307.66396800000075,,,,,,,,,,,,,,,,,,,,,,,,,,,,,,,,,,,307.6672608000008,307.678851699995,307.678851699995,308.1798492999951,g,1.0,0.4847153000009712,,,,sub-008,1.0,stroop_test,60.069332022978365,
,,,,81.0,9.0,6.0,,,,,,,,,,,,,blau,blue,b,1.0,b,1.0,0.3396006999973906,,,,,,,,,,6.0,9.0,81.0,5.0,308.19533370000136,,,,,,,,,,,,,,,,,308.18012949999684,308.54519730000175,309.3447939999969,309.3301732999971,,,,,,,,,,,,,,,,,,,,,,,,,,,,,,,,,,,309.3338747000016,309.3447939999969,309.3447939999969,309.6959644000017,b,1.0,0.3396006999973906,,,,sub-008,1.0,stroop_test,60.069332022978365,
,,,,82.0,10.0,6.0,,,,,,,,,,,,,rot,blue,b,0.0,b,1.0,0.70978009999817,,,,,,,,,,6.0,10.0,82.0,2.0,309.7108730999971,,,,,,,,,,,,,,,,,309.69634699999733,309.8108785000004,310.61034339999605,310.59496070000023,,,,,,,,,,,,,,,,,,,,,,,,,,,,,,,,,,,310.5977225999959,310.61034339999605,310.61034339999605,311.3286586999966,b,1.0,0.70978009999817,,,,sub-008,1.0,stroop_test,60.069332022978365,
,,,,83.0,11.0,6.0,,,,,,,,,,,,,rot,red,r,1.0,r,1.0,0.5005183000030229,,,,,,,,,,6.0,11.0,83.0,0.0,311.344182599998,,,,,,,,,,,,,,,,,311.32905119999486,311.44335789999604,312.2433691999977,312.22802070000034,,,,,,,,,,,,,,,,,,,,,,,,,,,,,,,,,,,312.2290705999985,312.2433691999977,312.2433691999977,312.76024060000054,r,1.0,0.5005183000030229,,,,sub-008,1.0,stroop_test,60.069332022978365,
,,,,84.0,0.0,7.0,,,,,,,,,,,,,rot,blue,b,0.0,b,1.0,0.5429537000018172,,,,,,,,,,7.0,0.0,84.0,2.0,312.7757497999992,,,,,,,,,,,,,,,,,312.7605509999994,313.12553240000125,313.9252802999981,313.91024829999515,,,,,,,,,,,,,,,,,,,,,,,,,,,,,,,,,,,313.9111560999954,313.9252802999981,313.9252802999981,314.4763406999991,b,1.0,0.5429537000018172,,,,sub-008,1.0,stroop_test,60.069332022978365,
,,,,85.0,1.0,7.0,,,,,,,,,,,,,blau,blue,b,1.0,b,1.0,0.4547598999997717,,,,,,,,,,7.0,1.0,85.0,5.0,314.49149359999865,,,,,,,,,,,,,,,,,314.4768575999988,315.29087679999793,316.0901603999955,316.0749657999986,,,,,,,,,,,,,,,,,,,,,,,,,,,,,,,,,,,316.0777006999997,316.0901603999955,316.0901603999955,316.55827729999874,b,1.0,0.4547598999997717,,,,sub-008,1.0,stroop_test,60.069332022978365,
,,,,86.0,2.0,7.0,,,,,,,,,,,,,gelb,yellow,g,1.0,g,1.0,0.5718396000011126,,,,,,,,,,7.0,2.0,86.0,11.0,316.5735253999956,,,,,,,,,,,,,,,,,316.5586362999966,316.67323659999965,317.472849400001,317.45736249999754,,,,,,,,,,,,,,,,,,,,,,,,,,,,,,,,,,,317.46083499999804,317.472849400001,317.472849400001,318.0573088000019,g,1.0,0.5718396000011126,,,,sub-008,1.0,stroop_test,60.069332022978365,
,,,,87.0,3.0,7.0,,,,,,,,,,,,,gelb,blue,b,0.0,b,1.0,0.51842089999991,,,,,,,,,,7.0,3.0,87.0,9.0,318.0722444999992,,,,,,,,,,,,,,,,,318.0576555000007,318.872034,319.6712215000007,319.65577810000104,,,,,,,,,,,,,,,,,,,,,,,,,,,,,,,,,,,319.6562349999949,319.6712215000007,319.6712215000007,320.20566189999954,b,1.0,0.51842089999991,,,,sub-008,1.0,stroop_test,60.069332022978365,
,,,,88.0,4.0,7.0,,,,,,,,,,,,,gelb,red,r,0.0,r,1.0,0.5638340000004973,,,,,,,,,,7.0,4.0,88.0,8.0,320.2210467999976,,,,,,,,,,,,,,,,,320.2059515000001,320.5707546999984,321.3703014999992,321.354459999995,,,,,,,,,,,,,,,,,,,,,,,,,,,,,,,,,,,321.3548985000016,321.3703014999992,321.3703014999992,321.93900429999485,r,1.0,0.5638340000004973,,,,sub-008,1.0,stroop_test,60.069332022978365,
,,,,89.0,5.0,7.0,,,,,,,,,,,,,blau,yellow,g,0.0,g,1.0,0.4420293000002857,,,,,,,,,,7.0,5.0,89.0,7.0,321.95299299999897,,,,,,,,,,,,,,,,,321.9393790999966,323.15245270000014,323.95200979999936,323.9364287999997,,,,,,,,,,,,,,,,,,,,,,,,,,,,,,,,,,,323.9400997999983,323.95200979999936,323.95200979999936,324.4050913999963,g,1.0,0.4420293000002857,,,,sub-008,1.0,stroop_test,60.069332022978365,
,,,,90.0,6.0,7.0,,,,,,,,,,,,,rot,red,r,1.0,r,1.0,0.3154447000051732,,,,,,,,,,7.0,6.0,90.0,0.0,324.4185729999954,,,,,,,,,,,,,,,,,324.40587689999666,325.6174142999953,326.417028799995,326.40095999999903,,,,,,,,,,,,,,,,,,,,,,,,,,,,,,,,,,,326.40319949999684,326.417028799995,326.417028799995,326.7354263000016,r,1.0,0.3154447000051732,,,,sub-008,1.0,stroop_test,60.069332022978365,
,,,,91.0,7.0,7.0,,,,,,,,,,,,,blau,red,r,0.0,r,1.0,0.3236007999948924,,,,,,,,,,7.0,7.0,91.0,4.0,326.7502855999992,,,,,,,,,,,,,,,,,326.73577379999915,327.9491817999952,328.7487465999948,328.73337389999506,,,,,,,,,,,,,,,,,,,,,,,,,,,,,,,,,,,328.73779680000007,328.7487465999948,328.7487465999948,329.0838884999976,r,1.0,0.3236007999948924,,,,sub-008,1.0,stroop_test,60.069332022978365,
,,,,92.0,8.0,7.0,,,,,,,,,,,,,rot,red,r,1.0,r,1.0,0.3971077999958652,,,,,,,,,,7.0,8.0,92.0,1.0,329.098719900001,,,,,,,,,,,,,,,,,329.08430009999574,329.1985568999953,329.9979592999953,329.9829174999977,,,,,,,,,,,,,,,,,,,,,,,,,,,,,,,,,,,329.9856316000005,329.9979592999953,329.9979592999953,330.4003063999989,r,1.0,0.3971077999958652,,,,sub-008,1.0,stroop_test,60.069332022978365,
,,,,93.0,9.0,7.0,,,,,,,,,,,,,gelb,yellow,g,1.0,g,1.0,0.4882155999948736,,,,,,,,,,7.0,9.0,93.0,10.0,330.4146146999992,,,,,,,,,,,,,,,,,330.40094909999607,330.764537199997,331.5638944999955,331.54879829999845,,,,,,,,,,,,,,,,,,,,,,,,,,,,,,,,,,,331.5529974999954,331.5638944999955,331.5638944999955,332.0655788000004,g,1.0,0.4882155999948736,,,,sub-008,1.0,stroop_test,60.069332022978365,
,,,,94.0,10.0,7.0,,,,,,,,,,,,,blau,blue,b,1.0,b,1.0,0.5413459999981569,,,,,,,,,,7.0,10.0,94.0,6.0,332.0800736000019,,,,,,,,,,,,,,,,,332.06598149999627,332.4299718999973,333.22941379999975,333.2138938999997,,,,,,,,,,,,,,,,,,,,,,,,,,,,,,,,,,,333.21680449999985,333.22941379999975,333.22941379999975,333.7805254999985,b,1.0,0.5413459999981569,,,,sub-008,1.0,stroop_test,60.069332022978365,
,,,,95.0,11.0,7.0,,,,,,,,,,,,,rot,yellow,g,0.0,g,1.0,0.7608582000029855,,,,,,,,,,7.0,11.0,95.0,3.0,333.7955163000006,,,,,,,,,,,,,,,,,333.7808757999956,334.5952877000018,335.39461859999574,335.3797754999978,,,,,,,,,,,,,,,,,,,,,,,,,,,,,,,,,,,335.3846816000005,335.39461859999574,335.39461859999574,336.1626230999973,g,1.0,0.7608582000029855,,,,sub-008,1.0,stroop_test,60.069332022978365,
,,,,96.0,0.0,8.0,,,,,,,,,,,,,gelb,red,r,0.0,r,1.0,0.3631332000004477,,,,,,,,,,8.0,0.0,96.0,8.0,336.1775243000011,,,,,,,,,,,,,,,,,336.1629581000016,336.2775752999951,337.0772111999977,337.0616918999949,,,,,,,,,,,,,,,,,,,,,,,,,,,,,,,,,,,337.0661567999996,337.0772111999977,337.0772111999977,337.4466670999973,r,1.0,0.3631332000004477,,,,sub-008,1.0,stroop_test,60.069332022978365,
,,,,97.0,1.0,8.0,,,,,,,,,,,,,blau,blue,b,1.0,g,0.0,0.413994399998046,,,,,,,,,,8.0,1.0,97.0,6.0,337.45998490000056,,,,,,,,,,,,,,,,,337.4470119999969,337.5602365999948,338.35959719999664,338.3445318000013,,,,,,,,,,,,,,,,,,,,,,,,,,,,,,,,,,,338.35115999999834,338.35959719999664,338.35959719999664,338.77919689999544,g,0.0,0.413994399998046,,,,sub-008,1.0,stroop_test,60.069332022978365,
,,,,98.0,2.0,8.0,,,,,,,,,,,,,rot,red,r,1.0,r,1.0,0.6276276999997208,,,,,,,,,,8.0,2.0,98.0,1.0,338.7927959000008,,,,,,,,,,,,,,,,,338.779763999999,339.142522999995,339.941754200001,339.9265835999977,,,,,,,,,,,,,,,,,,,,,,,,,,,,,,,,,,,339.9313156999997,339.941754200001,339.941754200001,340.5765599000006,r,1.0,0.6276276999997208,,,,sub-008,1.0,stroop_test,60.069332022978365,
,,,,99.0,3.0,8.0,,,,,,,,,,,,,blau,red,r,0.0,r,1.0,0.4010780000025988,,,,,,,,,,8.0,3.0,99.0,4.0,340.5913930999959,,,,,,,,,,,,,,,,,340.5769699000012,341.39114049999625,342.190085299997,342.17538839999906,,,,,,,,,,,,,,,,,,,,,,,,,,,,,,,,,,,342.17917589999706,342.190085299997,342.190085299997,342.60778420000133,r,1.0,0.4010780000025988,,,,sub-008,1.0,stroop_test,60.069332022978365,
,,,,100.0,4.0,8.0,,,,,,,,,,,,,gelb,yellow,g,1.0,g,1.0,0.9624096999978063,,,,,,,,,,8.0,4.0,100.0,11.0,342.62354380000033,,,,,,,,,,,,,,,,,342.6080686999994,343.82308080000075,344.63876809999783,344.62382649999927,,,,,,,,,,,,,,,,,,,,,,,,,,,,,,,,,,,344.627023699999,344.63876809999783,344.63876809999783,345.60679099999834,g,1.0,0.9624096999978063,,,,sub-008,1.0,stroop_test,60.069332022978365,
,,,,101.0,5.0,8.0,,,,,,,,,,,,,rot,yellow,g,0.0,g,1.0,0.8750159999981406,,,,,,,,,,8.0,5.0,101.0,3.0,345.62155450000137,,,,,,,,,,,,,,,,,345.6071951999984,345.72178639999765,346.5212515999956,346.5058194000012,,,,,,,,,,,,,,,,,,,,,,,,,,,,,,,,,,,346.5092354000008,346.5212515999956,346.5212515999956,347.4062993999978,g,1.0,0.8750159999981406,,,,sub-008,1.0,stroop_test,60.069332022978365,
,,,,102.0,6.0,8.0,,,,,,,,,,,,,gelb,yellow,g,1.0,g,1.0,0.4854395000002114,,,,,,,,,,8.0,6.0,102.0,10.0,347.4205550999977,,,,,,,,,,,,,,,,,347.406770900001,347.7702302999969,348.56967689999874,348.55449059999955,,,,,,,,,,,,,,,,,,,,,,,,,,,,,,,,,,,348.5584374999962,348.56967689999874,348.56967689999874,349.07120849999774,g,1.0,0.4854395000002114,,,,sub-008,1.0,stroop_test,60.069332022978365,
,,,,103.0,7.0,8.0,,,,,,,,,,,,,rot,blue,b,0.0,b,1.0,0.9509189999953378,,,,,,,,,,8.0,7.0,103.0,2.0,349.08583910000016,,,,,,,,,,,,,,,,,349.07156029999896,349.43568999999843,350.2351922000016,350.22015109999484,,,,,,,,,,,,,,,,,,,,,,,,,,,,,,,,,,,350.22356220000074,350.2351922000016,350.2351922000016,351.2036360999992,b,1.0,0.9509189999953378,,,,sub-008,1.0,stroop_test,60.069332022978365,
,,,,104.0,8.0,8.0,,,,,,,,,,,,,gelb,blue,b,0.0,b,1.0,0.581550499999139,,,,,,,,,,8.0,8.0,104.0,9.0,351.2181644000011,,,,,,,,,,,,,,,,,351.2040411999988,351.3179573000016,352.1174026000008,352.1028899000012,,,,,,,,,,,,,,,,,,,,,,,,,,,,,,,,,,,352.1072157999952,352.1174026000008,352.1174026000008,352.7024437,b,1.0,0.581550499999139,,,,sub-008,1.0,stroop_test,60.069332022978365,
,,,,105.0,9.0,8.0,,,,,,,,,,,,,blau,blue,b,1.0,b,1.0,0.3874217000047792,,,,,,,,,,8.0,9.0,105.0,5.0,352.71719559999474,,,,,,,,,,,,,,,,,352.70278829999734,353.5165912000012,354.3163926999987,354.30106050000177,,,,,,,,,,,,,,,,,,,,,,,,,,,,,,,,,,,354.30492049999884,354.3163926999987,354.3163926999987,354.71860249999736,b,1.0,0.3874217000047792,,,,sub-008,1.0,stroop_test,60.069332022978365,
,,,,106.0,10.0,8.0,,,,,,,,,,,,,rot,red,r,1.0,r,1.0,0.4412598999988404,,,,,,,,,,8.0,10.0,106.0,0.0,354.7324360999992,,,,,,,,,,,,,,,,,354.7191396999988,355.5319367999982,356.3315070999961,356.31598259999737,,,,,,,,,,,,,,,,,,,,,,,,,,,,,,,,,,,356.3189774999992,356.3315070999961,356.3315070999961,356.7833017000012,r,1.0,0.4412598999988404,,,,sub-008,1.0,stroop_test,60.069332022978365,
,,,,107.0,11.0,8.0,,,,,,,,,,,,,blau,yellow,g,0.0,g,1.0,0.7475619000033475,,,,,,,,,,8.0,11.0,107.0,7.0,356.7978704999987,,,,,,,,,,,,,,,,,356.7838169999959,357.5973531999989,358.3969673999964,358.382116599998,,,,,,,,,,,,,,,,,,,,,,,,,,,,,,,,,,,358.3851263999968,358.3969673999964,358.3969673999964,359.1470302999951,g,1.0,0.7475619000033475,,,,sub-008,1.0,stroop_test,60.069332022978365,
,,,,108.0,0.0,9.0,,,,,,,,,,,,,blau,blue,b,1.0,b,1.0,1.287840099997993,,,,,,,,,,9.0,0.0,108.0,5.0,359.162642700001,,,,,,,,,,,,,,,,,359.1473074999958,359.263352199996,360.0624252999987,360.0469299999968,,,,,,,,,,,,,,,,,,,,,,,,,,,,,,,,,,,360.04751369999576,360.0624252999987,360.0624252999987,361.3638118999952,b,1.0,1.287840099997993,,,,sub-008,1.0,stroop_test,60.069332022978365,
,,,,109.0,1.0,9.0,,,,,,,,,,,,,rot,red,r,1.0,r,1.0,0.4274335999944014,,,,,,,,,,9.0,1.0,109.0,1.0,361.3779243999961,,,,,,,,,,,,,,,,,361.3643744000001,362.1776162999959,362.9769957999961,362.9625016999999,,,,,,,,,,,,,,,,,,,,,,,,,,,,,,,,,,,362.96556849999615,362.9769957999961,362.9769957999961,363.4118346999967,r,1.0,0.4274335999944014,,,,sub-008,1.0,stroop_test,60.069332022978365,
,,,,110.0,2.0,9.0,,,,,,,,,,,,,rot,blue,b,0.0,b,1.0,0.5220727999985684,,,,,,,,,,9.0,2.0,110.0,2.0,363.4266962999973,,,,,,,,,,,,,,,,,363.41221940000105,364.2264499000012,365.0259549999973,365.0103646999996,,,,,,,,,,,,,,,,,,,,,,,,,,,,,,,,,,,365.0108946999972,365.0259549999973,365.0259549999973,365.5608914999975,b,1.0,0.5220727999985684,,,,sub-008,1.0,stroop_test,60.069332022978365,
,,,,111.0,3.0,9.0,,,,,,,,,,,,,blau,red,r,0.0,r,1.0,1.3977035999996588,,,,,,,,,,9.0,3.0,111.0,4.0,365.5758415000018,,,,,,,,,,,,,,,,,365.5612528999991,366.37499599999865,367.1746514999977,367.1599203000005,,,,,,,,,,,,,,,,,,,,,,,,,,,,,,,,,,,367.1660849999971,367.1746514999977,367.1746514999977,368.57534450000094,r,1.0,1.3977035999996588,,,,sub-008,1.0,stroop_test,60.069332022978365,
,,,,112.0,4.0,9.0,,,,,,,,,,,,,rot,yellow,g,0.0,g,1.0,1.069283500000893,,,,,,,,,,9.0,4.0,112.0,3.0,368.590325600002,,,,,,,,,,,,,,,,,368.57569299999886,369.3901465000017,370.18925789999776,370.173958899999,,,,,,,,,,,,,,,,,,,,,,,,,,,,,,,,,,,370.1773019999964,370.18925789999776,370.18925789999776,371.2729751000006,g,1.0,1.069283500000893,,,,sub-008,1.0,stroop_test,60.069332022978365,
,,,,113.0,5.0,9.0,,,,,,,,,,,,,gelb,yellow,g,1.0,g,1.0,0.7318694000059622,,,,,,,,,,9.0,5.0,113.0,11.0,371.2885704,,,,,,,,,,,,,,,,,371.273266199998,372.0881813000015,372.88757729999634,372.8728110000011,,,,,,,,,,,,,,,,,,,,,,,,,,,,,,,,,,,372.87674319999496,372.88757729999634,372.88757729999634,373.6219332999972,g,1.0,0.7318694000059622,,,,sub-008,1.0,stroop_test,60.069332022978365,
,,,,114.0,6.0,9.0,,,,,,,,,,,,,rot,red,r,1.0,r,1.0,0.5763975000008941,,,,,,,,,,9.0,6.0,114.0,0.0,373.6371058000004,,,,,,,,,,,,,,,,,373.6222667999973,373.98679089999496,374.786394499999,374.7712384999977,,,,,,,,,,,,,,,,,,,,,,,,,,,,,,,,,,,374.7750511999984,374.786394499999,374.786394499999,375.3719752999969,r,1.0,0.5763975000008941,,,,sub-008,1.0,stroop_test,60.069332022978365,
,,,,115.0,7.0,9.0,,,,,,,,,,,,,gelb,yellow,g,1.0,g,1.0,1.6924520999964443,,,,,,,,,,9.0,7.0,115.0,10.0,375.3859771999996,,,,,,,,,,,,,,,,,375.3724316000007,376.5852193999963,377.38504329999705,377.3696081000016,,,,,,,,,,,,,,,,,,,,,,,,,,,,,,,,,,,377.37490029999753,377.38504329999705,377.38504329999705,379.0851977999992,g,1.0,1.6924520999964443,,,,sub-008,1.0,stroop_test,60.069332022978365,
,,,,116.0,8.0,9.0,,,,,,,,,,,,,gelb,blue,b,0.0,b,1.0,0.3750737000009394,,,,,,,,,,9.0,8.0,116.0,9.0,379.1001353999964,,,,,,,,,,,,,,,,,379.0855456999998,379.899874499999,380.6992076999959,380.6840987999967,,,,,,,,,,,,,,,,,,,,,,,,,,,,,,,,,,,380.6846646999984,380.6992076999959,380.6992076999959,381.0850281999956,b,1.0,0.3750737000009394,,,,sub-008,1.0,stroop_test,60.069332022978365,
,,,,117.0,9.0,9.0,,,,,,,,,,,,,gelb,red,r,0.0,r,1.0,0.5868679999985034,,,,,,,,,,9.0,9.0,117.0,8.0,381.0990103000004,,,,,,,,,,,,,,,,,381.0854852999983,381.1992029999965,381.9985412999959,381.9829728999976,,,,,,,,,,,,,,,,,,,,,,,,,,,,,,,,,,,381.98347189999913,381.9985412999959,381.9985412999959,382.60030800000095,r,1.0,0.5868679999985034,,,,sub-008,1.0,stroop_test,60.069332022978365,
,,,,118.0,10.0,9.0,,,,,,,,,,,,,blau,yellow,g,0.0,g,1.0,2.1082087000031606,,,,,,,,,,9.0,10.0,118.0,7.0,382.614722899998,,,,,,,,,,,,,,,,,382.6007104999953,382.71474699999817,383.51412580000033,383.4992463999952,,,,,,,,,,,,,,,,,,,,,,,,,,,,,,,,,,,383.503744499998,383.51412580000033,383.51412580000033,385.6312730999998,g,1.0,2.1082087000031606,,,,sub-008,1.0,stroop_test,60.069332022978365,
,,,,119.0,11.0,9.0,,,,,,,,,,,,,blau,blue,b,1.0,b,1.0,0.5451602999964962,,,,,,,,,,9.0,11.0,119.0,6.0,385.6463473999975,,,,,,,,,,,,,,,,,385.63166629999614,385.9960367999957,386.79518449999887,386.7799679000018,,,,,,,,,,,,,,,,,,,,,,,,,,,,,,,,,,,386.7805144999948,386.79518449999887,386.79518449999887,387.3468032000019,b,1.0,0.5451602999964962,,,,sub-008,1.0,stroop_test,60.069332022978365,
,,,,,,,,,,,,,,,,,,,,,,,,,,,,,,,,,,,,,,,,,,,,,,,,,,,,,,,,,,,,,,,,,,,,,,,,,,,,,,,,,,,,,,,,,,,,,,,,,,,,,,387.3469646999947,387.36156949999713,sub-008,,,,
