wordCTK,colorCTK,corrAnsCTK,congruentCTK,thisN,thisTrialN,thisRepN,keyResp_CTK.keys,keyResp_CTK.corr,keyResp_CTK.rt,keyResp_CTK.duration,wordPractice,colorPractice,corrAnsPractice,congruentPractice,respPractice.keys,respPractice.corr,respPractice.rt,respPractice.duration,word,color,corrAns,congruent,keyResp_test_run.keys,keyResp_test_run.corr,keyResp_test_run.rt,keyResp_test_run.duration,trials_CTK.thisRepN,trials_CTK.thisTrialN,trials_CTK.thisN,trials_CTK.thisIndex,trials_practice.thisRepN,trials_practice.thisTrialN,trials_practice.thisN,trials_practice.thisIndex,trials_test.thisRepN,trials_test.thisTrialN,trials_test.thisN,trials_test.thisIndex,thisRow.t,notes,instruction.started,instr_text.started,instr_image.started,instr_resp.started,instruction.stopped,instr_resp.keys,instr_resp.rt,instr_resp.duration,instr_color_to_key.started,instr_ctk.started,resp_ctk.started,instr_color_to_key.stopped,resp_ctk.keys,resp_ctk.rt,resp_ctk.duration,ITI.started,fixcross.started,fixcross.stopped,ITI.stopped,color_to_key_run.started,stimulus_CTK.started,keyResp_CTK.started,color_to_key_run.stopped,trials_CTK.keyResp_CTK.keys,trials_CTK.keyResp_CTK.corr,trials_CTK.keyResp_CTK.rt,trials_CTK.keyResp_CTK.duration,instr_practice.started,instr_practice_text.started,instr_practice_resp.started,instr_practice.stopped,instr_practice_resp.keys,instr_practice_resp.rt,instr_practice_resp.duration,practice_run.started,stimulus_practice.started,respPractice.started,practice_run.stopped,trials_practice.respPractice.keys,trials_practice.respPractice.corr,trials_practice.respPractice.rt,trials_practice.respPractice.duration,feedback.started,textFeedback.started,feedback.stopped,textFeedback.stopped,instr_test.started,instr_test_text.started,instr_test_resp.started,instr_test.stopped,instr_test_resp.keys,instr_test_resp.rt,instr_test_resp.duration,test_run.started,stimulus_test_run.started,keyResp_test_run.started,test_run.stopped,trials_test.keyResp_test_run.keys,trials_test.keyResp_test_run.corr,trials_test.keyResp_test_run.rt,trials_test.keyResp_test_run.duration,goodbye.started,textGoodbye.started,goodbye.stopped,participant,session,expName,frameRate,Unnamed: 112
,,,,,,,,,,,,,,,,,,,,,,,,,,,,,,,,,,,,,,,,,0.0043793999357149,0.0461866999976336,0.0461866999976336,0.0461866999976336,27.71488089999184,space,27.65198720002081,,,,,,,,,,,,,,,,,,,,,,,,,,,,,,,,,,,,,,,,,,,,,,,,,,,,,,,,,,sub-215,1,stroop_test,60.10944730330683,
,,,,,,,,,,,,,,,,,,,,,,,,,,,,,,,,,,,,,,,,,,,,,,,,,27.71498219994828,27.72590510000009,27.72590510000009,31.669419499929063,space,3.934482399956323,,,,,,,,,,,,,,,,,,,,,,,,,,,,,,,,,,,,,,,,,,,,,,,,,,,sub-215,1,stroop_test,60.10944730330683,
test,blue,b,1.0,0.0,0.0,0.0,b,1.0,1.5015062999445945,,,,,,,,,,,,,,,,,,0.0,0.0,0.0,2.0,,,,,,,,,31.7179349999642,,,,,,,,,,,,,,,,,31.71008709992748,32.48395709996112,33.3087036999641,33.26908159989398,33.29818719998002,33.3087036999641,33.3087036999641,34.82082719996106,b,1.0,1.5015062999445945,,,,,,,,,,,,,,,,,,,,,,,,,,,,,,,,,,,,,,,sub-215,1,stroop_test,60.10944730330683,
test,red,r,1.0,1.0,1.0,0.0,r,1.0,0.8239735000533983,,,,,,,,,,,,,,,,,,0.0,1.0,1.0,0.0,,,,,,,,,34.83555389998946,,,,,,,,,,,,,,,,,34.82130519999191,35.18593999999575,35.98642299999483,35.9709687998984,35.97228829993401,35.98642299999483,35.98642299999483,36.82237700000405,r,1.0,0.8239735000533983,,,,,,,,,,,,,,,,,,,,,,,,,,,,,,,,,,,,,,,sub-215,1,stroop_test,60.10944730330683,
test,yellow,g,1.0,2.0,2.0,0.0,g,1.0,0.6817364000016823,,,,,,,,,,,,,,,,,,0.0,2.0,2.0,1.0,,,,,,,,,36.83705169998575,,,,,,,,,,,,,,,,,36.82292049995158,36.93722069996875,37.73775559989736,37.722152999951504,37.72303469991312,37.73775559989736,37.73775559989736,38.42360939993523,g,1.0,0.6817364000016823,,,,,,,,,,,,,,,,,,,,,,,,,,,,,,,,,,,,,,,sub-215,1,stroop_test,60.10944730330683,
test,yellow,g,1.0,3.0,0.0,1.0,g,1.0,0.6202500000363216,,,,,,,,,,,,,,,,,,1.0,0.0,3.0,1.0,,,,,,,,,38.43807269993704,,,,,,,,,,,,,,,,,38.42413999990095,39.238577499985695,40.03928829997312,40.0237670999486,40.02494439994916,40.03928829997312,40.03928829997312,40.675244799931534,g,1.0,0.6202500000363216,,,,,,,,,,,,,,,,,,,,,,,,,,,,,,,,,,,,,,,sub-215,1,stroop_test,60.10944730330683,
test,red,r,1.0,4.0,1.0,1.0,r,1.0,0.7090728000039235,,,,,,,,,,,,,,,,,,1.0,1.0,4.0,0.0,,,,,,,,,40.68975679995492,,,,,,,,,,,,,,,,,40.67585549992509,41.89039469999261,42.69107389997225,42.67555229994469,42.67650499998126,42.69107389997225,42.69107389997225,43.41059399989899,r,1.0,0.7090728000039235,,,,,,,,,,,,,,,,,,,,,,,,,,,,,,,,,,,,,,,sub-215,1,stroop_test,60.10944730330683,
test,blue,b,1.0,5.0,2.0,1.0,b,1.0,0.6943625999847427,,,,,,,,,,,,,,,,,,1.0,2.0,5.0,2.0,,,,,,,,,43.42481639992912,,,,,,,,,,,,,,,,,43.41121179994661,44.22530629998073,45.02586649998557,45.010465499944985,45.01138749998063,45.02586649998557,45.02586649998557,45.7285966000054,b,1.0,0.6943625999847427,,,,,,,,,,,,,,,,,,,,,,,,,,,,,,,,,,,,,,,sub-215,1,stroop_test,60.10944730330683,
test,yellow,g,1.0,6.0,0.0,2.0,g,1.0,0.6649316000984982,,,,,,,,,,,,,,,,,,2.0,0.0,6.0,1.0,,,,,,,,,45.743181199999526,,,,,,,,,,,,,,,,,45.72920969990082,46.54350529995281,47.34429469995666,47.328571699908935,47.32952819997445,47.34429469995666,47.34429469995666,48.01369719998911,g,1.0,0.6649316000984982,,,,,,,,,,,,,,,,,,,,,,,,,,,,,,,,,,,,,,,sub-215,1,stroop_test,60.10944730330683,
test,red,r,1.0,7.0,1.0,2.0,r,1.0,0.9607886000303552,,,,,,,,,,,,,,,,,,2.0,1.0,7.0,0.0,,,,,,,,,48.02796799992211,,,,,,,,,,,,,,,,,48.01446169998962,49.22877960000187,50.02944089996163,50.01405519992113,50.01504589989781,50.02944089996163,50.02944089996163,50.99876909994055,r,1.0,0.9607886000303552,,,,,,,,,,,,,,,,,,,,,,,,,,,,,,,,,,,,,,,sub-215,1,stroop_test,60.10944730330683,
test,blue,b,1.0,8.0,2.0,2.0,b,1.0,0.7853152999887243,,,,,,,,,,,,,,,,,,2.0,2.0,8.0,2.0,,,,,,,,,51.01323909999337,,,,,,,,,,,,,,,,,50.999394699931145,51.36382529989351,52.16420119989198,52.148723599966615,52.14968599996064,52.16420119989198,52.16420119989198,52.96677780000027,b,1.0,0.7853152999887243,,,,,,,,,,,,,,,,,,,,,,,,,,,,,,,,,,,,,,,sub-215,1,stroop_test,60.10944730330683,
test,blue,b,1.0,9.0,0.0,3.0,b,1.0,0.5862528999568895,,,,,,,,,,,,,,,,,,3.0,0.0,9.0,2.0,,,,,,,,,52.98128419998102,,,,,,,,,,,,,,,,,52.96737589989789,53.78185689996462,54.582619599998,54.56698289990891,54.567943499889225,54.582619599998,54.582619599998,55.184835299965926,b,1.0,0.5862528999568895,,,,,,,,,,,,,,,,,,,,,,,,,,,,,,,,,,,,,,,sub-215,1,stroop_test,60.10944730330683,
test,yellow,g,1.0,10.0,1.0,3.0,g,1.0,0.4681611000560224,,,,,,,,,,,,,,,,,,3.0,1.0,10.0,1.0,,,,,,,,,55.19947399990633,,,,,,,,,,,,,,,,,55.185307599953376,56.000090199988335,56.80066439998336,56.78508929989766,56.78634659992531,56.80066439998336,56.80066439998336,57.28626939991955,g,1.0,0.4681611000560224,,,,,,,,,,,,,,,,,,,,,,,,,,,,,,,,,,,,,,,sub-215,1,stroop_test,60.10944730330683,
test,red,r,1.0,11.0,2.0,3.0,r,1.0,0.8078635999700055,,,,,,,,,,,,,,,,,,3.0,2.0,11.0,0.0,,,,,,,,,57.30093299993314,,,,,,,,,,,,,,,,,57.28688309993595,57.651188799995,58.45189849997405,58.43632179999258,58.43726679997053,58.45189849997405,58.45189849997405,59.2711368999444,r,1.0,0.8078635999700055,,,,,,,,,,,,,,,,,,,,,,,,,,,,,,,,,,,,,,,sub-215,1,stroop_test,60.10944730330683,
,,,,,,,,,,,,,,,,,,,,,,,,,,,,,,,,,,,,,,,,,,,,,,,,,,,,,,,,,,,,,,,,,,,,59.27142879995517,59.28619539993815,59.28619539993815,66.64339819992892,space,7.354126200079918,,,,,,,,,,,,,,,,,,,,,,,,,,,,,,,,sub-215,1,stroop_test,60.10944730330683,
,,,,0.0,0.0,0.0,,,,,gelb,yellow,g,1.0,g,1.0,0.7719696999993175,,,,,,,,,,,,,,0.0,0.0,0.0,11.0,,,,,66.68689929996617,,,,,,,,,,,,,,,,,66.67974229995161,67.85790689999703,68.68772789998911,68.64336619991809,,,,,,,,,,,,,,,,68.67688439995982,68.68772789998911,68.68772789998911,69.46149489993695,g,1.0,0.7719696999993175,,69.48231069999747,69.49449339997955,70.47702509991359,,,,,,,,,,,,,,,,,,,,sub-215,1,stroop_test,60.10944730330683,
,,,,1.0,1.0,0.0,,,,,rot,yellow,g,0.0,g,1.0,1.385232900036499,,,,,,,,,,,,,,0.0,1.0,1.0,3.0,,,,,70.49335469992366,,,,,,,,,,,,,,,,,70.47759429994039,71.27739219996147,72.08543119998649,72.06235479994211,,,,,,,,,,,,,,,,72.07380649994593,72.08543119998649,72.08543119998649,73.48068179993425,g,1.0,1.385232900036499,,73.48162809992209,73.49572989996523,74.48084589990322,74.49611099995673,,,,,,,,,,,,,,,,,,,sub-215,1,stroop_test,60.10944730330683,
,,,,2.0,2.0,0.0,,,,,blau,blue,b,1.0,b,1.0,0.921834300039336,,,,,,,,,,,,,,0.0,2.0,2.0,6.0,,,,,74.49611099995673,,,,,,,,,,,,,,,,,74.48146679997444,75.27994719997514,76.08905329997651,76.06503969989717,,,,,,,,,,,,,,,,76.07920329994522,76.08905329997651,76.08905329997651,77.01692719990388,b,1.0,0.921834300039336,,77.01792309992015,77.03131209989078,78.0165713999886,78.03180529992096,,,,,,,,,,,,,,,,,,,sub-215,1,stroop_test,60.10944730330683,
,,,,3.0,3.0,0.0,,,,,gelb,red,r,0.0,r,1.0,0.9655124999117106,,,,,,,,,,,,,,0.0,3.0,3.0,8.0,,,,,78.03180529992096,,,,,,,,,,,,,,,,,78.01719029992819,78.38219069992192,79.18545329989865,79.16731229994912,,,,,,,,,,,,,,,,79.17421699990518,79.18545329989865,79.18545329989865,80.1687563000014,r,1.0,0.9655124999117106,,80.16963579994626,80.18353529996239,81.16874609992374,81.18404139997438,,,,,,,,,,,,,,,,,,,sub-215,1,stroop_test,60.10944730330683,
,,,,4.0,4.0,0.0,,,,,gelb,blue,b,0.0,b,1.0,0.7263821000233293,,,,,,,,,,,,,,0.0,4.0,4.0,9.0,,,,,81.18404139997438,,,,,,,,,,,,,,,,,81.16934569994919,81.53435989993159,82.33506499999203,82.31977209995966,,,,,,,,,,,,,,,,82.32064379996154,82.33506499999203,82.33506499999203,83.07078710000496,b,1.0,0.7263821000233293,,83.07173899991903,83.08569669991266,84.07089380000252,84.0860652999254,,,,,,,,,,,,,,,,,,,sub-215,1,stroop_test,60.10944730330683,
,,,,5.0,5.0,0.0,,,,,blau,yellow,g,0.0,g,1.0,0.7737320000305772,,,,,,,,,,,,,,0.0,5.0,5.0,7.0,,,,,84.0860652999254,,,,,,,,,,,,,,,,,84.07144149998203,84.43631979997735,85.23769019998144,85.22137649997603,,,,,,,,,,,,,,,,85.22755919990595,85.23769019998144,85.23769019998144,86.02283869998064,g,1.0,0.7737320000305772,,86.02387199993245,86.03749819996301,87.022651999956,87.03791579999961,,,,,,,,,,,,,,,,,,,sub-215,1,stroop_test,60.10944730330683,
,,,,6.0,6.0,0.0,,,,,blau,blue,b,1.0,b,1.0,0.9279753000009804,,,,,,,,,,,,,,0.0,6.0,6.0,5.0,,,,,87.03791579999961,,,,,,,,,,,,,,,,,87.02324649994262,87.82209729996976,88.6226553999586,88.60707289993297,,,,,,,,,,,,,,,,88.60801719990559,88.6226553999586,88.6226553999586,89.5587750999257,b,1.0,0.9279753000009804,,89.55973330000415,89.5734233999392,90.55860829993615,90.57379799999762,,,,,,,,,,,,,,,,,,,sub-215,1,stroop_test,60.10944730330683,
,,,,7.0,7.0,0.0,,,,,rot,red,r,1.0,r,1.0,0.6652747000334784,,,,,,,,,,,,,,0.0,7.0,7.0,1.0,,,,,90.57379799999762,,,,,,,,,,,,,,,,,90.55920219991822,91.3743691999698,92.17517289996611,92.15934569993988,,,,,,,,,,,,,,,,92.16512969997711,92.17517289996611,92.17517289996611,92.84418889996596,r,1.0,0.6652747000334784,,92.84524900000542,92.858999799937,93.84403579996432,93.85945809993429,,,,,,,,,,,,,,,,,,,sub-215,1,stroop_test,60.10944730330683,
,,,,8.0,8.0,0.0,,,,,blau,red,r,0.0,r,1.0,1.0989807000150904,,,,,,,,,,,,,,0.0,8.0,8.0,4.0,,,,,93.85945809993429,,,,,,,,,,,,,,,,,93.8445633999072,94.20994849991985,95.01159059989732,94.99459139991086,,,,,,,,,,,,,,,,95.00112979998812,95.01159059989732,95.01159059989732,96.11343669996133,r,1.0,1.0989807000150904,,96.11437239998486,96.12794199993368,97.11248729994986,97.12826349993702,,,,,,,,,,,,,,,,,,,sub-215,1,stroop_test,60.10944730330683,
,,,,9.0,9.0,0.0,,,,,rot,blue,b,0.0,b,1.0,1.008601500070654,,,,,,,,,,,,,,0.0,9.0,9.0,2.0,,,,,97.12826349993702,,,,,,,,,,,,,,,,,97.11281259998212,97.22857739997562,98.031680499902,98.01330849993974,,,,,,,,,,,,,,,,98.02039029996376,98.031680499902,98.031680499902,99.04834499990102,b,1.0,1.008601500070654,,99.0493532998953,99.0631340999389,100.0482407999225,100.06356349994894,,,,,,,,,,,,,,,,,,,sub-215,1,stroop_test,60.10944730330683,
,,,,10.0,10.0,0.0,,,,,gelb,yellow,g,1.0,g,1.0,0.754183099954389,,,,,,,,,,,,,,0.0,10.0,10.0,10.0,,,,,100.06356349994894,,,,,,,,,,,,,,,,,100.0488306999905,100.4138259999454,101.21723469998688,101.19880099990404,,,,,,,,,,,,,,,,101.20622489997186,101.21723469998688,101.21723469998688,101.98375419992954,g,1.0,0.754183099954389,,101.98475569998844,101.99846639996396,102.98380559997167,102.9991057999432,,,,,,,,,,,,,,,,,,,sub-215,1,stroop_test,60.10944730330683,
,,,,11.0,11.0,0.0,,,,,rot,red,r,1.0,r,1.0,1.0882322000106797,,,,,,,,,,,,,,0.0,11.0,11.0,0.0,,,,,102.9991057999432,,,,,,,,,,,,,,,,,102.9844437999418,103.34941439994144,104.15314650000072,104.13420099997892,,,,,,,,,,,,,,,,104.14130709995516,104.15314650000072,104.15314650000072,105.25292609992904,r,1.0,1.0882322000106797,,105.25394909991884,105.26752829994076,106.2526099999668,106.26789909997024,,,,,,,,,,,,,,,,,,,sub-215,1,stroop_test,60.10944730330683,
,,,,12.0,0.0,1.0,,,,,gelb,yellow,g,1.0,g,1.0,0.7190405000001192,,,,,,,,,,,,,,1.0,0.0,12.0,11.0,,,,,106.26789909997024,,,,,,,,,,,,,,,,,106.25322079996111,106.36800539994148,107.17152089998126,107.15304969996214,,,,,,,,,,,,,,,,107.16013340000065,107.17152089998126,107.17152089998126,107.904587399913,g,1.0,0.7190405000001192,,107.90561259991956,107.9194408999756,108.90445499995258,108.91969919996336,,,,,,,,,,,,,,,,,,,sub-215,1,stroop_test,60.10944730330683,
,,,,13.0,1.0,1.0,,,,,rot,yellow,g,0.0,g,1.0,0.9071042999858036,,,,,,,,,,,,,,1.0,1.0,13.0,3.0,,,,,108.91969919996336,,,,,,,,,,,,,,,,,108.9051050998969,109.26991939998696,110.09398299991152,110.05516359989996,,,,,,,,,,,,,,,,110.0801683999598,110.09398299991152,110.09398299991152,111.00666600000112,g,1.0,0.9071042999858036,,111.00769030000085,111.02142709994224,112.0065964999376,112.0219184999587,,,,,,,,,,,,,,,,,,,sub-215,1,stroop_test,60.10944730330683,
,,,,14.0,2.0,1.0,,,,,rot,blue,b,0.0,b,1.0,1.057445399928838,,,,,,,,,,,,,,1.0,2.0,14.0,2.0,,,,,112.0219184999587,,,,,,,,,,,,,,,,,112.00721699988937,112.122031899984,112.92250919993968,112.90703639993444,,,,,,,,,,,,,,,,112.9079399999464,112.92250919993968,112.92250919993968,113.99205469992012,b,1.0,1.057445399928838,,113.993041299982,114.0067653999431,114.99183009995612,115.00718129996676,,,,,,,,,,,,,,,,,,,sub-215,1,stroop_test,60.10944730330683,
,,,,15.0,3.0,1.0,,,,,blau,blue,b,1.0,b,1.0,0.6177429999224842,,,,,,,,,,,,,,1.0,3.0,15.0,5.0,,,,,115.00718129996676,,,,,,,,,,,,,,,,,114.99241299997084,115.7910797999939,116.59400449995884,116.5762491999194,,,,,,,,,,,,,,,,116.5828293999657,116.59400449995884,116.59400449995884,117.22778379998636,b,1.0,0.6177429999224842,,117.22875039989594,117.24241649999747,118.22755439998582,118.24291609995998,,,,,,,,,,,,,,,,,,,sub-215,1,stroop_test,60.10944730330683,
,,,,16.0,4.0,1.0,,,,,gelb,yellow,g,1.0,g,1.0,1.2043125999625772,,,,,,,,,,,,,,1.0,4.0,16.0,10.0,,,,,118.24291609995998,,,,,,,,,,,,,,,,,118.2280904999934,119.04336169990712,119.84741029993164,119.82848779996856,,,,,,,,,,,,,,,,119.83606249990407,119.84741029993164,119.84741029993164,121.0635861000046,g,1.0,1.2043125999625772,,121.06454249995296,121.07832410000265,122.06350129994098,122.07872769993264,,,,,,,,,,,,,,,,,,,sub-215,1,stroop_test,60.10944730330683,
,,,,17.0,5.0,1.0,,,,,rot,red,r,1.0,r,1.0,0.5088885999284685,,,,,,,,,,,,,,1.0,5.0,17.0,1.0,,,,,122.07872769993264,,,,,,,,,,,,,,,,,122.06409519992305,122.17879169993104,122.9820135999471,122.96382289996836,,,,,,,,,,,,,,,,122.97099999990314,122.9820135999471,122.9820135999471,123.49860729998908,r,1.0,0.5088885999284685,,123.49954749993049,123.5132901999168,124.49845449998976,124.513725399971,,,,,,,,,,,,,,,,,,,sub-215,1,stroop_test,60.10944730330683,
,,,,18.0,6.0,1.0,,,,,rot,red,r,1.0,r,1.0,0.6467002000426874,,,,,,,,,,,,,,1.0,6.0,18.0,0.0,,,,,124.513725399971,,,,,,,,,,,,,,,,,124.49903720000292,125.31432819995098,126.11503449990414,126.0994517999934,,,,,,,,,,,,,,,,126.10040529991966,126.11503449990414,126.11503449990414,126.76748089992908,r,1.0,0.6467002000426874,,126.76848450000398,126.78211389994247,127.7672875999706,127.78258509992156,,,,,,,,,,,,,,,,,,,sub-215,1,stroop_test,60.10944730330683,
,,,,19.0,7.0,1.0,,,,,blau,blue,b,1.0,b,1.0,0.6669758999487385,,,,,,,,,,,,,,1.0,7.0,19.0,6.0,,,,,127.78258509992156,,,,,,,,,,,,,,,,,127.76785899989773,128.5832311999984,129.38488709996454,129.3684231999796,,,,,,,,,,,,,,,,129.37477389990818,129.38488709996454,129.38488709996454,130.06968289997894,b,1.0,0.6669758999487385,,130.07068959996104,130.08452879998367,131.06969609996304,131.08496069989633,,,,,,,,,,,,,,,,,,,sub-215,1,stroop_test,60.10944730330683,
,,,,20.0,8.0,1.0,,,,,blau,yellow,g,0.0,g,1.0,1.065142899984494,,,,,,,,,,,,,,1.0,8.0,20.0,7.0,,,,,131.08496069989633,,,,,,,,,,,,,,,,,131.07030769996345,131.43518549995497,132.23582780000288,132.22006500000134,,,,,,,,,,,,,,,,132.22102870000526,132.23582780000288,132.23582780000288,133.30561879999004,g,1.0,1.065142899984494,,133.30673189996742,133.31995449995156,134.30517059995327,134.32045819994528,,,,,,,,,,,,,,,,,,,sub-215,1,stroop_test,60.10944730330683,
,,,,21.0,9.0,1.0,,,,,gelb,red,r,0.0,r,1.0,1.008973199990578,,,,,,,,,,,,,,1.0,9.0,21.0,8.0,,,,,134.32045819994528,,,,,,,,,,,,,,,,,134.3057474999223,135.521464999998,136.32173149997834,136.30571299989242,,,,,,,,,,,,,,,,136.31086849991698,136.32173149997834,136.32173149997834,137.3402483999962,r,1.0,1.008973199990578,,137.3408832999412,137.35586409992538,138.34128029993735,138.35656659991946,,,,,,,,,,,,,,,,,,,sub-215,1,stroop_test,60.10944730330683,
,,,,22.0,10.0,1.0,,,,,gelb,blue,b,0.0,b,1.0,1.0202015999238938,,,,,,,,,,,,,,1.0,10.0,22.0,9.0,,,,,138.35656659991946,,,,,,,,,,,,,,,,,138.34186939999927,138.69033759995364,139.49085729999933,139.47546180000063,,,,,,,,,,,,,,,,139.4763999999268,139.49085729999933,139.49085729999933,140.5272597000003,b,1.0,1.0202015999238938,,140.52822269999888,140.5417306999443,141.52681969990954,141.54208819998894,,,,,,,,,,,,,,,,,,,sub-215,1,stroop_test,60.10944730330683,
,,,,23.0,11.0,1.0,,,,,blau,red,r,0.0,r,1.0,1.0565510999877006,,,,,,,,,,,,,,1.0,11.0,23.0,4.0,,,,,141.54208819998894,,,,,,,,,,,,,,,,,141.52740419993643,141.6421568999067,142.44512089993805,142.4271596999606,,,,,,,,,,,,,,,,142.4345953000011,142.44512089993805,142.44512089993805,143.51226160000078,r,1.0,1.0565510999877006,,143.51318509993143,143.5270810999209,144.51233869988937,144.52817909989972,,,,,,,,,,,,,,,,,,,sub-215,1,stroop_test,60.10944730330683,
,,,,,,,,,,,,,,,,,,,,,,,,,,,,,,,,,,,,,,,,,,,,,,,,,,,,,,,,,,,,,,,,,,,,,,,,,,,,,,,,,,,,,,,144.51258049998432,144.52817909989972,144.52817909989972,157.27230919990689,space,12.732808899949305,,,,,,,,,,,,,sub-215,1,stroop_test,60.10944730330683,
,,,,0.0,0.0,0.0,,,,,,,,,,,,,rot,red,r,1.0,r,1.0,0.6496927998960018,,,,,,,,,,0.0,0.0,0.0,1.0,157.30224659992382,,,,,,,,,,,,,,,,,157.29519539989997,158.48728959995788,159.291661700001,159.2722480999073,,,,,,,,,,,,,,,,,,,,,,,,,,,,,,,,,,,159.2803402999416,159.291661700001,159.291661700001,159.95684919995256,r,1.0,0.6496927998960018,,,,,sub-215,1,stroop_test,60.10944730330683,
,,,,1.0,1.0,0.0,,,,,,,,,,,,,gelb,red,r,0.0,r,1.0,1.044238300062716,,,,,,,,,,0.0,1.0,1.0,8.0,159.9716158999363,,,,,,,,,,,,,,,,,159.95747059991118,161.17223269992974,161.98868889990263,161.95744289993308,,,,,,,,,,,,,,,,,,,,,,,,,,,,,,,,,,,161.97853129997384,161.98868889990263,161.98868889990263,163.0426118999021,r,1.0,1.044238300062716,,,,,sub-215,1,stroop_test,60.10944730330683,
,,,,2.0,2.0,0.0,,,,,,,,,,,,,blau,red,r,0.0,r,1.0,0.8829418000532314,,,,,,,,,,0.0,2.0,2.0,4.0,163.0569758999627,,,,,,,,,,,,,,,,,163.04330839996692,164.25770109996665,165.06057769991455,165.042792799999,,,,,,,,,,,,,,,,,,,,,,,,,,,,,,,,,,,165.0497231999179,165.06057769991455,165.06057769991455,165.96084439998958,r,1.0,0.8829418000532314,,,,,sub-215,1,stroop_test,60.10944730330683,
,,,,3.0,3.0,0.0,,,,,,,,,,,,,gelb,blue,b,0.0,b,1.0,0.942374199978076,,,,,,,,,,0.0,3.0,3.0,9.0,165.97577189991716,,,,,,,,,,,,,,,,,165.96163309994154,166.32596529996954,167.12970789999235,167.11104259989224,,,,,,,,,,,,,,,,,,,,,,,,,,,,,,,,,,,167.11850889993366,167.12970789999235,167.12970789999235,168.07958319992758,b,1.0,0.942374199978076,,,,,sub-215,1,stroop_test,60.10944730330683,
,,,,4.0,4.0,0.0,,,,,,,,,,,,,blau,blue,b,1.0,b,1.0,0.5546342000598088,,,,,,,,,,0.0,4.0,4.0,5.0,168.09366989997216,,,,,,,,,,,,,,,,,168.08027509995736,168.8942970999051,169.69748459989205,169.67922599997837,,,,,,,,,,,,,,,,,,,,,,,,,,,,,,,,,,,169.686246199999,169.69748459989205,169.69748459989205,170.2641118000029,b,1.0,0.5546342000598088,,,,,sub-215,1,stroop_test,60.10944730330683,
,,,,5.0,5.0,0.0,,,,,,,,,,,,,rot,blue,b,0.0,b,1.0,1.1202104999683795,,,,,,,,,,0.0,5.0,5.0,2.0,170.27847709995694,,,,,,,,,,,,,,,,,170.26477939996403,170.6287561999634,171.43247279990464,171.41385089990217,,,,,,,,,,,,,,,,,,,,,,,,,,,,,,,,,,,171.42090209992602,171.43247279990464,171.43247279990464,172.56574399990495,b,1.0,1.1202104999683795,,,,,sub-215,1,stroop_test,60.10944730330683,
,,,,6.0,6.0,0.0,,,,,,,,,,,,,gelb,yellow,g,1.0,g,1.0,0.911397600080818,,,,,,,,,,0.0,6.0,6.0,10.0,172.58003969991114,,,,,,,,,,,,,,,,,172.5664491999196,172.9303665999323,173.73191129998304,173.71549689990934,,,,,,,,,,,,,,,,,,,,,,,,,,,,,,,,,,,173.7218921999447,173.73191129998304,173.73191129998304,174.65053079999052,g,1.0,0.911397600080818,,,,,sub-215,1,stroop_test,60.10944730330683,
,,,,7.0,7.0,0.0,,,,,,,,,,,,,blau,yellow,g,0.0,g,1.0,0.5037705000722781,,,,,,,,,,0.0,7.0,7.0,7.0,174.66503229993396,,,,,,,,,,,,,,,,,174.65116459992714,175.86584969994146,176.66832279996015,176.65092529996764,,,,,,,,,,,,,,,,,,,,,,,,,,,,,,,,,,,176.6577435999643,176.66832279996015,176.66832279996015,177.18546959990636,g,1.0,0.5037705000722781,,,,,sub-215,1,stroop_test,60.10944730330683,
,,,,8.0,8.0,0.0,,,,,,,,,,,,,blau,blue,b,1.0,b,1.0,0.8621375999646261,,,,,,,,,,0.0,8.0,8.0,6.0,177.2000468999613,,,,,,,,,,,,,,,,,177.18609269999433,177.300210999907,178.1008967999369,178.0851304999087,,,,,,,,,,,,,,,,,,,,,,,,,,,,,,,,,,,178.08615009998903,178.1008967999369,178.1008967999369,178.97029809991363,b,1.0,0.8621375999646261,,,,,sub-215,1,stroop_test,60.10944730330683,
,,,,9.0,9.0,0.0,,,,,,,,,,,,,gelb,yellow,g,1.0,g,1.0,0.7505988000193611,,,,,,,,,,0.0,9.0,9.0,11.0,178.98444029991515,,,,,,,,,,,,,,,,,178.97101909993216,179.78533619991504,180.6023357999511,180.5702254999196,,,,,,,,,,,,,,,,,,,,,,,,,,,,,,,,,,,180.59161839995068,180.6023357999511,180.6023357999511,181.3550884999568,g,1.0,0.7505988000193611,,,,,sub-215,1,stroop_test,60.10944730330683,
,,,,10.0,10.0,0.0,,,,,,,,,,,,,rot,red,r,1.0,r,1.0,0.708780899993144,,,,,,,,,,0.0,10.0,10.0,0.0,181.36946649989116,,,,,,,,,,,,,,,,,181.3556663999334,181.46965479990467,182.2734199999832,182.25476099993105,,,,,,,,,,,,,,,,,,,,,,,,,,,,,,,,,,,182.2620328998892,182.2734199999832,182.2734199999832,182.9895926999161,r,1.0,0.708780899993144,,,,,sub-215,1,stroop_test,60.10944730330683,
,,,,11.0,11.0,0.0,,,,,,,,,,,,,rot,yellow,g,0.0,g,1.0,1.0578166999621317,,,,,,,,,,0.0,11.0,11.0,3.0,183.0039150998928,,,,,,,,,,,,,,,,,182.9902855999535,183.1039924999932,183.90455209999345,183.8890712999273,,,,,,,,,,,,,,,,,,,,,,,,,,,,,,,,,,,183.8900091999676,183.90455209999345,183.90455209999345,184.9741063999245,g,1.0,1.0578166999621317,,,,,sub-215,1,stroop_test,60.10944730330683,
,,,,12.0,0.0,1.0,,,,,,,,,,,,,blau,blue,b,1.0,b,1.0,0.5997709000948817,,,,,,,,,,1.0,0.0,12.0,5.0,184.9886353999609,,,,,,,,,,,,,,,,,184.97482349991333,185.78934789996129,186.5921067999443,186.5743850999279,,,,,,,,,,,,,,,,,,,,,,,,,,,,,,,,,,,186.58117919997312,186.5921067999443,186.5921067999443,187.20891990000385,b,1.0,0.5997709000948817,,,,,sub-215,1,stroop_test,60.10944730330683,
,,,,13.0,1.0,1.0,,,,,,,,,,,,,gelb,red,r,0.0,r,1.0,1.4693448999896646,,,,,,,,,,1.0,1.0,13.0,8.0,187.22346149990332,,,,,,,,,,,,,,,,,187.20956089999527,187.32382329995744,188.12531679996755,188.10866429994348,,,,,,,,,,,,,,,,,,,,,,,,,,,,,,,,,,,188.114969199989,188.12531679996755,188.12531679996755,189.61058109998703,r,1.0,1.4693448999896646,,,,,sub-215,1,stroop_test,60.10944730330683,
,,,,14.0,2.0,1.0,,,,,,,,,,,,,gelb,blue,b,0.0,b,1.0,0.8856087999884039,,,,,,,,,,1.0,2.0,14.0,9.0,189.62528389994984,,,,,,,,,,,,,,,,,189.61121539992743,189.72542789997533,190.52606039994865,190.51035249989943,,,,,,,,,,,,,,,,,,,,,,,,,,,,,,,,,,,190.5112201999873,190.52606039994865,190.52606039994865,191.42852849990595,b,1.0,0.8856087999884039,,,,,sub-215,1,stroop_test,60.10944730330683,
,,,,15.0,3.0,1.0,,,,,,,,,,,,,blau,blue,b,1.0,b,1.0,0.6868769999127835,,,,,,,,,,1.0,3.0,15.0,6.0,191.44311989995185,,,,,,,,,,,,,,,,,191.4291752999416,191.54325949994384,192.34501479996837,192.3282103999518,,,,,,,,,,,,,,,,,,,,,,,,,,,,,,,,,,,192.3344793999568,192.34501479996837,192.34501479996837,193.04645099991467,b,1.0,0.6868769999127835,,,,,sub-215,1,stroop_test,60.10944730330683,
,,,,16.0,4.0,1.0,,,,,,,,,,,,,blau,red,r,0.0,r,1.0,0.8795605000341311,,,,,,,,,,1.0,4.0,16.0,4.0,193.06090809998568,,,,,,,,,,,,,,,,,193.04711239994504,194.2617279998958,195.06239069998264,195.0466492999112,,,,,,,,,,,,,,,,,,,,,,,,,,,,,,,,,,,195.04762019997,195.06239069998264,195.06239069998264,195.9482243999373,r,1.0,0.8795605000341311,,,,,sub-215,1,stroop_test,60.10944730330683,
,,,,17.0,5.0,1.0,,,,,,,,,,,,,rot,yellow,g,0.0,g,1.0,0.7164815000724047,,,,,,,,,,1.0,5.0,17.0,3.0,195.96293709997556,,,,,,,,,,,,,,,,,195.94889179989696,197.1637879000045,197.98538639990147,197.94864249997767,,,,,,,,,,,,,,,,,,,,,,,,,,,,,,,,,,,197.9745787999127,197.98538639990147,197.98538639990147,198.71682279999368,g,1.0,0.7164815000724047,,,,,sub-215,1,stroop_test,60.10944730330683,
,,,,18.0,6.0,1.0,,,,,,,,,,,,,gelb,yellow,g,1.0,g,1.0,0.4587107000406831,,,,,,,,,,1.0,6.0,18.0,11.0,198.73152029991616,,,,,,,,,,,,,,,,,198.71745679993185,199.53177899995356,200.3346282999264,200.31710699992252,,,,,,,,,,,,,,,,,,,,,,,,,,,,,,,,,,,200.32393809990023,200.3346282999264,200.3346282999264,200.80158049997408,g,1.0,0.4587107000406831,,,,,sub-215,1,stroop_test,60.10944730330683,
,,,,19.0,7.0,1.0,,,,,,,,,,,,,rot,blue,b,0.0,b,1.0,0.8536611000308767,,,,,,,,,,1.0,7.0,19.0,2.0,200.8163153999485,,,,,,,,,,,,,,,,,200.802200099919,201.61691280000375,202.4181981999427,202.40169089997653,,,,,,,,,,,,,,,,,,,,,,,,,,,,,,,,,,,202.4080183999613,202.4181981999427,202.4181981999427,203.28651379991788,b,1.0,0.8536611000308767,,,,,sub-215,1,stroop_test,60.10944730330683,
,,,,20.0,8.0,1.0,,,,,,,,,,,,,rot,red,r,1.0,r,1.0,0.5904399000573903,,,,,,,,,,1.0,8.0,20.0,1.0,203.3012257999508,,,,,,,,,,,,,,,,,203.28709959995467,204.10184119991027,204.90230739989784,204.8868358999025,,,,,,,,,,,,,,,,,,,,,,,,,,,,,,,,,,,204.8877610999625,204.90230739989784,204.90230739989784,205.5051637999713,r,1.0,0.5904399000573903,,,,,sub-215,1,stroop_test,60.10944730330683,
,,,,21.0,9.0,1.0,,,,,,,,,,,,,blau,yellow,g,0.0,g,1.0,0.7261359000112861,,,,,,,,,,1.0,9.0,21.0,7.0,205.51945159991735,,,,,,,,,,,,,,,,,205.50585919991136,206.3202130999416,207.13561409991237,207.1050217999145,,,,,,,,,,,,,,,,,,,,,,,,,,,,,,,,,,,207.12549689994196,207.13561409991237,207.13561409991237,207.87301559990735,g,1.0,0.7261359000112861,,,,,sub-215,1,stroop_test,60.10944730330683,
,,,,22.0,10.0,1.0,,,,,,,,,,,,,rot,red,r,1.0,r,1.0,0.54875479999464,,,,,,,,,,1.0,10.0,22.0,0.0,207.8878100999864,,,,,,,,,,,,,,,,,207.8739771998953,209.0887493999908,209.89392869989388,209.87321289989632,,,,,,,,,,,,,,,,,,,,,,,,,,,,,,,,,,,209.8826144998893,209.89392869989388,209.89392869989388,210.4578707999317,r,1.0,0.54875479999464,,,,,sub-215,1,stroop_test,60.10944730330683,
,,,,23.0,11.0,1.0,,,,,,,,,,,,,gelb,yellow,g,1.0,g,1.0,0.7698052999330685,,,,,,,,,,1.0,11.0,23.0,10.0,210.4728585999692,,,,,,,,,,,,,,,,,210.45843749993944,210.5728391999146,211.37348299997396,211.35685789992567,,,,,,,,,,,,,,,,,,,,,,,,,,,,,,,,,,,211.36033269995824,211.37348299997396,211.37348299997396,212.15795049990996,g,1.0,0.7698052999330685,,,,,sub-215,1,stroop_test,60.10944730330683,
,,,,24.0,0.0,2.0,,,,,,,,,,,,,blau,blue,b,1.0,b,1.0,0.7252029000082985,,,,,,,,,,2.0,0.0,24.0,5.0,212.1735246999888,,,,,,,,,,,,,,,,,212.1583344999235,212.2569684999762,213.05753849993928,213.0415340999607,,,,,,,,,,,,,,,,,,,,,,,,,,,,,,,,,,,213.044145999942,213.05753849993928,213.05753849993928,213.79240229993596,b,1.0,0.7252029000082985,,,,,sub-215,1,stroop_test,60.10944730330683,
,,,,25.0,1.0,2.0,,,,,,,,,,,,,blau,red,r,0.0,r,1.0,1.001088000019081,,,,,,,,,,2.0,1.0,25.0,4.0,213.8079628999112,,,,,,,,,,,,,,,,,213.79274529998656,213.89170899998865,214.6924739999231,214.67681059997997,,,,,,,,,,,,,,,,,,,,,,,,,,,,,,,,,,,214.6775632998906,214.6924739999231,214.6924739999231,215.6955421000021,r,1.0,1.001088000019081,,,,,sub-215,1,stroop_test,60.10944730330683,
,,,,26.0,2.0,2.0,,,,,,,,,,,,,gelb,yellow,g,1.0,g,1.0,0.5706845000386238,,,,,,,,,,2.0,2.0,26.0,10.0,215.7098135999404,,,,,,,,,,,,,,,,,215.69615089998115,216.51040419994388,217.3121484000003,217.2955192999216,,,,,,,,,,,,,,,,,,,,,,,,,,,,,,,,,,,217.30175210000016,217.3121484000003,217.3121484000003,217.89682809996884,g,1.0,0.5706845000386238,,,,,sub-215,1,stroop_test,60.10944730330683,
,,,,27.0,3.0,2.0,,,,,,,,,,,,,rot,yellow,g,0.0,g,1.0,0.594631899963133,,,,,,,,,,2.0,3.0,27.0,3.0,217.91128099989143,,,,,,,,,,,,,,,,,217.89747239998545,218.7119376999326,219.5282391998917,219.49681539996527,,,,,,,,,,,,,,,,,,,,,,,,,,,,,,,,,,,219.51791850000157,219.5282391998917,219.5282391998917,220.1313547999598,g,1.0,0.594631899963133,,,,,sub-215,1,stroop_test,60.10944730330683,
,,,,28.0,4.0,2.0,,,,,,,,,,,,,rot,red,r,1.0,r,1.0,0.8362822000635788,,,,,,,,,,2.0,4.0,28.0,1.0,220.14605029998347,,,,,,,,,,,,,,,,,220.1319636999397,220.4963716999628,221.2969758999534,221.281378799933,,,,,,,,,,,,,,,,,,,,,,,,,,,,,,,,,,,221.2822030999232,221.2969758999534,221.2969758999534,222.1498747000005,r,1.0,0.8362822000635788,,,,,sub-215,1,stroop_test,60.10944730330683,
,,,,29.0,5.0,2.0,,,,,,,,,,,,,rot,blue,b,0.0,b,1.0,0.8575083999894559,,,,,,,,,,2.0,5.0,29.0,2.0,222.16418429999607,,,,,,,,,,,,,,,,,222.15057539998088,222.9648648999864,223.7654236999806,223.7499106999021,,,,,,,,,,,,,,,,,,,,,,,,,,,,,,,,,,,223.7507967998972,223.7654236999806,223.7654236999806,224.63467449997552,b,1.0,0.8575083999894559,,,,,sub-215,1,stroop_test,60.10944730330683,
,,,,30.0,6.0,2.0,,,,,,,,,,,,,gelb,blue,b,0.0,r,0.0,1.4924778999993578,,,,,,,,,,2.0,6.0,30.0,9.0,224.64920529990923,,,,,,,,,,,,,,,,,224.63535269990095,225.44972759997472,226.25149769999555,226.2347029999364,,,,,,,,,,,,,,,,,,,,,,,,,,,,,,,,,,,226.24134670000055,226.25149769999555,226.25149769999555,227.75347070000132,r,0.0,1.4924778999993578,,,,,sub-215,1,stroop_test,60.10944730330683,
,,,,31.0,7.0,2.0,,,,,,,,,,,,,rot,red,r,1.0,r,1.0,0.6188663999782875,,,,,,,,,,2.0,7.0,31.0,0.0,227.76818239991556,,,,,,,,,,,,,,,,,227.75410589994863,228.1183516999008,228.92399539996404,228.90313579991928,,,,,,,,,,,,,,,,,,,,,,,,,,,,,,,,,,,228.91294749989171,228.92399539996404,228.92399539996404,229.55468469997868,r,1.0,0.6188663999782875,,,,,sub-215,1,stroop_test,60.10944730330683,
,,,,32.0,8.0,2.0,,,,,,,,,,,,,blau,yellow,g,0.0,g,1.0,1.04154930007644,,,,,,,,,,2.0,8.0,32.0,7.0,229.56931479997,,,,,,,,,,,,,,,,,229.5553288999945,230.3698492998956,231.1726063999813,231.15499349997845,,,,,,,,,,,,,,,,,,,,,,,,,,,,,,,,,,,231.16184459999204,231.1726063999813,231.1726063999813,232.22349439992104,g,1.0,1.04154930007644,,,,,sub-215,1,stroop_test,60.10944730330683,
,,,,33.0,9.0,2.0,,,,,,,,,,,,,blau,blue,b,1.0,b,1.0,0.7356051999377087,,,,,,,,,,2.0,9.0,33.0,6.0,232.23775839991868,,,,,,,,,,,,,,,,,232.2241946998984,232.337861899985,233.1383976999205,233.12292639992663,,,,,,,,,,,,,,,,,,,,,,,,,,,,,,,,,,,233.12384079990443,233.1383976999205,233.1383976999205,233.8911780999042,b,1.0,0.7356051999377087,,,,,sub-215,1,stroop_test,60.10944730330683,
,,,,34.0,10.0,2.0,,,,,,,,,,,,,gelb,yellow,g,1.0,g,1.0,0.4453554999781772,,,,,,,,,,2.0,10.0,34.0,11.0,233.90555729996413,,,,,,,,,,,,,,,,,233.8919219999807,234.70606679993216,235.508191299974,235.49106309993655,,,,,,,,,,,,,,,,,,,,,,,,,,,,,,,,,,,235.4977724999189,235.508191299974,235.508191299974,235.95905899989884,g,1.0,0.4453554999781772,,,,,sub-215,1,stroop_test,60.10944730330683,
,,,,35.0,11.0,2.0,,,,,,,,,,,,,gelb,red,r,0.0,r,1.0,0.8797571000177413,,,,,,,,,,2.0,11.0,35.0,8.0,235.973843799904,,,,,,,,,,,,,,,,,235.9596906999359,236.07382269995287,236.8742615999654,236.85875589994248,,,,,,,,,,,,,,,,,,,,,,,,,,,,,,,,,,,236.8596937999828,236.8742615999654,236.8742615999654,237.7602144998964,r,1.0,0.8797571000177413,,,,,sub-215,1,stroop_test,60.10944730330683,
,,,,36.0,0.0,3.0,,,,,,,,,,,,,gelb,yellow,g,1.0,g,1.0,0.5679145000176504,,,,,,,,,,3.0,0.0,36.0,10.0,237.77473069995176,,,,,,,,,,,,,,,,,237.76088809990324,237.8750701999525,238.67564649996348,238.6600261999993,,,,,,,,,,,,,,,,,,,,,,,,,,,,,,,,,,,238.66098239994608,238.67564649996348,238.67564649996348,239.26120419998188,g,1.0,0.5679145000176504,,,,,sub-215,1,stroop_test,60.10944730330683,
,,,,37.0,1.0,3.0,,,,,,,,,,,,,gelb,yellow,g,1.0,g,1.0,0.4468667999608442,,,,,,,,,,3.0,1.0,37.0,11.0,239.2757915999973,,,,,,,,,,,,,,,,,239.26189789990892,239.6260775999399,240.42672419990413,240.41095039993525,,,,,,,,,,,,,,,,,,,,,,,,,,,,,,,,,,,240.41163579991556,240.42672419990413,240.42672419990413,240.87917779991403,g,1.0,0.4468667999608442,,,,,sub-215,1,stroop_test,60.10944730330683,
,,,,38.0,2.0,3.0,,,,,,,,,,,,,gelb,red,r,0.0,r,1.0,0.6897529000416398,,,,,,,,,,3.0,2.0,38.0,8.0,240.89375719998495,,,,,,,,,,,,,,,,,240.8798824999249,241.24376569991,242.04456079995725,242.02912719990127,,,,,,,,,,,,,,,,,,,,,,,,,,,,,,,,,,,242.03017409995664,242.04456079995725,242.04456079995725,242.74725319992285,r,1.0,0.6897529000416398,,,,,sub-215,1,stroop_test,60.10944730330683,
,,,,39.0,3.0,3.0,,,,,,,,,,,,,rot,red,r,1.0,r,1.0,0.4376126000424847,,,,,,,,,,3.0,3.0,39.0,0.0,242.7614926999668,,,,,,,,,,,,,,,,,242.74794039991684,243.9624225998996,244.7666215999052,244.7475570999086,,,,,,,,,,,,,,,,,,,,,,,,,,,,,,,,,,,244.7549630999565,244.7666215999052,244.7666215999052,245.2151179999346,r,1.0,0.4376126000424847,,,,,sub-215,1,stroop_test,60.10944730330683,
,,,,40.0,4.0,3.0,,,,,,,,,,,,,gelb,blue,b,0.0,b,1.0,0.5488349000224844,,,,,,,,,,3.0,4.0,40.0,9.0,245.230144299916,,,,,,,,,,,,,,,,,245.21568189992104,245.3300723999273,246.13452359999064,246.11510539997835,,,,,,,,,,,,,,,,,,,,,,,,,,,,,,,,,,,246.12288659997284,246.13452359999064,246.13452359999064,246.69994949991812,b,1.0,0.5488349000224844,,,,,sub-215,1,stroop_test,60.10944730330683,
,,,,41.0,5.0,3.0,,,,,,,,,,,,,rot,blue,b,0.0,b,1.0,0.5334931000834331,,,,,,,,,,3.0,5.0,41.0,2.0,246.71446069993544,,,,,,,,,,,,,,,,,246.70060039998495,247.9152961999644,248.7191461999901,248.7003204999492,,,,,,,,,,,,,,,,,,,,,,,,,,,,,,,,,,,248.707698199898,248.7191461999901,248.7191461999901,249.26806439994837,b,1.0,0.5334931000834331,,,,,sub-215,1,stroop_test,60.10944730330683,
,,,,42.0,6.0,3.0,,,,,,,,,,,,,blau,yellow,g,0.0,g,1.0,0.9571704000700264,,,,,,,,,,3.0,6.0,42.0,7.0,249.28280319995247,,,,,,,,,,,,,,,,,249.26870829996187,250.4835234999191,251.28574589989148,251.2687671999447,,,,,,,,,,,,,,,,,,,,,,,,,,,,,,,,,,,251.27521579992023,251.28574589989148,251.28574589989148,252.25364689994603,g,1.0,0.9571704000700264,,,,,sub-215,1,stroop_test,60.10944730330683,
,,,,43.0,7.0,3.0,,,,,,,,,,,,,blau,red,r,0.0,r,1.0,0.955282799899578,,,,,,,,,,3.0,7.0,43.0,4.0,252.26822139997967,,,,,,,,,,,,,,,,,252.25427199993285,252.36839379998852,253.1687814999605,253.1533325999044,,,,,,,,,,,,,,,,,,,,,,,,,,,,,,,,,,,253.15427109994928,253.1687814999605,253.1687814999605,254.13838069990743,r,1.0,0.955282799899578,,,,,sub-215,1,stroop_test,60.10944730330683,
,,,,44.0,8.0,3.0,,,,,,,,,,,,,rot,red,r,1.0,r,1.0,0.5730835000285879,,,,,,,,,,3.0,8.0,44.0,1.0,254.15266939997676,,,,,,,,,,,,,,,,,254.1391099999892,255.35355729993896,256.17222700000275,256.1385257999645,,,,,,,,,,,,,,,,,,,,,,,,,,,,,,,,,,,256.14614059997257,256.17222700000275,256.17222700000275,256.7566469999729,r,1.0,0.5730835000285879,,,,,sub-215,1,stroop_test,60.10944730330683,
,,,,45.0,9.0,3.0,,,,,,,,,,,,,rot,yellow,g,0.0,g,1.0,0.76261960004922,,,,,,,,,,3.0,9.0,45.0,3.0,256.77131300000474,,,,,,,,,,,,,,,,,256.7572871999582,257.12160179996863,257.9221473999787,257.9066165999975,,,,,,,,,,,,,,,,,,,,,,,,,,,,,,,,,,,257.9075880999444,257.9221473999787,257.9221473999787,258.69142079993617,g,1.0,0.76261960004922,,,,,sub-215,1,stroop_test,60.10944730330683,
,,,,46.0,10.0,3.0,,,,,,,,,,,,,blau,blue,b,1.0,b,1.0,0.6453830000245944,,,,,,,,,,3.0,10.0,46.0,5.0,258.7059461999452,,,,,,,,,,,,,,,,,258.6921541999327,258.8059023999376,259.60835929994937,259.59106369991787,,,,,,,,,,,,,,,,,,,,,,,,,,,,,,,,,,,259.59767469996586,259.60835929994937,259.60835929994937,260.25910389993805,b,1.0,0.6453830000245944,,,,,sub-215,1,stroop_test,60.10944730330683,
,,,,47.0,11.0,3.0,,,,,,,,,,,,,blau,blue,b,1.0,b,1.0,0.5200268999906257,,,,,,,,,,3.0,11.0,47.0,6.0,260.2736836998956,,,,,,,,,,,,,,,,,260.25973339995835,260.3738830999937,261.1742771998979,261.158955699997,,,,,,,,,,,,,,,,,,,,,,,,,,,,,,,,,,,261.1599515998969,261.1742771998979,261.1742771998979,261.7099782999139,b,1.0,0.5200268999906257,,,,,sub-215,1,stroop_test,60.10944730330683,
,,,,48.0,0.0,4.0,,,,,,,,,,,,,rot,blue,b,0.0,b,1.0,0.4805877000326291,,,,,,,,,,4.0,0.0,48.0,2.0,261.72455569996964,,,,,,,,,,,,,,,,,261.7106530999299,262.07481259992346,262.8937205999391,262.8597910999088,,,,,,,,,,,,,,,,,,,,,,,,,,,,,,,,,,,262.8824896999868,262.8937205999391,262.8937205999391,263.37805899989326,b,1.0,0.4805877000326291,,,,,sub-215,1,stroop_test,60.10944730330683,
,,,,49.0,1.0,4.0,,,,,,,,,,,,,blau,red,r,0.0,r,1.0,0.5889293000800535,,,,,,,,,,4.0,1.0,49.0,4.0,263.39261629991233,,,,,,,,,,,,,,,,,263.3786745999241,263.7427701998968,264.54492949997075,264.5276533999713,,,,,,,,,,,,,,,,,,,,,,,,,,,,,,,,,,,264.5343295999337,264.54492949997075,264.54492949997075,265.14572169992607,r,1.0,0.5889293000800535,,,,,sub-215,1,stroop_test,60.10944730330683,
,,,,50.0,2.0,4.0,,,,,,,,,,,,,blau,blue,b,1.0,b,1.0,0.6340511000016704,,,,,,,,,,4.0,2.0,50.0,5.0,265.1603360999143,,,,,,,,,,,,,,,,,265.1463481999235,265.5106872000033,266.3112794999033,266.2955101999687,,,,,,,,,,,,,,,,,,,,,,,,,,,,,,,,,,,266.2964565999573,266.3112794999033,266.3112794999033,266.94745199999306,b,1.0,0.6340511000016704,,,,,sub-215,1,stroop_test,60.10944730330683,
,,,,51.0,3.0,4.0,,,,,,,,,,,,,gelb,blue,b,0.0,b,1.0,0.5205281999660656,,,,,,,,,,4.0,3.0,51.0,9.0,266.9615280999569,,,,,,,,,,,,,,,,,266.94812009995803,267.3117641999852,268.113556999946,268.096790599986,,,,,,,,,,,,,,,,,,,,,,,,,,,,,,,,,,,268.10326709994115,268.113556999946,268.113556999946,268.6472847999539,b,1.0,0.5205281999660656,,,,,sub-215,1,stroop_test,60.10944730330683,
,,,,52.0,4.0,4.0,,,,,,,,,,,,,rot,red,r,1.0,r,1.0,0.5855288000311702,,,,,,,,,,4.0,4.0,52.0,1.0,268.662508099922,,,,,,,,,,,,,,,,,268.64762649999466,268.762431299896,269.5684907999821,269.54806469997857,,,,,,,,,,,,,,,,,,,,,,,,,,,,,,,,,,,269.5567125999369,269.5684907999821,269.5684907999821,270.166032899986,r,1.0,0.5855288000311702,,,,,sub-215,1,stroop_test,60.10944730330683,
,,,,53.0,5.0,4.0,,,,,,,,,,,,,rot,yellow,g,0.0,g,1.0,0.5437180999433622,,,,,,,,,,4.0,5.0,53.0,3.0,270.1802978999913,,,,,,,,,,,,,,,,,270.16669879993424,270.28065089997835,271.0811794999754,271.0655207999516,,,,,,,,,,,,,,,,,,,,,,,,,,,,,,,,,,,271.06626979995053,271.0811794999754,271.0811794999754,271.6332928999327,g,1.0,0.5437180999433622,,,,,sub-215,1,stroop_test,60.10944730330683,
,,,,54.0,6.0,4.0,,,,,,,,,,,,,blau,blue,b,1.0,b,1.0,0.6353410999290645,,,,,,,,,,4.0,6.0,54.0,6.0,271.6480671999743,,,,,,,,,,,,,,,,,271.6338269999251,271.7482817999553,272.5487548999954,272.5330294999294,,,,,,,,,,,,,,,,,,,,,,,,,,,,,,,,,,,272.53836199990474,272.5487548999954,272.5487548999954,273.201177299954,b,1.0,0.6353410999290645,,,,,sub-215,1,stroop_test,60.10944730330683,
,,,,55.0,7.0,4.0,,,,,,,,,,,,,gelb,red,r,0.0,r,1.0,1.313160700025037,,,,,,,,,,4.0,7.0,55.0,8.0,273.2158563999692,,,,,,,,,,,,,,,,,273.2017772999825,274.416663199896,275.2210039999336,275.2018796999473,,,,,,,,,,,,,,,,,,,,,,,,,,,,,,,,,,,275.2097750999965,275.2210039999336,275.2210039999336,276.5370190999238,r,1.0,1.313160700025037,,,,,sub-215,1,stroop_test,60.10944730330683,
,,,,56.0,8.0,4.0,,,,,,,,,,,,,gelb,yellow,g,1.0,g,1.0,0.601694899960421,,,,,,,,,,4.0,8.0,56.0,11.0,276.55157619994134,,,,,,,,,,,,,,,,,276.5376370999729,277.35204099991824,278.15259229997173,278.13708649994805,,,,,,,,,,,,,,,,,,,,,,,,,,,,,,,,,,,278.13797079992946,278.15259229997173,278.15259229997173,278.7715764999157,g,1.0,0.601694899960421,,,,,sub-215,1,stroop_test,60.10944730330683,
,,,,57.0,9.0,4.0,,,,,,,,,,,,,blau,yellow,g,0.0,g,1.0,0.845208500046283,,,,,,,,,,4.0,9.0,57.0,7.0,278.7864190998953,,,,,,,,,,,,,,,,,278.7722530999454,279.5868440999184,280.3894425999606,280.3718735999428,,,,,,,,,,,,,,,,,,,,,,,,,,,,,,,,,,,280.3785765999928,280.3894425999606,280.3894425999606,281.2399970999686,g,1.0,0.845208500046283,,,,,sub-215,1,stroop_test,60.10944730330683,
,,,,58.0,10.0,4.0,,,,,,,,,,,,,gelb,yellow,g,1.0,g,1.0,0.4076798999449238,,,,,,,,,,4.0,10.0,58.0,10.0,281.2548197999131,,,,,,,,,,,,,,,,,281.2408148999093,282.0554049999919,282.8573477999307,282.84041589999106,,,,,,,,,,,,,,,,,,,,,,,,,,,,,,,,,,,282.84649099991657,282.8573477999307,282.8573477999307,283.27482359996065,g,1.0,0.4076798999449238,,,,,sub-215,1,stroop_test,60.10944730330683,
,,,,59.0,11.0,4.0,,,,,,,,,,,,,rot,red,r,1.0,r,1.0,0.5443337999749929,,,,,,,,,,4.0,11.0,59.0,0.0,283.2894205999328,,,,,,,,,,,,,,,,,283.27549369994085,283.639689899981,284.4598932999652,284.42475909995846,,,,,,,,,,,,,,,,,,,,,,,,,,,,,,,,,,,284.44792159995995,284.4598932999652,284.4598932999652,285.0095663999673,r,1.0,0.5443337999749929,,,,,sub-215,1,stroop_test,60.10944730330683,
,,,,60.0,0.0,5.0,,,,,,,,,,,,,gelb,yellow,g,1.0,g,1.0,0.4661062000086531,,,,,,,,,,5.0,0.0,60.0,11.0,285.02397869993,,,,,,,,,,,,,,,,,285.01021899993066,286.224742099992,287.0277696999256,287.0098398999544,,,,,,,,,,,,,,,,,,,,,,,,,,,,,,,,,,,287.0170849999413,287.0277696999256,287.0277696999256,287.5104858999839,g,1.0,0.4661062000086531,,,,,sub-215,1,stroop_test,60.10944730330683,
,,,,61.0,1.0,5.0,,,,,,,,,,,,,gelb,red,r,0.0,r,1.0,0.5932796000270173,,,,,,,,,,5.0,1.0,61.0,8.0,287.5256251998944,,,,,,,,,,,,,,,,,287.51094219996594,288.7097472999012,289.5104741998948,289.4947594999103,,,,,,,,,,,,,,,,,,,,,,,,,,,,,,,,,,,289.495848499937,289.5104741998948,289.5104741998948,290.11284719989635,r,1.0,0.5932796000270173,,,,,sub-215,1,stroop_test,60.10944730330683,
,,,,62.0,2.0,5.0,,,,,,,,,,,,,gelb,blue,b,0.0,b,1.0,0.605720299994573,,,,,,,,,,5.0,2.0,62.0,9.0,290.12761789991055,,,,,,,,,,,,,,,,,290.1135318999877,290.9280075998977,291.7286448999075,291.7131106999004,,,,,,,,,,,,,,,,,,,,,,,,,,,,,,,,,,,291.71403659996577,291.7286448999075,291.7286448999075,292.3477834999794,b,1.0,0.605720299994573,,,,,sub-215,1,stroop_test,60.10944730330683,
,,,,63.0,3.0,5.0,,,,,,,,,,,,,rot,yellow,g,0.0,g,1.0,1.00665650004521,,,,,,,,,,5.0,3.0,63.0,3.0,292.3623917999212,,,,,,,,,,,,,,,,,292.34848219994456,292.71256419993006,293.5171120999148,293.4975885999156,,,,,,,,,,,,,,,,,,,,,,,,,,,,,,,,,,,293.5060318999458,293.5171120999148,293.5171120999148,294.5327717999462,g,1.0,1.00665650004521,,,,,sub-215,1,stroop_test,60.10944730330683,
,,,,64.0,4.0,5.0,,,,,,,,,,,,,rot,red,r,1.0,r,1.0,0.6369147000368685,,,,,,,,,,5.0,4.0,64.0,1.0,294.5472162999213,,,,,,,,,,,,,,,,,294.5334421999287,294.89754319994245,295.698090699967,295.6823437999701,,,,,,,,,,,,,,,,,,,,,,,,,,,,,,,,,,,295.6832699999213,295.698090699967,295.698090699967,296.35062399995513,r,1.0,0.6369147000368685,,,,,sub-215,1,stroop_test,60.10944730330683,
,,,,65.0,5.0,5.0,,,,,,,,,,,,,rot,blue,b,0.0,b,1.0,0.6699122000718489,,,,,,,,,,5.0,5.0,65.0,2.0,296.36519149993546,,,,,,,,,,,,,,,,,296.3513143999735,297.1655690999469,297.9663287999574,297.9507598999189,,,,,,,,,,,,,,,,,,,,,,,,,,,,,,,,,,,297.95172329992056,297.9663287999574,297.9663287999574,298.6521367999958,b,1.0,0.6699122000718489,,,,,sub-215,1,stroop_test,60.10944730330683,
,,,,66.0,6.0,5.0,,,,,,,,,,,,,blau,blue,b,1.0,b,1.0,0.5658065000316128,,,,,,,,,,5.0,6.0,66.0,6.0,298.66653189994395,,,,,,,,,,,,,,,,,298.6528536999831,298.7667259000009,299.56985239998903,299.55199299997184,,,,,,,,,,,,,,,,,,,,,,,,,,,,,,,,,,,299.55877829995006,299.56985239998903,299.56985239998903,300.15331329999026,b,1.0,0.5658065000316128,,,,,sub-215,1,stroop_test,60.10944730330683,
,,,,67.0,7.0,5.0,,,,,,,,,,,,,blau,red,r,0.0,r,1.0,0.9164341998985036,,,,,,,,,,5.0,7.0,67.0,4.0,300.16778619994875,,,,,,,,,,,,,,,,,300.15395519998856,300.96837489993777,301.7688864999218,301.7532197999535,,,,,,,,,,,,,,,,,,,,,,,,,,,,,,,,,,,301.75415029993746,301.7688864999218,301.7688864999218,302.6883813999593,r,1.0,0.9164341998985036,,,,,sub-215,1,stroop_test,60.10944730330683,
,,,,68.0,8.0,5.0,,,,,,,,,,,,,blau,yellow,g,0.0,g,1.0,0.5117728000041097,,,,,,,,,,5.0,8.0,68.0,7.0,302.70281879999675,,,,,,,,,,,,,,,,,302.6889925999567,303.9037513999501,304.7044744999148,304.6887259999057,,,,,,,,,,,,,,,,,,,,,,,,,,,,,,,,,,,304.68959919991903,304.7044744999148,304.7044744999148,305.223402399919,g,1.0,0.5117728000041097,,,,,sub-215,1,stroop_test,60.10944730330683,
,,,,69.0,9.0,5.0,,,,,,,,,,,,,rot,red,r,1.0,r,1.0,0.5132736000232399,,,,,,,,,,5.0,9.0,69.0,0.0,305.23779469996225,,,,,,,,,,,,,,,,,305.22401649993844,306.0384520998923,306.8425183999352,306.8233760999283,,,,,,,,,,,,,,,,,,,,,,,,,,,,,,,,,,,306.83075709990226,306.8425183999352,306.8425183999352,307.35810989991296,r,1.0,0.5132736000232399,,,,,sub-215,1,stroop_test,60.10944730330683,
,,,,70.0,10.0,5.0,,,,,,,,,,,,,gelb,yellow,g,1.0,g,1.0,0.5672937999479473,,,,,,,,,,5.0,10.0,70.0,10.0,307.37261829990894,,,,,,,,,,,,,,,,,307.35871459997725,308.57347839989234,309.37765749997925,309.35851049993653,,,,,,,,,,,,,,,,,,,,,,,,,,,,,,,,,,,309.3653760999441,309.37765749997925,309.37765749997925,309.9601053999504,g,1.0,0.5672937999479473,,,,,sub-215,1,stroop_test,60.10944730330683,
,,,,71.0,11.0,5.0,,,,,,,,,,,,,blau,blue,b,1.0,b,1.0,0.5465683999937028,,,,,,,,,,5.0,11.0,71.0,5.0,309.9743373999372,,,,,,,,,,,,,,,,,309.96076499996707,310.32460669998545,311.1285766999936,311.1098132999614,,,,,,,,,,,,,,,,,,,,,,,,,,,,,,,,,,,311.1171518999617,311.1285766999936,311.1285766999936,311.6779800999211,b,1.0,0.5465683999937028,,,,,sub-215,1,stroop_test,60.10944730330683,
,,,,72.0,0.0,6.0,,,,,,,,,,,,,gelb,blue,b,0.0,b,1.0,0.6594500000355765,,,,,,,,,,6.0,0.0,72.0,9.0,311.692475299933,,,,,,,,,,,,,,,,,311.67861699999776,312.8931381999282,313.69531929993536,313.6781793999253,,,,,,,,,,,,,,,,,,,,,,,,,,,,,,,,,,,313.68474419997074,313.69531929993536,313.69531929993536,314.3628729999764,b,1.0,0.6594500000355765,,,,,sub-215,1,stroop_test,60.10944730330683,
,,,,73.0,1.0,6.0,,,,,,,,,,,,,rot,red,r,1.0,r,1.0,0.5531771000241861,,,,,,,,,,6.0,1.0,73.0,0.0,314.37741949991323,,,,,,,,,,,,,,,,,314.3635676999111,315.578274999978,316.3829619999742,316.36327079997864,,,,,,,,,,,,,,,,,,,,,,,,,,,,,,,,,,,316.37075179989915,316.3829619999742,316.3829619999742,316.9479651999427,r,1.0,0.5531771000241861,,,,,sub-215,1,stroop_test,60.10944730330683,
,,,,74.0,2.0,6.0,,,,,,,,,,,,,blau,yellow,g,0.0,g,1.0,1.181546700070612,,,,,,,,,,6.0,2.0,74.0,7.0,316.96261049993336,,,,,,,,,,,,,,,,,316.9486060999334,317.3128971999977,318.1142646999797,318.0978450999828,,,,,,,,,,,,,,,,,,,,,,,,,,,,,,,,,,,318.10398609994445,318.1142646999797,318.1142646999797,319.29974179994315,g,1.0,1.181546700070612,,,,,sub-215,1,stroop_test,60.10944730330683,
,,,,75.0,3.0,6.0,,,,,,,,,,,,,rot,red,r,1.0,r,1.0,0.5470675000688061,,,,,,,,,,6.0,3.0,75.0,1.0,319.3142020999221,,,,,,,,,,,,,,,,,319.3003605999984,319.664455799968,320.46862539998256,320.4495386999333,,,,,,,,,,,,,,,,,,,,,,,,,,,,,,,,,,,320.45782379992306,320.46862539998256,320.46862539998256,321.0178186999401,r,1.0,0.5470675000688061,,,,,sub-215,1,stroop_test,60.10944730330683,
,,,,76.0,4.0,6.0,,,,,,,,,,,,,gelb,yellow,g,1.0,g,1.0,0.6787905999226496,,,,,,,,,,6.0,4.0,76.0,10.0,321.0320152998902,,,,,,,,,,,,,,,,,321.0184773999499,321.8325026999228,322.6365242999745,322.6175928999437,,,,,,,,,,,,,,,,,,,,,,,,,,,,,,,,,,,322.6253725999268,322.6365242999745,322.6365242999745,323.3190276999958,g,1.0,0.6787905999226496,,,,,sub-215,1,stroop_test,60.10944730330683,
,,,,77.0,5.0,6.0,,,,,,,,,,,,,blau,red,r,0.0,r,1.0,0.9577938999282196,,,,,,,,,,6.0,5.0,77.0,4.0,323.3336427999893,,,,,,,,,,,,,,,,,323.3196538999909,324.1342529999092,324.93694199994206,324.9190726999659,,,,,,,,,,,,,,,,,,,,,,,,,,,,,,,,,,,324.92595009994693,324.93694199994206,324.93694199994206,325.90418239997234,r,1.0,0.9577938999282196,,,,,sub-215,1,stroop_test,60.10944730330683,
,,,,78.0,6.0,6.0,,,,,,,,,,,,,blau,blue,b,1.0,b,1.0,0.6256905999034643,,,,,,,,,,6.0,6.0,78.0,6.0,325.91871729993727,,,,,,,,,,,,,,,,,325.9048155999044,326.7193819999229,327.51995799993165,327.50425379991066,,,,,,,,,,,,,,,,,,,,,,,,,,,,,,,,,,,327.5051659999881,327.51995799993165,327.51995799993165,328.15581079991534,b,1.0,0.6256905999034643,,,,,sub-215,1,stroop_test,60.10944730330683,
,,,,79.0,7.0,6.0,,,,,,,,,,,,,gelb,yellow,g,1.0,r,0.0,0.8216485000448301,,,,,,,,,,6.0,7.0,79.0,11.0,328.1701533999294,,,,,,,,,,,,,,,,,328.15647960000206,328.52058329992,329.323344299919,329.3057215999579,,,,,,,,,,,,,,,,,,,,,,,,,,,,,,,,,,,329.3123488998972,329.323344299919,329.323344299919,330.1570727999788,r,0.0,0.8216485000448301,,,,,sub-215,1,stroop_test,60.10944730330683,
,,,,80.0,8.0,6.0,,,,,,,,,,,,,rot,yellow,g,0.0,r,0.0,1.1888068000553176,,,,,,,,,,6.0,8.0,80.0,3.0,330.1715302999364,,,,,,,,,,,,,,,,,330.15773979993537,330.52183559990954,331.3258006999968,331.30712559993844,,,,,,,,,,,,,,,,,,,,,,,,,,,,,,,,,,,331.3150569999125,331.3258006999968,331.3258006999968,332.52553849993274,r,0.0,1.1888068000553176,,,,,sub-215,1,stroop_test,60.10944730330683,
,,,,81.0,9.0,6.0,,,,,,,,,,,,,rot,blue,b,0.0,b,1.0,0.9455459000309928,,,,,,,,,,6.0,9.0,81.0,2.0,332.5398205999518,,,,,,,,,,,,,,,,,332.52621369995177,332.6399792999728,333.4406245999271,333.4251455999911,,,,,,,,,,,,,,,,,,,,,,,,,,,,,,,,,,,333.42607789998874,333.4406245999271,333.4406245999271,334.3934700998944,b,1.0,0.9455459000309928,,,,,sub-215,1,stroop_test,60.10944730330683,
,,,,82.0,10.0,6.0,,,,,,,,,,,,,blau,blue,b,1.0,b,1.0,0.5432209999999031,,,,,,,,,,6.0,10.0,82.0,5.0,334.4078416998964,,,,,,,,,,,,,,,,,334.394200699986,335.2084557999624,336.01212019997183,335.9934649999486,,,,,,,,,,,,,,,,,,,,,,,,,,,,,,,,,,,336.001751499949,336.01212019997183,336.01212019997183,336.5618073999649,b,1.0,0.5432209999999031,,,,,sub-215,1,stroop_test,60.10944730330683,
,,,,83.0,11.0,6.0,,,,,,,,,,,,,gelb,red,r,0.0,r,1.0,1.0446816999465227,,,,,,,,,,6.0,11.0,83.0,8.0,336.57605349994265,,,,,,,,,,,,,,,,,336.56242249999195,336.9262430999661,337.7299235999817,337.71135909995064,,,,,,,,,,,,,,,,,,,,,,,,,,,,,,,,,,,337.7189447999699,337.7299235999817,337.7299235999817,338.7795969999861,r,1.0,1.0446816999465227,,,,,sub-215,1,stroop_test,60.10944730330683,
,,,,84.0,0.0,7.0,,,,,,,,,,,,,rot,red,r,1.0,r,1.0,1.102477699983865,,,,,,,,,,7.0,0.0,84.0,0.0,338.7942133999896,,,,,,,,,,,,,,,,,338.7802139999112,339.14463999995496,339.9627100999933,339.92946639994625,,,,,,,,,,,,,,,,,,,,,,,,,,,,,,,,,,,339.95117039990146,339.9627100999933,339.9627100999933,341.08117549994495,r,1.0,1.102477699983865,,,,,sub-215,1,stroop_test,60.10944730330683,
,,,,85.0,1.0,7.0,,,,,,,,,,,,,rot,yellow,g,0.0,g,1.0,0.6691632999572903,,,,,,,,,,7.0,1.0,85.0,3.0,341.0958391999593,,,,,,,,,,,,,,,,,341.0818024999462,341.1960573999677,341.9965030999156,341.98098859994207,,,,,,,,,,,,,,,,,,,,,,,,,,,,,,,,,,,341.9818467999576,341.9965030999156,341.9965030999156,342.68225029995665,g,1.0,0.6691632999572903,,,,,sub-215,1,stroop_test,60.10944730330683,
,,,,86.0,2.0,7.0,,,,,,,,,,,,,blau,yellow,g,0.0,g,1.0,0.4187580000143498,,,,,,,,,,7.0,2.0,86.0,7.0,342.6968283999013,,,,,,,,,,,,,,,,,342.68293879996054,343.49754579993896,344.2976345999632,344.2814592999639,,,,,,,,,,,,,,,,,,,,,,,,,,,,,,,,,,,344.28396129992325,344.2976345999632,344.2976345999632,344.73369209992234,g,1.0,0.4187580000143498,,,,,sub-215,1,stroop_test,60.10944730330683,
,,,,87.0,3.0,7.0,,,,,,,,,,,,,blau,blue,b,1.0,b,1.0,0.5464435999747366,,,,,,,,,,7.0,3.0,87.0,6.0,344.7483166999882,,,,,,,,,,,,,,,,,344.73444289993495,345.0985246999189,345.89924669999164,345.8836274999194,,,,,,,,,,,,,,,,,,,,,,,,,,,,,,,,,,,345.8845119999023,345.89924669999164,345.89924669999164,346.45174169994425,b,1.0,0.5464435999747366,,,,,sub-215,1,stroop_test,60.10944730330683,
,,,,88.0,4.0,7.0,,,,,,,,,,,,,gelb,yellow,g,1.0,g,1.0,0.5671136999735609,,,,,,,,,,7.0,4.0,88.0,10.0,346.4661795999855,,,,,,,,,,,,,,,,,346.45237119996455,347.26644499995746,348.0693908999674,348.0517878999235,,,,,,,,,,,,,,,,,,,,,,,,,,,,,,,,,,,348.058625799953,348.0693908999674,348.0693908999674,348.6530212999787,g,1.0,0.5671136999735609,,,,,sub-215,1,stroop_test,60.10944730330683,
,,,,89.0,5.0,7.0,,,,,,,,,,,,,rot,red,r,1.0,r,1.0,0.5947299000108615,,,,,,,,,,7.0,5.0,89.0,1.0,348.66778339992743,,,,,,,,,,,,,,,,,348.6536378999008,349.46823859994765,350.27130389993545,350.253055499983,,,,,,,,,,,,,,,,,,,,,,,,,,,,,,,,,,,350.26064719993155,350.27130389993545,350.27130389993545,350.87120249995496,r,1.0,0.5947299000108615,,,,,sub-215,1,stroop_test,60.10944730330683,
,,,,90.0,6.0,7.0,,,,,,,,,,,,,gelb,red,r,0.0,g,0.0,0.8072731000138447,,,,,,,,,,7.0,6.0,90.0,8.0,350.8859223999316,,,,,,,,,,,,,,,,,350.8717616999056,351.23619419999886,352.039736699895,352.02118539996445,,,,,,,,,,,,,,,,,,,,,,,,,,,,,,,,,,,352.0288968998939,352.039736699895,352.039736699895,352.8561613999773,g,0.0,0.8072731000138447,,,,,sub-215,1,stroop_test,60.10944730330683,
,,,,91.0,7.0,7.0,,,,,,,,,,,,,rot,blue,b,0.0,b,1.0,1.5411452000262216,,,,,,,,,,7.0,7.0,91.0,2.0,352.87067089998163,,,,,,,,,,,,,,,,,352.8567812999245,353.67122289992403,354.4758093999699,354.4563316999702,,,,,,,,,,,,,,,,,,,,,,,,,,,,,,,,,,,354.46403379994445,354.4758093999699,354.4758093999699,356.0248086999636,b,1.0,1.5411452000262216,,,,,sub-215,1,stroop_test,60.10944730330683,
,,,,92.0,8.0,7.0,,,,,,,,,,,,,blau,red,r,0.0,r,1.0,0.9631270000245422,,,,,,,,,,7.0,8.0,92.0,4.0,356.03953559999354,,,,,,,,,,,,,,,,,356.0254210999701,356.839883599896,357.64298959996086,357.6250338999089,,,,,,,,,,,,,,,,,,,,,,,,,,,,,,,,,,,357.631607899908,357.64298959996086,357.64298959996086,358.6100232999306,r,1.0,0.9631270000245422,,,,,sub-215,1,stroop_test,60.10944730330683,
,,,,93.0,9.0,7.0,,,,,,,,,,,,,gelb,blue,b,0.0,b,1.0,1.0283179000252858,,,,,,,,,,7.0,9.0,93.0,9.0,358.624581299955,,,,,,,,,,,,,,,,,358.61065299995244,358.72472519997973,359.5273426999338,359.5097290999256,,,,,,,,,,,,,,,,,,,,,,,,,,,,,,,,,,,359.5162698999047,359.5273426999338,359.5273426999338,360.5612696999451,b,1.0,1.0283179000252858,,,,,sub-215,1,stroop_test,60.10944730330683,
,,,,94.0,10.0,7.0,,,,,,,,,,,,,blau,blue,b,1.0,b,1.0,0.6472184000303969,,,,,,,,,,7.0,10.0,94.0,5.0,360.5758247999474,,,,,,,,,,,,,,,,,360.56189159990754,361.7767395999981,362.5795051999157,362.5616807999322,,,,,,,,,,,,,,,,,,,,,,,,,,,,,,,,,,,362.56829149997793,362.5795051999157,362.5795051999157,363.2298181999941,b,1.0,0.6472184000303969,,,,,sub-215,1,stroop_test,60.10944730330683,
,,,,95.0,11.0,7.0,,,,,,,,,,,,,gelb,yellow,g,1.0,g,1.0,0.7774360000621527,,,,,,,,,,7.0,11.0,95.0,11.0,363.2443351999391,,,,,,,,,,,,,,,,,363.2304432999808,363.3445340999169,364.1485151998932,364.12951080000494,,,,,,,,,,,,,,,,,,,,,,,,,,,,,,,,,,,364.13710359996185,364.1485151998932,364.1485151998932,364.9310759999789,g,1.0,0.7774360000621527,,,,,sub-215,1,stroop_test,60.10944730330683,
,,,,96.0,0.0,8.0,,,,,,,,,,,,,rot,red,r,1.0,r,1.0,0.6719794000964612,,,,,,,,,,8.0,0.0,96.0,1.0,364.9455106999958,,,,,,,,,,,,,,,,,364.9316769998986,365.045660499949,365.8650449999841,365.830775899929,,,,,,,,,,,,,,,,,,,,,,,,,,,,,,,,,,,365.83779759996105,365.8650449999841,365.8650449999841,366.5487431999063,r,1.0,0.6719794000964612,,,,,sub-215,1,stroop_test,60.10944730330683,
,,,,97.0,1.0,8.0,,,,,,,,,,,,,rot,blue,b,0.0,b,1.0,0.8616238000104204,,,,,,,,,,8.0,1.0,97.0,2.0,366.56329959991854,,,,,,,,,,,,,,,,,366.5493803999853,367.76406399998814,368.5646830999758,368.5489976999816,,,,,,,,,,,,,,,,,,,,,,,,,,,,,,,,,,,368.5498986999737,368.5646830999758,368.5646830999758,369.4341209999984,b,1.0,0.8616238000104204,,,,,sub-215,1,stroop_test,60.10944730330683,
,,,,98.0,2.0,8.0,,,,,,,,,,,,,gelb,blue,b,0.0,b,1.0,0.8654603000031784,,,,,,,,,,8.0,2.0,98.0,9.0,369.448613399989,,,,,,,,,,,,,,,,,369.4347451999784,369.5487467999337,370.35070909990463,370.3337954999879,,,,,,,,,,,,,,,,,,,,,,,,,,,,,,,,,,,370.3399918999057,370.35070909990463,370.35070909990463,371.2188334999373,b,1.0,0.8654603000031784,,,,,sub-215,1,stroop_test,60.10944730330683,
,,,,99.0,3.0,8.0,,,,,,,,,,,,,rot,yellow,g,0.0,g,1.0,0.7100202000001445,,,,,,,,,,8.0,3.0,99.0,3.0,371.2331134999404,,,,,,,,,,,,,,,,,371.2195374999428,371.3332033999032,372.13715529988986,372.1183170999866,,,,,,,,,,,,,,,,,,,,,,,,,,,,,,,,,,,372.126097099972,372.13715529988986,372.13715529988986,372.8529028999619,g,1.0,0.7100202000001445,,,,,sub-215,1,stroop_test,60.10944730330683,
,,,,100.0,4.0,8.0,,,,,,,,,,,,,blau,blue,b,1.0,b,1.0,0.822095499956049,,,,,,,,,,8.0,4.0,100.0,5.0,372.8676415999653,,,,,,,,,,,,,,,,,372.8535149999661,372.9678418999538,373.7833866999717,373.7527103999164,,,,,,,,,,,,,,,,,,,,,,,,,,,,,,,,,,,373.77322179998737,373.7833866999717,373.7833866999717,374.6210280999076,b,1.0,0.822095499956049,,,,,sub-215,1,stroop_test,60.10944730330683,
,,,,101.0,5.0,8.0,,,,,,,,,,,,,rot,red,r,1.0,r,1.0,1.1057750000618398,,,,,,,,,,8.0,5.0,101.0,0.0,374.63555869995616,,,,,,,,,,,,,,,,,374.62172469997313,374.735474199988,375.54105379991233,375.5208005999448,,,,,,,,,,,,,,,,,,,,,,,,,,,,,,,,,,,375.5288876999402,375.54105379991233,375.54105379991233,376.6558181999717,r,1.0,1.1057750000618398,,,,,sub-215,1,stroop_test,60.10944730330683,
,,,,102.0,6.0,8.0,,,,,,,,,,,,,gelb,yellow,g,1.0,g,1.0,0.6231391000328586,,,,,,,,,,8.0,6.0,102.0,11.0,376.67019669990987,,,,,,,,,,,,,,,,,376.65647209994495,377.0205368999159,377.8231685999781,377.8053856999613,,,,,,,,,,,,,,,,,,,,,,,,,,,,,,,,,,,377.8120889998973,377.8231685999781,377.8231685999781,378.4569480998907,g,1.0,0.6231391000328586,,,,,sub-215,1,stroop_test,60.10944730330683,
,,,,103.0,7.0,8.0,,,,,,,,,,,,,blau,yellow,g,0.0,g,1.0,0.9621926000108942,,,,,,,,,,8.0,7.0,103.0,7.0,378.4715021000011,,,,,,,,,,,,,,,,,378.4575572999893,378.8218106999993,379.6236785999499,379.6067237999523,,,,,,,,,,,,,,,,,,,,,,,,,,,,,,,,,,,379.6130630999105,379.6236785999499,379.6236785999499,380.5917149999877,g,1.0,0.9621926000108942,,,,,sub-215,1,stroop_test,60.10944730330683,
,,,,104.0,8.0,8.0,,,,,,,,,,,,,blau,blue,b,1.0,b,1.0,0.7798459000186995,,,,,,,,,,8.0,8.0,104.0,6.0,380.6063024000032,,,,,,,,,,,,,,,,,380.59233439993113,380.7064006999135,381.50719569996,381.4913966999157,,,,,,,,,,,,,,,,,,,,,,,,,,,,,,,,,,,381.4922441999661,381.50719569996,381.50719569996,382.29293439991307,b,1.0,0.7798459000186995,,,,,sub-215,1,stroop_test,60.10944730330683,
,,,,105.0,9.0,8.0,,,,,,,,,,,,,gelb,red,r,0.0,r,1.0,1.0963619999820369,,,,,,,,,,8.0,9.0,105.0,8.0,382.3073458999861,,,,,,,,,,,,,,,,,382.2935513999546,382.6578274999047,383.4599290000042,383.4426454999484,,,,,,,,,,,,,,,,,,,,,,,,,,,,,,,,,,,383.4493288999656,383.4599290000042,383.4599290000042,384.561052099918,r,1.0,1.0963619999820369,,,,,sub-215,1,stroop_test,60.10944730330683,
,,,,106.0,10.0,8.0,,,,,,,,,,,,,gelb,yellow,g,1.0,g,1.0,0.6498845000751317,,,,,,,,,,8.0,10.0,106.0,10.0,384.5756059999112,,,,,,,,,,,,,,,,,384.5619791999925,385.376278199954,386.1768530999543,386.1608991998946,,,,,,,,,,,,,,,,,,,,,,,,,,,,,,,,,,,386.1616205999162,386.1768530999543,386.1768530999543,386.829369999934,g,1.0,0.6498845000751317,,,,,sub-215,1,stroop_test,60.10944730330683,
,,,,107.0,11.0,8.0,,,,,,,,,,,,,blau,red,r,0.0,r,1.0,1.1101943999528885,,,,,,,,,,8.0,11.0,107.0,4.0,386.84386859997176,,,,,,,,,,,,,,,,,386.8300374998944,387.6443722998956,388.4465470999712,388.4294729999965,,,,,,,,,,,,,,,,,,,,,,,,,,,,,,,,,,,388.43597599992063,388.4465470999712,388.4465470999712,389.5646671999712,r,1.0,1.1101943999528885,,,,,sub-215,1,stroop_test,60.10944730330683,
,,,,108.0,0.0,9.0,,,,,,,,,,,,,gelb,red,r,0.0,g,0.0,0.7448432000819594,,,,,,,,,,9.0,0.0,108.0,8.0,389.5789198999992,,,,,,,,,,,,,,,,,389.5653208999429,389.67915569990873,390.482325399993,390.46410339989234,,,,,,,,,,,,,,,,,,,,,,,,,,,,,,,,,,,390.4717860999517,390.482325399993,390.482325399993,391.23251819994766,g,0.0,0.7448432000819594,,,,,sub-215,1,stroop_test,60.10944730330683,
,,,,109.0,1.0,9.0,,,,,,,,,,,,,rot,red,r,1.0,r,1.0,0.4589154999703169,,,,,,,,,,9.0,1.0,109.0,1.0,391.2467487999238,,,,,,,,,,,,,,,,,391.2331984000048,391.3470404999098,392.1490054999013,392.1318967998959,,,,,,,,,,,,,,,,,,,,,,,,,,,,,,,,,,,392.1382054999704,392.1490054999013,392.1490054999013,392.6166526000016,r,1.0,0.4589154999703169,,,,,sub-215,1,stroop_test,60.10944730330683,
,,,,110.0,2.0,9.0,,,,,,,,,,,,,blau,blue,b,1.0,b,1.0,0.5833048999775201,,,,,,,,,,9.0,2.0,110.0,5.0,392.6310242000036,,,,,,,,,,,,,,,,,392.61731519992463,392.9814768999349,393.784219199908,393.7664805999957,,,,,,,,,,,,,,,,,,,,,,,,,,,,,,,,,,,393.7728948999429,393.784219199908,393.784219199908,394.3845708000008,b,1.0,0.5833048999775201,,,,,sub-215,1,stroop_test,60.10944730330683,
,,,,111.0,3.0,9.0,,,,,,,,,,,,,blau,yellow,g,0.0,g,1.0,1.1867503999965263,,,,,,,,,,9.0,3.0,111.0,7.0,394.3990410999395,,,,,,,,,,,,,,,,,394.3851831998909,395.19975489994977,396.0003245999105,395.9846701999195,,,,,,,,,,,,,,,,,,,,,,,,,,,,,,,,,,,395.985530499951,396.0003245999105,396.0003245999105,397.2030714999418,g,1.0,1.1867503999965263,,,,,sub-215,1,stroop_test,60.10944730330683,
,,,,112.0,4.0,9.0,,,,,,,,,,,,,rot,yellow,g,0.0,g,1.0,0.5148598999949172,,,,,,,,,,9.0,4.0,112.0,3.0,397.2176538999192,,,,,,,,,,,,,,,,,397.2036697999574,397.3178528998978,398.1217852999689,398.1027867998928,,,,,,,,,,,,,,,,,,,,,,,,,,,,,,,,,,,398.1100104999496,398.1217852999689,398.1217852999689,398.6538332999917,g,1.0,0.5148598999949172,,,,,sub-215,1,stroop_test,60.10944730330683,
,,,,113.0,5.0,9.0,,,,,,,,,,,,,rot,red,r,1.0,r,1.0,0.6974829999962822,,,,,,,,,,9.0,5.0,113.0,0.0,398.6687490999466,,,,,,,,,,,,,,,,,398.65445069991983,399.469213699922,400.2697345999768,400.2542715999298,,,,,,,,,,,,,,,,,,,,,,,,,,,,,,,,,,,400.2552110999823,400.2697345999768,400.2697345999768,400.9722680998966,r,1.0,0.6974829999962822,,,,,sub-215,1,stroop_test,60.10944730330683,
,,,,114.0,6.0,9.0,,,,,,,,,,,,,gelb,yellow,g,1.0,g,1.0,0.8367918999865651,,,,,,,,,,9.0,6.0,114.0,10.0,400.9868825000012,,,,,,,,,,,,,,,,,400.9729217999848,401.33723179996014,402.139908199897,402.1221844999818,,,,,,,,,,,,,,,,,,,,,,,,,,,,,,,,,,,402.1291019999189,402.139908199897,402.139908199897,402.9905329999747,g,1.0,0.8367918999865651,,,,,sub-215,1,stroop_test,60.10944730330683,
,,,,115.0,7.0,9.0,,,,,,,,,,,,,gelb,yellow,g,1.0,g,1.0,0.4304824999999255,,,,,,,,,,9.0,7.0,115.0,11.0,403.004948799964,,,,,,,,,,,,,,,,,402.9911610999843,404.2056925999932,405.0065030999249,404.9908858999843,,,,,,,,,,,,,,,,,,,,,,,,,,,,,,,,,,,404.9917894999962,405.0065030999249,405.0065030999249,405.4420782999368,g,1.0,0.4304824999999255,,,,,sub-215,1,stroop_test,60.10944730330683,
,,,,116.0,8.0,9.0,,,,,,,,,,,,,blau,red,r,0.0,r,1.0,1.194876000052318,,,,,,,,,,9.0,8.0,116.0,4.0,405.4566799999448,,,,,,,,,,,,,,,,,405.4427110999823,405.5568337999284,406.3616448999383,406.3417577999644,,,,,,,,,,,,,,,,,,,,,,,,,,,,,,,,,,,406.3506261999719,406.3616448999383,406.3616448999383,407.56033869995736,r,1.0,1.194876000052318,,,,,sub-215,1,stroop_test,60.10944730330683,
,,,,117.0,9.0,9.0,,,,,,,,,,,,,blau,blue,b,1.0,b,1.0,0.6208634999347851,,,,,,,,,,9.0,9.0,117.0,6.0,407.5746752999257,,,,,,,,,,,,,,,,,407.56098959990777,407.9251191999065,408.7255283999257,408.71009849989787,,,,,,,,,,,,,,,,,,,,,,,,,,,,,,,,,,,408.71110139996745,408.7255283999257,408.7255283999257,409.3602741999785,b,1.0,0.6208634999347851,,,,,sub-215,1,stroop_test,60.10944730330683,
,,,,118.0,10.0,9.0,,,,,,,,,,,,,gelb,blue,b,0.0,b,1.0,1.0974689000286162,,,,,,,,,,9.0,10.0,118.0,9.0,409.3759674999165,,,,,,,,,,,,,,,,,409.3605488999747,409.476216299925,410.2797067998909,410.2611461998895,,,,,,,,,,,,,,,,,,,,,,,,,,,,,,,,,,,410.2683212999255,410.2797067998909,410.2797067998909,411.3787049999228,b,1.0,1.0974689000286162,,,,,sub-215,1,stroop_test,60.10944730330683,
,,,,119.0,11.0,9.0,,,,,,,,,,,,,rot,blue,b,0.0,b,1.0,1.7412918000482025,,,,,,,,,,9.0,11.0,119.0,2.0,411.3939914999064,,,,,,,,,,,,,,,,,411.3790249999147,411.4942065998912,412.29674059990793,412.2789589999011,,,,,,,,,,,,,,,,,,,,,,,,,,,,,,,,,,,412.2859165999107,412.29674059990793,412.29674059990793,414.0483152999077,b,1.0,1.7412918000482025,,,,,sub-215,1,stroop_test,60.10944730330683,
,,,,,,,,,,,,,,,,,,,,,,,,,,,,,,,,,,,,,,,,,,,,,,,,,,,,,,,,,,,,,,,,,,,,,,,,,,,,,,,,,,,,,,,,,,,,,,,,,,,,,,414.0486893999623,414.0760408999631,419.0498267998919,sub-215,1,stroop_test,60.10944730330683,
