wordCTK,colorCTK,corrAnsCTK,congruentCTK,thisN,thisTrialN,thisRepN,keyResp_CTK.keys,keyResp_CTK.corr,keyResp_CTK.rt,keyResp_CTK.duration,wordPractice,colorPractice,corrAnsPractice,congruentPractice,respPractice.keys,respPractice.corr,respPractice.rt,respPractice.duration,word,color,corrAns,congruent,keyResp_test_run.keys,keyResp_test_run.corr,keyResp_test_run.rt,keyResp_test_run.duration,trials_CTK.thisRepN,trials_CTK.thisTrialN,trials_CTK.thisN,trials_CTK.thisIndex,trials_practice.thisRepN,trials_practice.thisTrialN,trials_practice.thisN,trials_practice.thisIndex,trials_test.thisRepN,trials_test.thisTrialN,trials_test.thisN,trials_test.thisIndex,thisRow.t,notes,instruction.started,instr_text.started,instr_image.started,instr_resp.started,instruction.stopped,instr_resp.keys,instr_resp.rt,instr_resp.duration,instr_color_to_key.started,instr_ctk.started,resp_ctk.started,instr_color_to_key.stopped,resp_ctk.keys,resp_ctk.rt,resp_ctk.duration,ITI.started,fixcross.started,fixcross.stopped,ITI.stopped,color_to_key_run.started,stimulus_CTK.started,keyResp_CTK.started,color_to_key_run.stopped,trials_CTK.keyResp_CTK.keys,trials_CTK.keyResp_CTK.corr,trials_CTK.keyResp_CTK.rt,trials_CTK.keyResp_CTK.duration,instr_practice.started,instr_practice_text.started,instr_practice_resp.started,instr_practice.stopped,instr_practice_resp.keys,instr_practice_resp.rt,instr_practice_resp.duration,practice_run.started,stimulus_practice.started,respPractice.started,practice_run.stopped,trials_practice.respPractice.keys,trials_practice.respPractice.corr,trials_practice.respPractice.rt,trials_practice.respPractice.duration,feedback.started,textFeedback.started,textFeedback.stopped,feedback.stopped,instr_test.started,instr_test_text.started,instr_test_resp.started,instr_test.stopped,instr_test_resp.keys,instr_test_resp.rt,instr_test_resp.duration,test_run.started,stimulus_test_run.started,keyResp_test_run.started,test_run.stopped,trials_test.keyResp_test_run.keys,trials_test.keyResp_test_run.corr,trials_test.keyResp_test_run.rt,trials_test.keyResp_test_run.duration,goodbye.started,textGoodbye.started,goodbye.stopped,participant,session,expName,frameRate,Unnamed: 112
,,,,,,,,,,,,,,,,,,,,,,,,,,,,,,,,,,,,,,,,,0.0140003749984316,0.0482776249991729,0.0482776249991729,0.0482776249991729,3.033964916998229,space,2.9651771249991725,,,,,,,,,,,,,,,,,,,,,,,,,,,,,,,,,,,,,,,,,,,,,,,,,,,,,,,,,,sub-075,1,stroop_test,59.9619094366325,
,,,,,,,,,,,,,,,,,,,,,,,,,,,,,,,,,,,,,,,,,,,,,,,,,3.034015291996184,3.038246958996752,3.038246958996752,3.5820627919965773,space,0.5362458340023295,,,,,,,,,,,,,,,,,,,,,,,,,,,,,,,,,,,,,,,,,,,,,,,,,,,sub-075,1,stroop_test,59.9619094366325,
test,blue,b,1.0,0.0,0.0,0.0,b,1.0,1.643556750001153,,,,,,,,,,,,,,,,,,0.0,0.0,0.0,2.0,,,,,,,,,3.603810458997032,,,,,,,,,,,,,,,,,3.5908362499976647,3.9457339590007914,4.745728709000105,4.731950542001869,4.7346208750022925,4.745728709000105,4.745728709000105,6.3980510420005885,b,1.0,1.643556750001153,,,,,,,,,,,,,,,,,,,,,,,,,,,,,,,,,,,,,,,sub-075,1,stroop_test,59.9619094366325,
test,red,r,1.0,1.0,1.0,0.0,r,1.0,0.8898910830030218,,,,,,,,,,,,,,,,,,0.0,1.0,1.0,0.0,,,,,,,,,6.412207875000604,,,,,,,,,,,,,,,,,6.398219374998007,6.5129314590012655,7.3126045419994625,7.29808733399841,7.298250291998556,7.3126045419994625,7.3126045419994625,8.215331375002279,r,1.0,0.8898910830030218,,,,,,,,,,,,,,,,,,,,,,,,,,,,,,,,,,,,,,,sub-075,1,stroop_test,59.9619094366325,
test,yellow,g,1.0,2.0,2.0,0.0,g,1.0,0.7719882499950472,,,,,,,,,,,,,,,,,,0.0,2.0,2.0,1.0,,,,,,,,,8.22905075000017,,,,,,,,,,,,,,,,,8.215499583995552,8.32968933400116,9.129257000000509,9.114325000002282,9.114500124996994,9.129257000000509,9.129257000000509,9.915751874999842,g,1.0,0.7719882499950472,,,,,,,,,,,,,,,,,,,,,,,,,,,,,,,,,,,,,,,sub-075,1,stroop_test,59.9619094366325,
test,yellow,g,1.0,3.0,0.0,1.0,g,1.0,0.9264791669993429,,,,,,,,,,,,,,,,,,1.0,0.0,3.0,1.0,,,,,,,,,9.92934137499833,,,,,,,,,,,,,,,,,9.915940624996438,10.029367417002504,10.82964758399612,10.81452945899946,10.814691916995798,10.82964758399612,10.82964758399612,11.765875334000157,g,1.0,0.9264791669993429,,,,,,,,,,,,,,,,,,,,,,,,,,,,,,,,,,,,,,,sub-075,1,stroop_test,59.9619094366325,
test,red,r,1.0,4.0,1.0,1.0,r,1.0,0.7028122090050601,,,,,,,,,,,,,,,,,,1.0,1.0,4.0,0.0,,,,,,,,,11.779277208996064,,,,,,,,,,,,,,,,,11.766057959001046,12.579883958998836,13.378923292002582,13.36410845899809,13.364265042000625,13.378923292002582,13.378923292002582,14.083039874996755,r,1.0,0.7028122090050601,,,,,,,,,,,,,,,,,,,,,,,,,,,,,,,,,,,,,,,sub-075,1,stroop_test,59.9619094366325,
test,blue,b,1.0,5.0,2.0,1.0,b,1.0,0.8175265829995624,,,,,,,,,,,,,,,,,,1.0,2.0,5.0,2.0,,,,,,,,,14.096739041997353,,,,,,,,,,,,,,,,,14.083234917001391,14.19562891699752,14.995285874996624,14.98108966700238,14.981270999996925,14.995285874996624,14.995285874996624,15.815903249997064,b,1.0,0.8175265829995624,,,,,,,,,,,,,,,,,,,,,,,,,,,,,,,,,,,,,,,sub-075,1,stroop_test,59.9619094366325,
test,yellow,g,1.0,6.0,0.0,2.0,g,1.0,2.0697245839983225,,,,,,,,,,,,,,,,,,2.0,0.0,6.0,1.0,,,,,,,,,15.830007833996206,,,,,,,,,,,,,,,,,15.816114208995714,16.180520458998217,16.97993329200108,16.965200334001565,16.965382124995813,16.97993329200108,16.97993329200108,19.066304125000897,g,1.0,2.0697245839983225,,,,,,,,,,,,,,,,,,,,,,,,,,,,,,,,,,,,,,,sub-075,1,stroop_test,59.9619094366325,
test,red,r,1.0,7.0,1.0,2.0,r,1.0,1.1255703330025426,,,,,,,,,,,,,,,,,,2.0,1.0,7.0,0.0,,,,,,,,,19.08033366699965,,,,,,,,,,,,,,,,,19.066481249996286,19.429816500000012,20.230047999997623,20.215089416997216,20.21525108400237,20.230047999997623,20.230047999997623,21.366500584001187,r,1.0,1.1255703330025426,,,,,,,,,,,,,,,,,,,,,,,,,,,,,,,,,,,,,,,sub-075,1,stroop_test,59.9619094366325,
test,blue,b,1.0,8.0,2.0,2.0,b,1.0,1.3054407500021623,,,,,,,,,,,,,,,,,,2.0,2.0,8.0,2.0,,,,,,,,,21.379355416996987,,,,,,,,,,,,,,,,,21.36668420900241,22.18212479200156,22.99645316699753,22.98151566700108,22.98168645899568,22.99645316699753,22.99645316699753,24.316027875000145,b,1.0,1.3054407500021623,,,,,,,,,,,,,,,,,,,,,,,,,,,,,,,,,,,,,,,sub-075,1,stroop_test,59.9619094366325,
test,blue,b,1.0,9.0,0.0,3.0,b,1.0,1.3067418339996948,,,,,,,,,,,,,,,,,,3.0,0.0,9.0,2.0,,,,,,,,,24.329733874998052,,,,,,,,,,,,,,,,,24.316230750002436,25.530121208998025,26.32899595899653,26.31520649999584,26.31539879200136,26.32899595899653,26.32899595899653,27.64957712499745,b,1.0,1.3067418339996948,,,,,,,,,,,,,,,,,,,,,,,,,,,,,,,,,,,,,,,sub-075,1,stroop_test,59.9619094366325,
test,red,r,1.0,10.0,1.0,3.0,r,1.0,1.5933797919933568,,,,,,,,,,,,,,,,,,3.0,1.0,10.0,0.0,,,,,,,,,27.662873000001127,,,,,,,,,,,,,,,,,27.649808041998767,28.013189708995924,28.81362887499563,28.798348833995988,28.79851929200231,28.81362887499563,28.81362887499563,30.41623958399577,r,1.0,1.5933797919933568,,,,,,,,,,,,,,,,,,,,,,,,,,,,,,,,,,,,,,,sub-075,1,stroop_test,59.9619094366325,
test,yellow,g,1.0,11.0,2.0,3.0,g,1.0,0.7675032910046866,,,,,,,,,,,,,,,,,,3.0,2.0,11.0,1.0,,,,,,,,,30.429673459002515,,,,,,,,,,,,,,,,,30.416470333999317,30.53036054199765,31.330295125000703,31.31575379199785,31.31593525000062,31.330295125000703,31.330295125000703,32.09951508400263,g,1.0,0.7675032910046866,,,,,,,,,,,,,,,,,,,,,,,,,,,,,,,,,,,,,,,sub-075,1,stroop_test,59.9619094366325,
,,,,,,,,,,,,,,,,,,,,,,,,,,,,,,,,,,,,,,,,,,,,,,,,,,,,,,,,,,,,,,,,,,,,32.099604875002115,32.113287874999514,32.113287874999514,34.88415900000109,space,2.753172083001118,,,,,,,,,,,,,,,,,,,,,,,,,,,,,,,,sub-075,1,stroop_test,59.9619094366325,
,,,,0.0,0.0,0.0,,,,,blau,blue,b,1.0,b,1.0,0.9694493749993852,,,,,,,,,,,,,,0.0,0.0,0.0,6.0,,,,,34.89655970899912,,,,,,,,,,,,,,,,,34.891023916999984,35.696526416999404,36.4972214590016,36.482283416997234,,,,,,,,,,,,,,,,36.48504787500133,36.4972214590016,36.4972214590016,37.48314308399858,b,1.0,0.9694493749993852,,37.48624858399853,37.49713187499583,38.49678058399877,38.4822510419981,,,,,,,,,,,,,,,,,,,sub-075,1,stroop_test,59.9619094366325,
,,,,1.0,1.0,0.0,,,,,rot,yellow,g,0.0,r,0.0,0.6414262919934117,,,,,,,,,,,,,,0.0,1.0,1.0,3.0,,,,,38.49678058399877,,,,,,,,,,,,,,,,,38.48245829199732,38.59753733399703,39.39730779200181,39.382353333996434,,,,,,,,,,,,,,,,39.3845877499989,39.39730779200181,39.39730779200181,40.050151333998656,r,0.0,0.6414262919934117,,40.05264154200268,40.064173917002336,41.06370695900114,41.04867633400136,,,,,,,,,,,,,,,,,,,sub-075,1,stroop_test,59.9619094366325,
,,,,2.0,2.0,0.0,,,,,gelb,yellow,g,1.0,g,1.0,1.0127429170024698,,,,,,,,,,,,,,0.0,2.0,2.0,11.0,,,,,41.06370695900114,,,,,,,,,,,,,,,,,41.04887512500136,42.26476020900009,43.0807042919987,43.065934500002186,,,,,,,,,,,,,,,,43.06731199999922,43.0807042919987,43.0807042919987,44.09972079200088,g,1.0,1.0127429170024698,,44.10139679200074,44.11420604200248,45.11466104199644,45.098385500001314,,,,,,,,,,,,,,,,,,,sub-075,1,stroop_test,59.9619094366325,
,,,,3.0,3.0,0.0,,,,,rot,blue,b,0.0,b,1.0,0.98259516699909,,,,,,,,,,,,,,0.0,3.0,3.0,2.0,,,,,45.11466104199644,,,,,,,,,,,,,,,,,45.09856129199761,46.31456895900192,47.11426999999821,47.09895620899624,,,,,,,,,,,,,,,,47.10030795900093,47.11426999999821,47.11426999999821,48.100457749998895,b,1.0,0.98259516699909,,48.10066995899979,48.11412704199756,49.114098583995656,49.09904420899693,,,,,,,,,,,,,,,,,,,sub-075,1,stroop_test,59.9619094366325,
,,,,4.0,4.0,0.0,,,,,rot,red,r,1.0,r,1.0,0.5016074999948614,,,,,,,,,,,,,,0.0,4.0,4.0,0.0,,,,,49.114098583995656,,,,,,,,,,,,,,,,,49.099259875001735,49.1973584169973,49.99768979199871,49.98360500000126,,,,,,,,,,,,,,,,49.983760958995845,49.99768979199871,49.99768979199871,50.50037570900167,r,1.0,0.5016074999948614,,50.5005802500018,50.514628083998105,51.51386412500142,51.499493666997296,,,,,,,,,,,,,,,,,,,sub-075,1,stroop_test,59.9619094366325,
,,,,5.0,5.0,0.0,,,,,gelb,blue,b,0.0,b,1.0,1.318255209000199,,,,,,,,,,,,,,0.0,5.0,5.0,9.0,,,,,51.51386412500142,,,,,,,,,,,,,,,,,51.4996904590007,51.61393287499959,52.42974212500121,52.415488708997145,,,,,,,,,,,,,,,,52.41711887499696,52.42974212500121,52.42974212500121,53.751014333996864,b,1.0,1.318255209000199,,53.751253750000615,53.764299624999694,54.76458499999717,54.7494384169986,,,,,,,,,,,,,,,,,,,sub-075,1,stroop_test,59.9619094366325,
,,,,6.0,6.0,0.0,,,,,blau,yellow,g,0.0,g,1.0,1.4241654169964022,,,,,,,,,,,,,,0.0,6.0,6.0,7.0,,,,,54.76458499999717,,,,,,,,,,,,,,,,,54.74965474999772,54.86478991699551,55.66380304199993,55.649623500001326,,,,,,,,,,,,,,,,55.6512465420019,55.66380304199993,55.66380304199993,57.10073425000155,g,1.0,1.4241654169964022,,57.100960208998,57.11421062499721,58.11395420900226,58.09963224999956,,,,,,,,,,,,,,,,,,,sub-075,1,stroop_test,59.9619094366325,
,,,,7.0,7.0,0.0,,,,,gelb,red,r,0.0,r,1.0,1.0184620419968269,,,,,,,,,,,,,,0.0,7.0,7.0,8.0,,,,,58.11395420900226,,,,,,,,,,,,,,,,,58.099840709001,58.46404649999749,59.2657452919957,59.25015258399799,,,,,,,,,,,,,,,,59.25151491699944,59.2657452919957,59.2657452919957,60.30153433400119,r,1.0,1.0184620419968269,,60.30174670899578,60.314054333997774,61.31433941699652,61.29949325000052,,,,,,,,,,,,,,,,,,,sub-075,1,stroop_test,59.9619094366325,
,,,,8.0,8.0,0.0,,,,,gelb,yellow,g,1.0,g,1.0,0.7468070409959182,,,,,,,,,,,,,,0.0,8.0,8.0,10.0,,,,,61.31433941699652,,,,,,,,,,,,,,,,,61.29967883400241,62.51408575000096,63.31432599999971,63.2998432500026,,,,,,,,,,,,,,,,63.30003554200084,63.31432599999971,63.31432599999971,64.06722420900041,g,1.0,0.7468070409959182,,64.06743729199661,64.08188691699615,65.081365500002,65.06654591699771,,,,,,,,,,,,,,,,,,,sub-075,1,stroop_test,59.9619094366325,
,,,,9.0,9.0,0.0,,,,,rot,red,r,1.0,r,1.0,1.3734076670007198,,,,,,,,,,,,,,0.0,9.0,9.0,1.0,,,,,65.081365500002,,,,,,,,,,,,,,,,,65.06672341699596,65.4317329589976,66.2323381669994,66.21733558399865,,,,,,,,,,,,,,,,66.21874879200186,66.2323381669994,66.2323381669994,67.61799449999671,r,1.0,1.3734076670007198,,67.61819262499921,67.6316112919958,68.63166574999923,68.61635833400214,,,,,,,,,,,,,,,,,,,sub-075,1,stroop_test,59.9619094366325,
,,,,10.0,10.0,0.0,,,,,blau,blue,b,1.0,b,1.0,0.8829213749995688,,,,,,,,,,,,,,0.0,10.0,10.0,5.0,,,,,68.63166574999923,,,,,,,,,,,,,,,,,68.61653037500218,68.73146799999813,69.53172183399874,69.51678116699622,,,,,,,,,,,,,,,,69.51828904199647,69.53172183399874,69.53172183399874,70.41763454199827,b,1.0,0.8829213749995688,,70.41785029199673,70.43177179199847,71.4319701669956,71.4168562920022,,,,,,,,,,,,,,,,,,,sub-075,1,stroop_test,59.9619094366325,
,,,,11.0,11.0,0.0,,,,,blau,red,r,0.0,r,1.0,1.8692938329986648,,,,,,,,,,,,,,0.0,11.0,11.0,4.0,,,,,71.4319701669956,,,,,,,,,,,,,,,,,71.41707424999913,72.23140658399643,73.03121975000249,73.01650225000049,,,,,,,,,,,,,,,,73.01667645899579,73.03121975000249,73.03121975000249,74.91808370900253,r,1.0,1.8692938329986648,,74.91828250000253,74.93126825000218,75.93187933399895,75.9166620420001,,,,,,,,,,,,,,,,,,,sub-075,1,stroop_test,59.9619094366325,
,,,,12.0,0.0,1.0,,,,,gelb,blue,b,0.0,b,1.0,1.0711879160007811,,,,,,,,,,,,,,1.0,0.0,12.0,9.0,,,,,75.93187933399895,,,,,,,,,,,,,,,,,75.91687575000105,77.13178012499702,77.93161875000078,77.91675512499933,,,,,,,,,,,,,,,,77.91817212499882,77.93161875000078,77.93161875000078,79.01757354199799,b,1.0,1.0711879160007811,,79.01778729199577,79.03192795899668,80.03191241699824,80.01732295900001,,,,,,,,,,,,,,,,,,,sub-075,1,stroop_test,59.9619094366325,
,,,,13.0,1.0,1.0,,,,,gelb,red,r,0.0,r,1.0,1.4750538329972187,,,,,,,,,,,,,,1.0,1.0,13.0,8.0,,,,,80.03191241699824,,,,,,,,,,,,,,,,,80.0175553750014,81.2143178749975,82.0148386669971,82.00019570899894,,,,,,,,,,,,,,,,82.00036720900243,82.0148386669971,82.0148386669971,83.50132391700026,r,1.0,1.4750538329972187,,83.50154354199913,83.51544433399977,84.5149242089974,84.50028241700056,,,,,,,,,,,,,,,,,,,sub-075,1,stroop_test,59.9619094366325,
,,,,14.0,2.0,1.0,,,,,rot,blue,b,0.0,b,1.0,1.7677178750018356,,,,,,,,,,,,,,1.0,2.0,14.0,2.0,,,,,84.5149242089974,,,,,,,,,,,,,,,,,84.50046037499851,85.71496450000268,86.51464324999688,86.50071258399839,,,,,,,,,,,,,,,,86.50226954199752,86.51464324999688,86.51464324999688,88.28433266699722,b,1.0,1.7677178750018356,,88.28452475000086,88.29900849999831,89.29933629200241,89.28405999999814,,,,,,,,,,,,,,,,,,,sub-075,1,stroop_test,59.9619094366325,
,,,,15.0,3.0,1.0,,,,,blau,red,r,0.0,r,1.0,1.2523230830047396,,,,,,,,,,,,,,1.0,3.0,15.0,4.0,,,,,89.29933629200241,,,,,,,,,,,,,,,,,89.28426366699568,90.08201837499657,90.882634374997,90.86782587500056,,,,,,,,,,,,,,,,90.8696028339982,90.882634374997,90.882634374997,92.15188374999708,r,1.0,1.2523230830047396,,92.15208749999874,92.1653060000026,93.16590720899694,93.15060333399742,,,,,,,,,,,,,,,,,,,sub-075,1,stroop_test,59.9619094366325,
,,,,16.0,4.0,1.0,,,,,blau,blue,b,1.0,b,1.0,1.2883806669997284,,,,,,,,,,,,,,1.0,4.0,16.0,5.0,,,,,93.16590720899694,,,,,,,,,,,,,,,,,93.15077524999651,93.51644916700025,94.31453558400244,94.30127862499648,,,,,,,,,,,,,,,,94.30144604200176,94.31453558400244,94.31453558400244,95.61837037499936,b,1.0,1.2883806669997284,,95.61858754199784,95.63206470899604,96.63234666700008,96.6172621250007,,,,,,,,,,,,,,,,,,,sub-075,1,stroop_test,59.9619094366325,
,,,,17.0,5.0,1.0,,,,,gelb,yellow,g,1.0,g,1.0,0.9535186669963878,,,,,,,,,,,,,,1.0,5.0,17.0,10.0,,,,,96.63234666700008,,,,,,,,,,,,,,,,,96.61747641699912,97.432827042001,98.23170987499908,98.21847858399995,,,,,,,,,,,,,,,,98.22006754200264,98.23170987499908,98.23170987499908,99.201800584,g,1.0,0.9535186669963878,,99.20201449999875,99.21606937499746,100.2158329169979,100.20119995899586,,,,,,,,,,,,,,,,,,,sub-075,1,stroop_test,59.9619094366325,
,,,,18.0,6.0,1.0,,,,,rot,red,r,1.0,r,1.0,1.0338324999975157,,,,,,,,,,,,,,1.0,6.0,18.0,0.0,,,,,100.2158329169979,,,,,,,,,,,,,,,,,100.20144112499838,100.31641116699755,101.11581508399831,101.10101349999604,,,,,,,,,,,,,,,,101.10270333399968,101.11581508399831,101.11581508399831,102.15120691699848,r,1.0,1.0338324999975157,,102.15139879199704,102.1670750839985,,103.16778058400088,,,,,,,,,,,,,,,,,,,sub-075,1,stroop_test,59.9619094366325,
,,,,19.0,7.0,1.0,,,,,blau,blue,b,1.0,b,1.0,1.2993331670004409,,,,,,,,,,,,,,1.0,7.0,19.0,6.0,,,,,103.18363779199716,,,,,,,,,,,,,,,,,103.16793850000248,104.3659799169982,105.16609700000116,105.1508066250026,,,,,,,,,,,,,,,,105.15213000000222,105.16609700000116,105.16609700000116,106.46843687500224,b,1.0,1.2993331670004409,,106.46865916699608,106.48320437499932,107.48291204199631,107.46793987500132,,,,,,,,,,,,,,,,,,,sub-075,1,stroop_test,59.9619094366325,
,,,,20.0,8.0,1.0,,,,,rot,yellow,g,0.0,g,1.0,0.3914237079952727,,,,,,,,,,,,,,1.0,8.0,20.0,3.0,,,,,107.48291204199631,,,,,,,,,,,,,,,,,107.4681574999995,107.83268033400236,108.6321069589976,108.61702541699924,,,,,,,,,,,,,,,,108.61838562499906,108.6321069589976,108.6321069589976,109.0351437089994,g,1.0,0.3914237079952727,,109.03535920899594,109.04913966699678,110.04917162499623,110.03450820899889,,,,,,,,,,,,,,,,,,,sub-075,1,stroop_test,59.9619094366325,
,,,,21.0,9.0,1.0,,,,,rot,red,r,1.0,r,1.0,0.4349863329989603,,,,,,,,,,,,,,1.0,9.0,21.0,1.0,,,,,110.04917162499623,,,,,,,,,,,,,,,,,110.03468925000196,110.39927299999545,111.19999033399654,111.18711337499552,,,,,,,,,,,,,,,,111.18729795899708,111.19999033399654,111.19999033399654,111.65318624999782,r,1.0,0.4349863329989603,,111.65341841700138,111.66596283399848,112.6658966670002,112.6512262920005,,,,,,,,,,,,,,,,,,,sub-075,1,stroop_test,59.9619094366325,
,,,,22.0,10.0,1.0,,,,,gelb,yellow,g,1.0,b,0.0,0.3600835409961291,,,,,,,,,,,,,,1.0,10.0,22.0,11.0,,,,,112.6658966670002,,,,,,,,,,,,,,,,,112.65141270899768,113.46602508400248,114.2666692089988,114.25262187499902,,,,,,,,,,,,,,,,114.25409279199812,114.2666692089988,114.2666692089988,114.63574804199745,b,0.0,0.3600835409961291,,114.63731595900026,114.64970891700068,115.64922141699935,115.63526520899904,,,,,,,,,,,,,,,,,,,sub-075,1,stroop_test,59.9619094366325,
,,,,23.0,11.0,1.0,,,,,blau,yellow,g,0.0,g,1.0,1.033380999993824,,,,,,,,,,,,,,1.0,11.0,23.0,7.0,,,,,115.64922141699935,,,,,,,,,,,,,,,,,115.6354379589975,115.999755249999,116.7997465840017,116.7849890419966,,,,,,,,,,,,,,,,116.78649991699784,116.7997465840017,116.7997465840017,117.83555170900216,g,1.0,1.033380999993824,,117.8371007090027,117.84975758400104,118.84913845900157,118.8348477499967,,,,,,,,,,,,,,,,,,,sub-075,1,stroop_test,59.9619094366325,
,,,,,,,,,,,,,,,,,,,,,,,,,,,,,,,,,,,,,,,,,,,,,,,,,,,,,,,,,,,,,,,,,,,,,,,,,,,,,,,,,,,,,,,118.83495041699643,118.84913845900157,118.84913845900157,120.06897949999984,space,1.2146072920004372,,,,,,,,,,,,,sub-075,1,stroop_test,59.9619094366325,
,,,,0.0,0.0,0.0,,,,,,,,,,,,,rot,blue,b,0.0,b,1.0,1.30415320800239,,,,,,,,,,0.0,0.0,0.0,2.0,120.08299599999737,,,,,,,,,,,,,,,,,120.07737262499722,120.43336320899834,121.23257370899957,121.2182623339977,,,,,,,,,,,,,,,,,,,,,,,,,,,,,,,,,,,121.21955483400234,121.23257370899957,121.23257370899957,122.55332958399958,b,1.0,1.30415320800239,,,,,sub-075,1,stroop_test,59.9619094366325,
,,,,1.0,1.0,0.0,,,,,,,,,,,,,gelb,red,r,0.0,r,1.0,1.1069074999977602,,,,,,,,,,0.0,1.0,1.0,8.0,122.566237250001,,,,,,,,,,,,,,,,,122.55357716699656,123.3665140000012,124.16681324999809,124.1514635420026,,,,,,,,,,,,,,,,,,,,,,,,,,,,,,,,,,,124.15298645899747,124.16681324999809,124.16681324999809,125.28617291699628,r,1.0,1.1069074999977602,,,,,sub-075,1,stroop_test,59.9619094366325,
,,,,2.0,2.0,0.0,,,,,,,,,,,,,blau,yellow,g,0.0,g,1.0,1.650480125004833,,,,,,,,,,0.0,2.0,2.0,7.0,125.29956954199588,,,,,,,,,,,,,,,,,125.28641849999984,125.3997782919978,126.2000202920026,126.18758737499591,,,,,,,,,,,,,,,,,,,,,,,,,,,,,,,,,,,126.1891287499966,126.2000202920026,126.2000202920026,127.85232887500024,g,1.0,1.650480125004833,,,,,sub-075,1,stroop_test,59.9619094366325,
,,,,3.0,3.0,0.0,,,,,,,,,,,,,gelb,yellow,g,1.0,g,1.0,1.4598740410001485,,,,,,,,,,0.0,3.0,3.0,11.0,127.86667737500102,,,,,,,,,,,,,,,,,127.85257495899714,128.21748641700106,129.01593266699638,129.0019360840015,,,,,,,,,,,,,,,,,,,,,,,,,,,,,,,,,,,129.00328816699766,129.01593266699638,129.01593266699638,130.4862371249983,g,1.0,1.4598740410001485,,,,,sub-075,1,stroop_test,59.9619094366325,
,,,,4.0,4.0,0.0,,,,,,,,,,,,,blau,red,r,0.0,r,1.0,1.1252927919995273,,,,,,,,,,0.0,4.0,4.0,4.0,130.4998726670019,,,,,,,,,,,,,,,,,130.48644987499574,130.84957987500093,131.6501131670011,131.63523637499748,,,,,,,,,,,,,,,,,,,,,,,,,,,,,,,,,,,131.63657437499933,131.6501131670011,131.6501131670011,132.78648779200012,r,1.0,1.1252927919995273,,,,,sub-075,1,stroop_test,59.9619094366325,
,,,,5.0,5.0,0.0,,,,,,,,,,,,,rot,red,r,1.0,r,1.0,0.5758519589944626,,,,,,,,,,0.0,5.0,5.0,1.0,132.80058075000125,,,,,,,,,,,,,,,,,132.78677420900203,132.9002739589996,133.69950354199682,133.6853560419986,,,,,,,,,,,,,,,,,,,,,,,,,,,,,,,,,,,133.68676720900112,133.69950354199682,133.69950354199682,134.2865049999964,r,1.0,0.5758519589944626,,,,,sub-075,1,stroop_test,59.9619094366325,
,,,,6.0,6.0,0.0,,,,,,,,,,,,,blau,blue,b,1.0,b,1.0,1.6093548749995534,,,,,,,,,,0.0,6.0,6.0,6.0,134.3004680840022,,,,,,,,,,,,,,,,,134.2867208339958,135.49982087499666,136.30027779199736,136.2855072090024,,,,,,,,,,,,,,,,,,,,,,,,,,,,,,,,,,,136.2868726250017,136.30027779199736,136.30027779199736,137.92029054200248,b,1.0,1.6093548749995534,,,,,sub-075,1,stroop_test,59.9619094366325,
,,,,7.0,7.0,0.0,,,,,,,,,,,,,blau,blue,b,1.0,b,1.0,0.976434917000006,,,,,,,,,,0.0,7.0,7.0,5.0,137.93441020899627,,,,,,,,,,,,,,,,,137.92054624999582,138.73374612499902,139.53337658399687,139.5189226250004,,,,,,,,,,,,,,,,,,,,,,,,,,,,,,,,,,,139.51907716700225,139.53337658399687,139.53337658399687,140.51974104200053,b,1.0,0.976434917000006,,,,,sub-075,1,stroop_test,59.9619094366325,
,,,,8.0,8.0,0.0,,,,,,,,,,,,,rot,red,r,1.0,r,1.0,0.9859996250015683,,,,,,,,,,0.0,8.0,8.0,0.0,140.53357770900038,,,,,,,,,,,,,,,,,140.51995320899732,140.63409154200053,141.4340147920011,141.41924808399926,,,,,,,,,,,,,,,,,,,,,,,,,,,,,,,,,,,141.42060087499704,141.4340147920011,141.4340147920011,142.43722279199574,r,1.0,0.9859996250015683,,,,,sub-075,1,stroop_test,59.9619094366325,
,,,,9.0,9.0,0.0,,,,,,,,,,,,,gelb,yellow,g,1.0,g,1.0,0.5672767919968464,,,,,,,,,,0.0,9.0,9.0,10.0,142.4504385839973,,,,,,,,,,,,,,,,,142.43742770899553,143.65031120899948,144.4503550840018,144.4350586669971,,,,,,,,,,,,,,,,,,,,,,,,,,,,,,,,,,,144.43642604199704,144.4503550840018,144.4503550840018,145.01965008399566,g,1.0,0.5672767919968464,,,,,sub-075,1,stroop_test,59.9619094366325,
,,,,10.0,10.0,0.0,,,,,,,,,,,,,gelb,blue,b,0.0,b,1.0,0.8254297919993405,,,,,,,,,,0.0,10.0,10.0,9.0,145.03407504200004,,,,,,,,,,,,,,,,,145.01990999999543,146.23375283399946,147.03460320900194,147.01919225000165,,,,,,,,,,,,,,,,,,,,,,,,,,,,,,,,,,,147.0193924999985,147.03460320900194,147.03460320900194,147.86999320900213,b,1.0,0.8254297919993405,,,,,sub-075,1,stroop_test,59.9619094366325,
,,,,11.0,11.0,0.0,,,,,,,,,,,,,rot,yellow,g,0.0,g,1.0,1.4671305839947308,,,,,,,,,,0.0,11.0,11.0,3.0,147.883381833999,,,,,,,,,,,,,,,,,147.87020024999947,147.98412716700113,148.78353595900262,148.76917741700163,,,,,,,,,,,,,,,,,,,,,,,,,,,,,,,,,,,148.7704503749992,148.78353595900262,148.78353595900262,150.2536139590011,g,1.0,1.4671305839947308,,,,,sub-075,1,stroop_test,59.9619094366325,
,,,,12.0,0.0,1.0,,,,,,,,,,,,,blau,red,r,0.0,r,1.0,1.5160344160030943,,,,,,,,,,1.0,0.0,12.0,4.0,150.26776387499558,,,,,,,,,,,,,,,,,150.25383237499773,150.61700612500135,151.41765883399785,151.402511166998,,,,,,,,,,,,,,,,,,,,,,,,,,,,,,,,,,,151.40392016700207,151.41765883399785,151.41765883399785,152.93683908399544,r,1.0,1.5160344160030943,,,,,sub-075,1,stroop_test,59.9619094366325,
,,,,13.0,1.0,1.0,,,,,,,,,,,,,blau,yellow,g,0.0,g,1.0,0.991351417003898,,,,,,,,,,1.0,1.0,13.0,7.0,152.95168029199704,,,,,,,,,,,,,,,,,152.93709620899608,153.0505012499998,153.8506367919981,153.83588433399564,,,,,,,,,,,,,,,,,,,,,,,,,,,,,,,,,,,153.83604866699898,153.8506367919981,153.8506367919981,154.85384691700165,g,1.0,0.991351417003898,,,,,sub-075,1,stroop_test,59.9619094366325,
,,,,14.0,2.0,1.0,,,,,,,,,,,,,rot,yellow,g,0.0,g,1.0,0.953534457999922,,,,,,,,,,1.0,2.0,14.0,3.0,154.8680092919967,,,,,,,,,,,,,,,,,154.85409054200136,155.2173463750005,156.01711975000217,156.00285329199687,,,,,,,,,,,,,,,,,,,,,,,,,,,,,,,,,,,156.0042009999961,156.01711975000217,156.01711975000217,156.98785120899993,g,1.0,0.953534457999922,,,,,sub-075,1,stroop_test,59.9619094366325,
,,,,15.0,3.0,1.0,,,,,,,,,,,,,rot,red,r,1.0,r,1.0,0.5897900409981958,,,,,,,,,,1.0,3.0,15.0,0.0,157.00079824999557,,,,,,,,,,,,,,,,,156.988101834002,157.80080029199598,158.60100175000116,158.58566337500088,,,,,,,,,,,,,,,,,,,,,,,,,,,,,,,,,,,158.5858449169973,158.60100175000116,158.60100175000116,159.20349575,r,1.0,0.5897900409981958,,,,,sub-075,1,stroop_test,59.9619094366325,
,,,,16.0,4.0,1.0,,,,,,,,,,,,,gelb,yellow,g,1.0,g,1.0,0.8561194159992738,,,,,,,,,,1.0,4.0,16.0,10.0,159.2177776669996,,,,,,,,,,,,,,,,,159.20368604199757,160.01860699999816,160.81792283400137,160.80306562499754,,,,,,,,,,,,,,,,,,,,,,,,,,,,,,,,,,,160.80459362499823,160.81792283400137,160.81792283400137,161.68730225000036,g,1.0,0.8561194159992738,,,,,sub-075,1,stroop_test,59.9619094366325,
,,,,17.0,5.0,1.0,,,,,,,,,,,,,gelb,red,r,0.0,r,1.0,0.9839316669967956,,,,,,,,,,1.0,5.0,17.0,8.0,161.7011730000013,,,,,,,,,,,,,,,,,161.6875316250007,161.80135433399846,162.60055387499597,162.58606091699767,,,,,,,,,,,,,,,,,,,,,,,,,,,,,,,,,,,162.58622258399555,162.60055387499597,162.60055387499597,163.58692183400126,r,1.0,0.9839316669967956,,,,,sub-075,1,stroop_test,59.9619094366325,
,,,,18.0,6.0,1.0,,,,,,,,,,,,,gelb,yellow,g,1.0,g,1.0,1.0261097909969976,,,,,,,,,,1.0,6.0,18.0,11.0,163.60127991699846,,,,,,,,,,,,,,,,,163.58712604200264,164.40110229200218,165.20055541699548,165.18710658400232,,,,,,,,,,,,,,,,,,,,,,,,,,,,,,,,,,,165.1872861669981,165.20055541699548,165.20055541699548,166.2376842090016,g,1.0,1.0261097909969976,,,,,sub-075,1,stroop_test,59.9619094366325,
,,,,19.0,7.0,1.0,,,,,,,,,,,,,rot,blue,b,0.0,b,1.0,1.1678857499937294,,,,,,,,,,1.0,7.0,19.0,2.0,166.2519171669992,,,,,,,,,,,,,,,,,166.23792466700252,166.60085266699753,167.40059525000106,167.38620524999715,,,,,,,,,,,,,,,,,,,,,,,,,,,,,,,,,,,167.38755833399773,167.40059525000106,167.40059525000106,168.57050545899983,b,1.0,1.1678857499937294,,,,,sub-075,1,stroop_test,59.9619094366325,
,,,,20.0,8.0,1.0,,,,,,,,,,,,,gelb,blue,b,0.0,b,1.0,0.6282102500044857,,,,,,,,,,1.0,8.0,20.0,9.0,168.58570541699737,,,,,,,,,,,,,,,,,168.57076616700215,168.68507362499804,169.48437141699833,169.4695412919973,,,,,,,,,,,,,,,,,,,,,,,,,,,,,,,,,,,169.47109470899886,169.48437141699833,169.48437141699833,170.12156037500245,b,1.0,0.6282102500044857,,,,,sub-075,1,stroop_test,59.9619094366325,
,,,,21.0,9.0,1.0,,,,,,,,,,,,,blau,blue,b,1.0,b,1.0,0.6575556250027148,,,,,,,,,,1.0,9.0,21.0,5.0,170.1355045839955,,,,,,,,,,,,,,,,,170.12179800000013,171.3345132089962,172.1346323339967,172.12001866699575,,,,,,,,,,,,,,,,,,,,,,,,,,,,,,,,,,,172.12135616700107,172.1346323339967,172.1346323339967,172.80448749999778,b,1.0,0.6575556250027148,,,,,sub-075,1,stroop_test,59.9619094366325,
,,,,22.0,10.0,1.0,,,,,,,,,,,,,rot,red,r,1.0,r,1.0,0.7623188329962431,,,,,,,,,,1.0,10.0,22.0,1.0,172.81812629199703,,,,,,,,,,,,,,,,,172.8047254999983,173.1685782919958,173.98510120900028,173.9703191669978,,,,,,,,,,,,,,,,,,,,,,,,,,,,,,,,,,,173.97162691700214,173.98510120900028,173.98510120900028,174.7541665000026,r,1.0,0.7623188329962431,,,,,sub-075,1,stroop_test,59.9619094366325,
,,,,23.0,11.0,1.0,,,,,,,,,,,,,blau,blue,b,1.0,b,1.0,0.7008164579965523,,,,,,,,,,1.0,11.0,23.0,6.0,174.76811158400233,,,,,,,,,,,,,,,,,174.75438987500092,175.56791024999984,176.36800141700223,176.35339604199544,,,,,,,,,,,,,,,,,,,,,,,,,,,,,,,,,,,176.35478991700074,176.36800141700223,176.36800141700223,177.07108850000077,b,1.0,0.7008164579965523,,,,,sub-075,1,stroop_test,59.9619094366325,
,,,,24.0,0.0,2.0,,,,,,,,,,,,,blau,yellow,g,0.0,g,1.0,1.2999056250046124,,,,,,,,,,2.0,0.0,24.0,7.0,177.0857479999977,,,,,,,,,,,,,,,,,177.07131091699557,177.43487450000248,178.2349161250022,178.21952845899796,,,,,,,,,,,,,,,,,,,,,,,,,,,,,,,,,,,178.21970829199563,178.2349161250022,178.2349161250022,179.53792437499942,g,1.0,1.2999056250046124,,,,,sub-075,1,stroop_test,59.9619094366325,
,,,,25.0,1.0,2.0,,,,,,,,,,,,,rot,red,r,1.0,r,1.0,1.4008076669997536,,,,,,,,,,2.0,1.0,25.0,0.0,179.55206412499683,,,,,,,,,,,,,,,,,179.53821891699772,179.65176995899674,180.45117875000145,180.4369036249991,,,,,,,,,,,,,,,,,,,,,,,,,,,,,,,,,,,180.43830133399752,180.45117875000145,180.45117875000145,181.85412004200043,r,1.0,1.4008076669997536,,,,,sub-075,1,stroop_test,59.9619094366325,
,,,,26.0,2.0,2.0,,,,,,,,,,,,,blau,blue,b,1.0,b,1.0,0.9475845830020262,,,,,,,,,,2.0,2.0,26.0,6.0,181.86896466699545,,,,,,,,,,,,,,,,,181.85434437500223,183.06873979199736,183.86792504199548,183.85315908399932,,,,,,,,,,,,,,,,,,,,,,,,,,,,,,,,,,,183.8545393339955,183.86792504199548,183.86792504199548,184.82109054199827,b,1.0,0.9475845830020262,,,,,sub-075,1,stroop_test,59.9619094366325,
,,,,27.0,3.0,2.0,,,,,,,,,,,,,gelb,yellow,g,1.0,g,1.0,1.1517956250027055,,,,,,,,,,2.0,3.0,27.0,10.0,184.83561375000136,,,,,,,,,,,,,,,,,184.82134208399657,184.9351224589991,185.7351783749982,185.72025054199912,,,,,,,,,,,,,,,,,,,,,,,,,,,,,,,,,,,185.7217439590022,185.7351783749982,185.7351783749982,186.88828287499928,g,1.0,1.1517956250027055,,,,,sub-075,1,stroop_test,59.9619094366325,
,,,,28.0,4.0,2.0,,,,,,,,,,,,,gelb,blue,b,0.0,g,0.0,1.0062121250011842,,,,,,,,,,2.0,4.0,28.0,9.0,186.90210300000035,,,,,,,,,,,,,,,,,186.88850341700163,187.2525279170004,188.05214608399547,188.03743224999928,,,,,,,,,,,,,,,,,,,,,,,,,,,,,,,,,,,188.0376102500013,188.05214608399547,188.05214608399547,189.07201625000016,g,0.0,1.0062121250011842,,,,,sub-075,1,stroop_test,59.9619094366325,
,,,,29.0,5.0,2.0,,,,,,,,,,,,,rot,yellow,g,0.0,b,0.0,1.5184635830009938,,,,,,,,,,2.0,5.0,29.0,3.0,189.08591870899545,,,,,,,,,,,,,,,,,189.07224687499547,189.88569991700209,190.68543620900164,190.67099033400157,,,,,,,,,,,,,,,,,,,,,,,,,,,,,,,,,,,190.67239566699573,190.68543620900164,190.68543620900164,192.2071284999984,b,0.0,1.5184635830009938,,,,,sub-075,1,stroop_test,59.9619094366325,
,,,,30.0,6.0,2.0,,,,,,,,,,,,,gelb,yellow,g,1.0,g,1.0,1.1300753749965224,,,,,,,,,,2.0,6.0,30.0,11.0,192.21798070899968,,,,,,,,,,,,,,,,,192.2073805839973,193.01872916700088,193.81852883399552,193.803948959001,,,,,,,,,,,,,,,,,,,,,,,,,,,,,,,,,,,193.80550504200076,193.81852883399552,193.81852883399552,194.95475145900127,g,1.0,1.1300753749965224,,,,,sub-075,1,stroop_test,59.9619094366325,
,,,,31.0,7.0,2.0,,,,,,,,,,,,,blau,blue,b,1.0,b,1.0,1.1134956250025425,,,,,,,,,,2.0,7.0,31.0,5.0,194.9692888749996,,,,,,,,,,,,,,,,,194.95499108399963,195.76882691699572,196.56907529199816,196.5538100420017,,,,,,,,,,,,,,,,,,,,,,,,,,,,,,,,,,,196.55518570899585,196.56907529199816,196.56907529199816,197.6887375419974,b,1.0,1.1134956250025425,,,,,sub-075,1,stroop_test,59.9619094366325,
,,,,32.0,8.0,2.0,,,,,,,,,,,,,rot,red,r,1.0,r,1.0,0.9193454579944956,,,,,,,,,,2.0,8.0,32.0,1.0,197.7027122090003,,,,,,,,,,,,,,,,,197.68896445899736,197.80256091699997,198.60232070899656,198.5877518749985,,,,,,,,,,,,,,,,,,,,,,,,,,,,,,,,,,,198.58927862499692,198.60232070899656,198.60232070899656,199.53804770900024,r,1.0,0.9193454579944956,,,,,sub-075,1,stroop_test,59.9619094366325,
,,,,33.0,9.0,2.0,,,,,,,,,,,,,blau,red,r,0.0,r,1.0,1.3811184580044935,,,,,,,,,,2.0,9.0,33.0,4.0,199.5525648749972,,,,,,,,,,,,,,,,,199.53825520900136,200.75249887500104,201.55184887500215,201.5374046249999,,,,,,,,,,,,,,,,,,,,,,,,,,,,,,,,,,,201.5390062919978,201.55184887500215,201.55184887500215,202.93884724999955,r,1.0,1.3811184580044935,,,,,sub-075,1,stroop_test,59.9619094366325,
,,,,34.0,10.0,2.0,,,,,,,,,,,,,rot,blue,b,0.0,b,1.0,1.2388333749986489,,,,,,,,,,2.0,10.0,34.0,2.0,202.952525834,,,,,,,,,,,,,,,,,202.93910674999643,203.7521294170001,204.5531339590016,204.53803374999552,,,,,,,,,,,,,,,,,,,,,,,,,,,,,,,,,,,204.53992583399668,204.5531339590016,204.5531339590016,205.80464604200097,b,1.0,1.2388333749986489,,,,,sub-075,1,stroop_test,59.9619094366325,
,,,,35.0,11.0,2.0,,,,,,,,,,,,,gelb,red,r,0.0,r,1.0,1.4975653329966008,,,,,,,,,,2.0,11.0,35.0,8.0,205.8196562919984,,,,,,,,,,,,,,,,,205.804865166996,206.16936445899773,206.9695540419998,206.9545897499993,,,,,,,,,,,,,,,,,,,,,,,,,,,,,,,,,,,206.9561036250016,206.9695540419998,206.9695540419998,208.4729054999989,r,1.0,1.4975653329966008,,,,,sub-075,1,stroop_test,59.9619094366325,
,,,,36.0,0.0,3.0,,,,,,,,,,,,,gelb,yellow,g,1.0,g,1.0,0.7233424999940326,,,,,,,,,,3.0,0.0,36.0,11.0,208.4860422089987,,,,,,,,,,,,,,,,,208.4731105839965,209.6863254589989,210.48597995899763,210.4709948750024,,,,,,,,,,,,,,,,,,,,,,,,,,,,,,,,,,,210.47119612499955,210.48597995899763,210.48597995899763,211.22205408399896,g,1.0,0.7233424999940326,,,,,sub-075,1,stroop_test,59.9619094366325,
,,,,37.0,1.0,3.0,,,,,,,,,,,,,blau,red,r,0.0,r,1.0,1.2432934590033256,,,,,,,,,,3.0,1.0,37.0,4.0,211.2361125419993,,,,,,,,,,,,,,,,,211.22228429200183,211.3359509590009,212.1357932089959,212.1211169590024,,,,,,,,,,,,,,,,,,,,,,,,,,,,,,,,,,,212.12248945899773,212.1357932089959,212.1357932089959,213.38790587500264,r,1.0,1.2432934590033256,,,,,sub-075,1,stroop_test,59.9619094366325,
,,,,38.0,2.0,3.0,,,,,,,,,,,,,blau,blue,b,1.0,b,1.0,1.088181874998554,,,,,,,,,,3.0,2.0,38.0,5.0,213.4021782089985,,,,,,,,,,,,,,,,,213.3880982499977,213.50273454200212,214.302569458996,214.2877591669967,,,,,,,,,,,,,,,,,,,,,,,,,,,,,,,,,,,214.28792279199843,214.302569458996,214.302569458996,215.40545854200167,b,1.0,1.088181874998554,,,,,sub-075,1,stroop_test,59.9619094366325,
,,,,39.0,3.0,3.0,,,,,,,,,,,,,rot,red,r,1.0,r,1.0,0.8360163329998613,,,,,,,,,,3.0,3.0,39.0,1.0,215.4191969169988,,,,,,,,,,,,,,,,,215.40564166699917,216.61983533400053,217.41884129199752,217.404749041998,,,,,,,,,,,,,,,,,,,,,,,,,,,,,,,,,,,217.40623029199924,217.41884129199752,217.41884129199752,218.2561692090021,r,1.0,0.8360163329998613,,,,,sub-075,1,stroop_test,59.9619094366325,
,,,,40.0,4.0,3.0,,,,,,,,,,,,,rot,blue,b,0.0,b,1.0,1.2003253750008298,,,,,,,,,,3.0,4.0,40.0,2.0,218.26967558400065,,,,,,,,,,,,,,,,,218.25638054199956,219.06960779200017,219.86909208400172,219.85503195899943,,,,,,,,,,,,,,,,,,,,,,,,,,,,,,,,,,,219.8552055839973,219.86909208400172,219.86909208400172,221.0718935420009,b,1.0,1.2003253750008298,,,,,sub-075,1,stroop_test,59.9619094366325,
,,,,41.0,5.0,3.0,,,,,,,,,,,,,gelb,blue,b,0.0,b,1.0,0.6906227910003508,,,,,,,,,,3.0,5.0,41.0,9.0,221.08650808400125,,,,,,,,,,,,,,,,,221.0721032090005,221.1868523340017,221.98646541700143,221.97155508399737,,,,,,,,,,,,,,,,,,,,,,,,,,,,,,,,,,,221.97293224999885,221.98646541700143,221.98646541700143,222.6890270419972,b,1.0,0.6906227910003508,,,,,sub-075,1,stroop_test,59.9619094366325,
,,,,42.0,6.0,3.0,,,,,,,,,,,,,rot,red,r,1.0,r,1.0,0.7287517079967074,,,,,,,,,,3.0,6.0,42.0,0.0,222.7031422500004,,,,,,,,,,,,,,,,,222.68921245900128,223.90309145899664,224.70275508399936,224.68887045900192,,,,,,,,,,,,,,,,,,,,,,,,,,,,,,,,,,,224.6903829169969,224.70275508399936,224.70275508399936,225.4389864170007,r,1.0,0.7287517079967074,,,,,sub-075,1,stroop_test,59.9619094366325,
,,,,43.0,7.0,3.0,,,,,,,,,,,,,blau,blue,b,1.0,b,1.0,0.7852081660021213,,,,,,,,,,3.0,7.0,43.0,6.0,225.452718333996,,,,,,,,,,,,,,,,,225.43919462499616,226.653300209,227.4528494589977,227.4381293339975,,,,,,,,,,,,,,,,,,,,,,,,,,,,,,,,,,,227.4396332920005,227.4528494589977,227.4528494589977,228.2409414169961,b,1.0,0.7852081660021213,,,,,sub-075,1,stroop_test,59.9619094366325,
,,,,44.0,8.0,3.0,,,,,,,,,,,,,blau,yellow,g,0.0,g,1.0,0.9054550410000956,,,,,,,,,,3.0,8.0,44.0,7.0,228.25374345899763,,,,,,,,,,,,,,,,,228.24117229200056,228.6031100839973,229.40285287499864,229.38900541699692,,,,,,,,,,,,,,,,,,,,,,,,,,,,,,,,,,,229.3891883749966,229.40285287499864,229.40285287499864,230.32296179200057,g,1.0,0.9054550410000956,,,,,sub-075,1,stroop_test,59.9619094366325,
,,,,45.0,9.0,3.0,,,,,,,,,,,,,gelb,red,r,0.0,r,1.0,0.9174562500047614,,,,,,,,,,3.0,9.0,45.0,8.0,230.3365799999956,,,,,,,,,,,,,,,,,230.32317604200216,231.5363672919993,232.33608733399888,232.322330666997,,,,,,,,,,,,,,,,,,,,,,,,,,,,,,,,,,,232.3237209169965,232.33608733399888,232.33608733399888,233.25598641699617,r,1.0,0.9174562500047614,,,,,sub-075,1,stroop_test,59.9619094366325,
,,,,46.0,10.0,3.0,,,,,,,,,,,,,gelb,yellow,g,1.0,g,1.0,0.684726707993832,,,,,,,,,,3.0,10.0,46.0,10.0,233.27007349999624,,,,,,,,,,,,,,,,,233.2561918749998,234.0697856249972,234.8706183749964,234.855363333998,,,,,,,,,,,,,,,,,,,,,,,,,,,,,,,,,,,234.8555420420016,234.8706183749964,234.8706183749964,235.55662029200172,g,1.0,0.684726707993832,,,,,sub-075,1,stroop_test,59.9619094366325,
,,,,47.0,11.0,3.0,,,,,,,,,,,,,rot,yellow,g,0.0,g,1.0,0.4175114579993533,,,,,,,,,,3.0,11.0,47.0,3.0,235.56959025000103,,,,,,,,,,,,,,,,,235.5568597919992,236.36965220899583,237.17049170899557,237.1554612089967,,,,,,,,,,,,,,,,,,,,,,,,,,,,,,,,,,,237.15695591700205,237.17049170899557,237.17049170899557,237.5892260420005,g,1.0,0.4175114579993533,,,,,sub-075,1,stroop_test,59.9619094366325,
,,,,48.0,0.0,4.0,,,,,,,,,,,,,blau,yellow,g,0.0,g,1.0,1.1486894160043448,,,,,,,,,,4.0,0.0,48.0,7.0,237.60358033399825,,,,,,,,,,,,,,,,,237.5894364589985,237.7034486670018,238.50344466699607,238.4886476249958,,,,,,,,,,,,,,,,,,,,,,,,,,,,,,,,,,,238.4903848749964,238.50344466699607,238.50344466699607,239.65587454199704,g,1.0,1.1486894160043448,,,,,sub-075,1,stroop_test,59.9619094366325,
,,,,49.0,1.0,4.0,,,,,,,,,,,,,gelb,red,r,0.0,r,1.0,1.1132748749951134,,,,,,,,,,4.0,1.0,49.0,8.0,239.669754417002,,,,,,,,,,,,,,,,,239.65611591700144,240.020088792,240.82030924999708,240.80580212499623,,,,,,,,,,,,,,,,,,,,,,,,,,,,,,,,,,,240.80716450000185,240.82030924999708,240.82030924999708,241.93953899999903,r,1.0,1.1132748749951134,,,,,sub-075,1,stroop_test,59.9619094366325,
,,,,50.0,2.0,4.0,,,,,,,,,,,,,rot,yellow,g,0.0,g,1.0,2.0802594579945435,,,,,,,,,,4.0,2.0,50.0,3.0,241.95381404199725,,,,,,,,,,,,,,,,,241.93974616700143,242.05334037500143,242.8531161669962,242.8386441670009,,,,,,,,,,,,,,,,,,,,,,,,,,,,,,,,,,,242.84035887500067,242.8531161669962,242.8531161669962,244.9399899589989,g,1.0,2.0802594579945435,,,,,sub-075,1,stroop_test,59.9619094366325,
,,,,51.0,3.0,4.0,,,,,,,,,,,,,gelb,yellow,g,1.0,g,1.0,0.5468983749960898,,,,,,,,,,4.0,3.0,51.0,10.0,244.95406124999863,,,,,,,,,,,,,,,,,244.94020108399852,245.05367549999937,245.8531271669999,245.83855283400044,,,,,,,,,,,,,,,,,,,,,,,,,,,,,,,,,,,245.8405504999973,245.8531271669999,245.8531271669999,246.40635991699676,g,1.0,0.5468983749960898,,,,,sub-075,1,stroop_test,59.9619094366325,
,,,,52.0,4.0,4.0,,,,,,,,,,,,,gelb,yellow,g,1.0,g,1.0,0.6397170419950271,,,,,,,,,,4.0,4.0,52.0,11.0,246.4208286669964,,,,,,,,,,,,,,,,,246.40657270899828,247.6205203339996,248.4206090000007,248.4059597919986,,,,,,,,,,,,,,,,,,,,,,,,,,,,,,,,,,,248.4061249169972,248.4206090000007,248.4206090000007,249.0738151670012,g,1.0,0.6397170419950271,,,,,sub-075,1,stroop_test,59.9619094366325,
,,,,53.0,5.0,4.0,,,,,,,,,,,,,rot,red,r,1.0,r,1.0,0.6756181250020745,,,,,,,,,,4.0,5.0,53.0,1.0,249.0873487919962,,,,,,,,,,,,,,,,,249.074055416997,249.8874033339962,250.6866244999983,250.6719702920018,,,,,,,,,,,,,,,,,,,,,,,,,,,,,,,,,,,250.67346554200049,250.6866244999983,250.6866244999983,251.37345070899755,r,1.0,0.6756181250020745,,,,,sub-075,1,stroop_test,59.9619094366325,
,,,,54.0,6.0,4.0,,,,,,,,,,,,,gelb,blue,b,0.0,b,1.0,1.2427988339986769,,,,,,,,,,4.0,6.0,54.0,9.0,251.387364000002,,,,,,,,,,,,,,,,,251.37363624999853,251.73714754200049,252.53732574999597,252.5227118749972,,,,,,,,,,,,,,,,,,,,,,,,,,,,,,,,,,,252.52430920900224,252.53732574999597,252.53732574999597,253.79021166700116,b,1.0,1.2427988339986769,,,,,sub-075,1,stroop_test,59.9619094366325,
,,,,55.0,7.0,4.0,,,,,,,,,,,,,rot,red,r,1.0,r,1.0,0.9067595829983476,,,,,,,,,,4.0,7.0,55.0,0.0,253.80434550000064,,,,,,,,,,,,,,,,,253.79042887499963,255.00395433400263,255.8037783749969,255.7891095419982,,,,,,,,,,,,,,,,,,,,,,,,,,,,,,,,,,,255.7904573749984,255.8037783749969,255.8037783749969,256.7233133749978,r,1.0,0.9067595829983476,,,,,sub-075,1,stroop_test,59.9619094366325,
,,,,56.0,8.0,4.0,,,,,,,,,,,,,blau,red,r,0.0,b,0.0,1.251720624997688,,,,,,,,,,4.0,8.0,56.0,4.0,256.73788287500065,,,,,,,,,,,,,,,,,256.7235294170023,257.0879625419984,257.8873351250004,257.87240100000054,,,,,,,,,,,,,,,,,,,,,,,,,,,,,,,,,,,257.8739100419989,257.8873351250004,257.8873351250004,259.140120541997,b,0.0,1.251720624997688,,,,,sub-075,1,stroop_test,59.9619094366325,
,,,,57.0,9.0,4.0,,,,,,,,,,,,,rot,blue,b,0.0,b,1.0,0.8501342079980532,,,,,,,,,,4.0,9.0,57.0,2.0,259.15392691700254,,,,,,,,,,,,,,,,,259.14031083400187,259.95434674999706,260.7540582919973,260.73945749999984,,,,,,,,,,,,,,,,,,,,,,,,,,,,,,,,,,,260.7408707919967,260.7540582919973,260.7540582919973,261.60638525000104,b,1.0,0.8501342079980532,,,,,sub-075,1,stroop_test,59.9619094366325,
,,,,58.0,10.0,4.0,,,,,,,,,,,,,blau,blue,b,1.0,b,1.0,0.5831832499970915,,,,,,,,,,4.0,10.0,58.0,5.0,261.6208303750027,,,,,,,,,,,,,,,,,261.6065904589996,262.42141616700246,263.2206674170011,263.2065349589975,,,,,,,,,,,,,,,,,,,,,,,,,,,,,,,,,,,263.20793045900064,263.2206674170011,263.2206674170011,263.8069047089957,b,1.0,0.5831832499970915,,,,,sub-075,1,stroop_test,59.9619094366325,
,,,,59.0,11.0,4.0,,,,,,,,,,,,,blau,blue,b,1.0,b,1.0,0.682409834000282,,,,,,,,,,4.0,11.0,59.0,6.0,263.82104999999865,,,,,,,,,,,,,,,,,263.807116750002,263.9212833339989,264.721100625,264.7063124999986,,,,,,,,,,,,,,,,,,,,,,,,,,,,,,,,,,,264.70649050000065,264.721100625,264.721100625,265.4068870839983,b,1.0,0.682409834000282,,,,,sub-075,1,stroop_test,59.9619094366325,
,,,,60.0,0.0,5.0,,,,,,,,,,,,,blau,blue,b,1.0,b,1.0,0.5852042499973322,,,,,,,,,,5.0,0.0,60.0,5.0,265.42145962500217,,,,,,,,,,,,,,,,,265.40710012499767,266.2215823750012,267.02083824999863,267.00615316699987,,,,,,,,,,,,,,,,,,,,,,,,,,,,,,,,,,,267.0063451250025,267.02083824999863,267.02083824999863,267.6232763340013,b,1.0,0.5852042499973322,,,,,sub-075,1,stroop_test,59.9619094366325,
,,,,61.0,1.0,5.0,,,,,,,,,,,,,gelb,yellow,g,1.0,g,1.0,1.4005853330018,,,,,,,,,,5.0,1.0,61.0,11.0,267.6378714999955,,,,,,,,,,,,,,,,,267.6234724589958,267.7382575419979,268.5377725840008,268.5240383339988,,,,,,,,,,,,,,,,,,,,,,,,,,,,,,,,,,,268.52549654200266,268.5377725840008,268.5377725840008,269.9404140839979,g,1.0,1.4005853330018,,,,,sub-075,1,stroop_test,59.9619094366325,
,,,,62.0,2.0,5.0,,,,,,,,,,,,,rot,yellow,g,0.0,g,1.0,1.1953174999944167,,,,,,,,,,5.0,2.0,62.0,3.0,269.9544467500018,,,,,,,,,,,,,,,,,269.9406683339985,271.15454283399595,271.9537211669958,271.940682542001,,,,,,,,,,,,,,,,,,,,,,,,,,,,,,,,,,,271.9421022919996,271.9537211669958,271.9537211669958,273.15710925000167,g,1.0,1.1953174999944167,,,,,sub-075,1,stroop_test,59.9619094366325,
,,,,63.0,3.0,5.0,,,,,,,,,,,,,rot,red,r,1.0,r,1.0,0.8529072079982143,,,,,,,,,,5.0,3.0,63.0,1.0,273.1707213339978,,,,,,,,,,,,,,,,,273.1573282089957,273.52105075000145,274.32100362500205,274.306161374996,,,,,,,,,,,,,,,,,,,,,,,,,,,,,,,,,,,274.30633724999643,274.32100362500205,274.32100362500205,275.1766637499968,r,1.0,0.8529072079982143,,,,,sub-075,1,stroop_test,59.9619094366325,
,,,,64.0,4.0,5.0,,,,,,,,,,,,,gelb,red,r,0.0,r,1.0,0.6135027919954155,,,,,,,,,,5.0,4.0,64.0,8.0,275.1878874999966,,,,,,,,,,,,,,,,,275.1768910419996,275.5375847920004,276.3379277499989,276.3229984999998,,,,,,,,,,,,,,,,,,,,,,,,,,,,,,,,,,,276.32450937500107,276.3379277499989,276.3379277499989,276.9570315839956,r,1.0,0.6135027919954155,,,,,sub-075,1,stroop_test,59.9619094366325,
,,,,65.0,5.0,5.0,,,,,,,,,,,,,blau,yellow,g,0.0,g,1.0,1.0674360830016667,,,,,,,,,,5.0,5.0,65.0,7.0,276.97178066700144,,,,,,,,,,,,,,,,,276.95726287499565,277.771543709001,278.5711649169971,278.5561809999999,,,,,,,,,,,,,,,,,,,,,,,,,,,,,,,,,,,278.557690499998,278.5711649169971,278.5711649169971,279.6410808750006,g,1.0,1.0674360830016667,,,,,sub-075,1,stroop_test,59.9619094366325,
,,,,66.0,6.0,5.0,,,,,,,,,,,,,gelb,yellow,g,1.0,g,1.0,0.8626407080009812,,,,,,,,,,5.0,6.0,66.0,10.0,279.6551144999976,,,,,,,,,,,,,,,,,279.64128308399813,280.00524079200113,280.8047614589959,280.78998745900026,,,,,,,,,,,,,,,,,,,,,,,,,,,,,,,,,,,280.79150566700264,280.8047614589959,280.8047614589959,281.674728375001,g,1.0,0.8626407080009812,,,,,sub-075,1,stroop_test,59.9619094366325,
,,,,67.0,7.0,5.0,,,,,,,,,,,,,rot,red,r,1.0,r,1.0,0.9421070419994066,,,,,,,,,,5.0,7.0,67.0,0.0,281.688431417002,,,,,,,,,,,,,,,,,281.6749637920002,282.8878822089973,283.68814016699616,283.67350433400134,,,,,,,,,,,,,,,,,,,,,,,,,,,,,,,,,,,283.67489970899624,283.68814016699616,283.68814016699616,284.6405324169973,r,1.0,0.9421070419994066,,,,,sub-075,1,stroop_test,59.9619094366325,
,,,,68.0,8.0,5.0,,,,,,,,,,,,,rot,blue,b,0.0,b,1.0,1.3866336249993765,,,,,,,,,,5.0,8.0,68.0,2.0,284.6550101249959,,,,,,,,,,,,,,,,,284.64073183399887,285.004803333999,285.8048356669969,285.79009495899663,,,,,,,,,,,,,,,,,,,,,,,,,,,,,,,,,,,285.79028033399663,285.8048356669969,285.8048356669969,287.2075571669993,b,1.0,1.3866336249993765,,,,,sub-075,1,stroop_test,59.9619094366325,
,,,,69.0,9.0,5.0,,,,,,,,,,,,,blau,blue,b,1.0,b,1.0,0.6290352500000154,,,,,,,,,,5.0,9.0,69.0,6.0,287.2216109169967,,,,,,,,,,,,,,,,,287.2077438339984,287.5716262499991,288.37127579200023,288.35662137500185,,,,,,,,,,,,,,,,,,,,,,,,,,,,,,,,,,,288.35836820899567,288.37127579200023,288.37127579200023,289.0082612499973,b,1.0,0.6290352500000154,,,,,sub-075,1,stroop_test,59.9619094366325,
,,,,70.0,10.0,5.0,,,,,,,,,,,,,blau,red,r,0.0,r,1.0,1.0787889159983024,,,,,,,,,,5.0,10.0,70.0,4.0,289.021407166998,,,,,,,,,,,,,,,,,289.0085128339997,289.8216502089999,290.6213366250013,290.6070052089999,,,,,,,,,,,,,,,,,,,,,,,,,,,,,,,,,,,290.6071757919999,290.6213366250013,290.6213366250013,291.7080950419986,r,1.0,1.0787889159983024,,,,,sub-075,1,stroop_test,59.9619094366325,
,,,,71.0,11.0,5.0,,,,,,,,,,,,,gelb,blue,b,0.0,b,1.0,1.2031712500029244,,,,,,,,,,5.0,11.0,71.0,9.0,291.72158829199907,,,,,,,,,,,,,,,,,291.7083352089976,292.5220494999958,293.32215491699753,293.30678170899773,,,,,,,,,,,,,,,,,,,,,,,,,,,,,,,,,,,293.3082889590005,293.32215491699753,293.32215491699753,294.5425479170008,b,1.0,1.2031712500029244,,,,,sub-075,1,stroop_test,59.9619094366325,
,,,,72.0,0.0,6.0,,,,,,,,,,,,,rot,red,r,1.0,r,1.0,0.6922270829963963,,,,,,,,,,6.0,0.0,72.0,1.0,294.5554523749961,,,,,,,,,,,,,,,,,294.54278920900106,295.75536704200204,296.5551792089973,296.540085583998,,,,,,,,,,,,,,,,,,,,,,,,,,,,,,,,,,,296.5414864999984,296.5551792089973,296.5551792089973,297.25756991699745,r,1.0,0.6922270829963963,,,,,sub-075,1,stroop_test,59.9619094366325,
,,,,73.0,1.0,6.0,,,,,,,,,,,,,blau,yellow,g,0.0,g,1.0,1.0367807090005954,,,,,,,,,,6.0,1.0,73.0,7.0,297.2722067499999,,,,,,,,,,,,,,,,,297.2577697500019,298.4715704170012,299.2717325839985,299.2578013750026,,,,,,,,,,,,,,,,,,,,,,,,,,,,,,,,,,,299.2593153749985,299.2717325839985,299.2717325839985,300.3253387090008,g,1.0,1.0367807090005954,,,,,sub-075,1,stroop_test,59.9619094366325,
,,,,74.0,2.0,6.0,,,,,,,,,,,,,blau,red,r,0.0,r,1.0,0.9696128750001662,,,,,,,,,,6.0,2.0,74.0,4.0,300.33904916699976,,,,,,,,,,,,,,,,,300.32552441699954,301.13846908399864,301.93897170900163,301.9238332090026,,,,,,,,,,,,,,,,,,,,,,,,,,,,,,,,,,,301.9240098750015,301.93897170900163,301.93897170900163,302.924105166996,r,1.0,0.9696128750001662,,,,,sub-075,1,stroop_test,59.9619094366325,
,,,,75.0,3.0,6.0,,,,,,,,,,,,,gelb,blue,b,0.0,b,1.0,1.197218959001475,,,,,,,,,,6.0,3.0,75.0,9.0,302.9383260839968,,,,,,,,,,,,,,,,,302.9242960420015,303.7397590420005,304.538586249997,304.5242375000016,,,,,,,,,,,,,,,,,,,,,,,,,,,,,,,,,,,304.5257906249972,304.538586249997,304.538586249997,305.741962084001,b,1.0,1.197218959001475,,,,,sub-075,1,stroop_test,59.9619094366325,
,,,,76.0,4.0,6.0,,,,,,,,,,,,,rot,blue,b,0.0,b,1.0,1.7503620000061346,,,,,,,,,,6.0,4.0,76.0,2.0,305.7559165420025,,,,,,,,,,,,,,,,,305.7422024999978,306.95574333400145,307.75519920900115,307.74093049999647,,,,,,,,,,,,,,,,,,,,,,,,,,,,,,,,,,,307.7422700419993,307.75519920900115,307.75519920900115,309.5084314999985,b,1.0,1.7503620000061346,,,,,sub-075,1,stroop_test,59.9619094366325,
,,,,77.0,5.0,6.0,,,,,,,,,,,,,rot,yellow,g,0.0,g,1.0,1.3334661250046338,,,,,,,,,,6.0,5.0,77.0,3.0,309.5227380840006,,,,,,,,,,,,,,,,,309.5086453749973,309.6232877500006,310.422362917001,310.4082471669972,,,,,,,,,,,,,,,,,,,,,,,,,,,,,,,,,,,310.40842841700214,310.422362917001,310.422362917001,311.7583612919989,g,1.0,1.3334661250046338,,,,,sub-075,1,stroop_test,59.9619094366325,
,,,,78.0,6.0,6.0,,,,,,,,,,,,,gelb,yellow,g,1.0,g,1.0,0.8605947920004837,,,,,,,,,,6.0,6.0,78.0,10.0,311.77313875000254,,,,,,,,,,,,,,,,,311.75856704200123,312.57243466699583,313.3729246669973,313.3578933749959,,,,,,,,,,,,,,,,,,,,,,,,,,,,,,,,,,,313.3594436249987,313.3729246669973,313.3729246669973,314.2419112919961,g,1.0,0.8605947920004837,,,,,sub-075,1,stroop_test,59.9619094366325,
,,,,79.0,7.0,6.0,,,,,,,,,,,,,rot,red,r,1.0,r,1.0,1.216937457997119,,,,,,,,,,6.0,7.0,79.0,0.0,314.25488824999775,,,,,,,,,,,,,,,,,314.2421384170011,314.6059559589994,315.405859708997,315.39074312499724,,,,,,,,,,,,,,,,,,,,,,,,,,,,,,,,,,,315.3922298339967,315.405859708997,315.405859708997,316.624854458998,r,1.0,1.216937457997119,,,,,sub-075,1,stroop_test,59.9619094366325,
,,,,80.0,8.0,6.0,,,,,,,,,,,,,blau,blue,b,1.0,b,1.0,0.7693039999940083,,,,,,,,,,6.0,8.0,80.0,6.0,316.6386239170024,,,,,,,,,,,,,,,,,316.6250952920018,316.98997183400206,317.7886837499973,317.77474841699586,,,,,,,,,,,,,,,,,,,,,,,,,,,,,,,,,,,317.7763517919957,317.7886837499973,317.7886837499973,318.5757806249967,b,1.0,0.7693039999940083,,,,,sub-075,1,stroop_test,59.9619094366325,
,,,,81.0,9.0,6.0,,,,,,,,,,,,,gelb,yellow,g,1.0,g,1.0,0.8521427919986309,,,,,,,,,,6.0,9.0,81.0,11.0,318.58933912499924,,,,,,,,,,,,,,,,,318.5759867919988,319.7893346670025,320.58992504199705,320.5744223750007,,,,,,,,,,,,,,,,,,,,,,,,,,,,,,,,,,,320.5761438749978,320.58992504199705,320.58992504199705,321.4432574999955,g,1.0,0.8521427919986309,,,,,sub-075,1,stroop_test,59.9619094366325,
,,,,82.0,10.0,6.0,,,,,,,,,,,,,gelb,red,r,0.0,r,1.0,2.88411166700098,,,,,,,,,,6.0,10.0,82.0,8.0,321.45645637499547,,,,,,,,,,,,,,,,,321.44348208399606,322.25712933400064,323.0733020420012,323.0579469590012,,,,,,,,,,,,,,,,,,,,,,,,,,,,,,,,,,,323.0581302089995,323.0733020420012,323.0733020420012,325.95869879199745,r,1.0,2.88411166700098,,,,,sub-075,1,stroop_test,59.9619094366325,
,,,,83.0,11.0,6.0,,,,,,,,,,,,,blau,blue,b,1.0,b,1.0,0.8256859590037493,,,,,,,,,,6.0,11.0,83.0,5.0,325.97347520900075,,,,,,,,,,,,,,,,,325.95890812500147,326.07291170900135,326.8725221669956,326.8580510419997,,,,,,,,,,,,,,,,,,,,,,,,,,,,,,,,,,,326.8595784589997,326.8725221669956,326.8725221669956,327.7104433749992,b,1.0,0.8256859590037493,,,,,sub-075,1,stroop_test,59.9619094366325,
,,,,84.0,0.0,7.0,,,,,,,,,,,,,gelb,yellow,g,1.0,b,0.0,1.2450018340023234,,,,,,,,,,7.0,0.0,84.0,10.0,327.7230396669984,,,,,,,,,,,,,,,,,327.7107088749981,328.9231816669999,329.7224592089988,329.70803470900137,,,,,,,,,,,,,,,,,,,,,,,,,,,,,,,,,,,329.7094176669998,329.7224592089988,329.7224592089988,330.97644249999576,b,0.0,1.2450018340023234,,,,,sub-075,1,stroop_test,59.9619094366325,
,,,,85.0,1.0,7.0,,,,,,,,,,,,,rot,blue,b,0.0,b,1.0,1.7383052919976762,,,,,,,,,,7.0,1.0,85.0,2.0,330.98999204199936,,,,,,,,,,,,,,,,,330.9767077919969,332.1901575419979,332.98983987500105,332.97497091699915,,,,,,,,,,,,,,,,,,,,,,,,,,,,,,,,,,,332.97626508399844,332.98983987500105,332.98983987500105,334.7435501250002,b,1.0,1.7383052919976762,,,,,sub-075,1,stroop_test,59.9619094366325,
,,,,86.0,2.0,7.0,,,,,,,,,,,,,blau,blue,b,1.0,b,1.0,0.5980192499991972,,,,,,,,,,7.0,2.0,86.0,6.0,334.7565103340021,,,,,,,,,,,,,,,,,334.74379116699856,335.9563616669984,336.7562947920014,336.74183779199666,,,,,,,,,,,,,,,,,,,,,,,,,,,,,,,,,,,336.7435279170022,336.7562947920014,336.7562947920014,337.3592642090007,b,1.0,0.5980192499991972,,,,,sub-075,1,stroop_test,59.9619094366325,
,,,,87.0,3.0,7.0,,,,,,,,,,,,,rot,red,r,1.0,r,1.0,0.7788902499960386,,,,,,,,,,7.0,3.0,87.0,1.0,337.3736221250001,,,,,,,,,,,,,,,,,337.3594714169958,338.1740472919992,338.99000320900086,338.9749932920022,,,,,,,,,,,,,,,,,,,,,,,,,,,,,,,,,,,338.97647004199825,338.99000320900086,338.99000320900086,339.7764330419959,r,1.0,0.7788902499960386,,,,,sub-075,1,stroop_test,59.9619094366325,
,,,,88.0,4.0,7.0,,,,,,,,,,,,,gelb,yellow,g,1.0,g,1.0,0.6416556250042049,,,,,,,,,,7.0,4.0,88.0,11.0,339.78993554200133,,,,,,,,,,,,,,,,,339.7766190420007,340.14030349999666,340.9402906249961,340.9257801249987,,,,,,,,,,,,,,,,,,,,,,,,,,,,,,,,,,,340.92751791699993,340.9402906249961,340.9402906249961,341.5927717500017,g,1.0,0.6416556250042049,,,,,sub-075,1,stroop_test,59.9619094366325,
,,,,89.0,5.0,7.0,,,,,,,,,,,,,blau,yellow,g,0.0,g,1.0,0.5665480840034434,,,,,,,,,,7.0,5.0,89.0,7.0,341.60670387499704,,,,,,,,,,,,,,,,,341.59299887499947,341.9565701669999,342.756538333997,342.74258795900096,,,,,,,,,,,,,,,,,,,,,,,,,,,,,,,,,,,342.7440897089982,342.756538333997,342.756538333997,343.32613624999794,g,1.0,0.5665480840034434,,,,,sub-075,1,stroop_test,59.9619094366325,
,,,,90.0,6.0,7.0,,,,,,,,,,,,,gelb,red,r,0.0,r,1.0,1.1383960000021034,,,,,,,,,,7.0,6.0,90.0,8.0,343.34008770900255,,,,,,,,,,,,,,,,,343.3263714170025,344.14043066700106,344.9406151250005,344.9256843749972,,,,,,,,,,,,,,,,,,,,,,,,,,,,,,,,,,,344.9272011669964,344.9406151250005,344.9406151250005,346.09365733400045,r,1.0,1.1383960000021034,,,,,sub-075,1,stroop_test,59.9619094366325,
,,,,91.0,7.0,7.0,,,,,,,,,,,,,rot,red,r,1.0,r,1.0,0.7096416670028702,,,,,,,,,,7.0,7.0,91.0,0.0,346.1071078749956,,,,,,,,,,,,,,,,,346.0938876250002,347.3067979999978,348.1071029590021,348.0921637919964,,,,,,,,,,,,,,,,,,,,,,,,,,,,,,,,,,,348.09385970899893,348.1071029590021,348.1071029590021,348.82514274999994,r,1.0,0.7096416670028702,,,,,sub-075,1,stroop_test,59.9619094366325,
,,,,92.0,8.0,7.0,,,,,,,,,,,,,gelb,blue,b,0.0,g,0.0,0.9171237080008724,,,,,,,,,,7.0,8.0,92.0,9.0,348.84007474999817,,,,,,,,,,,,,,,,,348.82533016699745,348.9400697090023,349.73992808399635,349.7250417089963,,,,,,,,,,,,,,,,,,,,,,,,,,,,,,,,,,,349.7265543339963,349.73992808399635,349.73992808399635,350.6596082089964,g,0.0,0.9171237080008724,,,,,sub-075,1,stroop_test,59.9619094366325,
,,,,93.0,9.0,7.0,,,,,,,,,,,,,blau,blue,b,1.0,g,0.0,0.6056006669969065,,,,,,,,,,7.0,9.0,93.0,5.0,350.6739851250022,,,,,,,,,,,,,,,,,350.65983041699656,351.02354950000154,351.82360204200086,351.80859116699867,,,,,,,,,,,,,,,,,,,,,,,,,,,,,,,,,,,351.8099620419962,351.82360204200086,351.82360204200086,352.443535624996,g,0.0,0.6056006669969065,,,,,sub-075,1,stroop_test,59.9619094366325,
,,,,94.0,10.0,7.0,,,,,,,,,,,,,blau,red,r,0.0,r,1.0,1.4403158749992144,,,,,,,,,,7.0,10.0,94.0,4.0,352.4578634999998,,,,,,,,,,,,,,,,,352.44374612499814,352.55718658399564,353.3570968339991,353.3421141669969,,,,,,,,,,,,,,,,,,,,,,,,,,,,,,,,,,,353.3422947500003,353.3570968339991,353.3570968339991,354.809717791999,r,1.0,1.4403158749992144,,,,,sub-075,1,stroop_test,59.9619094366325,
,,,,95.0,11.0,7.0,,,,,,,,,,,,,rot,yellow,g,0.0,b,0.0,1.0482193749994622,,,,,,,,,,7.0,11.0,95.0,3.0,354.8238740000015,,,,,,,,,,,,,,,,,354.8099207499981,355.62429454200173,356.4236013339978,356.40988508400187,,,,,,,,,,,,,,,,,,,,,,,,,,,,,,,,,,,356.4112964169981,356.4236013339978,356.4236013339978,357.4764314589993,b,0.0,1.0482193749994622,,,,,sub-075,1,stroop_test,59.9619094366325,
,,,,96.0,0.0,8.0,,,,,,,,,,,,,gelb,blue,b,0.0,b,1.0,1.6074582919973182,,,,,,,,,,8.0,0.0,96.0,9.0,357.4910941249982,,,,,,,,,,,,,,,,,357.47665312499885,357.59058533400093,358.39012899999943,358.37580024999625,,,,,,,,,,,,,,,,,,,,,,,,,,,,,,,,,,,358.3776020840014,358.39012899999943,358.39012899999943,360.01012266700127,b,1.0,1.6074582919973182,,,,,sub-075,1,stroop_test,59.9619094366325,
,,,,97.0,1.0,8.0,,,,,,,,,,,,,gelb,red,r,0.0,r,1.0,1.0155920830002287,,,,,,,,,,8.0,1.0,97.0,8.0,360.02435929200146,,,,,,,,,,,,,,,,,360.0103279169998,360.8233433339992,361.6243190000023,361.6090842920021,,,,,,,,,,,,,,,,,,,,,,,,,,,,,,,,,,,361.609322833996,361.6243190000023,361.6243190000023,362.643046792,r,1.0,1.0155920830002287,,,,,sub-075,1,stroop_test,59.9619094366325,
,,,,98.0,2.0,8.0,,,,,,,,,,,,,blau,blue,b,1.0,b,1.0,1.1501381249981932,,,,,,,,,,8.0,2.0,98.0,5.0,362.6570815419982,,,,,,,,,,,,,,,,,362.64324287499767,363.457243249999,364.257305375002,364.2430240839967,,,,,,,,,,,,,,,,,,,,,,,,,,,,,,,,,,,364.2449213340005,364.257305375002,364.257305375002,365.41069995900034,b,1.0,1.1501381249981932,,,,,sub-075,1,stroop_test,59.9619094366325,
,,,,99.0,3.0,8.0,,,,,,,,,,,,,blau,blue,b,1.0,b,1.0,1.105353750004724,,,,,,,,,,8.0,3.0,99.0,6.0,365.4247471249983,,,,,,,,,,,,,,,,,365.4109195839992,366.22447416700015,367.0247534169976,367.0095522089978,,,,,,,,,,,,,,,,,,,,,,,,,,,,,,,,,,,367.00971362499695,367.0247534169976,367.0247534169976,368.143721374996,b,1.0,1.105353750004724,,,,,sub-075,1,stroop_test,59.9619094366325,
,,,,100.0,4.0,8.0,,,,,,,,,,,,,rot,red,r,1.0,r,1.0,0.7104718749978929,,,,,,,,,,8.0,4.0,100.0,0.0,368.1579854590018,,,,,,,,,,,,,,,,,368.1439467500022,368.5082203749989,369.3074782499971,369.29289670899743,,,,,,,,,,,,,,,,,,,,,,,,,,,,,,,,,,,369.29440904199873,369.3074782499971,369.3074782499971,370.0270132919977,r,1.0,0.7104718749978929,,,,,sub-075,1,stroop_test,59.9619094366325,
,,,,101.0,5.0,8.0,,,,,,,,,,,,,blau,yellow,g,0.0,g,1.0,0.959605249998276,,,,,,,,,,8.0,5.0,101.0,7.0,370.0408892499981,,,,,,,,,,,,,,,,,370.0272415,370.1410968749988,370.94111025000166,370.9267524589959,,,,,,,,,,,,,,,,,,,,,,,,,,,,,,,,,,,370.92813845899946,370.94111025000166,370.94111025000166,371.9104874589975,g,1.0,0.959605249998276,,,,,sub-075,1,stroop_test,59.9619094366325,
,,,,102.0,6.0,8.0,,,,,,,,,,,,,rot,yellow,g,0.0,g,1.0,0.930048500005796,,,,,,,,,,8.0,6.0,102.0,3.0,371.9241990419978,,,,,,,,,,,,,,,,,371.91068679199816,372.2742834169985,373.074163917001,373.0598014169954,,,,,,,,,,,,,,,,,,,,,,,,,,,,,,,,,,,373.0615462089991,373.074163917001,373.074163917001,374.0106907500012,g,1.0,0.930048500005796,,,,,sub-075,1,stroop_test,59.9619094366325,
,,,,103.0,7.0,8.0,,,,,,,,,,,,,rot,red,r,1.0,r,1.0,0.6338565829937579,,,,,,,,,,8.0,7.0,103.0,1.0,374.02548445900175,,,,,,,,,,,,,,,,,374.0108949589994,374.3748940419973,375.1760334999999,375.16037924999546,,,,,,,,,,,,,,,,,,,,,,,,,,,,,,,,,,,375.160544624996,375.1760334999999,375.1760334999999,375.8110288749958,r,1.0,0.6338565829937579,,,,,sub-075,1,stroop_test,59.9619094366325,
,,,,104.0,8.0,8.0,,,,,,,,,,,,,blau,red,r,0.0,b,0.0,1.1881252499952095,,,,,,,,,,8.0,8.0,104.0,4.0,375.8247205840016,,,,,,,,,,,,,,,,,375.81121887500194,376.6244610840004,377.4240200839995,377.4090194169985,,,,,,,,,,,,,,,,,,,,,,,,,,,,,,,,,,,377.4106387089996,377.4240200839995,377.4240200839995,378.6266819590018,b,0.0,1.1881252499952095,,,,,sub-075,1,stroop_test,59.9619094366325,
,,,,105.0,9.0,8.0,,,,,,,,,,,,,gelb,yellow,g,1.0,g,1.0,1.2188956659956602,,,,,,,,,,8.0,9.0,105.0,10.0,378.6408490839967,,,,,,,,,,,,,,,,,378.6268716249979,378.7413599169959,379.5414788749986,379.5264957499967,,,,,,,,,,,,,,,,,,,,,,,,,,,,,,,,,,,379.527873209001,379.5414788749986,379.5414788749986,380.7777643750014,g,1.0,1.2188956659956602,,,,,sub-075,1,stroop_test,59.9619094366325,
,,,,106.0,10.0,8.0,,,,,,,,,,,,,rot,blue,b,0.0,b,1.0,1.3099767090025125,,,,,,,,,,8.0,10.0,106.0,2.0,380.7912208339985,,,,,,,,,,,,,,,,,380.7779791249996,381.591508958998,382.3920001669976,382.3773845420001,,,,,,,,,,,,,,,,,,,,,,,,,,,,,,,,,,,382.3789560419973,382.3920001669976,382.3920001669976,383.71085458400194,b,1.0,1.3099767090025125,,,,,sub-075,1,stroop_test,59.9619094366325,
,,,,107.0,11.0,8.0,,,,,,,,,,,,,gelb,yellow,g,1.0,g,1.0,0.8959214580027037,,,,,,,,,,8.0,11.0,107.0,11.0,383.7244124169956,,,,,,,,,,,,,,,,,383.7110699589976,383.824629499999,384.624799792,384.6104419999974,,,,,,,,,,,,,,,,,,,,,,,,,,,,,,,,,,,384.61215162499866,384.624799792,384.624799792,385.5282071670008,g,1.0,0.8959214580027037,,,,,sub-075,1,stroop_test,59.9619094366325,
,,,,108.0,0.0,9.0,,,,,,,,,,,,,blau,blue,b,1.0,b,1.0,1.3102886249980656,,,,,,,,,,9.0,0.0,108.0,5.0,385.5417472089976,,,,,,,,,,,,,,,,,385.52841379200254,386.7414202090004,387.5416704590025,387.5269415419971,,,,,,,,,,,,,,,,,,,,,,,,,,,,,,,,,,,387.5284732500004,387.5416704590025,387.5416704590025,388.86152291699545,b,1.0,1.3102886249980656,,,,,sub-075,1,stroop_test,59.9619094366325,
,,,,109.0,1.0,9.0,,,,,,,,,,,,,blau,yellow,g,0.0,g,1.0,1.2948821669997417,,,,,,,,,,9.0,1.0,109.0,7.0,388.8757366669961,,,,,,,,,,,,,,,,,388.86176562499895,389.6752993339978,390.4747905420009,390.4602698340023,,,,,,,,,,,,,,,,,,,,,,,,,,,,,,,,,,,390.4604514169987,390.4747905420009,390.4747905420009,391.77810212499753,g,1.0,1.2948821669997417,,,,,sub-075,1,stroop_test,59.9619094366325,
,,,,110.0,2.0,9.0,,,,,,,,,,,,,gelb,red,r,0.0,r,1.0,0.974544541000796,,,,,,,,,,9.0,2.0,110.0,8.0,391.79175266699895,,,,,,,,,,,,,,,,,391.77834916699794,391.8921801249962,392.692024709002,392.6773270420017,,,,,,,,,,,,,,,,,,,,,,,,,,,,,,,,,,,392.6787013339999,392.692024709002,392.692024709002,393.67733433399553,r,1.0,0.974544541000796,,,,,sub-075,1,stroop_test,59.9619094366325,
,,,,111.0,3.0,9.0,,,,,,,,,,,,,rot,red,r,1.0,r,1.0,0.4360302499990212,,,,,,,,,,9.0,3.0,111.0,0.0,393.69211895899934,,,,,,,,,,,,,,,,,393.6775863340008,394.0416018339965,394.8418019590026,394.8271946250025,,,,,,,,,,,,,,,,,,,,,,,,,,,,,,,,,,,394.828734333998,394.8418019590026,394.8418019590026,395.2949652499956,r,1.0,0.4360302499990212,,,,,sub-075,1,stroop_test,59.9619094366325,
,,,,112.0,4.0,9.0,,,,,,,,,,,,,blau,red,r,0.0,r,1.0,0.6600533329983591,,,,,,,,,,9.0,4.0,112.0,4.0,395.3086756249977,,,,,,,,,,,,,,,,,395.2951602920002,396.5082137919962,397.3078055000005,397.2949436670024,,,,,,,,,,,,,,,,,,,,,,,,,,,,,,,,,,,397.296323083996,397.3078055000005,397.3078055000005,397.97845383399545,r,1.0,0.6600533329983591,,,,,sub-075,1,stroop_test,59.9619094366325,
,,,,113.0,5.0,9.0,,,,,,,,,,,,,gelb,yellow,g,1.0,g,1.0,1.75643433300138,,,,,,,,,,9.0,5.0,113.0,10.0,397.991640041997,,,,,,,,,,,,,,,,,397.9786968339977,398.3412925000012,399.14163179200114,399.1273647089984,,,,,,,,,,,,,,,,,,,,,,,,,,,,,,,,,,,399.1289447090021,399.14163179200114,399.14163179200114,400.9121130839994,g,1.0,1.75643433300138,,,,,sub-075,1,stroop_test,59.9619094366325,
,,,,114.0,6.0,9.0,,,,,,,,,,,,,rot,blue,b,0.0,b,1.0,1.2128058330054046,,,,,,,,,,9.0,6.0,114.0,2.0,400.92531079200126,,,,,,,,,,,,,,,,,400.9123456669986,401.0256149589986,401.8249075420026,401.8110270420002,,,,,,,,,,,,,,,,,,,,,,,,,,,,,,,,,,,401.8125238339999,401.8249075420026,401.8249075420026,403.0449532499988,b,1.0,1.2128058330054046,,,,,sub-075,1,stroop_test,59.9619094366325,
,,,,115.0,7.0,9.0,,,,,,,,,,,,,rot,yellow,g,0.0,g,1.0,1.06636512499972,,,,,,,,,,9.0,7.0,115.0,3.0,403.0591247089978,,,,,,,,,,,,,,,,,403.0451998339995,404.25940345900017,405.05881308399694,405.04374837499927,,,,,,,,,,,,,,,,,,,,,,,,,,,,,,,,,,,405.0439106249978,405.05881308399694,405.05881308399694,406.12869920900266,g,1.0,1.06636512499972,,,,,sub-075,1,stroop_test,59.9619094366325,
,,,,116.0,8.0,9.0,,,,,,,,,,,,,gelb,yellow,g,1.0,g,1.0,0.6193128749946482,,,,,,,,,,9.0,8.0,116.0,11.0,406.1425317920002,,,,,,,,,,,,,,,,,406.1289387500001,406.9422449589984,407.74213895900175,407.727348542001,,,,,,,,,,,,,,,,,,,,,,,,,,,,,,,,,,,407.7288779169976,407.74213895900175,407.74213895900175,408.3786757499984,g,1.0,0.6193128749946482,,,,,sub-075,1,stroop_test,59.9619094366325,
,,,,117.0,9.0,9.0,,,,,,,,,,,,,blau,blue,b,1.0,b,1.0,1.258847708995745,,,,,,,,,,9.0,9.0,117.0,6.0,408.39226524999685,,,,,,,,,,,,,,,,,408.37888066699816,408.49217874999886,409.2924865419991,409.2775027919997,,,,,,,,,,,,,,,,,,,,,,,,,,,,,,,,,,,409.2789562089965,409.2924865419991,409.2924865419991,410.56148433400085,b,1.0,1.258847708995745,,,,,sub-075,1,stroop_test,59.9619094366325,
,,,,118.0,10.0,9.0,,,,,,,,,,,,,gelb,blue,b,0.0,b,1.0,0.7480632919978234,,,,,,,,,,9.0,10.0,118.0,9.0,410.5760033749975,,,,,,,,,,,,,,,,,410.5616900000023,410.67542170899833,411.4754516249959,411.46081595899886,,,,,,,,,,,,,,,,,,,,,,,,,,,,,,,,,,,411.4621998340008,411.4754516249959,411.4754516249959,412.2281518340024,b,1.0,0.7480632919978234,,,,,sub-075,1,stroop_test,59.9619094366325,
,,,,119.0,11.0,9.0,,,,,,,,,,,,,rot,red,r,1.0,r,1.0,1.3161442499986151,,,,,,,,,,9.0,11.0,119.0,1.0,412.2427921670024,,,,,,,,,,,,,,,,,412.2283559169955,413.0422758749992,413.8426490420025,413.82701216699934,,,,,,,,,,,,,,,,,,,,,,,,,,,,,,,,,,,413.8283770420021,413.8426490420025,413.8426490420025,415.1619890000002,r,1.0,1.3161442499986151,,,,,sub-075,1,stroop_test,59.9619094366325,
,,,,,,,,,,,,,,,,,,,,,,,,,,,,,,,,,,,,,,,,,,,,,,,,,,,,,,,,,,,,,,,,,,,,,,,,,,,,,,,,,,,,,,,,,,,,,,,,,,,,,,415.16211158400256,415.1781380419998,420.1786220840004,sub-075,1,stroop_test,59.9619094366325,
