wordCTK,colorCTK,corrAnsCTK,congruentCTK,thisN,thisTrialN,thisRepN,keyResp_CTK.keys,keyResp_CTK.corr,keyResp_CTK.rt,keyResp_CTK.duration,wordPractice,colorPractice,corrAnsPractice,congruentPractice,respPractice.keys,respPractice.corr,respPractice.rt,respPractice.duration,word,color,corrAns,congruent,keyResp_test_run.keys,keyResp_test_run.corr,keyResp_test_run.rt,keyResp_test_run.duration,trials_CTK.thisRepN,trials_CTK.thisTrialN,trials_CTK.thisN,trials_CTK.thisIndex,trials_practice.thisRepN,trials_practice.thisTrialN,trials_practice.thisN,trials_practice.thisIndex,trials_test.thisRepN,trials_test.thisTrialN,trials_test.thisN,trials_test.thisIndex,thisRow.t,notes,instruction.started,instr_text.started,instr_image.started,instr_resp.started,instruction.stopped,instr_resp.keys,instr_resp.rt,instr_resp.duration,instr_color_to_key.started,instr_ctk.started,resp_ctk.started,instr_color_to_key.stopped,resp_ctk.keys,resp_ctk.rt,resp_ctk.duration,ITI.started,fixcross.started,fixcross.stopped,ITI.stopped,color_to_key_run.started,stimulus_CTK.started,keyResp_CTK.started,color_to_key_run.stopped,trials_CTK.keyResp_CTK.keys,trials_CTK.keyResp_CTK.corr,trials_CTK.keyResp_CTK.rt,trials_CTK.keyResp_CTK.duration,instr_practice.started,instr_practice_text.started,instr_practice_resp.started,instr_practice.stopped,instr_practice_resp.keys,instr_practice_resp.rt,instr_practice_resp.duration,practice_run.started,stimulus_practice.started,respPractice.started,practice_run.stopped,trials_practice.respPractice.keys,trials_practice.respPractice.corr,trials_practice.respPractice.rt,trials_practice.respPractice.duration,feedback.started,textFeedback.started,feedback.stopped,textFeedback.stopped,instr_test.started,instr_test_text.started,instr_test_resp.started,instr_test.stopped,instr_test_resp.keys,instr_test_resp.rt,instr_test_resp.duration,test_run.started,stimulus_test_run.started,keyResp_test_run.started,test_run.stopped,trials_test.keyResp_test_run.keys,trials_test.keyResp_test_run.corr,trials_test.keyResp_test_run.rt,trials_test.keyResp_test_run.duration,goodbye.started,textGoodbye.started,goodbye.stopped,participant,session,expName,frameRate,Unnamed: 112
,,,,,,,,,,,,,,,,,,,,,,,,,,,,,,,,,,,,,,,,,0.0133725019986741,0.0549949329943046,0.0549949329943046,0.0549949329943046,73.33170408599835,space,73.23843721899902,,,,,,,,,,,,,,,,,,,,,,,,,,,,,,,,,,,,,,,,,,,,,,,,,,,,,,,,,,sub-145,1,stroop_test,58.69945499185108,
,,,,,,,,,,,,,,,,,,,,,,,,,,,,,,,,,,,,,,,,,,,,,,,,,73.33177412199439,73.35007425199728,73.35007425199728,79.45047429799888,space,6.096059581002919,,,,,,,,,,,,,,,,,,,,,,,,,,,,,,,,,,,,,,,,,,,,,,,,,,,sub-145,1,stroop_test,58.69945499185108,
test,yellow,g,1.0,0.0,0.0,0.0,g,1.0,3.085250629002985,,,,,,,,,,,,,,,,,,0.0,0.0,0.0,1.0,,,,,,,,,79.48286338699836,,,,,,,,,,,,,,,,,79.46618997099722,79.81127144099446,80.62508617599815,80.6061695929966,80.61341086699395,80.62508617599815,80.62508617599815,83.72562786799972,g,1.0,3.085250629002985,,,,,,,,,,,,,,,,,,,,,,,,,,,,,,,,,,,,,,,sub-145,1,stroop_test,58.69945499185108,
test,red,r,1.0,1.0,1.0,0.0,r,1.0,1.2310671730010654,,,,,,,,,,,,,,,,,,0.0,1.0,1.0,0.0,,,,,,,,,83.73900188699918,,,,,,,,,,,,,,,,,83.72601118099556,84.07767789699574,84.87714128299558,84.86147299799632,84.86204806099704,84.87714128299558,84.87714128299558,86.11610767499951,r,1.0,1.2310671730010654,,,,,,,,,,,,,,,,,,,,,,,,,,,,,,,,,,,,,,,sub-145,1,stroop_test,58.69945499185108,
test,blue,b,1.0,2.0,2.0,0.0,b,1.0,0.9717179749932257,,,,,,,,,,,,,,,,,,0.0,2.0,2.0,2.0,,,,,,,,,86.13065603199357,,,,,,,,,,,,,,,,,86.11656694799603,86.9174639079938,87.72789526799897,87.71401205599977,87.71455161399354,87.72789526799897,87.72789526799897,88.70704619699973,b,1.0,0.9717179749932257,,,,,,,,,,,,,,,,,,,,,,,,,,,,,,,,,,,,,,,sub-145,1,stroop_test,58.69945499185108,
test,blue,b,1.0,3.0,0.0,1.0,b,1.0,0.5942150440023397,,,,,,,,,,,,,,,,,,1.0,0.0,3.0,2.0,,,,,,,,,88.7204679649949,,,,,,,,,,,,,,,,,88.70753679100017,89.51460076699732,90.3198155289938,90.30769982399944,90.30824830599886,90.3198155289938,90.3198155289938,90.92245258099864,b,1.0,0.5942150440023397,,,,,,,,,,,,,,,,,,,,,,,,,,,,,,,,,,,,,,,sub-145,1,stroop_test,58.69945499185108,
test,red,r,1.0,4.0,1.0,1.0,r,1.0,1.1491066820017295,,,,,,,,,,,,,,,,,,1.0,1.0,4.0,0.0,,,,,,,,,90.93557188999694,,,,,,,,,,,,,,,,,90.92282300799708,91.26744081799552,92.06629428699672,92.05374873599794,92.05503680099356,92.06629428699672,92.06629428699672,93.22426656799507,r,1.0,1.1491066820017295,,,,,,,,,,,,,,,,,,,,,,,,,,,,,,,,,,,,,,,sub-145,1,stroop_test,58.69945499185108,
test,yellow,g,1.0,5.0,2.0,1.0,g,1.0,0.8703037570012384,,,,,,,,,,,,,,,,,,1.0,2.0,5.0,1.0,,,,,,,,,93.23685219999606,,,,,,,,,,,,,,,,,93.2246194709951,94.42327629499778,95.23945054299838,95.22429602399644,95.22485762999712,95.23945054299838,95.23945054299838,96.11618752199864,g,1.0,0.8703037570012384,,,,,,,,,,,,,,,,,,,,,,,,,,,,,,,,,,,,,,,sub-145,1,stroop_test,58.69945499185108,
test,red,r,1.0,6.0,0.0,2.0,r,1.0,1.3238941410018017,,,,,,,,,,,,,,,,,,2.0,0.0,6.0,0.0,,,,,,,,,96.13092452499404,,,,,,,,,,,,,,,,,96.1167250189974,96.23004632399534,97.04243013099769,97.02644466299536,97.02700151599856,97.04243013099769,97.04243013099769,98.39048194799398,r,1.0,1.3238941410018017,,,,,,,,,,,,,,,,,,,,,,,,,,,,,,,,,,,,,,,sub-145,1,stroop_test,58.69945499185108,
test,yellow,g,1.0,7.0,1.0,2.0,g,1.0,0.886614629001997,,,,,,,,,,,,,,,,,,2.0,1.0,7.0,1.0,,,,,,,,,98.4072924889988,,,,,,,,,,,,,,,,,98.39100594799676,99.1847793489942,99.98562722799396,99.9723117609974,99.97392299499916,99.98562722799396,99.98562722799396,100.88068885199756,g,1.0,0.886614629001997,,,,,,,,,,,,,,,,,,,,,,,,,,,,,,,,,,,,,,,sub-145,1,stroop_test,58.69945499185108,
test,blue,b,1.0,8.0,2.0,2.0,b,1.0,0.6431837049967726,,,,,,,,,,,,,,,,,,2.0,2.0,8.0,2.0,,,,,,,,,100.89627980899968,,,,,,,,,,,,,,,,,100.88105319899478,101.68046068999683,102.48177048499927,102.46810431799533,102.46978235899589,102.48177048499927,102.48177048499927,103.12808201599546,b,1.0,0.6431837049967726,,,,,,,,,,,,,,,,,,,,,,,,,,,,,,,,,,,,,,,sub-145,1,stroop_test,58.69945499185108,
test,red,r,1.0,9.0,0.0,3.0,r,1.0,0.9024628690021927,,,,,,,,,,,,,,,,,,3.0,0.0,9.0,0.0,,,,,,,,,103.14162645599572,,,,,,,,,,,,,,,,,103.1285395619998,103.940185595995,104.7547956099952,104.72960142800002,104.73015009099618,104.7547956099952,104.7547956099952,105.67344372099616,r,1.0,0.9024628690021927,,,,,,,,,,,,,,,,,,,,,,,,,,,,,,,,,,,,,,,sub-145,1,stroop_test,58.69945499185108,
test,blue,b,1.0,10.0,1.0,3.0,g,0.0,1.1832464660037658,,,,,,,,,,,,,,,,,,3.0,1.0,10.0,2.0,,,,,,,,,105.68996940299984,,,,,,,,,,,,,,,,,105.67379976899974,105.77009174900012,106.59000728999672,106.57211719099725,106.57267827299802,106.59000728999672,106.59000728999672,107.78301569799804,g,0.0,1.1832464660037658,,,,,,,,,,,,,,,,,,,,,,,,,,,,,,,,,,,,,,,sub-145,1,stroop_test,58.69945499185108,
test,yellow,g,1.0,11.0,2.0,3.0,g,1.0,0.6862620399988373,,,,,,,,,,,,,,,,,,3.0,2.0,11.0,1.0,,,,,,,,,107.79895322399534,,,,,,,,,,,,,,,,,107.78354972599482,108.5809041169996,109.40640666899708,109.38884105899342,109.3894104409992,109.40640666899708,109.40640666899708,110.0957472049995,g,1.0,0.6862620399988373,,,,,,,,,,,,,,,,,,,,,,,,,,,,,,,,,,,,,,,sub-145,1,stroop_test,58.69945499185108,
,,,,,,,,,,,,,,,,,,,,,,,,,,,,,,,,,,,,,,,,,,,,,,,,,,,,,,,,,,,,,,,,,,,,110.09594055199705,110.11404978899373,110.11404978899373,115.50198560199352,space,5.374104727001395,,,,,,,,,,,,,,,,,,,,,,,,,,,,,,,,sub-145,1,stroop_test,58.69945499185108,
,,,,0.0,0.0,0.0,,,,,gelb,yellow,g,1.0,g,1.0,0.5031846790006966,,,,,,,,,,,,,,0.0,0.0,0.0,11.0,,,,,115.52830492399517,,,,,,,,,,,,,,,,,115.51549853499456,115.86100521299522,116.67149137499656,116.65253067599406,,,,,,,,,,,,,,,,116.65933047,116.67149137499656,116.67149137499656,117.18282619099772,g,1.0,0.5031846790006966,,117.19170767099422,117.20735379999678,118.19551727099316,,,,,,,,,,,,,,,,,,,,sub-145,1,stroop_test,58.69945499185108,
,,,,1.0,1.0,0.0,,,,,rot,red,r,1.0,r,1.0,0.443622860002506,,,,,,,,,,,,,,0.0,1.0,1.0,1.0,,,,,118.20803663199332,,,,,,,,,,,,,,,,,118.19653592699616,118.30679728599353,119.11086239899304,119.09160506599436,,,,,,,,,,,,,,,,119.0977153559943,119.11086239899304,119.11086239899304,119.57535579099932,r,1.0,0.443622860002506,,119.57602761099406,119.58907997399363,120.57416380999348,120.58466480999778,,,,,,,,,,,,,,,,,,,sub-145,1,stroop_test,58.69945499185108,
,,,,2.0,2.0,0.0,,,,,gelb,red,r,0.0,r,1.0,0.6204468910000287,,,,,,,,,,,,,,0.0,2.0,2.0,8.0,,,,,120.58466480999778,,,,,,,,,,,,,,,,,120.57451784799925,121.37933948999851,122.1853674869999,122.17087830699892,,,,,,,,,,,,,,,,122.17398348899587,122.1853674869999,122.1853674869999,122.820769553,r,1.0,0.6204468910000287,,122.82137008499558,122.835376832998,123.82394108299924,,,,,,,,,,,,,,,,,,,,sub-145,1,stroop_test,58.69945499185108,
,,,,3.0,3.0,0.0,,,,,blau,yellow,g,0.0,g,1.0,1.9748399649979549,,,,,,,,,,,,,,0.0,3.0,3.0,7.0,,,,,123.83728259199415,,,,,,,,,,,,,,,,,123.82456117099356,125.02950980699823,125.83846895199532,125.82196508999914,,,,,,,,,,,,,,,,125.82674400799442,125.83846895199532,125.83846895199532,127.8255465109978,g,1.0,1.9748399649979549,,127.82611063999502,127.84008699900004,128.82449729899963,128.83649639399664,,,,,,,,,,,,,,,,,,,sub-145,1,stroop_test,58.69945499185108,
,,,,4.0,4.0,0.0,,,,,gelb,blue,b,0.0,b,1.0,1.0652152250040672,,,,,,,,,,,,,,0.0,4.0,4.0,9.0,,,,,128.83649639399664,,,,,,,,,,,,,,,,,128.8254177869967,128.9291731669946,129.74008361799497,129.7235970719994,,,,,,,,,,,,,,,,129.7277250249972,129.74008361799497,129.74008361799497,130.81230161199346,b,1.0,1.0652152250040672,,130.8128952279949,130.82733712199845,131.81511640499957,,,,,,,,,,,,,,,,,,,,sub-145,1,stroop_test,58.69945499185108,
,,,,5.0,5.0,0.0,,,,,blau,blue,b,1.0,b,1.0,1.44356971399975,,,,,,,,,,,,,,0.0,5.0,5.0,6.0,,,,,131.8285209339956,,,,,,,,,,,,,,,,,131.81661425199854,132.17110748699633,132.9793841809951,132.96244998399925,,,,,,,,,,,,,,,,132.96647475599457,132.9793841809951,132.9793841809951,134.42992322299688,b,1.0,1.44356971399975,,134.4305581640001,134.4456085349957,135.4380897499941,,,,,,,,,,,,,,,,,,,,sub-145,1,stroop_test,58.69945499185108,
,,,,6.0,6.0,0.0,,,,,rot,yellow,g,0.0,r,0.0,0.8213259510011994,,,,,,,,,,,,,,0.0,6.0,6.0,3.0,,,,,135.45106393199967,,,,,,,,,,,,,,,,,135.4392085399959,136.63449121199665,137.44128114199702,137.42492082499666,,,,,,,,,,,,,,,,137.42911029199604,137.44128114199702,137.44128114199702,138.26638093699876,r,0.0,0.8213259510011994,,138.27268484999513,138.28709540199634,139.26827723799943,,,,,,,,,,,,,,,,,,,,sub-145,1,stroop_test,58.69945499185108,
,,,,7.0,7.0,0.0,,,,,blau,blue,b,1.0,b,1.0,1.114420418998634,,,,,,,,,,,,,,0.0,7.0,7.0,5.0,,,,,139.2810966209945,,,,,,,,,,,,,,,,,139.26948597599403,139.62682635399688,140.43423481299396,140.41580854499625,,,,,,,,,,,,,,,,140.42202314799945,140.43423481299396,140.43423481299396,141.55434945499292,b,1.0,1.114420418998634,,141.55834226699517,141.57268684099836,142.56607381299546,,,,,,,,,,,,,,,,,,,,sub-145,1,stroop_test,58.69945499185108,
,,,,8.0,8.0,0.0,,,,,gelb,yellow,g,1.0,g,1.0,0.6464513079990866,,,,,,,,,,,,,,0.0,8.0,8.0,10.0,,,,,142.5793436479944,,,,,,,,,,,,,,,,,142.56750532599835,143.36179548499786,144.1733866029972,144.15706000099453,,,,,,,,,,,,,,,,144.16097429599904,144.1733866029972,144.1733866029972,144.82551143899764,g,1.0,0.6464513079990866,,144.82607790399925,144.84057338299317,145.83027353399666,,,,,,,,,,,,,,,,,,,,sub-145,1,stroop_test,58.69945499185108,
,,,,9.0,9.0,0.0,,,,,rot,blue,b,0.0,b,1.0,1.4568993689972558,,,,,,,,,,,,,,0.0,9.0,9.0,2.0,,,,,145.84568750299513,,,,,,,,,,,,,,,,,145.83148681999592,147.02934704699874,147.82974014199863,147.81306348299404,,,,,,,,,,,,,,,,147.8166415819942,147.82974014199863,147.82974014199863,149.30325115499727,b,1.0,1.4568993689972558,,149.30384783099726,149.31787708899355,150.31277307399432,,,,,,,,,,,,,,,,,,,,sub-145,1,stroop_test,58.69945499185108,
,,,,10.0,10.0,0.0,,,,,rot,red,r,1.0,r,1.0,1.1012728360001347,,,,,,,,,,,,,,0.0,10.0,10.0,0.0,,,,,150.32398307699623,,,,,,,,,,,,,,,,,150.31315377299325,151.11221460499655,151.91360849299963,151.89962999699492,,,,,,,,,,,,,,,,151.9004233519954,151.91360849299963,151.91360849299963,153.04008142899693,r,1.0,1.1012728360001347,,153.04106368999783,153.05648367399408,154.0516104319977,,,,,,,,,,,,,,,,,,,,sub-145,1,stroop_test,58.69945499185108,
,,,,11.0,11.0,0.0,,,,,blau,red,r,0.0,b,0.0,0.869966010999633,,,,,,,,,,,,,,0.0,11.0,11.0,4.0,,,,,154.06446268099535,,,,,,,,,,,,,,,,,154.05278599699523,155.24555282799702,156.0553677469943,156.03856973399525,,,,,,,,,,,,,,,,156.04334451199975,156.0553677469943,156.0553677469943,156.94127660999948,b,0.0,0.869966010999633,,156.94674846299313,156.96222055799444,157.94645195999328,,,,,,,,,,,,,,,,,,,,sub-145,1,stroop_test,58.69945499185108,
,,,,12.0,0.0,1.0,,,,,gelb,yellow,g,1.0,g,1.0,0.8321924199990463,,,,,,,,,,,,,,1.0,0.0,12.0,10.0,,,,,157.9575930929932,,,,,,,,,,,,,,,,,157.94684995599528,158.7560957789974,159.56563249999454,159.54876092499762,,,,,,,,,,,,,,,,159.55374785599997,159.56563249999454,159.56563249999454,160.41263713799708,g,1.0,0.8321924199990463,,160.41662082099356,160.43059600199922,161.42637874299544,,,,,,,,,,,,,,,,,,,,sub-145,1,stroop_test,58.69945499185108,
,,,,13.0,1.0,1.0,,,,,rot,red,r,1.0,r,1.0,1.2239497420014231,,,,,,,,,,,,,,1.0,1.0,13.0,0.0,,,,,161.44118891399555,,,,,,,,,,,,,,,,,161.42678616599733,161.7626568419946,162.56901525399735,162.55272594899725,,,,,,,,,,,,,,,,162.55712392299756,162.56901525399735,162.56901525399735,163.7971508999981,r,1.0,1.2239497420014231,,163.7979243479931,163.8144562439993,164.7977758509951,,,,,,,,,,,,,,,,,,,,sub-145,1,stroop_test,58.69945499185108,
,,,,14.0,2.0,1.0,,,,,gelb,blue,b,0.0,b,1.0,1.1641008540027542,,,,,,,,,,,,,,1.0,2.0,14.0,9.0,,,,,164.81269488999533,,,,,,,,,,,,,,,,,164.7992724519936,165.15389349799807,165.9662234089992,165.94925417199556,,,,,,,,,,,,,,,,165.95431179799925,165.9662234089992,165.9662234089992,167.14733184199576,b,1.0,1.1641008540027542,,167.14802888699342,167.16404625899304,168.16047640599572,,,,,,,,,,,,,,,,,,,,sub-145,1,stroop_test,58.69945499185108,
,,,,15.0,3.0,1.0,,,,,rot,yellow,g,0.0,g,1.0,1.0781711859963252,,,,,,,,,,,,,,1.0,3.0,15.0,3.0,,,,,168.17502575499384,,,,,,,,,,,,,,,,,168.16087498900015,168.50719308599946,169.3090000969969,169.2928763269956,,,,,,,,,,,,,,,,169.29693995900016,169.3090000969969,169.3090000969969,170.39408871199703,g,1.0,1.0781711859963252,,170.3949859699933,170.41145184899506,171.40764678499545,,,,,,,,,,,,,,,,,,,,sub-145,1,stroop_test,58.69945499185108,
,,,,16.0,4.0,1.0,,,,,rot,blue,b,0.0,b,1.0,2.0392147620004835,,,,,,,,,,,,,,1.0,4.0,16.0,2.0,,,,,171.41806876199553,,,,,,,,,,,,,,,,,171.40800751599454,171.49689773499995,172.2975563969958,172.28312922999612,,,,,,,,,,,,,,,,172.28454362299817,172.2975563969958,172.2975563969958,174.34207378999417,b,1.0,2.0392147620004835,,174.34282301899657,174.35785945899988,175.3541997719949,,,,,,,,,,,,,,,,,,,,sub-145,1,stroop_test,58.69945499185108,
,,,,17.0,5.0,1.0,,,,,gelb,red,r,0.0,r,1.0,1.21978907599987,,,,,,,,,,,,,,1.0,5.0,17.0,8.0,,,,,175.37237491999986,,,,,,,,,,,,,,,,,175.3545872429968,176.14240723699913,176.9445295189944,176.92666855799325,,,,,,,,,,,,,,,,176.93057142999896,176.9445295189944,176.9445295189944,178.18048628299584,r,1.0,1.21978907599987,,178.1810761969973,178.1974130239978,179.19040726499952,,,,,,,,,,,,,,,,,,,,sub-145,1,stroop_test,58.69945499185108,
,,,,18.0,6.0,1.0,,,,,gelb,yellow,g,1.0,g,1.0,0.9895530390058412,,,,,,,,,,,,,,1.0,6.0,18.0,11.0,,,,,179.20370258899493,,,,,,,,,,,,,,,,,179.19150845900003,180.3819579379997,181.18192330199963,181.16880563099403,,,,,,,,,,,,,,,,181.17036303099303,181.18192330199963,181.18192330199963,182.18051961799935,g,1.0,0.9895530390058412,,182.1811071239936,182.1973146669989,183.1913399469995,,,,,,,,,,,,,,,,,,,,sub-145,1,stroop_test,58.69945499185108,
,,,,19.0,7.0,1.0,,,,,rot,red,r,1.0,r,1.0,0.6104512520032586,,,,,,,,,,,,,,1.0,7.0,19.0,1.0,,,,,183.20684169000012,,,,,,,,,,,,,,,,,183.19186124499535,184.37765951399345,185.18134795899823,185.1648864919989,,,,,,,,,,,,,,,,185.16976992099808,185.18134795899823,185.18134795899823,185.80782269499468,r,1.0,0.6104512520032586,,185.80841902999964,185.82283560799988,186.81328237699927,,,,,,,,,,,,,,,,,,,,sub-145,1,stroop_test,58.69945499185108,
,,,,20.0,8.0,1.0,,,,,blau,red,r,0.0,b,0.0,0.9041648139973404,,,,,,,,,,,,,,1.0,8.0,20.0,4.0,,,,,186.8266062659968,,,,,,,,,,,,,,,,,186.81445269699907,187.60903254000004,188.42018471699703,188.40425801799572,,,,,,,,,,,,,,,,188.40817043199783,188.42018471699703,188.42018471699703,189.3285822809994,b,0.0,0.9041648139973404,,189.33234545799496,189.3489159539968,190.33017432199995,,,,,,,,,,,,,,,,,,,,sub-145,1,stroop_test,58.69945499185108,
,,,,21.0,9.0,1.0,,,,,blau,blue,b,1.0,b,1.0,0.9668947039972408,,,,,,,,,,,,,,1.0,9.0,21.0,6.0,,,,,190.34515341899527,,,,,,,,,,,,,,,,,190.33126002299832,190.6849518319941,191.4926857859973,191.4788913529992,,,,,,,,,,,,,,,,191.4794328459975,191.4926857859973,191.4926857859973,192.47488638299544,b,1.0,0.9668947039972408,,192.47860525999567,192.49329353199573,193.486046086,,,,,,,,,,,,,,,,,,,,sub-145,1,stroop_test,58.69945499185108,
,,,,22.0,10.0,1.0,,,,,blau,blue,b,1.0,b,1.0,1.113123985000129,,,,,,,,,,,,,,1.0,10.0,22.0,5.0,,,,,193.4988109179976,,,,,,,,,,,,,,,,,193.4870331899947,194.68167733899463,195.4827036419956,195.4702779419968,,,,,,,,,,,,,,,,195.47124588699808,195.4827036419956,195.4827036419956,196.61130263299856,b,1.0,1.113123985000129,,196.6119051739952,196.6259403159929,197.61224757999295,,,,,,,,,,,,,,,,,,,,sub-145,1,stroop_test,58.69945499185108,
,,,,23.0,11.0,1.0,,,,,blau,yellow,g,0.0,g,1.0,1.725225230999058,,,,,,,,,,,,,,1.0,11.0,23.0,7.0,,,,,197.625853214995,,,,,,,,,,,,,,,,,197.61331961299584,197.9596261249972,198.7722338529929,198.7542231519983,,,,,,,,,,,,,,,,198.75476170299956,198.7722338529929,198.7722338529929,200.5141797099932,g,1.0,1.725225230999058,,200.51508956999896,200.53145228899663,201.52044919599572,,,,,,,,,,,,,,,,,,,,sub-145,1,stroop_test,58.69945499185108,
,,,,,,,,,,,,,,,,,,,,,,,,,,,,,,,,,,,,,,,,,,,,,,,,,,,,,,,,,,,,,,,,,,,,,,,,,,,,,,,,,,,,,,,201.5206229439937,201.5388745809978,201.5388745809978,206.0261313329975,space,4.481685835999087,,,,,,,,,,,,,sub-145,1,stroop_test,58.69945499185108,
,,,,0.0,0.0,0.0,,,,,,,,,,,,,gelb,red,r,0.0,r,1.0,1.001005393001833,,,,,,,,,,0.0,0.0,0.0,8.0,206.05620773699772,,,,,,,,,,,,,,,,,206.04264821899412,206.3751466229951,207.18452070299827,207.16564122299317,,,,,,,,,,,,,,,,,,,,,,,,,,,,,,,,,,,207.17216181999535,207.18452070299827,207.18452070299827,208.1937415929933,r,1.0,1.001005393001833,,,,,sub-145,1,stroop_test,58.69945499185108,
,,,,1.0,1.0,0.0,,,,,,,,,,,,,blau,blue,b,1.0,b,1.0,0.8714707590042963,,,,,,,,,,0.0,1.0,1.0,6.0,208.20947607799465,,,,,,,,,,,,,,,,,208.19435497899397,208.5428593769975,209.35036994499387,209.3334294479937,,,,,,,,,,,,,,,,,,,,,,,,,,,,,,,,,,,209.3380469209951,209.35036994499387,209.35036994499387,210.2287653019957,b,1.0,0.8714707590042963,,,,,sub-145,1,stroop_test,58.69945499185108,
,,,,2.0,2.0,0.0,,,,,,,,,,,,,blau,yellow,g,0.0,r,0.0,1.2966221099995892,,,,,,,,,,0.0,2.0,2.0,7.0,210.24285988999327,,,,,,,,,,,,,,,,,210.2291973399988,210.57668921499865,211.39001637399636,211.3738570889982,,,,,,,,,,,,,,,,,,,,,,,,,,,,,,,,,,,211.37437671399675,211.39001637399636,211.39001637399636,212.6899349919986,r,0.0,1.2966221099995892,,,,,sub-145,1,stroop_test,58.69945499185108,
,,,,3.0,3.0,0.0,,,,,,,,,,,,,gelb,yellow,g,1.0,g,1.0,0.8172163069975795,,,,,,,,,,0.0,3.0,3.0,11.0,212.70468833499763,,,,,,,,,,,,,,,,,212.6904000939976,213.49218738599305,214.30655525999464,214.29083812799945,,,,,,,,,,,,,,,,,,,,,,,,,,,,,,,,,,,214.29473614299783,214.30655525999464,214.30655525999464,215.129341631,g,1.0,0.8172163069975795,,,,,sub-145,1,stroop_test,58.69945499185108,
,,,,4.0,4.0,0.0,,,,,,,,,,,,,rot,red,r,1.0,r,1.0,0.7914690430043265,,,,,,,,,,0.0,4.0,4.0,0.0,215.14474414399592,,,,,,,,,,,,,,,,,215.12976057699416,215.4764080869936,216.2789345040001,216.2618330899932,,,,,,,,,,,,,,,,,,,,,,,,,,,,,,,,,,,216.2651053679947,216.2789345040001,216.2789345040001,217.09080129899667,r,1.0,0.7914690430043265,,,,,sub-145,1,stroop_test,58.69945499185108,
,,,,5.0,5.0,0.0,,,,,,,,,,,,,blau,red,r,0.0,r,1.0,1.0773169189997134,,,,,,,,,,0.0,5.0,5.0,4.0,217.10309946299824,,,,,,,,,,,,,,,,,217.0914153689955,217.44126680499903,218.25292178299424,218.2342083759941,,,,,,,,,,,,,,,,,,,,,,,,,,,,,,,,,,,218.23968676399815,218.25292178299424,218.25292178299424,219.3448403479997,r,1.0,1.0773169189997134,,,,,sub-145,1,stroop_test,58.69945499185108,
,,,,6.0,6.0,0.0,,,,,,,,,,,,,rot,red,r,1.0,r,1.0,0.5965231439986383,,,,,,,,,,0.0,6.0,6.0,1.0,219.3604197159948,,,,,,,,,,,,,,,,,219.3455423389969,220.14510517999588,220.9454169479941,220.9285789209971,,,,,,,,,,,,,,,,,,,,,,,,,,,,,,,,,,,220.93221925599937,220.9454169479941,220.9454169479941,221.56158742999835,r,1.0,0.5965231439986383,,,,,sub-145,1,stroop_test,58.69945499185108,
,,,,7.0,7.0,0.0,,,,,,,,,,,,,gelb,blue,b,0.0,b,1.0,1.243330703000538,,,,,,,,,,0.0,7.0,7.0,9.0,221.57263693799905,,,,,,,,,,,,,,,,,221.56199793799897,221.91314666099788,222.7209185229949,222.70628926099744,,,,,,,,,,,,,,,,,,,,,,,,,,,,,,,,,,,222.709187774999,222.7209185229949,222.7209185229949,223.9804180309948,b,1.0,1.243330703000538,,,,,sub-145,1,stroop_test,58.69945499185108,
,,,,8.0,8.0,0.0,,,,,,,,,,,,,gelb,yellow,g,1.0,g,1.0,0.8954108390025795,,,,,,,,,,0.0,8.0,8.0,10.0,223.99595692099683,,,,,,,,,,,,,,,,,223.98085153499412,224.78458824099653,225.59268863199395,225.57671808399755,,,,,,,,,,,,,,,,,,,,,,,,,,,,,,,,,,,225.5772474549958,225.59268863199395,225.59268863199395,226.50399796099373,g,1.0,0.8954108390025795,,,,,sub-145,1,stroop_test,58.69945499185108,
,,,,9.0,9.0,0.0,,,,,,,,,,,,,blau,blue,b,1.0,b,1.0,1.1404916350002168,,,,,,,,,,0.0,9.0,9.0,5.0,226.51708015399345,,,,,,,,,,,,,,,,,226.504416330994,227.71998167299895,228.53956820499295,228.52073589399515,,,,,,,,,,,,,,,,,,,,,,,,,,,,,,,,,,,228.5246117189963,228.53956820499295,228.53956820499295,229.6870177699966,b,1.0,1.1404916350002168,,,,,sub-145,1,stroop_test,58.69945499185108,
,,,,10.0,10.0,0.0,,,,,,,,,,,,,rot,yellow,g,0.0,g,1.0,0.5914386709991959,,,,,,,,,,0.0,10.0,10.0,3.0,229.7024051319968,,,,,,,,,,,,,,,,,229.6874392449972,230.48318219099747,231.28744560099585,231.2709511299981,,,,,,,,,,,,,,,,,,,,,,,,,,,,,,,,,,,231.27529268099897,231.28744560099585,231.28744560099585,231.88284476399716,g,1.0,0.5914386709991959,,,,,sub-145,1,stroop_test,58.69945499185108,
,,,,11.0,11.0,0.0,,,,,,,,,,,,,rot,blue,b,0.0,r,0.0,0.9502479649963788,,,,,,,,,,0.0,11.0,11.0,2.0,231.89942298099777,,,,,,,,,,,,,,,,,231.88448031299777,232.68309495099675,233.49233849099983,233.47847273299703,,,,,,,,,,,,,,,,,,,,,,,,,,,,,,,,,,,233.4790072629985,233.49233849099983,233.49233849099983,234.4541405439959,r,0.0,0.9502479649963788,,,,,sub-145,1,stroop_test,58.69945499185108,
,,,,12.0,0.0,1.0,,,,,,,,,,,,,rot,red,r,1.0,r,1.0,0.8617219119987567,,,,,,,,,,1.0,0.0,12.0,1.0,234.4678048709975,,,,,,,,,,,,,,,,,234.45480137499544,235.66056491799827,236.46819637399312,236.4550266669976,,,,,,,,,,,,,,,,,,,,,,,,,,,,,,,,,,,236.45643099099837,236.46819637399312,236.46819637399312,237.35503572199377,r,1.0,0.8617219119987567,,,,,sub-145,1,stroop_test,58.69945499185108,
,,,,13.0,1.0,1.0,,,,,,,,,,,,,gelb,yellow,g,1.0,g,1.0,0.6111142909940099,,,,,,,,,,1.0,1.0,13.0,11.0,237.3714372999966,,,,,,,,,,,,,,,,,237.35544020299855,237.72172291999595,238.52336050499437,238.5069014389956,,,,,,,,,,,,,,,,,,,,,,,,,,,,,,,,,,,238.51119112899323,238.52336050499437,238.52336050499437,239.14088455899764,g,1.0,0.6111142909940099,,,,,sub-145,1,stroop_test,58.69945499185108,
,,,,14.0,2.0,1.0,,,,,,,,,,,,,blau,blue,b,1.0,b,1.0,0.4472640559979481,,,,,,,,,,1.0,2.0,14.0,6.0,239.15590417599745,,,,,,,,,,,,,,,,,239.1413675789954,239.49243190099517,240.30628589999836,240.28928680599347,,,,,,,,,,,,,,,,,,,,,,,,,,,,,,,,,,,240.2927134299971,240.30628589999836,240.30628589999836,240.7701124879968,b,1.0,0.4472640559979481,,,,,sub-145,1,stroop_test,58.69945499185108,
,,,,15.0,3.0,1.0,,,,,,,,,,,,,blau,red,r,0.0,r,1.0,1.0956743800052209,,,,,,,,,,1.0,3.0,15.0,4.0,240.78386677599337,,,,,,,,,,,,,,,,,240.77056251799516,241.5681873389985,242.37211780899813,242.3590824519997,,,,,,,,,,,,,,,,,,,,,,,,,,,,,,,,,,,242.36004572299865,242.37211780899813,242.37211780899813,243.4820355139964,r,1.0,1.0956743800052209,,,,,sub-145,1,stroop_test,58.69945499185108,
,,,,16.0,4.0,1.0,,,,,,,,,,,,,gelb,blue,b,0.0,b,1.0,1.07520752200071,,,,,,,,,,1.0,4.0,16.0,9.0,243.4974635729959,,,,,,,,,,,,,,,,,243.4827488869996,243.57882183799663,244.3892984559934,244.3701875189945,,,,,,,,,,,,,,,,,,,,,,,,,,,,,,,,,,,244.37586597999325,244.3892984559934,244.3892984559934,245.47444375399937,b,1.0,1.07520752200071,,,,,sub-145,1,stroop_test,58.69945499185108,
,,,,17.0,5.0,1.0,,,,,,,,,,,,,rot,red,r,1.0,r,1.0,0.7887601199981873,,,,,,,,,,1.0,5.0,17.0,0.0,245.4879431159934,,,,,,,,,,,,,,,,,245.47484960499423,245.82753467199652,246.63684617999388,246.62030586299807,,,,,,,,,,,,,,,,,,,,,,,,,,,,,,,,,,,246.62453860599635,246.63684617999388,246.63684617999388,247.4320596269972,r,1.0,0.7887601199981873,,,,,sub-145,1,stroop_test,58.69945499185108,
,,,,18.0,6.0,1.0,,,,,,,,,,,,,rot,blue,b,0.0,b,1.0,0.7014973240002291,,,,,,,,,,1.0,6.0,18.0,2.0,247.4480565479971,,,,,,,,,,,,,,,,,247.4327397389934,248.2325933739994,249.03434041799483,249.02124573399487,,,,,,,,,,,,,,,,,,,,,,,,,,,,,,,,,,,249.02258990599512,249.03434041799483,249.03434041799483,249.7408529759996,b,1.0,0.7014973240002291,,,,,sub-145,1,stroop_test,58.69945499185108,
,,,,19.0,7.0,1.0,,,,,,,,,,,,,blau,blue,b,1.0,r,0.0,1.1368845979959588,,,,,,,,,,1.0,7.0,19.0,5.0,249.7558755529972,,,,,,,,,,,,,,,,,249.7412875259979,250.10489106199384,250.9170203859976,250.8997530189954,,,,,,,,,,,,,,,,,,,,,,,,,,,,,,,,,,,250.9051458889953,250.9170203859976,250.9170203859976,252.0736265519954,r,0.0,1.1368845979959588,,,,,sub-145,1,stroop_test,58.69945499185108,
,,,,20.0,8.0,1.0,,,,,,,,,,,,,rot,yellow,g,0.0,g,1.0,1.2209337129970663,,,,,,,,,,1.0,8.0,20.0,3.0,252.08451381399937,,,,,,,,,,,,,,,,,252.0741044069946,252.1782004579945,252.98372284599463,252.9673534839967,,,,,,,,,,,,,,,,,,,,,,,,,,,,,,,,,,,252.9718012539961,252.98372284599463,252.98372284599463,254.21058400599577,g,1.0,1.2209337129970663,,,,,sub-145,1,stroop_test,58.69945499185108,
,,,,21.0,9.0,1.0,,,,,,,,,,,,,blau,yellow,g,0.0,g,1.0,1.0260835609951755,,,,,,,,,,1.0,9.0,21.0,7.0,254.22365661699587,,,,,,,,,,,,,,,,,254.21103249999575,254.5660823309954,255.37796467399312,255.3614298479952,,,,,,,,,,,,,,,,,,,,,,,,,,,,,,,,,,,255.36485668800012,255.37796467399312,255.37796467399312,256.4103115559992,g,1.0,1.0260835609951755,,,,,sub-145,1,stroop_test,58.69945499185108,
,,,,22.0,10.0,1.0,,,,,,,,,,,,,gelb,red,r,0.0,r,1.0,0.8287788660018123,,,,,,,,,,1.0,10.0,22.0,8.0,256.4235718459968,,,,,,,,,,,,,,,,,256.41073443099594,257.215232483999,258.02733241599344,258.0109517029996,,,,,,,,,,,,,,,,,,,,,,,,,,,,,,,,,,,258.01404903899675,258.02733241599344,258.02733241599344,258.8639772899988,r,1.0,0.8287788660018123,,,,,sub-145,1,stroop_test,58.69945499185108,
,,,,23.0,11.0,1.0,,,,,,,,,,,,,gelb,yellow,g,1.0,g,1.0,0.9117039810007554,,,,,,,,,,1.0,11.0,23.0,10.0,258.8790340899941,,,,,,,,,,,,,,,,,258.8645368579964,259.22096453999984,260.02785989199765,260.0143180609957,,,,,,,,,,,,,,,,,,,,,,,,,,,,,,,,,,,260.0149269799949,260.02785989199765,260.02785989199765,260.95504809599515,g,1.0,0.9117039810007554,,,,,sub-145,1,stroop_test,58.69945499185108,
,,,,24.0,0.0,2.0,,,,,,,,,,,,,gelb,red,r,0.0,r,1.0,0.5670123130039428,,,,,,,,,,2.0,0.0,24.0,8.0,260.9705858009984,,,,,,,,,,,,,,,,,260.9558608169973,262.1634421119961,262.9696671129932,262.95633102299325,,,,,,,,,,,,,,,,,,,,,,,,,,,,,,,,,,,262.9575773159959,262.9696671129932,262.9696671129932,263.5587622649982,r,1.0,0.5670123130039428,,,,,sub-145,1,stroop_test,58.69945499185108,
,,,,25.0,1.0,2.0,,,,,,,,,,,,,gelb,yellow,g,1.0,g,1.0,0.8734767049973016,,,,,,,,,,2.0,1.0,25.0,10.0,263.5697425749968,,,,,,,,,,,,,,,,,263.5592080249989,263.90589377799915,264.70663984499697,264.6924644689934,,,,,,,,,,,,,,,,,,,,,,,,,,,,,,,,,,,264.6932797239933,264.70663984499697,264.70663984499697,265.5968449829961,g,1.0,0.8734767049973016,,,,,sub-145,1,stroop_test,58.69945499185108,
,,,,26.0,2.0,2.0,,,,,,,,,,,,,blau,blue,b,1.0,b,1.0,0.8915132249967428,,,,,,,,,,2.0,2.0,26.0,5.0,265.61214093599847,,,,,,,,,,,,,,,,,265.5975106839978,266.4079075720001,267.2120335699947,267.1950713449987,,,,,,,,,,,,,,,,,,,,,,,,,,,,,,,,,,,267.1989085059977,267.2120335699947,267.2120335699947,268.1187490999946,b,1.0,0.8915132249967428,,,,,sub-145,1,stroop_test,58.69945499185108,
,,,,27.0,3.0,2.0,,,,,,,,,,,,,gelb,blue,b,0.0,b,1.0,1.4496976739974343,,,,,,,,,,2.0,3.0,27.0,9.0,268.131326181996,,,,,,,,,,,,,,,,,268.1191722759977,268.22782527399977,269.0378625140001,269.0213889569932,,,,,,,,,,,,,,,,,,,,,,,,,,,,,,,,,,,269.0256190729997,269.0378625140001,269.0378625140001,270.4978440629929,b,1.0,1.4496976739974343,,,,,sub-145,1,stroop_test,58.69945499185108,
,,,,28.0,4.0,2.0,,,,,,,,,,,,,rot,yellow,g,0.0,g,1.0,0.5990776609978639,,,,,,,,,,2.0,4.0,28.0,3.0,270.5126472559932,,,,,,,,,,,,,,,,,270.4983746519938,271.2952779449988,272.10669066399714,272.0875291239936,,,,,,,,,,,,,,,,,,,,,,,,,,,,,,,,,,,272.0933712519982,272.10669066399714,272.10669066399714,272.72123809599725,g,1.0,0.5990776609978639,,,,,sub-145,1,stroop_test,58.69945499185108,
,,,,29.0,5.0,2.0,,,,,,,,,,,,,rot,red,r,1.0,r,1.0,0.771081206999952,,,,,,,,,,2.0,5.0,29.0,0.0,272.7376098109962,,,,,,,,,,,,,,,,,272.7216384359999,273.0655590069946,273.8640507799937,273.851090403994,,,,,,,,,,,,,,,,,,,,,,,,,,,,,,,,,,,273.8525945169968,273.8640507799937,273.8640507799937,274.64055795699824,r,1.0,0.771081206999952,,,,,sub-145,1,stroop_test,58.69945499185108,
,,,,30.0,6.0,2.0,,,,,,,,,,,,,rot,red,r,1.0,r,1.0,1.0403954680004972,,,,,,,,,,2.0,6.0,30.0,1.0,274.65605794399744,,,,,,,,,,,,,,,,,274.6411824769966,275.84448195399455,276.65122954199614,276.6379664039996,,,,,,,,,,,,,,,,,,,,,,,,,,,,,,,,,,,276.6396002459951,276.65122954199614,276.65122954199614,277.71151779599313,r,1.0,1.0403954680004972,,,,,sub-145,1,stroop_test,58.69945499185108,
,,,,31.0,7.0,2.0,,,,,,,,,,,,,blau,red,r,0.0,r,1.0,1.9580442830047105,,,,,,,,,,2.0,7.0,31.0,4.0,277.72288881899294,,,,,,,,,,,,,,,,,277.71196525799314,278.90889437099395,279.7088630619983,279.69246652599395,,,,,,,,,,,,,,,,,,,,,,,,,,,,,,,,,,,279.6956387459941,279.7088630619983,279.7088630619983,281.68650633299694,r,1.0,1.9580442830047105,,,,,sub-145,1,stroop_test,58.69945499185108,
,,,,32.0,8.0,2.0,,,,,,,,,,,,,rot,blue,b,0.0,b,1.0,0.9846134320032434,,,,,,,,,,2.0,8.0,32.0,2.0,281.69769883999834,,,,,,,,,,,,,,,,,281.6869189659992,282.4818915589931,283.3025268979982,283.2744099079937,,,,,,,,,,,,,,,,,,,,,,,,,,,,,,,,,,,283.2773531079947,283.3025268979982,283.3025268979982,284.30272466399765,b,1.0,0.9846134320032434,,,,,sub-145,1,stroop_test,58.69945499185108,
,,,,33.0,9.0,2.0,,,,,,,,,,,,,gelb,yellow,g,1.0,g,1.0,0.654501656004868,,,,,,,,,,2.0,9.0,33.0,11.0,284.315998055994,,,,,,,,,,,,,,,,,284.30314979199466,285.5091681949998,286.320232895996,286.30522490299336,,,,,,,,,,,,,,,,,,,,,,,,,,,,,,,,,,,286.3082899989968,286.320232895996,286.320232895996,286.98883209499763,g,1.0,0.654501656004868,,,,,sub-145,1,stroop_test,58.69945499185108,
,,,,34.0,10.0,2.0,,,,,,,,,,,,,blau,yellow,g,0.0,g,1.0,1.6021592719989712,,,,,,,,,,2.0,10.0,34.0,7.0,287.0036930269998,,,,,,,,,,,,,,,,,286.9894080729937,288.19385828999657,289.00333890199545,288.98841079799604,,,,,,,,,,,,,,,,,,,,,,,,,,,,,,,,,,,288.9915681339989,289.00333890199545,289.00333890199545,290.61896510199585,g,1.0,1.6021592719989712,,,,,sub-145,1,stroop_test,58.69945499185108,
,,,,35.0,11.0,2.0,,,,,,,,,,,,,blau,blue,b,1.0,b,1.0,1.4436767150036758,,,,,,,,,,2.0,11.0,35.0,6.0,290.63208308299363,,,,,,,,,,,,,,,,,290.619401072996,290.97538746699865,291.77506163199723,291.76102104599704,,,,,,,,,,,,,,,,,,,,,,,,,,,,,,,,,,,291.7615555299999,291.77506163199723,291.77506163199723,293.2236652119973,b,1.0,1.4436767150036758,,,,,sub-145,1,stroop_test,58.69945499185108,
,,,,36.0,0.0,3.0,,,,,,,,,,,,,rot,red,r,1.0,r,1.0,2.141412967001088,,,,,,,,,,3.0,0.0,36.0,0.0,293.23688174799463,,,,,,,,,,,,,,,,,293.22407864799607,294.4228718469967,295.2331791059987,295.21732395499566,,,,,,,,,,,,,,,,,,,,,,,,,,,,,,,,,,,295.2212722139957,295.2331791059987,295.2331791059987,297.3890592839962,r,1.0,2.141412967001088,,,,,sub-145,1,stroop_test,58.69945499185108,
,,,,37.0,1.0,3.0,,,,,,,,,,,,,blau,red,r,0.0,r,1.0,1.4245774219962186,,,,,,,,,,3.0,1.0,37.0,4.0,297.40403089899337,,,,,,,,,,,,,,,,,297.3896565069954,298.1931273949958,299.0053990050001,298.98974465499487,,,,,,,,,,,,,,,,,,,,,,,,,,,,,,,,,,,298.993309382,299.0053990050001,299.0053990050001,300.44641848699393,r,1.0,1.4245774219962186,,,,,sub-145,1,stroop_test,58.69945499185108,
,,,,38.0,2.0,3.0,,,,,,,,,,,,,blau,yellow,g,0.0,g,1.0,0.8064060010001413,,,,,,,,,,3.0,2.0,38.0,7.0,300.4616765709943,,,,,,,,,,,,,,,,,300.4471380399991,300.54477733599924,301.3459100079999,301.3326373059972,,,,,,,,,,,,,,,,,,,,,,,,,,,,,,,,,,,301.334130600997,301.3459100079999,301.3459100079999,302.1714995409929,g,1.0,0.8064060010001413,,,,,sub-145,1,stroop_test,58.69945499185108,
,,,,39.0,3.0,3.0,,,,,,,,,,,,,blau,blue,b,1.0,b,1.0,0.7789210090049892,,,,,,,,,,3.0,3.0,39.0,6.0,302.18206087999715,,,,,,,,,,,,,,,,,302.1719952939966,302.5250896379948,303.32797311899776,303.3137926579948,,,,,,,,,,,,,,,,,,,,,,,,,,,,,,,,,,,303.3148297839944,303.32797311899776,303.32797311899776,304.11249084799783,b,1.0,0.7789210090049892,,,,,sub-145,1,stroop_test,58.69945499185108,
,,,,40.0,4.0,3.0,,,,,,,,,,,,,gelb,yellow,g,1.0,g,1.0,0.7415104180035996,,,,,,,,,,3.0,4.0,40.0,10.0,304.12774306999927,,,,,,,,,,,,,,,,,304.112893214995,304.46487428699766,305.27208057999815,305.25319771499926,,,,,,,,,,,,,,,,,,,,,,,,,,,,,,,,,,,305.25646271199366,305.27208057999815,305.27208057999815,306.0289468369956,g,1.0,0.7415104180035996,,,,,sub-145,1,stroop_test,58.69945499185108,
,,,,41.0,5.0,3.0,,,,,,,,,,,,,gelb,blue,b,0.0,b,1.0,1.3561253369989572,,,,,,,,,,3.0,5.0,41.0,9.0,306.04424622999795,,,,,,,,,,,,,,,,,306.0293850119997,306.38368358799926,307.19106166199344,307.17506331299955,,,,,,,,,,,,,,,,,,,,,,,,,,,,,,,,,,,307.17559850099497,307.19106166199344,307.19106166199344,308.5632230659976,b,1.0,1.3561253369989572,,,,,sub-145,1,stroop_test,58.69945499185108,
,,,,42.0,6.0,3.0,,,,,,,,,,,,,rot,yellow,g,0.0,g,1.0,0.6958009450027021,,,,,,,,,,3.0,6.0,42.0,3.0,308.5778571329938,,,,,,,,,,,,,,,,,308.5637723999971,308.91402485599974,309.7203498309973,309.7048537849987,,,,,,,,,,,,,,,,,,,,,,,,,,,,,,,,,,,309.70824020199507,309.7203498309973,309.7203498309973,310.43021692399634,g,1.0,0.6958009450027021,,,,,sub-145,1,stroop_test,58.69945499185108,
,,,,43.0,7.0,3.0,,,,,,,,,,,,,gelb,red,r,0.0,r,1.0,0.7549101789991255,,,,,,,,,,3.0,7.0,43.0,8.0,310.44554977099324,,,,,,,,,,,,,,,,,310.43083705499885,310.5298500439967,311.3404420159932,311.32256488099665,,,,,,,,,,,,,,,,,,,,,,,,,,,,,,,,,,,311.32688009299454,311.3404420159932,311.3404420159932,312.1118975979989,r,1.0,0.7549101789991255,,,,,sub-145,1,stroop_test,58.69945499185108,
,,,,44.0,8.0,3.0,,,,,,,,,,,,,rot,red,r,1.0,r,1.0,1.17057725199993,,,,,,,,,,3.0,8.0,44.0,1.0,312.12691332399845,,,,,,,,,,,,,,,,,312.1123240349989,313.31098197299434,314.12128571899666,314.105106115996,,,,,,,,,,,,,,,,,,,,,,,,,,,,,,,,,,,314.1083224299946,314.12128571899666,314.12128571899666,315.30068225099967,r,1.0,1.17057725199993,,,,,sub-145,1,stroop_test,58.69945499185108,
,,,,45.0,9.0,3.0,,,,,,,,,,,,,blau,blue,b,1.0,b,1.0,1.0519182969946996,,,,,,,,,,3.0,9.0,45.0,5.0,315.3137262159944,,,,,,,,,,,,,,,,,315.30132823599706,315.4106344739994,316.2219007859967,316.2064895629956,,,,,,,,,,,,,,,,,,,,,,,,,,,,,,,,,,,316.2096725779993,316.2219007859967,316.2219007859967,317.2836339169953,b,1.0,1.0519182969946996,,,,,sub-145,1,stroop_test,58.69945499185108,
,,,,46.0,10.0,3.0,,,,,,,,,,,,,gelb,yellow,g,1.0,g,1.0,0.5978318929992383,,,,,,,,,,3.0,10.0,46.0,11.0,317.29763958699914,,,,,,,,,,,,,,,,,317.28408768199733,318.0877016300001,318.88717035999434,318.87146204399323,,,,,,,,,,,,,,,,,,,,,,,,,,,,,,,,,,,318.8750598569968,318.88717035999434,318.88717035999434,319.50138623499515,g,1.0,0.5978318929992383,,,,,sub-145,1,stroop_test,58.69945499185108,
,,,,47.0,11.0,3.0,,,,,,,,,,,,,rot,blue,b,0.0,b,1.0,1.261986232995696,,,,,,,,,,3.0,11.0,47.0,2.0,319.51434215599875,,,,,,,,,,,,,,,,,319.5018063839961,319.61063305799325,320.42639960799715,320.4089076349992,,,,,,,,,,,,,,,,,,,,,,,,,,,,,,,,,,,320.4128609699983,320.42639960799715,320.42639960799715,321.7045024079998,b,1.0,1.261986232995696,,,,,sub-145,1,stroop_test,58.69945499185108,
,,,,48.0,0.0,4.0,,,,,,,,,,,,,gelb,blue,b,0.0,b,1.0,1.604137648995675,,,,,,,,,,4.0,0.0,48.0,9.0,321.71770335399924,,,,,,,,,,,,,,,,,321.7049280409992,322.5108757950002,323.3211230229936,323.30290121099824,,,,,,,,,,,,,,,,,,,,,,,,,,,,,,,,,,,323.3060704419986,323.3211230229936,323.3211230229936,324.9417578089997,b,1.0,1.604137648995675,,,,,sub-145,1,stroop_test,58.69945499185108,
,,,,49.0,1.0,4.0,,,,,,,,,,,,,blau,red,r,0.0,r,1.0,0.8404179520002799,,,,,,,,,,4.0,1.0,49.0,4.0,324.9579598049968,,,,,,,,,,,,,,,,,324.94217441699584,325.7441239759937,326.546270256993,326.5291611349967,,,,,,,,,,,,,,,,,,,,,,,,,,,,,,,,,,,326.5345194179972,326.546270256993,326.546270256993,327.3936278619949,r,1.0,0.8404179520002799,,,,,sub-145,1,stroop_test,58.69945499185108,
,,,,50.0,2.0,4.0,,,,,,,,,,,,,rot,red,r,1.0,r,1.0,0.7099887220028904,,,,,,,,,,4.0,2.0,50.0,0.0,327.40797476299485,,,,,,,,,,,,,,,,,327.39416776099824,327.74094263499865,328.5529213229965,328.5365964099983,,,,,,,,,,,,,,,,,,,,,,,,,,,,,,,,,,,328.54058868399443,328.5529213229965,328.5529213229965,329.271534347994,r,1.0,0.7099887220028904,,,,,sub-145,1,stroop_test,58.69945499185108,
,,,,51.0,3.0,4.0,,,,,,,,,,,,,rot,red,r,1.0,r,1.0,0.7980178689977038,,,,,,,,,,4.0,3.0,51.0,1.0,329.2851525779988,,,,,,,,,,,,,,,,,329.2720373849952,330.4708524299931,331.27121095399343,331.2585503059963,,,,,,,,,,,,,,,,,,,,,,,,,,,,,,,,,,,331.25923740199505,331.27121095399343,331.27121095399343,332.0884062059995,r,1.0,0.7980178689977038,,,,,sub-145,1,stroop_test,58.69945499185108,
,,,,52.0,4.0,4.0,,,,,,,,,,,,,blau,yellow,g,0.0,g,1.0,1.272903305994987,,,,,,,,,,4.0,4.0,52.0,7.0,332.10054975099774,,,,,,,,,,,,,,,,,332.08912682399387,332.89153950699983,333.7007411829982,333.68318205599644,,,,,,,,,,,,,,,,,,,,,,,,,,,,,,,,,,,333.68785681499867,333.7007411829982,333.7007411829982,334.98907227699965,g,1.0,1.272903305994987,,,,,sub-145,1,stroop_test,58.69945499185108,
,,,,53.0,5.0,4.0,,,,,,,,,,,,,gelb,red,r,0.0,r,1.0,3.916824858999462,,,,,,,,,,4.0,5.0,53.0,8.0,335.0039193699995,,,,,,,,,,,,,,,,,334.9896714869974,335.3460420559932,336.1493129099981,336.13268642899493,,,,,,,,,,,,,,,,,,,,,,,,,,,,,,,,,,,336.1376449709933,336.1493129099981,336.1493129099981,340.080260263996,r,1.0,3.916824858999462,,,,,sub-145,1,stroop_test,58.69945499185108,
,,,,54.0,6.0,4.0,,,,,,,,,,,,,blau,blue,b,1.0,b,1.0,1.208585060994665,,,,,,,,,,4.0,6.0,54.0,6.0,340.09545596199314,,,,,,,,,,,,,,,,,340.0807492459935,340.1871363459941,340.9930603169996,340.97534056699806,,,,,,,,,,,,,,,,,,,,,,,,,,,,,,,,,,,340.9793770119941,340.9930603169996,340.9930603169996,342.2077929629959,b,1.0,1.208585060994665,,,,,sub-145,1,stroop_test,58.69945499185108,
,,,,55.0,7.0,4.0,,,,,,,,,,,,,blau,blue,b,1.0,b,1.0,1.1285927429998992,,,,,,,,,,4.0,7.0,55.0,5.0,342.22116647599614,,,,,,,,,,,,,,,,,342.2082078619933,343.4119235879989,344.2112404149957,344.1977143719996,,,,,,,,,,,,,,,,,,,,,,,,,,,,,,,,,,,344.199307582996,344.2112404149957,344.2112404149957,345.3456712269981,b,1.0,1.1285927429998992,,,,,sub-145,1,stroop_test,58.69945499185108,
,,,,56.0,8.0,4.0,,,,,,,,,,,,,rot,blue,b,0.0,b,1.0,0.9094602669938469,,,,,,,,,,4.0,8.0,56.0,2.0,345.36125982299563,,,,,,,,,,,,,,,,,345.346328859996,345.44515013699856,346.2702228729977,346.2524386249934,,,,,,,,,,,,,,,,,,,,,,,,,,,,,,,,,,,346.2553866179951,346.2702228729977,346.2702228729977,347.19227479499386,b,1.0,0.9094602669938469,,,,,sub-145,1,stroop_test,58.69945499185108,
,,,,57.0,9.0,4.0,,,,,,,,,,,,,gelb,yellow,g,1.0,g,1.0,0.5854770240039215,,,,,,,,,,4.0,9.0,57.0,11.0,347.2070626309942,,,,,,,,,,,,,,,,,347.19290516199544,347.9972571539984,348.80233847699856,348.78759923499456,,,,,,,,,,,,,,,,,,,,,,,,,,,,,,,,,,,348.7906158189944,348.80233847699856,348.80233847699856,349.39391842199984,g,1.0,0.5854770240039215,,,,,sub-145,1,stroop_test,58.69945499185108,
,,,,58.0,10.0,4.0,,,,,,,,,,,,,gelb,yellow,g,1.0,g,1.0,0.4658679529966321,,,,,,,,,,4.0,10.0,58.0,10.0,349.40822795799613,,,,,,,,,,,,,,,,,349.394394526993,350.2035805129999,351.0093140569952,350.99521582799935,,,,,,,,,,,,,,,,,,,,,,,,,,,,,,,,,,,350.99578610599565,351.0093140569952,351.0093140569952,351.4860330599986,g,1.0,0.4658679529966321,,,,,sub-145,1,stroop_test,58.69945499185108,
,,,,59.0,11.0,4.0,,,,,,,,,,,,,rot,yellow,g,0.0,g,1.0,1.8155901299978725,,,,,,,,,,4.0,11.0,59.0,3.0,351.50034141099604,,,,,,,,,,,,,,,,,351.48646034999547,352.3015344669984,353.10663776,353.090971439,,,,,,,,,,,,,,,,,,,,,,,,,,,,,,,,,,,353.0946256429961,353.10663776,353.10663776,354.9419245309982,g,1.0,1.8155901299978725,,,,,sub-145,1,stroop_test,58.69945499185108,
,,,,60.0,0.0,5.0,,,,,,,,,,,,,rot,yellow,g,0.0,g,1.0,0.8452048420003848,,,,,,,,,,5.0,0.0,60.0,3.0,354.9535789929941,,,,,,,,,,,,,,,,,354.9424503959963,355.7494734569991,356.55732780999824,356.54125333299453,,,,,,,,,,,,,,,,,,,,,,,,,,,,,,,,,,,356.54203813399363,356.55732780999824,356.55732780999824,357.4177879479976,g,1.0,0.8452048420003848,,,,,sub-145,1,stroop_test,58.69945499185108,
,,,,61.0,1.0,5.0,,,,,,,,,,,,,gelb,yellow,g,1.0,g,1.0,0.5162966110001435,,,,,,,,,,5.0,1.0,61.0,11.0,357.430674282994,,,,,,,,,,,,,,,,,357.4182064009947,357.5244116879985,358.33632855999895,358.3211100479966,,,,,,,,,,,,,,,,,,,,,,,,,,,,,,,,,,,358.324193679,358.33632855999895,358.33632855999895,358.85975774099643,g,1.0,0.5162966110001435,,,,,sub-145,1,stroop_test,58.69945499185108,
,,,,62.0,2.0,5.0,,,,,,,,,,,,,blau,blue,b,1.0,b,1.0,0.6326096409975435,,,,,,,,,,5.0,2.0,62.0,6.0,358.8739894729952,,,,,,,,,,,,,,,,,358.86018591499305,360.06311062999885,360.8717169999945,360.855308456994,,,,,,,,,,,,,,,,,,,,,,,,,,,,,,,,,,,360.8597303159986,360.8717169999945,360.8717169999945,361.520255065996,b,1.0,0.6326096409975435,,,,,sub-145,1,stroop_test,58.69945499185108,
,,,,63.0,3.0,5.0,,,,,,,,,,,,,blau,yellow,g,0.0,g,1.0,0.5723242750027566,,,,,,,,,,5.0,3.0,63.0,7.0,361.53413450399967,,,,,,,,,,,,,,,,,361.520690831996,362.7222973869939,363.5296218939984,363.5178479909955,,,,,,,,,,,,,,,,,,,,,,,,,,,,,,,,,,,363.5183942479998,363.5296218939984,363.5296218939984,364.1098935229966,g,1.0,0.5723242750027566,,,,,sub-145,1,stroop_test,58.69945499185108,
,,,,64.0,4.0,5.0,,,,,,,,,,,,,rot,red,r,1.0,r,1.0,0.6610839570057578,,,,,,,,,,5.0,4.0,64.0,0.0,364.1253536699951,,,,,,,,,,,,,,,,,364.1103211109949,364.4644541009984,365.2778799719963,365.2577348579944,,,,,,,,,,,,,,,,,,,,,,,,,,,,,,,,,,,365.2642162799966,365.2778799719963,365.2778799719963,365.9552680169945,r,1.0,0.6610839570057578,,,,,sub-145,1,stroop_test,58.69945499185108,
,,,,65.0,5.0,5.0,,,,,,,,,,,,,rot,blue,b,0.0,b,1.0,1.4047948520019418,,,,,,,,,,5.0,5.0,65.0,2.0,365.968783186996,,,,,,,,,,,,,,,,,365.9556853869945,367.15908463099913,367.97083069599466,367.9557941649982,,,,,,,,,,,,,,,,,,,,,,,,,,,,,,,,,,,367.95633379999344,367.97083069599466,367.97083069599466,369.39092133899976,b,1.0,1.4047948520019418,,,,,sub-145,1,stroop_test,58.69945499185108,
,,,,66.0,6.0,5.0,,,,,,,,,,,,,blau,red,r,0.0,r,1.0,0.8043688819961972,,,,,,,,,,5.0,6.0,66.0,4.0,369.4053265419934,,,,,,,,,,,,,,,,,369.3915252309962,369.49725255099474,370.302318764996,370.286094213996,,,,,,,,,,,,,,,,,,,,,,,,,,,,,,,,,,,370.29031174799456,370.302318764996,370.302318764996,371.1135478589931,r,1.0,0.8043688819961972,,,,,sub-145,1,stroop_test,58.69945499185108,
,,,,67.0,7.0,5.0,,,,,,,,,,,,,gelb,red,r,0.0,r,1.0,1.213712705000944,,,,,,,,,,5.0,7.0,67.0,8.0,371.1277271049985,,,,,,,,,,,,,,,,,371.1141149889954,371.47099653199984,372.27839357099583,372.26169187999767,,,,,,,,,,,,,,,,,,,,,,,,,,,,,,,,,,,372.2669744369996,372.27839357099583,372.27839357099583,373.5081985539946,r,1.0,1.213712705000944,,,,,sub-145,1,stroop_test,58.69945499185108,
,,,,68.0,8.0,5.0,,,,,,,,,,,,,gelb,yellow,g,1.0,g,1.0,0.9864898989981156,,,,,,,,,,5.0,8.0,68.0,10.0,373.5345852439932,,,,,,,,,,,,,,,,,373.5087969389933,373.8556937049944,374.6594201639964,374.6440268379956,,,,,,,,,,,,,,,,,,,,,,,,,,,,,,,,,,,374.6445641129976,374.6594201639964,374.6594201639964,375.6525541899973,g,1.0,0.9864898989981156,,,,,sub-145,1,stroop_test,58.69945499185108,
,,,,69.0,9.0,5.0,,,,,,,,,,,,,gelb,blue,b,0.0,b,1.0,0.8617806780021056,,,,,,,,,,5.0,9.0,69.0,9.0,375.6658459699975,,,,,,,,,,,,,,,,,375.6531635039937,376.85306923299504,377.6592929519975,377.6450185939975,,,,,,,,,,,,,,,,,,,,,,,,,,,,,,,,,,,377.645666171993,377.6592929519975,377.6592929519975,378.5279115669982,b,1.0,0.8617806780021056,,,,,sub-145,1,stroop_test,58.69945499185108,
,,,,70.0,10.0,5.0,,,,,,,,,,,,,rot,red,r,1.0,r,1.0,0.8407611419970635,,,,,,,,,,5.0,10.0,70.0,1.0,378.5428983949969,,,,,,,,,,,,,,,,,378.528322029997,378.87708487199416,379.6824041209984,379.6661053489952,,,,,,,,,,,,,,,,,,,,,,,,,,,,,,,,,,,379.6707054679937,379.6824041209984,379.6824041209984,380.5394265099967,r,1.0,0.8407611419970635,,,,,sub-145,1,stroop_test,58.69945499185108,
,,,,71.0,11.0,5.0,,,,,,,,,,,,,blau,blue,b,1.0,b,1.0,1.1855071919999318,,,,,,,,,,5.0,11.0,71.0,5.0,380.5551883619992,,,,,,,,,,,,,,,,,380.54008011199767,381.7425863049939,382.5486319779957,382.5318325999978,,,,,,,,,,,,,,,,,,,,,,,,,,,,,,,,,,,382.5364980719969,382.5486319779957,382.5486319779957,383.73924673699366,b,1.0,1.1855071919999318,,,,,sub-145,1,stroop_test,58.69945499185108,
,,,,72.0,0.0,6.0,,,,,,,,,,,,,gelb,yellow,g,1.0,g,1.0,0.7143147780006984,,,,,,,,,,6.0,0.0,72.0,10.0,383.754820518996,,,,,,,,,,,,,,,,,383.7398904169968,384.9422490249999,385.7453372719974,385.7282694359965,,,,,,,,,,,,,,,,,,,,,,,,,,,,,,,,,,,385.7337618909951,385.7453372719974,385.7453372719974,386.4727926829946,g,1.0,0.7143147780006984,,,,,sub-145,1,stroop_test,58.69945499185108,
,,,,73.0,1.0,6.0,,,,,,,,,,,,,rot,red,r,1.0,r,1.0,0.9339465519951772,,,,,,,,,,6.0,1.0,73.0,1.0,386.4861986379983,,,,,,,,,,,,,,,,,386.4732181509971,386.5792340929984,387.4015481989991,387.3725185219955,,,,,,,,,,,,,,,,,,,,,,,,,,,,,,,,,,,387.3760264399971,387.4015481989991,387.4015481989991,388.35011437299545,r,1.0,0.9339465519951772,,,,,sub-145,1,stroop_test,58.69945499185108,
,,,,74.0,2.0,6.0,,,,,,,,,,,,,blau,red,r,0.0,r,1.0,1.146290170996508,,,,,,,,,,6.0,2.0,74.0,4.0,388.363144297,,,,,,,,,,,,,,,,,388.3505858579956,389.54770155199367,390.3604365869978,390.343503252996,,,,,,,,,,,,,,,,,,,,,,,,,,,,,,,,,,,390.34750891599833,390.3604365869978,390.3604365869978,391.5123354879979,r,1.0,1.146290170996508,,,,,sub-145,1,stroop_test,58.69945499185108,
,,,,75.0,3.0,6.0,,,,,,,,,,,,,blau,yellow,g,0.0,g,1.0,0.8518039370028418,,,,,,,,,,6.0,3.0,75.0,7.0,391.5269155969945,,,,,,,,,,,,,,,,,391.5128344789992,392.7196690569981,393.5252537879933,393.5098724599957,,,,,,,,,,,,,,,,,,,,,,,,,,,,,,,,,,,393.5104100119934,393.5252537879933,393.5252537879933,394.3936208069936,g,1.0,0.8518039370028418,,,,,sub-145,1,stroop_test,58.69945499185108,
,,,,76.0,4.0,6.0,,,,,,,,,,,,,blau,blue,b,1.0,b,1.0,1.6431109930053935,,,,,,,,,,6.0,4.0,76.0,5.0,394.4071812289985,,,,,,,,,,,,,,,,,394.3943211679944,395.194681768,396.0051768159974,395.98924543599423,,,,,,,,,,,,,,,,,,,,,,,,,,,,,,,,,,,395.9897708749995,396.0051768159974,396.0051768159974,397.6626641199982,b,1.0,1.6431109930053935,,,,,sub-145,1,stroop_test,58.69945499185108,
,,,,77.0,5.0,6.0,,,,,,,,,,,,,rot,red,r,1.0,r,1.0,1.5637390869960657,,,,,,,,,,6.0,5.0,77.0,0.0,397.6769717829957,,,,,,,,,,,,,,,,,397.6630983419964,398.0197039409977,398.8237333899961,398.80618748499546,,,,,,,,,,,,,,,,,,,,,,,,,,,,,,,,,,,398.8100031679933,398.8237333899961,398.8237333899961,400.4034935419986,r,1.0,1.5637390869960657,,,,,sub-145,1,stroop_test,58.69945499185108,
,,,,78.0,6.0,6.0,,,,,,,,,,,,,gelb,blue,b,0.0,b,1.0,1.001783850995707,,,,,,,,,,6.0,6.0,78.0,9.0,400.4205150399939,,,,,,,,,,,,,,,,,400.4039201759952,400.7527005189986,401.5659960749981,401.54953122299776,,,,,,,,,,,,,,,,,,,,,,,,,,,,,,,,,,,401.5539277709977,401.5659960749981,401.5659960749981,402.5726007889971,b,1.0,1.001783850995707,,,,,sub-145,1,stroop_test,58.69945499185108,
,,,,79.0,7.0,6.0,,,,,,,,,,,,,blau,blue,b,1.0,b,1.0,0.6725810040006763,,,,,,,,,,6.0,7.0,79.0,6.0,402.58626439699583,,,,,,,,,,,,,,,,,402.573017019,402.680383588995,403.4861655459972,403.4712012289965,,,,,,,,,,,,,,,,,,,,,,,,,,,,,,,,,,,403.4744179079935,403.4861655459972,403.4861655459972,404.174982202996,b,1.0,0.6725810040006763,,,,,sub-145,1,stroop_test,58.69945499185108,
,,,,80.0,8.0,6.0,,,,,,,,,,,,,gelb,yellow,g,1.0,g,1.0,0.620590031001484,,,,,,,,,,6.0,8.0,80.0,11.0,404.1902575989952,,,,,,,,,,,,,,,,,404.1754254639964,404.2758138899953,405.08539971099526,405.0689945869962,,,,,,,,,,,,,,,,,,,,,,,,,,,,,,,,,,,405.0733129939981,405.08539971099526,405.08539971099526,405.7187573799965,g,1.0,0.620590031001484,,,,,sub-145,1,stroop_test,58.69945499185108,
,,,,81.0,9.0,6.0,,,,,,,,,,,,,rot,blue,b,0.0,b,1.0,0.8972927189970505,,,,,,,,,,6.0,9.0,81.0,2.0,405.7322196709938,,,,,,,,,,,,,,,,,405.719224593995,406.5256605409959,407.3292222719974,407.3113643719989,,,,,,,,,,,,,,,,,,,,,,,,,,,,,,,,,,,407.3173137859994,407.3292222719974,407.3292222719974,408.234090852995,b,1.0,0.8972927189970505,,,,,sub-145,1,stroop_test,58.69945499185108,
,,,,82.0,10.0,6.0,,,,,,,,,,,,,gelb,red,r,0.0,r,1.0,2.9347306350027798,,,,,,,,,,6.0,10.0,82.0,8.0,408.2478890469938,,,,,,,,,,,,,,,,,408.2345188709951,409.4375299759995,410.23813545099983,410.22276739699737,,,,,,,,,,,,,,,,,,,,,,,,,,,,,,,,,,,410.2264410719945,410.23813545099983,410.23813545099983,413.187692294996,r,1.0,2.9347306350027798,,,,,sub-145,1,stroop_test,58.69945499185108,
,,,,83.0,11.0,6.0,,,,,,,,,,,,,rot,yellow,g,0.0,g,1.0,1.4242802009976003,,,,,,,,,,6.0,11.0,83.0,3.0,413.20260822199634,,,,,,,,,,,,,,,,,413.188240863994,414.3959919529953,415.2113841019964,415.1939525909984,,,,,,,,,,,,,,,,,,,,,,,,,,,,,,,,,,,415.1991253009983,415.2113841019964,415.2113841019964,416.6514956319952,g,1.0,1.4242802009976003,,,,,sub-145,1,stroop_test,58.69945499185108,
,,,,84.0,0.0,7.0,,,,,,,,,,,,,rot,yellow,g,0.0,g,1.0,1.3531537629969534,,,,,,,,,,7.0,0.0,84.0,3.0,416.6647271759939,,,,,,,,,,,,,,,,,416.6519190059989,417.8506328769945,418.65874513899325,418.6437770939956,,,,,,,,,,,,,,,,,,,,,,,,,,,,,,,,,,,418.6445259859975,418.65874513899325,418.65874513899325,420.0195092569993,g,1.0,1.3531537629969534,,,,,sub-145,1,stroop_test,58.69945499185108,
,,,,85.0,1.0,7.0,,,,,,,,,,,,,gelb,red,r,0.0,r,1.0,1.214448568993248,,,,,,,,,,7.0,1.0,85.0,8.0,420.0339696769952,,,,,,,,,,,,,,,,,420.0200600949975,421.22746892999567,422.04259315099625,422.0261005409993,,,,,,,,,,,,,,,,,,,,,,,,,,,,,,,,,,,422.0293811909942,422.04259315099625,422.04259315099625,423.2660553049936,r,1.0,1.214448568993248,,,,,sub-145,1,stroop_test,58.69945499185108,
,,,,86.0,2.0,7.0,,,,,,,,,,,,,rot,red,r,1.0,r,1.0,0.8282038569959695,,,,,,,,,,7.0,2.0,86.0,1.0,423.27860969099856,,,,,,,,,,,,,,,,,423.2664791299976,424.4721477329949,425.2812662219949,425.2649143729941,,,,,,,,,,,,,,,,,,,,,,,,,,,,,,,,,,,425.2695080589983,425.2812662219949,425.2812662219949,426.125826604999,r,1.0,0.8282038569959695,,,,,sub-145,1,stroop_test,58.69945499185108,
,,,,87.0,3.0,7.0,,,,,,,,,,,,,rot,blue,b,0.0,b,1.0,0.8541253689982113,,,,,,,,,,7.0,3.0,87.0,2.0,426.1418095029949,,,,,,,,,,,,,,,,,426.1264803209997,427.3325734249957,428.141883075994,428.126319985,,,,,,,,,,,,,,,,,,,,,,,,,,,,,,,,,,,428.1268576980001,428.141883075994,428.141883075994,429.0040606419934,b,1.0,0.8541253689982113,,,,,sub-145,1,stroop_test,58.69945499185108,
,,,,88.0,4.0,7.0,,,,,,,,,,,,,blau,blue,b,1.0,b,1.0,1.6679784600055427,,,,,,,,,,7.0,4.0,88.0,5.0,429.0176085779967,,,,,,,,,,,,,,,,,429.0044849739934,429.80654521099495,430.6179300789954,430.6015747589991,,,,,,,,,,,,,,,,,,,,,,,,,,,,,,,,,,,430.6056695869993,430.6179300789954,430.6179300789954,432.3026686039957,b,1.0,1.6679784600055427,,,,,sub-145,1,stroop_test,58.69945499185108,
,,,,89.0,5.0,7.0,,,,,,,,,,,,,gelb,yellow,g,1.0,g,1.0,1.1622779280005489,,,,,,,,,,7.0,5.0,89.0,10.0,432.316288682996,,,,,,,,,,,,,,,,,432.3031048809935,433.11289446399314,433.9264199539976,433.90890257999854,,,,,,,,,,,,,,,,,,,,,,,,,,,,,,,,,,,433.9135841179959,433.9264199539976,433.9264199539976,435.0927245699932,g,1.0,1.1622779280005489,,,,,sub-145,1,stroop_test,58.69945499185108,
,,,,90.0,6.0,7.0,,,,,,,,,,,,,gelb,yellow,g,1.0,g,1.0,0.5168838070021593,,,,,,,,,,7.0,6.0,90.0,11.0,435.10901604999526,,,,,,,,,,,,,,,,,435.09316501899593,435.8986869489963,436.7093623389956,436.69450254899857,,,,,,,,,,,,,,,,,,,,,,,,,,,,,,,,,,,436.6954778299987,436.7093623389956,436.7093623389956,437.2338611439991,g,1.0,0.5168838070021593,,,,,sub-145,1,stroop_test,58.69945499185108,
,,,,91.0,7.0,7.0,,,,,,,,,,,,,blau,yellow,g,0.0,g,1.0,0.9504071449991898,,,,,,,,,,7.0,7.0,91.0,7.0,437.2485635999983,,,,,,,,,,,,,,,,,437.2344501560001,438.430140310993,439.2357953089959,439.2192219069984,,,,,,,,,,,,,,,,,,,,,,,,,,,,,,,,,,,439.2236342809993,439.2357953089959,439.2357953089959,440.1921776620002,g,1.0,0.9504071449991898,,,,,sub-145,1,stroop_test,58.69945499185108,
,,,,92.0,8.0,7.0,,,,,,,,,,,,,rot,red,r,1.0,r,1.0,1.269239124005253,,,,,,,,,,7.0,8.0,92.0,0.0,440.2072994969931,,,,,,,,,,,,,,,,,440.19261961199663,440.30251876199327,441.1159647989989,441.1001854299975,,,,,,,,,,,,,,,,,,,,,,,,,,,,,,,,,,,441.10358467100014,441.1159647989989,441.1159647989989,442.4054602189936,r,1.0,1.269239124005253,,,,,sub-145,1,stroop_test,58.69945499185108,
,,,,93.0,9.0,7.0,,,,,,,,,,,,,gelb,blue,b,0.0,b,1.0,0.8683210899980622,,,,,,,,,,7.0,9.0,93.0,9.0,442.41620627099473,,,,,,,,,,,,,,,,,442.4058893699985,442.507963901,443.31418607599335,443.2977282199936,,,,,,,,,,,,,,,,,,,,,,,,,,,,,,,,,,,443.30238496599486,443.31418607599335,443.31418607599335,444.19115419199807,b,1.0,0.8683210899980622,,,,,sub-145,1,stroop_test,58.69945499185108,
,,,,94.0,10.0,7.0,,,,,,,,,,,,,blau,blue,b,1.0,b,1.0,0.7360167389997514,,,,,,,,,,7.0,10.0,94.0,6.0,444.2065942489935,,,,,,,,,,,,,,,,,444.1917708649999,444.29809351799486,445.1064818799932,445.08951396799966,,,,,,,,,,,,,,,,,,,,,,,,,,,,,,,,,,,445.0938983659944,445.1064818799932,445.1064818799932,445.8586390059936,b,1.0,0.7360167389997514,,,,,sub-145,1,stroop_test,58.69945499185108,
,,,,95.0,11.0,7.0,,,,,,,,,,,,,blau,red,r,0.0,r,1.0,0.3480422789943986,,,,,,,,,,7.0,11.0,95.0,4.0,445.8725603029961,,,,,,,,,,,,,,,,,445.8591876619976,447.0590809419955,447.8579445429932,447.8439191799989,,,,,,,,,,,,,,,,,,,,,,,,,,,,,,,,,,,447.8446504329986,447.8579445429932,447.8579445429932,448.220846446995,r,1.0,0.3480422789943986,,,,,sub-145,1,stroop_test,58.69945499185108,
,,,,96.0,0.0,8.0,,,,,,,,,,,,,rot,red,r,1.0,r,1.0,0.6197048480025842,,,,,,,,,,8.0,0.0,96.0,0.0,448.2342071209932,,,,,,,,,,,,,,,,,448.22126293799374,449.4261064949969,450.23858890399424,450.220694716998,,,,,,,,,,,,,,,,,,,,,,,,,,,,,,,,,,,450.2235630409996,450.23858890399424,450.23858890399424,450.87236981399474,r,1.0,0.6197048480025842,,,,,sub-145,1,stroop_test,58.69945499185108,
,,,,97.0,1.0,8.0,,,,,,,,,,,,,blau,yellow,g,0.0,g,1.0,0.5666104170013568,,,,,,,,,,8.0,1.0,97.0,7.0,450.88569372599886,,,,,,,,,,,,,,,,,450.87278867799614,451.22612099299295,452.0342872579931,452.0174923769955,,,,,,,,,,,,,,,,,,,,,,,,,,,,,,,,,,,452.0223270449933,452.0342872579931,452.0342872579931,452.61239837199537,g,1.0,0.5666104170013568,,,,,sub-145,1,stroop_test,58.69945499185108,
,,,,98.0,2.0,8.0,,,,,,,,,,,,,gelb,red,r,0.0,r,1.0,0.6899964039985207,,,,,,,,,,8.0,2.0,98.0,8.0,452.6267248709992,,,,,,,,,,,,,,,,,452.6128955739987,452.9627733169982,453.7719332359993,453.75636554399534,,,,,,,,,,,,,,,,,,,,,,,,,,,,,,,,,,,453.7601551669941,453.7719332359993,453.7719332359993,454.46600477099855,r,1.0,0.6899964039985207,,,,,sub-145,1,stroop_test,58.69945499185108,
,,,,99.0,3.0,8.0,,,,,,,,,,,,,gelb,yellow,g,1.0,g,1.0,0.813629796000896,,,,,,,,,,8.0,3.0,99.0,10.0,454.4789111119972,,,,,,,,,,,,,,,,,454.4665768949999,455.6837378919954,456.49411564399634,456.479890564995,,,,,,,,,,,,,,,,,,,,,,,,,,,,,,,,,,,456.48159151699656,456.49411564399634,456.49411564399634,457.3234128099939,g,1.0,0.813629796000896,,,,,sub-145,1,stroop_test,58.69945499185108,
,,,,100.0,4.0,8.0,,,,,,,,,,,,,blau,blue,b,1.0,b,1.0,0.9067434419994242,,,,,,,,,,8.0,4.0,100.0,5.0,457.3369615909978,,,,,,,,,,,,,,,,,457.323835035997,457.43547201499314,458.24415403799503,458.2261055659983,,,,,,,,,,,,,,,,,,,,,,,,,,,,,,,,,,,458.2323164499976,458.24415403799503,458.24415403799503,459.1705304999996,b,1.0,0.9067434419994242,,,,,sub-145,1,stroop_test,58.69945499185108,
,,,,101.0,5.0,8.0,,,,,,,,,,,,,blau,red,r,0.0,r,1.0,1.0488800210005138,,,,,,,,,,8.0,5.0,101.0,4.0,459.1809217809932,,,,,,,,,,,,,,,,,459.1709560809977,459.529734205993,460.34171382199565,460.3253648479949,,,,,,,,,,,,,,,,,,,,,,,,,,,,,,,,,,,460.3260487139996,460.34171382199565,460.34171382199565,461.394284021997,r,1.0,1.0488800210005138,,,,,sub-145,1,stroop_test,58.69945499185108,
,,,,102.0,6.0,8.0,,,,,,,,,,,,,gelb,blue,b,0.0,b,1.0,1.289290405002248,,,,,,,,,,8.0,6.0,102.0,9.0,461.4094026179955,,,,,,,,,,,,,,,,,461.39489645999856,461.746192532999,462.5604246669973,462.5421704399996,,,,,,,,,,,,,,,,,,,,,,,,,,,,,,,,,,,462.5484423559974,462.5604246669973,462.5604246669973,463.8657192899991,b,1.0,1.289290405002248,,,,,sub-145,1,stroop_test,58.69945499185108,
,,,,103.0,7.0,8.0,,,,,,,,,,,,,blau,blue,b,1.0,b,1.0,1.007447702002537,,,,,,,,,,8.0,7.0,103.0,6.0,463.8783050009952,,,,,,,,,,,,,,,,,463.8661415069946,463.9727964749982,464.7784102769947,464.7614396489953,,,,,,,,,,,,,,,,,,,,,,,,,,,,,,,,,,,464.7665725419938,464.7784102769947,464.7784102769947,465.7890280399952,b,1.0,1.007447702002537,,,,,sub-145,1,stroop_test,58.69945499185108,
,,,,104.0,8.0,8.0,,,,,,,,,,,,,rot,red,r,1.0,r,1.0,0.9795060389951686,,,,,,,,,,8.0,8.0,104.0,1.0,465.80376198599697,,,,,,,,,,,,,,,,,465.78960916999495,465.8954760459965,466.70708192399616,466.6890074659968,,,,,,,,,,,,,,,,,,,,,,,,,,,,,,,,,,,466.691912975999,466.70708192399616,466.70708192399616,467.7027777159965,r,1.0,0.9795060389951686,,,,,sub-145,1,stroop_test,58.69945499185108,
,,,,105.0,9.0,8.0,,,,,,,,,,,,,rot,yellow,g,0.0,g,1.0,0.9843758580027496,,,,,,,,,,8.0,9.0,105.0,3.0,467.7159822239992,,,,,,,,,,,,,,,,,467.70319267099694,468.5185450969948,469.33343123999657,469.3063410719988,,,,,,,,,,,,,,,,,,,,,,,,,,,,,,,,,,,469.3071135489954,469.33343123999657,469.33343123999657,470.3268523549996,g,1.0,0.9843758580027496,,,,,sub-145,1,stroop_test,58.69945499185108,
,,,,106.0,10.0,8.0,,,,,,,,,,,,,gelb,yellow,g,1.0,g,1.0,0.7813002619950566,,,,,,,,,,8.0,10.0,106.0,11.0,470.3415896929946,,,,,,,,,,,,,,,,,470.3272614599992,470.4347013699953,471.2460035289987,471.2277057169995,,,,,,,,,,,,,,,,,,,,,,,,,,,,,,,,,,,471.2343810869934,471.2460035289987,471.2460035289987,472.0407401669945,g,1.0,0.7813002619950566,,,,,sub-145,1,stroop_test,58.69945499185108,
,,,,107.0,11.0,8.0,,,,,,,,,,,,,rot,blue,b,0.0,b,1.0,1.1382988299956196,,,,,,,,,,8.0,11.0,107.0,2.0,472.054739743995,,,,,,,,,,,,,,,,,472.0413264979943,472.1438166649969,472.9507907359948,472.9360113570001,,,,,,,,,,,,,,,,,,,,,,,,,,,,,,,,,,,472.9389273289999,472.9507907359948,472.9507907359948,474.1038317919956,b,1.0,1.1382988299956196,,,,,sub-145,1,stroop_test,58.69945499185108,
,,,,108.0,0.0,9.0,,,,,,,,,,,,,rot,yellow,g,0.0,g,1.0,1.4347798579983646,,,,,,,,,,9.0,0.0,108.0,3.0,474.11705644399626,,,,,,,,,,,,,,,,,474.1042545069941,474.9021223739983,475.7166548919995,475.691547385999,,,,,,,,,,,,,,,,,,,,,,,,,,,,,,,,,,,475.6921194499955,475.7166548919995,475.7166548919995,477.1665245539989,g,1.0,1.4347798579983646,,,,,sub-145,1,stroop_test,58.69945499185108,
,,,,109.0,1.0,9.0,,,,,,,,,,,,,gelb,yellow,g,1.0,g,1.0,0.5552198189980118,,,,,,,,,,9.0,1.0,109.0,11.0,477.1794657099963,,,,,,,,,,,,,,,,,477.1669662099957,477.9852807529969,478.7998226839991,478.7718419189987,,,,,,,,,,,,,,,,,,,,,,,,,,,,,,,,,,,478.7748162499993,478.7998226839991,478.7998226839991,479.3686478469972,g,1.0,0.5552198189980118,,,,,sub-145,1,stroop_test,58.69945499185108,
,,,,110.0,2.0,9.0,,,,,,,,,,,,,gelb,red,r,0.0,b,0.0,0.8262276059977012,,,,,,,,,,9.0,2.0,110.0,8.0,479.3848720189999,,,,,,,,,,,,,,,,,479.36904814399895,480.5831125379991,481.3902664079942,481.3765897189951,,,,,,,,,,,,,,,,,,,,,,,,,,,,,,,,,,,481.3771635289959,481.3902664079942,481.3902664079942,482.2214602399981,b,0.0,0.8262276059977012,,,,,sub-145,1,stroop_test,58.69945499185108,
,,,,111.0,3.0,9.0,,,,,,,,,,,,,blau,blue,b,1.0,r,0.0,1.5513169519981602,,,,,,,,,,9.0,3.0,111.0,6.0,482.2345268309946,,,,,,,,,,,,,,,,,482.22188664799614,483.019804951,483.8264762869949,483.80949844699353,,,,,,,,,,,,,,,,,,,,,,,,,,,,,,,,,,,483.81474258399976,483.8264762869949,483.8264762869949,485.393964719995,r,0.0,1.5513169519981602,,,,,sub-145,1,stroop_test,58.69945499185108,
,,,,112.0,4.0,9.0,,,,,,,,,,,,,rot,red,r,1.0,b,0.0,1.4442129660019418,,,,,,,,,,9.0,4.0,112.0,0.0,485.40928112499387,,,,,,,,,,,,,,,,,485.3947849659962,485.5182621249987,486.3304889359933,486.3117587549932,,,,,,,,,,,,,,,,,,,,,,,,,,,,,,,,,,,486.3169994629934,486.3304889359933,486.3304889359933,487.77882807299466,b,0.0,1.4442129660019418,,,,,sub-145,1,stroop_test,58.69945499185108,
,,,,113.0,5.0,9.0,,,,,,,,,,,,,gelb,yellow,g,1.0,g,1.0,0.8670540140010417,,,,,,,,,,9.0,5.0,113.0,10.0,487.79340959699766,,,,,,,,,,,,,,,,,487.7795591759932,488.5788297199979,489.3826562529939,489.3662964049945,,,,,,,,,,,,,,,,,,,,,,,,,,,,,,,,,,,489.370577665999,489.3826562529939,489.3826562529939,490.2628854879949,g,1.0,0.8670540140010417,,,,,sub-145,1,stroop_test,58.69945499185108,
,,,,114.0,6.0,9.0,,,,,,,,,,,,,rot,red,r,1.0,r,1.0,0.86661477600137,,,,,,,,,,9.0,6.0,114.0,1.0,490.27677655899606,,,,,,,,,,,,,,,,,490.2642644389998,491.4614638179992,492.2760058789936,492.2581394979934,,,,,,,,,,,,,,,,,,,,,,,,,,,,,,,,,,,492.2643640919996,492.2760058789936,492.2760058789936,493.1565718769998,r,1.0,0.86661477600137,,,,,sub-145,1,stroop_test,58.69945499185108,
,,,,115.0,7.0,9.0,,,,,,,,,,,,,blau,yellow,g,0.0,g,1.0,0.8333466080002836,,,,,,,,,,9.0,7.0,115.0,7.0,493.1830279509959,,,,,,,,,,,,,,,,,493.15698789099406,494.3638339769968,495.17744258199673,495.16058102099487,,,,,,,,,,,,,,,,,,,,,,,,,,,,,,,,,,,495.16598082499695,495.17744258199673,495.17744258199673,496.018144706999,g,1.0,0.8333466080002836,,,,,sub-145,1,stroop_test,58.69945499185108,
,,,,116.0,8.0,9.0,,,,,,,,,,,,,rot,blue,b,0.0,b,1.0,1.782179431997065,,,,,,,,,,9.0,8.0,116.0,2.0,496.0313705949957,,,,,,,,,,,,,,,,,496.01873921699735,497.2165128499983,498.0253107019962,498.00871118399664,,,,,,,,,,,,,,,,,,,,,,,,,,,,,,,,,,,498.01247393199446,498.0253107019962,498.0253107019962,499.8145188539929,b,1.0,1.782179431997065,,,,,sub-145,1,stroop_test,58.69945499185108,
,,,,117.0,9.0,9.0,,,,,,,,,,,,,blau,blue,b,1.0,b,1.0,0.8035346499964362,,,,,,,,,,9.0,9.0,117.0,5.0,499.8271753179943,,,,,,,,,,,,,,,,,499.8149478069972,500.1730732999931,500.9783992409939,500.9620769559988,,,,,,,,,,,,,,,,,,,,,,,,,,,,,,,,,,,500.9667804359997,500.9783992409939,500.9783992409939,501.79320970699337,b,1.0,0.8035346499964362,,,,,sub-145,1,stroop_test,58.69945499185108,
,,,,118.0,10.0,9.0,,,,,,,,,,,,,blau,red,r,0.0,r,1.0,0.6687477649975335,,,,,,,,,,9.0,10.0,118.0,4.0,501.8082820299969,,,,,,,,,,,,,,,,,501.7939176239961,503.0015037839985,503.8070095389994,503.7931894739959,,,,,,,,,,,,,,,,,,,,,,,,,,,,,,,,,,,503.7937821099986,503.8070095389994,503.8070095389994,504.48375655599375,r,1.0,0.6687477649975335,,,,,sub-145,1,stroop_test,58.69945499185108,
,,,,119.0,11.0,9.0,,,,,,,,,,,,,gelb,blue,b,0.0,b,1.0,0.7486047700003837,,,,,,,,,,9.0,11.0,119.0,9.0,504.49729646499327,,,,,,,,,,,,,,,,,504.4841758509938,505.7013205179974,506.50902451,506.4911645489992,,,,,,,,,,,,,,,,,,,,,,,,,,,,,,,,,,,506.4953446099971,506.50902451,506.50902451,507.2713600930001,b,1.0,0.7486047700003837,,,,,sub-145,1,stroop_test,58.69945499185108,
,,,,,,,,,,,,,,,,,,,,,,,,,,,,,,,,,,,,,,,,,,,,,,,,,,,,,,,,,,,,,,,,,,,,,,,,,,,,,,,,,,,,,,,,,,,,,,,,,,,,,,507.2716115919975,507.2880397509944,512.2793585389954,sub-145,1,stroop_test,58.69945499185108,
