wordCTK,colorCTK,corrAnsCTK,congruentCTK,thisN,thisTrialN,thisRepN,keyResp_CTK.keys,keyResp_CTK.corr,keyResp_CTK.rt,keyResp_CTK.duration,wordPractice,colorPractice,corrAnsPractice,congruentPractice,respPractice.keys,respPractice.corr,respPractice.rt,respPractice.duration,word,color,corrAns,congruent,keyResp_test_run.keys,keyResp_test_run.corr,keyResp_test_run.rt,keyResp_test_run.duration,trials_CTK.thisRepN,trials_CTK.thisTrialN,trials_CTK.thisN,trials_CTK.thisIndex,trials_practice.thisRepN,trials_practice.thisTrialN,trials_practice.thisN,trials_practice.thisIndex,trials_test.thisRepN,trials_test.thisTrialN,trials_test.thisN,trials_test.thisIndex,thisRow.t,notes,instruction.started,instr_text.started,instr_image.started,instr_resp.started,instruction.stopped,instr_resp.keys,instr_resp.rt,instr_resp.duration,instr_color_to_key.started,instr_ctk.started,resp_ctk.started,instr_color_to_key.stopped,resp_ctk.keys,resp_ctk.rt,resp_ctk.duration,ITI.started,fixcross.started,fixcross.stopped,ITI.stopped,color_to_key_run.started,stimulus_CTK.started,keyResp_CTK.started,color_to_key_run.stopped,trials_CTK.keyResp_CTK.keys,trials_CTK.keyResp_CTK.corr,trials_CTK.keyResp_CTK.rt,trials_CTK.keyResp_CTK.duration,instr_practice.started,instr_practice_text.started,instr_practice_resp.started,instr_practice.stopped,instr_practice_resp.keys,instr_practice_resp.rt,instr_practice_resp.duration,practice_run.started,stimulus_practice.started,respPractice.started,practice_run.stopped,trials_practice.respPractice.keys,trials_practice.respPractice.corr,trials_practice.respPractice.rt,trials_practice.respPractice.duration,feedback.started,textFeedback.started,feedback.stopped,textFeedback.stopped,instr_test.started,instr_test_text.started,instr_test_resp.started,instr_test.stopped,instr_test_resp.keys,instr_test_resp.rt,instr_test_resp.duration,test_run.started,stimulus_test_run.started,keyResp_test_run.started,test_run.stopped,trials_test.keyResp_test_run.keys,trials_test.keyResp_test_run.corr,trials_test.keyResp_test_run.rt,trials_test.keyResp_test_run.duration,goodbye.started,textGoodbye.started,textGoodbye.stopped,goodbye.stopped,participant,session,expName,frameRate,Unnamed: 113
,,,,,,,,,,,,,,,,,,,,,,,,,,,,,,,,,,,,,,,,,0.0071049690013751,0.030574187010643,0.030574187010643,0.030574187010643,9.01901294500567,space,8.958022100996459,,,,,,,,,,,,,,,,,,,,,,,,,,,,,,,,,,,,,,,,,,,,,,,,,,,,,,,,,,,sub-109,1,stroop_test,59.92042926162338,
,,,,,,,,,,,,,,,,,,,,,,,,,,,,,,,,,,,,,,,,,,,,,,,,,9.019114060007269,9.030778633008596,9.030778633008596,12.386877572003868,space,3.3537147879978875,,,,,,,,,,,,,,,,,,,,,,,,,,,,,,,,,,,,,,,,,,,,,,,,,,,,sub-109,1,stroop_test,59.92042926162338,
test,red,r,1.0,0.0,0.0,0.0,r,1.0,1.7463787359884009,,,,,,,,,,,,,,,,,,0.0,0.0,0.0,0.0,,,,,,,,,12.41862306901021,,,,,,,,,,,,,,,,,12.406766289001098,12.501367304997984,13.30527377400722,13.285964151000371,13.294280015004915,13.30527377400722,13.30527377400722,15.067903260001913,r,1.0,1.7463787359884009,,,,,,,,,,,,,,,,,,,,,,,,,,,,,,,,,,,,,,,,sub-109,1,stroop_test,59.92042926162338,
test,yellow,g,1.0,1.0,1.0,0.0,g,1.0,1.202972419996513,,,,,,,,,,,,,,,,,,0.0,1.0,1.0,1.0,,,,,,,,,15.084160156999133,,,,,,,,,,,,,,,,,15.068186404998414,15.16706084299949,15.967482268999447,15.951651416005916,15.952066723999453,15.967482268999447,15.967482268999447,17.185904901009053,g,1.0,1.202972419996513,,,,,,,,,,,,,,,,,,,,,,,,,,,,,,,,,,,,,,,,sub-109,1,stroop_test,59.92042926162338,
test,blue,b,1.0,2.0,2.0,0.0,b,1.0,1.0056692249927437,,,,,,,,,,,,,,,,,,0.0,2.0,2.0,2.0,,,,,,,,,17.2010329390032,,,,,,,,,,,,,,,,,17.186172273999546,17.984885162004502,18.78417140300735,18.76835944900813,18.768846129009034,18.78417140300735,18.78417140300735,19.80380267300643,b,1.0,1.0056692249927437,,,,,,,,,,,,,,,,,,,,,,,,,,,,,,,,,,,,,,,,sub-109,1,stroop_test,59.92042926162338,
test,blue,b,1.0,3.0,0.0,1.0,b,1.0,0.8861513519950677,,,,,,,,,,,,,,,,,,1.0,0.0,3.0,2.0,,,,,,,,,19.817842314005247,,,,,,,,,,,,,,,,,19.804127845010957,20.618069905001903,21.41811449600209,21.40220843401039,21.40264256700175,21.41811449600209,21.41811449600209,22.31996719200106,b,1.0,0.8861513519950677,,,,,,,,,,,,,,,,,,,,,,,,,,,,,,,,,,,,,,,,sub-109,1,stroop_test,59.92042926162338,
test,red,r,1.0,4.0,1.0,1.0,r,1.0,1.051675206006621,,,,,,,,,,,,,,,,,,1.0,1.0,4.0,0.0,,,,,,,,,22.3343412969989,,,,,,,,,,,,,,,,,22.32026123600372,23.53449794300832,24.334925162998843,24.319101886008863,24.319583885997417,24.334925162998843,24.334925162998843,25.4036480460054,r,1.0,1.051675206006621,,,,,,,,,,,,,,,,,,,,,,,,,,,,,,,,,,,,,,,,sub-109,1,stroop_test,59.92042926162338,
test,yellow,g,1.0,5.0,2.0,1.0,g,1.0,0.8839257919898955,,,,,,,,,,,,,,,,,,1.0,2.0,5.0,1.0,,,,,,,,,25.418918891009525,,,,,,,,,,,,,,,,,25.403971107996767,25.51969302400539,26.31923897301021,26.304169587005163,26.304947547003398,26.31923897301021,26.31923897301021,27.22036681399913,g,1.0,0.8839257919898955,,,,,,,,,,,,,,,,,,,,,,,,,,,,,,,,,,,,,,,,sub-109,1,stroop_test,59.92042926162338,
test,yellow,g,1.0,6.0,0.0,2.0,g,1.0,0.8466580479871482,,,,,,,,,,,,,,,,,,2.0,0.0,6.0,1.0,,,,,,,,,27.235526363001554,,,,,,,,,,,,,,,,,27.220704788007424,27.335690218009404,28.136292558003333,28.12011045600229,28.120825596997747,28.136292558003333,28.136292558003333,28.987160404998576,g,1.0,0.8466580479871482,,,,,,,,,,,,,,,,,,,,,,,,,,,,,,,,,,,,,,,,sub-109,1,stroop_test,59.92042926162338,
test,red,r,1.0,7.0,1.0,2.0,r,1.0,0.5986554920091294,,,,,,,,,,,,,,,,,,2.0,1.0,7.0,0.0,,,,,,,,,29.001822727004765,,,,,,,,,,,,,,,,,28.987468965002336,29.801829671007,30.60192358199856,30.58635266800411,30.586774385999888,30.60192358199856,30.60192358199856,31.20426731200132,r,1.0,0.5986554920091294,,,,,,,,,,,,,,,,,,,,,,,,,,,,,,,,,,,,,,,,sub-109,1,stroop_test,59.92042926162338,
test,blue,b,1.0,8.0,2.0,2.0,b,1.0,0.5180965890031075,,,,,,,,,,,,,,,,,,2.0,2.0,8.0,2.0,,,,,,,,,31.21929466399888,,,,,,,,,,,,,,,,,31.204607174004195,31.56865307100816,32.36877976699907,32.35308748000534,32.3535764469998,32.36877976699907,32.36877976699907,32.90430711999943,b,1.0,0.5180965890031075,,,,,,,,,,,,,,,,,,,,,,,,,,,,,,,,,,,,,,,,sub-109,1,stroop_test,59.92042926162338,
test,blue,b,1.0,9.0,0.0,3.0,b,1.0,0.4516315950022544,,,,,,,,,,,,,,,,,,3.0,0.0,9.0,2.0,,,,,,,,,32.91930671699811,,,,,,,,,,,,,,,,,32.90463060000911,33.71899104400654,34.51949665200664,34.50284482500865,34.50324768200517,34.51949665200664,34.51949665200664,34.98800073401071,b,1.0,0.4516315950022544,,,,,,,,,,,,,,,,,,,,,,,,,,,,,,,,,,,,,,,,sub-109,1,stroop_test,59.92042926162338,
test,red,r,1.0,10.0,1.0,3.0,g,0.0,0.630604753998341,,,,,,,,,,,,,,,,,,3.0,1.0,10.0,0.0,,,,,,,,,35.002431152010104,,,,,,,,,,,,,,,,,34.98832575501001,35.35408329400525,36.16942619300971,36.15306182199856,36.15346001900616,36.16942619300971,36.16942619300971,36.80446588000632,g,0.0,0.630604753998341,,,,,,,,,,,,,,,,,,,,,,,,,,,,,,,,,,,,,,,,sub-109,1,stroop_test,59.92042926162338,
test,yellow,g,1.0,11.0,2.0,3.0,g,1.0,0.8222312060097465,,,,,,,,,,,,,,,,,,3.0,2.0,11.0,1.0,,,,,,,,,36.81868609500816,,,,,,,,,,,,,,,,,36.80497684600414,38.00341494900931,38.80292907700641,38.78695758500544,38.78744431000087,38.80292907700641,38.80292907700641,39.6375367790024,g,1.0,0.8222312060097465,,,,,,,,,,,,,,,,,,,,,,,,,,,,,,,,,,,,,,,,sub-109,1,stroop_test,59.92042926162338,
,,,,,,,,,,,,,,,,,,,,,,,,,,,,,,,,,,,,,,,,,,,,,,,,,,,,,,,,,,,,,,,,,,,,39.63766202800616,39.6525638000021,39.6525638000021,45.337127103004605,space,5.673057577005238,,,,,,,,,,,,,,,,,,,,,,,,,,,,,,,,,sub-109,1,stroop_test,59.92042926162338,
,,,,0.0,0.0,0.0,,,,,rot,red,r,1.0,r,1.0,1.5294433160015617,,,,,,,,,,,,,,0.0,0.0,0.0,1.0,,,,,45.35974073900434,,,,,,,,,,,,,,,,,45.35224177999771,46.13730456100893,46.93589308099763,46.92052385100396,,,,,,,,,,,,,,,,46.92458497099869,46.93589308099763,46.93589308099763,48.471752690005815,r,1.0,1.5294433160015617,,48.47712773599778,48.48763035300362,49.4874454390083,,,,,,,,,,,,,,,,,,,,,sub-109,1,stroop_test,59.92042926162338,
,,,,1.0,1.0,0.0,,,,,blau,red,r,0.0,r,1.0,2.172332620000816,,,,,,,,,,,,,,0.0,1.0,1.0,4.0,,,,,49.50331864600594,,,,,,,,,,,,,,,,,49.48783154100238,50.686194802998216,51.48690057400381,51.47114737500669,,,,,,,,,,,,,,,,51.47664870599692,51.48690057400381,51.48690057400381,53.67198680099682,r,1.0,2.172332620000816,,53.6724177240103,53.68698046299687,54.67094460201042,54.6872969679971,,,,,,,,,,,,,,,,,,,,sub-109,1,stroop_test,59.92042926162338,
,,,,2.0,2.0,0.0,,,,,gelb,blue,b,0.0,b,1.0,1.077459441992687,,,,,,,,,,,,,,0.0,2.0,2.0,9.0,,,,,54.6872969679971,,,,,,,,,,,,,,,,,54.67122294200817,55.48714494799788,56.287013784996816,56.27125772299769,,,,,,,,,,,,,,,,56.274040828997386,56.287013784996816,56.287013784996816,57.3726069490076,b,1.0,1.077459441992687,,57.37308119400405,57.38700316500035,58.37239038400003,58.38840692699887,,,,,,,,,,,,,,,,,,,,sub-109,1,stroop_test,59.92042926162338,
,,,,3.0,3.0,0.0,,,,,blau,blue,b,1.0,b,1.0,0.474457838005037,,,,,,,,,,,,,,0.0,3.0,3.0,6.0,,,,,58.38840692699887,,,,,,,,,,,,,,,,,58.3728511500085,58.47183342200879,59.27019578800537,59.255774531004135,,,,,,,,,,,,,,,,59.258798167007626,59.27019578800537,59.27019578800537,59.75495559700357,b,1.0,0.474457838005037,,59.75537482299842,59.77071874799731,60.75597805400321,60.77182750799693,,,,,,,,,,,,,,,,,,,,sub-109,1,stroop_test,59.92042926162338,
,,,,4.0,4.0,0.0,,,,,gelb,yellow,g,1.0,g,1.0,0.5355522809986724,,,,,,,,,,,,,,0.0,4.0,4.0,10.0,,,,,60.77182750799693,,,,,,,,,,,,,,,,,60.75644000200555,61.10425102100999,61.90405332400405,61.88838084800227,,,,,,,,,,,,,,,,61.89117790000455,61.90405332400405,61.90405332400405,62.45594800400431,g,1.0,0.5355522809986724,,62.45642200100701,62.47066472300503,63.45631884899922,63.47194229600427,,,,,,,,,,,,,,,,,,,,sub-109,1,stroop_test,59.92042926162338,
,,,,5.0,5.0,0.0,,,,,blau,yellow,g,0.0,g,1.0,1.2275628929928644,,,,,,,,,,,,,,0.0,5.0,5.0,7.0,,,,,63.47194229600427,,,,,,,,,,,,,,,,,63.45678462600336,64.25578170899826,65.05498364201048,65.03971762199944,,,,,,,,,,,,,,,,65.04409820100409,65.05498364201048,65.05498364201048,66.29050834100053,g,1.0,1.2275628929928644,,66.29129126000043,66.30433017700852,67.28877467100392,67.30497231699701,,,,,,,,,,,,,,,,,,,,sub-109,1,stroop_test,59.92042926162338,
,,,,6.0,6.0,0.0,,,,,rot,red,r,1.0,r,1.0,0.4786867990042083,,,,,,,,,,,,,,0.0,6.0,6.0,0.0,,,,,67.30497231699701,,,,,,,,,,,,,,,,,67.28908416100603,67.4046118910046,68.20393177500227,68.18801172899839,,,,,,,,,,,,,,,,68.19098884701089,68.20393177500227,68.20393177500227,68.68978443600645,r,1.0,0.4786867990042083,,68.69039496401092,68.70457206699939,69.68850979600393,69.70472603000235,,,,,,,,,,,,,,,,,,,,sub-109,1,stroop_test,59.92042926162338,
,,,,7.0,7.0,0.0,,,,,gelb,yellow,g,1.0,g,1.0,0.6980895479937317,,,,,,,,,,,,,,0.0,7.0,7.0,11.0,,,,,69.70472603000235,,,,,,,,,,,,,,,,,69.68883636900864,70.05520870200417,70.85457343200687,70.8386498769978,,,,,,,,,,,,,,,,70.84101764801017,70.85457343200687,70.85457343200687,71.55709845200181,g,1.0,0.6980895479937317,,71.55754218700167,71.57131186001061,72.55567087999952,72.57183229300426,,,,,,,,,,,,,,,,,,,,sub-109,1,stroop_test,59.92042926162338,
,,,,8.0,8.0,0.0,,,,,gelb,red,r,0.0,r,1.0,0.8167337829945609,,,,,,,,,,,,,,0.0,8.0,8.0,8.0,,,,,72.57183229300426,,,,,,,,,,,,,,,,,72.55598603699764,73.77311347500654,74.57195004999812,74.55607721999695,,,,,,,,,,,,,,,,74.556552827009,74.57195004999812,74.57195004999812,75.39095494900539,r,1.0,0.8167337829945609,,75.39138215500861,75.40512519799813,76.3889440500061,76.40533063199837,,,,,,,,,,,,,,,,,,,,sub-109,1,stroop_test,59.92042926162338,
,,,,9.0,9.0,0.0,,,,,rot,yellow,g,0.0,r,0.0,1.336667154013412,,,,,,,,,,,,,,0.0,9.0,9.0,3.0,,,,,76.40533063199837,,,,,,,,,,,,,,,,,76.38925110299897,77.60599136000383,78.4050913030078,78.3896887160081,,,,,,,,,,,,,,,,78.39217684400501,78.4050913030078,78.4050913030078,79.75688458200602,r,0.0,1.336667154013412,,79.76141536700015,79.77279509800428,80.75692091800738,80.7722582090064,,,,,,,,,,,,,,,,,,,,sub-109,1,stroop_test,59.92042926162338,
,,,,10.0,10.0,0.0,,,,,rot,blue,b,0.0,b,1.0,0.6917889269971056,,,,,,,,,,,,,,0.0,10.0,10.0,2.0,,,,,80.7722582090064,,,,,,,,,,,,,,,,,80.75723666600243,81.10626546099957,81.90549249500327,81.89002319300198,,,,,,,,,,,,,,,,81.89049667600193,81.90549249500327,81.90549249500327,82.60763528900861,b,1.0,0.6917889269971056,,82.61228169599781,82.6229653640039,83.60687852899719,83.6226944890077,,,,,,,,,,,,,,,,,,,,sub-109,1,stroop_test,59.92042926162338,
,,,,11.0,11.0,0.0,,,,,blau,blue,b,1.0,b,1.0,0.9727760480018331,,,,,,,,,,,,,,0.0,11.0,11.0,5.0,,,,,83.6226944890077,,,,,,,,,,,,,,,,,83.60729705700942,84.8224797520088,85.62301734200446,85.60643775000062,,,,,,,,,,,,,,,,85.60897050300264,85.62301734200446,85.62301734200446,86.60725373199966,b,1.0,0.9727760480018331,,86.60767452100117,86.62283719200059,87.60795514199708,87.62404149500071,,,,,,,,,,,,,,,,,,,,sub-109,1,stroop_test,59.92042926162338,
,,,,12.0,0.0,1.0,,,,,rot,blue,b,0.0,b,1.0,0.7678374519891804,,,,,,,,,,,,,,1.0,0.0,12.0,2.0,,,,,87.62404149500071,,,,,,,,,,,,,,,,,87.60841688800429,88.80741802899865,89.62268210000184,89.60730157000944,,,,,,,,,,,,,,,,89.61003040299693,89.62268210000184,89.62268210000184,90.40763700701063,b,1.0,0.7678374519891804,,90.40823053701024,90.42276805800792,91.407356472002,91.42323144699913,,,,,,,,,,,,,,,,,,,,sub-109,1,stroop_test,59.92042926162338,
,,,,13.0,1.0,1.0,,,,,rot,red,r,1.0,r,1.0,1.185251889997744,,,,,,,,,,,,,,1.0,1.0,13.0,1.0,,,,,91.42323144699913,,,,,,,,,,,,,,,,,91.4077511790092,91.7561439389974,92.55662021500756,92.540705352003,,,,,,,,,,,,,,,,92.54119107199948,92.55662021500756,92.55662021500756,93.75691470000312,r,1.0,1.185251889997744,,93.75747478000994,93.77299100600068,94.75760805100435,94.77313865700852,,,,,,,,,,,,,,,,,,,,sub-109,1,stroop_test,59.92042926162338,
,,,,14.0,2.0,1.0,,,,,blau,yellow,g,0.0,g,1.0,0.8753570130065782,,,,,,,,,,,,,,1.0,2.0,14.0,7.0,,,,,94.77313865700852,,,,,,,,,,,,,,,,,94.75794880100877,95.95644743699812,96.75630959900444,96.74038286300492,,,,,,,,,,,,,,,,96.7436860230082,96.75630959900444,96.75630959900444,97.6431017290015,g,1.0,0.8753570130065782,,97.6436184260092,97.65661133899994,98.64079504800613,98.65715632100182,,,,,,,,,,,,,,,,,,,,sub-109,1,stroop_test,59.92042926162338,
,,,,15.0,3.0,1.0,,,,,blau,blue,b,1.0,b,1.0,1.1134795149991987,,,,,,,,,,,,,,1.0,3.0,15.0,5.0,,,,,98.65715632100182,,,,,,,,,,,,,,,,,98.6412641240022,99.0070566380018,99.80692596599692,99.79116430900469,,,,,,,,,,,,,,,,99.79163297900232,99.80692596599692,99.80692596599692,100.92527831300686,b,1.0,1.1134795149991987,,100.92590635101078,100.93993967500865,101.924521731009,101.94025274700834,,,,,,,,,,,,,,,,,,,,sub-109,1,stroop_test,59.92042926162338,
,,,,16.0,4.0,1.0,,,,,blau,red,r,0.0,r,1.0,1.3511266529967545,,,,,,,,,,,,,,1.0,4.0,16.0,4.0,,,,,101.94025274700834,,,,,,,,,,,,,,,,,101.92487623399938,102.04008613601036,102.84015237700078,102.82432851100748,,,,,,,,,,,,,,,,102.82484361100067,102.84015237700078,102.84015237700078,104.20882176500164,r,1.0,1.3511266529967545,,104.20936253700349,104.22421224499703,105.20803991700814,105.22390456400171,,,,,,,,,,,,,,,,,,,,sub-109,1,stroop_test,59.92042926162338,
,,,,17.0,5.0,1.0,,,,,gelb,yellow,g,1.0,g,1.0,0.9979328839981464,,,,,,,,,,,,,,1.0,5.0,17.0,10.0,,,,,105.22390456400171,,,,,,,,,,,,,,,,,105.20835394400638,106.02448522399936,106.82399602601072,106.80854809700396,,,,,,,,,,,,,,,,106.81147792701086,106.82399602601072,106.82399602601072,107.82928359000653,g,1.0,0.9979328839981464,,107.82987741001124,107.84044857299888,108.82472885699826,108.84067261000746,,,,,,,,,,,,,,,,,,,,sub-109,1,stroop_test,59.92042926162338,
,,,,18.0,6.0,1.0,,,,,rot,red,r,1.0,r,1.0,1.380679160996806,,,,,,,,,,,,,,1.0,6.0,18.0,0.0,,,,,108.84067261000746,,,,,,,,,,,,,,,,,108.8250508850033,109.19071583800542,109.99074347500571,109.97537670300515,,,,,,,,,,,,,,,,109.97815091200756,109.99074347500571,109.99074347500571,111.37617918101024,r,1.0,1.380679160996806,,111.3769125460094,111.39071557600982,112.37681383700692,112.391359250003,,,,,,,,,,,,,,,,,,,,sub-109,1,stroop_test,59.92042926162338,
,,,,19.0,7.0,1.0,,,,,gelb,blue,b,0.0,b,1.0,1.2723101939918706,,,,,,,,,,,,,,1.0,7.0,19.0,9.0,,,,,112.391359250003,,,,,,,,,,,,,,,,,112.37731280000298,112.49144828499992,113.29154728200228,113.27664920600364,,,,,,,,,,,,,,,,113.2815124769986,113.29154728200228,113.29154728200228,114.57579233100114,b,1.0,1.2723101939918706,,114.57621571300842,114.5907407390041,115.57637362901004,115.59187142300652,,,,,,,,,,,,,,,,,,,,sub-109,1,stroop_test,59.92042926162338,
,,,,20.0,8.0,1.0,,,,,blau,blue,b,1.0,b,1.0,0.6139332430029754,,,,,,,,,,,,,,1.0,8.0,20.0,6.0,,,,,115.59187142300652,,,,,,,,,,,,,,,,,115.57685456000036,116.79164366300392,117.5912514149968,117.57546465900668,,,,,,,,,,,,,,,,117.57794749100869,117.5912514149968,117.5912514149968,118.21008643000096,b,1.0,0.6139332430029754,,118.21080856100888,118.2239540770097,119.20926162600516,119.22462530199846,,,,,,,,,,,,,,,,,,,,sub-109,1,stroop_test,59.92042926162338,
,,,,21.0,9.0,1.0,,,,,gelb,red,r,0.0,r,1.0,1.0665724230057094,,,,,,,,,,,,,,1.0,9.0,21.0,8.0,,,,,119.22462530199846,,,,,,,,,,,,,,,,,119.20962277700892,119.32531682901026,120.12543729200844,120.11048251300237,,,,,,,,,,,,,,,,120.11503221100428,120.12543729200844,120.12543729200844,121.1945401539997,r,1.0,1.0665724230057094,,121.19498281400593,121.20858508101082,122.19262060400796,122.20832181700098,,,,,,,,,,,,,,,,,,,,sub-109,1,stroop_test,59.92042926162338,
,,,,22.0,10.0,1.0,,,,,rot,yellow,g,0.0,g,1.0,0.8743276449968107,,,,,,,,,,,,,,1.0,10.0,22.0,3.0,,,,,122.20832181700098,,,,,,,,,,,,,,,,,122.1929399720102,123.40840962200308,124.2080060360022,124.1936558610032,,,,,,,,,,,,,,,,124.19767000600405,124.2080060360022,124.2080060360022,125.09306964999996,g,1.0,0.8743276449968107,,125.09354630600136,125.10844098200324,126.09306318601011,126.10842872300418,,,,,,,,,,,,,,,,,,,,sub-109,1,stroop_test,59.92042926162338,
,,,,23.0,11.0,1.0,,,,,gelb,yellow,g,1.0,g,1.0,0.8836561350035481,,,,,,,,,,,,,,1.0,11.0,23.0,11.0,,,,,126.10842872300418,,,,,,,,,,,,,,,,,126.09345899600883,126.45847494799818,127.25900025801091,127.24188949700329,,,,,,,,,,,,,,,,127.24425920999784,127.25900025801091,127.25900025801091,128.16000039700884,g,1.0,0.8836561350035481,,128.16085815899714,128.17534965000232,129.1607215749973,129.17655847599963,,,,,,,,,,,,,,,,,,,,sub-109,1,stroop_test,59.92042926162338,
,,,,,,,,,,,,,,,,,,,,,,,,,,,,,,,,,,,,,,,,,,,,,,,,,,,,,,,,,,,,,,,,,,,,,,,,,,,,,,,,,,,,,,,129.16092878300697,129.17655847599963,129.17655847599963,131.57896553599858,space,2.3926035100012086,,,,,,,,,,,,,,sub-109,1,stroop_test,59.92042926162338,
,,,,0.0,0.0,0.0,,,,,,,,,,,,,blau,yellow,g,0.0,g,1.0,0.8475171979953302,,,,,,,,,,0.0,0.0,0.0,7.0,131.60003176500322,,,,,,,,,,,,,,,,,131.5919442250015,132.79265200800728,133.5927445460111,133.5762483610015,,,,,,,,,,,,,,,,,,,,,,,,,,,,,,,,,,,133.5786119300028,133.5927445460111,133.5927445460111,134.4476537050068,g,1.0,0.8475171979953302,,,,,,sub-109,1,stroop_test,59.92042926162338,
,,,,1.0,1.0,0.0,,,,,,,,,,,,,gelb,yellow,g,1.0,g,1.0,0.516293343011057,,,,,,,,,,0.0,1.0,1.0,10.0,134.45872655100538,,,,,,,,,,,,,,,,,134.4483615640056,135.65945252700476,136.45941848099756,136.44376907100377,,,,,,,,,,,,,,,,,,,,,,,,,,,,,,,,,,,136.4466206930083,136.45941848099756,136.45941848099756,136.98097460099962,g,1.0,0.516293343011057,,,,,,sub-109,1,stroop_test,59.92042926162338,
,,,,2.0,2.0,0.0,,,,,,,,,,,,,blau,blue,b,1.0,b,1.0,0.3891214449977269,,,,,,,,,,0.0,2.0,2.0,5.0,136.99310422199778,,,,,,,,,,,,,,,,,136.98153408699727,137.79275577599765,138.593056867001,138.5774580060097,,,,,,,,,,,,,,,,,,,,,,,,,,,,,,,,,,,138.58014175400604,138.593056867001,138.593056867001,138.99495193900657,b,1.0,0.3891214449977269,,,,,,sub-109,1,stroop_test,59.92042926162338,
,,,,3.0,3.0,0.0,,,,,,,,,,,,,gelb,blue,b,0.0,b,1.0,0.4359161369939102,,,,,,,,,,0.0,3.0,3.0,9.0,139.00996946101077,,,,,,,,,,,,,,,,,138.99524676500005,139.11005221900996,139.90933288600354,139.89379537300556,,,,,,,,,,,,,,,,,,,,,,,,,,,,,,,,,,,139.89685380000446,139.90933288600354,139.90933288600354,140.3613353200053,b,1.0,0.4359161369939102,,,,,,sub-109,1,stroop_test,59.92042926162338,
,,,,4.0,4.0,0.0,,,,,,,,,,,,,rot,red,r,1.0,r,1.0,0.3887409729941282,,,,,,,,,,0.0,4.0,4.0,1.0,140.37704380700598,,,,,,,,,,,,,,,,,140.3617080450058,141.16047282901127,141.95963382400805,141.94393351199687,,,,,,,,,,,,,,,,,,,,,,,,,,,,,,,,,,,141.94630736700492,141.95963382400805,141.95963382400805,142.36180641500687,r,1.0,0.3887409729941282,,,,,,sub-109,1,stroop_test,59.92042926162338,
,,,,5.0,5.0,0.0,,,,,,,,,,,,,gelb,red,r,0.0,r,1.0,0.4700339889968745,,,,,,,,,,0.0,5.0,5.0,8.0,142.3767784200027,,,,,,,,,,,,,,,,,142.36213772700285,143.1779679270112,143.99309903899848,143.97728261200243,,,,,,,,,,,,,,,,,,,,,,,,,,,,,,,,,,,143.97974935700768,143.99309903899848,143.99309903899848,144.47862276100204,r,1.0,0.4700339889968745,,,,,,sub-109,1,stroop_test,59.92042926162338,
,,,,6.0,6.0,0.0,,,,,,,,,,,,,rot,blue,b,0.0,b,1.0,0.575890280000749,,,,,,,,,,0.0,6.0,6.0,2.0,144.49291685300705,,,,,,,,,,,,,,,,,144.47893443799694,145.69442933800747,146.49338950500533,146.47799767200195,,,,,,,,,,,,,,,,,,,,,,,,,,,,,,,,,,,146.48108483300894,146.49338950500533,146.49338950500533,147.07835192199855,b,1.0,0.575890280000749,,,,,,sub-109,1,stroop_test,59.92042926162338,
,,,,7.0,7.0,0.0,,,,,,,,,,,,,blau,blue,b,1.0,b,1.0,0.4752217719942564,,,,,,,,,,0.0,7.0,7.0,6.0,147.09353064600143,,,,,,,,,,,,,,,,,147.0786647729983,147.19336944101087,147.99333045100502,147.97775354600162,,,,,,,,,,,,,,,,,,,,,,,,,,,,,,,,,,,147.9807847810007,147.99333045100502,147.99333045100502,148.4795776270039,b,1.0,0.4752217719942564,,,,,,sub-109,1,stroop_test,59.92042926162338,
,,,,8.0,8.0,0.0,,,,,,,,,,,,,rot,red,r,1.0,r,1.0,0.6787394769926323,,,,,,,,,,0.0,8.0,8.0,0.0,148.49387060500158,,,,,,,,,,,,,,,,,148.47986850600864,148.84356351599854,149.6440056029969,149.62758637600928,,,,,,,,,,,,,,,,,,,,,,,,,,,,,,,,,,,149.6297828329989,149.6440056029969,149.6440056029969,150.3289294069982,r,1.0,0.6787394769926323,,,,,,sub-109,1,stroop_test,59.92042926162338,
,,,,9.0,9.0,0.0,,,,,,,,,,,,,gelb,yellow,g,1.0,g,1.0,0.5833571149996715,,,,,,,,,,0.0,9.0,9.0,11.0,150.3439881689992,,,,,,,,,,,,,,,,,150.3294045680086,150.6934720170102,151.49454470899946,151.47906958199746,,,,,,,,,,,,,,,,,,,,,,,,,,,,,,,,,,,151.48350863000087,151.49454470899946,151.49454470899946,152.09494932400412,g,1.0,0.5833571149996715,,,,,,sub-109,1,stroop_test,59.92042926162338,
,,,,10.0,10.0,0.0,,,,,,,,,,,,,rot,yellow,g,0.0,g,1.0,0.4489521300129127,,,,,,,,,,0.0,10.0,10.0,3.0,152.11075038299896,,,,,,,,,,,,,,,,,152.09538922000502,152.46079258600366,153.26238734900835,153.24582233600086,,,,,,,,,,,,,,,,,,,,,,,,,,,,,,,,,,,153.2501095339976,153.26238734900835,153.26238734900835,153.72839178401046,g,1.0,0.4489521300129127,,,,,,sub-109,1,stroop_test,59.92042926162338,
,,,,11.0,11.0,0.0,,,,,,,,,,,,,blau,red,r,0.0,r,1.0,0.7076494549983181,,,,,,,,,,0.0,11.0,11.0,4.0,153.74392684899794,,,,,,,,,,,,,,,,,153.72875987400766,154.94460315300967,155.7443002640066,155.72855808600434,,,,,,,,,,,,,,,,,,,,,,,,,,,,,,,,,,,155.73125588000403,155.7443002640066,155.7443002640066,156.46298576200206,r,1.0,0.7076494549983181,,,,,,sub-109,1,stroop_test,59.92042926162338,
,,,,12.0,0.0,1.0,,,,,,,,,,,,,blau,blue,b,1.0,b,1.0,0.5070486559998244,,,,,,,,,,1.0,0.0,12.0,5.0,156.47723862100975,,,,,,,,,,,,,,,,,156.4634723890049,157.6775908819982,158.47677424900758,158.4609957680077,,,,,,,,,,,,,,,,,,,,,,,,,,,,,,,,,,,158.46140352801012,158.47677424900758,158.47677424900758,158.99527369400312,b,1.0,0.5070486559998244,,,,,,sub-109,1,stroop_test,59.92042926162338,
,,,,13.0,1.0,1.0,,,,,,,,,,,,,gelb,yellow,g,1.0,g,1.0,0.6378434560028836,,,,,,,,,,1.0,1.0,13.0,11.0,159.01083347501117,,,,,,,,,,,,,,,,,158.99564876200748,159.8110397940036,160.61083149100887,160.59534410400374,,,,,,,,,,,,,,,,,,,,,,,,,,,,,,,,,,,160.59786233500927,160.61083149100887,160.61083149100887,161.26216705000843,g,1.0,0.6378434560028836,,,,,,sub-109,1,stroop_test,59.92042926162338,
,,,,14.0,2.0,1.0,,,,,,,,,,,,,gelb,red,r,0.0,r,1.0,0.95184428000357,,,,,,,,,,1.0,2.0,14.0,8.0,161.27824246999808,,,,,,,,,,,,,,,,,161.26253550700494,162.46123662299942,163.26134675300273,163.24490971199702,,,,,,,,,,,,,,,,,,,,,,,,,,,,,,,,,,,163.24544516000606,163.26134675300273,163.26134675300273,164.22954805000336,r,1.0,0.95184428000357,,,,,,sub-109,1,stroop_test,59.92042926162338,
,,,,15.0,3.0,1.0,,,,,,,,,,,,,blau,red,r,0.0,r,1.0,0.8157627369946567,,,,,,,,,,1.0,3.0,15.0,4.0,164.24444955500076,,,,,,,,,,,,,,,,,164.22991814100533,164.3448941329989,165.1449827900069,165.12893672799692,,,,,,,,,,,,,,,,,,,,,,,,,,,,,,,,,,,165.13195143500343,165.1449827900069,165.1449827900069,165.96392146201106,r,1.0,0.8157627369946567,,,,,,sub-109,1,stroop_test,59.92042926162338,
,,,,16.0,4.0,1.0,,,,,,,,,,,,,rot,red,r,1.0,r,1.0,0.4947642529878067,,,,,,,,,,1.0,4.0,16.0,0.0,165.97815526800696,,,,,,,,,,,,,,,,,165.96440461200837,166.7791563369974,167.57852362000267,167.56225732300663,,,,,,,,,,,,,,,,,,,,,,,,,,,,,,,,,,,167.5649518900027,167.57852362000267,167.57852362000267,168.08052039099857,r,1.0,0.4947642529878067,,,,,,sub-109,1,stroop_test,59.92042926162338,
,,,,17.0,5.0,1.0,,,,,,,,,,,,,blau,blue,b,1.0,b,1.0,0.503822639991995,,,,,,,,,,1.0,5.0,17.0,6.0,168.09433065300982,,,,,,,,,,,,,,,,,168.08105295601126,168.19472034400678,168.9953888040036,168.97898187000828,,,,,,,,,,,,,,,,,,,,,,,,,,,,,,,,,,,168.9812707079982,168.9953888040036,168.9953888040036,169.51307783099764,b,1.0,0.503822639991995,,,,,,sub-109,1,stroop_test,59.92042926162338,
,,,,18.0,6.0,1.0,,,,,,,,,,,,,blau,yellow,g,0.0,g,1.0,0.7696387390024029,,,,,,,,,,1.0,6.0,18.0,7.0,169.52772175399878,,,,,,,,,,,,,,,,,169.51344649700332,170.32822060400213,171.1283174100099,171.11280845300644,,,,,,,,,,,,,,,,,,,,,,,,,,,,,,,,,,,171.11331222399895,171.1283174100099,171.1283174100099,171.9129657290032,g,1.0,0.7696387390024029,,,,,,sub-109,1,stroop_test,59.92042926162338,
,,,,19.0,7.0,1.0,,,,,,,,,,,,,rot,yellow,g,0.0,g,1.0,0.8395750139898155,,,,,,,,,,1.0,7.0,19.0,3.0,171.92836104200978,,,,,,,,,,,,,,,,,171.91327344199817,172.71262544899946,173.51178435199836,173.49617118900642,,,,,,,,,,,,,,,,,,,,,,,,,,,,,,,,,,,173.49880459200358,173.51178435199836,173.51178435199836,174.36300299900176,g,1.0,0.8395750139898155,,,,,,sub-109,1,stroop_test,59.92042926162338,
,,,,20.0,8.0,1.0,,,,,,,,,,,,,rot,blue,b,0.0,b,1.0,1.3415419119992291,,,,,,,,,,1.0,8.0,20.0,2.0,174.37853651700425,,,,,,,,,,,,,,,,,174.36329615900468,174.4784981390112,175.2793890190078,175.26307955000084,,,,,,,,,,,,,,,,,,,,,,,,,,,,,,,,,,,175.26355325699842,175.2793890190078,175.2793890190078,176.6309247140016,b,1.0,1.3415419119992291,,,,,,sub-109,1,stroop_test,59.92042926162338,
,,,,21.0,9.0,1.0,,,,,,,,,,,,,rot,red,r,1.0,r,1.0,1.1925310920050831,,,,,,,,,,1.0,9.0,21.0,1.0,176.64599205400737,,,,,,,,,,,,,,,,,176.63129467400722,177.4468398309982,178.26210725899728,178.2461813740083,,,,,,,,,,,,,,,,,,,,,,,,,,,,,,,,,,,178.24664687200857,178.26210725899728,178.26210725899728,179.4642260170076,r,1.0,1.1925310920050831,,,,,,sub-109,1,stroop_test,59.92042926162338,
,,,,22.0,10.0,1.0,,,,,,,,,,,,,gelb,yellow,g,1.0,g,1.0,0.7454906460043276,,,,,,,,,,1.0,10.0,22.0,10.0,179.47887125700072,,,,,,,,,,,,,,,,,179.46460880000086,180.6795074230031,181.47929908300284,181.46337084499828,,,,,,,,,,,,,,,,,,,,,,,,,,,,,,,,,,,181.46592282500933,181.47929908300284,181.47929908300284,182.2310818400001,g,1.0,0.7454906460043276,,,,,,sub-109,1,stroop_test,59.92042926162338,
,,,,23.0,11.0,1.0,,,,,,,,,,,,,gelb,blue,b,0.0,b,1.0,1.755271788002574,,,,,,,,,,1.0,11.0,23.0,9.0,182.2464267680043,,,,,,,,,,,,,,,,,182.23152321900125,182.59632959100415,183.39650430800972,183.3798471629998,,,,,,,,,,,,,,,,,,,,,,,,,,,,,,,,,,,183.3802641229995,183.39650430800972,183.39650430800972,185.1637387750088,b,1.0,1.755271788002574,,,,,,sub-109,1,stroop_test,59.92042926162338,
,,,,24.0,0.0,2.0,,,,,,,,,,,,,blau,red,r,0.0,r,1.0,0.9513070359971608,,,,,,,,,,2.0,0.0,24.0,4.0,185.17941466100456,,,,,,,,,,,,,,,,,185.16403090499807,185.2622311630112,186.0627830010053,186.046547912003,,,,,,,,,,,,,,,,,,,,,,,,,,,,,,,,,,,186.0491048080003,186.0627830010053,186.0627830010053,187.031123423003,r,1.0,0.9513070359971608,,,,,,sub-109,1,stroop_test,59.92042926162338,
,,,,25.0,1.0,2.0,,,,,,,,,,,,,blau,blue,b,1.0,b,1.0,0.7567193919967394,,,,,,,,,,2.0,1.0,25.0,6.0,187.0464015680045,,,,,,,,,,,,,,,,,187.03141593500916,187.39641981299792,188.1955882150069,188.179643659998,,,,,,,,,,,,,,,,,,,,,,,,,,,,,,,,,,,188.1800279480085,188.1955882150069,188.1955882150069,188.9646683410101,b,1.0,0.7567193919967394,,,,,,sub-109,1,stroop_test,59.92042926162338,
,,,,26.0,2.0,2.0,,,,,,,,,,,,,gelb,blue,b,0.0,b,1.0,0.5838425809924956,,,,,,,,,,2.0,2.0,26.0,9.0,188.97960338000848,,,,,,,,,,,,,,,,,188.9650348610012,189.0799946760089,189.8800024969969,189.8634627790016,,,,,,,,,,,,,,,,,,,,,,,,,,,,,,,,,,,189.866602797003,189.8800024969969,189.8800024969969,190.48121918700053,b,1.0,0.5838425809924956,,,,,,sub-109,1,stroop_test,59.92042926162338,
,,,,27.0,3.0,2.0,,,,,,,,,,,,,rot,blue,b,0.0,b,1.0,0.4919878439977765,,,,,,,,,,2.0,3.0,27.0,2.0,190.4964809360099,,,,,,,,,,,,,,,,,190.48162588600823,191.697336489,192.49633940700733,192.4804692510079,,,,,,,,,,,,,,,,,,,,,,,,,,,,,,,,,,,192.4829087820108,192.49633940700733,192.49633940700733,192.99805166501028,b,1.0,0.4919878439977765,,,,,,sub-109,1,stroop_test,59.92042926162338,
,,,,28.0,4.0,2.0,,,,,,,,,,,,,blau,yellow,g,0.0,g,1.0,0.8179384160030168,,,,,,,,,,2.0,4.0,28.0,7.0,193.01362543500727,,,,,,,,,,,,,,,,,192.998347834,193.1131443170016,193.9145591139968,193.8982539240096,,,,,,,,,,,,,,,,,,,,,,,,,,,,,,,,,,,193.9026892020047,193.9145591139968,193.9145591139968,194.7480055890046,g,1.0,0.8179384160030168,,,,,,sub-109,1,stroop_test,59.92042926162338,
,,,,29.0,5.0,2.0,,,,,,,,,,,,,gelb,yellow,g,1.0,g,1.0,1.0886661379918223,,,,,,,,,,2.0,5.0,29.0,10.0,194.76249988500783,,,,,,,,,,,,,,,,,194.74830189200293,194.8471106549987,195.64664914899916,195.63092352500823,,,,,,,,,,,,,,,,,,,,,,,,,,,,,,,,,,,195.6333859099977,195.64664914899916,195.64664914899916,196.74863834500135,g,1.0,1.0886661379918223,,,,,,sub-109,1,stroop_test,59.92042926162338,
,,,,30.0,6.0,2.0,,,,,,,,,,,,,gelb,yellow,g,1.0,g,1.0,0.6384689060068922,,,,,,,,,,2.0,6.0,30.0,11.0,196.76336996200556,,,,,,,,,,,,,,,,,196.7489432750008,197.96441250899807,198.76462070101115,198.7489899490029,,,,,,,,,,,,,,,,,,,,,,,,,,,,,,,,,,,198.74976620399684,198.76462070101115,198.76462070101115,199.4153225170012,g,1.0,0.6384689060068922,,,,,,sub-109,1,stroop_test,59.92042926162338,
,,,,31.0,7.0,2.0,,,,,,,,,,,,,blau,blue,b,1.0,b,1.0,0.7311489140120102,,,,,,,,,,2.0,7.0,31.0,5.0,199.43028026699903,,,,,,,,,,,,,,,,,199.41565056800027,199.78040470700944,200.5805766150006,200.5644059650076,,,,,,,,,,,,,,,,,,,,,,,,,,,,,,,,,,,200.566889558002,200.5805766150006,200.5805766150006,201.31636257799985,b,1.0,0.7311489140120102,,,,,,sub-109,1,stroop_test,59.92042926162338,
,,,,32.0,8.0,2.0,,,,,,,,,,,,,rot,red,r,1.0,r,1.0,0.6918252059986116,,,,,,,,,,2.0,8.0,32.0,1.0,201.33049425100037,,,,,,,,,,,,,,,,,201.31687361800869,202.13121097099796,202.9307402530103,202.91512574000808,,,,,,,,,,,,,,,,,,,,,,,,,,,,,,,,,,,202.91768798200064,202.9307402530103,202.9307402530103,203.6328276080021,r,1.0,0.6918252059986116,,,,,,sub-109,1,stroop_test,59.92042926162338,
,,,,33.0,9.0,2.0,,,,,,,,,,,,,gelb,red,r,0.0,r,1.0,1.821400137007004,,,,,,,,,,2.0,9.0,33.0,8.0,203.6470949820068,,,,,,,,,,,,,,,,,203.63324419000128,204.8471920010052,205.64775319800535,205.6314479360008,,,,,,,,,,,,,,,,,,,,,,,,,,,,,,,,,,,205.63428829800975,205.64775319800535,205.64775319800535,207.48306869200317,r,1.0,1.821400137007004,,,,,,sub-109,1,stroop_test,59.92042926162338,
,,,,34.0,10.0,2.0,,,,,,,,,,,,,rot,yellow,g,0.0,g,1.0,0.8469031620043097,,,,,,,,,,2.0,10.0,34.0,3.0,207.4979093470029,,,,,,,,,,,,,,,,,207.4835066240048,207.59758200400395,208.39794831100156,208.3815423860069,,,,,,,,,,,,,,,,,,,,,,,,,,,,,,,,,,,208.38509036399773,208.39794831100156,208.39794831100156,209.2499624300108,g,1.0,0.8469031620043097,,,,,,sub-109,1,stroop_test,59.92042926162338,
,,,,35.0,11.0,2.0,,,,,,,,,,,,,rot,red,r,1.0,r,1.0,1.05596541299019,,,,,,,,,,2.0,11.0,35.0,0.0,209.264299137998,,,,,,,,,,,,,,,,,209.25048292599968,210.06450486800168,210.86454290400437,210.8488255100092,,,,,,,,,,,,,,,,,,,,,,,,,,,,,,,,,,,210.8494454690081,210.86454290400437,210.86454290400437,211.9339910770068,r,1.0,1.05596541299019,,,,,,sub-109,1,stroop_test,59.92042926162338,
,,,,36.0,0.0,3.0,,,,,,,,,,,,,gelb,yellow,g,1.0,g,1.0,0.9370066419942304,,,,,,,,,,3.0,0.0,36.0,11.0,211.94774314400277,,,,,,,,,,,,,,,,,211.93461837500217,212.7478343000112,213.547659474003,213.5320397500036,,,,,,,,,,,,,,,,,,,,,,,,,,,,,,,,,,,213.5346135020081,213.547659474003,213.547659474003,214.49969290000445,g,1.0,0.9370066419942304,,,,,,sub-109,1,stroop_test,59.92042926162338,
,,,,37.0,1.0,3.0,,,,,,,,,,,,,rot,blue,b,0.0,b,1.0,1.6803823619993636,,,,,,,,,,3.0,1.0,37.0,2.0,214.5148213680077,,,,,,,,,,,,,,,,,214.50006481500168,214.6147314550035,215.414564065999,215.39924450300168,,,,,,,,,,,,,,,,,,,,,,,,,,,,,,,,,,,215.4018364020012,215.414564065999,215.414564065999,217.1005247440044,b,1.0,1.6803823619993636,,,,,,sub-109,1,stroop_test,59.92042926162338,
,,,,38.0,2.0,3.0,,,,,,,,,,,,,rot,red,r,1.0,r,1.0,0.9765502230002312,,,,,,,,,,3.0,2.0,38.0,0.0,217.1143100699992,,,,,,,,,,,,,,,,,217.10083784200836,217.9147666650097,218.7148491830012,218.69878981800863,,,,,,,,,,,,,,,,,,,,,,,,,,,,,,,,,,,218.69929083800525,218.7148491830012,218.7148491830012,219.69999214699783,r,1.0,0.9765502230002312,,,,,,sub-109,1,stroop_test,59.92042926162338,
,,,,39.0,3.0,3.0,,,,,,,,,,,,,blau,yellow,g,0.0,b,0.0,1.1753716039966091,,,,,,,,,,3.0,3.0,39.0,7.0,219.71506723000493,,,,,,,,,,,,,,,,,219.7002886900009,220.06518083300037,220.86497511999917,220.8497544050042,,,,,,,,,,,,,,,,,,,,,,,,,,,,,,,,,,,220.852321192011,220.86497511999917,220.86497511999917,222.0508594760031,b,0.0,1.1753716039966091,,,,,,sub-109,1,stroop_test,59.92042926162338,
,,,,40.0,4.0,3.0,,,,,,,,,,,,,gelb,yellow,g,1.0,g,1.0,1.3273502270021709,,,,,,,,,,3.0,4.0,40.0,10.0,222.06531021800765,,,,,,,,,,,,,,,,,222.0511549820076,223.2651884930092,224.06600577299832,224.04988997400503,,,,,,,,,,,,,,,,,,,,,,,,,,,,,,,,,,,224.0527056380088,224.06600577299832,224.06600577299832,225.4007546970097,g,1.0,1.3273502270021709,,,,,,sub-109,1,stroop_test,59.92042926162338,
,,,,41.0,5.0,3.0,,,,,,,,,,,,,rot,yellow,g,0.0,g,1.0,1.2228043200011598,,,,,,,,,,3.0,5.0,41.0,3.0,225.4158616950008,,,,,,,,,,,,,,,,,225.40127943101103,226.6168530290015,227.41599690901057,227.400066866001,,,,,,,,,,,,,,,,,,,,,,,,,,,,,,,,,,,227.40263371600304,227.41599690901057,227.41599690901057,228.65058247200795,g,1.0,1.2228043200011598,,,,,,sub-109,1,stroop_test,59.92042926162338,
,,,,42.0,6.0,3.0,,,,,,,,,,,,,blau,blue,b,1.0,b,1.0,0.7096921750053298,,,,,,,,,,3.0,6.0,42.0,6.0,228.6651498350111,,,,,,,,,,,,,,,,,228.65090105999843,229.86617805200515,230.6652045200026,230.6503304549988,,,,,,,,,,,,,,,,,,,,,,,,,,,,,,,,,,,230.65343313400808,230.6652045200026,230.6652045200026,231.3866611340054,b,1.0,0.7096921750053298,,,,,,sub-109,1,stroop_test,59.92042926162338,
,,,,43.0,7.0,3.0,,,,,,,,,,,,,gelb,red,r,0.0,r,1.0,0.8200049720035167,,,,,,,,,,3.0,7.0,43.0,8.0,231.39856244600375,,,,,,,,,,,,,,,,,231.387041021997,231.49899816900145,232.3015028660011,232.2843582019996,,,,,,,,,,,,,,,,,,,,,,,,,,,,,,,,,,,232.28874418500345,232.3015028660011,232.3015028660011,233.1338711950084,r,1.0,0.8200049720035167,,,,,,sub-109,1,stroop_test,59.92042926162338,
,,,,44.0,8.0,3.0,,,,,,,,,,,,,blau,red,r,0.0,r,1.0,0.5008103639993351,,,,,,,,,,3.0,8.0,44.0,4.0,233.1496174869972,,,,,,,,,,,,,,,,,233.134173628001,234.3493083850044,235.1497578999988,235.1338052840001,,,,,,,,,,,,,,,,,,,,,,,,,,,,,,,,,,,235.1367138850037,235.1497578999988,235.1497578999988,235.6683619480027,r,1.0,0.5008103639993351,,,,,,sub-109,1,stroop_test,59.92042926162338,
,,,,45.0,9.0,3.0,,,,,,,,,,,,,blau,blue,b,1.0,b,1.0,0.5057645439956104,,,,,,,,,,3.0,9.0,45.0,5.0,235.6829989300022,,,,,,,,,,,,,,,,,235.66872924800555,236.8672795300081,237.6663563780021,237.65064771800823,,,,,,,,,,,,,,,,,,,,,,,,,,,,,,,,,,,237.6511459250032,237.6663563780021,237.6663563780021,238.18432682100683,b,1.0,0.5057645439956104,,,,,,sub-109,1,stroop_test,59.92042926162338,
,,,,46.0,10.0,3.0,,,,,,,,,,,,,rot,red,r,1.0,r,1.0,0.6731513099948643,,,,,,,,,,3.0,10.0,46.0,1.0,238.19928611800424,,,,,,,,,,,,,,,,,238.1846312770067,238.5338664230076,239.33513848800797,239.3183063769975,,,,,,,,,,,,,,,,,,,,,,,,,,,,,,,,,,,239.3227175710053,239.33513848800797,239.33513848800797,240.01787190100003,r,1.0,0.6731513099948643,,,,,,sub-109,1,stroop_test,59.92042926162338,
,,,,47.0,11.0,3.0,,,,,,,,,,,,,gelb,blue,b,0.0,r,0.0,0.736143913003616,,,,,,,,,,3.0,11.0,47.0,9.0,240.03310355600843,,,,,,,,,,,,,,,,,240.0181496470032,240.1332211830013,240.93351193600392,240.9176694010093,,,,,,,,,,,,,,,,,,,,,,,,,,,,,,,,,,,240.92017864400987,240.93351193600392,240.93351193600392,241.68468316900544,r,0.0,0.736143913003616,,,,,,sub-109,1,stroop_test,59.92042926162338,
,,,,48.0,0.0,4.0,,,,,,,,,,,,,blau,blue,b,1.0,b,1.0,0.5502568439987954,,,,,,,,,,4.0,0.0,48.0,5.0,241.70026417600457,,,,,,,,,,,,,,,,,241.6850135870045,242.0338405210059,242.83331571900635,242.81859129600343,,,,,,,,,,,,,,,,,,,,,,,,,,,,,,,,,,,242.8223864610045,242.83331571900635,242.83331571900635,243.3880051950109,b,1.0,0.5502568439987954,,,,,,sub-109,1,stroop_test,59.92042926162338,
,,,,49.0,1.0,4.0,,,,,,,,,,,,,gelb,blue,b,0.0,b,1.0,0.3618268760037608,,,,,,,,,,4.0,1.0,49.0,9.0,243.3995225719991,,,,,,,,,,,,,,,,,243.38875472699877,244.59995392400012,245.40008912399932,245.3846959030052,,,,,,,,,,,,,,,,,,,,,,,,,,,,,,,,,,,245.387750496011,245.40008912399932,245.40008912399932,245.7686914520018,b,1.0,0.3618268760037608,,,,,,sub-109,1,stroop_test,59.92042926162338,
,,,,50.0,2.0,4.0,,,,,,,,,,,,,blau,red,r,0.0,r,1.0,2.3471661569928983,,,,,,,,,,4.0,2.0,50.0,4.0,245.78385040500143,,,,,,,,,,,,,,,,,245.76898163600708,246.9672884550091,247.7675326190074,247.7512311120081,,,,,,,,,,,,,,,,,,,,,,,,,,,,,,,,,,,247.7544462570077,247.7675326190074,247.7675326190074,250.11970889600343,r,1.0,2.3471661569928983,,,,,,sub-109,1,stroop_test,59.92042926162338,
,,,,51.0,3.0,4.0,,,,,,,,,,,,,rot,red,r,1.0,r,1.0,0.618751162008266,,,,,,,,,,4.0,3.0,51.0,0.0,250.13319380300527,,,,,,,,,,,,,,,,,250.12021539499983,251.33505726300064,252.1343248780031,252.1185378520022,,,,,,,,,,,,,,,,,,,,,,,,,,,,,,,,,,,252.1212162440061,252.1343248780031,252.1343248780031,252.7682874220045,r,1.0,0.618751162008266,,,,,,sub-109,1,stroop_test,59.92042926162338,
,,,,52.0,4.0,4.0,,,,,,,,,,,,,rot,yellow,g,0.0,g,1.0,0.9746938909956951,,,,,,,,,,4.0,4.0,52.0,3.0,252.7839181950112,,,,,,,,,,,,,,,,,252.7687003230094,253.96813775600455,254.76787749800133,254.75173963600537,,,,,,,,,,,,,,,,,,,,,,,,,,,,,,,,,,,254.75232790400327,254.76787749800133,254.76787749800133,255.75217009001065,g,1.0,0.9746938909956951,,,,,,sub-109,1,stroop_test,59.92042926162338,
,,,,53.0,5.0,4.0,,,,,,,,,,,,,gelb,yellow,g,1.0,g,1.0,0.5604544039961183,,,,,,,,,,4.0,5.0,53.0,11.0,255.76737196200705,,,,,,,,,,,,,,,,,255.75253932100892,256.1013912860072,256.9008487710089,256.8855765240005,,,,,,,,,,,,,,,,,,,,,,,,,,,,,,,,,,,256.88849140401,256.9008487710089,256.9008487710089,257.47110294899903,g,1.0,0.5604544039961183,,,,,,sub-109,1,stroop_test,59.92042926162338,
,,,,54.0,6.0,4.0,,,,,,,,,,,,,blau,yellow,g,0.0,g,1.0,0.4339942420047009,,,,,,,,,,4.0,6.0,54.0,7.0,257.4843167490035,,,,,,,,,,,,,,,,,257.47155614200165,258.68477284599794,259.4848655490059,259.4685097059992,,,,,,,,,,,,,,,,,,,,,,,,,,,,,,,,,,,259.4711112070072,259.4848655490059,259.4848655490059,259.93496571300784,g,1.0,0.4339942420047009,,,,,,sub-109,1,stroop_test,59.92042926162338,
,,,,55.0,7.0,4.0,,,,,,,,,,,,,rot,blue,b,0.0,b,1.0,0.5249366500065662,,,,,,,,,,4.0,7.0,55.0,2.0,259.95084392600984,,,,,,,,,,,,,,,,,259.9353606860095,260.28437047300395,261.0996354259987,261.0702782419976,,,,,,,,,,,,,,,,,,,,,,,,,,,,,,,,,,,261.0748110620043,261.0996354259987,261.0996354259987,261.63636330200825,b,1.0,0.5249366500065662,,,,,,sub-109,1,stroop_test,59.92042926162338,
,,,,56.0,8.0,4.0,,,,,,,,,,,,,rot,red,r,1.0,r,1.0,0.5802099470020039,,,,,,,,,,4.0,8.0,56.0,1.0,261.6513626560045,,,,,,,,,,,,,,,,,261.63669593600207,262.00146904500434,262.8018060489994,262.7860574009974,,,,,,,,,,,,,,,,,,,,,,,,,,,,,,,,,,,262.7865711420018,262.8018060489994,262.8018060489994,263.38649685100245,r,1.0,0.5802099470020039,,,,,,sub-109,1,stroop_test,59.92042926162338,
,,,,57.0,9.0,4.0,,,,,,,,,,,,,blau,blue,b,1.0,b,1.0,0.6271680389909307,,,,,,,,,,4.0,9.0,57.0,6.0,263.4014174309996,,,,,,,,,,,,,,,,,263.3869971640088,264.6021508350095,265.4184316949977,265.4024878229975,,,,,,,,,,,,,,,,,,,,,,,,,,,,,,,,,,,265.40561672901094,265.4184316949977,265.4184316949977,266.05314831899886,b,1.0,0.6271680389909307,,,,,,sub-109,1,stroop_test,59.92042926162338,
,,,,58.0,10.0,4.0,,,,,,,,,,,,,gelb,red,r,0.0,r,1.0,1.4395165979949525,,,,,,,,,,4.0,10.0,58.0,8.0,266.06860890401003,,,,,,,,,,,,,,,,,266.0534266629984,266.168180135006,266.9704915800103,266.95380378200207,,,,,,,,,,,,,,,,,,,,,,,,,,,,,,,,,,,266.960341885002,266.9704915800103,266.9704915800103,268.4211527010048,r,1.0,1.4395165979949525,,,,,,sub-109,1,stroop_test,59.92042926162338,
,,,,59.0,11.0,4.0,,,,,,,,,,,,,gelb,yellow,g,1.0,g,1.0,0.969083584001055,,,,,,,,,,4.0,11.0,59.0,10.0,268.4351242200064,,,,,,,,,,,,,,,,,268.4214494080079,269.23532725300174,270.03550533800444,270.0193527369993,,,,,,,,,,,,,,,,,,,,,,,,,,,,,,,,,,,270.0197869240073,270.03550533800444,270.03550533800444,271.0203328770003,g,1.0,0.969083584001055,,,,,,sub-109,1,stroop_test,59.92042926162338,
,,,,60.0,0.0,5.0,,,,,,,,,,,,,rot,red,r,1.0,r,1.0,1.1966463580029083,,,,,,,,,,5.0,0.0,60.0,1.0,271.0360178970004,,,,,,,,,,,,,,,,,271.02062734799983,271.8196644550044,272.62025503400946,272.6042495840084,,,,,,,,,,,,,,,,,,,,,,,,,,,,,,,,,,,272.60874296900874,272.62025503400946,272.62025503400946,273.8212823250069,r,1.0,1.1966463580029083,,,,,,sub-109,1,stroop_test,59.92042926162338,
,,,,61.0,1.0,5.0,,,,,,,,,,,,,blau,blue,b,1.0,b,1.0,0.837337471995852,,,,,,,,,,5.0,1.0,61.0,5.0,273.835370315006,,,,,,,,,,,,,,,,,273.8217897650029,274.18527782500314,274.9862315700011,274.9705850150058,,,,,,,,,,,,,,,,,,,,,,,,,,,,,,,,,,,274.97494662999816,274.9862315700011,274.9862315700011,275.83727456300403,b,1.0,0.837337471995852,,,,,,sub-109,1,stroop_test,59.92042926162338,
,,,,62.0,2.0,5.0,,,,,,,,,,,,,blau,yellow,g,0.0,g,1.0,0.9288624000037088,,,,,,,,,,5.0,2.0,62.0,7.0,275.8526294280018,,,,,,,,,,,,,,,,,275.83774257100595,275.9515653109993,276.751591902008,276.7354092900059,,,,,,,,,,,,,,,,,,,,,,,,,,,,,,,,,,,276.7358797430061,276.751591902008,276.751591902008,277.68757805500354,g,1.0,0.9288624000037088,,,,,,sub-109,1,stroop_test,59.92042926162338,
,,,,63.0,3.0,5.0,,,,,,,,,,,,,gelb,yellow,g,1.0,g,1.0,0.7478028000041377,,,,,,,,,,5.0,3.0,63.0,10.0,277.70226344400726,,,,,,,,,,,,,,,,,277.68799873199896,278.5023988680041,279.302396530009,279.28795161499875,,,,,,,,,,,,,,,,,,,,,,,,,,,,,,,,,,,279.2921000740025,279.302396530009,279.302396530009,280.05501365500095,g,1.0,0.7478028000041377,,,,,,sub-109,1,stroop_test,59.92042926162338,
,,,,64.0,4.0,5.0,,,,,,,,,,,,,rot,yellow,g,0.0,g,1.0,0.8713214239978697,,,,,,,,,,5.0,4.0,64.0,3.0,280.06995735599776,,,,,,,,,,,,,,,,,280.0554561440076,280.86928337000427,281.6704840970051,281.6547606030072,,,,,,,,,,,,,,,,,,,,,,,,,,,,,,,,,,,281.65907702301047,281.6704840970051,281.6704840970051,282.55373148400395,g,1.0,0.8713214239978697,,,,,,sub-109,1,stroop_test,59.92042926162338,
,,,,65.0,5.0,5.0,,,,,,,,,,,,,blau,red,r,0.0,r,1.0,1.3015410350053571,,,,,,,,,,5.0,5.0,65.0,4.0,282.56942918700224,,,,,,,,,,,,,,,,,282.55410533200484,282.65352146700025,283.45321190400864,283.437448466997,,,,,,,,,,,,,,,,,,,,,,,,,,,,,,,,,,,283.44056650900166,283.45321190400864,283.45321190400864,284.7592518080055,r,1.0,1.3015410350053571,,,,,,sub-109,1,stroop_test,59.92042926162338,
,,,,66.0,6.0,5.0,,,,,,,,,,,,,gelb,blue,b,0.0,b,1.0,0.8774779099912848,,,,,,,,,,5.0,6.0,66.0,9.0,284.7696043239994,,,,,,,,,,,,,,,,,284.75955553400854,285.5694731200056,286.3695936230069,286.3536320429994,,,,,,,,,,,,,,,,,,,,,,,,,,,,,,,,,,,286.35629919500207,286.3695936230069,286.3695936230069,287.2544303780014,b,1.0,0.8774779099912848,,,,,,sub-109,1,stroop_test,59.92042926162338,
,,,,67.0,7.0,5.0,,,,,,,,,,,,,rot,red,r,1.0,r,1.0,1.2678423900069902,,,,,,,,,,5.0,7.0,67.0,0.0,287.2706098510098,,,,,,,,,,,,,,,,,287.2547263410088,287.3708217789972,288.1861473030003,288.1700774970086,,,,,,,,,,,,,,,,,,,,,,,,,,,,,,,,,,,288.1731419840071,288.1861473030003,288.1861473030003,289.4713522219972,r,1.0,1.2678423900069902,,,,,,sub-109,1,stroop_test,59.92042926162338,
,,,,68.0,8.0,5.0,,,,,,,,,,,,,blau,blue,b,1.0,b,1.0,0.855225621999125,,,,,,,,,,5.0,8.0,68.0,6.0,289.4862342520064,,,,,,,,,,,,,,,,,289.4716763780016,289.58615984400967,290.3866097639984,290.36984661300085,,,,,,,,,,,,,,,,,,,,,,,,,,,,,,,,,,,290.3726083330112,290.3866097639984,290.3866097639984,291.2546540960029,b,1.0,0.855225621999125,,,,,,sub-109,1,stroop_test,59.92042926162338,
,,,,69.0,9.0,5.0,,,,,,,,,,,,,gelb,yellow,g,1.0,g,1.0,0.7475165320065571,,,,,,,,,,5.0,9.0,69.0,11.0,291.26932678101,,,,,,,,,,,,,,,,,291.2549484510091,291.6028929140012,292.40729183300573,292.3902355600003,,,,,,,,,,,,,,,,,,,,,,,,,,,,,,,,,,,292.39669555801083,292.40729183300573,292.40729183300573,293.1721097980044,g,1.0,0.7475165320065571,,,,,,sub-109,1,stroop_test,59.92042926162338,
,,,,70.0,10.0,5.0,,,,,,,,,,,,,gelb,red,r,0.0,r,1.0,0.7440975920035271,,,,,,,,,,5.0,10.0,70.0,8.0,293.1863576540054,,,,,,,,,,,,,,,,,293.17273120699974,294.3871629130008,295.1872628359997,295.17088843700185,,,,,,,,,,,,,,,,,,,,,,,,,,,,,,,,,,,295.1717046630074,295.1872628359997,295.1872628359997,295.9387620290072,r,1.0,0.7440975920035271,,,,,,sub-109,1,stroop_test,59.92042926162338,
,,,,71.0,11.0,5.0,,,,,,,,,,,,,rot,blue,b,0.0,b,1.0,0.9221743129892276,,,,,,,,,,5.0,11.0,71.0,2.0,295.9544023589988,,,,,,,,,,,,,,,,,295.93923636100953,296.05463672900805,296.8554097610031,296.8395239090023,,,,,,,,,,,,,,,,,,,,,,,,,,,,,,,,,,,296.8462636350014,296.8554097610031,296.8554097610031,297.7886753820057,b,1.0,0.9221743129892276,,,,,,sub-109,1,stroop_test,59.92042926162338,
,,,,72.0,0.0,6.0,,,,,,,,,,,,,blau,blue,b,1.0,b,1.0,0.5819026870012749,,,,,,,,,,6.0,0.0,72.0,6.0,297.80335355999705,,,,,,,,,,,,,,,,,297.7890873569995,297.9039719900029,298.707231182998,298.68968895800936,,,,,,,,,,,,,,,,,,,,,,,,,,,,,,,,,,,298.694926221011,298.707231182998,298.707231182998,299.30725542700384,b,1.0,0.5819026870012749,,,,,,sub-109,1,stroop_test,59.92042926162338,
,,,,73.0,1.0,6.0,,,,,,,,,,,,,gelb,yellow,g,1.0,r,0.0,1.5255171400058316,,,,,,,,,,6.0,1.0,73.0,11.0,299.3197319500032,,,,,,,,,,,,,,,,,299.30766938099987,300.51984575200186,301.3200014489994,301.3060583740007,,,,,,,,,,,,,,,,,,,,,,,,,,,,,,,,,,,301.30860138800927,301.3200014489994,301.3200014489994,302.85522286700143,r,0.0,1.5255171400058316,,,,,,sub-109,1,stroop_test,59.92042926162338,
,,,,74.0,2.0,6.0,,,,,,,,,,,,,rot,red,r,1.0,r,1.0,0.9543107420031448,,,,,,,,,,6.0,2.0,74.0,1.0,302.87237473200366,,,,,,,,,,,,,,,,,302.8562288060057,304.05353580800875,304.85438143300416,304.8377165209968,,,,,,,,,,,,,,,,,,,,,,,,,,,,,,,,,,,304.84124451300886,304.85438143300416,304.85438143300416,305.8246051239985,r,1.0,0.9543107420031448,,,,,,sub-109,1,stroop_test,59.92042926162338,
,,,,75.0,3.0,6.0,,,,,,,,,,,,,rot,yellow,g,0.0,g,1.0,0.9408221320045412,,,,,,,,,,6.0,3.0,75.0,3.0,305.8370556870068,,,,,,,,,,,,,,,,,305.82499728100083,305.93796655500773,306.73743703000946,306.721580345009,,,,,,,,,,,,,,,,,,,,,,,,,,,,,,,,,,,306.7221924260084,306.73743703000946,306.73743703000946,307.6906775899988,g,1.0,0.9408221320045412,,,,,,sub-109,1,stroop_test,59.92042926162338,
,,,,76.0,4.0,6.0,,,,,,,,,,,,,blau,yellow,g,0.0,g,1.0,0.8906428140035132,,,,,,,,,,6.0,4.0,76.0,7.0,307.7040094679978,,,,,,,,,,,,,,,,,307.691056983007,308.90384299700963,309.70487050800875,309.6880962740106,,,,,,,,,,,,,,,,,,,,,,,,,,,,,,,,,,,309.69097304200113,309.70487050800875,309.70487050800875,310.6055497260095,g,1.0,0.8906428140035132,,,,,,sub-109,1,stroop_test,59.92042926162338,
,,,,77.0,5.0,6.0,,,,,,,,,,,,,rot,blue,b,0.0,b,1.0,0.7503991100093117,,,,,,,,,,6.0,5.0,77.0,2.0,310.6210677409981,,,,,,,,,,,,,,,,,310.6058444670052,311.8038418310025,312.605151664,312.5903157440044,,,,,,,,,,,,,,,,,,,,,,,,,,,,,,,,,,,312.59443722201104,312.605151664,312.605151664,313.35945103599806,b,1.0,0.7503991100093117,,,,,,sub-109,1,stroop_test,59.92042926162338,
,,,,78.0,6.0,6.0,,,,,,,,,,,,,blau,blue,b,1.0,b,1.0,0.8633799529925454,,,,,,,,,,6.0,6.0,78.0,5.0,313.3718341900094,,,,,,,,,,,,,,,,,313.3598053099995,313.47165012400365,314.2720176510047,314.254941635998,,,,,,,,,,,,,,,,,,,,,,,,,,,,,,,,,,,314.2575207990012,314.2720176510047,314.2720176510047,315.1420380240015,b,1.0,0.8633799529925454,,,,,,sub-109,1,stroop_test,59.92042926162338,
,,,,79.0,7.0,6.0,,,,,,,,,,,,,gelb,blue,b,0.0,b,1.0,1.5508102570020128,,,,,,,,,,6.0,7.0,79.0,9.0,315.1543297400058,,,,,,,,,,,,,,,,,315.14278507100244,316.3562172820093,317.1728452810057,317.15670276900346,,,,,,,,,,,,,,,,,,,,,,,,,,,,,,,,,,,317.15919436600234,317.1728452810057,317.1728452810057,318.7391928569996,b,1.0,1.5508102570020128,,,,,,sub-109,1,stroop_test,59.92042926162338,
,,,,80.0,8.0,6.0,,,,,,,,,,,,,rot,red,r,1.0,r,1.0,1.2030492140038405,,,,,,,,,,6.0,8.0,80.0,0.0,318.75525523700344,,,,,,,,,,,,,,,,,318.7394996369985,318.8570688699984,319.6544771629997,319.64064386099926,,,,,,,,,,,,,,,,,,,,,,,,,,,,,,,,,,,319.6430737990013,319.6544771629997,319.6544771629997,320.86038311800803,r,1.0,1.2030492140038405,,,,,,sub-109,1,stroop_test,59.92042926162338,
,,,,81.0,9.0,6.0,,,,,,,,,,,,,gelb,yellow,g,1.0,g,1.0,0.9851071809971472,,,,,,,,,,6.0,9.0,81.0,10.0,320.8712399100041,,,,,,,,,,,,,,,,,320.8607320060109,321.2222686010064,322.02142599200306,322.00707077300467,,,,,,,,,,,,,,,,,,,,,,,,,,,,,,,,,,,322.0100563419983,322.02142599200306,322.02142599200306,323.0247171509982,g,1.0,0.9851071809971472,,,,,,sub-109,1,stroop_test,59.92042926162338,
,,,,82.0,10.0,6.0,,,,,,,,,,,,,blau,red,r,0.0,r,1.0,0.9026445170020452,,,,,,,,,,6.0,10.0,82.0,4.0,323.0383117290039,,,,,,,,,,,,,,,,,323.0252336340054,324.23827673900814,325.0412831290014,325.02243894399726,,,,,,,,,,,,,,,,,,,,,,,,,,,,,,,,,,,325.0291668650025,325.0412831290014,325.0412831290014,325.9590007439984,r,1.0,0.9026445170020452,,,,,,sub-109,1,stroop_test,59.92042926162338,
,,,,83.0,11.0,6.0,,,,,,,,,,,,,gelb,red,r,0.0,r,1.0,1.7036449000006542,,,,,,,,,,6.0,11.0,83.0,8.0,325.9713990930032,,,,,,,,,,,,,,,,,325.9594188820047,326.0720868540084,326.87361792101,326.85806373400555,,,,,,,,,,,,,,,,,,,,,,,,,,,,,,,,,,,326.8620161800063,326.87361792101,326.87361792101,328.5917533030006,r,1.0,1.7036449000006542,,,,,,sub-109,1,stroop_test,59.92042926162338,
,,,,84.0,0.0,7.0,,,,,,,,,,,,,rot,red,r,1.0,r,1.0,0.5757744439906674,,,,,,,,,,7.0,0.0,84.0,1.0,328.6060217220074,,,,,,,,,,,,,,,,,328.592460098007,329.8054135709972,330.60583324900654,330.58921967800416,,,,,,,,,,,,,,,,,,,,,,,,,,,,,,,,,,,330.5915249440004,330.60583324900654,330.60583324900654,331.19198034799774,r,1.0,0.5757744439906674,,,,,,sub-109,1,stroop_test,59.92042926162338,
,,,,85.0,1.0,7.0,,,,,,,,,,,,,blau,red,r,0.0,r,1.0,0.8740944969904376,,,,,,,,,,7.0,1.0,85.0,4.0,331.20793641600176,,,,,,,,,,,,,,,,,331.1926293389988,331.5564568730042,332.3555386180087,332.340710621007,,,,,,,,,,,,,,,,,,,,,,,,,,,,,,,,,,,332.34580163400096,332.3555386180087,332.3555386180087,333.24283126900264,r,1.0,0.8740944969904376,,,,,,sub-109,1,stroop_test,59.92042926162338,
,,,,86.0,2.0,7.0,,,,,,,,,,,,,rot,blue,b,0.0,b,1.0,1.3753015239926754,,,,,,,,,,7.0,2.0,86.0,2.0,333.2575102970004,,,,,,,,,,,,,,,,,333.2434412099974,333.35562183801085,334.155934223003,334.1395123820112,,,,,,,,,,,,,,,,,,,,,,,,,,,,,,,,,,,334.1419823059987,334.155934223003,334.155934223003,335.5439452590072,b,1.0,1.3753015239926754,,,,,,sub-109,1,stroop_test,59.92042926162338,
,,,,87.0,3.0,7.0,,,,,,,,,,,,,blau,blue,b,1.0,b,1.0,0.8960318989993539,,,,,,,,,,7.0,3.0,87.0,6.0,335.5560024489969,,,,,,,,,,,,,,,,,335.54433199900086,336.75688390500727,337.55885599199974,337.5404104949994,,,,,,,,,,,,,,,,,,,,,,,,,,,,,,,,,,,337.54544711000926,337.55885599199974,337.55885599199974,338.4605090749974,b,1.0,0.8960318989993539,,,,,,sub-109,1,stroop_test,59.92042926162338,
,,,,88.0,4.0,7.0,,,,,,,,,,,,,gelb,yellow,g,1.0,g,1.0,0.4227747610129881,,,,,,,,,,7.0,4.0,88.0,11.0,338.47359692399914,,,,,,,,,,,,,,,,,338.4610074329976,339.67322636500467,340.4728622160037,340.4568348330067,,,,,,,,,,,,,,,,,,,,,,,,,,,,,,,,,,,340.45981048600515,340.4728622160037,340.4728622160037,340.9110855610052,g,1.0,0.4227747610129881,,,,,,sub-109,1,stroop_test,59.92042926162338,
,,,,89.0,5.0,7.0,,,,,,,,,,,,,rot,yellow,g,0.0,g,1.0,0.6001131039956817,,,,,,,,,,7.0,5.0,89.0,3.0,340.9227519260021,,,,,,,,,,,,,,,,,340.9115351770015,341.0233183680102,341.8239667290036,341.80835233200924,,,,,,,,,,,,,,,,,,,,,,,,,,,,,,,,,,,341.81376628400176,341.8239667290036,341.8239667290036,342.4271352220094,g,1.0,0.6001131039956817,,,,,,sub-109,1,stroop_test,59.92042926162338,
,,,,90.0,6.0,7.0,,,,,,,,,,,,,rot,red,r,1.0,r,1.0,0.5053438689938048,,,,,,,,,,7.0,6.0,90.0,0.0,342.44053237501066,,,,,,,,,,,,,,,,,342.4276106390025,343.24074985399784,344.04336092600715,344.0237397900055,,,,,,,,,,,,,,,,,,,,,,,,,,,,,,,,,,,344.0242666090053,344.04336092600715,344.04336092600715,344.5585509990051,r,1.0,0.5053438689938048,,,,,,sub-109,1,stroop_test,59.92042926162338,
,,,,91.0,7.0,7.0,,,,,,,,,,,,,gelb,blue,b,0.0,b,1.0,0.3069046270102262,,,,,,,,,,7.0,7.0,91.0,9.0,344.573203360007,,,,,,,,,,,,,,,,,344.5589945980028,345.7569483520056,346.55684453500726,346.5412211710063,,,,,,,,,,,,,,,,,,,,,,,,,,,,,,,,,,,346.5438629600103,346.55684453500726,346.55684453500726,346.8756884000031,b,1.0,0.3069046270102262,,,,,,sub-109,1,stroop_test,59.92042926162338,
,,,,92.0,8.0,7.0,,,,,,,,,,,,,gelb,red,r,0.0,r,1.0,0.6525531480001519,,,,,,,,,,7.0,8.0,92.0,8.0,346.89000174601097,,,,,,,,,,,,,,,,,346.8761492379999,347.6907105160062,348.49057249500765,348.47592246900604,,,,,,,,,,,,,,,,,,,,,,,,,,,,,,,,,,,348.47709209800814,348.49057249500765,348.49057249500765,349.1589469620085,r,1.0,0.6525531480001519,,,,,,sub-109,1,stroop_test,59.92042926162338,
,,,,93.0,9.0,7.0,,,,,,,,,,,,,gelb,yellow,g,1.0,g,1.0,0.521298460997059,,,,,,,,,,7.0,9.0,93.0,10.0,349.1729919799982,,,,,,,,,,,,,,,,,349.15942452799936,350.357476064004,351.15731082200364,351.1431350560015,,,,,,,,,,,,,,,,,,,,,,,,,,,,,,,,,,,351.1437083159981,351.15731082200364,351.15731082200364,351.69149141100934,g,1.0,0.521298460997059,,,,,,sub-109,1,stroop_test,59.92042926162338,
,,,,94.0,10.0,7.0,,,,,,,,,,,,,blau,blue,b,1.0,b,1.0,0.3280601869919337,,,,,,,,,,7.0,10.0,94.0,5.0,351.7081961299991,,,,,,,,,,,,,,,,,351.69178169399675,352.9067833779991,353.7067948309996,353.69265937199816,,,,,,,,,,,,,,,,,,,,,,,,,,,,,,,,,,,353.6976943979971,353.7067948309996,353.7067948309996,354.0428773169988,b,1.0,0.3280601869919337,,,,,,sub-109,1,stroop_test,59.92042926162338,
,,,,95.0,11.0,7.0,,,,,,,,,,,,,blau,yellow,g,0.0,g,1.0,0.6343182740092743,,,,,,,,,,7.0,11.0,95.0,7.0,354.058634023997,,,,,,,,,,,,,,,,,354.0433127760043,354.85929194200435,355.67521010500786,355.6577688480029,,,,,,,,,,,,,,,,,,,,,,,,,,,,,,,,,,,355.658298816008,355.67521010500786,355.67521010500786,356.3245917699969,g,1.0,0.6343182740092743,,,,,,sub-109,1,stroop_test,59.92042926162338,
,,,,96.0,0.0,8.0,,,,,,,,,,,,,gelb,blue,b,0.0,b,1.0,0.9169394070049748,,,,,,,,,,8.0,0.0,96.0,9.0,356.3415116899996,,,,,,,,,,,,,,,,,356.3250188079983,356.6756124060048,357.4739896259998,357.45956741500413,,,,,,,,,,,,,,,,,,,,,,,,,,,,,,,,,,,357.46234183901106,357.4739896259998,357.4739896259998,358.39308403999894,b,1.0,0.9169394070049748,,,,,,sub-109,1,stroop_test,59.92042926162338,
,,,,97.0,1.0,8.0,,,,,,,,,,,,,gelb,yellow,g,1.0,g,1.0,0.6038329209986841,,,,,,,,,,8.0,1.0,97.0,11.0,358.40872637899884,,,,,,,,,,,,,,,,,358.39361516101053,359.5910150990094,360.3905775770109,360.3764480550017,,,,,,,,,,,,,,,,,,,,,,,,,,,,,,,,,,,360.3776158240071,360.3905775770109,360.3905775770109,361.0089295210055,g,1.0,0.6038329209986841,,,,,,sub-109,1,stroop_test,59.92042926162338,
,,,,98.0,2.0,8.0,,,,,,,,,,,,,blau,red,r,0.0,r,1.0,0.5503065430093557,,,,,,,,,,8.0,2.0,98.0,4.0,361.02586518399767,,,,,,,,,,,,,,,,,361.0092245720007,362.207978366001,363.0082656459999,362.9922518390085,,,,,,,,,,,,,,,,,,,,,,,,,,,,,,,,,,,362.9966085010092,363.0082656459999,363.0082656459999,363.5613114300068,r,1.0,0.5503065430093557,,,,,,sub-109,1,stroop_test,59.92042926162338,
,,,,99.0,3.0,8.0,,,,,,,,,,,,,gelb,red,r,0.0,g,0.0,0.386685382007272,,,,,,,,,,8.0,3.0,99.0,8.0,363.5749055110064,,,,,,,,,,,,,,,,,363.5618256050074,364.3745567010046,365.1760504620033,365.1593102110055,,,,,,,,,,,,,,,,,,,,,,,,,,,,,,,,,,,365.1650953740027,365.1760504620033,365.1760504620033,365.5771777629998,g,0.0,0.386685382007272,,,,,,sub-109,1,stroop_test,59.92042926162338,
,,,,100.0,4.0,8.0,,,,,,,,,,,,,rot,blue,b,0.0,b,1.0,1.32554413699836,,,,,,,,,,8.0,4.0,100.0,2.0,365.5917999390076,,,,,,,,,,,,,,,,,365.5777109479968,365.69171823200304,366.4930632500036,366.4759525460104,,,,,,,,,,,,,,,,,,,,,,,,,,,,,,,,,,,366.481955567011,366.4930632500036,366.4930632500036,367.8284091050009,b,1.0,1.32554413699836,,,,,,sub-109,1,stroop_test,59.92042926162338,
,,,,101.0,5.0,8.0,,,,,,,,,,,,,blau,blue,b,1.0,b,1.0,0.6064713249943452,,,,,,,,,,8.0,5.0,101.0,5.0,367.8414452950092,,,,,,,,,,,,,,,,,367.8289100160037,369.0423088140087,369.8413509570091,369.82595343700086,,,,,,,,,,,,,,,,,,,,,,,,,,,,,,,,,,,369.8304255320109,369.8413509570091,369.8413509570091,370.4607876630034,b,1.0,0.6064713249943452,,,,,,sub-109,1,stroop_test,59.92042926162338,
,,,,102.0,6.0,8.0,,,,,,,,,,,,,rot,red,r,1.0,g,0.0,0.5016296669928124,,,,,,,,,,8.0,6.0,102.0,0.0,370.47550764199696,,,,,,,,,,,,,,,,,370.46126940000977,370.8255764990026,371.6251123340044,371.6092909520085,,,,,,,,,,,,,,,,,,,,,,,,,,,,,,,,,,,371.6125016459992,371.6251123340044,371.6251123340044,372.1451919030078,g,0.0,0.5016296669928124,,,,,,sub-109,1,stroop_test,59.92042926162338,
,,,,103.0,7.0,8.0,,,,,,,,,,,,,blau,yellow,g,0.0,g,1.0,0.3856425400008447,,,,,,,,,,8.0,7.0,103.0,7.0,372.1586664040078,,,,,,,,,,,,,,,,,372.145557780008,373.3586535710056,374.1588901799987,374.14356452399807,,,,,,,,,,,,,,,,,,,,,,,,,,,,,,,,,,,374.1461110660021,374.1588901799987,374.1588901799987,374.5604469550017,g,1.0,0.3856425400008447,,,,,,sub-109,1,stroop_test,59.92042926162338,
,,,,104.0,8.0,8.0,,,,,,,,,,,,,rot,yellow,g,0.0,g,1.0,0.5262141540006269,,,,,,,,,,8.0,8.0,104.0,3.0,374.5756565449992,,,,,,,,,,,,,,,,,374.56074510100007,374.92541166101,375.7255763069989,375.7105754369986,,,,,,,,,,,,,,,,,,,,,,,,,,,,,,,,,,,375.7135783569975,375.7255763069989,375.7255763069989,376.26159056701,g,1.0,0.5262141540006269,,,,,,sub-109,1,stroop_test,59.92042926162338,
,,,,105.0,9.0,8.0,,,,,,,,,,,,,blau,blue,b,1.0,b,1.0,0.6179854549991433,,,,,,,,,,8.0,9.0,105.0,6.0,376.2757055700058,,,,,,,,,,,,,,,,,376.2621262830071,376.6262602089992,377.42600681699696,377.4103320830036,,,,,,,,,,,,,,,,,,,,,,,,,,,,,,,,,,,377.41438168199966,377.42600681699696,377.42600681699696,378.0623233590013,b,1.0,0.6179854549991433,,,,,,sub-109,1,stroop_test,59.92042926162338,
,,,,106.0,10.0,8.0,,,,,,,,,,,,,rot,red,r,1.0,r,1.0,1.0276563859952148,,,,,,,,,,8.0,10.0,106.0,1.0,378.0756777630013,,,,,,,,,,,,,,,,,378.0629158750089,379.2761083540099,380.0764215530071,380.0603683500085,,,,,,,,,,,,,,,,,,,,,,,,,,,,,,,,,,,380.0645208979986,380.0764215530071,380.0764215530071,381.11214247200405,r,1.0,1.0276563859952148,,,,,,sub-109,1,stroop_test,59.92042926162338,
,,,,107.0,11.0,8.0,,,,,,,,,,,,,gelb,yellow,g,1.0,g,1.0,0.8926152070052922,,,,,,,,,,8.0,11.0,107.0,10.0,381.12681871400855,,,,,,,,,,,,,,,,,381.1125311060023,381.4762370289973,382.2762243489997,382.25990609700966,,,,,,,,,,,,,,,,,,,,,,,,,,,,,,,,,,,382.2635926060029,382.2762243489997,382.2762243489997,383.17974507799954,g,1.0,0.8926152070052922,,,,,,sub-109,1,stroop_test,59.92042926162338,
,,,,108.0,0.0,9.0,,,,,,,,,,,,,rot,red,r,1.0,r,1.0,1.1884876770054689,,,,,,,,,,9.0,0.0,108.0,0.0,383.1935140610003,,,,,,,,,,,,,,,,,383.18017815900384,383.5429374210071,384.3428823270078,384.3271912780037,,,,,,,,,,,,,,,,,,,,,,,,,,,,,,,,,,,384.3294410469971,384.3428823270078,384.3428823270078,385.5447496850102,r,1.0,1.1884876770054689,,,,,,sub-109,1,stroop_test,59.92042926162338,
,,,,109.0,1.0,9.0,,,,,,,,,,,,,blau,blue,b,1.0,b,1.0,0.8430905569985043,,,,,,,,,,9.0,1.0,109.0,6.0,385.5594002349972,,,,,,,,,,,,,,,,,385.5450617930037,385.6597954930039,386.46009302700986,386.4437783540052,,,,,,,,,,,,,,,,,,,,,,,,,,,,,,,,,,,386.44638051401125,386.46009302700986,386.46009302700986,387.3119175140018,b,1.0,0.8430905569985043,,,,,,sub-109,1,stroop_test,59.92042926162338,
,,,,110.0,2.0,9.0,,,,,,,,,,,,,gelb,yellow,g,1.0,g,1.0,0.7842555259994697,,,,,,,,,,9.0,2.0,110.0,10.0,387.32657306500187,,,,,,,,,,,,,,,,,387.3122923310002,387.4266462520027,388.2266497390083,388.2106694640097,,,,,,,,,,,,,,,,,,,,,,,,,,,,,,,,,,,388.21294223000586,388.2266497390083,388.2266497390083,389.0276072929992,g,1.0,0.7842555259994697,,,,,,sub-109,1,stroop_test,59.92042926162338,
,,,,111.0,3.0,9.0,,,,,,,,,,,,,rot,red,r,1.0,r,1.0,1.204777209990425,,,,,,,,,,9.0,3.0,111.0,1.0,389.0429926759971,,,,,,,,,,,,,,,,,389.0279331570055,389.3769170669984,390.17719584600127,390.16046733201074,,,,,,,,,,,,,,,,,,,,,,,,,,,,,,,,,,,390.162806221997,390.17719584600127,390.17719584600127,391.3955629880074,r,1.0,1.204777209990425,,,,,,sub-109,1,stroop_test,59.92042926162338,
,,,,112.0,4.0,9.0,,,,,,,,,,,,,blau,blue,b,1.0,b,1.0,0.7360965400002897,,,,,,,,,,9.0,4.0,112.0,5.0,391.4108617390011,,,,,,,,,,,,,,,,,391.39605532601126,392.610545796997,393.4101008980069,393.3945877850056,,,,,,,,,,,,,,,,,,,,,,,,,,,,,,,,,,,393.3972011180013,393.4101008980069,393.4101008980069,394.16314198701,b,1.0,0.7360965400002897,,,,,,sub-109,1,stroop_test,59.92042926162338,
,,,,113.0,5.0,9.0,,,,,,,,,,,,,blau,yellow,g,0.0,g,1.0,1.2556728800118435,,,,,,,,,,9.0,5.0,113.0,7.0,394.1773993060051,,,,,,,,,,,,,,,,,394.1637133059994,394.97740032,395.7778555230034,395.7615127470053,,,,,,,,,,,,,,,,,,,,,,,,,,,,,,,,,,,395.7620605550037,395.7778555230034,395.7778555230034,397.0461515210045,g,1.0,1.2556728800118435,,,,,,sub-109,1,stroop_test,59.92042926162338,
,,,,114.0,6.0,9.0,,,,,,,,,,,,,rot,yellow,g,0.0,g,1.0,1.0744503930036444,,,,,,,,,,9.0,6.0,114.0,3.0,397.0607479180034,,,,,,,,,,,,,,,,,397.04662839500816,397.1604200319998,397.9607449760079,397.9447694600094,,,,,,,,,,,,,,,,,,,,,,,,,,,,,,,,,,,397.94921520100615,397.9607449760079,397.9607449760079,399.04595551000966,g,1.0,1.0744503930036444,,,,,,sub-109,1,stroop_test,59.92042926162338,
,,,,115.0,7.0,9.0,,,,,,,,,,,,,rot,blue,b,0.0,b,1.0,0.8640017049910966,,,,,,,,,,9.0,7.0,115.0,2.0,399.06048086300143,,,,,,,,,,,,,,,,,399.04643086100987,399.1605732940079,399.960686602004,399.9450948220037,,,,,,,,,,,,,,,,,,,,,,,,,,,,,,,,,,,399.9457449129986,399.960686602004,399.960686602004,400.8300035270077,b,1.0,0.8640017049910966,,,,,,sub-109,1,stroop_test,59.92042926162338,
,,,,116.0,8.0,9.0,,,,,,,,,,,,,gelb,yellow,g,1.0,g,1.0,0.8174650610017125,,,,,,,,,,9.0,8.0,116.0,11.0,400.8441524410009,,,,,,,,,,,,,,,,,400.8303073580028,401.64450456699706,402.4444455370103,402.4284398340096,,,,,,,,,,,,,,,,,,,,,,,,,,,,,,,,,,,402.4319146050111,402.4444455370103,402.4444455370103,403.27912285600905,g,1.0,0.8174650610017125,,,,,,sub-109,1,stroop_test,59.92042926162338,
,,,,117.0,9.0,9.0,,,,,,,,,,,,,gelb,red,r,0.0,r,1.0,0.7603405959962402,,,,,,,,,,9.0,9.0,117.0,8.0,403.2940942090063,,,,,,,,,,,,,,,,,403.279433610005,404.4943680080032,405.2943984960002,405.2782330600021,,,,,,,,,,,,,,,,,,,,,,,,,,,,,,,,,,,405.27884092601016,405.2943984960002,405.2943984960002,406.06433651600673,r,1.0,0.7603405959962402,,,,,,sub-109,1,stroop_test,59.92042926162338,
,,,,118.0,10.0,9.0,,,,,,,,,,,,,gelb,blue,b,0.0,b,1.0,1.289797745004762,,,,,,,,,,9.0,10.0,118.0,9.0,406.0777401939995,,,,,,,,,,,,,,,,,406.0648243970063,406.42766038399714,407.2274596360076,407.2119183590112,,,,,,,,,,,,,,,,,,,,,,,,,,,,,,,,,,,407.2124936730106,407.2274596360076,407.2274596360076,408.5301060080092,b,1.0,1.289797745004762,,,,,,sub-109,1,stroop_test,59.92042926162338,
,,,,119.0,11.0,9.0,,,,,,,,,,,,,blau,red,r,0.0,r,1.0,1.1830701300059443,,,,,,,,,,9.0,11.0,119.0,4.0,408.5449879869993,,,,,,,,,,,,,,,,,408.53043163000257,409.34520344001066,410.1453292720107,410.12895095400745,,,,,,,,,,,,,,,,,,,,,,,,,,,,,,,,,,,410.13165551199927,410.1453292720107,410.1453292720107,411.3481499979971,r,1.0,1.1830701300059443,,,,,,sub-109,1,stroop_test,59.92042926162338,
,,,,,,,,,,,,,,,,,,,,,,,,,,,,,,,,,,,,,,,,,,,,,,,,,,,,,,,,,,,,,,,,,,,,,,,,,,,,,,,,,,,,,,,,,,,,,,,,,,,,,,411.3484765660105,411.36147715800325,416.361739525004,416.3461201500031,sub-109,1,stroop_test,59.92042926162338,
