wordCTK,colorCTK,corrAnsCTK,congruentCTK,thisN,thisTrialN,thisRepN,keyResp_CTK.keys,keyResp_CTK.corr,keyResp_CTK.rt,keyResp_CTK.duration,wordPractice,colorPractice,corrAnsPractice,congruentPractice,respPractice.keys,respPractice.corr,respPractice.rt,respPractice.duration,word,color,corrAns,congruent,keyResp_test_run.keys,keyResp_test_run.corr,keyResp_test_run.rt,keyResp_test_run.duration,trials_CTK.thisRepN,trials_CTK.thisTrialN,trials_CTK.thisN,trials_CTK.thisIndex,trials_practice.thisRepN,trials_practice.thisTrialN,trials_practice.thisN,trials_practice.thisIndex,trials_test.thisRepN,trials_test.thisTrialN,trials_test.thisN,trials_test.thisIndex,thisRow.t,notes,instruction.started,instr_text.started,instr_image.started,instr_resp.started,instruction.stopped,instr_resp.keys,instr_resp.rt,instr_resp.duration,instr_color_to_key.started,instr_ctk.started,resp_ctk.started,instr_color_to_key.stopped,resp_ctk.keys,resp_ctk.rt,resp_ctk.duration,ITI.started,fixcross.started,fixcross.stopped,ITI.stopped,color_to_key_run.started,stimulus_CTK.started,keyResp_CTK.started,color_to_key_run.stopped,trials_CTK.keyResp_CTK.keys,trials_CTK.keyResp_CTK.corr,trials_CTK.keyResp_CTK.rt,trials_CTK.keyResp_CTK.duration,instr_practice.started,instr_practice_text.started,instr_practice_resp.started,instr_practice.stopped,instr_practice_resp.keys,instr_practice_resp.rt,instr_practice_resp.duration,practice_run.started,stimulus_practice.started,respPractice.started,practice_run.stopped,trials_practice.respPractice.keys,trials_practice.respPractice.corr,trials_practice.respPractice.rt,trials_practice.respPractice.duration,feedback.started,textFeedback.started,textFeedback.stopped,feedback.stopped,instr_test.started,instr_test_text.started,instr_test_resp.started,instr_test.stopped,instr_test_resp.keys,instr_test_resp.rt,instr_test_resp.duration,test_run.started,stimulus_test_run.started,keyResp_test_run.started,test_run.stopped,trials_test.keyResp_test_run.keys,trials_test.keyResp_test_run.corr,trials_test.keyResp_test_run.rt,trials_test.keyResp_test_run.duration,goodbye.started,textGoodbye.started,textGoodbye.stopped,goodbye.stopped,participant,session,expName,frameRate,Unnamed: 113
,,,,,,,,,,,,,,,,,,,,,,,,,,,,,,,,,,,,,,,,,0.0098646250007732,0.0147208329999557,0.0147208329999557,0.0147208329999557,9.565431417000582,space,9.525670790999357,,,,,,,,,,,,,,,,,,,,,,,,,,,,,,,,,,,,,,,,,,,,,,,,,,,,,,,,,,,sub-205,1,stroop_test,,
,,,,,,,,,,,,,,,,,,,,,,,,,,,,,,,,,,,,,,,,,,,,,,,,,9.565471083000377,9.58718220800074,9.58718220800074,30.187609417000203,space,20.595844542000123,,,,,,,,,,,,,,,,,,,,,,,,,,,,,,,,,,,,,,,,,,,,,,,,,,,,sub-205,1,stroop_test,,
test,blue,b,1.0,0.0,0.0,0.0,b,1.0,2.370184875000632,,,,,,,,,,,,,,,,,,0.0,0.0,0.0,2.0,,,,,,,,,30.21756245799952,,,,,,,,,,,,,,,,,30.2051018330003,30.983969667000565,31.77646666700093,31.77002279199951,31.77375833299993,31.77646666700093,31.77646666700093,34.1544883330007,b,1.0,2.370184875000632,,,,,,,,,,,,,,,,,,,,,,,,,,,,,,,,,,,,,,,,sub-205,1,stroop_test,,
test,red,r,1.0,1.0,1.0,0.0,r,1.0,0.9670993750005435,,,,,,,,,,,,,,,,,,0.0,1.0,1.0,0.0,,,,,,,,,34.16061654199984,,,,,,,,,,,,,,,,,34.154757833000986,34.95126625000012,35.740957457999684,35.736659833000886,35.736950833001174,35.740957457999684,35.740957457999684,36.70927195799959,r,1.0,0.9670993750005435,,,,,,,,,,,,,,,,,,,,,,,,,,,,,,,,,,,,,,,,sub-205,1,stroop_test,,
test,yellow,g,1.0,2.0,2.0,0.0,g,1.0,0.5179127499995957,,,,,,,,,,,,,,,,,,0.0,2.0,2.0,1.0,,,,,,,,,36.717767125001046,,,,,,,,,,,,,,,,,36.70950633299981,37.05682545800119,37.8512897920009,37.84255049999956,37.84281666700008,37.8512897920009,37.8512897920009,38.37081458300054,g,1.0,0.5179127499995957,,,,,,,,,,,,,,,,,,,,,,,,,,,,,,,,,,,,,,,,sub-205,1,stroop_test,,
test,red,r,1.0,3.0,0.0,1.0,r,1.0,0.5786657909993664,,,,,,,,,,,,,,,,,,1.0,0.0,3.0,0.0,,,,,,,,,38.374458958000105,,,,,,,,,,,,,,,,,38.37106233300074,38.71800808300031,39.507839207999496,39.503630167000665,39.50389429200004,39.507839207999496,39.507839207999496,40.08787433299949,r,1.0,0.5786657909993664,,,,,,,,,,,,,,,,,,,,,,,,,,,,,,,,,,,,,,,,sub-205,1,stroop_test,,
test,yellow,g,1.0,4.0,1.0,1.0,g,1.0,1.3450979169992934,,,,,,,,,,,,,,,,,,1.0,1.0,4.0,1.0,,,,,,,,,40.091533875000096,,,,,,,,,,,,,,,,,40.08811812500062,40.18461829199987,40.97466666699984,40.97032866700101,40.970643832999485,40.97466666699984,40.97466666699984,42.321121582999695,g,1.0,1.3450979169992934,,,,,,,,,,,,,,,,,,,,,,,,,,,,,,,,,,,,,,,,sub-205,1,stroop_test,,
test,blue,b,1.0,5.0,2.0,1.0,b,1.0,0.4601948330000596,,,,,,,,,,,,,,,,,,1.0,2.0,5.0,2.0,,,,,,,,,42.32483270800003,,,,,,,,,,,,,,,,,42.32137195799987,43.11797200000001,43.90832479200071,43.903777042,43.90407070800029,43.90832479200071,43.90832479200071,44.37101220800105,b,1.0,0.4601948330000596,,,,,,,,,,,,,,,,,,,,,,,,,,,,,,,,,,,,,,,,sub-205,1,stroop_test,,
test,yellow,g,1.0,6.0,0.0,2.0,g,1.0,0.4581220420004683,,,,,,,,,,,,,,,,,,2.0,0.0,6.0,1.0,,,,,,,,,44.37683483299952,,,,,,,,,,,,,,,,,44.371259125000506,45.16783250000117,45.95754591700097,45.95336170799965,45.95360054199955,45.95754591700097,45.95754591700097,46.42084012499981,g,1.0,0.4581220420004683,,,,,,,,,,,,,,,,,,,,,,,,,,,,,,,,,,,,,,,,sub-205,1,stroop_test,,
test,blue,b,1.0,7.0,1.0,2.0,b,1.0,0.5605948329994135,,,,,,,,,,,,,,,,,,2.0,1.0,7.0,2.0,,,,,,,,,46.42676808299984,,,,,,,,,,,,,,,,,46.42110262499955,47.61792737500036,48.40799095799957,48.4036891249998,48.40396158300064,48.40799095799957,48.40799095799957,48.9706046249994,b,1.0,0.5605948329994135,,,,,,,,,,,,,,,,,,,,,,,,,,,,,,,,,,,,,,,,sub-205,1,stroop_test,,
test,red,r,1.0,8.0,2.0,2.0,r,1.0,0.4627865000002202,,,,,,,,,,,,,,,,,,2.0,2.0,8.0,0.0,,,,,,,,,48.976585124999474,,,,,,,,,,,,,,,,,48.97085137500108,49.31757287500113,50.10813466699983,50.10390704200108,50.10418933300025,50.10813466699983,50.10813466699983,50.57655708300081,r,1.0,0.4627865000002202,,,,,,,,,,,,,,,,,,,,,,,,,,,,,,,,,,,,,,,,sub-205,1,stroop_test,,
test,red,r,1.0,9.0,0.0,3.0,r,1.0,0.5696126250004454,,,,,,,,,,,,,,,,,,3.0,0.0,9.0,0.0,,,,,,,,,50.58323733299949,,,,,,,,,,,,,,,,,50.576807458000985,51.773798250000254,52.56776024999999,52.55868658300096,52.55895579200114,52.56776024999999,52.56776024999999,53.143150666999645,r,1.0,0.5696126250004454,,,,,,,,,,,,,,,,,,,,,,,,,,,,,,,,,,,,,,,,sub-205,1,stroop_test,,
test,yellow,g,1.0,10.0,1.0,3.0,g,1.0,0.6345509580005455,,,,,,,,,,,,,,,,,,3.0,1.0,10.0,1.0,,,,,,,,,53.14988050000102,,,,,,,,,,,,,,,,,53.143409500000416,53.939946167000016,54.73449266700118,54.72557441699973,54.72582720799983,54.73449266700118,54.73449266700118,55.37056487500013,g,1.0,0.6345509580005455,,,,,,,,,,,,,,,,,,,,,,,,,,,,,,,,,,,,,,,,sub-205,1,stroop_test,,
test,blue,b,1.0,11.0,2.0,3.0,b,1.0,0.4223513750002894,,,,,,,,,,,,,,,,,,3.0,2.0,11.0,2.0,,,,,,,,,55.37425320799957,,,,,,,,,,,,,,,,,55.37081104200115,55.71773708299952,56.50783899999988,56.50363966700024,56.50385858300069,56.50783899999988,56.50783899999988,56.9372550420012,b,1.0,0.4223513750002894,,,,,,,,,,,,,,,,,,,,,,,,,,,,,,,,,,,,,,,,sub-205,1,stroop_test,,
,,,,,,,,,,,,,,,,,,,,,,,,,,,,,,,,,,,,,,,,,,,,,,,,,,,,,,,,,,,,,,,,,,,,56.93737758300085,56.94383058300082,56.94383058300082,70.77049120800075,space,13.818656834000649,,,,,,,,,,,,,,,,,,,,,,,,,,,,,,,,,sub-205,1,stroop_test,,
,,,,0.0,0.0,0.0,,,,,gelb,red,r,0.0,r,1.0,0.6406879999994999,,,,,,,,,,,,,,0.0,0.0,0.0,8.0,,,,,70.78351787500105,,,,,,,,,,,,,,,,,70.77872070800004,71.96768266700019,72.75952604200029,72.75327658300012,,,,,,,,,,,,,,,,72.75683495799967,72.75952604200029,72.75952604200029,73.403836417001,r,1.0,0.6406879999994999,,73.40735783300079,73.41249625000091,74.4070347500001,74.40332366700022,,,,,,,,,,,,,,,,,,,,sub-205,1,stroop_test,,
,,,,1.0,1.0,0.0,,,,,rot,red,r,1.0,r,1.0,0.5336766249984066,,,,,,,,,,,,,,0.0,1.0,1.0,0.0,,,,,74.4070347500001,,,,,,,,,,,,,,,,,74.40356708299987,74.75099604200113,75.5420853329997,75.53647929200088,,,,,,,,,,,,,,,,75.53930874999969,75.5420853329997,75.5420853329997,76.08699683300074,r,1.0,0.5336766249984066,,76.0873072079994,76.09355829200103,77.09009029200024,77.08658941700014,,,,,,,,,,,,,,,,,,,,sub-205,1,stroop_test,,
,,,,2.0,2.0,0.0,,,,,gelb,blue,b,0.0,b,1.0,0.3785932079990743,,,,,,,,,,,,,,0.0,2.0,2.0,9.0,,,,,77.09009029200024,,,,,,,,,,,,,,,,,77.08683579200078,77.88435583300088,78.6756949999999,78.66975674999958,,,,,,,,,,,,,,,,78.67151533300057,78.6756949999999,78.6756949999999,79.0596890830002,b,1.0,0.3785932079990743,,79.05998708300103,79.06652545799989,80.05712129200037,80.05355675000101,,,,,,,,,,,,,,,,,,,,sub-205,1,stroop_test,,
,,,,3.0,3.0,0.0,,,,,blau,red,r,0.0,r,1.0,0.4902140840003994,,,,,,,,,,,,,,0.0,3.0,3.0,4.0,,,,,80.05712129200037,,,,,,,,,,,,,,,,,80.05379708300097,80.40672229200027,81.19977541700064,81.19220754200069,,,,,,,,,,,,,,,,81.19525550000071,81.19977541700064,81.19977541700064,81.69289233299969,r,1.0,0.4902140840003994,,81.69319645799987,81.69968862499991,82.68998800000008,82.68640095800038,,,,,,,,,,,,,,,,,,,,sub-205,1,stroop_test,,
,,,,4.0,4.0,0.0,,,,,blau,blue,b,1.0,b,1.0,0.9617918750009268,,,,,,,,,,,,,,0.0,4.0,4.0,6.0,,,,,82.68998800000008,,,,,,,,,,,,,,,,,82.68665675000011,83.89004220800052,84.68427008300023,84.67535416700048,,,,,,,,,,,,,,,,84.67561258299975,84.68427008300023,84.68427008300023,85.65384950000043,b,1.0,0.9617918750009268,,85.65415216700057,85.66047020800033,86.65697920800085,86.6534758329999,,,,,,,,,,,,,,,,,,,,sub-205,1,stroop_test,,
,,,,5.0,5.0,0.0,,,,,gelb,yellow,g,1.0,g,1.0,0.3478749580008298,,,,,,,,,,,,,,0.0,5.0,5.0,10.0,,,,,86.65697920800085,,,,,,,,,,,,,,,,,86.65371820800101,86.75069370799974,87.54172599999947,87.53626754200013,,,,,,,,,,,,,,,,87.53791983300107,87.54172599999947,87.54172599999947,87.89343050000025,g,1.0,0.3478749580008298,,87.89370204199986,87.90036816700012,88.89020058300048,88.88655341699996,,,,,,,,,,,,,,,,,,,,sub-205,1,stroop_test,,
,,,,6.0,6.0,0.0,,,,,blau,yellow,g,0.0,g,1.0,0.5529778340005578,,,,,,,,,,,,,,0.0,6.0,6.0,7.0,,,,,88.89020058300048,,,,,,,,,,,,,,,,,88.88682687500113,89.68999783300023,90.48306816700097,90.47529883300012,,,,,,,,,,,,,,,,90.47715537499973,90.48306816700097,90.48306816700097,91.0373187919995,g,1.0,0.5529778340005578,,91.03761537500031,91.04166308300046,92.04018866700062,92.03658454200011,,,,,,,,,,,,,,,,,,,,sub-205,1,stroop_test,,
,,,,7.0,7.0,0.0,,,,,rot,blue,b,0.0,b,1.0,0.7904861659990274,,,,,,,,,,,,,,0.0,7.0,7.0,2.0,,,,,92.04018866700062,,,,,,,,,,,,,,,,,92.036861083001,92.13397100000113,92.92592566700114,92.91982699999971,,,,,,,,,,,,,,,,92.92168966700046,92.92592566700114,92.92592566700114,93.72045691700076,b,1.0,0.7904861659990274,,93.7207522080007,93.72706933300104,94.72337499999958,94.71981616700032,,,,,,,,,,,,,,,,,,,,sub-205,1,stroop_test,,
,,,,8.0,8.0,0.0,,,,,rot,red,r,1.0,r,1.0,0.3740372089996526,,,,,,,,,,,,,,0.0,8.0,8.0,1.0,,,,,94.72337499999958,,,,,,,,,,,,,,,,,94.72005683300084,95.917487875,96.70778887500092,96.7033461250012,,,,,,,,,,,,,,,,96.70364775000051,96.70778887500092,96.70778887500092,97.08694254200054,r,1.0,0.3740372089996526,,97.0872307919999,97.09350320799967,98.09051479200023,98.086865958001,,,,,,,,,,,,,,,,,,,,sub-205,1,stroop_test,,
,,,,9.0,9.0,0.0,,,,,blau,blue,b,1.0,b,1.0,0.7593563329992321,,,,,,,,,,,,,,0.0,9.0,9.0,5.0,,,,,98.09051479200023,,,,,,,,,,,,,,,,,98.0871359169996,98.43425341700096,99.22579500000028,99.21978129200032,,,,,,,,,,,,,,,,99.22164049999992,99.22579500000028,99.22579500000028,99.98694158299986,b,1.0,0.7593563329992321,,99.98723387500104,99.99356920799984,100.99029879199952,100.98673224999948,,,,,,,,,,,,,,,,,,,,sub-205,1,stroop_test,,
,,,,10.0,10.0,0.0,,,,,gelb,yellow,g,1.0,g,1.0,0.55323483400025,,,,,,,,,,,,,,0.0,10.0,10.0,11.0,,,,,100.99029879199952,,,,,,,,,,,,,,,,,100.98697845800052,101.08417491699949,101.87557916700098,101.86948541700076,,,,,,,,,,,,,,,,101.87134670799968,101.87557916700098,101.87557916700098,102.43701104200044,g,1.0,0.55323483400025,,102.43730437500017,102.44357658300032,103.4400289999994,103.43644054200011,,,,,,,,,,,,,,,,,,,,sub-205,1,stroop_test,,
,,,,11.0,11.0,0.0,,,,,rot,yellow,g,0.0,g,1.0,0.4540913330001785,,,,,,,,,,,,,,0.0,11.0,11.0,3.0,,,,,103.4400289999994,,,,,,,,,,,,,,,,,103.4366840420007,104.23420299999998,105.02631037500032,105.02001862500038,,,,,,,,,,,,,,,,105.02196104200084,105.02631037500032,105.02631037500032,105.48689083300088,g,1.0,0.4540913330001785,,105.48718691700014,105.49350170800062,106.48995624999952,106.48641333300112,,,,,,,,,,,,,,,,,,,,sub-205,1,stroop_test,,
,,,,12.0,0.0,1.0,,,,,rot,yellow,g,0.0,g,1.0,0.5179824580009154,,,,,,,,,,,,,,1.0,0.0,12.0,3.0,,,,,106.48995624999952,,,,,,,,,,,,,,,,,106.48666320800112,107.28411766700084,108.07398749999992,108.06972445800056,,,,,,,,,,,,,,,,108.0699965420008,108.07398749999992,108.07398749999992,108.59325320800052,g,1.0,0.5179824580009154,,108.59354558300038,108.59997120800108,109.58981558300002,109.58618250000109,,,,,,,,,,,,,,,,,,,,sub-205,1,stroop_test,,
,,,,13.0,1.0,1.0,,,,,rot,red,r,1.0,r,1.0,0.5179385840001487,,,,,,,,,,,,,,1.0,1.0,13.0,1.0,,,,,109.58981558300002,,,,,,,,,,,,,,,,,109.58642866700028,110.38964045800094,111.18404454200028,111.17530187500051,,,,,,,,,,,,,,,,111.17556120799964,111.18404454200028,111.18404454200028,111.7036430829994,r,1.0,0.5179385840001487,,111.7039114170002,111.71031695800048,112.70654629199998,112.70290800000112,,,,,,,,,,,,,,,,,,,,sub-205,1,stroop_test,,
,,,,14.0,2.0,1.0,,,,,blau,yellow,g,0.0,g,1.0,0.6122166249988368,,,,,,,,,,,,,,1.0,2.0,14.0,7.0,,,,,112.70654629199998,,,,,,,,,,,,,,,,,112.70315641700108,113.90076504200078,114.69221004199972,114.68607404199976,,,,,,,,,,,,,,,,114.68795966700054,114.69221004199972,114.69221004199972,115.30957191699964,g,1.0,0.6122166249988368,,115.30987183300022,115.31619612500072,116.30654037500062,116.30302912499974,,,,,,,,,,,,,,,,,,,,sub-205,1,stroop_test,,
,,,,15.0,3.0,1.0,,,,,gelb,red,r,0.0,r,1.0,0.514674042000479,,,,,,,,,,,,,,1.0,3.0,15.0,8.0,,,,,116.30654037500062,,,,,,,,,,,,,,,,,116.3032774580006,116.65653312500037,117.4495230829998,117.44242591700096,,,,,,,,,,,,,,,,117.44417716700082,117.4495230829998,117.4495230829998,117.9709232919995,r,1.0,0.514674042000479,,117.97122145799948,117.97568612500072,118.97299133300112,118.96950879200084,,,,,,,,,,,,,,,,,,,,sub-205,1,stroop_test,,
,,,,16.0,4.0,1.0,,,,,rot,blue,b,0.0,b,1.0,0.5096225420002156,,,,,,,,,,,,,,1.0,4.0,16.0,2.0,,,,,118.97299133300112,,,,,,,,,,,,,,,,,118.9697441669996,119.06717374999972,119.8590765000008,119.85291466700072,,,,,,,,,,,,,,,,119.85474758300006,119.8590765000008,119.8590765000008,120.3701307499996,b,1.0,0.5096225420002156,,120.37037229199996,120.37435345800075,121.37389904200064,121.37022324999998,,,,,,,,,,,,,,,,,,,,sub-205,1,stroop_test,,
,,,,17.0,5.0,1.0,,,,,blau,blue,b,1.0,b,1.0,0.5803394580016175,,,,,,,,,,,,,,1.0,5.0,17.0,6.0,,,,,121.37389904200064,,,,,,,,,,,,,,,,,121.37048712500108,121.71728558299948,122.5090435000002,122.50299658299993,,,,,,,,,,,,,,,,122.5048649170003,122.5090435000002,122.5090435000002,123.0925418750012,b,1.0,0.5803394580016175,,123.0928370420006,123.09953187500103,124.08980470800088,124.08623666700078,,,,,,,,,,,,,,,,,,,,sub-205,1,stroop_test,,
,,,,18.0,6.0,1.0,,,,,rot,red,r,1.0,r,1.0,0.4415901660013333,,,,,,,,,,,,,,1.0,6.0,18.0,0.0,,,,,124.08980470800088,,,,,,,,,,,,,,,,,124.08648204200108,124.18922312500035,124.9827847079996,124.9749577500006,,,,,,,,,,,,,,,,124.97676758300076,124.9827847079996,124.9827847079996,125.42556308300118,r,1.0,0.4415901660013333,,125.4258214170004,125.43296445800117,126.42312825000045,126.41950762499982,,,,,,,,,,,,,,,,,,,,sub-205,1,stroop_test,,
,,,,19.0,7.0,1.0,,,,,gelb,yellow,g,1.0,g,1.0,0.8863518329999351,,,,,,,,,,,,,,1.0,7.0,19.0,11.0,,,,,126.42312825000045,,,,,,,,,,,,,,,,,126.41975733300023,126.77297995800107,127.56625587500092,127.55843875000028,,,,,,,,,,,,,,,,127.56031583299956,127.56625587500092,127.56625587500092,128.45370595799977,g,1.0,0.8863518329999351,,128.45395004199963,128.4603280829997,129.4567606670007,129.45316195800115,,,,,,,,,,,,,,,,,,,,sub-205,1,stroop_test,,
,,,,20.0,8.0,1.0,,,,,gelb,blue,b,0.0,b,1.0,0.5732161670002824,,,,,,,,,,,,,,1.0,8.0,20.0,9.0,,,,,129.4567606670007,,,,,,,,,,,,,,,,,129.45342916700065,129.55041537500074,130.34037445800095,130.33615920800003,,,,,,,,,,,,,,,,130.3364028750002,130.34037445800095,130.34037445800095,130.92000058300073,b,1.0,0.5732161670002824,,130.92029641699992,130.92617062499994,131.92290683300052,131.9192902499999,,,,,,,,,,,,,,,,,,,,sub-205,1,stroop_test,,
,,,,21.0,9.0,1.0,,,,,blau,red,r,0.0,r,1.0,0.4936638750004931,,,,,,,,,,,,,,1.0,9.0,21.0,4.0,,,,,131.92290683300052,,,,,,,,,,,,,,,,,131.91953745799947,132.01696941699993,132.80869662500118,132.80269116700038,,,,,,,,,,,,,,,,132.8045255830002,132.80869662500118,132.80869662500118,133.3036477500009,r,1.0,0.4936638750004931,,133.30394395800067,133.30997133300116,134.3065783330003,134.3029176250002,,,,,,,,,,,,,,,,,,,,sub-205,1,stroop_test,,
,,,,22.0,10.0,1.0,,,,,gelb,yellow,g,1.0,g,1.0,0.9131914589997904,,,,,,,,,,,,,,1.0,10.0,22.0,10.0,,,,,134.3065783330003,,,,,,,,,,,,,,,,,134.30316587500056,134.4005391669998,135.19199450000087,135.1858836249994,,,,,,,,,,,,,,,,135.18774008299988,135.19199450000087,135.19199450000087,136.10944449999988,g,1.0,0.9131914589997904,,136.109730958,136.11615429199992,137.106406375,137.102751542001,,,,,,,,,,,,,,,,,,,,sub-205,1,stroop_test,,
,,,,23.0,11.0,1.0,,,,,blau,blue,b,1.0,b,1.0,0.4365223340009834,,,,,,,,,,,,,,1.0,11.0,23.0,5.0,,,,,137.106406375,,,,,,,,,,,,,,,,,137.10299658300028,138.3060889999997,139.0994483329996,139.091701542,,,,,,,,,,,,,,,,139.0935707919998,139.0994483329996,139.0994483329996,139.5373554580001,b,1.0,0.4365223340009834,,139.53764691700053,139.5440022920011,140.54076191700003,140.5364306249994,,,,,,,,,,,,,,,,,,,,sub-205,1,stroop_test,,
,,,,,,,,,,,,,,,,,,,,,,,,,,,,,,,,,,,,,,,,,,,,,,,,,,,,,,,,,,,,,,,,,,,,,,,,,,,,,,,,,,,,,,,140.53653383300116,140.54076191700003,140.54076191700003,148.40911958300055,space,7.865606666000531,,,,,,,,,,,,,,sub-205,1,stroop_test,,
,,,,0.0,0.0,0.0,,,,,,,,,,,,,gelb,yellow,g,1.0,g,1.0,0.7410061249993305,,,,,,,,,,0.0,0.0,0.0,11.0,148.42171075000078,,,,,,,,,,,,,,,,,148.41791220800042,149.20621566699992,149.99950470800104,149.991302542001,,,,,,,,,,,,,,,,,,,,,,,,,,,,,,,,,,,149.99315283299984,149.99950470800104,149.99950470800104,150.74213554200105,g,1.0,0.7410061249993305,,,,,,sub-205,1,stroop_test,,
,,,,1.0,1.0,0.0,,,,,,,,,,,,,rot,red,r,1.0,r,1.0,0.3802362499991432,,,,,,,,,,0.0,1.0,1.0,1.0,150.75022337500013,,,,,,,,,,,,,,,,,150.74239191699962,151.9396209580009,152.73254025000097,152.72473766700023,,,,,,,,,,,,,,,,,,,,,,,,,,,,,,,,,,,152.72672687500017,152.73254025000097,152.73254025000097,153.11989345800066,r,1.0,0.3802362499991432,,,,,,sub-205,1,stroop_test,,
,,,,2.0,2.0,0.0,,,,,,,,,,,,,blau,red,r,0.0,r,1.0,0.628899375000401,,,,,,,,,,0.0,2.0,2.0,4.0,153.12565424999957,,,,,,,,,,,,,,,,,153.1201733329999,154.31692045800082,155.1088780000009,155.1028545829995,,,,,,,,,,,,,,,,,,,,,,,,,,,,,,,,,,,155.10471941700052,155.1088780000009,155.1088780000009,155.74230549999993,r,1.0,0.628899375000401,,,,,,sub-205,1,stroop_test,,
,,,,3.0,3.0,0.0,,,,,,,,,,,,,rot,yellow,g,0.0,g,1.0,0.5657150829993043,,,,,,,,,,0.0,3.0,3.0,3.0,155.74913679200108,,,,,,,,,,,,,,,,,155.74260099999992,155.83925112500037,156.63268391699967,156.62484029200095,,,,,,,,,,,,,,,,,,,,,,,,,,,,,,,,,,,156.62667283300107,156.63268391699967,156.63268391699967,157.20363391700084,g,1.0,0.5657150829993043,,,,,,sub-205,1,stroop_test,,
,,,,4.0,4.0,0.0,,,,,,,,,,,,,gelb,red,r,0.0,r,1.0,0.5506675830001768,,,,,,,,,,0.0,4.0,4.0,8.0,157.20944816700103,,,,,,,,,,,,,,,,,157.20391395800107,158.0003193749999,158.7926908749996,158.78628541699982,,,,,,,,,,,,,,,,,,,,,,,,,,,,,,,,,,,158.78852466700118,158.7926908749996,158.7926908749996,159.35311945800095,r,1.0,0.5506675830001768,,,,,,sub-205,1,stroop_test,,
,,,,5.0,5.0,0.0,,,,,,,,,,,,,blau,blue,b,1.0,b,1.0,0.6427042909999727,,,,,,,,,,0.0,5.0,5.0,6.0,159.35885370799951,,,,,,,,,,,,,,,,,159.353401458,159.700226500001,160.49182216699955,160.48574895800084,,,,,,,,,,,,,,,,,,,,,,,,,,,,,,,,,,,160.4875948330009,160.49182216699955,160.49182216699955,161.13661587500064,b,1.0,0.6427042909999727,,,,,,sub-205,1,stroop_test,,
,,,,6.0,6.0,0.0,,,,,,,,,,,,,blau,blue,b,1.0,b,1.0,0.5750251669996942,,,,,,,,,,0.0,6.0,6.0,5.0,161.1425006669997,,,,,,,,,,,,,,,,,161.13689366700055,162.33347649999996,163.1202470419994,163.11746175000007,,,,,,,,,,,,,,,,,,,,,,,,,,,,,,,,,,,163.11761174999992,163.1202470419994,163.1202470419994,163.7033491250004,b,1.0,0.5750251669996942,,,,,,sub-205,1,stroop_test,,
,,,,7.0,7.0,0.0,,,,,,,,,,,,,gelb,blue,b,0.0,b,1.0,0.5096536669989291,,,,,,,,,,0.0,7.0,7.0,9.0,163.70933608300038,,,,,,,,,,,,,,,,,163.70363650000036,163.80035766699984,164.59168770799988,164.5856229580004,,,,,,,,,,,,,,,,,,,,,,,,,,,,,,,,,,,164.58750291700017,164.59168770799988,164.59168770799988,165.10319925000113,b,1.0,0.5096536669989291,,,,,,sub-205,1,stroop_test,,
,,,,8.0,8.0,0.0,,,,,,,,,,,,,rot,red,r,1.0,r,1.0,0.4760721669990744,,,,,,,,,,0.0,8.0,8.0,0.0,165.10675900000024,,,,,,,,,,,,,,,,,165.10345120800048,166.30020633300046,167.09246095799972,167.08598933299982,,,,,,,,,,,,,,,,,,,,,,,,,,,,,,,,,,,167.08802191699942,167.09246095799972,167.09246095799972,167.56995674999962,r,1.0,0.4760721669990744,,,,,,sub-205,1,stroop_test,,
,,,,9.0,9.0,0.0,,,,,,,,,,,,,rot,blue,b,0.0,b,1.0,0.4909901250011899,,,,,,,,,,0.0,9.0,9.0,2.0,167.5736751250006,,,,,,,,,,,,,,,,,167.57022850000067,168.36688695799967,169.15692008299993,169.15265620799985,,,,,,,,,,,,,,,,,,,,,,,,,,,,,,,,,,,169.1529147500005,169.15692008299993,169.15692008299993,169.6531714169996,b,1.0,0.4909901250011899,,,,,,sub-205,1,stroop_test,,
,,,,10.0,10.0,0.0,,,,,,,,,,,,,blau,yellow,g,0.0,g,1.0,0.6644324589997268,,,,,,,,,,0.0,10.0,10.0,7.0,169.65902291699967,,,,,,,,,,,,,,,,,169.65346333300113,169.75015483300012,170.54194445800022,170.53585391700108,,,,,,,,,,,,,,,,,,,,,,,,,,,,,,,,,,,170.53764899999987,170.54194445800022,170.54194445800022,171.20867116699992,g,1.0,0.6644324589997268,,,,,,sub-205,1,stroop_test,,
,,,,11.0,11.0,0.0,,,,,,,,,,,,,gelb,yellow,g,1.0,g,1.0,0.5182604170004197,,,,,,,,,,0.0,11.0,11.0,10.0,171.21568820799985,,,,,,,,,,,,,,,,,171.20894741700067,172.00619333299983,172.7993906669999,172.79109054199944,,,,,,,,,,,,,,,,,,,,,,,,,,,,,,,,,,,172.7929748330007,172.7993906669999,172.7993906669999,173.31990591700014,g,1.0,0.5182604170004197,,,,,,sub-205,1,stroop_test,,
,,,,12.0,0.0,1.0,,,,,,,,,,,,,gelb,yellow,g,1.0,g,1.0,0.5204356250014825,,,,,,,,,,1.0,0.0,12.0,11.0,173.32576162500118,,,,,,,,,,,,,,,,,173.32017795799948,174.1167528750011,174.90712066699962,174.90266195799995,,,,,,,,,,,,,,,,,,,,,,,,,,,,,,,,,,,174.90297412499967,174.90712066699962,174.90712066699962,175.4363738330012,g,1.0,0.5204356250014825,,,,,,sub-205,1,stroop_test,,
,,,,13.0,1.0,1.0,,,,,,,,,,,,,rot,yellow,g,0.0,g,1.0,0.4894988750002085,,,,,,,,,,1.0,1.0,13.0,3.0,175.44226416700076,,,,,,,,,,,,,,,,,175.43665904199952,176.23337637500117,177.02520804199958,177.01903633300026,,,,,,,,,,,,,,,,,,,,,,,,,,,,,,,,,,,177.020861125,177.02520804199958,177.02520804199958,177.5195773329997,g,1.0,0.4894988750002085,,,,,,sub-205,1,stroop_test,,
,,,,14.0,2.0,1.0,,,,,,,,,,,,,rot,red,r,1.0,r,1.0,0.4721752909990755,,,,,,,,,,1.0,2.0,14.0,0.0,177.5255220830004,,,,,,,,,,,,,,,,,177.5198508329995,178.71696950000114,179.50669775000097,179.50244920800105,,,,,,,,,,,,,,,,,,,,,,,,,,,,,,,,,,,179.50274662499942,179.50669775000097,179.50669775000097,179.98640954199982,r,1.0,0.4721752909990755,,,,,,sub-205,1,stroop_test,,
,,,,15.0,3.0,1.0,,,,,,,,,,,,,gelb,blue,b,0.0,b,1.0,0.5543870000001334,,,,,,,,,,1.0,3.0,15.0,9.0,179.99229837500025,,,,,,,,,,,,,,,,,179.98669829200117,180.7834559170005,181.57578445800027,181.5695901250001,,,,,,,,,,,,,,,,,,,,,,,,,,,,,,,,,,,181.57156620800012,181.57578445800027,181.57578445800027,182.1362738330008,b,1.0,0.5543870000001334,,,,,,sub-205,1,stroop_test,,
,,,,16.0,4.0,1.0,,,,,,,,,,,,,blau,blue,b,1.0,b,1.0,0.6194331250007963,,,,,,,,,,1.0,4.0,16.0,6.0,182.1424077499996,,,,,,,,,,,,,,,,,182.136548167,183.33365725000112,184.12586841700067,184.11962200000016,,,,,,,,,,,,,,,,,,,,,,,,,,,,,,,,,,,184.12158116700084,184.12586841700067,184.12586841700067,184.75304345800032,b,1.0,0.6194331250007963,,,,,,sub-205,1,stroop_test,,
,,,,17.0,5.0,1.0,,,,,,,,,,,,,blau,red,r,0.0,r,1.0,0.7152492080003867,,,,,,,,,,1.0,5.0,17.0,4.0,184.758915583001,,,,,,,,,,,,,,,,,184.75332587500088,185.1001760420004,185.89009075000104,185.88578466699985,,,,,,,,,,,,,,,,,,,,,,,,,,,,,,,,,,,185.88606141700075,185.89009075000104,185.89009075000104,186.60859145799984,r,1.0,0.7152492080003867,,,,,,sub-205,1,stroop_test,,
,,,,18.0,6.0,1.0,,,,,,,,,,,,,gelb,yellow,g,1.0,g,1.0,0.5051565839985415,,,,,,,,,,1.0,6.0,18.0,10.0,186.61559583300004,,,,,,,,,,,,,,,,,186.60887479200028,187.8060177919997,188.59895291700013,188.59130354199988,,,,,,,,,,,,,,,,,,,,,,,,,,,,,,,,,,,188.59317658300097,188.59895291700013,188.59895291700013,189.1088533330003,g,1.0,0.5051565839985415,,,,,,sub-205,1,stroop_test,,
,,,,19.0,7.0,1.0,,,,,,,,,,,,,blau,yellow,g,0.0,g,1.0,0.3922060000004421,,,,,,,,,,1.0,7.0,19.0,7.0,189.11548333300016,,,,,,,,,,,,,,,,,189.1091152500012,189.90567675000057,190.6989300420009,190.691236875,,,,,,,,,,,,,,,,,,,,,,,,,,,,,,,,,,,190.69310066700015,190.6989300420009,190.6989300420009,191.09240729200064,g,1.0,0.3922060000004421,,,,,,sub-205,1,stroop_test,,
,,,,20.0,8.0,1.0,,,,,,,,,,,,,gelb,red,r,0.0,r,1.0,0.5356748750000406,,,,,,,,,,1.0,8.0,20.0,8.0,191.0999489170008,,,,,,,,,,,,,,,,,191.09267945800093,191.18943525000032,191.9822239999994,191.9746352080001,,,,,,,,,,,,,,,,,,,,,,,,,,,,,,,,,,,191.9766717500006,191.9822239999994,191.9822239999994,192.5197217080004,r,1.0,0.5356748750000406,,,,,,sub-205,1,stroop_test,,
,,,,21.0,9.0,1.0,,,,,,,,,,,,,rot,blue,b,0.0,b,1.0,0.5518610420003824,,,,,,,,,,1.0,9.0,21.0,2.0,192.52554204199987,,,,,,,,,,,,,,,,,192.519994667,193.3164102080009,194.10863733299996,194.10251824999975,,,,,,,,,,,,,,,,,,,,,,,,,,,,,,,,,,,194.1043479580003,194.10863733299996,194.10863733299996,194.6696663750008,b,1.0,0.5518610420003824,,,,,,sub-205,1,stroop_test,,
,,,,22.0,10.0,1.0,,,,,,,,,,,,,blau,blue,b,1.0,b,1.0,0.648231625000335,,,,,,,,,,1.0,10.0,22.0,5.0,194.67551170800107,,,,,,,,,,,,,,,,,194.6699220829996,195.01658241699988,195.8082490830002,195.8022665000008,,,,,,,,,,,,,,,,,,,,,,,,,,,,,,,,,,,195.8041272080009,195.8082490830002,195.8082490830002,196.4586560000007,b,1.0,0.648231625000335,,,,,,sub-205,1,stroop_test,,
,,,,23.0,11.0,1.0,,,,,,,,,,,,,rot,red,r,1.0,r,1.0,0.5327706250009214,,,,,,,,,,1.0,11.0,23.0,1.0,196.46549100000084,,,,,,,,,,,,,,,,,196.45893991699995,197.65629091700063,198.44888075000017,198.44111270800025,,,,,,,,,,,,,,,,,,,,,,,,,,,,,,,,,,,198.4429309170009,198.44888075000017,198.44888075000017,198.98646004200052,r,1.0,0.5327706250009214,,,,,,sub-205,1,stroop_test,,
,,,,24.0,0.0,2.0,,,,,,,,,,,,,gelb,red,r,0.0,r,1.0,0.4268415829992591,,,,,,,,,,2.0,0.0,24.0,8.0,198.9922129580009,,,,,,,,,,,,,,,,,198.986714875,199.08347412500007,199.8749607080008,199.86881545799952,,,,,,,,,,,,,,,,,,,,,,,,,,,,,,,,,,,199.8706767500007,199.8749607080008,199.8749607080008,200.30325533299947,r,1.0,0.4268415829992591,,,,,,sub-205,1,stroop_test,,
,,,,25.0,1.0,2.0,,,,,,,,,,,,,blau,blue,b,1.0,b,1.0,0.3881058339993615,,,,,,,,,,2.0,1.0,25.0,6.0,200.3068758749996,,,,,,,,,,,,,,,,,200.30350237499988,200.39994166699944,201.19152141700036,201.18543879200115,,,,,,,,,,,,,,,,,,,,,,,,,,,,,,,,,,,201.18726920799963,201.19152141700036,201.19152141700036,201.58619033300056,b,1.0,0.3881058339993615,,,,,,sub-205,1,stroop_test,,
,,,,26.0,2.0,2.0,,,,,,,,,,,,,gelb,yellow,g,1.0,g,1.0,0.4858482090003235,,,,,,,,,,2.0,2.0,26.0,10.0,201.59188608300065,,,,,,,,,,,,,,,,,201.58644591700067,202.783156417001,203.57481683300105,203.5688326250001,,,,,,,,,,,,,,,,,,,,,,,,,,,,,,,,,,,203.5705862920004,203.57481683300105,203.57481683300105,204.06947079200108,g,1.0,0.4858482090003235,,,,,,sub-205,1,stroop_test,,
,,,,27.0,3.0,2.0,,,,,,,,,,,,,blau,yellow,g,0.0,b,0.0,0.3837617909994151,,,,,,,,,,2.0,3.0,27.0,7.0,204.07540612500088,,,,,,,,,,,,,,,,,204.069759,205.2667492920009,206.05849812499943,206.05244287499957,,,,,,,,,,,,,,,,,,,,,,,,,,,,,,,,,,,206.0542889999997,206.05849812499943,206.05849812499943,206.4527867079996,b,0.0,0.3837617909994151,,,,,,sub-205,1,stroop_test,,
,,,,28.0,4.0,2.0,,,,,,,,,,,,,rot,yellow,g,0.0,g,1.0,0.5222780420008348,,,,,,,,,,2.0,4.0,28.0,3.0,206.45859254199968,,,,,,,,,,,,,,,,,206.45307433299968,206.80005987500044,207.59220587500025,207.5860004999995,,,,,,,,,,,,,,,,,,,,,,,,,,,,,,,,,,,207.58785920800076,207.59220587500025,207.59220587500025,208.1195516250009,g,1.0,0.5222780420008348,,,,,,sub-205,1,stroop_test,,
,,,,29.0,5.0,2.0,,,,,,,,,,,,,rot,blue,b,0.0,b,1.0,0.6391645000003336,,,,,,,,,,2.0,5.0,29.0,2.0,208.1253935420009,,,,,,,,,,,,,,,,,208.11983533300008,208.91660025000056,209.70673999999963,209.70250408299944,,,,,,,,,,,,,,,,,,,,,,,,,,,,,,,,,,,209.70271429199963,209.70673999999963,209.70673999999963,210.3528611670008,b,1.0,0.6391645000003336,,,,,,sub-205,1,stroop_test,,
,,,,30.0,6.0,2.0,,,,,,,,,,,,,gelb,yellow,g,1.0,g,1.0,0.6649624580004456,,,,,,,,,,2.0,6.0,30.0,11.0,210.35868991700045,,,,,,,,,,,,,,,,,210.3531513750004,210.449889083,211.24220570800023,211.235984500001,,,,,,,,,,,,,,,,,,,,,,,,,,,,,,,,,,,211.23796929200037,211.24220570800023,211.24220570800023,211.9085826669998,g,1.0,0.6649624580004456,,,,,,sub-205,1,stroop_test,,
,,,,31.0,7.0,2.0,,,,,,,,,,,,,gelb,blue,b,0.0,b,1.0,0.5743625830000383,,,,,,,,,,2.0,7.0,31.0,9.0,211.91647250000096,,,,,,,,,,,,,,,,,211.90883779199976,212.00549895800032,212.8000215419997,212.7913068329999,,,,,,,,,,,,,,,,,,,,,,,,,,,,,,,,,,,212.79155066699968,212.8000215419997,212.8000215419997,213.37563562499963,b,1.0,0.5743625830000383,,,,,,sub-205,1,stroop_test,,
,,,,32.0,8.0,2.0,,,,,,,,,,,,,blau,blue,b,1.0,b,1.0,0.4691813750014262,,,,,,,,,,2.0,8.0,32.0,5.0,213.3830817079997,,,,,,,,,,,,,,,,,213.37591729199997,214.17274570799964,214.9656448750011,214.9575823329997,,,,,,,,,,,,,,,,,,,,,,,,,,,,,,,,,,,214.9593942499996,214.9656448750011,214.9656448750011,215.43609666700104,b,1.0,0.4691813750014262,,,,,,sub-205,1,stroop_test,,
,,,,33.0,9.0,2.0,,,,,,,,,,,,,blau,red,r,0.0,r,1.0,0.5045705829998042,,,,,,,,,,2.0,9.0,33.0,4.0,215.4397700000009,,,,,,,,,,,,,,,,,215.43637583300008,215.53322304200083,216.3233762500004,216.3190238330008,,,,,,,,,,,,,,,,,,,,,,,,,,,,,,,,,,,216.3192687080009,216.3233762500004,216.3233762500004,216.8361027080009,r,1.0,0.5045705829998042,,,,,,sub-205,1,stroop_test,,
,,,,34.0,10.0,2.0,,,,,,,,,,,,,rot,red,r,1.0,b,0.0,0.4455747079991852,,,,,,,,,,2.0,10.0,34.0,0.0,216.84173841700067,,,,,,,,,,,,,,,,,216.8363870000012,217.1830607920001,217.9751042919997,217.9689907920001,,,,,,,,,,,,,,,,,,,,,,,,,,,,,,,,,,,217.97080754200036,217.9751042919997,217.9751042919997,218.4248929170008,b,0.0,0.4455747079991852,,,,,,sub-205,1,stroop_test,,
,,,,35.0,11.0,2.0,,,,,,,,,,,,,rot,red,r,1.0,r,1.0,0.5252769580001768,,,,,,,,,,2.0,11.0,35.0,1.0,218.43200391699972,,,,,,,,,,,,,,,,,218.42517591700016,219.6226175829997,220.4165426670006,220.4077539170012,,,,,,,,,,,,,,,,,,,,,,,,,,,,,,,,,,,220.4079582499999,220.4165426670006,220.4165426670006,220.95267045800028,r,1.0,0.5252769580001768,,,,,,sub-205,1,stroop_test,,
,,,,36.0,0.0,3.0,,,,,,,,,,,,,rot,yellow,g,0.0,g,1.0,0.679580125000939,,,,,,,,,,3.0,0.0,36.0,3.0,220.95844237500023,,,,,,,,,,,,,,,,,220.95296141700052,221.74970050000047,222.5400879580011,222.5356547920001,,,,,,,,,,,,,,,,,,,,,,,,,,,,,,,,,,,222.53596016700067,222.5400879580011,222.5400879580011,223.22518475000103,g,1.0,0.679580125000939,,,,,,sub-205,1,stroop_test,,
,,,,37.0,1.0,3.0,,,,,,,,,,,,,gelb,red,r,0.0,r,1.0,0.8869073330006358,,,,,,,,,,3.0,1.0,37.0,8.0,223.2320318330003,,,,,,,,,,,,,,,,,223.22546975000117,223.32196716699943,224.1154011250001,224.10770720800065,,,,,,,,,,,,,,,,,,,,,,,,,,,,,,,,,,,224.10955237500093,224.1154011250001,224.1154011250001,225.0084311669998,r,1.0,0.8869073330006358,,,,,,sub-205,1,stroop_test,,
,,,,38.0,2.0,3.0,,,,,,,,,,,,,blau,red,r,0.0,r,1.0,0.3817703749991779,,,,,,,,,,3.0,2.0,38.0,4.0,225.0153818750005,,,,,,,,,,,,,,,,,225.00871216700037,226.20579241700037,226.99863170800015,226.9912148330004,,,,,,,,,,,,,,,,,,,,,,,,,,,,,,,,,,,226.99307650000085,226.99863170800015,226.99863170800015,227.38605966700013,r,1.0,0.3817703749991779,,,,,,sub-205,1,stroop_test,,
,,,,39.0,3.0,3.0,,,,,,,,,,,,,gelb,yellow,g,1.0,g,1.0,0.5137566670000524,,,,,,,,,,3.0,3.0,39.0,10.0,227.3918310829995,,,,,,,,,,,,,,,,,227.38632162500107,228.58295937500043,229.37537758300093,229.3692130420004,,,,,,,,,,,,,,,,,,,,,,,,,,,,,,,,,,,229.3711462499996,229.37537758300093,229.37537758300093,229.89208237499952,g,1.0,0.5137566670000524,,,,,,sub-205,1,stroop_test,,
,,,,40.0,4.0,3.0,,,,,,,,,,,,,blau,blue,b,1.0,b,1.0,0.5385955840010865,,,,,,,,,,3.0,4.0,40.0,5.0,229.89861999999997,,,,,,,,,,,,,,,,,229.89236554200036,231.0891557920004,231.8821074999996,231.87400745800005,,,,,,,,,,,,,,,,,,,,,,,,,,,,,,,,,,,231.8760344580005,231.8821074999996,231.8821074999996,232.42530120800075,b,1.0,0.5385955840010865,,,,,,sub-205,1,stroop_test,,
,,,,41.0,5.0,3.0,,,,,,,,,,,,,rot,red,r,1.0,r,1.0,0.4616848749992641,,,,,,,,,,3.0,5.0,41.0,1.0,232.4318458329999,,,,,,,,,,,,,,,,,232.4255838749996,233.2224555000012,234.01522616700092,234.0078060830001,,,,,,,,,,,,,,,,,,,,,,,,,,,,,,,,,,,234.0096317080006,234.01522616700092,234.01522616700092,234.48588366700096,r,1.0,0.4616848749992641,,,,,,sub-205,1,stroop_test,,
,,,,42.0,6.0,3.0,,,,,,,,,,,,,rot,blue,b,0.0,b,1.0,0.6113762080003653,,,,,,,,,,3.0,6.0,42.0,2.0,234.491643333,,,,,,,,,,,,,,,,,234.4861399580004,234.8329974999997,235.62303112500013,235.61876866700004,,,,,,,,,,,,,,,,,,,,,,,,,,,,,,,,,,,235.6190359579996,235.62303112500013,235.62303112500013,236.2359971670012,b,1.0,0.6113762080003653,,,,,,sub-205,1,stroop_test,,
,,,,43.0,7.0,3.0,,,,,,,,,,,,,gelb,yellow,g,1.0,g,1.0,0.5531830410000111,,,,,,,,,,3.0,7.0,43.0,11.0,236.24190308300055,,,,,,,,,,,,,,,,,236.236273333001,237.43319537500065,238.22471145800048,238.2187280420003,,,,,,,,,,,,,,,,,,,,,,,,,,,,,,,,,,,238.2206131670009,238.22471145800048,238.22471145800048,238.7858572080004,g,1.0,0.5531830410000111,,,,,,sub-205,1,stroop_test,,
,,,,44.0,8.0,3.0,,,,,,,,,,,,,rot,red,r,1.0,r,1.0,0.4928371249989141,,,,,,,,,,3.0,8.0,44.0,0.0,238.7917602079997,,,,,,,,,,,,,,,,,238.78613787500035,239.58294254199973,240.374899167,240.368666458,,,,,,,,,,,,,,,,,,,,,,,,,,,,,,,,,,,240.37049362499965,240.374899167,240.374899167,240.86934875000043,r,1.0,0.4928371249989141,,,,,,sub-205,1,stroop_test,,
,,,,45.0,9.0,3.0,,,,,,,,,,,,,blau,blue,b,1.0,b,1.0,0.5092537079999602,,,,,,,,,,3.0,9.0,45.0,6.0,240.87298525000008,,,,,,,,,,,,,,,,,240.86962524999944,241.21628245800093,242.00793466700088,242.0018662080001,,,,,,,,,,,,,,,,,,,,,,,,,,,,,,,,,,,242.00372270800108,242.00793466700088,242.00793466700088,242.51926954200096,b,1.0,0.5092537079999602,,,,,,sub-205,1,stroop_test,,
,,,,46.0,10.0,3.0,,,,,,,,,,,,,blau,yellow,g,0.0,g,1.0,0.5451062079991971,,,,,,,,,,3.0,10.0,46.0,7.0,242.52495979200103,,,,,,,,,,,,,,,,,242.5195199170012,243.71629745800053,244.5060155419997,244.5017771670009,,,,,,,,,,,,,,,,,,,,,,,,,,,,,,,,,,,244.5020580830005,244.5060155419997,244.5060155419997,245.05267400000048,g,1.0,0.5451062079991971,,,,,,sub-205,1,stroop_test,,
,,,,47.0,11.0,3.0,,,,,,,,,,,,,gelb,blue,b,0.0,b,1.0,0.4924445839988038,,,,,,,,,,3.0,11.0,47.0,9.0,245.05630787500013,,,,,,,,,,,,,,,,,245.0529587920009,246.2497954169994,247.04169133300093,247.03538433299943,,,,,,,,,,,,,,,,,,,,,,,,,,,,,,,,,,,247.0374314580004,247.04169133300093,247.04169133300093,247.53598274999968,b,1.0,0.4924445839988038,,,,,,sub-205,1,stroop_test,,
,,,,48.0,0.0,4.0,,,,,,,,,,,,,rot,red,r,1.0,r,1.0,0.4446281660002569,,,,,,,,,,4.0,0.0,48.0,1.0,247.5396743750007,,,,,,,,,,,,,,,,,247.53626262500077,248.73309795800012,249.52486708300057,249.5186819999999,,,,,,,,,,,,,,,,,,,,,,,,,,,,,,,,,,,249.5205179580007,249.52486708300057,249.52486708300057,249.9750730830001,r,1.0,0.4446281660002569,,,,,,sub-205,1,stroop_test,,
,,,,49.0,1.0,4.0,,,,,,,,,,,,,blau,red,r,0.0,r,1.0,0.4414996670002438,,,,,,,,,,4.0,1.0,49.0,4.0,249.98179195800003,,,,,,,,,,,,,,,,,249.97534808300043,251.17236070800027,251.9652167919994,251.9573327079997,,,,,,,,,,,,,,,,,,,,,,,,,,,,,,,,,,,251.95918845800043,251.9652167919994,251.9652167919994,252.40829679200036,r,1.0,0.4414996670002438,,,,,,sub-205,1,stroop_test,,
,,,,50.0,2.0,4.0,,,,,,,,,,,,,gelb,red,r,0.0,r,1.0,0.3598611249999521,,,,,,,,,,4.0,2.0,50.0,8.0,252.41614624999968,,,,,,,,,,,,,,,,,252.4085761669994,253.205791458,253.9984119580004,253.9910676250001,,,,,,,,,,,,,,,,,,,,,,,,,,,,,,,,,,,253.992915625,253.9984119580004,253.9984119580004,254.368741708,r,1.0,0.3598611249999521,,,,,,sub-205,1,stroop_test,,
,,,,51.0,3.0,4.0,,,,,,,,,,,,,blau,blue,b,1.0,b,1.0,0.6422278749996622,,,,,,,,,,4.0,3.0,51.0,6.0,254.37466458299969,,,,,,,,,,,,,,,,,254.36902858299985,255.166156958001,255.95808195800052,255.9520363330012,,,,,,,,,,,,,,,,,,,,,,,,,,,,,,,,,,,255.95395341699987,255.95808195800052,255.95808195800052,256.6028556670008,b,1.0,0.6422278749996622,,,,,,sub-205,1,stroop_test,,
,,,,52.0,4.0,4.0,,,,,,,,,,,,,blau,blue,b,1.0,b,1.0,0.5896772500000225,,,,,,,,,,4.0,4.0,52.0,5.0,256.608661708,,,,,,,,,,,,,,,,,256.60312587500084,257.39956916700066,258.1892779170012,258.18513104200065,,,,,,,,,,,,,,,,,,,,,,,,,,,,,,,,,,,258.18539458300074,258.1892779170012,258.1892779170012,258.7860459170006,b,1.0,0.5896772500000225,,,,,,sub-205,1,stroop_test,,
,,,,53.0,5.0,4.0,,,,,,,,,,,,,gelb,yellow,g,1.0,g,1.0,0.3590664170005766,,,,,,,,,,4.0,5.0,53.0,10.0,258.7924162920008,,,,,,,,,,,,,,,,,258.7863417500012,259.132776208,259.9250752500011,259.9185744580009,,,,,,,,,,,,,,,,,,,,,,,,,,,,,,,,,,,259.92069687500043,259.9250752500011,259.9250752500011,260.285911500001,g,1.0,0.3590664170005766,,,,,,sub-205,1,stroop_test,,
,,,,54.0,6.0,4.0,,,,,,,,,,,,,blau,yellow,g,0.0,r,0.0,0.4216425829999934,,,,,,,,,,4.0,6.0,54.0,7.0,260.291886125,,,,,,,,,,,,,,,,,260.28619362500103,261.08287695800027,261.88186916700033,261.8713784579995,,,,,,,,,,,,,,,,,,,,,,,,,,,,,,,,,,,261.8727916250009,261.88186916700033,261.88186916700033,262.3083714580007,r,0.0,0.4216425829999934,,,,,,sub-205,1,stroop_test,,
,,,,55.0,7.0,4.0,,,,,,,,,,,,,rot,red,r,1.0,r,1.0,0.4566160419999505,,,,,,,,,,4.0,7.0,55.0,0.0,262.31507041700024,,,,,,,,,,,,,,,,,262.3086723329998,263.10527258299953,263.8985478329996,263.89056979199995,,,,,,,,,,,,,,,,,,,,,,,,,,,,,,,,,,,263.8923899170004,263.8985478329996,263.8985478329996,264.358336917001,r,1.0,0.4566160419999505,,,,,,sub-205,1,stroop_test,,
,,,,56.0,8.0,4.0,,,,,,,,,,,,,gelb,blue,b,0.0,g,0.0,0.874613624999256,,,,,,,,,,4.0,8.0,56.0,9.0,264.3649869580004,,,,,,,,,,,,,,,,,264.3586184169999,264.7049785420004,265.49857254200106,265.49062137500005,,,,,,,,,,,,,,,,,,,,,,,,,,,,,,,,,,,265.49250091700014,265.49857254200106,265.49857254200106,266.37430425000093,g,0.0,0.874613624999256,,,,,,sub-205,1,stroop_test,,
,,,,57.0,9.0,4.0,,,,,,,,,,,,,rot,yellow,g,0.0,g,1.0,0.918366915999286,,,,,,,,,,4.0,9.0,57.0,3.0,266.38274058299976,,,,,,,,,,,,,,,,,266.3745660830009,266.4717338749997,267.2651707919995,267.2573357500005,,,,,,,,,,,,,,,,,,,,,,,,,,,,,,,,,,,267.2591162500012,267.2651707919995,267.2651707919995,268.1860068750011,g,1.0,0.918366915999286,,,,,,sub-205,1,stroop_test,,
,,,,58.0,10.0,4.0,,,,,,,,,,,,,gelb,yellow,g,1.0,g,1.0,0.5430845830014732,,,,,,,,,,4.0,10.0,58.0,11.0,268.1918536249996,,,,,,,,,,,,,,,,,268.1862871249996,268.98287600000003,269.7745641670008,269.7683380420003,,,,,,,,,,,,,,,,,,,,,,,,,,,,,,,,,,,269.77022212500015,269.7745641670008,269.7745641670008,270.3192414999994,g,1.0,0.5430845830014732,,,,,,sub-205,1,stroop_test,,
,,,,59.0,11.0,4.0,,,,,,,,,,,,,rot,blue,b,0.0,b,1.0,0.5264004999989993,,,,,,,,,,4.0,11.0,59.0,2.0,270.3229162500011,,,,,,,,,,,,,,,,,270.319520250001,271.51622512500035,272.30788033300087,272.301712208,,,,,,,,,,,,,,,,,,,,,,,,,,,,,,,,,,,272.3035655420008,272.30788033300087,272.30788033300087,272.8358640000006,b,1.0,0.5264004999989993,,,,,,sub-205,1,stroop_test,,
,,,,60.0,0.0,5.0,,,,,,,,,,,,,blau,blue,b,1.0,b,1.0,0.4323156669997843,,,,,,,,,,5.0,0.0,60.0,6.0,272.841743125,,,,,,,,,,,,,,,,,272.83613700000024,273.1827202500008,273.9743443749994,273.9683650420011,,,,,,,,,,,,,,,,,,,,,,,,,,,,,,,,,,,273.9702062920005,273.9743443749994,273.9743443749994,274.4082074580001,b,1.0,0.4323156669997843,,,,,,sub-205,1,stroop_test,,
,,,,61.0,1.0,5.0,,,,,,,,,,,,,blau,red,r,0.0,r,1.0,0.5678607080008078,,,,,,,,,,5.0,1.0,61.0,4.0,274.41494633299953,,,,,,,,,,,,,,,,,274.4084712920012,274.7553544170005,275.5496264579997,275.5405211670004,,,,,,,,,,,,,,,,,,,,,,,,,,,,,,,,,,,275.540779500001,275.5496264579997,275.5496264579997,276.11955812499946,r,1.0,0.5678607080008078,,,,,,sub-205,1,stroop_test,,
,,,,62.0,2.0,5.0,,,,,,,,,,,,,rot,yellow,g,0.0,g,1.0,0.6712082909998571,,,,,,,,,,5.0,2.0,62.0,3.0,276.12556804199994,,,,,,,,,,,,,,,,,276.1198384170002,276.4660445419995,277.2576447080009,277.2515233329996,,,,,,,,,,,,,,,,,,,,,,,,,,,,,,,,,,,277.2533555000009,277.2576447080009,277.2576447080009,277.9357496249995,g,1.0,0.6712082909998571,,,,,,sub-205,1,stroop_test,,
,,,,63.0,3.0,5.0,,,,,,,,,,,,,rot,red,r,1.0,r,1.0,0.6272379590009223,,,,,,,,,,5.0,3.0,63.0,0.0,277.941791833,,,,,,,,,,,,,,,,,277.93603820799945,278.2826966249995,279.0704951250009,279.06722145800086,,,,,,,,,,,,,,,,,,,,,,,,,,,,,,,,,,,279.06746233299964,279.0704951250009,279.0704951250009,279.7024605000006,r,1.0,0.6272379590009223,,,,,,sub-205,1,stroop_test,,
,,,,64.0,4.0,5.0,,,,,,,,,,,,,rot,red,r,1.0,r,1.0,0.422202166999341,,,,,,,,,,5.0,4.0,64.0,1.0,279.70866150000074,,,,,,,,,,,,,,,,,279.7027551250012,280.49941870800103,281.2894886670001,281.2852317079996,,,,,,,,,,,,,,,,,,,,,,,,,,,,,,,,,,,281.28549654200106,281.2894886670001,281.2894886670001,281.7190379170006,r,1.0,0.422202166999341,,,,,,sub-205,1,stroop_test,,
,,,,65.0,5.0,5.0,,,,,,,,,,,,,gelb,blue,b,0.0,b,1.0,0.393841874998543,,,,,,,,,,5.0,5.0,65.0,9.0,281.72480712499964,,,,,,,,,,,,,,,,,281.7193142079996,282.9158704170004,283.7077119580008,283.7016316669997,,,,,,,,,,,,,,,,,,,,,,,,,,,,,,,,,,,283.70356045799963,283.7077119580008,283.7077119580008,284.1029764169998,b,1.0,0.393841874998543,,,,,,sub-205,1,stroop_test,,
,,,,66.0,6.0,5.0,,,,,,,,,,,,,gelb,yellow,g,1.0,g,1.0,0.4516690410000592,,,,,,,,,,5.0,6.0,66.0,11.0,284.1065031670005,,,,,,,,,,,,,,,,,284.10323874999995,284.89930070800074,285.6892912500007,285.6850573330012,,,,,,,,,,,,,,,,,,,,,,,,,,,,,,,,,,,285.6853297079997,285.6892912500007,285.6892912500007,286.15348458300105,g,1.0,0.4516690410000592,,,,,,sub-205,1,stroop_test,,
,,,,67.0,7.0,5.0,,,,,,,,,,,,,rot,blue,b,0.0,b,1.0,0.529531959000451,,,,,,,,,,5.0,7.0,67.0,2.0,286.159416167,,,,,,,,,,,,,,,,,286.1537778330003,287.3495015000008,288.1410317080008,288.134896167001,,,,,,,,,,,,,,,,,,,,,,,,,,,,,,,,,,,288.13675433299977,288.1410317080008,288.1410317080008,288.674766958,b,1.0,0.529531959000451,,,,,,sub-205,1,stroop_test,,
,,,,68.0,8.0,5.0,,,,,,,,,,,,,gelb,yellow,g,1.0,g,1.0,0.7076748330000555,,,,,,,,,,5.0,8.0,68.0,10.0,288.6815127919999,,,,,,,,,,,,,,,,,288.6750339579994,288.7715012919998,289.56491562500014,289.55723845800094,,,,,,,,,,,,,,,,,,,,,,,,,,,,,,,,,,,289.55910083300114,289.56491562500014,289.56491562500014,290.2749630830004,g,1.0,0.7076748330000555,,,,,,sub-205,1,stroop_test,,
,,,,69.0,9.0,5.0,,,,,,,,,,,,,blau,blue,b,1.0,b,1.0,0.7062180839984649,,,,,,,,,,5.0,9.0,69.0,5.0,290.2816128329996,,,,,,,,,,,,,,,,,290.2752525420001,291.0718649999999,291.8649899579996,291.85714870800075,,,,,,,,,,,,,,,,,,,,,,,,,,,,,,,,,,,291.8589977499996,291.8649899579996,291.8649899579996,292.57469304200094,b,1.0,0.7062180839984649,,,,,,sub-205,1,stroop_test,,
,,,,70.0,10.0,5.0,,,,,,,,,,,,,blau,yellow,g,0.0,g,1.0,0.7679196250010136,,,,,,,,,,5.0,10.0,70.0,7.0,292.58143720800035,,,,,,,,,,,,,,,,,292.57496504200026,293.77215875,294.5658842499997,294.5568466250006,,,,,,,,,,,,,,,,,,,,,,,,,,,,,,,,,,,294.55711995800084,294.5658842499997,294.5658842499997,295.3357836249997,g,1.0,0.7679196250010136,,,,,,sub-205,1,stroop_test,,
,,,,71.0,11.0,5.0,,,,,,,,,,,,,gelb,red,r,0.0,r,1.0,0.4946495839994895,,,,,,,,,,5.0,11.0,71.0,8.0,295.34181875000104,,,,,,,,,,,,,,,,,295.3360783749995,295.6828198330004,296.47471162500005,296.4685591670004,,,,,,,,,,,,,,,,,,,,,,,,,,,,,,,,,,,296.4704809579998,296.47471162500005,296.47471162500005,296.9743968750008,r,1.0,0.4946495839994895,,,,,,sub-205,1,stroop_test,,
,,,,72.0,0.0,6.0,,,,,,,,,,,,,rot,blue,b,0.0,b,1.0,0.5299244590005401,,,,,,,,,,6.0,0.0,72.0,2.0,296.98173704200053,,,,,,,,,,,,,,,,,296.9746583750002,297.3216036249996,298.1148371670006,298.107216583001,,,,,,,,,,,,,,,,,,,,,,,,,,,,,,,,,,,298.1090318750012,298.1148371670006,298.1148371670006,298.65206766700067,b,1.0,0.5299244590005401,,,,,,sub-205,1,stroop_test,,
,,,,73.0,1.0,6.0,,,,,,,,,,,,,blau,yellow,g,0.0,g,1.0,0.610517291999713,,,,,,,,,,6.0,1.0,73.0,7.0,298.65774237500045,,,,,,,,,,,,,,,,,298.65232724999987,298.9994230000011,299.7911214579999,299.7847876249998,,,,,,,,,,,,,,,,,,,,,,,,,,,,,,,,,,,299.7868419999995,299.7911214579999,299.7911214579999,300.4030236670005,g,1.0,0.610517291999713,,,,,,sub-205,1,stroop_test,,
,,,,74.0,2.0,6.0,,,,,,,,,,,,,rot,yellow,g,0.0,g,1.0,0.6533180420010467,,,,,,,,,,6.0,2.0,74.0,3.0,300.40676854199955,,,,,,,,,,,,,,,,,300.40330662499946,300.49910199999977,301.29147504200046,301.2851545829999,,,,,,,,,,,,,,,,,,,,,,,,,,,,,,,,,,,301.2872072499995,301.29147504200046,301.29147504200046,301.9523375000008,g,1.0,0.6533180420010467,,,,,,sub-205,1,stroop_test,,
,,,,75.0,3.0,6.0,,,,,,,,,,,,,gelb,yellow,g,1.0,g,1.0,0.4197788750007021,,,,,,,,,,6.0,3.0,75.0,11.0,301.95832512500056,,,,,,,,,,,,,,,,,301.95261933300026,302.74917641700085,303.541777583001,303.5352477920005,,,,,,,,,,,,,,,,,,,,,,,,,,,,,,,,,,,303.5374879579995,303.541777583001,303.541777583001,303.96895162500005,g,1.0,0.4197788750007021,,,,,,sub-205,1,stroop_test,,
,,,,76.0,4.0,6.0,,,,,,,,,,,,,blau,red,r,0.0,r,1.0,0.3460010420003527,,,,,,,,,,6.0,4.0,76.0,4.0,303.9748223330007,,,,,,,,,,,,,,,,,303.9692367500011,305.16576104200067,305.9579756250005,305.9516941250004,,,,,,,,,,,,,,,,,,,,,,,,,,,,,,,,,,,305.9537049169994,305.9579756250005,305.9579756250005,306.3079610420009,r,1.0,0.3460010420003527,,,,,,sub-205,1,stroop_test,,
,,,,77.0,5.0,6.0,,,,,,,,,,,,,gelb,red,r,0.0,r,1.0,0.3641573749991948,,,,,,,,,,6.0,5.0,77.0,8.0,306.3147138330005,,,,,,,,,,,,,,,,,306.3082387499999,306.6553376669999,307.44822079200094,307.44046629200056,,,,,,,,,,,,,,,,,,,,,,,,,,,,,,,,,,,307.44230874999994,307.44822079200094,307.44822079200094,307.8187058330004,r,1.0,0.3641573749991948,,,,,,sub-205,1,stroop_test,,
,,,,78.0,6.0,6.0,,,,,,,,,,,,,gelb,yellow,g,1.0,g,1.0,0.585964583000532,,,,,,,,,,6.0,6.0,78.0,10.0,307.8245351250007,,,,,,,,,,,,,,,,,307.8189894999996,307.9157783749997,308.7055840000012,308.7013435000008,,,,,,,,,,,,,,,,,,,,,,,,,,,,,,,,,,,308.7015948749995,308.7055840000012,308.7055840000012,309.3020575419996,g,1.0,0.585964583000532,,,,,,sub-205,1,stroop_test,,
,,,,79.0,7.0,6.0,,,,,,,,,,,,,gelb,blue,b,0.0,b,1.0,0.5107469579997996,,,,,,,,,,6.0,7.0,79.0,9.0,309.308060667001,,,,,,,,,,,,,,,,,309.3023505000001,310.09935249999944,310.8893184999997,310.8850081670007,,,,,,,,,,,,,,,,,,,,,,,,,,,,,,,,,,,310.88531158300066,310.8893184999997,310.8893184999997,311.4021263750001,b,1.0,0.5107469579997996,,,,,,sub-205,1,stroop_test,,
,,,,80.0,8.0,6.0,,,,,,,,,,,,,blau,blue,b,1.0,b,1.0,0.4773183750003227,,,,,,,,,,6.0,8.0,80.0,6.0,311.4080850829996,,,,,,,,,,,,,,,,,311.4024075420002,312.5992900830006,313.3908096670002,313.38483183300013,,,,,,,,,,,,,,,,,,,,,,,,,,,,,,,,,,,313.38663845799965,313.3908096670002,313.3908096670002,313.8751303330009,b,1.0,0.4773183750003227,,,,,,sub-205,1,stroop_test,,
,,,,81.0,9.0,6.0,,,,,,,,,,,,,rot,red,r,1.0,r,1.0,0.5197437079987139,,,,,,,,,,6.0,9.0,81.0,0.0,313.8815185420008,,,,,,,,,,,,,,,,,313.8754048330011,315.0720140829999,315.86458524999944,315.8576105000011,,,,,,,,,,,,,,,,,,,,,,,,,,,,,,,,,,,315.8594127920005,315.86458524999944,315.86458524999944,316.38573308299965,r,1.0,0.5197437079987139,,,,,,sub-205,1,stroop_test,,
,,,,82.0,10.0,6.0,,,,,,,,,,,,,blau,blue,b,1.0,b,1.0,0.7940231669999775,,,,,,,,,,6.0,10.0,82.0,5.0,316.38942099999986,,,,,,,,,,,,,,,,,316.386018833,316.48233679199984,317.2741205830007,317.26811454200106,,,,,,,,,,,,,,,,,,,,,,,,,,,,,,,,,,,317.2699924999997,317.2741205830007,317.2741205830007,318.0744439170012,b,1.0,0.7940231669999775,,,,,,sub-205,1,stroop_test,,
,,,,83.0,11.0,6.0,,,,,,,,,,,,,rot,red,r,1.0,r,1.0,0.6139030840004125,,,,,,,,,,6.0,11.0,83.0,1.0,318.0813116669997,,,,,,,,,,,,,,,,,318.0747205420012,319.27122470799986,320.06460999999945,320.05704658300056,,,,,,,,,,,,,,,,,,,,,,,,,,,,,,,,,,,320.05906716699974,320.06460999999945,320.06460999999945,320.6854676670009,r,1.0,0.6139030840004125,,,,,,sub-205,1,stroop_test,,
,,,,84.0,0.0,7.0,,,,,,,,,,,,,blau,blue,b,1.0,b,1.0,0.5740771669989044,,,,,,,,,,7.0,0.0,84.0,6.0,320.69126400000096,,,,,,,,,,,,,,,,,320.68573545800064,321.032457542,321.82428679199984,321.81826108300083,,,,,,,,,,,,,,,,,,,,,,,,,,,,,,,,,,,321.8201811250001,321.82428679199984,321.82428679199984,322.402202583,b,1.0,0.5740771669989044,,,,,,sub-205,1,stroop_test,,
,,,,85.0,1.0,7.0,,,,,,,,,,,,,blau,blue,b,1.0,b,1.0,0.4933948750003765,,,,,,,,,,7.0,1.0,85.0,5.0,322.4080833749995,,,,,,,,,,,,,,,,,322.40247954200095,322.4990014169998,323.28964879200066,323.2852893750005,,,,,,,,,,,,,,,,,,,,,,,,,,,,,,,,,,,323.2855252499994,323.28964879200066,323.28964879200066,323.7856395830004,b,1.0,0.4933948750003765,,,,,,sub-205,1,stroop_test,,
,,,,86.0,2.0,7.0,,,,,,,,,,,,,rot,red,r,1.0,r,1.0,0.5862117920005403,,,,,,,,,,7.0,2.0,86.0,0.0,323.7915552079994,,,,,,,,,,,,,,,,,323.78592458300045,324.9822362920004,325.77463937500033,325.76837375000105,,,,,,,,,,,,,,,,,,,,,,,,,,,,,,,,,,,325.7703185829996,325.77463937500033,325.77463937500033,326.367890083,r,1.0,0.5862117920005403,,,,,,sub-205,1,stroop_test,,
,,,,87.0,3.0,7.0,,,,,,,,,,,,,blau,red,r,0.0,r,1.0,0.5432400410008995,,,,,,,,,,7.0,3.0,87.0,4.0,326.37195008300114,,,,,,,,,,,,,,,,,326.3681134580001,327.1656749169997,327.95711445800043,327.951153375001,,,,,,,,,,,,,,,,,,,,,,,,,,,,,,,,,,,327.9529409170009,327.95711445800043,327.95711445800043,328.5021768330007,r,1.0,0.5432400410008995,,,,,,sub-205,1,stroop_test,,
,,,,88.0,4.0,7.0,,,,,,,,,,,,,gelb,blue,b,0.0,b,1.0,0.5764242919995013,,,,,,,,,,7.0,4.0,88.0,9.0,328.5059020000008,,,,,,,,,,,,,,,,,328.5024499579995,329.298996042,330.09104387499974,330.08480845800113,,,,,,,,,,,,,,,,,,,,,,,,,,,,,,,,,,,330.0867950000011,330.09104387499974,330.09104387499974,330.66879520800103,b,1.0,0.5764242919995013,,,,,,sub-205,1,stroop_test,,
,,,,89.0,5.0,7.0,,,,,,,,,,,,,rot,blue,b,0.0,b,1.0,0.4958681250009249,,,,,,,,,,7.0,5.0,89.0,2.0,330.6723713749998,,,,,,,,,,,,,,,,,330.66905208299977,331.46576087500034,332.2579351250006,332.2517497919998,,,,,,,,,,,,,,,,,,,,,,,,,,,,,,,,,,,332.25366345800103,332.2579351250006,332.2579351250006,332.75791687499986,b,1.0,0.4958681250009249,,,,,,sub-205,1,stroop_test,,
,,,,90.0,6.0,7.0,,,,,,,,,,,,,gelb,yellow,g,1.0,g,1.0,0.5306082500010234,,,,,,,,,,7.0,6.0,90.0,10.0,332.76449395800046,,,,,,,,,,,,,,,,,332.758179542001,333.5552153330009,334.3481057500012,334.3402147079996,,,,,,,,,,,,,,,,,,,,,,,,,,,,,,,,,,,334.3422421670002,334.3481057500012,334.3481057500012,334.8853495830008,g,1.0,0.5306082500010234,,,,,,sub-205,1,stroop_test,,
,,,,91.0,7.0,7.0,,,,,,,,,,,,,gelb,yellow,g,1.0,g,1.0,0.4398264160008693,,,,,,,,,,7.0,7.0,91.0,11.0,334.8913265829997,,,,,,,,,,,,,,,,,334.88563625000097,335.6821369170011,336.47247795800104,336.4681424999999,,,,,,,,,,,,,,,,,,,,,,,,,,,,,,,,,,,336.4684655830006,336.47247795800104,336.47247795800104,336.9188093749999,g,1.0,0.4398264160008693,,,,,,sub-205,1,stroop_test,,
,,,,92.0,8.0,7.0,,,,,,,,,,,,,rot,red,r,1.0,r,1.0,0.3679542090012546,,,,,,,,,,7.0,8.0,92.0,1.0,336.92508091700074,,,,,,,,,,,,,,,,,336.9191652499994,338.1158067920005,338.90775462500096,338.9012107920007,,,,,,,,,,,,,,,,,,,,,,,,,,,,,,,,,,,338.90347762500096,338.90775462500096,338.90775462500096,339.2853310829996,r,1.0,0.3679542090012546,,,,,,sub-205,1,stroop_test,,
,,,,93.0,9.0,7.0,,,,,,,,,,,,,rot,yellow,g,0.0,g,1.0,0.8955156669999269,,,,,,,,,,7.0,9.0,93.0,3.0,339.2913655000011,,,,,,,,,,,,,,,,,339.2856240830006,339.3823929170012,340.172086083001,340.1678918329999,,,,,,,,,,,,,,,,,,,,,,,,,,,,,,,,,,,340.1681084169996,340.172086083001,340.172086083001,341.06898512500084,g,1.0,0.8955156669999269,,,,,,sub-205,1,stroop_test,,
,,,,94.0,10.0,7.0,,,,,,,,,,,,,blau,yellow,g,0.0,g,1.0,0.9605162080006266,,,,,,,,,,7.0,10.0,94.0,7.0,341.0727795420007,,,,,,,,,,,,,,,,,341.0692766249995,341.8655366670009,342.6569858330004,342.6510417080008,,,,,,,,,,,,,,,,,,,,,,,,,,,,,,,,,,,342.6529732079998,342.6569858330004,342.6569858330004,343.6187346250008,g,1.0,0.9605162080006266,,,,,,sub-205,1,stroop_test,,
,,,,95.0,11.0,7.0,,,,,,,,,,,,,gelb,red,r,0.0,r,1.0,0.8770382920010888,,,,,,,,,,7.0,11.0,95.0,8.0,343.6225479170007,,,,,,,,,,,,,,,,,343.6190190420002,344.8155230829998,345.6072549170003,345.6010862920011,,,,,,,,,,,,,,,,,,,,,,,,,,,,,,,,,,,345.6030579170001,345.6072549170003,345.6072549170003,346.48568041699946,r,1.0,0.8770382920010888,,,,,,sub-205,1,stroop_test,,
,,,,96.0,0.0,8.0,,,,,,,,,,,,,rot,blue,b,0.0,b,1.0,0.6153321249985311,,,,,,,,,,8.0,0.0,96.0,2.0,346.4893930420003,,,,,,,,,,,,,,,,,346.48596516699945,346.58219904200087,347.37414445800096,347.36802891700063,,,,,,,,,,,,,,,,,,,,,,,,,,,,,,,,,,,347.3698591249995,347.37414445800096,347.37414445800096,347.9911010830001,b,1.0,0.6153321249985311,,,,,,sub-205,1,stroop_test,,
,,,,97.0,1.0,8.0,,,,,,,,,,,,,blau,blue,b,1.0,b,1.0,0.4220552919996407,,,,,,,,,,8.0,1.0,97.0,6.0,347.99768725000104,,,,,,,,,,,,,,,,,347.99137787499967,348.087829125001,348.88196945799973,348.8729395419996,,,,,,,,,,,,,,,,,,,,,,,,,,,,,,,,,,,348.87479829199947,348.88196945799973,348.88196945799973,349.30763900000056,b,1.0,0.4220552919996407,,,,,,sub-205,1,stroop_test,,
,,,,98.0,2.0,8.0,,,,,,,,,,,,,rot,red,r,1.0,r,1.0,0.5455107919988222,,,,,,,,,,8.0,2.0,98.0,1.0,349.3144170830001,,,,,,,,,,,,,,,,,349.3079137500008,349.4048406670008,350.1977833330002,350.1903432920008,,,,,,,,,,,,,,,,,,,,,,,,,,,,,,,,,,,350.1921651249995,350.1977833330002,350.1977833330002,350.7518574170008,r,1.0,0.5455107919988222,,,,,,sub-205,1,stroop_test,,
,,,,99.0,3.0,8.0,,,,,,,,,,,,,gelb,blue,b,0.0,b,1.0,0.569045542000822,,,,,,,,,,8.0,3.0,99.0,9.0,350.7576532080002,,,,,,,,,,,,,,,,,350.752118583001,351.9489267500012,352.7408017500002,352.7346768749994,,,,,,,,,,,,,,,,,,,,,,,,,,,,,,,,,,,352.7365341670011,352.7408017500002,352.7408017500002,353.31831695800065,b,1.0,0.569045542000822,,,,,,sub-205,1,stroop_test,,
,,,,100.0,4.0,8.0,,,,,,,,,,,,,gelb,yellow,g,1.0,g,1.0,0.4471372080006404,,,,,,,,,,8.0,4.0,100.0,10.0,353.32424804199945,,,,,,,,,,,,,,,,,353.3185957500009,353.4153556250003,354.20557850000114,354.2012563749995,,,,,,,,,,,,,,,,,,,,,,,,,,,,,,,,,,,354.20154062500114,354.20557850000114,354.20557850000114,354.65745962500114,g,1.0,0.4471372080006404,,,,,,sub-205,1,stroop_test,,
,,,,101.0,5.0,8.0,,,,,,,,,,,,,rot,yellow,g,0.0,g,1.0,0.4795906660001492,,,,,,,,,,8.0,5.0,101.0,3.0,354.6646012500005,,,,,,,,,,,,,,,,,354.6577172920006,355.85498349999943,356.6478590420011,356.6399848330002,,,,,,,,,,,,,,,,,,,,,,,,,,,,,,,,,,,356.64181666700097,356.6478590420011,356.6478590420011,357.13490575000105,g,1.0,0.4795906660001492,,,,,,sub-205,1,stroop_test,,
,,,,102.0,6.0,8.0,,,,,,,,,,,,,rot,red,r,1.0,r,1.0,0.5618535000012344,,,,,,,,,,8.0,6.0,102.0,0.0,357.14093112500086,,,,,,,,,,,,,,,,,357.1351825420006,357.23208670799977,358.0216920420007,358.01745287499944,,,,,,,,,,,,,,,,,,,,,,,,,,,,,,,,,,,358.01771895800084,358.0216920420007,358.0216920420007,358.5850697500009,r,1.0,0.5618535000012344,,,,,,sub-205,1,stroop_test,,
,,,,103.0,7.0,8.0,,,,,,,,,,,,,blau,yellow,g,0.0,g,1.0,0.671123041998726,,,,,,,,,,8.0,7.0,103.0,7.0,358.5887347500011,,,,,,,,,,,,,,,,,358.5853497500011,359.3822645420005,360.17413770799976,360.1681394580009,,,,,,,,,,,,,,,,,,,,,,,,,,,,,,,,,,,360.170002750001,360.17413770799976,360.17413770799976,360.8517701670007,g,1.0,0.671123041998726,,,,,,sub-205,1,stroop_test,,
,,,,104.0,8.0,8.0,,,,,,,,,,,,,blau,red,r,0.0,r,1.0,0.6510876669999561,,,,,,,,,,8.0,8.0,104.0,4.0,360.85779037500106,,,,,,,,,,,,,,,,,360.8520570420005,362.0489332920006,362.8385764579998,362.8343220420011,,,,,,,,,,,,,,,,,,,,,,,,,,,,,,,,,,,362.8345809170005,362.8385764579998,362.8385764579998,363.49103408300107,r,1.0,0.6510876669999561,,,,,,sub-205,1,stroop_test,,
,,,,105.0,9.0,8.0,,,,,,,,,,,,,gelb,red,r,0.0,r,1.0,0.6156843330008996,,,,,,,,,,8.0,9.0,105.0,8.0,363.4987333749996,,,,,,,,,,,,,,,,,363.4913114579995,363.8383052499994,364.6313193330007,364.623397542,,,,,,,,,,,,,,,,,,,,,,,,,,,,,,,,,,,364.6252223330012,364.6313193330007,364.6313193330007,365.2517070419999,r,1.0,0.6156843330008996,,,,,,sub-205,1,stroop_test,,
,,,,106.0,10.0,8.0,,,,,,,,,,,,,blau,blue,b,1.0,b,1.0,0.5691980840001634,,,,,,,,,,8.0,10.0,106.0,5.0,365.2574980419995,,,,,,,,,,,,,,,,,365.2519864999995,365.3489214580004,366.140755542001,366.1347034579994,,,,,,,,,,,,,,,,,,,,,,,,,,,,,,,,,,,366.1365697500005,366.140755542001,366.140755542001,366.7184837500008,b,1.0,0.5691980840001634,,,,,,sub-205,1,stroop_test,,
,,,,107.0,11.0,8.0,,,,,,,,,,,,,gelb,yellow,g,1.0,g,1.0,0.7301296250006999,,,,,,,,,,8.0,11.0,107.0,11.0,366.7244040000005,,,,,,,,,,,,,,,,,366.718770417001,366.8153756249994,367.60721899999953,367.6011805830003,,,,,,,,,,,,,,,,,,,,,,,,,,,,,,,,,,,367.6030267919996,367.60721899999953,367.60721899999953,368.34089420800046,g,1.0,0.7301296250006999,,,,,,sub-205,1,stroop_test,,
,,,,108.0,0.0,9.0,,,,,,,,,,,,,gelb,blue,b,0.0,b,1.0,0.7853646250005113,,,,,,,,,,9.0,0.0,108.0,9.0,368.3477028329999,,,,,,,,,,,,,,,,,368.3411645420001,368.6882044169997,369.4820709169999,369.4731990420005,,,,,,,,,,,,,,,,,,,,,,,,,,,,,,,,,,,369.4734114170005,369.4820709169999,369.4820709169999,370.268734792,b,1.0,0.7853646250005113,,,,,,sub-205,1,stroop_test,,
,,,,109.0,1.0,9.0,,,,,,,,,,,,,rot,yellow,g,0.0,g,1.0,0.5803159579991188,,,,,,,,,,9.0,1.0,109.0,3.0,370.2724225830007,,,,,,,,,,,,,,,,,370.2690150420003,370.3655196670006,371.158021792,371.1515160830004,,,,,,,,,,,,,,,,,,,,,,,,,,,,,,,,,,,371.1536018330007,371.158021792,371.158021792,371.74047616700045,g,1.0,0.5803159579991188,,,,,,sub-205,1,stroop_test,,
,,,,110.0,2.0,9.0,,,,,,,,,,,,,blau,red,r,0.0,r,1.0,0.4971107080000365,,,,,,,,,,9.0,2.0,110.0,4.0,371.747580583,,,,,,,,,,,,,,,,,371.74075370799983,372.93801041699953,373.7310058330004,373.7232227919994,,,,,,,,,,,,,,,,,,,,,,,,,,,,,,,,,,,373.725118417,373.7310058330004,373.7310058330004,374.2349922499998,r,1.0,0.4971107080000365,,,,,,sub-205,1,stroop_test,,
,,,,111.0,3.0,9.0,,,,,,,,,,,,,gelb,yellow,g,1.0,g,1.0,0.5849129160014854,,,,,,,,,,9.0,3.0,111.0,10.0,374.2409981670007,,,,,,,,,,,,,,,,,374.2352814170008,374.3320033330001,375.1240780420012,375.1179877920004,,,,,,,,,,,,,,,,,,,,,,,,,,,,,,,,,,,375.11984895800015,375.1240780420012,375.1240780420012,375.7182412500006,g,1.0,0.5849129160014854,,,,,,sub-205,1,stroop_test,,
,,,,112.0,4.0,9.0,,,,,,,,,,,,,blau,blue,b,1.0,b,1.0,0.6267826250004873,,,,,,,,,,9.0,4.0,112.0,6.0,375.7239767499996,,,,,,,,,,,,,,,,,375.718504542001,376.515336208,377.30723633300113,377.30106262499976,,,,,,,,,,,,,,,,,,,,,,,,,,,,,,,,,,,377.30293424999945,377.30723633300113,377.30723633300113,377.9354153330005,b,1.0,0.6267826250004873,,,,,,sub-205,1,stroop_test,,
,,,,113.0,5.0,9.0,,,,,,,,,,,,,blau,yellow,g,0.0,g,1.0,0.6218149169999379,,,,,,,,,,9.0,5.0,113.0,7.0,377.9390045420005,,,,,,,,,,,,,,,,,377.9356924170006,378.73220879200016,379.5220999169997,379.517778083,,,,,,,,,,,,,,,,,,,,,,,,,,,,,,,,,,,379.5180207499998,379.5220999169997,379.5220999169997,380.1515980000004,g,1.0,0.6218149169999379,,,,,,sub-205,1,stroop_test,,
,,,,114.0,6.0,9.0,,,,,,,,,,,,,rot,blue,b,0.0,b,1.0,0.425048416998834,,,,,,,,,,9.0,6.0,114.0,2.0,380.1573513330004,,,,,,,,,,,,,,,,,380.1518850419998,380.9486362919997,381.739886708001,381.7339005419999,,,,,,,,,,,,,,,,,,,,,,,,,,,,,,,,,,,381.7358561250003,381.739886708001,381.739886708001,382.168260208,b,1.0,0.425048416998834,,,,,,sub-205,1,stroop_test,,
,,,,115.0,7.0,9.0,,,,,,,,,,,,,rot,red,r,1.0,b,0.0,0.3226926669995009,,,,,,,,,,9.0,7.0,115.0,1.0,382.174210000001,,,,,,,,,,,,,,,,,382.16853258300034,382.5151697500005,383.30535645800046,383.3011035,,,,,,,,,,,,,,,,,,,,,,,,,,,,,,,,,,,383.3013696670005,383.30535645800046,383.30535645800046,383.6349720830003,b,0.0,0.3226926669995009,,,,,,sub-205,1,stroop_test,,
,,,,116.0,8.0,9.0,,,,,,,,,,,,,gelb,yellow,g,1.0,g,1.0,0.5557521250011632,,,,,,,,,,9.0,8.0,116.0,11.0,383.6408765420001,,,,,,,,,,,,,,,,,383.6352582920008,384.4319984169997,385.2235154999999,385.2175366669999,,,,,,,,,,,,,,,,,,,,,,,,,,,,,,,,,,,385.21933208300106,385.2235154999999,385.2235154999999,385.7849315000003,g,1.0,0.5557521250011632,,,,,,sub-205,1,stroop_test,,
,,,,117.0,9.0,9.0,,,,,,,,,,,,,blau,blue,b,1.0,r,0.0,0.8312837920002494,,,,,,,,,,9.0,9.0,117.0,5.0,385.7907498330005,,,,,,,,,,,,,,,,,385.7852208330005,385.8820305000008,386.673745125001,386.667752542,,,,,,,,,,,,,,,,,,,,,,,,,,,,,,,,,,,386.6696027920007,386.673745125001,386.673745125001,387.5067565000009,r,0.0,0.8312837920002494,,,,,,sub-205,1,stroop_test,,
,,,,118.0,10.0,9.0,,,,,,,,,,,,,gelb,red,r,0.0,r,1.0,0.6545281670005352,,,,,,,,,,9.0,10.0,118.0,8.0,387.51516470800016,,,,,,,,,,,,,,,,,387.50704312500056,387.60430066700064,388.39752862500063,388.3898440419998,,,,,,,,,,,,,,,,,,,,,,,,,,,,,,,,,,,388.39186795800015,388.39752862500063,388.39752862500063,389.05740541700106,r,1.0,0.6545281670005352,,,,,,sub-205,1,stroop_test,,
,,,,119.0,11.0,9.0,,,,,,,,,,,,,rot,red,r,1.0,r,1.0,0.5651827080000658,,,,,,,,,,9.0,11.0,119.0,0.0,389.0641337500001,,,,,,,,,,,,,,,,,389.057678000001,389.4042943330005,390.1974514169997,390.190478292001,,,,,,,,,,,,,,,,,,,,,,,,,,,,,,,,,,,390.19232937500055,390.1974514169997,390.1974514169997,390.76854020800056,r,1.0,0.5651827080000658,,,,,,sub-205,1,stroop_test,,
,,,,,,,,,,,,,,,,,,,,,,,,,,,,,,,,,,,,,,,,,,,,,,,,,,,,,,,,,,,,,,,,,,,,,,,,,,,,,,,,,,,,,,,,,,,,,,,,,,,,,,390.76867562500047,390.775109917,395.77063691700096,395.7674895420005,sub-205,1,stroop_test,,
