wordCTK,colorCTK,corrAnsCTK,congruentCTK,thisN,thisTrialN,thisRepN,keyResp_CTK.keys,keyResp_CTK.corr,keyResp_CTK.rt,keyResp_CTK.duration,wordPractice,colorPractice,corrAnsPractice,congruentPractice,respPractice.keys,respPractice.corr,respPractice.rt,respPractice.duration,word,color,corrAns,congruent,keyResp_test_run.keys,keyResp_test_run.corr,keyResp_test_run.rt,keyResp_test_run.duration,trials_CTK.thisRepN,trials_CTK.thisTrialN,trials_CTK.thisN,trials_CTK.thisIndex,trials_practice.thisRepN,trials_practice.thisTrialN,trials_practice.thisN,trials_practice.thisIndex,trials_test.thisRepN,trials_test.thisTrialN,trials_test.thisN,trials_test.thisIndex,thisRow.t,notes,instruction.started,instr_text.started,instr_image.started,instr_resp.started,instruction.stopped,instr_resp.keys,instr_resp.rt,instr_resp.duration,instr_color_to_key.started,instr_ctk.started,resp_ctk.started,instr_color_to_key.stopped,resp_ctk.keys,resp_ctk.rt,resp_ctk.duration,ITI.started,fixcross.started,fixcross.stopped,ITI.stopped,color_to_key_run.started,stimulus_CTK.started,keyResp_CTK.started,color_to_key_run.stopped,trials_CTK.keyResp_CTK.keys,trials_CTK.keyResp_CTK.corr,trials_CTK.keyResp_CTK.rt,trials_CTK.keyResp_CTK.duration,instr_practice.started,instr_practice_text.started,instr_practice_resp.started,instr_practice.stopped,instr_practice_resp.keys,instr_practice_resp.rt,instr_practice_resp.duration,practice_run.started,stimulus_practice.started,respPractice.started,practice_run.stopped,trials_practice.respPractice.keys,trials_practice.respPractice.corr,trials_practice.respPractice.rt,trials_practice.respPractice.duration,feedback.started,textFeedback.started,feedback.stopped,textFeedback.stopped,instr_test.started,instr_test_text.started,instr_test_resp.started,instr_test.stopped,instr_test_resp.keys,instr_test_resp.rt,instr_test_resp.duration,test_run.started,stimulus_test_run.started,keyResp_test_run.started,test_run.stopped,trials_test.keyResp_test_run.keys,trials_test.keyResp_test_run.corr,trials_test.keyResp_test_run.rt,trials_test.keyResp_test_run.duration,goodbye.started,textGoodbye.started,textGoodbye.stopped,goodbye.stopped,participant,session,expName,frameRate,Unnamed: 113
,,,,,,,,,,,,,,,,,,,,,,,,,,,,,,,,,,,,,,,,,0.0077874999999494,0.0296351669999239,0.0296351669999239,0.0296351669999239,29.057165583999904,space,29.02489166600003,,,,,,,,,,,,,,,,,,,,,,,,,,,,,,,,,,,,,,,,,,,,,,,,,,,,,,,,,,,sub-118,1,stroop_test,,
,,,,,,,,,,,,,,,,,,,,,,,,,,,,,,,,,,,,,,,,,,,,,,,,,29.05727833399999,29.069499541999903,29.069499541999903,35.66465379199997,space,6.587500874999932,,,,,,,,,,,,,,,,,,,,,,,,,,,,,,,,,,,,,,,,,,,,,,,,,,,,sub-118,1,stroop_test,,
test,yellow,g,1.0,0.0,0.0,0.0,g,1.0,2.0212810000000445,,,,,,,,,,,,,,,,,,0.0,0.0,0.0,1.0,,,,,,,,,35.693833875,,,,,,,,,,,,,,,,,35.677500041999906,36.86912674999997,37.670509249999895,37.654779583999925,37.66217804199994,37.670509249999895,37.670509249999895,39.70009874999994,g,1.0,2.0212810000000445,,,,,,,,,,,,,,,,,,,,,,,,,,,,,,,,,,,,,,,,sub-118,1,stroop_test,,
test,red,r,1.0,1.0,1.0,0.0,r,1.0,1.3114088749999837,,,,,,,,,,,,,,,,,,0.0,1.0,1.0,0.0,,,,,,,,,39.710811917,,,,,,,,,,,,,,,,,39.70074733399997,40.49759449999999,41.290725416999976,41.28179391699996,41.28281541699994,41.290725416999976,41.290725416999976,42.60627483399992,r,1.0,1.3114088749999837,,,,,,,,,,,,,,,,,,,,,,,,,,,,,,,,,,,,,,,,sub-118,1,stroop_test,,
test,blue,b,1.0,2.0,2.0,0.0,b,1.0,0.5564150410000366,,,,,,,,,,,,,,,,,,0.0,2.0,2.0,2.0,,,,,,,,,42.61658533399998,,,,,,,,,,,,,,,,,42.60680662499999,43.80423691699991,44.59642758399991,44.58806166699992,44.588758208999934,44.59642758399991,44.59642758399991,45.15577474999998,b,1.0,0.5564150410000366,,,,,,,,,,,,,,,,,,,,,,,,,,,,,,,,,,,,,,,,sub-118,1,stroop_test,,
test,blue,b,1.0,3.0,0.0,1.0,b,1.0,0.643348082999978,,,,,,,,,,,,,,,,,,1.0,0.0,3.0,2.0,,,,,,,,,45.16657333399996,,,,,,,,,,,,,,,,,45.156335292,45.95445966699992,46.75728033399992,46.74831074999997,46.74922979199994,46.75728033399992,46.75728033399992,47.4042220419999,b,1.0,0.643348082999978,,,,,,,,,,,,,,,,,,,,,,,,,,,,,,,,,,,,,,,,sub-118,1,stroop_test,,
test,yellow,g,1.0,4.0,1.0,1.0,g,1.0,0.713941707999993,,,,,,,,,,,,,,,,,,1.0,1.0,4.0,1.0,,,,,,,,,47.43032870899992,,,,,,,,,,,,,,,,,47.40475287499999,47.49734687499995,48.29012812499991,48.281465458999946,48.2824052499999,48.29012812499991,48.29012812499991,49.006754,g,1.0,0.713941707999993,,,,,,,,,,,,,,,,,,,,,,,,,,,,,,,,,,,,,,,,sub-118,1,stroop_test,,
test,red,r,1.0,5.0,2.0,1.0,r,1.0,0.4141020839999783,,,,,,,,,,,,,,,,,,1.0,2.0,5.0,0.0,,,,,,,,,49.016844499999934,,,,,,,,,,,,,,,,,49.0072792499999,49.3541469999999,50.14632741699995,50.1375160419999,50.1382024589999,50.14632741699995,50.14632741699995,50.56614808399991,r,1.0,0.4141020839999783,,,,,,,,,,,,,,,,,,,,,,,,,,,,,,,,,,,,,,,,sub-118,1,stroop_test,,
test,blue,b,1.0,6.0,0.0,2.0,b,1.0,0.7128266669999448,,,,,,,,,,,,,,,,,,2.0,0.0,6.0,2.0,,,,,,,,,50.57635433399992,,,,,,,,,,,,,,,,,50.56667412499996,50.91417337499991,51.70702999999992,51.69834958399997,51.699253874999954,51.70702999999992,51.70702999999992,52.42238412499989,b,1.0,0.7128266669999448,,,,,,,,,,,,,,,,,,,,,,,,,,,,,,,,,,,,,,,,sub-118,1,stroop_test,,
test,red,r,1.0,7.0,1.0,2.0,r,1.0,1.3076211250000824,,,,,,,,,,,,,,,,,,2.0,1.0,7.0,0.0,,,,,,,,,52.43305420899992,,,,,,,,,,,,,,,,,52.42294870899991,53.22098899999992,54.01289962499993,54.00443816699999,54.00513208399991,54.01289962499993,54.01289962499993,55.33265195899992,r,1.0,1.3076211250000824,,,,,,,,,,,,,,,,,,,,,,,,,,,,,,,,,,,,,,,,sub-118,1,stroop_test,,
test,yellow,g,1.0,8.0,2.0,2.0,g,1.0,1.651243208999972,,,,,,,,,,,,,,,,,,2.0,2.0,8.0,1.0,,,,,,,,,55.3431230839999,,,,,,,,,,,,,,,,,55.333220458999904,55.68068866699991,56.47230808399991,56.46452799999997,56.46513758399999,56.47230808399991,56.47230808399991,58.13121099999989,g,1.0,1.651243208999972,,,,,,,,,,,,,,,,,,,,,,,,,,,,,,,,,,,,,,,,sub-118,1,stroop_test,,
test,red,r,1.0,9.0,0.0,3.0,r,1.0,0.6893277079999507,,,,,,,,,,,,,,,,,,3.0,0.0,9.0,0.0,,,,,,,,,58.141460209,,,,,,,,,,,,,,,,,58.1317282089999,58.470687709,59.26304108399995,59.25433154199993,59.25497841699996,59.26304108399995,59.26304108399995,59.955765499999984,r,1.0,0.6893277079999507,,,,,,,,,,,,,,,,,,,,,,,,,,,,,,,,,,,,,,,,sub-118,1,stroop_test,,
test,blue,b,1.0,10.0,1.0,3.0,b,1.0,0.514319582999974,,,,,,,,,,,,,,,,,,3.0,1.0,10.0,2.0,,,,,,,,,59.966574124999966,,,,,,,,,,,,,,,,,59.95628762499996,60.30464029199993,61.10655166699996,61.09820154199997,61.09915124999998,61.10655166699996,61.10655166699996,61.63253108399999,b,1.0,0.514319582999974,,,,,,,,,,,,,,,,,,,,,,,,,,,,,,,,,,,,,,,,sub-118,1,stroop_test,,
test,yellow,g,1.0,11.0,2.0,3.0,g,1.0,0.4775447499999927,,,,,,,,,,,,,,,,,,3.0,2.0,11.0,1.0,,,,,,,,,61.64300620899997,,,,,,,,,,,,,,,,,61.63309783399996,62.830554334,63.62255679199996,63.6146867089999,63.615391666999926,63.62255679199996,63.62255679199996,64.10561241699997,g,1.0,0.4775447499999927,,,,,,,,,,,,,,,,,,,,,,,,,,,,,,,,,,,,,,,,sub-118,1,stroop_test,,
,,,,,,,,,,,,,,,,,,,,,,,,,,,,,,,,,,,,,,,,,,,,,,,,,,,,,,,,,,,,,,,,,,,,64.10584266699993,64.11816787499993,64.11816787499993,67.68287029199996,space,3.5552106249999724,,,,,,,,,,,,,,,,,,,,,,,,,,,,,,,,,sub-118,1,stroop_test,,
,,,,0.0,0.0,0.0,,,,,blau,blue,b,1.0,b,1.0,0.5027668749999066,,,,,,,,,,,,,,0.0,0.0,0.0,5.0,,,,,67.70366508399991,,,,,,,,,,,,,,,,,67.69567024999992,68.48075224999991,69.27935962499998,69.2645934169999,,,,,,,,,,,,,,,,69.27206054199996,69.27935962499998,69.27935962499998,69.789705959,b,1.0,0.5027668749999066,,69.79940249999993,69.80842716699999,70.79737791699995,,,,,,,,,,,,,,,,,,,,,sub-118,1,stroop_test,,
,,,,1.0,1.0,0.0,,,,,rot,red,r,1.0,r,1.0,1.7090625839999802,,,,,,,,,,,,,,0.0,1.0,1.0,1.0,,,,,70.80438670899991,,,,,,,,,,,,,,,,,70.79797012499989,70.88796549999995,71.68823783399989,71.67135545899998,,,,,,,,,,,,,,,,71.67658545899997,71.68823783399989,71.68823783399989,73.41042262499991,r,1.0,1.7090625839999802,,73.41120216699994,73.41923070899998,74.40445145899992,74.41340720899996,,,,,,,,,,,,,,,,,,,,sub-118,1,stroop_test,,
,,,,2.0,2.0,0.0,,,,,blau,blue,b,1.0,b,1.0,0.6389473750000434,,,,,,,,,,,,,,0.0,2.0,2.0,6.0,,,,,74.41340720899996,,,,,,,,,,,,,,,,,74.40488070899994,74.50437954199992,75.30872587499994,75.29771170899994,,,,,,,,,,,,,,,,75.30121708399997,75.30872587499994,75.30872587499994,75.95078487499995,b,1.0,0.6389473750000434,,75.9516145,75.96343649999994,76.94787858399991,76.95434591699996,,,,,,,,,,,,,,,,,,,,sub-118,1,stroop_test,,
,,,,3.0,3.0,0.0,,,,,blau,yellow,g,0.0,g,1.0,1.0833753340000385,,,,,,,,,,,,,,0.0,3.0,3.0,7.0,,,,,76.95434591699996,,,,,,,,,,,,,,,,,76.94838120899999,78.14712429199994,78.940498209,78.93177299999991,,,,,,,,,,,,,,,,78.9327354589999,78.940498209,78.940498209,80.03104387499991,g,1.0,1.0833753340000385,,80.03181474999997,80.043286792,81.031712459,81.03850791699995,,,,,,,,,,,,,,,,,,,,sub-118,1,stroop_test,,
,,,,4.0,4.0,0.0,,,,,gelb,yellow,g,1.0,g,1.0,0.8060960409999325,,,,,,,,,,,,,,0.0,4.0,4.0,10.0,,,,,81.03850791699995,,,,,,,,,,,,,,,,,81.03240704199993,81.82107358399992,82.61639824999997,82.60444329199993,,,,,,,,,,,,,,,,82.60798012499993,82.61639824999997,82.61639824999997,83.4328375,g,1.0,0.8060960409999325,,83.43363095899997,83.44501691699998,84.43132141699994,84.43822024999997,,,,,,,,,,,,,,,,,,,,sub-118,1,stroop_test,,
,,,,5.0,5.0,0.0,,,,,blau,red,r,0.0,r,1.0,0.7768065830000523,,,,,,,,,,,,,,0.0,5.0,5.0,4.0,,,,,84.43822024999997,,,,,,,,,,,,,,,,,84.43196566699999,84.78008687499994,85.57670979199997,85.56473483399998,,,,,,,,,,,,,,,,85.56916045899993,85.57670979199997,85.57670979199997,86.35614758399993,r,1.0,0.7768065830000523,,86.35693045899995,86.3683454589999,87.35403408399998,87.36372479199997,,,,,,,,,,,,,,,,,,,,sub-118,1,stroop_test,,
,,,,6.0,6.0,0.0,,,,,gelb,blue,b,0.0,b,1.0,1.455704374999982,,,,,,,,,,,,,,0.0,6.0,6.0,9.0,,,,,87.36372479199997,,,,,,,,,,,,,,,,,87.35452229199996,87.7045157089999,88.49977687499995,88.48734999999999,,,,,,,,,,,,,,,,88.49157516699995,88.49977687499995,88.49977687499995,89.96584595899992,b,1.0,1.455704374999982,,89.96662587499998,89.97783487499999,90.96472574999996,90.97153387499998,,,,,,,,,,,,,,,,,,,,sub-118,1,stroop_test,,
,,,,7.0,7.0,0.0,,,,,gelb,red,r,0.0,r,1.0,0.5735779999999977,,,,,,,,,,,,,,0.0,7.0,7.0,8.0,,,,,90.97153387499998,,,,,,,,,,,,,,,,,90.96534033399996,91.0637425,91.85655762499994,91.8478070839999,,,,,,,,,,,,,,,,91.84874383399996,91.85655762499994,91.85655762499994,92.43278324999994,r,1.0,0.5735779999999977,,92.43360537499996,92.44521595899994,93.43146774999992,93.438217292,,,,,,,,,,,,,,,,,,,,sub-118,1,stroop_test,,
,,,,8.0,8.0,0.0,,,,,rot,red,r,1.0,r,1.0,0.5501437079999505,,,,,,,,,,,,,,0.0,8.0,8.0,0.0,,,,,93.438217292,,,,,,,,,,,,,,,,,93.432146375,94.63054587499994,95.42989349999992,95.41447241699996,,,,,,,,,,,,,,,,95.41860908399995,95.42989349999992,95.42989349999992,95.98276491699994,r,1.0,0.5501437079999505,,95.9835976249999,95.99497058399992,96.98121683399997,96.98765816699996,,,,,,,,,,,,,,,,,,,,sub-118,1,stroop_test,,
,,,,9.0,9.0,0.0,,,,,rot,blue,b,0.0,b,1.0,2.7434142500000007,,,,,,,,,,,,,,0.0,9.0,9.0,2.0,,,,,96.98765816699996,,,,,,,,,,,,,,,,,96.98171816699994,98.18052516699991,98.97289758399997,98.9645052919999,,,,,,,,,,,,,,,,98.96523045899994,98.97289758399997,98.97289758399997,101.72262595899996,b,1.0,2.7434142500000007,,101.723401459,101.73511287499991,102.720880417,102.73060566699996,,,,,,,,,,,,,,,,,,,,sub-118,1,stroop_test,,
,,,,10.0,10.0,0.0,,,,,rot,yellow,g,0.0,g,1.0,1.0640036670000654,,,,,,,,,,,,,,0.0,10.0,10.0,3.0,,,,,102.73060566699996,,,,,,,,,,,,,,,,,102.72133833399994,102.82084633399997,103.613327584,103.60458208399996,,,,,,,,,,,,,,,,103.60518116699996,103.613327584,103.613327584,104.68261241699996,g,1.0,1.0640036670000654,,104.68345220899994,104.69490299999995,105.68088758399996,105.68729758399992,,,,,,,,,,,,,,,,,,,,sub-118,1,stroop_test,,
,,,,11.0,11.0,0.0,,,,,gelb,yellow,g,1.0,g,1.0,0.5378997910000862,,,,,,,,,,,,,,0.0,11.0,11.0,11.0,,,,,105.68729758399992,,,,,,,,,,,,,,,,,105.6813585839999,106.03056425,106.825667792,106.81440654199992,,,,,,,,,,,,,,,,106.81840154199996,106.825667792,106.825667792,107.36611270899994,g,1.0,0.5378997910000862,,107.36690029199995,107.37824729199995,108.36454425,108.37131162499998,,,,,,,,,,,,,,,,,,,,sub-118,1,stroop_test,,
,,,,12.0,0.0,1.0,,,,,blau,yellow,g,0.0,b,0.0,0.6869194590000234,,,,,,,,,,,,,,1.0,0.0,12.0,7.0,,,,,108.37131162499998,,,,,,,,,,,,,,,,,108.365204125,108.71392716699997,109.50943562499992,109.49771766699996,,,,,,,,,,,,,,,,109.50172154199991,109.50943562499992,109.50943562499992,110.20353916699992,b,0.0,0.6869194590000234,,110.20892287499998,110.22093608399996,111.20377099999996,,,,,,,,,,,,,,,,,,,,,sub-118,1,stroop_test,,
,,,,13.0,1.0,1.0,,,,,blau,blue,b,1.0,b,1.0,0.580228457999965,,,,,,,,,,,,,,1.0,1.0,13.0,5.0,,,,,111.213820834,,,,,,,,,,,,,,,,,111.204159625,111.29693358399992,112.089867584,112.08116495899992,,,,,,,,,,,,,,,,112.08208983399992,112.089867584,112.089867584,112.672821709,b,1.0,0.580228457999965,,112.67696429199998,112.68765287499993,113.671071042,113.68042258399998,,,,,,,,,,,,,,,,,,,,sub-118,1,stroop_test,,
,,,,14.0,2.0,1.0,,,,,gelb,yellow,g,1.0,g,1.0,0.568767041000001,,,,,,,,,,,,,,1.0,2.0,14.0,11.0,,,,,113.68042258399998,,,,,,,,,,,,,,,,,113.6714687089999,114.47029404199998,115.26618004199996,115.25383512499992,,,,,,,,,,,,,,,,115.25847216699992,115.26618004199996,115.26618004199996,115.83856520899997,g,1.0,0.568767041000001,,115.839339709,115.850548334,116.8370447499999,116.847149167,,,,,,,,,,,,,,,,,,,,sub-118,1,stroop_test,,
,,,,15.0,3.0,1.0,,,,,rot,blue,b,0.0,b,1.0,0.8806812920000766,,,,,,,,,,,,,,1.0,3.0,15.0,2.0,,,,,116.847149167,,,,,,,,,,,,,,,,,116.83743749999996,117.18774704199996,117.985197417,117.9714520839999,,,,,,,,,,,,,,,,117.97524770899996,117.985197417,117.985197417,118.87248320899994,b,1.0,0.8806812920000766,,118.87326437499996,118.88489737499992,119.87104754199991,119.88008424999998,,,,,,,,,,,,,,,,,,,,sub-118,1,stroop_test,,
,,,,16.0,4.0,1.0,,,,,blau,red,r,0.0,r,1.0,0.5948495829999274,,,,,,,,,,,,,,1.0,4.0,16.0,4.0,,,,,119.88008424999998,,,,,,,,,,,,,,,,,119.8715142499999,121.07122712499996,121.875288834,121.86414758399997,,,,,,,,,,,,,,,,121.86768595899991,121.875288834,121.875288834,122.47269899999992,r,1.0,0.5948495829999274,,122.47347216699995,122.48522779199992,123.4699617089999,123.47989745899996,,,,,,,,,,,,,,,,,,,,sub-118,1,stroop_test,,
,,,,17.0,5.0,1.0,,,,,rot,red,r,1.0,r,1.0,0.7131135419999737,,,,,,,,,,,,,,1.0,5.0,17.0,0.0,,,,,123.47989745899996,,,,,,,,,,,,,,,,,123.470356917,124.27021895899998,125.06732895899997,125.0538627919999,,,,,,,,,,,,,,,,125.05737799999996,125.06732895899997,125.06732895899997,125.783428834,r,1.0,0.7131135419999737,,125.78422966699998,125.796067042,126.78117974999998,126.78791216699994,,,,,,,,,,,,,,,,,,,,sub-118,1,stroop_test,,
,,,,18.0,6.0,1.0,,,,,rot,yellow,g,0.0,g,1.0,1.5172139999999672,,,,,,,,,,,,,,1.0,6.0,18.0,3.0,,,,,126.78791216699994,,,,,,,,,,,,,,,,,126.781807125,126.88030737499992,127.67307699999992,127.66464537499996,,,,,,,,,,,,,,,,127.66560525,127.67307699999992,127.67307699999992,129.19744008399994,g,1.0,1.5172139999999672,,129.19822724999997,129.20978120899997,130.19788474999996,130.20485299999996,,,,,,,,,,,,,,,,,,,,sub-118,1,stroop_test,,
,,,,19.0,7.0,1.0,,,,,gelb,yellow,g,1.0,g,1.0,0.7035468330000185,,,,,,,,,,,,,,1.0,7.0,19.0,10.0,,,,,130.20485299999996,,,,,,,,,,,,,,,,,130.198561542,130.98652908399993,131.78197520899994,131.77046695899992,,,,,,,,,,,,,,,,131.773857959,131.78197520899994,131.78197520899994,132.489021042,g,1.0,0.7035468330000185,,132.48980274999997,132.501341959,133.48718304199997,133.4970062499999,,,,,,,,,,,,,,,,,,,,sub-118,1,stroop_test,,
,,,,20.0,8.0,1.0,,,,,gelb,blue,b,0.0,b,1.0,0.8087956659999236,,,,,,,,,,,,,,1.0,8.0,20.0,9.0,,,,,133.4970062499999,,,,,,,,,,,,,,,,,133.487589834,134.28765291699997,135.07921154199994,135.07078012499994,,,,,,,,,,,,,,,,135.07138358399993,135.07921154199994,135.07921154199994,135.89915208399998,b,1.0,0.8087956659999236,,135.89996133399995,135.91133549999995,136.8976611669999,136.904310292,,,,,,,,,,,,,,,,,,,,sub-118,1,stroop_test,,
,,,,21.0,9.0,1.0,,,,,rot,red,r,1.0,r,1.0,0.6223802090000845,,,,,,,,,,,,,,1.0,9.0,21.0,1.0,,,,,136.904310292,,,,,,,,,,,,,,,,,136.89827079199995,138.09684604199992,138.89682233399992,138.881270417,,,,,,,,,,,,,,,,138.88545024999996,138.89682233399992,138.89682233399992,139.5320778749999,r,1.0,0.6223802090000845,,139.53285266699993,139.544238792,140.53107,140.53753299999994,,,,,,,,,,,,,,,,,,,,sub-118,1,stroop_test,,
,,,,22.0,10.0,1.0,,,,,gelb,red,r,0.0,r,1.0,0.757580125000004,,,,,,,,,,,,,,1.0,10.0,22.0,8.0,,,,,140.53753299999994,,,,,,,,,,,,,,,,,140.53148762499995,141.7301185,142.52658037499998,142.51421274999996,,,,,,,,,,,,,,,,142.51898212499998,142.52658037499998,142.52658037499998,143.28947379199997,r,1.0,0.757580125000004,,143.29026016699993,143.30226583399997,144.28707129199995,144.29678429199998,,,,,,,,,,,,,,,,,,,,sub-118,1,stroop_test,,
,,,,23.0,11.0,1.0,,,,,blau,blue,b,1.0,b,1.0,0.7057073339999533,,,,,,,,,,,,,,1.0,11.0,23.0,6.0,,,,,144.29678429199998,,,,,,,,,,,,,,,,,144.28754720899997,145.48750566699994,146.29237395899997,146.28087279199997,,,,,,,,,,,,,,,,146.28495466699997,146.29237395899997,146.29237395899997,147.00565374999996,b,1.0,0.7057073339999533,,147.006483667,147.0182972089999,148.00260287499998,148.01208137499998,,,,,,,,,,,,,,,,,,,,sub-118,1,stroop_test,,
,,,,,,,,,,,,,,,,,,,,,,,,,,,,,,,,,,,,,,,,,,,,,,,,,,,,,,,,,,,,,,,,,,,,,,,,,,,,,,,,,,,,,,,148.00275554199993,148.01208137499998,148.01208137499998,149.48312254199993,space,1.4682575829999678,,,,,,,,,,,,,,sub-118,1,stroop_test,,
,,,,0.0,0.0,0.0,,,,,,,,,,,,,gelb,yellow,g,1.0,g,1.0,0.8913120830000025,,,,,,,,,,0.0,0.0,0.0,11.0,149.5054084589999,,,,,,,,,,,,,,,,,149.49760154199998,149.5801644999999,150.37639291699998,150.36409625,,,,,,,,,,,,,,,,,,,,,,,,,,,,,,,,,,,150.36856362499998,150.37639291699998,150.37639291699998,151.27198449999992,g,1.0,0.8913120830000025,,,,,,sub-118,1,stroop_test,,
,,,,1.0,1.0,0.0,,,,,,,,,,,,,rot,red,r,1.0,r,1.0,0.5652003339999965,,,,,,,,,,0.0,1.0,1.0,1.0,151.28285366699993,,,,,,,,,,,,,,,,,151.27257395899994,152.070472667,152.86729624999998,152.8537172089999,,,,,,,,,,,,,,,,,,,,,,,,,,,,,,,,,,,152.85742270899993,152.86729624999998,152.86729624999998,153.43939666699998,r,1.0,0.5652003339999965,,,,,,sub-118,1,stroop_test,,
,,,,2.0,2.0,0.0,,,,,,,,,,,,,rot,blue,b,0.0,b,1.0,0.3702391250000119,,,,,,,,,,0.0,2.0,2.0,2.0,153.4497023749999,,,,,,,,,,,,,,,,,153.43997754199995,153.78667170899996,154.57933074999994,154.57113920899997,,,,,,,,,,,,,,,,,,,,,,,,,,,,,,,,,,,154.57173595899997,154.57933074999994,154.57933074999994,154.95616362499993,b,1.0,0.3702391250000119,,,,,,sub-118,1,stroop_test,,
,,,,3.0,3.0,0.0,,,,,,,,,,,,,blau,red,r,0.0,r,1.0,1.1489992920000986,,,,,,,,,,0.0,3.0,3.0,4.0,154.96639620899998,,,,,,,,,,,,,,,,,154.95674937499996,155.75348237499998,156.54915883399997,156.53723674999992,,,,,,,,,,,,,,,,,,,,,,,,,,,,,,,,,,,156.54183083399994,156.54915883399997,156.54915883399997,157.7061947499999,r,1.0,1.1489992920000986,,,,,,sub-118,1,stroop_test,,
,,,,4.0,4.0,0.0,,,,,,,,,,,,,gelb,red,r,0.0,r,1.0,1.5320449999999255,,,,,,,,,,0.0,4.0,4.0,8.0,157.71700975,,,,,,,,,,,,,,,,,157.70685883399997,158.05358412499993,158.8487917089999,158.837186084,,,,,,,,,,,,,,,,,,,,,,,,,,,,,,,,,,,158.84065999999996,158.8487917089999,158.8487917089999,160.39424933399994,r,1.0,1.5320449999999255,,,,,,sub-118,1,stroop_test,,
,,,,5.0,5.0,0.0,,,,,,,,,,,,,blau,blue,b,1.0,b,1.0,0.7218975419999651,,,,,,,,,,0.0,5.0,5.0,6.0,160.40025125,,,,,,,,,,,,,,,,,160.39469037499998,161.58726712499993,162.382641584,162.3709181669999,,,,,,,,,,,,,,,,,,,,,,,,,,,,,,,,,,,162.3748254169999,162.382641584,162.382641584,163.11582704199998,b,1.0,0.7218975419999651,,,,,,sub-118,1,stroop_test,,
,,,,6.0,6.0,0.0,,,,,,,,,,,,,rot,yellow,g,0.0,g,1.0,1.03686704200004,,,,,,,,,,0.0,6.0,6.0,3.0,163.1264242919999,,,,,,,,,,,,,,,,,163.11650504199997,163.4632779169999,164.2625294999999,164.24739079199992,,,,,,,,,,,,,,,,,,,,,,,,,,,,,,,,,,,164.25138741699993,164.2625294999999,164.2625294999999,165.305282584,g,1.0,1.03686704200004,,,,,,sub-118,1,stroop_test,,
,,,,7.0,7.0,0.0,,,,,,,,,,,,,blau,yellow,g,0.0,g,1.0,0.480348582999909,,,,,,,,,,0.0,7.0,7.0,7.0,165.315955584,,,,,,,,,,,,,,,,,165.30588095899998,166.103986459,166.89936862499997,166.8874567089999,,,,,,,,,,,,,,,,,,,,,,,,,,,,,,,,,,,166.891427917,166.89936862499997,166.89936862499997,167.38228737499992,g,1.0,0.480348582999909,,,,,,sub-118,1,stroop_test,,
,,,,8.0,8.0,0.0,,,,,,,,,,,,,rot,red,r,1.0,r,1.0,0.6748996249999664,,,,,,,,,,0.0,8.0,8.0,0.0,167.39264741699992,,,,,,,,,,,,,,,,,167.38287545899993,168.1799528749999,168.9792883749999,168.96402058399997,,,,,,,,,,,,,,,,,,,,,,,,,,,,,,,,,,,168.967915167,168.9792883749999,168.9792883749999,169.65681445899995,r,1.0,0.6748996249999664,,,,,,sub-118,1,stroop_test,,
,,,,9.0,9.0,0.0,,,,,,,,,,,,,blau,blue,b,1.0,b,1.0,0.5255721250000533,,,,,,,,,,0.0,9.0,9.0,5.0,169.66644708399997,,,,,,,,,,,,,,,,,169.65739608399997,170.4539696669999,171.259824042,171.24746570899993,,,,,,,,,,,,,,,,,,,,,,,,,,,,,,,,,,,171.25210383399997,171.259824042,171.259824042,171.78889708399993,b,1.0,0.5255721250000533,,,,,,sub-118,1,stroop_test,,
,,,,10.0,10.0,0.0,,,,,,,,,,,,,gelb,blue,b,0.0,r,0.0,1.0540354999999408,,,,,,,,,,0.0,10.0,10.0,9.0,171.79914562499994,,,,,,,,,,,,,,,,,171.78952274999995,171.88732408399994,172.68256899999994,172.6702432919999,,,,,,,,,,,,,,,,,,,,,,,,,,,,,,,,,,,172.67454387499993,172.68256899999994,172.68256899999994,173.7391235,r,0.0,1.0540354999999408,,,,,,sub-118,1,stroop_test,,
,,,,11.0,11.0,0.0,,,,,,,,,,,,,gelb,yellow,g,1.0,g,1.0,1.221049917000073,,,,,,,,,,0.0,11.0,11.0,10.0,173.74926541699995,,,,,,,,,,,,,,,,,173.73971274999997,174.536526709,175.32935099999997,175.32102270899998,,,,,,,,,,,,,,,,,,,,,,,,,,,,,,,,,,,175.321628875,175.32935099999997,175.32935099999997,176.55394487499996,g,1.0,1.221049917000073,,,,,,sub-118,1,stroop_test,,
,,,,12.0,0.0,1.0,,,,,,,,,,,,,gelb,yellow,g,1.0,g,1.0,0.5707564159999947,,,,,,,,,,1.0,0.0,12.0,10.0,176.56270662499992,,,,,,,,,,,,,,,,,176.55432341699998,177.3465551669999,178.139039959,178.13070512499996,,,,,,,,,,,,,,,,,,,,,,,,,,,,,,,,,,,178.13141324999992,178.139039959,178.139039959,178.7153552499999,g,1.0,0.5707564159999947,,,,,,sub-118,1,stroop_test,,
,,,,13.0,1.0,1.0,,,,,,,,,,,,,gelb,blue,b,0.0,g,0.0,0.533794999999941,,,,,,,,,,1.0,1.0,13.0,9.0,178.72515695899995,,,,,,,,,,,,,,,,,178.7159503339999,179.06310124999993,179.85641799999996,179.8475109169999,,,,,,,,,,,,,,,,,,,,,,,,,,,,,,,,,,,179.84842483399996,179.85641799999996,179.85641799999996,180.39813974999996,g,0.0,0.533794999999941,,,,,,sub-118,1,stroop_test,,
,,,,14.0,2.0,1.0,,,,,,,,,,,,,rot,yellow,g,0.0,r,0.0,1.007948249999913,,,,,,,,,,1.0,2.0,14.0,3.0,180.40859149999997,,,,,,,,,,,,,,,,,180.398745375,180.74656670899992,181.54540999999995,181.5304665,,,,,,,,,,,,,,,,,,,,,,,,,,,,,,,,,,,181.533924792,181.54540999999995,181.54540999999995,182.56631237499997,r,0.0,1.007948249999913,,,,,,sub-118,1,stroop_test,,
,,,,15.0,3.0,1.0,,,,,,,,,,,,,rot,blue,b,0.0,b,1.0,1.6097884170000043,,,,,,,,,,1.0,3.0,15.0,2.0,182.58002424999995,,,,,,,,,,,,,,,,,182.566676125,182.663321292,183.456494959,183.447585292,,,,,,,,,,,,,,,,,,,,,,,,,,,,,,,,,,,183.448529625,183.456494959,183.456494959,185.071612084,b,1.0,1.6097884170000043,,,,,,sub-118,1,stroop_test,,
,,,,16.0,4.0,1.0,,,,,,,,,,,,,gelb,yellow,g,1.0,g,1.0,0.7220804999999473,,,,,,,,,,1.0,4.0,16.0,11.0,185.08246254199992,,,,,,,,,,,,,,,,,185.07218612499992,185.86996675,186.665850084,186.65407574999995,,,,,,,,,,,,,,,,,,,,,,,,,,,,,,,,,,,186.6579674589999,186.665850084,186.665850084,187.401497834,g,1.0,0.7220804999999473,,,,,,sub-118,1,stroop_test,,
,,,,17.0,5.0,1.0,,,,,,,,,,,,,blau,red,r,0.0,r,1.0,1.157957124999939,,,,,,,,,,1.0,5.0,17.0,4.0,187.41334275,,,,,,,,,,,,,,,,,187.401915125,188.596665125,189.39279187499997,189.3808019999999,,,,,,,,,,,,,,,,,,,,,,,,,,,,,,,,,,,189.38529175,189.39279187499997,189.39279187499997,190.554275709,r,1.0,1.157957124999939,,,,,,sub-118,1,stroop_test,,
,,,,18.0,6.0,1.0,,,,,,,,,,,,,blau,blue,b,1.0,b,1.0,0.575761166999996,,,,,,,,,,1.0,6.0,18.0,5.0,190.5654132499999,,,,,,,,,,,,,,,,,190.5548608339999,191.353443667,192.15576091699995,192.14716554199995,,,,,,,,,,,,,,,,,,,,,,,,,,,,,,,,,,,192.14788358399997,192.15576091699995,192.15576091699995,192.739320875,b,1.0,0.575761166999996,,,,,,sub-118,1,stroop_test,,
,,,,19.0,7.0,1.0,,,,,,,,,,,,,rot,red,r,1.0,r,1.0,0.8089150419999669,,,,,,,,,,1.0,7.0,19.0,1.0,192.749076375,,,,,,,,,,,,,,,,,192.739894834,193.93770533399996,194.744672834,194.730285334,,,,,,,,,,,,,,,,,,,,,,,,,,,,,,,,,,,194.7342148749999,194.744672834,194.744672834,195.56551849999997,r,1.0,0.8089150419999669,,,,,,sub-118,1,stroop_test,,
,,,,20.0,8.0,1.0,,,,,,,,,,,,,gelb,red,r,0.0,r,1.0,1.1841379160000542,,,,,,,,,,1.0,8.0,20.0,8.0,195.57998929199996,,,,,,,,,,,,,,,,,195.566106292,196.363219,197.1590839999999,197.1472474589999,,,,,,,,,,,,,,,,,,,,,,,,,,,,,,,,,,,197.1513222499999,197.1590839999999,197.1590839999999,198.34853429199995,r,1.0,1.1841379160000542,,,,,,sub-118,1,stroop_test,,
,,,,21.0,9.0,1.0,,,,,,,,,,,,,rot,red,r,1.0,r,1.0,0.6995899580000469,,,,,,,,,,1.0,9.0,21.0,0.0,198.35909208399997,,,,,,,,,,,,,,,,,198.349123417,199.14661579199992,199.9470601669999,199.9308189169999,,,,,,,,,,,,,,,,,,,,,,,,,,,,,,,,,,,199.9360015,199.9470601669999,199.9470601669999,200.64953525,r,1.0,0.6995899580000469,,,,,,sub-118,1,stroop_test,,
,,,,22.0,10.0,1.0,,,,,,,,,,,,,blau,blue,b,1.0,b,1.0,0.6293736249999711,,,,,,,,,,1.0,10.0,22.0,6.0,200.66013966699995,,,,,,,,,,,,,,,,,200.6501458749999,201.846506375,202.642445125,202.63046462499997,,,,,,,,,,,,,,,,,,,,,,,,,,,,,,,,,,,202.634608417,202.642445125,202.642445125,203.280609209,b,1.0,0.6293736249999711,,,,,,sub-118,1,stroop_test,,
,,,,23.0,11.0,1.0,,,,,,,,,,,,,blau,yellow,g,0.0,g,1.0,0.990123290999918,,,,,,,,,,1.0,11.0,23.0,7.0,203.29086904199997,,,,,,,,,,,,,,,,,203.28121720899992,203.61995179199997,204.41276945899995,204.404256834,,,,,,,,,,,,,,,,,,,,,,,,,,,,,,,,,,,204.404888834,204.41276945899995,204.41276945899995,205.405574334,g,1.0,0.990123290999918,,,,,,sub-118,1,stroop_test,,
,,,,24.0,0.0,2.0,,,,,,,,,,,,,gelb,blue,b,0.0,b,1.0,1.854547000000025,,,,,,,,,,2.0,0.0,24.0,9.0,205.415912542,,,,,,,,,,,,,,,,,205.406160334,206.202700542,206.997643834,206.986000292,,,,,,,,,,,,,,,,,,,,,,,,,,,,,,,,,,,206.98937274999992,206.997643834,206.997643834,208.85528183399992,b,1.0,1.854547000000025,,,,,,sub-118,1,stroop_test,,
,,,,25.0,1.0,2.0,,,,,,,,,,,,,gelb,yellow,g,1.0,g,1.0,0.995552957999962,,,,,,,,,,2.0,1.0,25.0,11.0,208.865658167,,,,,,,,,,,,,,,,,208.855876792,209.20376595899995,209.99622120899997,209.987524542,,,,,,,,,,,,,,,,,,,,,,,,,,,,,,,,,,,209.988134834,209.99622120899997,209.99622120899997,210.99884187499995,g,1.0,0.995552957999962,,,,,,sub-118,1,stroop_test,,
,,,,26.0,2.0,2.0,,,,,,,,,,,,,gelb,yellow,g,1.0,g,1.0,0.6135251670000343,,,,,,,,,,2.0,2.0,26.0,10.0,211.009274,,,,,,,,,,,,,,,,,210.9994194589999,212.196629542,212.9897851249999,212.980804792,,,,,,,,,,,,,,,,,,,,,,,,,,,,,,,,,,,212.98179625,212.9897851249999,212.9897851249999,213.615211792,g,1.0,0.6135251670000343,,,,,,sub-118,1,stroop_test,,
,,,,27.0,3.0,2.0,,,,,,,,,,,,,blau,blue,b,1.0,b,1.0,1.072600792000003,,,,,,,,,,2.0,3.0,27.0,6.0,213.6259366669999,,,,,,,,,,,,,,,,,213.6157895839999,214.812887125,215.60855166699992,215.5970219169999,,,,,,,,,,,,,,,,,,,,,,,,,,,,,,,,,,,215.600833459,215.60855166699992,215.60855166699992,216.68851224999992,b,1.0,1.072600792000003,,,,,,sub-118,1,stroop_test,,
,,,,28.0,4.0,2.0,,,,,,,,,,,,,rot,red,r,1.0,r,1.0,0.7224168750000217,,,,,,,,,,2.0,4.0,28.0,1.0,216.69904129199995,,,,,,,,,,,,,,,,,216.689093042,216.77857999999992,217.579765042,217.56394312499992,,,,,,,,,,,,,,,,,,,,,,,,,,,,,,,,,,,217.567699125,217.579765042,217.579765042,218.30532337500009,r,1.0,0.7224168750000217,,,,,,sub-118,1,stroop_test,,
,,,,29.0,5.0,2.0,,,,,,,,,,,,,gelb,red,r,0.0,r,1.0,1.610754957999916,,,,,,,,,,2.0,5.0,29.0,8.0,218.3155765,,,,,,,,,,,,,,,,,218.305928917,219.10340733400005,219.89877008399992,219.88718341699985,,,,,,,,,,,,,,,,,,,,,,,,,,,,,,,,,,,219.89056245899985,219.89877008399992,219.89877008399992,221.51543441699997,r,1.0,1.610754957999916,,,,,,sub-118,1,stroop_test,,
,,,,30.0,6.0,2.0,,,,,,,,,,,,,blau,yellow,g,0.0,g,1.0,1.570172833000015,,,,,,,,,,2.0,6.0,30.0,7.0,221.5259062920001,,,,,,,,,,,,,,,,,221.51601658399989,221.613068084,222.4119724589999,222.397155667,,,,,,,,,,,,,,,,,,,,,,,,,,,,,,,,,,,222.40402024999992,222.4119724589999,222.4119724589999,223.98823099999996,g,1.0,1.570172833000015,,,,,,sub-118,1,stroop_test,,
,,,,31.0,7.0,2.0,,,,,,,,,,,,,rot,red,r,1.0,r,1.0,1.0885054170000783,,,,,,,,,,2.0,7.0,31.0,0.0,223.99896091699983,,,,,,,,,,,,,,,,,223.98878008400004,224.08683970899995,224.88414166699988,224.8704295839999,,,,,,,,,,,,,,,,,,,,,,,,,,,,,,,,,,,224.87417387499988,224.88414166699988,224.88414166699988,225.98191062499984,r,1.0,1.0885054170000783,,,,,,sub-118,1,stroop_test,,
,,,,32.0,8.0,2.0,,,,,,,,,,,,,blau,blue,b,1.0,b,1.0,0.6356442920000518,,,,,,,,,,2.0,8.0,32.0,5.0,225.99262516700003,,,,,,,,,,,,,,,,,225.98249699999985,226.77974504199997,227.574755,227.563443917,,,,,,,,,,,,,,,,,,,,,,,,,,,,,,,,,,,227.56720412499988,227.574755,227.574755,228.21510216700003,b,1.0,0.6356442920000518,,,,,,sub-118,1,stroop_test,,
,,,,33.0,9.0,2.0,,,,,,,,,,,,,rot,blue,b,0.0,b,1.0,2.274470208000139,,,,,,,,,,2.0,9.0,33.0,2.0,228.225553417,,,,,,,,,,,,,,,,,228.21571812499985,229.0129895419999,229.81236162499988,229.79712874999984,,,,,,,,,,,,,,,,,,,,,,,,,,,,,,,,,,,229.80118020899988,229.81236162499988,229.81236162499988,232.0892997499999,b,1.0,2.274470208000139,,,,,,sub-118,1,stroop_test,,
,,,,34.0,10.0,2.0,,,,,,,,,,,,,rot,yellow,g,0.0,g,1.0,0.3516408750001574,,,,,,,,,,2.0,10.0,34.0,3.0,232.10010012500004,,,,,,,,,,,,,,,,,232.089875,232.88698320900005,233.6787825,233.670522709,,,,,,,,,,,,,,,,,,,,,,,,,,,,,,,,,,,233.671096209,233.6787825,233.6787825,234.043403,g,1.0,0.3516408750001574,,,,,,sub-118,1,stroop_test,,
,,,,35.0,11.0,2.0,,,,,,,,,,,,,blau,red,r,0.0,r,1.0,0.487442584000064,,,,,,,,,,2.0,11.0,35.0,4.0,234.04958224999984,,,,,,,,,,,,,,,,,234.04404891699997,235.23652154199988,236.032018709,236.0207906249999,,,,,,,,,,,,,,,,,,,,,,,,,,,,,,,,,,,236.0244422919999,236.032018709,236.032018709,236.521909084,r,1.0,0.487442584000064,,,,,,sub-118,1,stroop_test,,
,,,,36.0,0.0,3.0,,,,,,,,,,,,,gelb,yellow,g,1.0,g,1.0,0.5428237080000144,,,,,,,,,,3.0,0.0,36.0,11.0,236.53208266700003,,,,,,,,,,,,,,,,,236.5224677089999,237.31897795899988,238.115201834,238.10297091699988,,,,,,,,,,,,,,,,,,,,,,,,,,,,,,,,,,,238.106919084,238.115201834,238.115201834,238.66562183400004,g,1.0,0.5428237080000144,,,,,,sub-118,1,stroop_test,,
,,,,37.0,1.0,3.0,,,,,,,,,,,,,gelb,yellow,g,1.0,g,1.0,0.6670775000000049,,,,,,,,,,3.0,1.0,37.0,10.0,238.67585704199985,,,,,,,,,,,,,,,,,238.66621395899995,239.46302345900008,240.256434625,240.24736804199995,,,,,,,,,,,,,,,,,,,,,,,,,,,,,,,,,,,240.24837812499996,240.256434625,240.256434625,240.932017834,g,1.0,0.6670775000000049,,,,,,sub-118,1,stroop_test,,
,,,,38.0,2.0,3.0,,,,,,,,,,,,,blau,blue,b,1.0,b,1.0,0.4920245840000916,,,,,,,,,,3.0,2.0,38.0,5.0,240.94271575000005,,,,,,,,,,,,,,,,,240.93268883400003,242.12976274999997,242.9263419170001,242.9137536249999,,,,,,,,,,,,,,,,,,,,,,,,,,,,,,,,,,,242.91875520899987,242.9263419170001,242.9263419170001,243.421248709,b,1.0,0.4920245840000916,,,,,,sub-118,1,stroop_test,,
,,,,39.0,3.0,3.0,,,,,,,,,,,,,rot,blue,b,0.0,b,1.0,0.6372054590001426,,,,,,,,,,3.0,3.0,39.0,2.0,243.432066167,,,,,,,,,,,,,,,,,243.42182729199988,244.2202242499999,245.01653629199984,245.00311704199987,,,,,,,,,,,,,,,,,,,,,,,,,,,,,,,,,,,245.006586334,245.01653629199984,245.01653629199984,245.66527087499992,b,1.0,0.6372054590001426,,,,,,sub-118,1,stroop_test,,
,,,,40.0,4.0,3.0,,,,,,,,,,,,,gelb,red,r,0.0,r,1.0,0.6146843330000138,,,,,,,,,,3.0,4.0,40.0,8.0,245.67585658399992,,,,,,,,,,,,,,,,,245.66587795899989,246.0129962919999,246.80887312499988,246.796894834,,,,,,,,,,,,,,,,,,,,,,,,,,,,,,,,,,,246.80112979199987,246.80887312499988,246.80887312499988,247.43176937500004,r,1.0,0.6146843330000138,,,,,,sub-118,1,stroop_test,,
,,,,41.0,5.0,3.0,,,,,,,,,,,,,rot,yellow,g,0.0,g,1.0,0.6590257079999446,,,,,,,,,,3.0,5.0,41.0,3.0,247.442599375,,,,,,,,,,,,,,,,,247.432389834,247.52964941699983,248.32858554200004,248.31349866699983,,,,,,,,,,,,,,,,,,,,,,,,,,,,,,,,,,,248.31728016699992,248.32858554200004,248.32858554200004,248.99832916699995,g,1.0,0.6590257079999446,,,,,,sub-118,1,stroop_test,,
,,,,42.0,6.0,3.0,,,,,,,,,,,,,blau,blue,b,1.0,b,1.0,0.5019466669998565,,,,,,,,,,3.0,6.0,42.0,6.0,249.0086669169999,,,,,,,,,,,,,,,,,248.99890787499987,250.19610287499984,250.99115029200004,250.97992999999985,,,,,,,,,,,,,,,,,,,,,,,,,,,,,,,,,,,250.98351729199987,250.99115029200004,250.99115029200004,251.49868337500004,b,1.0,0.5019466669998565,,,,,,sub-118,1,stroop_test,,
,,,,43.0,7.0,3.0,,,,,,,,,,,,,rot,red,r,1.0,r,1.0,0.6092564999999013,,,,,,,,,,3.0,7.0,43.0,1.0,251.50906633399984,,,,,,,,,,,,,,,,,251.49926270899996,252.296518,253.095367,253.08014724999987,,,,,,,,,,,,,,,,,,,,,,,,,,,,,,,,,,,253.0840166669999,253.095367,253.095367,253.71512099999984,r,1.0,0.6092564999999013,,,,,,sub-118,1,stroop_test,,
,,,,44.0,8.0,3.0,,,,,,,,,,,,,blau,red,r,0.0,r,1.0,0.6563293750000412,,,,,,,,,,3.0,8.0,44.0,4.0,253.7256612089999,,,,,,,,,,,,,,,,,253.71569149999996,254.06291695899984,254.858619667,254.846894875,,,,,,,,,,,,,,,,,,,,,,,,,,,,,,,,,,,254.85103825,254.858619667,254.858619667,255.523109375,r,1.0,0.6563293750000412,,,,,,sub-118,1,stroop_test,,
,,,,45.0,9.0,3.0,,,,,,,,,,,,,gelb,blue,b,0.0,b,1.0,0.8698520410000583,,,,,,,,,,3.0,9.0,45.0,9.0,255.5342448749999,,,,,,,,,,,,,,,,,255.52369187500005,255.86994787499987,256.66534912500003,256.6529334999999,,,,,,,,,,,,,,,,,,,,,,,,,,,,,,,,,,,256.6572776249999,256.66534912500003,256.66534912500003,257.53851699999984,b,1.0,0.8698520410000583,,,,,,sub-118,1,stroop_test,,
,,,,46.0,10.0,3.0,,,,,,,,,,,,,rot,red,r,1.0,r,1.0,1.2054474579999803,,,,,,,,,,3.0,10.0,46.0,0.0,257.54878979199987,,,,,,,,,,,,,,,,,257.53911145899986,257.88704562500004,258.6955657089999,258.68044733399995,,,,,,,,,,,,,,,,,,,,,,,,,,,,,,,,,,,258.6845414999999,258.6955657089999,258.6955657089999,259.904745667,r,1.0,1.2054474579999803,,,,,,sub-118,1,stroop_test,,
,,,,47.0,11.0,3.0,,,,,,,,,,,,,blau,yellow,g,0.0,g,1.0,1.22232337499986,,,,,,,,,,3.0,11.0,47.0,7.0,259.9154729999999,,,,,,,,,,,,,,,,,259.905323417,260.25355545900004,261.04878291700004,261.037078125,,,,,,,,,,,,,,,,,,,,,,,,,,,,,,,,,,,261.040454959,261.04878291700004,261.04878291700004,262.28498720899995,g,1.0,1.22232337499986,,,,,,sub-118,1,stroop_test,,
,,,,48.0,0.0,4.0,,,,,,,,,,,,,blau,yellow,g,0.0,g,1.0,0.8574218329999894,,,,,,,,,,4.0,0.0,48.0,7.0,262.296413334,,,,,,,,,,,,,,,,,262.285526584,262.37937695899984,263.1721819999999,263.163554292,,,,,,,,,,,,,,,,,,,,,,,,,,,,,,,,,,,263.164502167,263.1721819999999,263.1721819999999,264.03341016699994,g,1.0,0.8574218329999894,,,,,,sub-118,1,stroop_test,,
,,,,49.0,1.0,4.0,,,,,,,,,,,,,rot,red,r,1.0,r,1.0,0.6671041249999234,,,,,,,,,,4.0,1.0,49.0,0.0,264.04463029199985,,,,,,,,,,,,,,,,,264.0340353749999,264.12952662500004,264.92895224999995,264.913473084,,,,,,,,,,,,,,,,,,,,,,,,,,,,,,,,,,,264.9176075419999,264.92895224999995,264.92895224999995,265.5991755419999,r,1.0,0.6671041249999234,,,,,,sub-118,1,stroop_test,,
,,,,50.0,2.0,4.0,,,,,,,,,,,,,gelb,yellow,g,1.0,r,0.0,1.080569125000011,,,,,,,,,,4.0,2.0,50.0,10.0,265.609549209,,,,,,,,,,,,,,,,,265.599781,266.3960452089999,267.19232216700004,267.18024583399995,,,,,,,,,,,,,,,,,,,,,,,,,,,,,,,,,,,267.18463229199995,267.19232216700004,267.19232216700004,268.280144792,r,0.0,1.080569125000011,,,,,,sub-118,1,stroop_test,,
,,,,51.0,3.0,4.0,,,,,,,,,,,,,gelb,red,r,0.0,g,0.0,1.5191467089998696,,,,,,,,,,4.0,3.0,51.0,8.0,268.2907557919999,,,,,,,,,,,,,,,,,268.280755292,269.47001887499994,270.262256459,270.2536100839999,,,,,,,,,,,,,,,,,,,,,,,,,,,,,,,,,,,270.25433391700005,270.262256459,270.262256459,271.78802704199995,g,0.0,1.5191467089998696,,,,,,sub-118,1,stroop_test,,
,,,,52.0,4.0,4.0,,,,,,,,,,,,,blau,blue,b,1.0,b,1.0,0.5095748749999984,,,,,,,,,,4.0,4.0,52.0,5.0,271.79849916699993,,,,,,,,,,,,,,,,,271.7885984169999,272.586326792,273.38168670899984,273.36952933400005,,,,,,,,,,,,,,,,,,,,,,,,,,,,,,,,,,,273.373209667,273.38168670899984,273.38168670899984,273.89848566700005,b,1.0,0.5095748749999984,,,,,,sub-118,1,stroop_test,,
,,,,53.0,5.0,4.0,,,,,,,,,,,,,rot,yellow,g,0.0,r,0.0,0.9505357919999824,,,,,,,,,,4.0,5.0,53.0,3.0,273.908787167,,,,,,,,,,,,,,,,,273.899044959,273.99604183400004,274.7962316249999,274.78017175,,,,,,,,,,,,,,,,,,,,,,,,,,,,,,,,,,,274.7852825419999,274.7962316249999,274.7962316249999,275.754279334,r,0.0,0.9505357919999824,,,,,,sub-118,1,stroop_test,,
,,,,54.0,6.0,4.0,,,,,,,,,,,,,rot,red,r,1.0,r,1.0,0.8092417089999344,,,,,,,,,,4.0,6.0,54.0,1.0,275.7653114169999,,,,,,,,,,,,,,,,,275.7548553339999,276.5533327919999,277.35433687500006,277.3466018749999,,,,,,,,,,,,,,,,,,,,,,,,,,,,,,,,,,,277.34714395899994,277.35433687500006,277.35433687500006,278.17797770899995,r,1.0,0.8092417089999344,,,,,,sub-118,1,stroop_test,,
,,,,55.0,7.0,4.0,,,,,,,,,,,,,rot,blue,b,0.0,b,1.0,0.890648917000135,,,,,,,,,,4.0,7.0,55.0,2.0,278.18376654199994,,,,,,,,,,,,,,,,,278.178326375,278.26930804200003,279.06156887500003,279.0530360419999,,,,,,,,,,,,,,,,,,,,,,,,,,,,,,,,,,,279.053615292,279.06156887500003,279.06156887500003,279.955703125,b,1.0,0.890648917000135,,,,,,sub-118,1,stroop_test,,
,,,,56.0,8.0,4.0,,,,,,,,,,,,,gelb,yellow,g,1.0,g,1.0,1.0009457920000386,,,,,,,,,,4.0,8.0,56.0,11.0,279.96585545899995,,,,,,,,,,,,,,,,,279.9562636249999,280.3034417089999,281.09809704199995,281.08704520899994,,,,,,,,,,,,,,,,,,,,,,,,,,,,,,,,,,,281.0907532499999,281.09809704199995,281.09809704199995,282.1058496249999,g,1.0,1.0009457920000386,,,,,,sub-118,1,stroop_test,,
,,,,57.0,9.0,4.0,,,,,,,,,,,,,blau,blue,b,1.0,b,1.0,0.6316295840001658,,,,,,,,,,4.0,9.0,57.0,6.0,282.116772709,,,,,,,,,,,,,,,,,282.1064716249999,282.903281709,283.6982530419999,283.6863382089999,,,,,,,,,,,,,,,,,,,,,,,,,,,,,,,,,,,283.690109709,283.6982530419999,283.6982530419999,284.33378549999986,b,1.0,0.6316295840001658,,,,,,sub-118,1,stroop_test,,
,,,,58.0,10.0,4.0,,,,,,,,,,,,,gelb,blue,b,0.0,b,1.0,1.059668042000112,,,,,,,,,,4.0,10.0,58.0,9.0,284.34482508400004,,,,,,,,,,,,,,,,,284.3344532089999,285.129309542,285.92546708399993,285.9133956249999,,,,,,,,,,,,,,,,,,,,,,,,,,,,,,,,,,,285.9177982089999,285.92546708399993,285.92546708399993,286.98801316699985,b,1.0,1.059668042000112,,,,,,sub-118,1,stroop_test,,
,,,,59.0,11.0,4.0,,,,,,,,,,,,,blau,red,r,0.0,r,1.0,0.5277959579998424,,,,,,,,,,4.0,11.0,59.0,4.0,286.99845029200003,,,,,,,,,,,,,,,,,286.98859845899995,287.7864552919999,288.581355167,288.56943316700006,,,,,,,,,,,,,,,,,,,,,,,,,,,,,,,,,,,288.5731368339999,288.581355167,288.581355167,289.114121042,r,1.0,0.5277959579998424,,,,,,sub-118,1,stroop_test,,
,,,,60.0,0.0,5.0,,,,,,,,,,,,,rot,blue,b,0.0,b,1.0,1.1727716249999958,,,,,,,,,,5.0,0.0,60.0,2.0,289.124434875,,,,,,,,,,,,,,,,,289.11470195899994,290.312556834,291.11195941699987,291.0965716249999,,,,,,,,,,,,,,,,,,,,,,,,,,,,,,,,,,,291.10057983399986,291.11195941699987,291.11195941699987,292.28844975000004,b,1.0,1.1727716249999958,,,,,,sub-118,1,stroop_test,,
,,,,61.0,1.0,5.0,,,,,,,,,,,,,blau,yellow,g,0.0,g,1.0,0.786515417000146,,,,,,,,,,5.0,1.0,61.0,7.0,292.2987643749999,,,,,,,,,,,,,,,,,292.28903945900004,292.3866932089999,293.192245542,293.18040566699995,,,,,,,,,,,,,,,,,,,,,,,,,,,,,,,,,,,293.18464170899995,293.192245542,293.192245542,293.98155945899987,g,1.0,0.786515417000146,,,,,,sub-118,1,stroop_test,,
,,,,62.0,2.0,5.0,,,,,,,,,,,,,rot,red,r,1.0,r,1.0,0.5503214999998818,,,,,,,,,,5.0,2.0,62.0,0.0,293.99182533400005,,,,,,,,,,,,,,,,,293.9821404589999,294.07929220899985,294.87914791699984,294.86334433399986,,,,,,,,,,,,,,,,,,,,,,,,,,,,,,,,,,,294.86803970899985,294.87914791699984,294.87914791699984,295.43270225000003,r,1.0,0.5503214999998818,,,,,,sub-118,1,stroop_test,,
,,,,63.0,3.0,5.0,,,,,,,,,,,,,gelb,yellow,g,1.0,g,1.0,0.9473193329999958,,,,,,,,,,5.0,3.0,63.0,11.0,295.443242167,,,,,,,,,,,,,,,,,295.4332975839999,296.629135709,297.424961417,297.41341424999985,,,,,,,,,,,,,,,,,,,,,,,,,,,,,,,,,,,297.41740649999986,297.424961417,297.424961417,298.3824544999999,g,1.0,0.9473193329999958,,,,,,sub-118,1,stroop_test,,
,,,,64.0,4.0,5.0,,,,,,,,,,,,,gelb,yellow,g,1.0,g,1.0,0.4882771249999678,,,,,,,,,,5.0,4.0,64.0,10.0,298.39319025,,,,,,,,,,,,,,,,,298.3830879589999,299.5792949999999,300.37137670899995,300.3633162919999,,,,,,,,,,,,,,,,,,,,,,,,,,,,,,,,,,,300.36408425,300.37137670899995,300.37137670899995,300.86384250000003,g,1.0,0.4882771249999678,,,,,,sub-118,1,stroop_test,,
,,,,65.0,5.0,5.0,,,,,,,,,,,,,blau,blue,b,1.0,b,1.0,0.4811406659998738,,,,,,,,,,5.0,5.0,65.0,5.0,300.874239459,,,,,,,,,,,,,,,,,300.864415209,301.662610084,302.45833820899986,302.4464515839999,,,,,,,,,,,,,,,,,,,,,,,,,,,,,,,,,,,302.45058612499986,302.45833820899986,302.45833820899986,302.949233834,b,1.0,0.4811406659998738,,,,,,sub-118,1,stroop_test,,
,,,,66.0,6.0,5.0,,,,,,,,,,,,,blau,blue,b,1.0,b,1.0,0.3982426669999768,,,,,,,,,,5.0,6.0,66.0,6.0,302.95980929199993,,,,,,,,,,,,,,,,,302.9498050839999,304.145829209,304.939108834,304.9300630839999,,,,,,,,,,,,,,,,,,,,,,,,,,,,,,,,,,,304.930921667,304.939108834,304.939108834,305.348189209,b,1.0,0.3982426669999768,,,,,,sub-118,1,stroop_test,,
,,,,67.0,7.0,5.0,,,,,,,,,,,,,blau,red,r,0.0,r,1.0,0.7405605830001605,,,,,,,,,,5.0,7.0,67.0,4.0,305.358692209,,,,,,,,,,,,,,,,,305.34876275,306.545935792,307.338906375,307.33004229200003,,,,,,,,,,,,,,,,,,,,,,,,,,,,,,,,,,,307.330962334,307.338906375,307.338906375,308.0827318749999,r,1.0,0.7405605830001605,,,,,,sub-118,1,stroop_test,,
,,,,68.0,8.0,5.0,,,,,,,,,,,,,gelb,red,r,0.0,r,1.0,0.6283402500000648,,,,,,,,,,5.0,8.0,68.0,8.0,308.0932214589999,,,,,,,,,,,,,,,,,308.083309084,309.27939783399995,310.075315959,310.06335762499987,,,,,,,,,,,,,,,,,,,,,,,,,,,,,,,,,,,310.0677536249999,310.075315959,310.075315959,310.71626337500004,r,1.0,0.6283402500000648,,,,,,sub-118,1,stroop_test,,
,,,,69.0,9.0,5.0,,,,,,,,,,,,,gelb,blue,b,0.0,b,1.0,1.1027231250000114,,,,,,,,,,5.0,9.0,69.0,9.0,310.72929662499985,,,,,,,,,,,,,,,,,310.71666108399984,310.81221308399984,311.6046654999999,311.59670779199985,,,,,,,,,,,,,,,,,,,,,,,,,,,,,,,,,,,311.5976415839999,311.6046654999999,311.6046654999999,312.71472841699995,b,1.0,1.1027231250000114,,,,,,sub-118,1,stroop_test,,
,,,,70.0,10.0,5.0,,,,,,,,,,,,,rot,yellow,g,0.0,g,1.0,0.4772545420000824,,,,,,,,,,5.0,10.0,70.0,3.0,312.7251501249999,,,,,,,,,,,,,,,,,312.7153039589999,313.51259370900004,314.312179959,314.2968501249999,,,,,,,,,,,,,,,,,,,,,,,,,,,,,,,,,,,314.300975042,314.312179959,314.312179959,314.79795350000006,g,1.0,0.4772545420000824,,,,,,sub-118,1,stroop_test,,
,,,,71.0,11.0,5.0,,,,,,,,,,,,,rot,red,r,1.0,r,1.0,0.6655357910001385,,,,,,,,,,5.0,11.0,71.0,1.0,314.80848554199986,,,,,,,,,,,,,,,,,314.7985621249999,314.89576491699984,315.68790616700005,315.67995433399994,,,,,,,,,,,,,,,,,,,,,,,,,,,,,,,,,,,315.6806754999999,315.68790616700005,315.68790616700005,316.36450354199985,r,1.0,0.6655357910001385,,,,,,sub-118,1,stroop_test,,
,,,,72.0,0.0,6.0,,,,,,,,,,,,,rot,red,r,1.0,r,1.0,0.3906577080001625,,,,,,,,,,6.0,0.0,72.0,1.0,316.375332084,,,,,,,,,,,,,,,,,316.36506770899985,316.71262145899993,317.5056655,317.49661479200006,,,,,,,,,,,,,,,,,,,,,,,,,,,,,,,,,,,317.49759008399985,317.5056655,317.5056655,317.8999325839999,r,1.0,0.3906577080001625,,,,,,sub-118,1,stroop_test,,
,,,,73.0,1.0,6.0,,,,,,,,,,,,,blau,red,r,0.0,r,1.0,0.4370045420000679,,,,,,,,,,6.0,1.0,73.0,4.0,317.9108743339999,,,,,,,,,,,,,,,,,317.90060037499995,317.9955578749999,318.792524375,318.7797485,,,,,,,,,,,,,,,,,,,,,,,,,,,,,,,,,,,318.784820834,318.792524375,318.792524375,319.233489459,r,1.0,0.4370045420000679,,,,,,sub-118,1,stroop_test,,
,,,,74.0,2.0,6.0,,,,,,,,,,,,,blau,yellow,g,0.0,g,1.0,0.6744082919999528,,,,,,,,,,6.0,2.0,74.0,7.0,319.2445692499999,,,,,,,,,,,,,,,,,319.2341359589999,319.3293545,320.1215693339999,320.11319370900003,,,,,,,,,,,,,,,,,,,,,,,,,,,,,,,,,,,320.11383420899995,320.1215693339999,320.1215693339999,320.79909375,g,1.0,0.6744082919999528,,,,,,sub-118,1,stroop_test,,
,,,,75.0,3.0,6.0,,,,,,,,,,,,,rot,blue,b,0.0,b,1.0,0.797038749999956,,,,,,,,,,6.0,3.0,75.0,2.0,320.809496,,,,,,,,,,,,,,,,,320.799667334,321.596019167,322.3942927919999,322.3797135839999,,,,,,,,,,,,,,,,,,,,,,,,,,,,,,,,,,,322.383725,322.3942927919999,322.3942927919999,323.197784375,b,1.0,0.797038749999956,,,,,,sub-118,1,stroop_test,,
,,,,76.0,4.0,6.0,,,,,,,,,,,,,blau,blue,b,1.0,b,1.0,0.3752350409999962,,,,,,,,,,6.0,4.0,76.0,6.0,323.208090834,,,,,,,,,,,,,,,,,323.1983490839999,323.995839584,324.792332417,324.78003283400005,,,,,,,,,,,,,,,,,,,,,,,,,,,,,,,,,,,324.78455933399994,324.792332417,324.792332417,325.17100649999986,b,1.0,0.3752350409999962,,,,,,sub-118,1,stroop_test,,
,,,,77.0,5.0,6.0,,,,,,,,,,,,,gelb,yellow,g,1.0,g,1.0,0.4562029169999277,,,,,,,,,,6.0,5.0,77.0,11.0,325.1816400839999,,,,,,,,,,,,,,,,,325.17159245899995,325.26923550000004,326.07906987499985,326.063793959,,,,,,,,,,,,,,,,,,,,,,,,,,,,,,,,,,,326.06765941699985,326.07906987499985,326.07906987499985,326.537745042,g,1.0,0.4562029169999277,,,,,,sub-118,1,stroop_test,,
,,,,78.0,6.0,6.0,,,,,,,,,,,,,gelb,blue,b,0.0,b,1.0,0.513251167000135,,,,,,,,,,6.0,6.0,78.0,9.0,326.54816837500005,,,,,,,,,,,,,,,,,326.538356209,327.33562700000004,328.128490084,328.1197074999999,,,,,,,,,,,,,,,,,,,,,,,,,,,,,,,,,,,328.12039379199985,328.128490084,328.128490084,328.64778991699984,b,1.0,0.513251167000135,,,,,,sub-118,1,stroop_test,,
,,,,79.0,7.0,6.0,,,,,,,,,,,,,blau,blue,b,1.0,b,1.0,0.5894197919999442,,,,,,,,,,6.0,7.0,79.0,5.0,328.6580748749999,,,,,,,,,,,,,,,,,328.64836075000005,329.44569554199995,330.242187917,330.230071375,,,,,,,,,,,,,,,,,,,,,,,,,,,,,,,,,,,330.23470325000005,330.242187917,330.242187917,330.8376670419999,b,1.0,0.5894197919999442,,,,,,sub-118,1,stroop_test,,
,,,,80.0,8.0,6.0,,,,,,,,,,,,,gelb,yellow,g,1.0,g,1.0,0.3815395419999277,,,,,,,,,,6.0,8.0,80.0,10.0,330.847917917,,,,,,,,,,,,,,,,,330.838277167,331.18533987499984,331.9816367499999,331.9702256669999,,,,,,,,,,,,,,,,,,,,,,,,,,,,,,,,,,,331.9740217919999,331.9816367499999,331.9816367499999,332.37053687499986,g,1.0,0.3815395419999277,,,,,,sub-118,1,stroop_test,,
,,,,81.0,9.0,6.0,,,,,,,,,,,,,gelb,red,r,0.0,r,1.0,0.6843987909999214,,,,,,,,,,6.0,9.0,81.0,8.0,332.381548792,,,,,,,,,,,,,,,,,332.37108229199987,332.469671209,333.27209616699986,333.2633449169999,,,,,,,,,,,,,,,,,,,,,,,,,,,,,,,,,,,333.264277375,333.27209616699986,333.27209616699986,333.9651299589999,r,1.0,0.6843987909999214,,,,,,sub-118,1,stroop_test,,
,,,,82.0,10.0,6.0,,,,,,,,,,,,,rot,yellow,g,0.0,g,1.0,0.8445829580000463,,,,,,,,,,6.0,10.0,82.0,3.0,333.97564220900006,,,,,,,,,,,,,,,,,333.96571170899995,334.062464125,334.86299162499984,334.84662712500005,,,,,,,,,,,,,,,,,,,,,,,,,,,,,,,,,,,334.851826834,334.86299162499984,334.86299162499984,335.71457558400004,g,1.0,0.8445829580000463,,,,,,sub-118,1,stroop_test,,
,,,,83.0,11.0,6.0,,,,,,,,,,,,,rot,red,r,1.0,r,1.0,0.7006801249999626,,,,,,,,,,6.0,11.0,83.0,0.0,335.72515187500005,,,,,,,,,,,,,,,,,335.71515316700004,336.0623105839999,336.85441283399985,336.8462592499999,,,,,,,,,,,,,,,,,,,,,,,,,,,,,,,,,,,336.8469604999999,336.85441283399985,336.85441283399985,337.565082042,r,1.0,0.7006801249999626,,,,,,sub-118,1,stroop_test,,
,,,,84.0,0.0,7.0,,,,,,,,,,,,,rot,yellow,g,0.0,r,0.0,1.0051009159999469,,,,,,,,,,7.0,0.0,84.0,3.0,337.57576733400003,,,,,,,,,,,,,,,,,337.565747,338.36226320899993,339.1543775839999,339.1463413749999,,,,,,,,,,,,,,,,,,,,,,,,,,,,,,,,,,,339.14702958400005,339.1543775839999,339.1543775839999,340.16442508399984,r,0.0,1.0051009159999469,,,,,,sub-118,1,stroop_test,,
,,,,85.0,1.0,7.0,,,,,,,,,,,,,blau,blue,b,1.0,b,1.0,0.5065388329999223,,,,,,,,,,7.0,1.0,85.0,5.0,340.175577292,,,,,,,,,,,,,,,,,340.165077667,340.9623788339999,341.7580489589999,341.74616574999993,,,,,,,,,,,,,,,,,,,,,,,,,,,,,,,,,,,341.75029741699984,341.7580489589999,341.7580489589999,342.27111620899984,b,1.0,0.5065388329999223,,,,,,sub-118,1,stroop_test,,
,,,,86.0,2.0,7.0,,,,,,,,,,,,,gelb,red,r,0.0,g,0.0,1.2771219169999313,,,,,,,,,,7.0,2.0,86.0,8.0,342.28162766699995,,,,,,,,,,,,,,,,,342.2717161669999,342.6195577919999,343.424871459,343.41305620900005,,,,,,,,,,,,,,,,,,,,,,,,,,,,,,,,,,,343.41706775,343.424871459,343.424871459,344.71567837500004,g,0.0,1.2771219169999313,,,,,,sub-118,1,stroop_test,,
,,,,87.0,3.0,7.0,,,,,,,,,,,,,gelb,blue,b,0.0,b,1.0,0.5485204169999633,,,,,,,,,,7.0,3.0,87.0,9.0,344.72649575,,,,,,,,,,,,,,,,,344.71641858400005,345.06251199999986,345.85471437499984,345.846440292,,,,,,,,,,,,,,,,,,,,,,,,,,,,,,,,,,,345.84716345899994,345.85471437499984,345.85471437499984,346.40605070899994,b,1.0,0.5485204169999633,,,,,,sub-118,1,stroop_test,,
,,,,88.0,4.0,7.0,,,,,,,,,,,,,gelb,yellow,g,1.0,g,1.0,0.5421852500001023,,,,,,,,,,7.0,4.0,88.0,10.0,346.416749375,,,,,,,,,,,,,,,,,346.40662066699986,347.602825334,348.39494624999986,348.38637370899994,,,,,,,,,,,,,,,,,,,,,,,,,,,,,,,,,,,348.387016,348.39494624999986,348.39494624999986,348.946811959,g,1.0,0.5421852500001023,,,,,,sub-118,1,stroop_test,,
,,,,89.0,5.0,7.0,,,,,,,,,,,,,gelb,yellow,g,1.0,g,1.0,0.5265348329999142,,,,,,,,,,7.0,5.0,89.0,11.0,348.957446042,,,,,,,,,,,,,,,,,348.94748370900004,349.74555354200004,350.538703584,350.53013124999995,,,,,,,,,,,,,,,,,,,,,,,,,,,,,,,,,,,350.531069584,350.538703584,350.538703584,351.07101483400004,g,1.0,0.5265348329999142,,,,,,sub-118,1,stroop_test,,
,,,,90.0,6.0,7.0,,,,,,,,,,,,,rot,red,r,1.0,r,1.0,0.6375877919999766,,,,,,,,,,7.0,6.0,90.0,0.0,351.0815265,,,,,,,,,,,,,,,,,351.07158345899995,351.869517709,352.6795934999999,352.66355316700003,,,,,,,,,,,,,,,,,,,,,,,,,,,,,,,,,,,352.66810229199984,352.6795934999999,352.6795934999999,353.3204704589999,r,1.0,0.6375877919999766,,,,,,sub-118,1,stroop_test,,
,,,,91.0,7.0,7.0,,,,,,,,,,,,,blau,blue,b,1.0,b,1.0,0.5894050829999742,,,,,,,,,,7.0,7.0,91.0,6.0,353.331474875,,,,,,,,,,,,,,,,,353.32104300000003,353.4186945,354.21481537500006,354.203136709,,,,,,,,,,,,,,,,,,,,,,,,,,,,,,,,,,,354.2070514589999,354.21481537500006,354.21481537500006,354.8134234999999,b,1.0,0.5894050829999742,,,,,,sub-118,1,stroop_test,,
,,,,92.0,8.0,7.0,,,,,,,,,,,,,rot,red,r,1.0,r,1.0,0.6228404579999278,,,,,,,,,,7.0,8.0,92.0,1.0,354.823949042,,,,,,,,,,,,,,,,,354.8140024999999,354.91239633399994,355.7126200839999,355.696396167,,,,,,,,,,,,,,,,,,,,,,,,,,,,,,,,,,,355.70198179199986,355.7126200839999,355.7126200839999,356.338324084,r,1.0,0.6228404579999278,,,,,,sub-118,1,stroop_test,,
,,,,93.0,9.0,7.0,,,,,,,,,,,,,rot,blue,b,0.0,b,1.0,1.0194516250001016,,,,,,,,,,7.0,9.0,93.0,2.0,356.3490845,,,,,,,,,,,,,,,,,356.338925875,356.68630262499994,357.48761879200003,357.479530167,,,,,,,,,,,,,,,,,,,,,,,,,,,,,,,,,,,357.4802714169999,357.48761879200003,357.48761879200003,358.5144684589999,b,1.0,1.0194516250001016,,,,,,sub-118,1,stroop_test,,
,,,,94.0,10.0,7.0,,,,,,,,,,,,,blau,yellow,g,0.0,r,0.0,0.9707277909999448,,,,,,,,,,7.0,10.0,94.0,7.0,358.525063917,,,,,,,,,,,,,,,,,358.5150547919999,359.712256209,360.508428709,360.496378709,,,,,,,,,,,,,,,,,,,,,,,,,,,,,,,,,,,360.5008400420001,360.508428709,360.508428709,361.4818362089999,r,0.0,0.9707277909999448,,,,,,sub-118,1,stroop_test,,
,,,,95.0,11.0,7.0,,,,,,,,,,,,,blau,red,r,0.0,r,1.0,1.398676291999891,,,,,,,,,,7.0,11.0,95.0,4.0,361.49231699999984,,,,,,,,,,,,,,,,,361.482420917,362.678882375,363.4714359169999,363.4629592089999,,,,,,,,,,,,,,,,,,,,,,,,,,,,,,,,,,,363.46365108399993,363.4714359169999,363.4714359169999,364.880858417,r,1.0,1.398676291999891,,,,,,sub-118,1,stroop_test,,
,,,,96.0,0.0,8.0,,,,,,,,,,,,,rot,red,r,1.0,r,1.0,0.7062215419998665,,,,,,,,,,8.0,0.0,96.0,0.0,364.8912583339999,,,,,,,,,,,,,,,,,364.881430542,364.978807542,365.77852029200005,365.7628605419999,,,,,,,,,,,,,,,,,,,,,,,,,,,,,,,,,,,365.76722337499984,365.77852029200005,365.77852029200005,366.487625417,r,1.0,0.7062215419998665,,,,,,sub-118,1,stroop_test,,
,,,,97.0,1.0,8.0,,,,,,,,,,,,,gelb,yellow,g,1.0,g,1.0,0.5331597500000953,,,,,,,,,,8.0,1.0,97.0,10.0,366.4994399589999,,,,,,,,,,,,,,,,,366.488205542,367.2855223339999,368.081138959,368.0687314999999,,,,,,,,,,,,,,,,,,,,,,,,,,,,,,,,,,,368.072527334,368.081138959,368.081138959,368.6211957499999,g,1.0,0.5331597500000953,,,,,,sub-118,1,stroop_test,,
,,,,98.0,2.0,8.0,,,,,,,,,,,,,rot,yellow,g,0.0,g,1.0,0.6541684589999477,,,,,,,,,,8.0,2.0,98.0,3.0,368.63168800000005,,,,,,,,,,,,,,,,,368.621785042,368.71857549999993,369.515470834,369.5022796669999,,,,,,,,,,,,,,,,,,,,,,,,,,,,,,,,,,,369.5056985,369.515470834,369.515470834,370.18251229199984,g,1.0,0.6541684589999477,,,,,,sub-118,1,stroop_test,,
,,,,99.0,3.0,8.0,,,,,,,,,,,,,blau,yellow,g,0.0,g,1.0,0.5806372080000983,,,,,,,,,,8.0,3.0,99.0,7.0,370.1955161249999,,,,,,,,,,,,,,,,,370.182914375,370.978987542,371.774215667,371.762845542,,,,,,,,,,,,,,,,,,,,,,,,,,,,,,,,,,,371.7667533339999,371.774215667,371.774215667,372.3633485419999,g,1.0,0.5806372080000983,,,,,,sub-118,1,stroop_test,,
,,,,100.0,4.0,8.0,,,,,,,,,,,,,blau,blue,b,1.0,b,1.0,0.5497537500000362,,,,,,,,,,8.0,4.0,100.0,5.0,372.373978834,,,,,,,,,,,,,,,,,372.3640084590001,373.5621807920001,374.354490375,374.3460672499999,,,,,,,,,,,,,,,,,,,,,,,,,,,,,,,,,,,374.346786,374.354490375,374.354490375,374.914113834,b,1.0,0.5497537500000362,,,,,,sub-118,1,stroop_test,,
,,,,101.0,5.0,8.0,,,,,,,,,,,,,gelb,red,r,0.0,r,1.0,0.7085672499999873,,,,,,,,,,8.0,5.0,101.0,8.0,374.924417459,,,,,,,,,,,,,,,,,374.91468562500006,375.7123721249999,376.5096425,376.49643412499984,,,,,,,,,,,,,,,,,,,,,,,,,,,,,,,,,,,376.502013209,376.5096425,376.5096425,377.221550417,r,1.0,0.7085672499999873,,,,,,sub-118,1,stroop_test,,
,,,,102.0,6.0,8.0,,,,,,,,,,,,,gelb,blue,b,0.0,b,1.0,0.8295797090001997,,,,,,,,,,8.0,6.0,102.0,9.0,377.2319045,,,,,,,,,,,,,,,,,377.222150709,378.0194740839999,378.811022042,378.8027451249999,,,,,,,,,,,,,,,,,,,,,,,,,,,,,,,,,,,378.8033703749999,378.811022042,378.811022042,379.6478317089999,b,1.0,0.8295797090001997,,,,,,sub-118,1,stroop_test,,
,,,,103.0,7.0,8.0,,,,,,,,,,,,,blau,red,r,0.0,r,1.0,0.7436540839998997,,,,,,,,,,8.0,7.0,103.0,4.0,379.658308292,,,,,,,,,,,,,,,,,379.648382667,379.7453415839999,380.54203675,380.529753959,,,,,,,,,,,,,,,,,,,,,,,,,,,,,,,,,,,380.53421625,380.54203675,380.54203675,381.2884439999999,r,1.0,0.7436540839998997,,,,,,sub-118,1,stroop_test,,
,,,,104.0,8.0,8.0,,,,,,,,,,,,,rot,blue,b,0.0,b,1.0,0.752653458000168,,,,,,,,,,8.0,8.0,104.0,2.0,381.298384584,,,,,,,,,,,,,,,,,381.289030625,381.3852129169999,382.187644667,382.16943375,,,,,,,,,,,,,,,,,,,,,,,,,,,,,,,,,,,382.1735172089999,382.187644667,382.187644667,382.947668959,b,1.0,0.752653458000168,,,,,,sub-118,1,stroop_test,,
,,,,105.0,9.0,8.0,,,,,,,,,,,,,blau,blue,b,1.0,b,1.0,0.5362058749999505,,,,,,,,,,8.0,9.0,105.0,6.0,382.957743625,,,,,,,,,,,,,,,,,382.94826112499993,383.045063917,383.8421882500001,383.829754084,,,,,,,,,,,,,,,,,,,,,,,,,,,,,,,,,,,383.834676625,383.8421882500001,383.8421882500001,384.381245792,b,1.0,0.5362058749999505,,,,,,sub-118,1,stroop_test,,
,,,,106.0,10.0,8.0,,,,,,,,,,,,,rot,red,r,1.0,r,1.0,0.592677207999941,,,,,,,,,,8.0,10.0,106.0,1.0,384.3916433339999,,,,,,,,,,,,,,,,,384.3818372919999,384.728823459,385.5287131669999,385.513072459,,,,,,,,,,,,,,,,,,,,,,,,,,,,,,,,,,,385.5177762919999,385.5287131669999,385.5287131669999,386.130869042,r,1.0,0.592677207999941,,,,,,sub-118,1,stroop_test,,
,,,,107.0,11.0,8.0,,,,,,,,,,,,,gelb,yellow,g,1.0,g,1.0,0.5648907499999041,,,,,,,,,,8.0,11.0,107.0,11.0,386.141581792,,,,,,,,,,,,,,,,,386.1314948339999,386.478953917,387.2746128749999,387.262789,,,,,,,,,,,,,,,,,,,,,,,,,,,,,,,,,,,387.2670718339999,387.2746128749999,387.2746128749999,387.847737875,g,1.0,0.5648907499999041,,,,,,sub-118,1,stroop_test,,
,,,,108.0,0.0,9.0,,,,,,,,,,,,,blau,yellow,g,0.0,g,1.0,0.7768967090000842,,,,,,,,,,9.0,0.0,108.0,7.0,387.858261042,,,,,,,,,,,,,,,,,387.848309334,389.045521917,389.840252292,389.829154167,,,,,,,,,,,,,,,,,,,,,,,,,,,,,,,,,,,389.8326666669999,389.840252292,389.840252292,390.6209445419999,g,1.0,0.7768967090000842,,,,,,sub-118,1,stroop_test,,
,,,,109.0,1.0,9.0,,,,,,,,,,,,,blau,blue,b,1.0,b,1.0,0.6179590830001871,,,,,,,,,,9.0,1.0,109.0,5.0,390.6311628749999,,,,,,,,,,,,,,,,,390.6216081669999,390.969375584,391.7608651669999,391.75267633400006,,,,,,,,,,,,,,,,,,,,,,,,,,,,,,,,,,,391.7531437500001,391.7608651669999,391.7608651669999,392.38138408399993,b,1.0,0.6179590830001871,,,,,,sub-118,1,stroop_test,,
,,,,110.0,2.0,9.0,,,,,,,,,,,,,blau,blue,b,1.0,b,1.0,0.4058356250000088,,,,,,,,,,9.0,2.0,110.0,6.0,392.391632875,,,,,,,,,,,,,,,,,392.3819627090001,393.578133292,394.373185417,394.363027167,,,,,,,,,,,,,,,,,,,,,,,,,,,,,,,,,,,394.36395879200006,394.373185417,394.373185417,394.781930834,b,1.0,0.4058356250000088,,,,,,sub-118,1,stroop_test,,
,,,,111.0,3.0,9.0,,,,,,,,,,,,,gelb,red,r,0.0,r,1.0,0.850971083000104,,,,,,,,,,9.0,3.0,111.0,8.0,394.7923622499999,,,,,,,,,,,,,,,,,394.78250712500005,395.1288155419999,395.925128834,395.91315833400006,,,,,,,,,,,,,,,,,,,,,,,,,,,,,,,,,,,395.917531292,395.925128834,395.925128834,396.7808517089999,r,1.0,0.850971083000104,,,,,,sub-118,1,stroop_test,,
,,,,112.0,4.0,9.0,,,,,,,,,,,,,rot,red,r,1.0,r,1.0,0.5897534589998941,,,,,,,,,,9.0,4.0,112.0,1.0,396.79154375,,,,,,,,,,,,,,,,,396.781429584,397.9786801249999,398.778057292,398.7628202919999,,,,,,,,,,,,,,,,,,,,,,,,,,,,,,,,,,,398.7668702919999,398.778057292,398.778057292,399.371180167,r,1.0,0.5897534589998941,,,,,,sub-118,1,stroop_test,,
,,,,113.0,5.0,9.0,,,,,,,,,,,,,gelb,blue,b,0.0,b,1.0,0.9326491659999192,,,,,,,,,,9.0,5.0,113.0,9.0,399.381487042,,,,,,,,,,,,,,,,,399.371752334,399.719204417,400.5145429589999,400.50296783400006,,,,,,,,,,,,,,,,,,,,,,,,,,,,,,,,,,,400.50657254199984,400.5145429589999,400.5145429589999,401.45419475000006,b,1.0,0.9326491659999192,,,,,,sub-118,1,stroop_test,,
,,,,114.0,6.0,9.0,,,,,,,,,,,,,gelb,yellow,g,1.0,g,1.0,0.4451934579999488,,,,,,,,,,9.0,6.0,114.0,10.0,401.464400625,,,,,,,,,,,,,,,,,401.454771417,402.25232308399984,403.0553623749999,403.04627275,,,,,,,,,,,,,,,,,,,,,,,,,,,,,,,,,,,403.0472059999999,403.0553623749999,403.0553623749999,403.503608917,g,1.0,0.4451934579999488,,,,,,sub-118,1,stroop_test,,
,,,,115.0,7.0,9.0,,,,,,,,,,,,,blau,red,r,0.0,r,1.0,0.6211483329998373,,,,,,,,,,9.0,7.0,115.0,4.0,403.514478292,,,,,,,,,,,,,,,,,403.5041782919999,403.8524860419999,404.647029917,404.635592834,,,,,,,,,,,,,,,,,,,,,,,,,,,,,,,,,,,404.638960959,404.647029917,404.647029917,405.271108042,r,1.0,0.6211483329998373,,,,,,sub-118,1,stroop_test,,
,,,,116.0,8.0,9.0,,,,,,,,,,,,,rot,yellow,g,0.0,b,0.0,0.7593992909999088,,,,,,,,,,9.0,8.0,116.0,3.0,405.281332125,,,,,,,,,,,,,,,,,405.2716953339999,406.46936708400006,407.277093542,407.262557917,,,,,,,,,,,,,,,,,,,,,,,,,,,,,,,,,,,407.266702667,407.277093542,407.277093542,408.047125917,b,0.0,0.7593992909999088,,,,,,sub-118,1,stroop_test,,
,,,,117.0,9.0,9.0,,,,,,,,,,,,,gelb,yellow,g,1.0,g,1.0,1.3048615410000366,,,,,,,,,,9.0,9.0,117.0,11.0,408.0574243339999,,,,,,,,,,,,,,,,,408.04769925,408.8454122499999,409.6410212919999,409.62932025,,,,,,,,,,,,,,,,,,,,,,,,,,,,,,,,,,,409.6333305,409.6410212919999,409.6410212919999,410.9535494169999,g,1.0,1.3048615410000366,,,,,,sub-118,1,stroop_test,,
,,,,118.0,10.0,9.0,,,,,,,,,,,,,rot,red,r,1.0,r,1.0,0.6882322080000449,,,,,,,,,,9.0,10.0,118.0,0.0,410.9645353749999,,,,,,,,,,,,,,,,,410.954129375,412.1525695419999,412.950657667,412.9357953339999,,,,,,,,,,,,,,,,,,,,,,,,,,,,,,,,,,,412.940411209,412.950657667,412.950657667,413.647462542,r,1.0,0.6882322080000449,,,,,,sub-118,1,stroop_test,,
,,,,119.0,11.0,9.0,,,,,,,,,,,,,rot,blue,b,0.0,b,1.0,0.6284159159999945,,,,,,,,,,9.0,11.0,119.0,2.0,413.658169959,,,,,,,,,,,,,,,,,413.6481225839999,414.84534366699984,415.638453292,415.6296048339999,,,,,,,,,,,,,,,,,,,,,,,,,,,,,,,,,,,415.630531792,415.638453292,415.638453292,416.2712419999999,b,1.0,0.6284159159999945,,,,,,sub-118,1,stroop_test,,
,,,,,,,,,,,,,,,,,,,,,,,,,,,,,,,,,,,,,,,,,,,,,,,,,,,,,,,,,,,,,,,,,,,,,,,,,,,,,,,,,,,,,,,,,,,,,,,,,,,,,,416.27154133400006,416.284601709,421.2785580419999,421.2680895,sub-118,1,stroop_test,,
