wordCTK,colorCTK,corrAnsCTK,congruentCTK,thisN,thisTrialN,thisRepN,keyResp_CTK.keys,keyResp_CTK.corr,keyResp_CTK.rt,keyResp_CTK.duration,wordPractice,colorPractice,corrAnsPractice,congruentPractice,respPractice.keys,respPractice.corr,respPractice.rt,respPractice.duration,word,color,corrAns,congruent,keyResp_test_run.keys,keyResp_test_run.corr,keyResp_test_run.rt,keyResp_test_run.duration,trials_CTK.thisRepN,trials_CTK.thisTrialN,trials_CTK.thisN,trials_CTK.thisIndex,trials_practice.thisRepN,trials_practice.thisTrialN,trials_practice.thisN,trials_practice.thisIndex,trials_test.thisRepN,trials_test.thisTrialN,trials_test.thisN,trials_test.thisIndex,thisRow.t,notes,instruction.started,instr_text.started,instr_image.started,instr_resp.started,instruction.stopped,instr_resp.keys,instr_resp.rt,instr_resp.duration,instr_color_to_key.started,instr_ctk.started,resp_ctk.started,instr_color_to_key.stopped,resp_ctk.keys,resp_ctk.rt,resp_ctk.duration,ITI.started,fixcross.started,fixcross.stopped,ITI.stopped,color_to_key_run.started,stimulus_CTK.started,keyResp_CTK.started,color_to_key_run.stopped,trials_CTK.keyResp_CTK.keys,trials_CTK.keyResp_CTK.corr,trials_CTK.keyResp_CTK.rt,trials_CTK.keyResp_CTK.duration,instr_practice.started,instr_practice_text.started,instr_practice_resp.started,instr_practice.stopped,instr_practice_resp.keys,instr_practice_resp.rt,instr_practice_resp.duration,practice_run.started,stimulus_practice.started,respPractice.started,practice_run.stopped,trials_practice.respPractice.keys,trials_practice.respPractice.corr,trials_practice.respPractice.rt,trials_practice.respPractice.duration,feedback.started,textFeedback.started,textFeedback.stopped,feedback.stopped,instr_test.started,instr_test_text.started,instr_test_resp.started,instr_test.stopped,instr_test_resp.keys,instr_test_resp.rt,instr_test_resp.duration,test_run.started,stimulus_test_run.started,keyResp_test_run.started,test_run.stopped,trials_test.keyResp_test_run.keys,trials_test.keyResp_test_run.corr,trials_test.keyResp_test_run.rt,trials_test.keyResp_test_run.duration,goodbye.started,textGoodbye.started,textGoodbye.stopped,goodbye.stopped,participant,session,expName,frameRate,Unnamed: 113
,,,,,,,,,,,,,,,,,,,,,,,,,,,,,,,,,,,,,,,,,0.002836300060153,0.0389561001211404,0.0389561001211404,0.0389561001211404,2.355494299903512,space,2.301799700129777,,,,,,,,,,,,,,,,,,,,,,,,,,,,,,,,,,,,,,,,,,,,,,,,,,,,,,,,,,,sub-168,1,stroop_test,119.93039192634627,
,,,,,,,,,,,,,,,,,,,,,,,,,,,,,,,,,,,,,,,,,,,,,,,,,2.355542300269008,2.360585100017488,2.360585100017488,26.31318720011041,space,23.94458390027285,,,,,,,,,,,,,,,,,,,,,,,,,,,,,,,,,,,,,,,,,,,,,,,,,,,,sub-168,1,stroop_test,119.93039192634627,
test,blue,b,1.0,0.0,0.0,0.0,b,1.0,2.388587399851531,,,,,,,,,,,,,,,,,,0.0,0.0,0.0,2.0,,,,,,,,,26.323583399876952,,,,,,,,,,,,,,,,,26.32037289999425,26.41206380026415,27.20568870007992,27.195868900045756,27.20136169996113,27.20568870007992,27.20568870007992,29.5957925003022,b,1.0,2.388587399851531,,,,,,,,,,,,,,,,,,,,,,,,,,,,,,,,,,,,,,,,sub-168,1,stroop_test,119.93039192634627,
test,red,r,1.0,1.0,1.0,0.0,r,1.0,0.9867014000192283,,,,,,,,,,,,,,,,,,0.0,1.0,1.0,0.0,,,,,,,,,29.603126700036228,,,,,,,,,,,,,,,,,29.596047299914066,30.794490300118923,31.586319399997592,31.57840549992397,31.57872930029407,31.586319399997592,31.586319399997592,32.578809100203216,r,1.0,0.9867014000192283,,,,,,,,,,,,,,,,,,,,,,,,,,,,,,,,,,,,,,,,sub-168,1,stroop_test,119.93039192634627,
test,yellow,g,1.0,2.0,2.0,0.0,g,1.0,0.7080358997918665,,,,,,,,,,,,,,,,,,0.0,2.0,2.0,1.0,,,,,,,,,32.58611290017143,,,,,,,,,,,,,,,,,32.579084100201726,32.67775679985061,33.469280899968,33.46143720019609,33.46188110020012,33.469280899968,33.469280899968,34.17853939998895,g,1.0,0.7080358997918665,,,,,,,,,,,,,,,,,,,,,,,,,,,,,,,,,,,,,,,,sub-168,1,stroop_test,119.93039192634627,
test,red,r,1.0,3.0,0.0,1.0,r,1.0,0.6726037999615073,,,,,,,,,,,,,,,,,,1.0,0.0,3.0,0.0,,,,,,,,,34.185839199926704,,,,,,,,,,,,,,,,,34.17881669988856,35.37718150019646,36.16867530019954,36.16104689985514,36.161439900286496,36.16867530019954,36.16867530019954,36.84459300013259,r,1.0,0.6726037999615073,,,,,,,,,,,,,,,,,,,,,,,,,,,,,,,,,,,,,,,,sub-168,1,stroop_test,119.93039192634627,
test,blue,b,1.0,4.0,1.0,1.0,g,0.0,0.798206300009042,,,,,,,,,,,,,,,,,,1.0,1.0,4.0,2.0,,,,,,,,,36.85197230009362,,,,,,,,,,,,,,,,,36.844813799951226,36.935453299898654,37.72687090002,37.7191198002547,37.71950920019299,37.72687090002,37.72687090002,38.52763330005109,g,0.0,0.798206300009042,,,,,,,,,,,,,,,,,,,,,,,,,,,,,,,,,,,,,,,,sub-168,1,stroop_test,119.93039192634627,
test,yellow,g,1.0,5.0,2.0,1.0,g,1.0,0.6955133997835219,,,,,,,,,,,,,,,,,,1.0,2.0,5.0,1.0,,,,,,,,,38.53523200005293,,,,,,,,,,,,,,,,,38.52781710028648,38.61878550006077,39.40990759991109,39.40200529992581,39.40228539984673,39.40990759991109,39.40990759991109,40.11073980014771,g,1.0,0.6955133997835219,,,,,,,,,,,,,,,,,,,,,,,,,,,,,,,,,,,,,,,,sub-168,1,stroop_test,119.93039192634627,
test,blue,b,1.0,6.0,0.0,2.0,b,1.0,0.4901099996641278,,,,,,,,,,,,,,,,,,2.0,0.0,6.0,2.0,,,,,,,,,40.117973200045526,,,,,,,,,,,,,,,,,40.110966000240296,40.45996819995344,41.25124520016834,41.243446700274944,41.24379620002583,41.25124520016834,41.25124520016834,41.743613900151104,b,1.0,0.4901099996641278,,,,,,,,,,,,,,,,,,,,,,,,,,,,,,,,,,,,,,,,sub-168,1,stroop_test,119.93039192634627,
test,red,r,1.0,7.0,1.0,2.0,r,1.0,0.6928505999967456,,,,,,,,,,,,,,,,,,2.0,1.0,7.0,0.0,,,,,,,,,41.75119260000065,,,,,,,,,,,,,,,,,41.74384170025587,42.53431189991534,43.325857900083065,43.31813530018553,43.318539100233465,43.325857900083065,43.325857900083065,44.02660300023854,r,1.0,0.6928505999967456,,,,,,,,,,,,,,,,,,,,,,,,,,,,,,,,,,,,,,,,sub-168,1,stroop_test,119.93039192634627,
test,yellow,g,1.0,8.0,2.0,2.0,g,1.0,0.7993379002436996,,,,,,,,,,,,,,,,,,2.0,2.0,8.0,1.0,,,,,,,,,44.0341993002221,,,,,,,,,,,,,,,,,44.02684239996597,44.36751289991662,45.15866019995883,45.15094510000199,45.15147909987718,45.15866019995883,45.15866019995883,45.95959650026634,g,1.0,0.7993379002436996,,,,,,,,,,,,,,,,,,,,,,,,,,,,,,,,,,,,,,,,sub-168,1,stroop_test,119.93039192634627,
test,blue,b,1.0,9.0,0.0,3.0,b,1.0,0.4264263999648392,,,,,,,,,,,,,,,,,,3.0,0.0,9.0,2.0,,,,,,,,,45.967097899876535,,,,,,,,,,,,,,,,,45.95981100015342,46.0503715001978,46.84196199988946,46.83416120009497,46.83448720024899,46.84196199988946,46.84196199988946,47.276389400009066,b,1.0,0.4264263999648392,,,,,,,,,,,,,,,,,,,,,,,,,,,,,,,,,,,,,,,,sub-168,1,stroop_test,119.93039192634627,
test,yellow,g,1.0,10.0,1.0,3.0,g,1.0,0.4909427999518811,,,,,,,,,,,,,,,,,,3.0,1.0,10.0,1.0,,,,,,,,,47.28374870028347,,,,,,,,,,,,,,,,,47.27659869985655,48.07528360001743,48.866627800278366,48.85869170026854,48.85897800000384,48.866627800278366,48.866627800278366,49.35897359997034,g,1.0,0.4909427999518811,,,,,,,,,,,,,,,,,,,,,,,,,,,,,,,,,,,,,,,,sub-168,1,stroop_test,119.93039192634627,
test,red,r,1.0,11.0,2.0,3.0,r,1.0,0.428844400215894,,,,,,,,,,,,,,,,,,3.0,2.0,11.0,0.0,,,,,,,,,49.36673530004919,,,,,,,,,,,,,,,,,49.359190800227225,49.699951299931854,50.49122640024871,50.48350910004228,50.48386909998953,50.49122640024871,50.49122640024871,50.92558200005442,r,1.0,0.428844400215894,,,,,,,,,,,,,,,,,,,,,,,,,,,,,,,,,,,,,,,,sub-168,1,stroop_test,119.93039192634627,
,,,,,,,,,,,,,,,,,,,,,,,,,,,,,,,,,,,,,,,,,,,,,,,,,,,,,,,,,,,,,,,,,,,,50.92569660022855,50.93333420017734,50.93333420017734,55.80847290018573,space,4.871795600280166,,,,,,,,,,,,,,,,,,,,,,,,,,,,,,,,,sub-168,1,stroop_test,119.93039192634627,
,,,,0.0,0.0,0.0,,,,,blau,blue,b,1.0,b,1.0,0.7413249998353422,,,,,,,,,,,,,,0.0,0.0,0.0,5.0,,,,,55.81901580002159,,,,,,,,,,,,,,,,,55.81587770022452,55.90728350030258,56.70064190030098,56.6909305001609,,,,,,,,,,,,,,,,56.69639240019024,56.70064190030098,56.70064190030098,57.449672100134194,b,1.0,0.7413249998353422,,57.457514700014144,57.46137059992179,58.4568247999996,58.44891679985449,,,,,,,,,,,,,,,,,,,,sub-168,1,stroop_test,119.93039192634627,
,,,,1.0,1.0,0.0,,,,,rot,blue,b,0.0,b,1.0,1.6237845001742244,,,,,,,,,,,,,,0.0,1.0,1.0,2.0,,,,,58.4568247999996,,,,,,,,,,,,,,,,,58.44909390015528,59.24842619989067,60.040334600023925,60.03219379996881,,,,,,,,,,,,,,,,60.035513599868864,60.040334600023925,60.040334600023925,61.66564310016111,b,1.0,1.6237845001742244,,61.666030399966985,61.67308170022443,62.66445890022442,62.65676710009575,,,,,,,,,,,,,,,,,,,,sub-168,1,stroop_test,119.93039192634627,
,,,,2.0,2.0,0.0,,,,,rot,red,r,1.0,r,1.0,0.7675586002878845,,,,,,,,,,,,,,0.0,2.0,2.0,0.0,,,,,62.66445890022442,,,,,,,,,,,,,,,,,62.65698640001938,62.76464400021359,63.55616270005703,63.54807930020616,,,,,,,,,,,,,,,,63.54842639993876,63.55616270005703,63.55616270005703,64.3319010999985,r,1.0,0.7675586002878845,,64.33229799987748,64.33924690028653,65.33087720023468,65.32311449991539,,,,,,,,,,,,,,,,,,,,sub-168,1,stroop_test,119.93039192634627,
,,,,3.0,3.0,0.0,,,,,gelb,yellow,g,1.0,g,1.0,0.5645268000662327,,,,,,,,,,,,,,0.0,3.0,3.0,11.0,,,,,65.33087720023468,,,,,,,,,,,,,,,,,65.32334920018911,65.43057270022109,66.22211420023814,66.21439020009711,,,,,,,,,,,,,,,,66.21695500006899,66.22211420023814,66.22211420023814,66.78992210002616,g,1.0,0.5645268000662327,,66.79035399993882,66.79702450009063,67.78851999994367,67.78090830007568,,,,,,,,,,,,,,,,,,,,sub-168,1,stroop_test,119.93039192634627,
,,,,4.0,4.0,0.0,,,,,gelb,yellow,g,1.0,g,1.0,0.6130083999596536,,,,,,,,,,,,,,0.0,4.0,4.0,10.0,,,,,67.78851999994367,,,,,,,,,,,,,,,,,67.78111860016361,68.98853860003874,69.78007039986551,69.77228179993108,,,,,,,,,,,,,,,,69.77276309998706,69.78007039986551,69.78007039986551,70.39767570002005,g,1.0,0.6130083999596536,,70.39811229985207,70.4050503000617,71.39630760019645,71.38863970013335,,,,,,,,,,,,,,,,,,,,sub-168,1,stroop_test,119.93039192634627,
,,,,5.0,5.0,0.0,,,,,gelb,red,r,0.0,r,1.0,0.7189230998046696,,,,,,,,,,,,,,0.0,5.0,5.0,8.0,,,,,71.39630760019645,,,,,,,,,,,,,,,,,71.38890320016071,72.19630800001323,72.98791230004281,72.98003200022504,,,,,,,,,,,,,,,,72.98038910003379,72.98791230004281,72.98791230004281,73.7134495000355,r,1.0,0.7189230998046696,,73.7138253999874,73.72115950006992,74.71244759997353,74.70469499984756,,,,,,,,,,,,,,,,,,,,sub-168,1,stroop_test,119.93039192634627,
,,,,6.0,6.0,0.0,,,,,blau,blue,b,1.0,b,1.0,0.6992109999991953,,,,,,,,,,,,,,0.0,6.0,6.0,6.0,,,,,74.71244759997353,,,,,,,,,,,,,,,,,74.70492719998583,74.80412330012769,75.59562220005319,75.58777960017323,,,,,,,,,,,,,,,,75.59008200000972,75.59562220005319,75.59562220005319,76.29640679992735,b,1.0,0.6992109999991953,,76.29682620009407,76.30403340002522,77.29535000026226,77.28744750004262,,,,,,,,,,,,,,,,,,,,sub-168,1,stroop_test,119.93039192634627,
,,,,7.0,7.0,0.0,,,,,gelb,blue,b,0.0,b,1.0,1.2141085001640022,,,,,,,,,,,,,,0.0,7.0,7.0,9.0,,,,,77.29535000026226,,,,,,,,,,,,,,,,,77.28764750016853,77.64555069990456,78.43679120019078,78.4292107000947,,,,,,,,,,,,,,,,78.43180829985067,78.43679120019078,78.43679120019078,79.65420550014824,b,1.0,1.2141085001640022,,79.65456400020048,79.66171760018915,80.65331159997731,80.64551790012047,,,,,,,,,,,,,,,,,,,,sub-168,1,stroop_test,119.93039192634627,
,,,,8.0,8.0,0.0,,,,,rot,yellow,g,0.0,g,1.0,1.04642069991678,,,,,,,,,,,,,,0.0,8.0,8.0,3.0,,,,,80.65331159997731,,,,,,,,,,,,,,,,,80.64577620010823,80.99474829994142,81.78640120010823,81.77882939996198,,,,,,,,,,,,,,,,81.78147820010781,81.78640120010823,81.78640120010823,82.83693760028109,g,1.0,1.04642069991678,,82.83723409986123,82.84442970016971,83.83610820025206,83.82840680005029,,,,,,,,,,,,,,,,,,,,sub-168,1,stroop_test,119.93039192634627,
,,,,9.0,9.0,0.0,,,,,blau,yellow,g,0.0,g,1.0,1.187929700128734,,,,,,,,,,,,,,0.0,9.0,9.0,7.0,,,,,83.83610820025206,,,,,,,,,,,,,,,,,83.82864680001512,84.63586409995332,85.42787380004302,85.41951559996232,,,,,,,,,,,,,,,,85.42175689991564,85.42787380004302,85.42787380004302,86.62019379995763,g,1.0,1.187929700128734,,86.62061010021716,86.62720149988309,87.61889669997618,87.61124450014904,,,,,,,,,,,,,,,,,,,,sub-168,1,stroop_test,119.93039192634627,
,,,,10.0,10.0,0.0,,,,,rot,red,r,1.0,r,1.0,0.7037022998556495,,,,,,,,,,,,,,0.0,10.0,10.0,1.0,,,,,87.61889669997618,,,,,,,,,,,,,,,,,87.61145350011066,87.96882200008258,88.76023710006848,88.7524133999832,,,,,,,,,,,,,,,,88.75481810001656,88.76023710006848,88.76023710006848,89.46959279989824,r,1.0,0.7037022998556495,,89.46995479986072,89.47693479992449,90.4683749000542,90.46062659984456,,,,,,,,,,,,,,,,,,,,sub-168,1,stroop_test,119.93039192634627,
,,,,11.0,11.0,0.0,,,,,blau,red,r,0.0,b,0.0,0.8660969999618828,,,,,,,,,,,,,,0.0,11.0,11.0,4.0,,,,,90.4683749000542,,,,,,,,,,,,,,,,,90.46083169989288,91.66821550019084,92.45979849994184,92.451831900049,,,,,,,,,,,,,,,,92.45380580006167,92.45979849994184,92.45979849994184,93.32786080008373,b,0.0,0.8660969999618828,,93.33511250000448,93.34222890017554,94.3344168001786,94.32646950008348,,,,,,,,,,,,,,,,,,,,sub-168,1,stroop_test,119.93039192634627,
,,,,12.0,0.0,1.0,,,,,gelb,red,r,0.0,r,1.0,1.2571159000508487,,,,,,,,,,,,,,1.0,0.0,12.0,8.0,,,,,94.3344168001786,,,,,,,,,,,,,,,,,94.3267177999951,94.42611279990524,95.21741170017047,95.20973660005257,,,,,,,,,,,,,,,,95.21244359994309,95.21741170017047,95.21741170017047,96.4765580999665,r,1.0,1.2571159000508487,,96.47932039992884,96.48389980010688,97.47529540024698,97.467842400074,,,,,,,,,,,,,,,,,,,,sub-168,1,stroop_test,119.93039192634627,
,,,,13.0,1.0,1.0,,,,,blau,red,r,0.0,r,1.0,0.874400700442493,,,,,,,,,,,,,,1.0,1.0,13.0,4.0,,,,,97.47529540024698,,,,,,,,,,,,,,,,,97.4680530000478,97.82554810028525,98.61713640019298,98.60921540018172,,,,,,,,,,,,,,,,98.61135110026224,98.61713640019298,98.61713640019298,99.49289009999484,r,1.0,0.874400700442493,,99.49330059997736,99.50019800011069,100.49154799990356,100.483919700142,,,,,,,,,,,,,,,,,,,,sub-168,1,stroop_test,119.93039192634627,
,,,,14.0,2.0,1.0,,,,,blau,blue,b,1.0,b,1.0,1.257581999991089,,,,,,,,,,,,,,1.0,2.0,14.0,5.0,,,,,100.49154799990356,,,,,,,,,,,,,,,,,100.48415700020269,100.84152360027656,101.63322089985012,101.62508450029418,,,,,,,,,,,,,,,,101.6253706002608,101.63322089985012,101.63322089985012,102.89244990004228,b,1.0,1.257581999991089,,102.8928388999775,102.89971140027046,103.89125830028206,103.88359249988572,,,,,,,,,,,,,,,,,,,,sub-168,1,stroop_test,119.93039192634627,
,,,,15.0,3.0,1.0,,,,,rot,red,r,1.0,r,1.0,0.7095758002251387,,,,,,,,,,,,,,1.0,3.0,15.0,0.0,,,,,103.89125830028206,,,,,,,,,,,,,,,,,103.88380490010604,105.09098530001938,105.88237440027297,105.87469610013068,,,,,,,,,,,,,,,,105.877315599937,105.88237440027297,105.88237440027297,106.6000610999763,r,1.0,0.7095758002251387,,106.60047730011864,106.60717040020972,107.5987034002319,107.59120689984412,,,,,,,,,,,,,,,,,,,,sub-168,1,stroop_test,119.93039192634627,
,,,,16.0,4.0,1.0,,,,,rot,red,r,1.0,r,1.0,0.740759199950844,,,,,,,,,,,,,,1.0,4.0,16.0,1.0,,,,,107.5987034002319,,,,,,,,,,,,,,,,,107.59138070000336,108.39882750017568,109.19057050021364,109.1826694002375,,,,,,,,,,,,,,,,109.18299070000648,109.19057050021364,109.19057050021364,109.93266450008376,r,1.0,0.740759199950844,,109.9330803998746,109.940209900029,110.93146510003136,110.92385789984836,,,,,,,,,,,,,,,,,,,,sub-168,1,stroop_test,119.93039192634627,
,,,,17.0,5.0,1.0,,,,,rot,yellow,g,0.0,g,1.0,1.190516000147909,,,,,,,,,,,,,,1.0,5.0,17.0,3.0,,,,,110.93146510003136,,,,,,,,,,,,,,,,,110.9240673999302,112.13137429999188,112.9231598000042,112.91531429998577,,,,,,,,,,,,,,,,112.9156357999891,112.9231598000042,112.9231598000042,114.11523990007116,g,1.0,1.190516000147909,,114.11559029994532,114.12298720004036,115.1145760002546,115.10639730002733,,,,,,,,,,,,,,,,,,,,sub-168,1,stroop_test,119.93039192634627,
,,,,18.0,6.0,1.0,,,,,gelb,blue,b,0.0,b,1.0,1.8887737998738885,,,,,,,,,,,,,,1.0,6.0,18.0,9.0,,,,,115.1145760002546,,,,,,,,,,,,,,,,,115.1065790001303,116.31409589992836,117.10560599993914,117.09780720015988,,,,,,,,,,,,,,,,117.10038550011814,117.10560599993914,117.10560599993914,118.99789990019052,b,1.0,1.8887737998738885,,118.99830520013349,119.0054783001542,119.997057300061,119.98932830011472,,,,,,,,,,,,,,,,,,,,sub-168,1,stroop_test,119.93039192634627,
,,,,19.0,7.0,1.0,,,,,rot,blue,b,0.0,b,1.0,0.8156258999370039,,,,,,,,,,,,,,1.0,7.0,19.0,2.0,,,,,119.997057300061,,,,,,,,,,,,,,,,,119.9895035000518,120.08848460018636,120.88019620021804,120.87235580012202,,,,,,,,,,,,,,,,120.87573949992657,120.88019620021804,120.88019620021804,121.69720910023898,b,1.0,0.8156258999370039,,121.69754810025916,121.70487949997188,122.69651689985768,122.68856510007754,,,,,,,,,,,,,,,,,,,,sub-168,1,stroop_test,119.93039192634627,
,,,,20.0,8.0,1.0,,,,,gelb,yellow,g,1.0,g,1.0,0.7440471001900733,,,,,,,,,,,,,,1.0,8.0,20.0,10.0,,,,,122.69651689985768,,,,,,,,,,,,,,,,,122.68877340015024,123.89613150013612,124.68896399997176,124.6803867998533,,,,,,,,,,,,,,,,124.68369500013068,124.68896399997176,124.68896399997176,125.43868960021064,g,1.0,0.7440471001900733,,125.4390265000984,125.44600829994306,126.43743620021267,126.42963899997994,,,,,,,,,,,,,,,,,,,,sub-168,1,stroop_test,119.93039192634627,
,,,,21.0,9.0,1.0,,,,,gelb,yellow,g,1.0,g,1.0,1.1777173997834325,,,,,,,,,,,,,,1.0,9.0,21.0,11.0,,,,,126.43743620021267,,,,,,,,,,,,,,,,,126.42987090023234,127.23744390020148,128.02887220028788,128.02123659988865,,,,,,,,,,,,,,,,128.02160810027272,128.02887220028788,128.02887220028788,129.21308570029214,g,1.0,1.1777173997834325,,129.21349130012095,129.2205746001564,130.21175799984485,130.204138699919,,,,,,,,,,,,,,,,,,,,sub-168,1,stroop_test,119.93039192634627,
,,,,22.0,10.0,1.0,,,,,blau,blue,b,1.0,b,1.0,0.8022471996955574,,,,,,,,,,,,,,1.0,10.0,22.0,6.0,,,,,130.21175799984485,,,,,,,,,,,,,,,,,130.20434699999169,130.3117696000263,131.10359960002825,131.09570469986647,,,,,,,,,,,,,,,,131.09783879993483,131.10359960002825,131.10359960002825,131.91267629992217,b,1.0,0.8022471996955574,,131.91307360026985,131.9201022000052,132.91143450001255,132.9037876999937,,,,,,,,,,,,,,,,,,,,sub-168,1,stroop_test,119.93039192634627,
,,,,23.0,11.0,1.0,,,,,blau,yellow,g,0.0,g,1.0,1.103524399921298,,,,,,,,,,,,,,1.0,11.0,23.0,7.0,,,,,132.91143450001255,,,,,,,,,,,,,,,,,132.9040168998763,133.71143290027976,134.50281069986522,134.49523229990157,,,,,,,,,,,,,,,,134.4955869000405,134.50281069986522,134.50281069986522,135.6120589002967,g,1.0,1.103524399921298,,135.61244710022584,135.61953999986872,136.6111041000113,136.60299669997767,,,,,,,,,,,,,,,,,,,,sub-168,1,stroop_test,119.93039192634627,
,,,,,,,,,,,,,,,,,,,,,,,,,,,,,,,,,,,,,,,,,,,,,,,,,,,,,,,,,,,,,,,,,,,,,,,,,,,,,,,,,,,,,,,136.60308129992336,136.6111041000113,136.6111041000113,139.1532827001065,space,2.5388028998859227,,,,,,,,,,,,,,sub-168,1,stroop_test,119.93039192634627,
,,,,0.0,0.0,0.0,,,,,,,,,,,,,blau,yellow,g,0.0,g,1.0,1.3768798001110554,,,,,,,,,,0.0,0.0,0.0,7.0,139.1650812998414,,,,,,,,,,,,,,,,,139.16190950013697,140.35195739986375,141.14358740020543,141.13556270021945,,,,,,,,,,,,,,,,,,,,,,,,,,,,,,,,,,,141.13775790017098,141.14358740020543,141.14358740020543,142.52740690018982,g,1.0,1.3768798001110554,,,,,,sub-168,1,stroop_test,119.93039192634627,
,,,,1.0,1.0,0.0,,,,,,,,,,,,,blau,blue,b,1.0,b,1.0,0.6768932999111712,,,,,,,,,,0.0,1.0,1.0,6.0,142.53500059992075,,,,,,,,,,,,,,,,,142.52759750001132,142.6184391998686,143.4096849001944,143.4021542002447,,,,,,,,,,,,,,,,,,,,,,,,,,,,,,,,,,,143.4024678003043,143.4096849001944,143.4096849001944,144.09386399993673,b,1.0,0.6768932999111712,,,,,,sub-168,1,stroop_test,119.93039192634627,
,,,,2.0,2.0,0.0,,,,,,,,,,,,,gelb,yellow,g,1.0,g,1.0,0.6726294001564384,,,,,,,,,,0.0,2.0,2.0,11.0,144.10152979986742,,,,,,,,,,,,,,,,,144.09411700023338,145.2928667999804,146.08431500010192,146.0763944000937,,,,,,,,,,,,,,,,,,,,,,,,,,,,,,,,,,,146.07894610008225,146.08431500010192,146.08431500010192,146.7602464002557,g,1.0,0.6726294001564384,,,,,,sub-168,1,stroop_test,119.93039192634627,
,,,,3.0,3.0,0.0,,,,,,,,,,,,,rot,red,r,1.0,r,1.0,0.4257461996749043,,,,,,,,,,0.0,3.0,3.0,0.0,146.7674920000136,,,,,,,,,,,,,,,,,146.76050550024956,147.55918399989605,148.35066860029474,148.34320010012016,,,,,,,,,,,,,,,,,,,,,,,,,,,,,,,,,,,148.34578840015456,148.35066860029474,148.35066860029474,148.78491629986092,r,1.0,0.4257461996749043,,,,,,sub-168,1,stroop_test,119.93039192634627,
,,,,4.0,4.0,0.0,,,,,,,,,,,,,blau,red,r,0.0,r,1.0,0.6191982999444008,,,,,,,,,,0.0,4.0,4.0,4.0,148.7923419000581,,,,,,,,,,,,,,,,,148.7851633001119,149.13399370014668,149.9254931998439,149.91773399990052,,,,,,,,,,,,,,,,,,,,,,,,,,,,,,,,,,,149.9198938999325,149.9254931998439,149.9254931998439,150.55150360008702,r,1.0,0.6191982999444008,,,,,,sub-168,1,stroop_test,119.93039192634627,
,,,,5.0,5.0,0.0,,,,,,,,,,,,,rot,blue,b,0.0,b,1.0,0.7310325000435114,,,,,,,,,,0.0,5.0,5.0,2.0,150.55850689997897,,,,,,,,,,,,,,,,,150.5517959999852,150.65013500023633,151.4418640001677,151.4340901998803,,,,,,,,,,,,,,,,,,,,,,,,,,,,,,,,,,,151.4361669998616,151.4418640001677,151.4418640001677,152.1766075002961,b,1.0,0.7310325000435114,,,,,,sub-168,1,stroop_test,119.93039192634627,
,,,,6.0,6.0,0.0,,,,,,,,,,,,,gelb,red,r,0.0,r,1.0,1.106129500083625,,,,,,,,,,0.0,6.0,6.0,8.0,152.1832996001467,,,,,,,,,,,,,,,,,152.1770465001464,153.37492490001023,154.16623080009597,154.15856210002676,,,,,,,,,,,,,,,,,,,,,,,,,,,,,,,,,,,154.16116840019822,154.16623080009597,154.16623080009597,155.27597759990022,r,1.0,1.106129500083625,,,,,,sub-168,1,stroop_test,119.93039192634627,
,,,,7.0,7.0,0.0,,,,,,,,,,,,,gelb,blue,b,0.0,b,1.0,0.9570426000282168,,,,,,,,,,0.0,7.0,7.0,9.0,155.28298600018024,,,,,,,,,,,,,,,,,155.27626940002665,155.3743906999007,156.1659627999179,156.1582035999745,,,,,,,,,,,,,,,,,,,,,,,,,,,,,,,,,,,156.15856930008158,156.1659627999179,156.1659627999179,157.12520139990374,b,1.0,0.9570426000282168,,,,,,sub-168,1,stroop_test,119.93039192634627,
,,,,8.0,8.0,0.0,,,,,,,,,,,,,gelb,yellow,g,1.0,g,1.0,0.5531721999868751,,,,,,,,,,0.0,8.0,8.0,10.0,157.13269020011649,,,,,,,,,,,,,,,,,157.12544520013034,158.32415569992736,159.11552690016106,159.10771080013365,,,,,,,,,,,,,,,,,,,,,,,,,,,,,,,,,,,159.10812010010704,159.11552690016106,159.11552690016106,159.6746701002121,g,1.0,0.5531721999868751,,,,,,sub-168,1,stroop_test,119.93039192634627,
,,,,9.0,9.0,0.0,,,,,,,,,,,,,rot,yellow,g,0.0,g,1.0,0.9491109997034072,,,,,,,,,,0.0,9.0,9.0,3.0,159.68243859987706,,,,,,,,,,,,,,,,,159.6748629002832,160.02366399997845,160.8154523000121,160.80751550011337,,,,,,,,,,,,,,,,,,,,,,,,,,,,,,,,,,,160.810222200118,160.8154523000121,160.8154523000121,161.76596189988777,g,1.0,0.9491109997034072,,,,,,sub-168,1,stroop_test,119.93039192634627,
,,,,10.0,10.0,0.0,,,,,,,,,,,,,rot,red,r,1.0,r,1.0,0.6273326999507844,,,,,,,,,,0.0,10.0,10.0,1.0,161.77351120021194,,,,,,,,,,,,,,,,,161.76622370025143,162.10688209999353,162.89840900013223,162.8905255002901,,,,,,,,,,,,,,,,,,,,,,,,,,,,,,,,,,,162.89088060008362,162.89840900013223,162.89840900013223,163.53245070017874,r,1.0,0.6273326999507844,,,,,,sub-168,1,stroop_test,119.93039192634627,
,,,,11.0,11.0,0.0,,,,,,,,,,,,,blau,blue,b,1.0,b,1.0,0.5496449000202119,,,,,,,,,,0.0,11.0,11.0,5.0,163.53997439984232,,,,,,,,,,,,,,,,,163.53271349985152,164.73130080010742,165.52299460023642,165.51514080027118,,,,,,,,,,,,,,,,,,,,,,,,,,,,,,,,,,,165.51707800012082,165.52299460023642,165.52299460023642,166.07381119998172,b,1.0,0.5496449000202119,,,,,,sub-168,1,stroop_test,119.93039192634627,
,,,,12.0,0.0,1.0,,,,,,,,,,,,,rot,red,r,1.0,r,1.0,0.6574063999578357,,,,,,,,,,1.0,0.0,12.0,1.0,166.08133199997246,,,,,,,,,,,,,,,,,166.07406170014292,167.27251619985327,168.0642488002777,168.05621579987928,,,,,,,,,,,,,,,,,,,,,,,,,,,,,,,,,,,168.05859600007534,168.0642488002777,168.0642488002777,168.72307569999248,r,1.0,0.6574063999578357,,,,,,sub-168,1,stroop_test,119.93039192634627,
,,,,13.0,1.0,1.0,,,,,,,,,,,,,gelb,red,r,0.0,r,1.0,0.5232923002913594,,,,,,,,,,1.0,1.0,13.0,8.0,168.73070900002494,,,,,,,,,,,,,,,,,168.72333370009437,168.81410930026323,169.60539889987558,169.59772820025682,,,,,,,,,,,,,,,,,,,,,,,,,,,,,,,,,,,169.60003110021353,169.60539889987558,169.60539889987558,170.13120780000463,r,1.0,0.5232923002913594,,,,,,sub-168,1,stroop_test,119.93039192634627,
,,,,14.0,2.0,1.0,,,,,,,,,,,,,blau,blue,b,1.0,b,1.0,0.5763515001162887,,,,,,,,,,1.0,2.0,14.0,6.0,170.13865539990366,,,,,,,,,,,,,,,,,170.13146630022675,170.9221574999392,171.71352460002527,171.7058645999059,,,,,,,,,,,,,,,,,,,,,,,,,,,,,,,,,,,171.70797370001674,171.71352460002527,171.71352460002527,172.29778040014207,b,1.0,0.5763515001162887,,,,,,sub-168,1,stroop_test,119.93039192634627,
,,,,15.0,3.0,1.0,,,,,,,,,,,,,rot,blue,b,0.0,b,1.0,0.9844886995851994,,,,,,,,,,1.0,3.0,15.0,2.0,172.30518530029804,,,,,,,,,,,,,,,,,172.29799690004438,173.09675469994545,173.88810810027644,173.88049359992146,,,,,,,,,,,,,,,,,,,,,,,,,,,,,,,,,,,173.88323710020632,173.88810810027644,173.88810810027644,174.88062500022352,b,1.0,0.9844886995851994,,,,,,sub-168,1,stroop_test,119.93039192634627,
,,,,16.0,4.0,1.0,,,,,,,,,,,,,gelb,yellow,g,1.0,g,1.0,0.3858472001738846,,,,,,,,,,1.0,4.0,16.0,11.0,174.88792840018868,,,,,,,,,,,,,,,,,174.880872100126,176.0794425001368,176.8708931002766,176.8632853999734,,,,,,,,,,,,,,,,,,,,,,,,,,,,,,,,,,,176.86603480018675,176.8708931002766,176.8708931002766,177.26358380028978,g,1.0,0.3858472001738846,,,,,,sub-168,1,stroop_test,119.93039192634627,
,,,,17.0,5.0,1.0,,,,,,,,,,,,,gelb,blue,b,0.0,b,1.0,0.8013426000252366,,,,,,,,,,1.0,5.0,17.0,9.0,177.2709743999876,,,,,,,,,,,,,,,,,177.2638432001695,178.06251539988443,178.8541649999097,178.84620170015842,,,,,,,,,,,,,,,,,,,,,,,,,,,,,,,,,,,178.84652699995786,178.8541649999097,178.8541649999097,179.66324590006843,b,1.0,0.8013426000252366,,,,,,sub-168,1,stroop_test,119.93039192634627,
,,,,18.0,6.0,1.0,,,,,,,,,,,,,rot,red,r,1.0,r,1.0,0.819185100030154,,,,,,,,,,1.0,6.0,18.0,0.0,179.67045890027657,,,,,,,,,,,,,,,,,179.66349040018395,180.01226520026103,180.80359499994665,180.7960979999043,,,,,,,,,,,,,,,,,,,,,,,,,,,,,,,,,,,180.79876609984785,180.80359499994665,180.80359499994665,181.62965739984065,r,1.0,0.819185100030154,,,,,,sub-168,1,stroop_test,119.93039192634627,
,,,,19.0,7.0,1.0,,,,,,,,,,,,,blau,blue,b,1.0,b,1.0,0.6399290999397635,,,,,,,,,,1.0,7.0,19.0,5.0,181.6370474002324,,,,,,,,,,,,,,,,,181.6299104001373,182.42861409997568,183.21997029986235,183.2123726001009,,,,,,,,,,,,,,,,,,,,,,,,,,,,,,,,,,,183.21465090010315,183.21997029986235,183.21997029986235,183.8625424001366,b,1.0,0.6399290999397635,,,,,,sub-168,1,stroop_test,119.93039192634627,
,,,,20.0,8.0,1.0,,,,,,,,,,,,,blau,red,r,0.0,r,1.0,1.723411099985242,,,,,,,,,,1.0,8.0,20.0,4.0,183.8697724998929,,,,,,,,,,,,,,,,,183.86283840006217,184.6613443000242,185.45290749985725,185.44512559985745,,,,,,,,,,,,,,,,,,,,,,,,,,,,,,,,,,,185.44547899998724,185.45290749985725,185.45290749985725,187.17864480009305,r,1.0,1.723411099985242,,,,,,sub-168,1,stroop_test,119.93039192634627,
,,,,21.0,9.0,1.0,,,,,,,,,,,,,gelb,yellow,g,1.0,g,1.0,0.7124954001046717,,,,,,,,,,1.0,9.0,21.0,10.0,187.186140100006,,,,,,,,,,,,,,,,,187.1789171001874,188.37759110005567,189.16935899993405,189.16140189999717,,,,,,,,,,,,,,,,,,,,,,,,,,,,,,,,,,,189.1638453002088,189.16935899993405,189.16935899993405,189.8868510001339,g,1.0,0.7124954001046717,,,,,,sub-168,1,stroop_test,119.93039192634627,
,,,,22.0,10.0,1.0,,,,,,,,,,,,,rot,yellow,g,0.0,g,1.0,1.0056832996197045,,,,,,,,,,1.0,10.0,22.0,3.0,189.89392240019515,,,,,,,,,,,,,,,,,189.88709530001503,190.68557920027524,191.47706909989935,191.46902030007917,,,,,,,,,,,,,,,,,,,,,,,,,,,,,,,,,,,191.47123209992424,191.47706909989935,191.47706909989935,192.48595539992675,g,1.0,1.0056832996197045,,,,,,sub-168,1,stroop_test,119.93039192634627,
,,,,23.0,11.0,1.0,,,,,,,,,,,,,blau,yellow,g,0.0,g,1.0,0.7214584001339972,,,,,,,,,,1.0,11.0,23.0,7.0,192.4935449999757,,,,,,,,,,,,,,,,,192.4861976001412,193.67688969988376,194.4682213002816,194.4605268999003,,,,,,,,,,,,,,,,,,,,,,,,,,,,,,,,,,,194.46262290002775,194.4682213002816,194.4682213002816,195.1943601001985,g,1.0,0.7214584001339972,,,,,,sub-168,1,stroop_test,119.93039192634627,
,,,,24.0,0.0,2.0,,,,,,,,,,,,,blau,blue,b,1.0,b,1.0,1.013836500234902,,,,,,,,,,2.0,0.0,24.0,6.0,195.20155650004745,,,,,,,,,,,,,,,,,195.19463740009812,196.39300390006971,197.18455220013857,197.1766150002368,,,,,,,,,,,,,,,,,,,,,,,,,,,,,,,,,,,197.17695409990847,197.18455220013857,197.18455220013857,198.20179359987375,b,1.0,1.013836500234902,,,,,,sub-168,1,stroop_test,119.93039192634627,
,,,,25.0,1.0,2.0,,,,,,,,,,,,,gelb,red,r,0.0,r,1.0,1.3094419003464282,,,,,,,,,,2.0,1.0,25.0,8.0,198.20913910027596,,,,,,,,,,,,,,,,,198.2020759000443,198.29268460022288,199.08412360027432,199.07637980021536,,,,,,,,,,,,,,,,,,,,,,,,,,,,,,,,,,,199.0793039002456,199.08412360027432,199.08412360027432,200.40132740000263,r,1.0,1.3094419003464282,,,,,,sub-168,1,stroop_test,119.93039192634627,
,,,,26.0,2.0,2.0,,,,,,,,,,,,,blau,yellow,g,0.0,g,1.0,1.038828200194985,,,,,,,,,,2.0,2.0,26.0,7.0,200.4089836999774,,,,,,,,,,,,,,,,,200.4015645999461,201.60049310000613,202.39208870008588,202.3840832998976,,,,,,,,,,,,,,,,,,,,,,,,,,,,,,,,,,,202.38630570005623,202.39208870008588,202.39208870008588,203.4342873999849,g,1.0,1.038828200194985,,,,,,sub-168,1,stroop_test,119.93039192634627,
,,,,27.0,3.0,2.0,,,,,,,,,,,,,gelb,yellow,g,1.0,g,1.0,0.6761715998873115,,,,,,,,,,2.0,3.0,27.0,11.0,203.44161630002785,,,,,,,,,,,,,,,,,203.43460590019825,203.5335633000359,204.32486739987507,204.3172059999779,,,,,,,,,,,,,,,,,,,,,,,,,,,,,,,,,,,204.3194659003057,204.32486739987507,204.32486739987507,205.0089870998636,g,1.0,0.6761715998873115,,,,,,sub-168,1,stroop_test,119.93039192634627,
,,,,28.0,4.0,2.0,,,,,,,,,,,,,rot,blue,b,0.0,b,1.0,1.4823578000068665,,,,,,,,,,2.0,4.0,28.0,2.0,205.01655519986525,,,,,,,,,,,,,,,,,205.00923020020127,205.09989750012755,205.89129790011796,205.88377870013937,,,,,,,,,,,,,,,,,,,,,,,,,,,,,,,,,,,205.88654950028285,205.89129790011796,205.89129790011796,207.37528860010207,b,1.0,1.4823578000068665,,,,,,sub-168,1,stroop_test,119.93039192634627,
,,,,29.0,5.0,2.0,,,,,,,,,,,,,blau,red,r,0.0,r,1.0,0.8821712997741997,,,,,,,,,,2.0,5.0,29.0,4.0,207.38292390014976,,,,,,,,,,,,,,,,,207.3755445000716,207.466057700105,208.25787550024688,208.24992679990828,,,,,,,,,,,,,,,,,,,,,,,,,,,,,,,,,,,208.25216800021008,208.25787550024688,208.25787550024688,209.14166059996933,r,1.0,0.8821712997741997,,,,,,sub-168,1,stroop_test,119.93039192634627,
,,,,30.0,6.0,2.0,,,,,,,,,,,,,rot,red,r,1.0,r,1.0,0.6117577003315091,,,,,,,,,,2.0,6.0,30.0,1.0,209.1492902999744,,,,,,,,,,,,,,,,,209.1419506999664,209.94061220018196,210.73226359998807,210.72463670000437,,,,,,,,,,,,,,,,,,,,,,,,,,,,,,,,,,,210.72732870001343,210.73226359998807,210.73226359998807,211.3497608001344,r,1.0,0.6117577003315091,,,,,,sub-168,1,stroop_test,119.93039192634627,
,,,,31.0,7.0,2.0,,,,,,,,,,,,,gelb,yellow,g,1.0,g,1.0,0.6089472998864949,,,,,,,,,,2.0,7.0,31.0,10.0,211.35710739996284,,,,,,,,,,,,,,,,,211.3500276999548,212.148805399891,212.94070640020072,212.93248519999904,,,,,,,,,,,,,,,,,,,,,,,,,,,,,,,,,,,212.93580259988084,212.94070640020072,212.94070640020072,213.5575033999048,g,1.0,0.6089472998864949,,,,,,sub-168,1,stroop_test,119.93039192634627,
,,,,32.0,8.0,2.0,,,,,,,,,,,,,blau,blue,b,1.0,b,1.0,0.6753099001944065,,,,,,,,,,2.0,8.0,32.0,5.0,213.56528900004923,,,,,,,,,,,,,,,,,213.55773989995944,213.89851480023933,214.6900543002412,214.68205170007425,,,,,,,,,,,,,,,,,,,,,,,,,,,,,,,,,,,214.68451760010797,214.6900543002412,214.6900543002412,215.3742110999301,b,1.0,0.6753099001944065,,,,,,sub-168,1,stroop_test,119.93039192634627,
,,,,33.0,9.0,2.0,,,,,,,,,,,,,rot,red,r,1.0,r,1.0,0.6179011003114283,,,,,,,,,,2.0,9.0,33.0,0.0,215.38150219991803,,,,,,,,,,,,,,,,,215.37450970010832,216.1729708001949,216.96442859992385,216.95696530025447,,,,,,,,,,,,,,,,,,,,,,,,,,,,,,,,,,,216.95953490026292,216.96442859992385,216.96442859992385,217.59023520024493,r,1.0,0.6179011003114283,,,,,,sub-168,1,stroop_test,119.93039192634627,
,,,,34.0,10.0,2.0,,,,,,,,,,,,,rot,yellow,g,0.0,g,1.0,1.0156105002388358,,,,,,,,,,2.0,10.0,34.0,3.0,217.59787240019068,,,,,,,,,,,,,,,,,217.59049999993292,218.7893886002712,219.5809126999229,219.5730721000582,,,,,,,,,,,,,,,,,,,,,,,,,,,,,,,,,,,219.5734783001244,219.5809126999229,219.5809126999229,220.5983261000365,g,1.0,1.0156105002388358,,,,,,sub-168,1,stroop_test,119.93039192634627,
,,,,35.0,11.0,2.0,,,,,,,,,,,,,gelb,blue,b,0.0,b,1.0,0.978406600188464,,,,,,,,,,2.0,11.0,35.0,9.0,220.60567330010235,,,,,,,,,,,,,,,,,220.59865880012512,220.94739340012893,221.7421935000457,221.7314472999424,,,,,,,,,,,,,,,,,,,,,,,,,,,,,,,,,,,221.7358074998483,221.7421935000457,221.7421935000457,222.7229166002944,b,1.0,0.978406600188464,,,,,,sub-168,1,stroop_test,119.93039192634627,
,,,,36.0,0.0,3.0,,,,,,,,,,,,,blau,yellow,g,0.0,g,1.0,1.5079696998000145,,,,,,,,,,3.0,0.0,36.0,7.0,222.730226200074,,,,,,,,,,,,,,,,,222.7231771000661,223.063781300094,223.8552807001397,223.84736509993672,,,,,,,,,,,,,,,,,,,,,,,,,,,,,,,,,,,223.84970729984343,223.8552807001397,223.8552807001397,225.3645204999484,g,1.0,1.5079696998000145,,,,,,sub-168,1,stroop_test,119.93039192634627,
,,,,37.0,1.0,3.0,,,,,,,,,,,,,gelb,yellow,g,1.0,g,1.0,0.6076421998441219,,,,,,,,,,3.0,1.0,37.0,11.0,225.3714825999923,,,,,,,,,,,,,,,,,225.36480920016768,226.16316509991884,226.9546906002797,226.94697030028328,,,,,,,,,,,,,,,,,,,,,,,,,,,,,,,,,,,226.94958500005305,226.9546906002797,226.9546906002797,227.56385549996048,g,1.0,0.6076421998441219,,,,,,sub-168,1,stroop_test,119.93039192634627,
,,,,38.0,2.0,3.0,,,,,,,,,,,,,gelb,red,r,0.0,r,1.0,0.5761220999993384,,,,,,,,,,3.0,2.0,38.0,8.0,227.5711320000701,,,,,,,,,,,,,,,,,227.56414799997583,228.76266860030591,229.55421259999275,229.54651129990816,,,,,,,,,,,,,,,,,,,,,,,,,,,,,,,,,,,229.54690479999408,229.55421259999275,229.55421259999275,230.1383461998776,r,1.0,0.5761220999993384,,,,,,sub-168,1,stroop_test,119.93039192634627,
,,,,39.0,3.0,3.0,,,,,,,,,,,,,blau,blue,b,1.0,b,1.0,0.5855690999887884,,,,,,,,,,3.0,3.0,39.0,6.0,230.1457104003057,,,,,,,,,,,,,,,,,230.13863330008465,230.4790039001964,231.27058260003105,231.262712799944,,,,,,,,,,,,,,,,,,,,,,,,,,,,,,,,,,,231.26583780022335,231.27058260003105,231.27058260003105,231.86325220018625,b,1.0,0.5855690999887884,,,,,,sub-168,1,stroop_test,119.93039192634627,
,,,,40.0,4.0,3.0,,,,,,,,,,,,,gelb,blue,b,0.0,b,1.0,0.5025424002669752,,,,,,,,,,3.0,4.0,40.0,9.0,231.87050990015268,,,,,,,,,,,,,,,,,231.86352739995343,233.0619423002936,233.8534873998724,233.84562620008364,,,,,,,,,,,,,,,,,,,,,,,,,,,,,,,,,,,233.84843100002035,233.8534873998724,233.8534873998724,234.36282549984756,b,1.0,0.5025424002669752,,,,,,sub-168,1,stroop_test,119.93039192634627,
,,,,41.0,5.0,3.0,,,,,,,,,,,,,blau,blue,b,1.0,b,1.0,0.4739077999256551,,,,,,,,,,3.0,5.0,41.0,5.0,234.36997060012072,,,,,,,,,,,,,,,,,234.36308380030096,234.46181500004604,235.25341980019584,235.2456284998916,,,,,,,,,,,,,,,,,,,,,,,,,,,,,,,,,,,235.24806600017476,235.25341980019584,235.25341980019584,235.72936049988493,b,1.0,0.4739077999256551,,,,,,sub-168,1,stroop_test,119.93039192634627,
,,,,42.0,6.0,3.0,,,,,,,,,,,,,rot,blue,b,0.0,b,1.0,0.3806695998646319,,,,,,,,,,3.0,6.0,42.0,2.0,235.7365720998496,,,,,,,,,,,,,,,,,235.72963760001585,236.5282441000454,237.3195553002879,237.31189520005137,,,,,,,,,,,,,,,,,,,,,,,,,,,,,,,,,,,237.3135977000929,237.3195553002879,237.3195553002879,237.70369850005957,b,1.0,0.3806695998646319,,,,,,sub-168,1,stroop_test,119.93039192634627,
,,,,43.0,7.0,3.0,,,,,,,,,,,,,rot,red,r,1.0,r,1.0,0.6273586000315845,,,,,,,,,,3.0,7.0,43.0,1.0,237.7113037002273,,,,,,,,,,,,,,,,,237.7039520000108,238.9028400001116,239.69419840024784,239.68647480010983,,,,,,,,,,,,,,,,,,,,,,,,,,,,,,,,,,,239.68691590009257,239.69419840024784,239.69419840024784,240.32851959997788,r,1.0,0.6273586000315845,,,,,,sub-168,1,stroop_test,119.93039192634627,
,,,,44.0,8.0,3.0,,,,,,,,,,,,,rot,yellow,g,0.0,g,1.0,0.7096184999682009,,,,,,,,,,3.0,8.0,44.0,3.0,240.3358463998884,,,,,,,,,,,,,,,,,240.3288153000176,241.12738199997693,241.91907409997657,241.9110026000999,,,,,,,,,,,,,,,,,,,,,,,,,,,,,,,,,,,241.9113711998798,241.91907409997657,241.91907409997657,242.6364826001227,g,1.0,0.7096184999682009,,,,,,sub-168,1,stroop_test,119.93039192634627,
,,,,45.0,9.0,3.0,,,,,,,,,,,,,gelb,yellow,g,1.0,g,1.0,0.5065489998087287,,,,,,,,,,3.0,9.0,45.0,10.0,242.64365349989384,,,,,,,,,,,,,,,,,242.6367510999553,243.43536000000316,244.22780349990356,244.21903710020703,,,,,,,,,,,,,,,,,,,,,,,,,,,,,,,,,,,244.2224476998672,244.22780349990356,244.22780349990356,244.73574479995293,g,1.0,0.5065489998087287,,,,,,sub-168,1,stroop_test,119.93039192634627,
,,,,46.0,10.0,3.0,,,,,,,,,,,,,blau,red,r,0.0,r,1.0,0.9888656996190548,,,,,,,,,,3.0,10.0,46.0,4.0,244.7433025999926,,,,,,,,,,,,,,,,,244.73601520014927,245.5267555001192,246.31832690024748,246.3104838002473,,,,,,,,,,,,,,,,,,,,,,,,,,,,,,,,,,,246.31296809995547,246.31832690024748,246.31832690024748,247.3107014000416,r,1.0,0.9888656996190548,,,,,,sub-168,1,stroop_test,119.93039192634627,
,,,,47.0,11.0,3.0,,,,,,,,,,,,,rot,red,r,1.0,r,1.0,0.4463435001671314,,,,,,,,,,3.0,11.0,47.0,0.0,247.31803150009364,,,,,,,,,,,,,,,,,247.3110209000297,247.4096619999036,248.20106079988184,248.1933426000178,,,,,,,,,,,,,,,,,,,,,,,,,,,,,,,,,,,248.19628729997203,248.20106079988184,248.20106079988184,248.6521445000544,r,1.0,0.4463435001671314,,,,,,sub-168,1,stroop_test,119.93039192634627,
,,,,48.0,0.0,4.0,,,,,,,,,,,,,blau,blue,b,1.0,b,1.0,1.0462473998777568,,,,,,,,,,4.0,0.0,48.0,5.0,248.65940080024305,,,,,,,,,,,,,,,,,248.6524056000635,248.75117629999292,249.5427780002356,249.534885100089,,,,,,,,,,,,,,,,,,,,,,,,,,,,,,,,,,,249.5373348998837,249.5427780002356,249.5427780002356,250.59364579990503,b,1.0,1.0462473998777568,,,,,,sub-168,1,stroop_test,119.93039192634627,
,,,,49.0,1.0,4.0,,,,,,,,,,,,,rot,blue,b,0.0,b,1.0,0.5562545000575483,,,,,,,,,,4.0,1.0,49.0,2.0,250.600806100294,,,,,,,,,,,,,,,,,250.59393429988995,251.3922740998678,252.1837343000807,252.17622910020876,,,,,,,,,,,,,,,,,,,,,,,,,,,,,,,,,,,252.17875520000237,252.1837343000807,252.1837343000807,252.7432150002569,b,1.0,0.5562545000575483,,,,,,sub-168,1,stroop_test,119.93039192634627,
,,,,50.0,2.0,4.0,,,,,,,,,,,,,gelb,yellow,g,1.0,g,1.0,0.5598506000824273,,,,,,,,,,4.0,2.0,50.0,10.0,252.75035039987412,,,,,,,,,,,,,,,,,252.74349110014737,253.5419629998505,254.3334031002596,254.32587260007855,,,,,,,,,,,,,,,,,,,,,,,,,,,,,,,,,,,254.3284297999926,254.3334031002596,254.3334031002596,254.90108099998903,g,1.0,0.5598506000824273,,,,,,sub-168,1,stroop_test,119.93039192634627,
,,,,51.0,3.0,4.0,,,,,,,,,,,,,blau,red,r,0.0,r,1.0,1.2656099000014365,,,,,,,,,,4.0,3.0,51.0,4.0,254.90832509985196,,,,,,,,,,,,,,,,,254.90136109991,255.6998737999238,256.4914595000446,256.4838462001644,,,,,,,,,,,,,,,,,,,,,,,,,,,,,,,,,,,256.48605039995164,256.4914595000446,256.4914595000446,257.758842300158,r,1.0,1.2656099000014365,,,,,,sub-168,1,stroop_test,119.93039192634627,
,,,,52.0,4.0,4.0,,,,,,,,,,,,,gelb,yellow,g,1.0,g,1.0,1.0074347998015585,,,,,,,,,,4.0,4.0,52.0,11.0,257.76626239996403,,,,,,,,,,,,,,,,,257.7591054001823,258.0997036001645,258.8911383999512,258.88346750009805,,,,,,,,,,,,,,,,,,,,,,,,,,,,,,,,,,,258.8861623001285,258.8911383999512,258.8911383999512,259.90020240005106,g,1.0,1.0074347998015585,,,,,,sub-168,1,stroop_test,119.93039192634627,
,,,,53.0,5.0,4.0,,,,,,,,,,,,,rot,red,r,1.0,r,1.0,0.77598230028525,,,,,,,,,,4.0,5.0,53.0,1.0,259.90750990016386,,,,,,,,,,,,,,,,,259.9004692998715,260.24927370017394,261.0411283001304,261.0331093999557,,,,,,,,,,,,,,,,,,,,,,,,,,,,,,,,,,,261.0363762001507,261.0411283001304,261.0411283001304,261.8249474000186,r,1.0,0.77598230028525,,,,,,sub-168,1,stroop_test,119.93039192634627,
,,,,54.0,6.0,4.0,,,,,,,,,,,,,gelb,red,r,0.0,r,1.0,0.5039766998961568,,,,,,,,,,4.0,6.0,54.0,8.0,261.83235300006345,,,,,,,,,,,,,,,,,261.82517430000007,262.1655262000859,262.95694599999115,262.94901579990983,,,,,,,,,,,,,,,,,,,,,,,,,,,,,,,,,,,262.9507427001372,262.95694599999115,262.95694599999115,263.46642599999905,r,1.0,0.5039766998961568,,,,,,sub-168,1,stroop_test,119.93039192634627,
,,,,55.0,7.0,4.0,,,,,,,,,,,,,blau,blue,b,1.0,b,1.0,0.559746699873358,,,,,,,,,,4.0,7.0,55.0,6.0,263.47378259990364,,,,,,,,,,,,,,,,,263.46668109996244,264.66521729994565,265.45688370009884,265.4489648998715,,,,,,,,,,,,,,,,,,,,,,,,,,,,,,,,,,,265.4515315000899,265.45688370009884,265.45688370009884,266.02435819990933,b,1.0,0.559746699873358,,,,,,sub-168,1,stroop_test,119.93039192634627,
,,,,56.0,8.0,4.0,,,,,,,,,,,,,rot,yellow,g,0.0,g,1.0,0.5537855997681618,,,,,,,,,,4.0,8.0,56.0,3.0,266.0315295001492,,,,,,,,,,,,,,,,,266.0246741999872,267.22311019990593,268.0144898002036,268.00678010005504,,,,,,,,,,,,,,,,,,,,,,,,,,,,,,,,,,,268.0093406001106,268.0144898002036,268.0144898002036,268.573947600089,g,1.0,0.5537855997681618,,,,,,sub-168,1,stroop_test,119.93039192634627,
,,,,57.0,9.0,4.0,,,,,,,,,,,,,blau,yellow,g,0.0,g,1.0,0.4406231003813445,,,,,,,,,,4.0,9.0,57.0,7.0,268.58111859997734,,,,,,,,,,,,,,,,,268.5741810002364,269.3728602002375,270.1645221998915,270.1565089002252,,,,,,,,,,,,,,,,,,,,,,,,,,,,,,,,,,,270.15889139985666,270.1645221998915,270.1645221998915,270.60678010014817,g,1.0,0.4406231003813445,,,,,,sub-168,1,stroop_test,119.93039192634627,
,,,,58.0,10.0,4.0,,,,,,,,,,,,,rot,red,r,1.0,r,1.0,0.4464148003607988,,,,,,,,,,4.0,10.0,58.0,0.0,270.61432219995186,,,,,,,,,,,,,,,,,270.6070862002671,270.9559349999763,271.7474207999185,271.7395816999488,,,,,,,,,,,,,,,,,,,,,,,,,,,,,,,,,,,271.7421216000803,271.7474207999185,271.7474207999185,272.1983826998621,r,1.0,0.4464148003607988,,,,,,sub-168,1,stroop_test,119.93039192634627,
,,,,59.0,11.0,4.0,,,,,,,,,,,,,gelb,blue,b,0.0,b,1.0,0.4705960000865161,,,,,,,,,,4.0,11.0,59.0,9.0,272.20562929986045,,,,,,,,,,,,,,,,,272.1986467000097,272.9970929999836,273.788801799994,273.7809549998492,,,,,,,,,,,,,,,,,,,,,,,,,,,,,,,,,,,273.7839927999303,273.788801799994,273.788801799994,274.2642271001823,b,1.0,0.4705960000865161,,,,,,sub-168,1,stroop_test,119.93039192634627,
,,,,60.0,0.0,5.0,,,,,,,,,,,,,rot,red,r,1.0,g,0.0,0.5579364998266101,,,,,,,,,,5.0,0.0,60.0,0.0,274.2722280002199,,,,,,,,,,,,,,,,,274.2644402002916,274.60528879985213,275.3966365000233,275.389069700148,,,,,,,,,,,,,,,,,,,,,,,,,,,,,,,,,,,275.39219640009105,275.3966365000233,275.3966365000233,275.9561272999272,g,0.0,0.5579364998266101,,,,,,sub-168,1,stroop_test,119.93039192634627,
,,,,61.0,1.0,5.0,,,,,,,,,,,,,gelb,red,r,0.0,r,1.0,0.8446652996353805,,,,,,,,,,5.0,1.0,61.0,8.0,275.9632739000954,,,,,,,,,,,,,,,,,275.9564072000794,276.0550684002228,276.84651960013434,276.8388311001472,,,,,,,,,,,,,,,,,,,,,,,,,,,,,,,,,,,276.8417266001925,276.84651960013434,276.84651960013434,277.6974213998765,r,1.0,0.8446652996353805,,,,,,sub-168,1,stroop_test,119.93039192634627,
,,,,62.0,2.0,5.0,,,,,,,,,,,,,blau,blue,b,1.0,b,1.0,0.953349499963224,,,,,,,,,,5.0,2.0,62.0,6.0,277.7049215999432,,,,,,,,,,,,,,,,,277.6976824998856,278.4964825999923,279.2880102000199,279.2802623999305,,,,,,,,,,,,,,,,,,,,,,,,,,,,,,,,,,,279.28272210014984,279.2880102000199,279.2880102000199,280.24708570027724,b,1.0,0.953349499963224,,,,,,sub-168,1,stroop_test,119.93039192634627,
,,,,63.0,3.0,5.0,,,,,,,,,,,,,blau,yellow,g,0.0,g,1.0,0.7644625003449619,,,,,,,,,,5.0,3.0,63.0,7.0,280.25439310027286,,,,,,,,,,,,,,,,,280.247355000116,281.4460100000724,282.23736499994993,282.22948840027675,,,,,,,,,,,,,,,,,,,,,,,,,,,,,,,,,,,282.2298959000036,282.23736499994993,282.23736499994993,283.0049230000004,g,1.0,0.7644625003449619,,,,,,sub-168,1,stroop_test,119.93039192634627,
,,,,64.0,4.0,5.0,,,,,,,,,,,,,gelb,yellow,g,1.0,g,1.0,0.5682525997981429,,,,,,,,,,5.0,4.0,64.0,11.0,283.012497600168,,,,,,,,,,,,,,,,,283.0051142000593,283.80384190008044,284.5952099002898,284.5875792000443,,,,,,,,,,,,,,,,,,,,,,,,,,,,,,,,,,,284.59013140015304,284.5952099002898,284.5952099002898,285.1711483001709,g,1.0,0.5682525997981429,,,,,,sub-168,1,stroop_test,119.93039192634627,
,,,,65.0,5.0,5.0,,,,,,,,,,,,,rot,blue,b,0.0,b,1.0,0.9619926000013947,,,,,,,,,,5.0,5.0,65.0,2.0,285.17851340025663,,,,,,,,,,,,,,,,,285.17141119996086,286.37000910006464,287.1615535002202,287.15399490017444,,,,,,,,,,,,,,,,,,,,,,,,,,,,,,,,,,,287.1565173002891,287.1615535002202,287.1615535002202,288.12898330017924,b,1.0,0.9619926000013947,,,,,,sub-168,1,stroop_test,119.93039192634627,
,,,,66.0,6.0,5.0,,,,,,,,,,,,,rot,yellow,g,0.0,g,1.0,1.5093164001591504,,,,,,,,,,5.0,6.0,66.0,3.0,288.1363786002621,,,,,,,,,,,,,,,,,288.12923680013046,288.92789580021054,289.71971410000697,289.7117138002068,,,,,,,,,,,,,,,,,,,,,,,,,,,,,,,,,,,289.7120377002284,289.71971410000697,289.71971410000697,291.2368499999866,g,1.0,1.5093164001591504,,,,,,sub-168,1,stroop_test,119.93039192634627,
,,,,67.0,7.0,5.0,,,,,,,,,,,,,rot,red,r,1.0,r,1.0,0.5139121999964118,,,,,,,,,,5.0,7.0,67.0,1.0,291.2442069002427,,,,,,,,,,,,,,,,,291.2371221999638,291.32757150009274,292.1192717002705,292.1112246001139,,,,,,,,,,,,,,,,,,,,,,,,,,,,,,,,,,,292.11161220027134,292.1192717002705,292.1192717002705,292.6365395002067,r,1.0,0.5139121999964118,,,,,,sub-168,1,stroop_test,119.93039192634627,
,,,,68.0,8.0,5.0,,,,,,,,,,,,,gelb,blue,b,0.0,b,1.0,0.8044334002770483,,,,,,,,,,5.0,8.0,68.0,9.0,292.64404170028865,,,,,,,,,,,,,,,,,292.63685959996656,292.735743700061,293.5273322002031,293.5195132000372,,,,,,,,,,,,,,,,,,,,,,,,,,,,,,,,,,,293.52231740020216,293.5273322002031,293.5273322002031,294.3366004000418,b,1.0,0.8044334002770483,,,,,,sub-168,1,stroop_test,119.93039192634627,
,,,,69.0,9.0,5.0,,,,,,,,,,,,,blau,red,r,0.0,r,1.0,0.9157074000686408,,,,,,,,,,5.0,9.0,69.0,4.0,294.3436437002383,,,,,,,,,,,,,,,,,294.3368680998683,294.6855013002641,295.4769894001074,295.4691087999381,,,,,,,,,,,,,,,,,,,,,,,,,,,,,,,,,,,295.47179670026526,295.4769894001074,295.4769894001074,296.39420429989696,r,1.0,0.9157074000686408,,,,,,sub-168,1,stroop_test,119.93039192634627,
,,,,70.0,10.0,5.0,,,,,,,,,,,,,gelb,yellow,g,1.0,g,1.0,0.6013581999577582,,,,,,,,,,5.0,10.0,70.0,10.0,296.4018212999217,,,,,,,,,,,,,,,,,296.39448919985443,297.5933220000006,298.3846836001612,298.376964900177,,,,,,,,,,,,,,,,,,,,,,,,,,,,,,,,,,,298.3794635999948,298.3846836001612,298.3846836001612,298.99408280011266,g,1.0,0.6013581999577582,,,,,,sub-168,1,stroop_test,119.93039192634627,
,,,,71.0,11.0,5.0,,,,,,,,,,,,,blau,blue,b,1.0,b,1.0,0.6557392999529839,,,,,,,,,,5.0,11.0,71.0,5.0,299.001477799844,,,,,,,,,,,,,,,,,298.9943420002237,299.09307770011947,299.8846269999631,299.8766260999255,,,,,,,,,,,,,,,,,,,,,,,,,,,,,,,,,,,299.87898989999667,299.8846269999631,299.8846269999631,300.5437060999684,b,1.0,0.6557392999529839,,,,,,sub-168,1,stroop_test,119.93039192634627,
,,,,72.0,0.0,6.0,,,,,,,,,,,,,blau,blue,b,1.0,b,1.0,0.5816497998312116,,,,,,,,,,6.0,0.0,72.0,6.0,300.5510114002973,,,,,,,,,,,,,,,,,300.54399630008265,301.7425766000524,302.5340956002474,302.5263950000517,,,,,,,,,,,,,,,,,,,,,,,,,,,,,,,,,,,302.526771500241,302.5340956002474,302.5340956002474,303.11829499993473,b,1.0,0.5816497998312116,,,,,,sub-168,1,stroop_test,119.93039192634627,
,,,,73.0,1.0,6.0,,,,,,,,,,,,,gelb,yellow,g,1.0,g,1.0,0.5546625996939838,,,,,,,,,,6.0,1.0,73.0,11.0,303.1256218999624,,,,,,,,,,,,,,,,,303.1185794998892,304.3170368000865,305.1094498001039,305.1008770000189,,,,,,,,,,,,,,,,,,,,,,,,,,,,,,,,,,,305.1041065002792,305.1094498001039,305.1094498001039,305.6676586000249,g,1.0,0.5546625996939838,,,,,,sub-168,1,stroop_test,119.93039192634627,
,,,,74.0,2.0,6.0,,,,,,,,,,,,,gelb,red,r,0.0,r,1.0,0.6232489999383688,,,,,,,,,,6.0,2.0,74.0,8.0,305.6751705999486,,,,,,,,,,,,,,,,,305.6678885999136,306.0084664002061,306.8002313002944,306.7923174998723,,,,,,,,,,,,,,,,,,,,,,,,,,,,,,,,,,,306.7927000001073,306.8002313002944,306.8002313002944,307.4258030001074,r,1.0,0.6232489999383688,,,,,,sub-168,1,stroop_test,119.93039192634627,
,,,,75.0,3.0,6.0,,,,,,,,,,,,,blau,yellow,g,0.0,g,1.0,1.018959800247103,,,,,,,,,,6.0,3.0,75.0,7.0,307.4334093001671,,,,,,,,,,,,,,,,,307.4260827000253,307.7665213998407,308.558313800022,308.55046779988334,,,,,,,,,,,,,,,,,,,,,,,,,,,,,,,,,,,308.552710799966,308.558313800022,308.558313800022,309.5840970999561,g,1.0,1.018959800247103,,,,,,sub-168,1,stroop_test,119.93039192634627,
,,,,76.0,4.0,6.0,,,,,,,,,,,,,rot,yellow,g,0.0,g,1.0,0.9473375999368728,,,,,,,,,,6.0,4.0,76.0,3.0,309.5911892000586,,,,,,,,,,,,,,,,,309.5843663001433,309.6830210001208,310.4744835998863,310.4665604000911,,,,,,,,,,,,,,,,,,,,,,,,,,,,,,,,,,,310.4693066002801,310.4744835998863,310.4744835998863,311.4250595001504,g,1.0,0.9473375999368728,,,,,,sub-168,1,stroop_test,119.93039192634627,
,,,,77.0,5.0,6.0,,,,,,,,,,,,,rot,red,r,1.0,r,1.0,0.4931137999519706,,,,,,,,,,6.0,5.0,77.0,1.0,311.43273829994723,,,,,,,,,,,,,,,,,311.4252937999554,311.5158873000182,312.3075910001062,312.2998709999956,,,,,,,,,,,,,,,,,,,,,,,,,,,,,,,,,,,312.30024300003424,312.3075910001062,312.3075910001062,312.80853459984064,r,1.0,0.4931137999519706,,,,,,sub-168,1,stroop_test,119.93039192634627,
,,,,78.0,6.0,6.0,,,,,,,,,,,,,gelb,blue,b,0.0,b,1.0,0.9104180000722408,,,,,,,,,,6.0,6.0,78.0,9.0,312.81570840021595,,,,,,,,,,,,,,,,,312.8088215999305,313.6074665002525,314.3988132001832,314.3909355001524,,,,,,,,,,,,,,,,,,,,,,,,,,,,,,,,,,,314.39281680015847,314.3988132001832,314.3988132001832,315.31632179999724,b,1.0,0.9104180000722408,,,,,,sub-168,1,stroop_test,119.93039192634627,
,,,,79.0,7.0,6.0,,,,,,,,,,,,,rot,red,r,1.0,r,1.0,0.6295818998478353,,,,,,,,,,6.0,7.0,79.0,0.0,315.323764400091,,,,,,,,,,,,,,,,,315.3165935999714,316.5151328998618,317.30664130020887,317.2989272000268,,,,,,,,,,,,,,,,,,,,,,,,,,,,,,,,,,,317.301736399997,317.30664130020887,317.30664130020887,317.94114070013165,r,1.0,0.6295818998478353,,,,,,sub-168,1,stroop_test,119.93039192634627,
,,,,80.0,8.0,6.0,,,,,,,,,,,,,rot,blue,b,0.0,b,1.0,1.0450897999107838,,,,,,,,,,6.0,8.0,80.0,2.0,317.94823920028284,,,,,,,,,,,,,,,,,317.9414444002323,318.28988490020856,319.08159309998155,319.0738113000989,,,,,,,,,,,,,,,,,,,,,,,,,,,,,,,,,,,319.07421480026096,319.08159309998155,319.08159309998155,320.13244580011815,b,1.0,1.0450897999107838,,,,,,sub-168,1,stroop_test,119.93039192634627,
,,,,81.0,9.0,6.0,,,,,,,,,,,,,gelb,yellow,g,1.0,g,1.0,0.5693550002761185,,,,,,,,,,6.0,9.0,81.0,10.0,320.1395573001355,,,,,,,,,,,,,,,,,320.13274360029027,320.9312779000029,321.72262809984386,321.71494690002874,,,,,,,,,,,,,,,,,,,,,,,,,,,,,,,,,,,321.717640100047,321.72262809984386,321.72262809984386,322.2988062999211,g,1.0,0.5693550002761185,,,,,,sub-168,1,stroop_test,119.93039192634627,
,,,,82.0,10.0,6.0,,,,,,,,,,,,,blau,red,r,0.0,r,1.0,0.899025000166148,,,,,,,,,,6.0,10.0,82.0,4.0,322.30595420021564,,,,,,,,,,,,,,,,,322.2991022001952,322.6474564000964,323.43898699991405,323.43125060014427,,,,,,,,,,,,,,,,,,,,,,,,,,,,,,,,,,,323.4336274000816,323.43898699991405,323.43898699991405,324.33989199995995,r,1.0,0.899025000166148,,,,,,sub-168,1,stroop_test,119.93039192634627,
,,,,83.0,11.0,6.0,,,,,,,,,,,,,blau,blue,b,1.0,b,1.0,0.6920926002785563,,,,,,,,,,6.0,11.0,83.0,5.0,324.3472102000378,,,,,,,,,,,,,,,,,324.34015509998426,325.138735699933,325.93028540024534,325.9225548999384,,,,,,,,,,,,,,,,,,,,,,,,,,,,,,,,,,,325.9229442002252,325.93028540024534,325.93028540024534,326.6311508999206,b,1.0,0.6920926002785563,,,,,,sub-168,1,stroop_test,119.93039192634627,
,,,,84.0,0.0,7.0,,,,,,,,,,,,,gelb,yellow,g,1.0,g,1.0,0.6238270998001099,,,,,,,,,,7.0,0.0,84.0,11.0,326.63846920011565,,,,,,,,,,,,,,,,,326.63140390021726,327.4302818002179,328.22197489999235,328.2138728001155,,,,,,,,,,,,,,,,,,,,,,,,,,,,,,,,,,,328.2174955001101,328.22197489999235,328.22197489999235,328.84736540028825,g,1.0,0.6238270998001099,,,,,,sub-168,1,stroop_test,119.93039192634627,
,,,,85.0,1.0,7.0,,,,,,,,,,,,,blau,blue,b,1.0,b,1.0,0.4273623996414244,,,,,,,,,,7.0,1.0,85.0,5.0,328.8549509001896,,,,,,,,,,,,,,,,,328.8476579003036,328.9382659001276,329.7298083002679,329.7218587999232,,,,,,,,,,,,,,,,,,,,,,,,,,,,,,,,,,,329.72405900014564,329.7298083002679,329.7298083002679,330.16391390003264,b,1.0,0.4273623996414244,,,,,,sub-168,1,stroop_test,119.93039192634627,
,,,,86.0,2.0,7.0,,,,,,,,,,,,,rot,red,r,1.0,r,1.0,0.4177398001775145,,,,,,,,,,7.0,2.0,86.0,1.0,330.17143040010706,,,,,,,,,,,,,,,,,330.1641921000555,331.3626717999577,332.1544441999868,332.14656500006095,,,,,,,,,,,,,,,,,,,,,,,,,,,,,,,,,,,332.14950910024345,332.1544441999868,332.1544441999868,332.58028790028766,r,1.0,0.4177398001775145,,,,,,sub-168,1,stroop_test,119.93039192634627,
,,,,87.0,3.0,7.0,,,,,,,,,,,,,blau,yellow,g,0.0,g,1.0,0.3310413998551667,,,,,,,,,,7.0,3.0,87.0,7.0,332.587602800224,,,,,,,,,,,,,,,,,332.58060170011595,333.77919659996405,334.5705273998901,334.5628884001635,,,,,,,,,,,,,,,,,,,,,,,,,,,,,,,,,,,334.5657092998736,334.5705273998901,334.5705273998901,334.904775199946,g,1.0,0.3310413998551667,,,,,,sub-168,1,stroop_test,119.93039192634627,
,,,,88.0,4.0,7.0,,,,,,,,,,,,,gelb,blue,b,0.0,b,1.0,0.5325859999284148,,,,,,,,,,7.0,4.0,88.0,9.0,334.912241499871,,,,,,,,,,,,,,,,,334.90501420013607,336.103789600078,336.89520360017195,336.8875381001272,,,,,,,,,,,,,,,,,,,,,,,,,,,,,,,,,,,336.89017619984224,336.89520360017195,336.89520360017195,337.429225999862,b,1.0,0.5325859999284148,,,,,,sub-168,1,stroop_test,119.93039192634627,
,,,,89.0,5.0,7.0,,,,,,,,,,,,,blau,blue,b,1.0,b,1.0,0.6357537996955216,,,,,,,,,,7.0,5.0,89.0,6.0,337.4365198002197,,,,,,,,,,,,,,,,,337.4294664002955,338.6281905998476,339.41978890029714,339.4121368001215,,,,,,,,,,,,,,,,,,,,,,,,,,,,,,,,,,,339.4144007000141,339.41978890029714,339.41978890029714,340.06240990012884,b,1.0,0.6357537996955216,,,,,,sub-168,1,stroop_test,119.93039192634627,
,,,,90.0,6.0,7.0,,,,,,,,,,,,,blau,red,r,0.0,r,1.0,1.457634299993515,,,,,,,,,,7.0,6.0,90.0,4.0,340.0697535001673,,,,,,,,,,,,,,,,,340.0626849001273,340.161455700174,340.9526358000003,340.9447029000148,,,,,,,,,,,,,,,,,,,,,,,,,,,,,,,,,,,340.9449454001151,340.9526358000003,340.9526358000003,342.41182600008324,r,1.0,1.457634299993515,,,,,,sub-168,1,stroop_test,119.93039192634627,
,,,,91.0,7.0,7.0,,,,,,,,,,,,,gelb,yellow,g,1.0,g,1.0,1.6071665002964437,,,,,,,,,,7.0,7.0,91.0,10.0,342.4193879002705,,,,,,,,,,,,,,,,,342.4121012999676,343.61068620020524,344.402418800164,344.39443180011585,,,,,,,,,,,,,,,,,,,,,,,,,,,,,,,,,,,344.39735099999234,344.402418800164,344.402418800164,346.011149500031,g,1.0,1.6071665002964437,,,,,,sub-168,1,stroop_test,119.93039192634627,
,,,,92.0,8.0,7.0,,,,,,,,,,,,,rot,blue,b,0.0,b,1.0,1.721185700036585,,,,,,,,,,7.0,8.0,92.0,2.0,346.0186413000338,,,,,,,,,,,,,,,,,346.01140040019527,346.80208620009944,347.5942207002081,347.5858887000941,,,,,,,,,,,,,,,,,,,,,,,,,,,,,,,,,,,347.58908679988235,347.5942207002081,347.5942207002081,349.31902140006423,b,1.0,1.721185700036585,,,,,,sub-168,1,stroop_test,119.93039192634627,
,,,,93.0,9.0,7.0,,,,,,,,,,,,,gelb,red,r,0.0,r,1.0,0.7467592996545136,,,,,,,,,,7.0,9.0,93.0,8.0,349.3265035999939,,,,,,,,,,,,,,,,,349.3192766001448,350.5180732002482,351.310514499899,351.3018432999961,,,,,,,,,,,,,,,,,,,,,,,,,,,,,,,,,,,351.3052182998508,351.310514499899,351.310514499899,352.0606086002663,r,1.0,0.7467592996545136,,,,,,sub-168,1,stroop_test,119.93039192634627,
,,,,94.0,10.0,7.0,,,,,,,,,,,,,rot,yellow,g,0.0,g,1.0,1.0092314998619258,,,,,,,,,,7.0,10.0,94.0,3.0,352.0676823002286,,,,,,,,,,,,,,,,,352.0608999002725,353.2593844998628,354.0509697999805,354.043017399963,,,,,,,,,,,,,,,,,,,,,,,,,,,,,,,,,,,354.04555869987234,354.0509697999805,354.0509697999805,355.0682520000264,g,1.0,1.0092314998619258,,,,,,sub-168,1,stroop_test,119.93039192634627,
,,,,95.0,11.0,7.0,,,,,,,,,,,,,rot,red,r,1.0,r,1.0,0.6806792002171278,,,,,,,,,,7.0,11.0,95.0,0.0,355.0755508001894,,,,,,,,,,,,,,,,,355.0685131000355,355.4172928002663,356.20879229996353,356.2010988001712,,,,,,,,,,,,,,,,,,,,,,,,,,,,,,,,,,,356.20147350011393,356.20879229996353,356.20879229996353,356.89292160002515,r,1.0,0.6806792002171278,,,,,,sub-168,1,stroop_test,119.93039192634627,
,,,,96.0,0.0,8.0,,,,,,,,,,,,,gelb,red,r,0.0,r,1.0,0.7299180999398232,,,,,,,,,,8.0,0.0,96.0,8.0,356.9002125002444,,,,,,,,,,,,,,,,,356.89320089994,357.24183980003,358.0334238000214,358.0258137001656,,,,,,,,,,,,,,,,,,,,,,,,,,,,,,,,,,,358.0285089001991,358.0334238000214,358.0334238000214,358.7677887002937,r,1.0,0.7299180999398232,,,,,,sub-168,1,stroop_test,119.93039192634627,
,,,,97.0,1.0,8.0,,,,,,,,,,,,,rot,red,r,1.0,r,1.0,0.5941577996127307,,,,,,,,,,8.0,1.0,97.0,0.0,358.7749478998594,,,,,,,,,,,,,,,,,358.7680893000216,359.11653849994764,359.9083393001929,359.90037970012054,,,,,,,,,,,,,,,,,,,,,,,,,,,,,,,,,,,359.9026474002749,359.9083393001929,359.9083393001929,360.5092575000599,r,1.0,0.5941577996127307,,,,,,sub-168,1,stroop_test,119.93039192634627,
,,,,98.0,2.0,8.0,,,,,,,,,,,,,gelb,yellow,g,1.0,g,1.0,0.7385038998909295,,,,,,,,,,8.0,2.0,98.0,10.0,360.5163467000239,,,,,,,,,,,,,,,,,360.5095267002471,361.7078173002228,362.4993008002639,362.4916640999727,,,,,,,,,,,,,,,,,,,,,,,,,,,,,,,,,,,362.4946010001004,362.4993008002639,362.4993008002639,363.2420908999629,g,1.0,0.7385038998909295,,,,,,sub-168,1,stroop_test,119.93039192634627,
,,,,99.0,3.0,8.0,,,,,,,,,,,,,blau,yellow,g,0.0,g,1.0,0.8010639003477991,,,,,,,,,,8.0,3.0,99.0,7.0,363.249282900244,,,,,,,,,,,,,,,,,363.2423698999919,364.44086930016056,365.2324316999875,365.22450450016186,,,,,,,,,,,,,,,,,,,,,,,,,,,,,,,,,,,365.2270677001216,365.2324316999875,365.2324316999875,366.0414471002296,g,1.0,0.8010639003477991,,,,,,sub-168,1,stroop_test,119.93039192634627,
,,,,100.0,4.0,8.0,,,,,,,,,,,,,blau,red,r,0.0,r,1.0,0.6057076998986304,,,,,,,,,,8.0,4.0,100.0,4.0,366.0489865001291,,,,,,,,,,,,,,,,,366.0416997000575,366.3821363002062,367.1737287999131,367.1660301000811,,,,,,,,,,,,,,,,,,,,,,,,,,,,,,,,,,,367.1664201002568,367.1737287999131,367.1737287999131,367.78273600013927,r,1.0,0.6057076998986304,,,,,,sub-168,1,stroop_test,119.93039192634627,
,,,,101.0,5.0,8.0,,,,,,,,,,,,,rot,red,r,1.0,r,1.0,0.4524626000784337,,,,,,,,,,8.0,5.0,101.0,1.0,367.7901226002723,,,,,,,,,,,,,,,,,367.7829916002229,367.8734750002623,368.6653590002097,368.6572777000256,,,,,,,,,,,,,,,,,,,,,,,,,,,,,,,,,,,368.6603040001355,368.6653590002097,368.6653590002097,369.1246656002477,r,1.0,0.4524626000784337,,,,,,sub-168,1,stroop_test,119.93039192634627,
,,,,102.0,6.0,8.0,,,,,,,,,,,,,rot,blue,b,0.0,b,1.0,0.5882155001163483,,,,,,,,,,8.0,6.0,102.0,2.0,369.1318109002896,,,,,,,,,,,,,,,,,369.1249786000699,369.9232346001081,370.71477560000494,370.7071018000133,,,,,,,,,,,,,,,,,,,,,,,,,,,,,,,,,,,370.7076206002384,370.71477560000494,370.71477560000494,371.3073439002037,b,1.0,0.5882155001163483,,,,,,sub-168,1,stroop_test,119.93039192634627,
,,,,103.0,7.0,8.0,,,,,,,,,,,,,gelb,yellow,g,1.0,g,1.0,1.4322493001818657,,,,,,,,,,8.0,7.0,103.0,11.0,371.3146055000834,,,,,,,,,,,,,,,,,371.3076267000288,371.65624669985846,372.44775790022686,372.4399474998936,,,,,,,,,,,,,,,,,,,,,,,,,,,,,,,,,,,372.4425329002552,372.44775790022686,372.44775790022686,373.8819711999968,g,1.0,1.4322493001818657,,,,,,sub-168,1,stroop_test,119.93039192634627,
,,,,104.0,8.0,8.0,,,,,,,,,,,,,gelb,blue,b,0.0,b,1.0,1.656935699749738,,,,,,,,,,8.0,8.0,104.0,9.0,373.8893043003045,,,,,,,,,,,,,,,,,373.8822503001429,374.6807571002282,375.4722657999955,375.4645253000781,,,,,,,,,,,,,,,,,,,,,,,,,,,,,,,,,,,375.4649454001337,375.4722657999955,375.4722657999955,377.1313060000539,b,1.0,1.656935699749738,,,,,,sub-168,1,stroop_test,119.93039192634627,
,,,,105.0,9.0,8.0,,,,,,,,,,,,,blau,blue,b,1.0,b,1.0,0.4617731999605894,,,,,,,,,,8.0,9.0,105.0,5.0,377.1386969001032,,,,,,,,,,,,,,,,,377.1315497001633,377.2304750001058,378.0220296001062,378.0140595003031,,,,,,,,,,,,,,,,,,,,,,,,,,,,,,,,,,,378.01640699990094,378.0220296001062,378.0220296001062,378.4897007001564,b,1.0,0.4617731999605894,,,,,,sub-168,1,stroop_test,119.93039192634627,
,,,,106.0,10.0,8.0,,,,,,,,,,,,,rot,yellow,g,0.0,g,1.0,1.3561943001113832,,,,,,,,,,8.0,10.0,106.0,3.0,378.4968643002212,,,,,,,,,,,,,,,,,378.4899911000393,378.5883855000138,379.3797877999023,379.3723601000384,,,,,,,,,,,,,,,,,,,,,,,,,,,,,,,,,,,379.37488160002977,379.3797877999023,379.3797877999023,380.7392990998924,g,1.0,1.3561943001113832,,,,,,sub-168,1,stroop_test,119.93039192634627,
,,,,107.0,11.0,8.0,,,,,,,,,,,,,blau,blue,b,1.0,b,1.0,0.66819590004161,,,,,,,,,,8.0,11.0,107.0,6.0,380.7464565001428,,,,,,,,,,,,,,,,,380.7395885000005,380.8380340998992,381.629561800044,381.62195890024304,,,,,,,,,,,,,,,,,,,,,,,,,,,,,,,,,,,381.62489590002224,381.629561800044,381.629561800044,382.305516900029,b,1.0,0.66819590004161,,,,,,sub-168,1,stroop_test,119.93039192634627,
,,,,108.0,0.0,9.0,,,,,,,,,,,,,blau,blue,b,1.0,b,1.0,0.5406630001962185,,,,,,,,,,9.0,0.0,108.0,6.0,382.3128706999123,,,,,,,,,,,,,,,,,382.3057744000107,383.1044582999312,383.8961845999584,383.8882321002893,,,,,,,,,,,,,,,,,,,,,,,,,,,,,,,,,,,383.88862060010433,383.8961845999584,383.8961845999584,384.4386253999546,b,1.0,0.5406630001962185,,,,,,sub-168,1,stroop_test,119.93039192634627,
,,,,109.0,1.0,9.0,,,,,,,,,,,,,gelb,red,r,0.0,r,1.0,1.038340199738741,,,,,,,,,,9.0,1.0,109.0,8.0,384.4459693999961,,,,,,,,,,,,,,,,,384.4388605998829,384.7875202000141,385.5789481000975,385.5712397000752,,,,,,,,,,,,,,,,,,,,,,,,,,,,,,,,,,,385.57406229991466,385.5789481000975,385.5789481000975,386.6215746998787,r,1.0,1.038340199738741,,,,,,sub-168,1,stroop_test,119.93039192634627,
,,,,110.0,2.0,9.0,,,,,,,,,,,,,blau,yellow,g,0.0,g,1.0,1.9072254998609424,,,,,,,,,,9.0,2.0,110.0,7.0,386.6288560000248,,,,,,,,,,,,,,,,,386.62182170012966,386.72059410018846,387.5144565002993,387.5048934002407,,,,,,,,,,,,,,,,,,,,,,,,,,,,,,,,,,,387.5090562999249,387.5144565002993,387.5144565002993,389.4293209998869,g,1.0,1.9072254998609424,,,,,,sub-168,1,stroop_test,119.93039192634627,
,,,,111.0,3.0,9.0,,,,,,,,,,,,,blau,red,r,0.0,r,1.0,0.7439873004332185,,,,,,,,,,9.0,3.0,111.0,4.0,389.4367872001603,,,,,,,,,,,,,,,,,389.4296226999722,389.5199660998769,390.3116530999541,390.30397070012987,,,,,,,,,,,,,,,,,,,,,,,,,,,,,,,,,,,390.3043603003025,390.3116530999541,390.3116530999541,391.062468400225,r,1.0,0.7439873004332185,,,,,,sub-168,1,stroop_test,119.93039192634627,
,,,,112.0,4.0,9.0,,,,,,,,,,,,,blau,blue,b,1.0,b,1.0,1.4260105998255312,,,,,,,,,,9.0,4.0,112.0,5.0,391.069762500003,,,,,,,,,,,,,,,,,391.0627540000714,391.41153210029006,392.2029726002365,392.1950587001629,,,,,,,,,,,,,,,,,,,,,,,,,,,,,,,,,,,392.1953162001446,392.2029726002365,392.2029726002365,393.6368971001357,b,1.0,1.4260105998255312,,,,,,sub-168,1,stroop_test,119.93039192634627,
,,,,113.0,5.0,9.0,,,,,,,,,,,,,gelb,blue,b,0.0,b,1.0,0.7348901997320354,,,,,,,,,,9.0,5.0,113.0,9.0,393.6444183001295,,,,,,,,,,,,,,,,,393.6371670998633,393.7278081001714,394.5191957000643,394.5115388999693,,,,,,,,,,,,,,,,,,,,,,,,,,,,,,,,,,,394.5142569001764,394.5191957000643,394.5191957000643,395.2619007001631,b,1.0,0.7348901997320354,,,,,,sub-168,1,stroop_test,119.93039192634627,
,,,,114.0,6.0,9.0,,,,,,,,,,,,,rot,red,r,1.0,r,1.0,0.5639500999823213,,,,,,,,,,9.0,6.0,114.0,1.0,395.2690182998776,,,,,,,,,,,,,,,,,395.26218650024384,396.0606049001217,396.8521874002181,396.8443721998483,,,,,,,,,,,,,,,,,,,,,,,,,,,,,,,,,,,396.8472784999758,396.8521874002181,396.8521874002181,397.41968270018697,r,1.0,0.5639500999823213,,,,,,sub-168,1,stroop_test,119.93039192634627,
,,,,115.0,7.0,9.0,,,,,,,,,,,,,rot,yellow,g,0.0,g,1.0,0.7676176000386477,,,,,,,,,,9.0,7.0,115.0,3.0,397.42708399984986,,,,,,,,,,,,,,,,,397.4199975002557,397.76057090004906,398.5521201002412,398.5440799002536,,,,,,,,,,,,,,,,,,,,,,,,,,,,,,,,,,,398.5443953000941,398.5521201002412,398.5521201002412,399.3278030999936,g,1.0,0.7676176000386477,,,,,,sub-168,1,stroop_test,119.93039192634627,
,,,,116.0,8.0,9.0,,,,,,,,,,,,,rot,blue,b,0.0,b,1.0,2.554070200305432,,,,,,,,,,9.0,8.0,116.0,2.0,399.3353209001944,,,,,,,,,,,,,,,,,399.3280619001016,400.1268417001702,400.9182110000402,400.9104577000253,,,,,,,,,,,,,,,,,,,,,,,,,,,,,,,,,,,400.9108314998448,400.9182110000402,400.9182110000402,403.477045299951,b,1.0,2.554070200305432,,,,,,sub-168,1,stroop_test,119.93039192634627,
,,,,117.0,9.0,9.0,,,,,,,,,,,,,rot,red,r,1.0,r,1.0,1.6463548000901935,,,,,,,,,,9.0,9.0,117.0,0.0,403.4843688001856,,,,,,,,,,,,,,,,,403.4773110998794,404.6675717001781,405.45907479990274,405.45128870010376,,,,,,,,,,,,,,,,,,,,,,,,,,,,,,,,,,,405.4516901001334,405.45907479990274,405.45907479990274,407.1099139000289,r,1.0,1.6463548000901935,,,,,,sub-168,1,stroop_test,119.93039192634627,
,,,,118.0,10.0,9.0,,,,,,,,,,,,,gelb,yellow,g,1.0,g,1.0,1.0490281996317208,,,,,,,,,,9.0,10.0,118.0,10.0,407.1172265000641,,,,,,,,,,,,,,,,,407.1102149998769,407.4588553002104,408.2504734001122,408.2427540998906,,,,,,,,,,,,,,,,,,,,,,,,,,,,,,,,,,,408.24578840006143,408.2504734001122,408.2504734001122,409.3010641001165,g,1.0,1.0490281996317208,,,,,,sub-168,1,stroop_test,119.93039192634627,
,,,,119.0,11.0,9.0,,,,,,,,,,,,,gelb,yellow,g,1.0,g,1.0,0.7639667000621557,,,,,,,,,,9.0,11.0,119.0,11.0,409.308695900254,,,,,,,,,,,,,,,,,409.3013360002078,409.6502910000272,410.4417890999466,410.43377080000937,,,,,,,,,,,,,,,,,,,,,,,,,,,,,,,,,,,410.43404689989984,410.4417890999466,410.4417890999466,411.2090473002754,g,1.0,0.7639667000621557,,,,,,sub-168,1,stroop_test,119.93039192634627,
,,,,,,,,,,,,,,,,,,,,,,,,,,,,,,,,,,,,,,,,,,,,,,,,,,,,,,,,,,,,,,,,,,,,,,,,,,,,,,,,,,,,,,,,,,,,,,,,,,,,,,411.2091693999246,411.2168314000592,416.2073535001837,416.1999250999652,sub-168,1,stroop_test,119.93039192634627,
