wordCTK,colorCTK,corrAnsCTK,congruentCTK,thisN,thisTrialN,thisRepN,keyResp_CTK.keys,keyResp_CTK.corr,keyResp_CTK.rt,keyResp_CTK.duration,wordPractice,colorPractice,corrAnsPractice,congruentPractice,respPractice.keys,respPractice.corr,respPractice.rt,respPractice.duration,word,color,corrAns,congruent,keyResp_test_run.keys,keyResp_test_run.corr,keyResp_test_run.rt,keyResp_test_run.duration,trials_CTK.thisRepN,trials_CTK.thisTrialN,trials_CTK.thisN,trials_CTK.thisIndex,trials_practice.thisRepN,trials_practice.thisTrialN,trials_practice.thisN,trials_practice.thisIndex,trials_test.thisRepN,trials_test.thisTrialN,trials_test.thisN,trials_test.thisIndex,thisRow.t,notes,instruction.started,instr_text.started,instr_image.started,instr_resp.started,instruction.stopped,instr_resp.keys,instr_resp.rt,instr_resp.duration,instr_color_to_key.started,instr_ctk.started,resp_ctk.started,instr_color_to_key.stopped,resp_ctk.keys,resp_ctk.rt,resp_ctk.duration,ITI.started,fixcross.started,fixcross.stopped,ITI.stopped,color_to_key_run.started,stimulus_CTK.started,keyResp_CTK.started,color_to_key_run.stopped,trials_CTK.keyResp_CTK.keys,trials_CTK.keyResp_CTK.corr,trials_CTK.keyResp_CTK.rt,trials_CTK.keyResp_CTK.duration,instr_practice.started,instr_practice_text.started,instr_practice_resp.started,instr_practice.stopped,instr_practice_resp.keys,instr_practice_resp.rt,instr_practice_resp.duration,practice_run.started,stimulus_practice.started,respPractice.started,practice_run.stopped,trials_practice.respPractice.keys,trials_practice.respPractice.corr,trials_practice.respPractice.rt,trials_practice.respPractice.duration,feedback.started,textFeedback.started,feedback.stopped,textFeedback.stopped,instr_test.started,instr_test_text.started,instr_test_resp.started,instr_test.stopped,instr_test_resp.keys,instr_test_resp.rt,instr_test_resp.duration,test_run.started,stimulus_test_run.started,keyResp_test_run.started,test_run.stopped,trials_test.keyResp_test_run.keys,trials_test.keyResp_test_run.corr,trials_test.keyResp_test_run.rt,trials_test.keyResp_test_run.duration,goodbye.started,textGoodbye.started,textGoodbye.stopped,goodbye.stopped,participant,session,expName,frameRate,Unnamed: 113
,,,,,,,,,,,,,,,,,,,,,,,,,,,,,,,,,,,,,,,,,0.0147342920536175,0.0272916669491678,0.0272916669491678,0.0272916669491678,6.74201291706413,space,6.552961917011999,,,,,,,,,,,,,,,,,,,,,,,,,,,,,,,,,,,,,,,,,,,,,,,,,,,,,,,,,,,sub-110,1,stroop_test,,
,,,,,,,,,,,,,,,,,,,,,,,,,,,,,,,,,,,,,,,,,,,,,,,,,6.7420909589855,6.75437083397992,6.75437083397992,10.469190125004388,space,3.709565500030294,,,,,,,,,,,,,,,,,,,,,,,,,,,,,,,,,,,,,,,,,,,,,,,,,,,,sub-110,1,stroop_test,,
test,yellow,g,1.0,0.0,0.0,0.0,g,1.0,0.8646965830121189,,,,,,,,,,,,,,,,,,0.0,0.0,0.0,1.0,,,,,,,,,10.503570583998226,,,,,,,,,,,,,,,,,10.4968717090087,11.67042025004048,12.477140709059311,12.457842000061646,12.469944208976813,12.477140709059311,12.477140709059311,13.35399483400397,g,1.0,0.8646965830121189,,,,,,,,,,,,,,,,,,,,,,,,,,,,,,,,,,,,,,,,sub-110,1,stroop_test,,
test,blue,b,1.0,1.0,1.0,0.0,b,1.0,1.849453917006031,,,,,,,,,,,,,,,,,,0.0,1.0,1.0,2.0,,,,,,,,,13.36723091697786,,,,,,,,,,,,,,,,,13.355402208981104,13.450781916966662,14.244289083988406,14.234538541990332,14.236536083975809,14.244289083988406,14.244289083988406,16.102251667063683,b,1.0,1.849453917006031,,,,,,,,,,,,,,,,,,,,,,,,,,,,,,,,,,,,,,,,sub-110,1,stroop_test,,
test,red,r,1.0,2.0,2.0,0.0,r,1.0,0.6175701658939943,,,,,,,,,,,,,,,,,,0.0,2.0,2.0,0.0,,,,,,,,,16.112830459023826,,,,,,,,,,,,,,,,,16.10310499998741,16.450682459049858,17.243196625029668,17.23430108395405,17.235298709012568,17.243196625029668,17.243196625029668,17.868943250039592,r,1.0,0.6175701658939943,,,,,,,,,,,,,,,,,,,,,,,,,,,,,,,,,,,,,,,,sub-110,1,stroop_test,,
test,blue,b,1.0,3.0,0.0,1.0,b,1.0,0.605280915973708,,,,,,,,,,,,,,,,,,1.0,0.0,3.0,2.0,,,,,,,,,17.879851375008002,,,,,,,,,,,,,,,,,17.869536541984417,17.9656408339506,18.76031791698188,18.7513153339969,18.752669875044376,18.76031791698188,18.76031791698188,19.369359291973524,b,1.0,0.605280915973708,,,,,,,,,,,,,,,,,,,,,,,,,,,,,,,,,,,,,,,,sub-110,1,stroop_test,,
test,yellow,g,1.0,4.0,1.0,1.0,g,1.0,0.5478883330943063,,,,,,,,,,,,,,,,,,1.0,1.0,4.0,1.0,,,,,,,,,19.380466041970067,,,,,,,,,,,,,,,,,19.37046324997209,19.717240166966803,20.520435750018805,20.505993208964355,20.50780433404725,20.520435750018805,20.520435750018805,21.07484220899641,g,1.0,0.5478883330943063,,,,,,,,,,,,,,,,,,,,,,,,,,,,,,,,,,,,,,,,sub-110,1,stroop_test,,
test,red,r,1.0,5.0,2.0,1.0,r,1.0,0.4324401250341907,,,,,,,,,,,,,,,,,,1.0,2.0,5.0,0.0,,,,,,,,,21.08584170904942,,,,,,,,,,,,,,,,,21.07541262498125,21.172920124954544,21.966133999987505,21.957654666970484,21.95834354206454,21.966133999987505,21.966133999987505,22.40195283398498,r,1.0,0.4324401250341907,,,,,,,,,,,,,,,,,,,,,,,,,,,,,,,,,,,,,,,,sub-110,1,stroop_test,,
test,yellow,g,1.0,6.0,0.0,2.0,g,1.0,0.5844690829981118,,,,,,,,,,,,,,,,,,2.0,0.0,6.0,1.0,,,,,,,,,22.41246058396064,,,,,,,,,,,,,,,,,22.402495000045747,22.500818209024143,23.29211179201957,23.284241333953105,23.284942875034176,23.29211179201957,23.29211179201957,23.88560345896985,g,1.0,0.5844690829981118,,,,,,,,,,,,,,,,,,,,,,,,,,,,,,,,,,,,,,,,sub-110,1,stroop_test,,
test,blue,b,1.0,7.0,1.0,2.0,b,1.0,0.5259113329229876,,,,,,,,,,,,,,,,,,2.0,1.0,7.0,2.0,,,,,,,,,23.895406499970704,,,,,,,,,,,,,,,,,23.886514791985974,25.083957834052853,25.877562667010352,25.867853041971102,25.868783958954737,25.877562667010352,25.877562667010352,26.411562041961588,b,1.0,0.5259113329229876,,,,,,,,,,,,,,,,,,,,,,,,,,,,,,,,,,,,,,,,sub-110,1,stroop_test,,
test,red,r,1.0,8.0,2.0,2.0,r,1.0,0.5355801250552759,,,,,,,,,,,,,,,,,,2.0,2.0,8.0,0.0,,,,,,,,,26.418537999968976,,,,,,,,,,,,,,,,,26.41200116695836,26.510567874996923,27.309766917023808,27.30100937501993,27.302466792054474,27.309766917023808,27.309766917023808,27.851901791989803,r,1.0,0.5355801250552759,,,,,,,,,,,,,,,,,,,,,,,,,,,,,,,,,,,,,,,,sub-110,1,stroop_test,,
test,red,r,1.0,9.0,0.0,3.0,r,1.0,0.5121619988931343,,,,,,,,,,,,,,,,,,3.0,0.0,9.0,0.0,,,,,,,,,27.861835584044456,,,,,,,,,,,,,,,,,27.852468291996047,28.650765417027287,29.442206209059805,29.433946292032488,29.434654459008016,29.442206209059805,29.442206209059805,29.959686125046574,r,1.0,0.5121619988931343,,,,,,,,,,,,,,,,,,,,,,,,,,,,,,,,,,,,,,,,sub-110,1,stroop_test,,
test,yellow,g,1.0,10.0,1.0,3.0,g,1.0,0.4372200409416109,,,,,,,,,,,,,,,,,,3.0,1.0,10.0,1.0,,,,,,,,,29.970341000007465,,,,,,,,,,,,,,,,,29.96036370901857,31.15750325005501,31.949952541966923,31.9410429589916,31.941911041969437,31.949952541966923,31.949952541966923,32.3912400000263,g,1.0,0.4372200409416109,,,,,,,,,,,,,,,,,,,,,,,,,,,,,,,,,,,,,,,,sub-110,1,stroop_test,,
test,blue,b,1.0,11.0,2.0,3.0,b,1.0,0.3210888330359012,,,,,,,,,,,,,,,,,,3.0,2.0,11.0,2.0,,,,,,,,,32.40214208397083,,,,,,,,,,,,,,,,,32.392025624983944,33.19050058396533,33.983148250030354,33.9748741670046,33.975759500055574,33.983148250030354,33.983148250030354,34.30902845901437,b,1.0,0.3210888330359012,,,,,,,,,,,,,,,,,,,,,,,,,,,,,,,,,,,,,,,,sub-110,1,stroop_test,,
,,,,,,,,,,,,,,,,,,,,,,,,,,,,,,,,,,,,,,,,,,,,,,,,,,,,,,,,,,,,,,,,,,,,34.30943162506446,34.321678334032185,34.321678334032185,37.41865304205567,space,3.0865435421001166,,,,,,,,,,,,,,,,,,,,,,,,,,,,,,,,,sub-110,1,stroop_test,,
,,,,0.0,0.0,0.0,,,,,blau,yellow,g,0.0,g,1.0,0.8115956659894437,,,,,,,,,,,,,,0.0,0.0,0.0,7.0,,,,,37.45790845900774,,,,,,,,,,,,,,,,,37.449430042062886,37.517081875004806,38.32051633403171,38.30084470903967,,,,,,,,,,,,,,,,38.31328429200221,38.32051633403171,38.32051633403171,39.1352446670644,g,1.0,0.8115956659894437,,39.14538041700144,39.157332084025256,40.14086145895999,,,,,,,,,,,,,,,,,,,,,sub-110,1,stroop_test,,
,,,,1.0,1.0,0.0,,,,,gelb,blue,b,0.0,r,0.0,0.5695270830765367,,,,,,,,,,,,,,0.0,1.0,1.0,9.0,,,,,40.15038895898033,,,,,,,,,,,,,,,,,40.14152470906265,40.9338718339568,41.73147445905488,41.71756637503859,,,,,,,,,,,,,,,,41.723800000036135,41.73147445905488,41.73147445905488,42.308925625053234,r,0.0,0.5695270830765367,,42.31688425003085,42.32664458395448,43.31739108404145,,,,,,,,,,,,,,,,,,,,,sub-110,1,stroop_test,,
,,,,2.0,2.0,0.0,,,,,blau,red,r,0.0,r,1.0,0.610464291065,,,,,,,,,,,,,,0.0,2.0,2.0,4.0,,,,,43.32418954197783,,,,,,,,,,,,,,,,,43.31851370900404,44.107462459011,44.91742112499196,44.90092349995393,,,,,,,,,,,,,,,,44.909223917056806,44.91742112499196,44.91742112499196,45.53587504196912,r,1.0,0.610464291065,,45.5425350839505,45.55400470900349,46.54125466698315,,,,,,,,,,,,,,,,,,,,,sub-110,1,stroop_test,,
,,,,3.0,3.0,0.0,,,,,blau,blue,b,1.0,b,1.0,0.4619845410343259,,,,,,,,,,,,,,0.0,3.0,3.0,6.0,,,,,46.54964533401653,,,,,,,,,,,,,,,,,46.54209320899099,47.33408833399881,48.126861292053945,48.11761279206257,,,,,,,,,,,,,,,,48.11893537500873,48.126861292053945,48.126861292053945,48.59339345898479,b,1.0,0.4619845410343259,,48.59457016701344,48.6068989590276,49.590445125009865,49.60048854199704,,,,,,,,,,,,,,,,,,,,sub-110,1,stroop_test,,
,,,,4.0,4.0,0.0,,,,,gelb,yellow,g,1.0,g,1.0,0.5795523739652708,,,,,,,,,,,,,,0.0,4.0,4.0,11.0,,,,,49.60048854199704,,,,,,,,,,,,,,,,,49.5909334999742,50.79009500006214,51.59014258405659,51.57406595896464,,,,,,,,,,,,,,,,51.58266029204242,51.59014258405659,51.59014258405659,52.17398020904511,g,1.0,0.5795523739652708,,52.17476591700688,52.18641391699202,53.173562166979536,53.18355566705577,,,,,,,,,,,,,,,,,,,,sub-110,1,stroop_test,,
,,,,5.0,5.0,0.0,,,,,rot,red,r,1.0,r,1.0,0.496640249970369,,,,,,,,,,,,,,0.0,5.0,5.0,0.0,,,,,53.18355566705577,,,,,,,,,,,,,,,,,53.17396399995778,53.27368866698816,54.07099045906216,54.05685649998486,,,,,,,,,,,,,,,,54.06384891702328,54.07099045906216,54.07099045906216,54.58446254197042,r,1.0,0.496640249970369,,54.585643250029534,54.59746045898646,55.584395583951846,55.59104670898523,,,,,,,,,,,,,,,,,,,,sub-110,1,stroop_test,,
,,,,6.0,6.0,0.0,,,,,rot,yellow,g,0.0,g,1.0,0.5720518750604242,,,,,,,,,,,,,,0.0,6.0,6.0,3.0,,,,,55.59104670898523,,,,,,,,,,,,,,,,,55.58535208401736,55.92397129198071,56.72653170896229,56.71759641706012,,,,,,,,,,,,,,,,56.71874595899135,56.72653170896229,56.72653170896229,57.30203054205049,g,1.0,0.5720518750604242,,57.30290650005918,57.31439233396668,58.30094883404672,58.30741366697475,,,,,,,,,,,,,,,,,,,,sub-110,1,stroop_test,,
,,,,7.0,7.0,0.0,,,,,rot,red,r,1.0,r,1.0,0.4173037080327049,,,,,,,,,,,,,,0.0,7.0,7.0,1.0,,,,,58.30741366697475,,,,,,,,,,,,,,,,,58.30172337498516,59.50064087496139,60.295098416972905,60.284154499997385,,,,,,,,,,,,,,,,60.28666483401321,60.295098416972905,60.295098416972905,60.71867204201408,r,1.0,0.4173037080327049,,60.7195127500454,60.73163154197391,61.71737774997018,61.72371325001586,,,,,,,,,,,,,,,,,,,,sub-110,1,stroop_test,,
,,,,8.0,8.0,0.0,,,,,gelb,red,r,0.0,r,1.0,0.5233824159950018,,,,,,,,,,,,,,0.0,8.0,8.0,8.0,,,,,61.72371325001586,,,,,,,,,,,,,,,,,61.71808670903556,62.51685395895038,63.31409999995958,63.30034329195041,,,,,,,,,,,,,,,,63.30642929195892,63.31409999995958,63.31409999995958,63.85310937499162,r,1.0,0.5233824159950018,,63.85391154198442,63.86378258396872,64.85102475003805,64.85801158403046,,,,,,,,,,,,,,,,,,,,sub-110,1,stroop_test,,
,,,,9.0,9.0,0.0,,,,,gelb,yellow,g,1.0,g,1.0,0.5616271659964696,,,,,,,,,,,,,,0.0,9.0,9.0,10.0,,,,,64.85801158403046,,,,,,,,,,,,,,,,,64.85227487504017,65.20006833400112,65.99967487505637,65.98752216703724,,,,,,,,,,,,,,,,65.99151475005783,65.99967487505637,65.99967487505637,66.56844933400862,g,1.0,0.5616271659964696,,66.56930941704195,66.58247720904183,67.56741404195782,67.57350641698577,,,,,,,,,,,,,,,,,,,,sub-110,1,stroop_test,,
,,,,10.0,10.0,0.0,,,,,blau,blue,b,1.0,b,1.0,0.3889349169330671,,,,,,,,,,,,,,0.0,10.0,10.0,5.0,,,,,67.57350641698577,,,,,,,,,,,,,,,,,67.56812800001353,68.76683329197112,69.56465366703924,69.55053604196291,,,,,,,,,,,,,,,,69.55588754196651,69.56465366703924,69.56465366703924,69.95707708399277,b,1.0,0.3889349169330671,,69.95783345901873,69.96965716697741,70.95727241702843,70.96685475006234,,,,,,,,,,,,,,,,,,,,sub-110,1,stroop_test,,
,,,,11.0,11.0,0.0,,,,,rot,blue,b,0.0,b,1.0,0.3783932499354705,,,,,,,,,,,,,,0.0,11.0,11.0,2.0,,,,,70.96685475006234,,,,,,,,,,,,,,,,,70.95787545898929,71.05708291695919,71.85278133396059,71.84033208398614,,,,,,,,,,,,,,,,71.84456754196435,71.85278133396059,71.85278133396059,72.23541595903225,b,1.0,0.3783932499354705,,72.23674329195637,72.24831716704648,73.23390945896972,73.24005354195833,,,,,,,,,,,,,,,,,,,,sub-110,1,stroop_test,,
,,,,12.0,0.0,1.0,,,,,gelb,yellow,g,1.0,g,1.0,0.5432769160252064,,,,,,,,,,,,,,1.0,0.0,12.0,11.0,,,,,73.24005354195833,,,,,,,,,,,,,,,,,73.23461666703224,73.33334608399309,74.14678216702305,74.11783658398781,,,,,,,,,,,,,,,,74.1321711250348,74.14678216702305,74.14678216702305,74.70217441697605,g,1.0,0.5432769160252064,,74.70278225000948,74.71663495898247,75.6996852500597,75.7052043749718,,,,,,,,,,,,,,,,,,,,sub-110,1,stroop_test,,
,,,,13.0,1.0,1.0,,,,,gelb,yellow,g,1.0,g,1.0,0.4548586250748485,,,,,,,,,,,,,,1.0,1.0,13.0,10.0,,,,,75.7052043749718,,,,,,,,,,,,,,,,,75.70024695899338,76.50038674997631,77.29308954195585,77.2840845839819,,,,,,,,,,,,,,,,77.28518112504389,77.29308954195585,77.29308954195585,77.75151762505993,g,1.0,0.4548586250748485,,77.7522732920479,77.760131041985,78.75079362501856,78.75709704204928,,,,,,,,,,,,,,,,,,,,sub-110,1,stroop_test,,
,,,,14.0,2.0,1.0,,,,,rot,red,r,1.0,r,1.0,0.3459927079966292,,,,,,,,,,,,,,1.0,2.0,14.0,0.0,,,,,78.75709704204928,,,,,,,,,,,,,,,,,78.75148662505671,78.85023216705304,79.64690354198683,79.63399729202501,,,,,,,,,,,,,,,,79.63918000005651,79.64690354198683,79.64690354198683,80.0018314999761,r,1.0,0.3459927079966292,,80.0031444169581,80.01398829196114,81.00080654199701,81.00697316695005,,,,,,,,,,,,,,,,,,,,sub-110,1,stroop_test,,
,,,,15.0,3.0,1.0,,,,,gelb,blue,b,0.0,b,1.0,0.3402846250683069,,,,,,,,,,,,,,1.0,3.0,15.0,9.0,,,,,81.00697316695005,,,,,,,,,,,,,,,,,81.00140041694976,81.80031087505631,82.59851579205133,82.58388737495989,,,,,,,,,,,,,,,,82.5904236669885,82.59851579205133,82.59851579205133,82.94136445899494,b,1.0,0.3402846250683069,,82.9422023750376,82.95317483402323,83.94051679200493,83.9501162499655,,,,,,,,,,,,,,,,,,,,sub-110,1,stroop_test,,
,,,,16.0,4.0,1.0,,,,,rot,blue,b,0.0,b,1.0,0.4201136250048876,,,,,,,,,,,,,,1.0,4.0,16.0,2.0,,,,,83.9501162499655,,,,,,,,,,,,,,,,,83.94110679195728,84.29062920901924,85.09458549995907,85.08335108403116,,,,,,,,,,,,,,,,85.08798695902806,85.09458549995907,85.09458549995907,85.5187783750007,b,1.0,0.4201136250048876,,85.52015691704582,85.5312233340228,86.51734762499109,86.52359570900444,,,,,,,,,,,,,,,,,,,,sub-110,1,stroop_test,,
,,,,17.0,5.0,1.0,,,,,blau,blue,b,1.0,b,1.0,0.4832990419818088,,,,,,,,,,,,,,1.0,5.0,17.0,6.0,,,,,86.52359570900444,,,,,,,,,,,,,,,,,86.5179396669846,87.31672887504101,88.11331779195461,88.1005428340286,,,,,,,,,,,,,,,,88.1060904590413,88.11331779195461,88.11331779195461,88.60168916697148,b,1.0,0.4832990419818088,,88.6031240420416,88.61403204197995,89.60083462495822,89.6171332920203,,,,,,,,,,,,,,,,,,,,sub-110,1,stroop_test,,
,,,,18.0,6.0,1.0,,,,,gelb,red,r,0.0,r,1.0,0.5662706670118496,,,,,,,,,,,,,,1.0,6.0,18.0,8.0,,,,,89.6171332920203,,,,,,,,,,,,,,,,,89.60170779202599,89.95004262495786,90.75230591697618,90.73394516704138,,,,,,,,,,,,,,,,90.74369499995372,90.75230591697618,90.75230591697618,91.32505524996668,r,1.0,0.5662706670118496,,91.3262627919903,91.33823712496088,92.32298837497363,92.33340704196598,,,,,,,,,,,,,,,,,,,,sub-110,1,stroop_test,,
,,,,19.0,7.0,1.0,,,,,blau,blue,b,1.0,b,1.0,0.6497295000590384,,,,,,,,,,,,,,1.0,7.0,19.0,5.0,,,,,92.33340704196598,,,,,,,,,,,,,,,,,92.32351208396722,92.67349416704384,93.46973904198968,93.45677491696551,,,,,,,,,,,,,,,,93.46259675000329,93.46973904198968,93.46973904198968,94.12243245902935,b,1.0,0.6497295000590384,,94.12313475005794,94.1349779999582,95.1216499999864,95.1332037090324,,,,,,,,,,,,,,,,,,,,sub-110,1,stroop_test,,
,,,,20.0,8.0,1.0,,,,,rot,yellow,g,0.0,g,1.0,0.4434452489949763,,,,,,,,,,,,,,1.0,8.0,20.0,3.0,,,,,95.1332037090324,,,,,,,,,,,,,,,,,95.12198908405844,95.21691445901524,96.01084108406212,95.99971866700798,,,,,,,,,,,,,,,,96.00459154206328,96.01084108406212,96.01084108406212,96.4572844170034,g,1.0,0.4434452489949763,,96.45814816700296,96.46929575002288,97.4566696670372,97.46652470901608,,,,,,,,,,,,,,,,,,,,sub-110,1,stroop_test,,
,,,,21.0,9.0,1.0,,,,,blau,yellow,g,0.0,g,1.0,0.4376305829500779,,,,,,,,,,,,,,1.0,9.0,21.0,7.0,,,,,97.46652470901608,,,,,,,,,,,,,,,,,97.45732475002296,97.55663441703656,98.35253266699146,98.33986870897934,,,,,,,,,,,,,,,,98.34473450004587,98.35253266699146,98.35253266699146,98.80213441699745,g,1.0,0.4376305829500779,,98.80336625000928,98.81450154201592,99.7986764999805,99.80209699994884,,,,,,,,,,,,,,,,,,,,sub-110,1,stroop_test,,
,,,,22.0,10.0,1.0,,,,,rot,red,r,1.0,r,1.0,0.4985282910056412,,,,,,,,,,,,,,1.0,10.0,22.0,1.0,,,,,99.80209699994884,,,,,,,,,,,,,,,,,99.79888804198708,100.14992224995513,100.94659545901231,100.93368954199832,,,,,,,,,,,,,,,,100.93890575005209,100.94659545901231,100.94659545901231,101.4509423749987,r,1.0,0.4985282910056412,,101.45165666704996,101.46244737505911,102.45046504202764,102.4567598339636,,,,,,,,,,,,,,,,,,,,sub-110,1,stroop_test,,
,,,,23.0,11.0,1.0,,,,,blau,red,r,0.0,r,1.0,0.3866677080513909,,,,,,,,,,,,,,1.0,11.0,23.0,4.0,,,,,102.4567598339636,,,,,,,,,,,,,,,,,102.4513679590309,102.5500552089652,103.34734804194886,103.33365487505216,,,,,,,,,,,,,,,,103.34000716696028,103.34734804194886,103.34734804194886,103.74070487497374,r,1.0,0.3866677080513909,,103.74186658405232,103.75276779197156,104.73972979199608,104.74872004205828,,,,,,,,,,,,,,,,,,,,sub-110,1,stroop_test,,
,,,,,,,,,,,,,,,,,,,,,,,,,,,,,,,,,,,,,,,,,,,,,,,,,,,,,,,,,,,,,,,,,,,,,,,,,,,,,,,,,,,,,,,104.74006108404136,104.74872004205828,104.74872004205828,107.90104283404072,space,3.145501625025645,,,,,,,,,,,,,,sub-110,1,stroop_test,,
,,,,0.0,0.0,0.0,,,,,,,,,,,,,rot,yellow,g,0.0,g,1.0,0.9265015829587356,,,,,,,,,,0.0,0.0,0.0,3.0,107.92339887504932,,,,,,,,,,,,,,,,,107.9185516249854,109.09991250000894,109.89945445896592,109.88334058399778,,,,,,,,,,,,,,,,,,,,,,,,,,,,,,,,,,,109.89121008396614,109.89945445896592,109.89945445896592,110.83703729195986,g,1.0,0.9265015829587356,,,,,,sub-110,1,stroop_test,,
,,,,1.0,1.0,0.0,,,,,,,,,,,,,blau,blue,b,1.0,b,1.0,0.6491790830623358,,,,,,,,,,0.0,1.0,1.0,5.0,110.84952108399013,,,,,,,,,,,,,,,,,110.83814300002996,110.93334254203364,111.73072920902632,111.7170166670112,,,,,,,,,,,,,,,,,,,,,,,,,,,,,,,,,,,111.7232736670412,111.73072920902632,111.73072920902632,112.39369454199914,b,1.0,0.6491790830623358,,,,,,sub-110,1,stroop_test,,
,,,,2.0,2.0,0.0,,,,,,,,,,,,,gelb,blue,b,0.0,b,1.0,0.6163039989769459,,,,,,,,,,0.0,2.0,2.0,9.0,112.39991687505972,,,,,,,,,,,,,,,,,112.3939674589783,113.18971275002696,113.98553175001872,113.97341837501152,,,,,,,,,,,,,,,,,,,,,,,,,,,,,,,,,,,113.97776666702704,113.98553175001872,113.98553175001872,114.60703508404548,b,1.0,0.6163039989769459,,,,,,sub-110,1,stroop_test,,
,,,,3.0,3.0,0.0,,,,,,,,,,,,,rot,red,r,1.0,r,1.0,0.422268082969822,,,,,,,,,,0.0,3.0,3.0,1.0,114.61666770896409,,,,,,,,,,,,,,,,,114.60754729202016,114.95649324997794,115.76237929204945,115.75011000002269,,,,,,,,,,,,,,,,,,,,,,,,,,,,,,,,,,,115.75513895903714,115.76237929204945,115.76237929204945,116.19078887498472,r,1.0,0.422268082969822,,,,,,sub-110,1,stroop_test,,
,,,,4.0,4.0,0.0,,,,,,,,,,,,,rot,blue,b,0.0,g,0.0,0.959395083016716,,,,,,,,,,0.0,4.0,4.0,2.0,116.21624516695738,,,,,,,,,,,,,,,,,116.19150787498802,116.53883841703646,117.33330320904496,117.32351479202045,,,,,,,,,,,,,,,,,,,,,,,,,,,,,,,,,,,117.3252523749834,117.33330320904496,117.33330320904496,118.31392624997534,g,0.0,0.959395083016716,,,,,,sub-110,1,stroop_test,,
,,,,5.0,5.0,0.0,,,,,,,,,,,,,blau,blue,b,1.0,b,1.0,0.653391582891345,,,,,,,,,,0.0,5.0,5.0,6.0,118.3255706250202,,,,,,,,,,,,,,,,,118.31507258396596,118.40651812497526,119.2032758339774,119.18978749995586,,,,,,,,,,,,,,,,,,,,,,,,,,,,,,,,,,,119.19598766695708,119.2032758339774,119.2032758339774,119.86746195901652,b,1.0,0.653391582891345,,,,,,sub-110,1,stroop_test,,
,,,,6.0,6.0,0.0,,,,,,,,,,,,,blau,red,r,0.0,r,1.0,0.9134004160296172,,,,,,,,,,0.0,6.0,6.0,4.0,119.8772873750422,,,,,,,,,,,,,,,,,119.86800899996888,120.66593820904382,121.45418208395132,121.4490770000266,,,,,,,,,,,,,,,,,,,,,,,,,,,,,,,,,,,121.44951091695113,121.45418208395132,121.45418208395132,122.37316908396316,r,1.0,0.9134004160296172,,,,,,sub-110,1,stroop_test,,
,,,,7.0,7.0,0.0,,,,,,,,,,,,,gelb,yellow,g,1.0,g,1.0,0.5178671660833061,,,,,,,,,,0.0,7.0,7.0,11.0,122.3831532499753,,,,,,,,,,,,,,,,,122.3741847500205,122.716714084032,123.51065420894884,123.500013959012,,,,,,,,,,,,,,,,,,,,,,,,,,,,,,,,,,,123.503624749952,123.51065420894884,123.51065420894884,124.03409079206176,g,1.0,0.5178671660833061,,,,,,sub-110,1,stroop_test,,
,,,,8.0,8.0,0.0,,,,,,,,,,,,,blau,yellow,g,0.0,g,1.0,0.6381494989618659,,,,,,,,,,0.0,8.0,8.0,7.0,124.04311758396216,,,,,,,,,,,,,,,,,124.03468445898034,124.1330605839612,124.92631300003268,124.91641108400654,,,,,,,,,,,,,,,,,,,,,,,,,,,,,,,,,,,124.9195223749848,124.92631300003268,124.92631300003268,125.56704729201738,g,1.0,0.6381494989618659,,,,,,sub-110,1,stroop_test,,
,,,,9.0,9.0,0.0,,,,,,,,,,,,,gelb,yellow,g,1.0,g,1.0,0.5481823740992695,,,,,,,,,,0.0,9.0,9.0,10.0,125.57573658402544,,,,,,,,,,,,,,,,,125.56746125000063,126.35488774999976,127.14921737497208,127.13795770902652,,,,,,,,,,,,,,,,,,,,,,,,,,,,,,,,,,,127.1418474590173,127.14921737497208,127.14921737497208,127.7006806669524,g,1.0,0.5481823740992695,,,,,,sub-110,1,stroop_test,,
,,,,10.0,10.0,0.0,,,,,,,,,,,,,rot,red,r,1.0,r,1.0,0.3890923330327496,,,,,,,,,,0.0,10.0,10.0,0.0,127.70934704202227,,,,,,,,,,,,,,,,,127.7012170420494,128.49961745901965,129.2941312090261,129.28341958404053,,,,,,,,,,,,,,,,,,,,,,,,,,,,,,,,,,,129.28680491703562,129.2941312090261,129.2941312090261,129.68929362494964,r,1.0,0.3890923330327496,,,,,,sub-110,1,stroop_test,,
,,,,11.0,11.0,0.0,,,,,,,,,,,,,gelb,red,r,0.0,r,1.0,0.4232485420070588,,,,,,,,,,0.0,11.0,11.0,8.0,129.69866837502923,,,,,,,,,,,,,,,,,129.69022624997888,130.8876437500585,131.68188666703645,131.67108654195908,,,,,,,,,,,,,,,,,,,,,,,,,,,,,,,,,,,131.67458550003357,131.68188666703645,131.68188666703645,132.11732950003352,r,1.0,0.4232485420070588,,,,,,sub-110,1,stroop_test,,
,,,,12.0,0.0,1.0,,,,,,,,,,,,,gelb,yellow,g,1.0,g,1.0,0.623863207991235,,,,,,,,,,1.0,0.0,12.0,11.0,132.12641029199585,,,,,,,,,,,,,,,,,132.11778175004292,132.46630462503526,133.25643908395432,133.2496962499572,,,,,,,,,,,,,,,,,,,,,,,,,,,,,,,,,,,133.25020737503655,133.25643908395432,133.25643908395432,133.88373583403882,g,1.0,0.623863207991235,,,,,,sub-110,1,stroop_test,,
,,,,13.0,1.0,1.0,,,,,,,,,,,,,gelb,red,r,0.0,r,1.0,0.4127627080306411,,,,,,,,,,1.0,1.0,13.0,8.0,133.89269204204902,,,,,,,,,,,,,,,,,133.88419374998193,135.08255704201292,135.87543587503023,135.8667497090064,,,,,,,,,,,,,,,,,,,,,,,,,,,,,,,,,,,135.86822845903225,135.87543587503023,135.87543587503023,136.2893149589654,r,1.0,0.4127627080306411,,,,,,sub-110,1,stroop_test,,
,,,,14.0,2.0,1.0,,,,,,,,,,,,,gelb,yellow,g,1.0,g,1.0,0.6838247490813956,,,,,,,,,,1.0,2.0,14.0,10.0,136.29939433396794,,,,,,,,,,,,,,,,,136.28988533397205,136.38297975005116,137.17526766704395,137.16661191696767,,,,,,,,,,,,,,,,,,,,,,,,,,,,,,,,,,,137.1676893340191,137.17526766704395,137.17526766704395,137.86731358396355,g,1.0,0.6838247490813956,,,,,,sub-110,1,stroop_test,,
,,,,15.0,3.0,1.0,,,,,,,,,,,,,blau,blue,b,1.0,b,1.0,0.3574781239731237,,,,,,,,,,1.0,3.0,15.0,6.0,137.87603516702077,,,,,,,,,,,,,,,,,137.86778354202397,139.06475174997468,139.85846066696104,139.8490753340302,,,,,,,,,,,,,,,,,,,,,,,,,,,,,,,,,,,139.85317933396436,139.85846066696104,139.85846066696104,140.21813791699242,b,1.0,0.3574781239731237,,,,,,sub-110,1,stroop_test,,
,,,,16.0,4.0,1.0,,,,,,,,,,,,,rot,red,r,1.0,r,1.0,0.3876541239442304,,,,,,,,,,1.0,4.0,16.0,1.0,140.22877554199658,,,,,,,,,,,,,,,,,140.21895983396098,141.41598312498536,142.21029833401553,142.19973858399317,,,,,,,,,,,,,,,,,,,,,,,,,,,,,,,,,,,142.20324820897076,142.21029833401553,142.21029833401553,142.60085520904977,r,1.0,0.3876541239442304,,,,,,sub-110,1,stroop_test,,
,,,,17.0,5.0,1.0,,,,,,,,,,,,,blau,yellow,g,0.0,g,1.0,0.473145000054501,,,,,,,,,,1.0,5.0,17.0,7.0,142.6103075420251,,,,,,,,,,,,,,,,,142.6016095840605,143.79967162501998,144.59581508405972,144.58323654194828,,,,,,,,,,,,,,,,,,,,,,,,,,,,,,,,,,,144.58845087501686,144.59581508405972,144.59581508405972,145.07379537494853,g,1.0,0.473145000054501,,,,,,sub-110,1,stroop_test,,
,,,,18.0,6.0,1.0,,,,,,,,,,,,,rot,blue,b,0.0,b,1.0,0.3554752490017563,,,,,,,,,,1.0,6.0,18.0,2.0,145.08451233396772,,,,,,,,,,,,,,,,,145.07447091699578,146.2659031250514,147.0652794999769,147.04959283396602,,,,,,,,,,,,,,,,,,,,,,,,,,,,,,,,,,,147.05730766698252,147.0652794999769,147.0652794999769,147.42196720896754,b,1.0,0.3554752490017563,,,,,,sub-110,1,stroop_test,,
,,,,19.0,7.0,1.0,,,,,,,,,,,,,rot,red,r,1.0,r,1.0,0.6764987079659477,,,,,,,,,,1.0,7.0,19.0,0.0,147.43179041706026,,,,,,,,,,,,,,,,,147.4225577500183,147.51602400001138,148.31627850001678,148.30098212498706,,,,,,,,,,,,,,,,,,,,,,,,,,,,,,,,,,,148.30197441705968,148.31627850001678,148.31627850001678,149.00129087502137,r,1.0,0.6764987079659477,,,,,,sub-110,1,stroop_test,,
,,,,20.0,8.0,1.0,,,,,,,,,,,,,gelb,blue,b,0.0,b,1.0,0.5397991240024567,,,,,,,,,,1.0,8.0,20.0,9.0,149.01172687497456,,,,,,,,,,,,,,,,,149.00243320898153,149.099616624997,149.89578841696493,149.88329508400057,,,,,,,,,,,,,,,,,,,,,,,,,,,,,,,,,,,149.88806783396285,149.89578841696493,149.89578841696493,150.4392085840227,b,1.0,0.5397991240024567,,,,,,sub-110,1,stroop_test,,
,,,,21.0,9.0,1.0,,,,,,,,,,,,,rot,yellow,g,0.0,g,1.0,0.489591582911089,,,,,,,,,,1.0,9.0,21.0,3.0,150.4491959590232,,,,,,,,,,,,,,,,,150.43975283403415,151.6398810839746,152.43491987499874,152.42248954204842,,,,,,,,,,,,,,,,,,,,,,,,,,,,,,,,,,,152.4268107090611,152.43491987499874,152.43491987499874,152.93490087497048,g,1.0,0.489591582911089,,,,,,sub-110,1,stroop_test,,
,,,,22.0,10.0,1.0,,,,,,,,,,,,,blau,red,r,0.0,r,1.0,0.349668207927607,,,,,,,,,,1.0,10.0,22.0,4.0,152.94534091698006,,,,,,,,,,,,,,,,,152.935883459053,154.13290695904288,154.9328602090245,154.92094929201994,,,,,,,,,,,,,,,,,,,,,,,,,,,,,,,,,,,154.92613658402115,154.9328602090245,154.9328602090245,155.28455516695976,r,1.0,0.349668207927607,,,,,,sub-110,1,stroop_test,,
,,,,23.0,11.0,1.0,,,,,,,,,,,,,blau,blue,b,1.0,b,1.0,0.454723916016519,,,,,,,,,,1.0,11.0,23.0,5.0,155.29425566701684,,,,,,,,,,,,,,,,,155.28525724995416,156.48295058403164,157.27474545896985,157.26640329195652,,,,,,,,,,,,,,,,,,,,,,,,,,,,,,,,,,,157.2672837920254,157.27474545896985,157.27474545896985,157.73405941703822,b,1.0,0.454723916016519,,,,,,sub-110,1,stroop_test,,
,,,,24.0,0.0,2.0,,,,,,,,,,,,,gelb,red,r,0.0,r,1.0,0.9287155829370022,,,,,,,,,,2.0,0.0,24.0,8.0,157.7434624589514,,,,,,,,,,,,,,,,,157.7346903339494,158.08259245904628,158.88064491702244,158.866469917004,,,,,,,,,,,,,,,,,,,,,,,,,,,,,,,,,,,158.8728200000478,158.88064491702244,158.88064491702244,159.81715875002556,r,1.0,0.9287155829370022,,,,,,sub-110,1,stroop_test,,
,,,,25.0,1.0,2.0,,,,,,,,,,,,,blau,blue,b,1.0,b,1.0,0.9942494159331544,,,,,,,,,,2.0,1.0,25.0,6.0,159.8243597500259,,,,,,,,,,,,,,,,,159.81802858400624,161.01459729205817,161.80511325004045,161.79912400001194,,,,,,,,,,,,,,,,,,,,,,,,,,,,,,,,,,,161.80096591706388,161.80511325004045,161.80511325004045,162.81345037498977,b,1.0,0.9942494159331544,,,,,,sub-110,1,stroop_test,,
,,,,26.0,2.0,2.0,,,,,,,,,,,,,blau,yellow,g,0.0,g,1.0,1.0894852079218251,,,,,,,,,,2.0,2.0,26.0,7.0,162.83186908403877,,,,,,,,,,,,,,,,,162.81498308398295,164.0060417499626,164.80673525005113,164.79860474995803,,,,,,,,,,,,,,,,,,,,,,,,,,,,,,,,,,,164.8008455419913,164.80673525005113,164.80673525005113,165.90154783404432,g,1.0,1.0894852079218251,,,,,,sub-110,1,stroop_test,,
,,,,27.0,3.0,2.0,,,,,,,,,,,,,gelb,yellow,g,1.0,g,1.0,0.5247946250019595,,,,,,,,,,2.0,3.0,27.0,10.0,165.91222141706385,,,,,,,,,,,,,,,,,165.90319099999033,166.24931729200762,167.04830458399374,167.03308883402497,,,,,,,,,,,,,,,,,,,,,,,,,,,,,,,,,,,167.03897804196458,167.04830458399374,167.04830458399374,167.58418504195288,g,1.0,0.5247946250019595,,,,,,sub-110,1,stroop_test,,
,,,,28.0,4.0,2.0,,,,,,,,,,,,,rot,blue,b,0.0,b,1.0,0.7583294580690563,,,,,,,,,,2.0,4.0,28.0,2.0,167.59482145903166,,,,,,,,,,,,,,,,,167.5848760419758,168.3829012090573,169.18008525006007,169.16641012497712,,,,,,,,,,,,,,,,,,,,,,,,,,,,,,,,,,,169.1724196249852,169.18008525006007,169.18008525006007,169.95047362498008,b,1.0,0.7583294580690563,,,,,,sub-110,1,stroop_test,,
,,,,29.0,5.0,2.0,,,,,,,,,,,,,blau,blue,b,1.0,b,1.0,0.3322607079753652,,,,,,,,,,2.0,5.0,29.0,5.0,169.9603985840222,,,,,,,,,,,,,,,,,169.9511829999974,171.14957700006198,171.94579070899636,171.93319095904008,,,,,,,,,,,,,,,,,,,,,,,,,,,,,,,,,,,171.93809075001627,171.94579070899636,171.94579070899636,172.28383491700515,b,1.0,0.3322607079753652,,,,,,sub-110,1,stroop_test,,
,,,,30.0,6.0,2.0,,,,,,,,,,,,,blau,red,r,0.0,r,1.0,0.4316686240490526,,,,,,,,,,2.0,6.0,30.0,4.0,172.29380708397366,,,,,,,,,,,,,,,,,172.28452200000174,172.63272262504324,173.42522299999837,173.41635337495245,,,,,,,,,,,,,,,,,,,,,,,,,,,,,,,,,,,173.4174021249637,173.42522299999837,173.42522299999837,173.86700354202185,r,1.0,0.4316686240490526,,,,,,sub-110,1,stroop_test,,
,,,,31.0,7.0,2.0,,,,,,,,,,,,,rot,red,r,1.0,r,1.0,0.4159580409759655,,,,,,,,,,2.0,7.0,31.0,1.0,173.87671670899726,,,,,,,,,,,,,,,,,173.86759337503463,173.95566016703378,174.75088504201267,174.73910779203288,,,,,,,,,,,,,,,,,,,,,,,,,,,,,,,,,,,174.74292983405758,174.75088504201267,174.75088504201267,175.17295341705903,r,1.0,0.4159580409759655,,,,,,sub-110,1,stroop_test,,
,,,,32.0,8.0,2.0,,,,,,,,,,,,,rot,red,r,1.0,r,1.0,0.4821988330222666,,,,,,,,,,2.0,8.0,32.0,0.0,175.19885399995837,,,,,,,,,,,,,,,,,175.1737221670337,175.5226251250133,176.31469391705468,176.30608358397149,,,,,,,,,,,,,,,,,,,,,,,,,,,,,,,,,,,176.30669274996035,176.31469391705468,176.31469391705468,176.80125000001863,r,1.0,0.4821988330222666,,,,,,sub-110,1,stroop_test,,
,,,,33.0,9.0,2.0,,,,,,,,,,,,,gelb,blue,b,0.0,b,1.0,0.405483000096865,,,,,,,,,,2.0,9.0,33.0,9.0,176.811036375002,,,,,,,,,,,,,,,,,176.8019475840265,177.1492848340422,177.9452095000306,177.9327129169833,,,,,,,,,,,,,,,,,,,,,,,,,,,,,,,,,,,177.93782679201104,177.9452095000306,177.9452095000306,178.35604008403607,b,1.0,0.405483000096865,,,,,,sub-110,1,stroop_test,,
,,,,34.0,10.0,2.0,,,,,,,,,,,,,rot,yellow,g,0.0,g,1.0,0.4183163329726085,,,,,,,,,,2.0,10.0,34.0,3.0,178.3647526249988,,,,,,,,,,,,,,,,,178.3567154170014,178.45514524995815,179.25054279202595,179.23884937504772,,,,,,,,,,,,,,,,,,,,,,,,,,,,,,,,,,,179.24264441698324,179.25054279202595,179.25054279202595,179.67359612497967,g,1.0,0.4183163329726085,,,,,,sub-110,1,stroop_test,,
,,,,35.0,11.0,2.0,,,,,,,,,,,,,gelb,yellow,g,1.0,g,1.0,0.4980959579115733,,,,,,,,,,2.0,11.0,35.0,11.0,179.6838442500448,,,,,,,,,,,,,,,,,179.67433770897333,180.02249845897313,180.81766920897644,180.80575275002047,,,,,,,,,,,,,,,,,,,,,,,,,,,,,,,,,,,180.80990608397408,180.81766920897644,180.81766920897644,181.31759774999227,g,1.0,0.4980959579115733,,,,,,sub-110,1,stroop_test,,
,,,,36.0,0.0,3.0,,,,,,,,,,,,,blau,red,r,0.0,r,1.0,0.2733160000061616,,,,,,,,,,3.0,0.0,36.0,4.0,181.32844966696572,,,,,,,,,,,,,,,,,181.31870633398648,182.51474683405831,183.31440170900896,183.2997362499591,,,,,,,,,,,,,,,,,,,,,,,,,,,,,,,,,,,183.30658824997957,183.31440170900896,183.31440170900896,183.59051695896775,r,1.0,0.2733160000061616,,,,,,sub-110,1,stroop_test,,
,,,,37.0,1.0,3.0,,,,,,,,,,,,,gelb,yellow,g,1.0,g,1.0,0.3698817080585286,,,,,,,,,,3.0,1.0,37.0,10.0,183.60070091695525,,,,,,,,,,,,,,,,,183.5912108749617,184.78938841703348,185.5845848750323,185.57260733400472,,,,,,,,,,,,,,,,,,,,,,,,,,,,,,,,,,,185.5768014589557,185.5845848750323,185.5845848750323,185.95698508399076,g,1.0,0.3698817080585286,,,,,,sub-110,1,stroop_test,,
,,,,38.0,2.0,3.0,,,,,,,,,,,,,rot,yellow,g,0.0,g,1.0,0.4502823749789968,,,,,,,,,,3.0,2.0,38.0,3.0,185.96754741703623,,,,,,,,,,,,,,,,,185.9579003340332,186.7557151670335,187.56607179204,187.53901950002185,,,,,,,,,,,,,,,,,,,,,,,,,,,,,,,,,,,187.5425829170272,187.56607179204,187.56607179204,188.03138433396816,g,1.0,0.4502823749789968,,,,,,sub-110,1,stroop_test,,
,,,,39.0,3.0,3.0,,,,,,,,,,,,,gelb,yellow,g,1.0,g,1.0,0.5307567080017179,,,,,,,,,,3.0,3.0,39.0,11.0,188.03504316695037,,,,,,,,,,,,,,,,,188.0315902089933,188.82256374997087,189.6175829169806,189.60575662495103,,,,,,,,,,,,,,,,,,,,,,,,,,,,,,,,,,,189.6099155419506,189.6175829169806,189.6175829169806,190.15031675004863,g,1.0,0.5307567080017179,,,,,,sub-110,1,stroop_test,,
,,,,40.0,4.0,3.0,,,,,,,,,,,,,blau,blue,b,1.0,b,1.0,0.5143270409898832,,,,,,,,,,3.0,4.0,40.0,6.0,190.159705500002,,,,,,,,,,,,,,,,,190.1510084590409,190.24908275005876,191.048071083962,191.0331845000619,,,,,,,,,,,,,,,,,,,,,,,,,,,,,,,,,,,191.03847154194955,191.048071083962,191.048071083962,191.56713550002317,b,1.0,0.5143270409898832,,,,,,sub-110,1,stroop_test,,
,,,,41.0,5.0,3.0,,,,,,,,,,,,,gelb,red,r,0.0,r,1.0,0.3939305000239983,,,,,,,,,,3.0,5.0,41.0,8.0,191.5823557920521,,,,,,,,,,,,,,,,,191.5678694170201,191.9159567500465,192.71130895905665,192.6992586669512,,,,,,,,,,,,,,,,,,,,,,,,,,,,,,,,,,,192.7040510419756,192.71130895905665,192.71130895905665,193.1171679169638,r,1.0,0.3939305000239983,,,,,,sub-110,1,stroop_test,,
,,,,42.0,6.0,3.0,,,,,,,,,,,,,gelb,blue,b,0.0,b,1.0,0.5097235830035061,,,,,,,,,,3.0,6.0,42.0,9.0,193.1269601669628,,,,,,,,,,,,,,,,,193.11792904196773,194.315812209039,195.10859375004657,195.09965395904143,,,,,,,,,,,,,,,,,,,,,,,,,,,,,,,,,,,195.10060966701712,195.10859375004657,195.10859375004657,195.6239743339829,b,1.0,0.5097235830035061,,,,,,sub-110,1,stroop_test,,
,,,,43.0,7.0,3.0,,,,,,,,,,,,,blau,blue,b,1.0,b,1.0,0.5176949579035863,,,,,,,,,,3.0,7.0,43.0,5.0,195.633652916993,,,,,,,,,,,,,,,,,195.6245783750201,196.42225420905743,197.2285165420035,197.21583304204975,,,,,,,,,,,,,,,,,,,,,,,,,,,,,,,,,,,197.2211265839869,197.2285165420035,197.2285165420035,197.7509086249629,b,1.0,0.5176949579035863,,,,,,sub-110,1,stroop_test,,
,,,,44.0,8.0,3.0,,,,,,,,,,,,,blau,yellow,g,0.0,g,1.0,0.5918892079498619,,,,,,,,,,3.0,8.0,44.0,7.0,197.7611847090302,,,,,,,,,,,,,,,,,197.7516084590461,198.09920799999963,198.8912428340409,198.8828825840028,,,,,,,,,,,,,,,,,,,,,,,,,,,,,,,,,,,198.8840267920168,198.8912428340409,198.8912428340409,199.4890188750578,g,1.0,0.5918892079498619,,,,,,sub-110,1,stroop_test,,
,,,,45.0,9.0,3.0,,,,,,,,,,,,,rot,blue,b,0.0,b,1.0,0.6229808740317822,,,,,,,,,,3.0,9.0,45.0,2.0,199.499238917022,,,,,,,,,,,,,,,,,199.48974470898972,200.29006095905788,201.0981266669696,201.0827899170108,,,,,,,,,,,,,,,,,,,,,,,,,,,,,,,,,,,201.0899351669941,201.0981266669696,201.0981266669696,201.72370670898815,b,1.0,0.6229808740317822,,,,,,sub-110,1,stroop_test,,
,,,,46.0,10.0,3.0,,,,,,,,,,,,,rot,red,r,1.0,r,1.0,0.5278030829504132,,,,,,,,,,3.0,10.0,46.0,1.0,201.73392112494912,,,,,,,,,,,,,,,,,201.7242492500227,201.82235575001687,202.6209552090149,202.6149813750526,,,,,,,,,,,,,,,,,,,,,,,,,,,,,,,,,,,202.615999083966,202.6209552090149,202.6209552090149,203.1509554999648,r,1.0,0.5278030829504132,,,,,,sub-110,1,stroop_test,,
,,,,47.0,11.0,3.0,,,,,,,,,,,,,rot,red,r,1.0,r,1.0,0.3786396660143509,,,,,,,,,,3.0,11.0,47.0,0.0,203.16125183401164,,,,,,,,,,,,,,,,,203.15210566704627,203.94884983403608,204.7552697090432,204.7484047920443,,,,,,,,,,,,,,,,,,,,,,,,,,,,,,,,,,,204.74947725003585,204.7552697090432,204.7552697090432,205.14032904198396,r,1.0,0.3786396660143509,,,,,,sub-110,1,stroop_test,,
,,,,48.0,0.0,4.0,,,,,,,,,,,,,blau,blue,b,1.0,b,1.0,0.5036939999554306,,,,,,,,,,4.0,0.0,48.0,5.0,205.15054675005376,,,,,,,,,,,,,,,,,205.14091383398045,205.48963104200084,206.30624004197307,206.28183258406352,,,,,,,,,,,,,,,,,,,,,,,,,,,,,,,,,,,206.30224141699728,206.30624004197307,206.30624004197307,206.8176188339712,b,1.0,0.5036939999554306,,,,,,sub-110,1,stroop_test,,
,,,,49.0,1.0,4.0,,,,,,,,,,,,,blau,yellow,g,0.0,g,1.0,0.4945800830610096,,,,,,,,,,4.0,1.0,49.0,7.0,206.82896833401173,,,,,,,,,,,,,,,,,206.8185482090339,208.01555791695137,208.80925720895172,208.79940024996176,,,,,,,,,,,,,,,,,,,,,,,,,,,,,,,,,,,208.8018718339736,208.80925720895172,208.80925720895172,209.3163511250168,g,1.0,0.4945800830610096,,,,,,sub-110,1,stroop_test,,
,,,,50.0,2.0,4.0,,,,,,,,,,,,,gelb,blue,b,0.0,b,1.0,0.4911088749067858,,,,,,,,,,4.0,2.0,50.0,9.0,209.32382291695103,,,,,,,,,,,,,,,,,209.3173131250078,209.65573062503245,210.46158454206304,210.4489845839562,,,,,,,,,,,,,,,,,,,,,,,,,,,,,,,,,,,210.45404570898967,210.46158454206304,210.46158454206304,210.95659495901785,b,1.0,0.4911088749067858,,,,,,sub-110,1,stroop_test,,
,,,,51.0,3.0,4.0,,,,,,,,,,,,,rot,yellow,g,0.0,g,1.0,0.42319108301308,,,,,,,,,,4.0,3.0,51.0,3.0,210.9676223749993,,,,,,,,,,,,,,,,,210.95716237497984,212.1555180839496,212.95061354199424,212.93825579201803,,,,,,,,,,,,,,,,,,,,,,,,,,,,,,,,,,,212.94270612497348,212.95061354199424,212.95061354199424,213.3839500839822,g,1.0,0.42319108301308,,,,,,sub-110,1,stroop_test,,
,,,,52.0,4.0,4.0,,,,,,,,,,,,,rot,blue,b,0.0,b,1.0,0.4364098740043118,,,,,,,,,,4.0,4.0,52.0,2.0,213.39185704197732,,,,,,,,,,,,,,,,,213.38477395905647,214.1823589169653,214.98126020899508,214.96781483397356,,,,,,,,,,,,,,,,,,,,,,,,,,,,,,,,,,,214.9681354589993,214.98126020899508,214.98126020899508,215.42402625002435,b,1.0,0.4364098740043118,,,,,,sub-110,1,stroop_test,,
,,,,53.0,5.0,4.0,,,,,,,,,,,,,gelb,red,r,0.0,r,1.0,0.3584606249351054,,,,,,,,,,4.0,5.0,53.0,8.0,215.4401575840311,,,,,,,,,,,,,,,,,215.4246403339785,215.7725232499652,216.5670634589624,216.555271542049,,,,,,,,,,,,,,,,,,,,,,,,,,,,,,,,,,,216.5592829999514,216.5670634589624,216.5670634589624,216.93416920898017,r,1.0,0.3584606249351054,,,,,,sub-110,1,stroop_test,,
,,,,54.0,6.0,4.0,,,,,,,,,,,,,rot,red,r,1.0,r,1.0,0.4148297080537304,,,,,,,,,,4.0,6.0,54.0,1.0,216.94456016703043,,,,,,,,,,,,,,,,,216.93535395897925,217.2820586250164,218.0787479589926,218.065908959019,,,,,,,,,,,,,,,,,,,,,,,,,,,,,,,,,,,218.07118558406364,218.0787479589926,218.0787479589926,218.5000047920039,r,1.0,0.4148297080537304,,,,,,sub-110,1,stroop_test,,
,,,,55.0,7.0,4.0,,,,,,,,,,,,,gelb,yellow,g,1.0,g,1.0,0.4279729160480201,,,,,,,,,,4.0,7.0,55.0,10.0,218.5094531249488,,,,,,,,,,,,,,,,,218.50057008396837,219.69766616704877,220.49738833401352,220.4824931670446,,,,,,,,,,,,,,,,,,,,,,,,,,,,,,,,,,,220.48957895895,220.49738833401352,220.49738833401352,220.93362150003668,g,1.0,0.4279729160480201,,,,,,sub-110,1,stroop_test,,
,,,,56.0,8.0,4.0,,,,,,,,,,,,,blau,blue,b,1.0,b,1.0,0.4783064168877899,,,,,,,,,,4.0,8.0,56.0,6.0,220.94402479205743,,,,,,,,,,,,,,,,,220.9343087919988,221.0322287089657,221.83001675002745,221.81609991705045,,,,,,,,,,,,,,,,,,,,,,,,,,,,,,,,,,,221.82210474996828,221.83001675002745,221.83001675002745,222.31733629200608,b,1.0,0.4783064168877899,,,,,,sub-110,1,stroop_test,,
,,,,57.0,9.0,4.0,,,,,,,,,,,,,rot,red,r,1.0,r,1.0,0.4855619579320773,,,,,,,,,,4.0,9.0,57.0,0.0,222.3280560419662,,,,,,,,,,,,,,,,,222.31850799999663,223.11407608399168,223.91081637504976,223.89839049999136,,,,,,,,,,,,,,,,,,,,,,,,,,,,,,,,,,,223.90375987498555,223.91081637504976,223.91081637504976,224.4056875000242,r,1.0,0.4855619579320773,,,,,,sub-110,1,stroop_test,,
,,,,58.0,10.0,4.0,,,,,,,,,,,,,blau,red,r,0.0,g,0.0,0.6771712909685448,,,,,,,,,,4.0,10.0,58.0,4.0,224.4159801249625,,,,,,,,,,,,,,,,,224.40891133400143,224.75343670905568,225.55208204197697,225.5382204169873,,,,,,,,,,,,,,,,,,,,,,,,,,,,,,,,,,,225.54465066699777,225.55208204197697,225.55208204197697,226.235959667014,g,0.0,0.6771712909685448,,,,,,sub-110,1,stroop_test,,
,,,,59.0,11.0,4.0,,,,,,,,,,,,,gelb,yellow,g,1.0,g,1.0,0.5187134579755366,,,,,,,,,,4.0,11.0,59.0,11.0,226.2473839590093,,,,,,,,,,,,,,,,,226.23701512499247,227.0321802090621,227.83044516702648,227.8155251250137,,,,,,,,,,,,,,,,,,,,,,,,,,,,,,,,,,,227.8227297089761,227.83044516702648,227.83044516702648,228.3545354170492,g,1.0,0.5187134579755366,,,,,,sub-110,1,stroop_test,,
,,,,60.0,0.0,5.0,,,,,,,,,,,,,rot,red,r,1.0,r,1.0,0.7188625419512391,,,,,,,,,,5.0,0.0,60.0,1.0,228.36472266702916,,,,,,,,,,,,,,,,,228.3551085840445,229.15526208397927,229.95695508399515,229.9391631250037,,,,,,,,,,,,,,,,,,,,,,,,,,,,,,,,,,,229.94568116695157,229.95695508399515,229.95695508399515,230.6860994589515,r,1.0,0.7188625419512391,,,,,,sub-110,1,stroop_test,,
,,,,61.0,1.0,5.0,,,,,,,,,,,,,rot,yellow,g,0.0,g,1.0,0.4922060830285772,,,,,,,,,,5.0,1.0,61.0,3.0,230.69825995899737,,,,,,,,,,,,,,,,,230.6872148340335,231.4820271249628,232.27481154201087,232.2659067090135,,,,,,,,,,,,,,,,,,,,,,,,,,,,,,,,,,,232.26728795899544,232.27481154201087,232.27481154201087,232.77230212499853,g,1.0,0.4922060830285772,,,,,,sub-110,1,stroop_test,,
,,,,62.0,2.0,5.0,,,,,,,,,,,,,gelb,yellow,g,1.0,g,1.0,0.4356883330037817,,,,,,,,,,5.0,2.0,62.0,10.0,232.78272166696843,,,,,,,,,,,,,,,,,232.7729989590589,233.5703475420596,234.36734045902267,234.35551912500523,,,,,,,,,,,,,,,,,,,,,,,,,,,,,,,,,,,234.35953033401165,234.36734045902267,234.36734045902267,234.80693670897745,g,1.0,0.4356883330037817,,,,,,sub-110,1,stroop_test,,
,,,,63.0,3.0,5.0,,,,,,,,,,,,,gelb,yellow,g,1.0,g,1.0,0.3427796250907704,,,,,,,,,,5.0,3.0,63.0,11.0,234.81722837500277,,,,,,,,,,,,,,,,,234.8076887089992,235.6055035419995,236.3971493339632,236.3887971669901,,,,,,,,,,,,,,,,,,,,,,,,,,,,,,,,,,,236.38960287498776,236.3971493339632,236.3971493339632,236.75048337504268,g,1.0,0.3427796250907704,,,,,,sub-110,1,stroop_test,,
,,,,64.0,4.0,5.0,,,,,,,,,,,,,rot,blue,b,0.0,b,1.0,0.4680476250359788,,,,,,,,,,5.0,4.0,64.0,2.0,236.7597339169588,,,,,,,,,,,,,,,,,236.7513097920455,237.9476187500404,238.75072487501893,238.73152129200756,,,,,,,,,,,,,,,,,,,,,,,,,,,,,,,,,,,238.74260154203512,238.75072487501893,238.75072487501893,239.2227184170624,b,1.0,0.4680476250359788,,,,,,sub-110,1,stroop_test,,
,,,,65.0,5.0,5.0,,,,,,,,,,,,,blau,red,r,0.0,r,1.0,0.5905274159740657,,,,,,,,,,5.0,5.0,65.0,4.0,239.23381637502465,,,,,,,,,,,,,,,,,239.2233827089658,239.31971379194877,240.1179783339612,240.1057122090133,,,,,,,,,,,,,,,,,,,,,,,,,,,,,,,,,,,240.11004325002432,240.1179783339612,240.1179783339612,240.71753070899285,r,1.0,0.5905274159740657,,,,,,sub-110,1,stroop_test,,
,,,,66.0,6.0,5.0,,,,,,,,,,,,,gelb,red,r,0.0,r,1.0,0.4998716660775244,,,,,,,,,,5.0,6.0,66.0,8.0,240.7275555840461,,,,,,,,,,,,,,,,,240.718449459062,241.5153944999911,242.3119147500256,242.29899512499105,,,,,,,,,,,,,,,,,,,,,,,,,,,,,,,,,,,242.3044866250129,242.3119147500256,242.3119147500256,242.81604316702575,r,1.0,0.4998716660775244,,,,,,sub-110,1,stroop_test,,
,,,,67.0,7.0,5.0,,,,,,,,,,,,,rot,red,r,1.0,r,1.0,0.3744510000105947,,,,,,,,,,5.0,7.0,67.0,0.0,242.8231339589693,,,,,,,,,,,,,,,,,242.8165699170204,242.90522120904643,243.7024819169892,243.68961454206143,,,,,,,,,,,,,,,,,,,,,,,,,,,,,,,,,,,243.6942843750585,243.7024819169892,243.7024819169892,244.0906653749989,r,1.0,0.3744510000105947,,,,,,sub-110,1,stroop_test,,
,,,,68.0,8.0,5.0,,,,,,,,,,,,,blau,blue,b,1.0,b,1.0,0.624201999977231,,,,,,,,,,5.0,8.0,68.0,6.0,244.09826816699933,,,,,,,,,,,,,,,,,244.0908672090154,245.28797066700645,246.08444350003265,246.07195362495256,,,,,,,,,,,,,,,,,,,,,,,,,,,,,,,,,,,246.07674112496895,246.08444350003265,246.08444350003265,246.7168449589517,b,1.0,0.624201999977231,,,,,,sub-110,1,stroop_test,,
,,,,69.0,9.0,5.0,,,,,,,,,,,,,blau,yellow,g,0.0,g,1.0,0.5039105000905693,,,,,,,,,,5.0,9.0,69.0,7.0,246.73207933397495,,,,,,,,,,,,,,,,,246.71765366697215,246.81543700001205,247.61478058400095,247.6023163750069,,,,,,,,,,,,,,,,,,,,,,,,,,,,,,,,,,,247.6026490000077,247.61478058400095,247.61478058400095,248.1232562089572,g,1.0,0.5039105000905693,,,,,,sub-110,1,stroop_test,,
,,,,70.0,10.0,5.0,,,,,,,,,,,,,blau,blue,b,1.0,b,1.0,0.577494665980339,,,,,,,,,,5.0,10.0,70.0,5.0,248.13372029201128,,,,,,,,,,,,,,,,,248.1237777499482,248.9223228750052,249.7139967089752,249.7052885000594,,,,,,,,,,,,,,,,,,,,,,,,,,,,,,,,,,,249.705978916958,249.7139967089752,249.7139967089752,250.30077225004788,b,1.0,0.577494665980339,,,,,,sub-110,1,stroop_test,,
,,,,71.0,11.0,5.0,,,,,,,,,,,,,gelb,blue,b,0.0,b,1.0,0.9111001670826226,,,,,,,,,,5.0,11.0,71.0,9.0,250.3111952090403,,,,,,,,,,,,,,,,,250.30175358406268,250.6488132920349,251.4464007499628,251.4324614589568,,,,,,,,,,,,,,,,,,,,,,,,,,,,,,,,,,,251.4388294169912,251.4464007499628,251.4464007499628,252.3672756670276,b,1.0,0.9111001670826226,,,,,,sub-110,1,stroop_test,,
,,,,72.0,0.0,6.0,,,,,,,,,,,,,rot,blue,b,0.0,b,1.0,0.4506981660379097,,,,,,,,,,6.0,0.0,72.0,2.0,252.3770190420328,,,,,,,,,,,,,,,,,252.3681819170015,252.46474995894823,253.2624628340127,253.24912658403628,,,,,,,,,,,,,,,,,,,,,,,,,,,,,,,,,,,253.25468962499872,253.2624628340127,253.2624628340127,253.71679041697644,b,1.0,0.4506981660379097,,,,,,sub-110,1,stroop_test,,
,,,,73.0,1.0,6.0,,,,,,,,,,,,,gelb,red,r,0.0,r,1.0,0.6119043329963461,,,,,,,,,,6.0,1.0,73.0,8.0,253.72657995903865,,,,,,,,,,,,,,,,,253.7175721670501,254.06537758396007,254.8645040000556,254.8491655839607,,,,,,,,,,,,,,,,,,,,,,,,,,,,,,,,,,,254.8563357499661,254.8645040000556,254.8645040000556,255.48586899996732,r,1.0,0.6119043329963461,,,,,,sub-110,1,stroop_test,,
,,,,74.0,2.0,6.0,,,,,,,,,,,,,rot,red,r,1.0,r,1.0,0.4075195830082521,,,,,,,,,,6.0,2.0,74.0,0.0,255.49713216698729,,,,,,,,,,,,,,,,,255.4863861670019,256.281702709035,257.07975995901506,257.0658451250056,,,,,,,,,,,,,,,,,,,,,,,,,,,,,,,,,,,257.07181245903485,257.07975995901506,257.07975995901506,257.48992195900064,r,1.0,0.4075195830082521,,,,,,sub-110,1,stroop_test,,
,,,,75.0,3.0,6.0,,,,,,,,,,,,,gelb,yellow,g,1.0,g,1.0,0.4312479579821229,,,,,,,,,,6.0,3.0,75.0,10.0,257.5004086670233,,,,,,,,,,,,,,,,,257.4905884589534,258.6887274590554,259.4849577089772,259.47178525000345,,,,,,,,,,,,,,,,,,,,,,,,,,,,,,,,,,,259.4774916250026,259.4849577089772,259.4849577089772,259.92060229205526,g,1.0,0.4312479579821229,,,,,,sub-110,1,stroop_test,,
,,,,76.0,4.0,6.0,,,,,,,,,,,,,gelb,yellow,g,1.0,g,1.0,0.425637915963307,,,,,,,,,,6.0,4.0,76.0,11.0,259.9333161669784,,,,,,,,,,,,,,,,,259.92111816699617,261.1153107499704,261.90753133397084,261.8988234590506,,,,,,,,,,,,,,,,,,,,,,,,,,,,,,,,,,,261.8999153339537,261.90753133397084,261.90753133397084,262.33861429197714,g,1.0,0.425637915963307,,,,,,sub-110,1,stroop_test,,
,,,,77.0,5.0,6.0,,,,,,,,,,,,,gelb,blue,b,0.0,b,1.0,0.5548408329486847,,,,,,,,,,6.0,5.0,77.0,9.0,262.34900120901875,,,,,,,,,,,,,,,,,262.33941383403726,263.5386006250046,264.33042550005484,264.32222562504467,,,,,,,,,,,,,,,,,,,,,,,,,,,,,,,,,,,264.3230798749719,264.33042550005484,264.33042550005484,264.8903032089584,b,1.0,0.5548408329486847,,,,,,sub-110,1,stroop_test,,
,,,,78.0,6.0,6.0,,,,,,,,,,,,,blau,blue,b,1.0,r,0.0,0.3422099580056965,,,,,,,,,,6.0,6.0,78.0,6.0,264.9012073340127,,,,,,,,,,,,,,,,,264.8913985840045,266.08856208401266,266.88779575005174,266.87183408404235,,,,,,,,,,,,,,,,,,,,,,,,,,,,,,,,,,,266.8800956250634,266.88779575005174,266.88779575005174,267.2330705419881,r,0.0,0.3422099580056965,,,,,,sub-110,1,stroop_test,,
,,,,79.0,7.0,6.0,,,,,,,,,,,,,blau,blue,b,1.0,b,1.0,0.4290219580288976,,,,,,,,,,6.0,7.0,79.0,5.0,267.24302433396224,,,,,,,,,,,,,,,,,267.2338489999529,267.58178491704166,268.3808765000431,268.36749733402394,,,,,,,,,,,,,,,,,,,,,,,,,,,,,,,,,,,268.36780083400663,268.3808765000431,268.3808765000431,268.81680375,b,1.0,0.4290219580288976,,,,,,sub-110,1,stroop_test,,
,,,,80.0,8.0,6.0,,,,,,,,,,,,,rot,yellow,g,0.0,g,1.0,0.4856795000378042,,,,,,,,,,6.0,8.0,80.0,3.0,268.8274712919956,,,,,,,,,,,,,,,,,268.81753620901145,269.6152879589936,270.40816329198424,270.398117417004,,,,,,,,,,,,,,,,,,,,,,,,,,,,,,,,,,,270.4020922089694,270.40816329198424,270.40816329198424,270.9005105840042,g,1.0,0.4856795000378042,,,,,,sub-110,1,stroop_test,,
,,,,81.0,9.0,6.0,,,,,,,,,,,,,rot,red,r,1.0,r,1.0,0.4116994159994647,,,,,,,,,,6.0,9.0,81.0,1.0,270.9107487089932,,,,,,,,,,,,,,,,,270.9015811670106,271.69869862496853,272.4910864169942,272.48217966698576,,,,,,,,,,,,,,,,,,,,,,,,,,,,,,,,,,,272.4832191669848,272.4910864169942,272.4910864169942,272.9062359590316,r,1.0,0.4116994159994647,,,,,,sub-110,1,stroop_test,,
,,,,82.0,10.0,6.0,,,,,,,,,,,,,blau,red,r,0.0,b,0.0,0.6089936660137028,,,,,,,,,,6.0,10.0,82.0,4.0,272.9168682500021,,,,,,,,,,,,,,,,,272.9069479169557,274.1053806249984,274.901837375015,274.8883710419759,,,,,,,,,,,,,,,,,,,,,,,,,,,,,,,,,,,274.8946702500107,274.901837375015,274.901837375015,275.5170227499912,b,0.0,0.6089936660137028,,,,,,sub-110,1,stroop_test,,
,,,,83.0,11.0,6.0,,,,,,,,,,,,,blau,yellow,g,0.0,g,1.0,0.5821180409984663,,,,,,,,,,6.0,11.0,83.0,7.0,275.52710604202,,,,,,,,,,,,,,,,,275.5181868340587,276.7150537919952,277.5055471250089,277.49794491706416,,,,,,,,,,,,,,,,,,,,,,,,,,,,,,,,,,,277.4990519999992,277.5055471250089,277.5055471250089,278.0988097089576,g,1.0,0.5821180409984663,,,,,,sub-110,1,stroop_test,,
,,,,84.0,0.0,7.0,,,,,,,,,,,,,gelb,yellow,g,1.0,g,1.0,0.6216689579887316,,,,,,,,,,7.0,0.0,84.0,10.0,278.10449375002645,,,,,,,,,,,,,,,,,278.09904158406425,278.18841449997853,278.9938766669948,278.9720219169976,,,,,,,,,,,,,,,,,,,,,,,,,,,,,,,,,,,278.98891958396416,278.9938766669948,278.9938766669948,279.6246137500275,g,1.0,0.6216689579887316,,,,,,sub-110,1,stroop_test,,
,,,,85.0,1.0,7.0,,,,,,,,,,,,,rot,red,r,1.0,r,1.0,0.6127722079399973,,,,,,,,,,7.0,1.0,85.0,1.0,279.6304598749848,,,,,,,,,,,,,,,,,279.62512654205784,279.72006304201204,280.5178051670082,280.50518108403776,,,,,,,,,,,,,,,,,,,,,,,,,,,,,,,,,,,280.51001066702884,280.5178051670082,280.5178051670082,281.13222475000657,r,1.0,0.6127722079399973,,,,,,sub-110,1,stroop_test,,
,,,,86.0,2.0,7.0,,,,,,,,,,,,,rot,red,r,1.0,r,1.0,0.3832778329961002,,,,,,,,,,7.0,2.0,86.0,0.0,281.13943229196593,,,,,,,,,,,,,,,,,281.13278295903,281.9228400420397,282.7251537090633,282.7156502089929,,,,,,,,,,,,,,,,,,,,,,,,,,,,,,,,,,,282.7168578749988,282.7251537090633,282.7251537090633,283.1169691249961,r,1.0,0.3832778329961002,,,,,,sub-110,1,stroop_test,,
,,,,87.0,3.0,7.0,,,,,,,,,,,,,blau,blue,b,1.0,b,1.0,0.4617279160302132,,,,,,,,,,7.0,3.0,87.0,6.0,283.1277226670645,,,,,,,,,,,,,,,,,283.1182397500379,283.914112708997,284.71459345903713,284.6988120840397,,,,,,,,,,,,,,,,,,,,,,,,,,,,,,,,,,,284.70663708401844,284.71459345903713,284.71459345903713,285.18272220902145,b,1.0,0.4617279160302132,,,,,,sub-110,1,stroop_test,,
,,,,88.0,4.0,7.0,,,,,,,,,,,,,blau,red,r,0.0,r,1.0,0.6301937910029665,,,,,,,,,,7.0,4.0,88.0,4.0,285.1981482920237,,,,,,,,,,,,,,,,,285.1834762920625,285.28148687502835,286.0731892089825,286.06513541704044,,,,,,,,,,,,,,,,,,,,,,,,,,,,,,,,,,,286.06580508395564,286.0731892089825,286.0731892089825,286.7057884170208,r,1.0,0.6301937910029665,,,,,,sub-110,1,stroop_test,,
,,,,89.0,5.0,7.0,,,,,,,,,,,,,blau,yellow,g,0.0,g,1.0,0.4384587910026312,,,,,,,,,,7.0,5.0,89.0,7.0,286.7316214169841,,,,,,,,,,,,,,,,,286.7063855420565,287.905275875004,288.6966986670159,288.68809666705783,,,,,,,,,,,,,,,,,,,,,,,,,,,,,,,,,,,288.6889429170405,288.6966986670159,288.6966986670159,289.13972083397675,g,1.0,0.4384587910026312,,,,,,sub-110,1,stroop_test,,
,,,,90.0,6.0,7.0,,,,,,,,,,,,,gelb,red,r,0.0,r,1.0,0.7293003749800846,,,,,,,,,,7.0,6.0,90.0,8.0,289.1571764999535,,,,,,,,,,,,,,,,,289.14091554202605,289.4885832089931,290.29292699997313,290.2813701250125,,,,,,,,,,,,,,,,,,,,,,,,,,,,,,,,,,,290.2865502090426,290.29292699997313,290.29292699997313,291.0336584589677,r,1.0,0.7293003749800846,,,,,,sub-110,1,stroop_test,,
,,,,91.0,7.0,7.0,,,,,,,,,,,,,gelb,blue,b,0.0,b,1.0,0.4838654169579968,,,,,,,,,,7.0,7.0,91.0,9.0,291.0436618749518,,,,,,,,,,,,,,,,,291.0347039590124,292.23164870904293,293.0233242920367,293.0155284999637,,,,,,,,,,,,,,,,,,,,,,,,,,,,,,,,,,,293.01626616704743,293.0233242920367,293.0233242920367,293.5232936249813,b,1.0,0.4838654169579968,,,,,,sub-110,1,stroop_test,,
,,,,92.0,8.0,7.0,,,,,,,,,,,,,blau,blue,b,1.0,b,1.0,0.4486242489656433,,,,,,,,,,7.0,8.0,92.0,5.0,293.52990375005174,,,,,,,,,,,,,,,,,293.5235607919749,293.61921808402985,294.4164099170593,294.4040963749867,,,,,,,,,,,,,,,,,,,,,,,,,,,,,,,,,,,294.40874591702595,294.4164099170593,294.4164099170593,294.8735591250006,b,1.0,0.4486242489656433,,,,,,sub-110,1,stroop_test,,
,,,,93.0,9.0,7.0,,,,,,,,,,,,,rot,blue,b,0.0,b,1.0,0.5611679999856278,,,,,,,,,,7.0,9.0,93.0,2.0,294.8802133339923,,,,,,,,,,,,,,,,,294.87378629203886,296.0717453750549,296.87687291705515,296.8650052919984,,,,,,,,,,,,,,,,,,,,,,,,,,,,,,,,,,,296.86919533403125,296.87687291705515,296.87687291705515,297.4498400420416,b,1.0,0.5611679999856278,,,,,,sub-110,1,stroop_test,,
,,,,94.0,10.0,7.0,,,,,,,,,,,,,gelb,yellow,g,1.0,g,1.0,0.3489388329908252,,,,,,,,,,7.0,10.0,94.0,11.0,297.45938741695136,,,,,,,,,,,,,,,,,297.45085762499366,298.6482245840598,299.44699829199817,299.43165354197845,,,,,,,,,,,,,,,,,,,,,,,,,,,,,,,,,,,299.4389672089601,299.44699829199817,299.44699829199817,299.7994413749548,g,1.0,0.3489388329908252,,,,,,sub-110,1,stroop_test,,
,,,,95.0,11.0,7.0,,,,,,,,,,,,,rot,yellow,g,0.0,g,1.0,0.3961460000136867,,,,,,,,,,7.0,11.0,95.0,3.0,299.807495541987,,,,,,,,,,,,,,,,,299.800470208982,300.1481474590255,300.9447813750012,300.9318655419629,,,,,,,,,,,,,,,,,,,,,,,,,,,,,,,,,,,300.9366062920308,300.9447813750012,300.9447813750012,301.3505411250517,g,1.0,0.3961460000136867,,,,,,sub-110,1,stroop_test,,
,,,,96.0,0.0,8.0,,,,,,,,,,,,,rot,blue,b,0.0,b,1.0,0.5524795409291983,,,,,,,,,,8.0,0.0,96.0,2.0,301.3608200839953,,,,,,,,,,,,,,,,,301.3513977919938,301.4483137499774,302.24044149997644,302.2319339590613,,,,,,,,,,,,,,,,,,,,,,,,,,,,,,,,,,,302.2330164590385,302.24044149997644,302.24044149997644,302.79982458404265,b,1.0,0.5524795409291983,,,,,,sub-110,1,stroop_test,,
,,,,97.0,1.0,8.0,,,,,,,,,,,,,gelb,yellow,g,1.0,g,1.0,0.409555249963887,,,,,,,,,,8.0,1.0,97.0,10.0,302.80994116701186,,,,,,,,,,,,,,,,,302.80091554205865,302.8969184589805,303.6951501669828,303.6819808339933,,,,,,,,,,,,,,,,,,,,,,,,,,,,,,,,,,,303.6873021250358,303.6951501669828,303.6951501669828,304.1157733750297,g,1.0,0.409555249963887,,,,,,sub-110,1,stroop_test,,
,,,,98.0,2.0,8.0,,,,,,,,,,,,,blau,red,r,0.0,r,1.0,0.4570787909906357,,,,,,,,,,8.0,2.0,98.0,4.0,304.1254171669716,,,,,,,,,,,,,,,,,304.11636045901105,305.313902584021,306.1136783750262,306.098321708967,,,,,,,,,,,,,,,,,,,,,,,,,,,,,,,,,,,306.1057110419497,306.1136783750262,306.1136783750262,306.5834319590358,r,1.0,0.4570787909906357,,,,,,sub-110,1,stroop_test,,
,,,,99.0,3.0,8.0,,,,,,,,,,,,,gelb,yellow,g,1.0,g,1.0,0.5650802080053836,,,,,,,,,,8.0,3.0,99.0,11.0,306.59370391699485,,,,,,,,,,,,,,,,,306.5847256249981,306.68137808400206,307.4766299589537,307.4652621670393,,,,,,,,,,,,,,,,,,,,,,,,,,,,,,,,,,,307.46931570896413,307.4766299589537,307.4766299589537,308.049285416957,g,1.0,0.5650802080053836,,,,,,sub-110,1,stroop_test,,
,,,,100.0,4.0,8.0,,,,,,,,,,,,,rot,red,r,1.0,g,0.0,0.424964000005275,,,,,,,,,,8.0,4.0,100.0,0.0,308.05894212506246,,,,,,,,,,,,,,,,,308.04999216704164,308.3980631669983,309.19472145906184,309.1816492499784,,,,,,,,,,,,,,,,,,,,,,,,,,,,,,,,,,,309.1868360840017,309.19472145906184,309.19472145906184,309.6224569169572,g,0.0,0.424964000005275,,,,,,sub-110,1,stroop_test,,
,,,,101.0,5.0,8.0,,,,,,,,,,,,,rot,yellow,g,0.0,r,0.0,0.7540476240683347,,,,,,,,,,8.0,5.0,101.0,3.0,309.632857959019,,,,,,,,,,,,,,,,,309.62305037502665,309.97133400000166,310.763506834046,310.7545150839724,,,,,,,,,,,,,,,,,,,,,,,,,,,,,,,,,,,310.7551998340059,310.763506834046,310.763506834046,311.5203563340474,r,0.0,0.7540476240683347,,,,,,sub-110,1,stroop_test,,
,,,,102.0,6.0,8.0,,,,,,,,,,,,,blau,blue,b,1.0,b,1.0,0.5534979579970241,,,,,,,,,,8.0,6.0,102.0,6.0,311.53056037495844,,,,,,,,,,,,,,,,,311.52088087506127,312.7208416670328,313.5209786250489,313.50432854203973,,,,,,,,,,,,,,,,,,,,,,,,,,,,,,,,,,,313.5147623340599,313.5209786250489,313.5209786250489,314.0832302089548,b,1.0,0.5534979579970241,,,,,,sub-110,1,stroop_test,,
,,,,103.0,7.0,8.0,,,,,,,,,,,,,blau,blue,b,1.0,b,1.0,0.439027167041786,,,,,,,,,,8.0,7.0,103.0,5.0,314.09254445903935,,,,,,,,,,,,,,,,,314.08389783406164,314.1814851249801,314.97347908397205,314.96524479205254,,,,,,,,,,,,,,,,,,,,,,,,,,,,,,,,,,,314.9662543750601,314.97347908397205,314.97347908397205,315.4164627919672,b,1.0,0.439027167041786,,,,,,sub-110,1,stroop_test,,
,,,,104.0,8.0,8.0,,,,,,,,,,,,,gelb,red,r,0.0,r,1.0,1.11388091603294,,,,,,,,,,8.0,8.0,104.0,8.0,315.4267778750509,,,,,,,,,,,,,,,,,315.41751275002025,316.2146522500552,317.0155605840264,316.9984747089911,,,,,,,,,,,,,,,,,,,,,,,,,,,,,,,,,,,317.0076995419804,317.0155605840264,317.0155605840264,318.13402962498367,r,1.0,1.11388091603294,,,,,,sub-110,1,stroop_test,,
,,,,105.0,9.0,8.0,,,,,,,,,,,,,gelb,blue,b,0.0,b,1.0,1.0014848329592496,,,,,,,,,,8.0,9.0,105.0,9.0,318.14538091700524,,,,,,,,,,,,,,,,,318.1352101250086,318.2314503750531,319.0188846669625,319.01449229195714,,,,,,,,,,,,,,,,,,,,,,,,,,,,,,,,,,,319.0147743750131,319.0188846669625,319.0188846669625,320.0223363749683,b,1.0,1.0014848329592496,,,,,,sub-110,1,stroop_test,,
,,,,106.0,10.0,8.0,,,,,,,,,,,,,rot,red,r,1.0,r,1.0,0.4775907079456374,,,,,,,,,,8.0,10.0,106.0,1.0,320.0479472919833,,,,,,,,,,,,,,,,,320.022983709001,320.1187461250229,320.9176924589556,320.90491270902567,,,,,,,,,,,,,,,,,,,,,,,,,,,,,,,,,,,320.9096152499551,320.9176924589556,320.9176924589556,321.39918029203545,r,1.0,0.4775907079456374,,,,,,sub-110,1,stroop_test,,
,,,,107.0,11.0,8.0,,,,,,,,,,,,,blau,yellow,g,0.0,g,1.0,0.4972655829042196,,,,,,,,,,8.0,11.0,107.0,7.0,321.4089328340488,,,,,,,,,,,,,,,,,321.39990391698666,321.4979571669828,322.2939475000603,322.28152458404656,,,,,,,,,,,,,,,,,,,,,,,,,,,,,,,,,,,322.2865739170229,322.2939475000603,322.2939475000603,322.79922537505627,g,1.0,0.4972655829042196,,,,,,sub-110,1,stroop_test,,
,,,,108.0,0.0,9.0,,,,,,,,,,,,,rot,red,r,1.0,r,1.0,0.571036915993318,,,,,,,,,,9.0,0.0,108.0,0.0,322.8090835000621,,,,,,,,,,,,,,,,,322.79993233399,323.9980461250525,324.7881750840461,324.78157095902134,,,,,,,,,,,,,,,,,,,,,,,,,,,,,,,,,,,324.78322212502826,324.7881750840461,324.7881750840461,325.3658785839798,r,1.0,0.571036915993318,,,,,,sub-110,1,stroop_test,,
,,,,109.0,1.0,9.0,,,,,,,,,,,,,gelb,yellow,g,1.0,g,1.0,0.5567062490154058,,,,,,,,,,9.0,1.0,109.0,10.0,325.3754427500535,,,,,,,,,,,,,,,,,325.3666295000585,326.56445687497035,327.3614178339485,327.3484243339626,,,,,,,,,,,,,,,,,,,,,,,,,,,,,,,,,,,327.3539532090072,327.3614178339485,327.3614178339485,327.9208314589923,g,1.0,0.5567062490154058,,,,,,sub-110,1,stroop_test,,
,,,,110.0,2.0,9.0,,,,,,,,,,,,,gelb,red,r,0.0,r,1.0,0.6628338750451803,,,,,,,,,,9.0,2.0,110.0,8.0,327.92964183399454,,,,,,,,,,,,,,,,,327.92150920897257,328.0212565000402,328.82323016703594,328.8148359589977,,,,,,,,,,,,,,,,,,,,,,,,,,,,,,,,,,,328.81583704205696,328.82323016703594,328.82323016703594,329.48915870895144,r,1.0,0.6628338750451803,,,,,,sub-110,1,stroop_test,,
,,,,111.0,3.0,9.0,,,,,,,,,,,,,rot,blue,b,0.0,b,1.0,0.542242040974088,,,,,,,,,,9.0,3.0,111.0,2.0,329.4993209170643,,,,,,,,,,,,,,,,,329.4898935420206,329.5881425839616,330.38379424996674,330.3712425000267,,,,,,,,,,,,,,,,,,,,,,,,,,,,,,,,,,,330.3760662500281,330.38379424996674,330.38379424996674,330.9321789999958,b,1.0,0.542242040974088,,,,,,sub-110,1,stroop_test,,
,,,,112.0,4.0,9.0,,,,,,,,,,,,,blau,blue,b,1.0,b,1.0,0.6827645829180256,,,,,,,,,,9.0,4.0,112.0,5.0,330.94005012500565,,,,,,,,,,,,,,,,,330.93305816699285,331.7304259589873,332.53100729198195,332.5148614590289,,,,,,,,,,,,,,,,,,,,,,,,,,,,,,,,,,,332.5227433750406,332.53100729198195,332.53100729198195,333.2157247919822,b,1.0,0.6827645829180256,,,,,,sub-110,1,stroop_test,,
,,,,113.0,5.0,9.0,,,,,,,,,,,,,rot,red,r,1.0,r,1.0,0.3284813329810276,,,,,,,,,,9.0,5.0,113.0,1.0,333.22536395897623,,,,,,,,,,,,,,,,,333.2162870420143,333.5643875839887,334.36242937506177,334.3481600419618,,,,,,,,,,,,,,,,,,,,,,,,,,,,,,,,,,,334.35446395899635,334.36242937506177,334.36242937506177,334.7000902500004,r,1.0,0.3284813329810276,,,,,,sub-110,1,stroop_test,,
,,,,114.0,6.0,9.0,,,,,,,,,,,,,gelb,yellow,g,1.0,g,1.0,0.512088333023712,,,,,,,,,,9.0,6.0,114.0,11.0,334.7110507499892,,,,,,,,,,,,,,,,,334.7010966669768,335.89794516703114,336.69557529198937,336.68157812498976,,,,,,,,,,,,,,,,,,,,,,,,,,,,,,,,,,,336.6876523339888,336.69557529198937,336.69557529198937,337.2158610840561,g,1.0,0.512088333023712,,,,,,sub-110,1,stroop_test,,
,,,,115.0,7.0,9.0,,,,,,,,,,,,,blau,blue,b,1.0,b,1.0,0.5520412500482053,,,,,,,,,,9.0,7.0,115.0,6.0,337.225657959003,,,,,,,,,,,,,,,,,337.2164387500379,337.3144430000102,338.1075587919913,338.09730466699693,,,,,,,,,,,,,,,,,,,,,,,,,,,,,,,,,,,338.1016340840142,338.1075587919913,338.1075587919913,338.66635258402675,b,1.0,0.5520412500482053,,,,,,sub-110,1,stroop_test,,
,,,,116.0,8.0,9.0,,,,,,,,,,,,,blau,yellow,g,0.0,g,1.0,0.610247915959917,,,,,,,,,,9.0,8.0,116.0,7.0,338.6762867500074,,,,,,,,,,,,,,,,,338.6671991250478,339.4647675000597,340.25650741695426,340.2482079999754,,,,,,,,,,,,,,,,,,,,,,,,,,,,,,,,,,,340.2490541250445,340.25650741695426,340.25650741695426,340.8714757920243,g,1.0,0.610247915959917,,,,,,sub-110,1,stroop_test,,
,,,,117.0,9.0,9.0,,,,,,,,,,,,,blau,red,r,0.0,r,1.0,0.4732443749671802,,,,,,,,,,9.0,9.0,117.0,4.0,340.89823558402713,,,,,,,,,,,,,,,,,340.8722331250319,340.97098158404697,341.7643008340383,341.7551678339951,,,,,,,,,,,,,,,,,,,,,,,,,,,,,,,,,,,341.7560127089964,341.7643008340383,341.7643008340383,342.2390870420495,r,1.0,0.4732443749671802,,,,,,sub-110,1,stroop_test,,
,,,,118.0,10.0,9.0,,,,,,,,,,,,,gelb,blue,b,0.0,b,1.0,0.4909525420516729,,,,,,,,,,9.0,10.0,118.0,9.0,342.24924487504177,,,,,,,,,,,,,,,,,342.23959379200824,342.3376717920182,343.13452241697814,343.1208938340424,,,,,,,,,,,,,,,,,,,,,,,,,,,,,,,,,,,343.12729058403056,343.13452241697814,343.13452241697814,343.6327957500471,b,1.0,0.4909525420516729,,,,,,sub-110,1,stroop_test,,
,,,,119.0,11.0,9.0,,,,,,,,,,,,,rot,yellow,g,0.0,r,0.0,0.4577441250439733,,,,,,,,,,9.0,11.0,119.0,3.0,343.64280337502714,,,,,,,,,,,,,,,,,343.6338528339984,343.9811388340313,344.79579849995207,344.7648641669657,,,,,,,,,,,,,,,,,,,,,,,,,,,,,,,,,,,344.7761204170529,344.79579849995207,344.79579849995207,345.2563993340591,r,0.0,0.4577441250439733,,,,,,sub-110,1,stroop_test,,
,,,,,,,,,,,,,,,,,,,,,,,,,,,,,,,,,,,,,,,,,,,,,,,,,,,,,,,,,,,,,,,,,,,,,,,,,,,,,,,,,,,,,,,,,,,,,,,,,,,,,,345.2571773750242,345.27025937498547,350.26413333404344,350.25375516701024,sub-110,1,stroop_test,,
