wordCTK,colorCTK,corrAnsCTK,congruentCTK,thisN,thisTrialN,thisRepN,keyResp_CTK.keys,keyResp_CTK.corr,keyResp_CTK.rt,keyResp_CTK.duration,wordPractice,colorPractice,corrAnsPractice,congruentPractice,respPractice.keys,respPractice.corr,respPractice.rt,respPractice.duration,word,color,corrAns,congruent,keyResp_test_run.keys,keyResp_test_run.corr,keyResp_test_run.rt,keyResp_test_run.duration,trials_CTK.thisRepN,trials_CTK.thisTrialN,trials_CTK.thisN,trials_CTK.thisIndex,trials_practice.thisRepN,trials_practice.thisTrialN,trials_practice.thisN,trials_practice.thisIndex,trials_test.thisRepN,trials_test.thisTrialN,trials_test.thisN,trials_test.thisIndex,thisRow.t,notes,instruction.started,instr_text.started,instr_image.started,instr_resp.started,instruction.stopped,instr_resp.keys,instr_resp.rt,instr_resp.duration,instr_color_to_key.started,instr_ctk.started,resp_ctk.started,instr_color_to_key.stopped,resp_ctk.keys,resp_ctk.rt,resp_ctk.duration,ITI.started,fixcross.started,fixcross.stopped,ITI.stopped,color_to_key_run.started,stimulus_CTK.started,keyResp_CTK.started,color_to_key_run.stopped,trials_CTK.keyResp_CTK.keys,trials_CTK.keyResp_CTK.corr,trials_CTK.keyResp_CTK.rt,trials_CTK.keyResp_CTK.duration,instr_practice.started,instr_practice_text.started,instr_practice_resp.started,instr_practice.stopped,instr_practice_resp.keys,instr_practice_resp.rt,instr_practice_resp.duration,practice_run.started,stimulus_practice.started,respPractice.started,practice_run.stopped,trials_practice.respPractice.keys,trials_practice.respPractice.corr,trials_practice.respPractice.rt,trials_practice.respPractice.duration,feedback.started,textFeedback.started,feedback.stopped,textFeedback.stopped,instr_test.started,instr_test_text.started,instr_test_resp.started,instr_test.stopped,instr_test_resp.keys,instr_test_resp.rt,instr_test_resp.duration,test_run.started,stimulus_test_run.started,keyResp_test_run.started,test_run.stopped,trials_test.keyResp_test_run.keys,trials_test.keyResp_test_run.corr,trials_test.keyResp_test_run.rt,trials_test.keyResp_test_run.duration,goodbye.started,textGoodbye.started,textGoodbye.stopped,goodbye.stopped,participant,session,expName,frameRate,Unnamed: 113
,,,,,,,,,,,,,,,,,,,,,,,,,,,,,,,,,,,,,,,,,0.0160675999941304,0.0860287999967113,0.0860287999967113,0.0860287999967113,72.58157109998865,space,72.48654350003926,,,,,,,,,,,,,,,,,,,,,,,,,,,,,,,,,,,,,,,,,,,,,,,,,,,,,,,,,,,sub-167,1,stroop_test,60.97323032029457,
,,,,,,,,,,,,,,,,,,,,,,,,,,,,,,,,,,,,,,,,,,,,,,,,,72.58161960000871,72.59612349997042,72.59612349997042,86.79934859997593,space,14.194993699959014,,,,,,,,,,,,,,,,,,,,,,,,,,,,,,,,,,,,,,,,,,,,,,,,,,,,sub-167,1,stroop_test,60.97323032029457,
test,red,r,1.0,0.0,0.0,0.0,r,1.0,1.6754126999876462,,,,,,,,,,,,,,,,,,0.0,0.0,0.0,0.0,,,,,,,,,86.82897319999756,,,,,,,,,,,,,,,,,86.82042150001507,87.1633434999967,87.96300099999644,87.9485854000086,87.95252099999925,87.96300099999644,87.96300099999644,89.64918150001904,r,1.0,1.6754126999876462,,,,,,,,,,,,,,,,,,,,,,,,,,,,,,,,,,,,,,,,sub-167,1,stroop_test,60.97323032029457,
test,blue,b,1.0,1.0,1.0,0.0,b,1.0,1.1669725999818183,,,,,,,,,,,,,,,,,,0.0,1.0,1.0,2.0,,,,,,,,,89.66411909996532,,,,,,,,,,,,,,,,,89.64937180001289,90.01295890001347,90.81339979998302,90.79853689996526,90.79889859998366,90.81339979998302,90.81339979998302,91.98228789999848,b,1.0,1.1669725999818183,,,,,,,,,,,,,,,,,,,,,,,,,,,,,,,,,,,,,,,,sub-167,1,stroop_test,60.97323032029457,
test,yellow,g,1.0,2.0,2.0,0.0,g,1.0,4.13996820000466,,,,,,,,,,,,,,,,,,0.0,2.0,2.0,1.0,,,,,,,,,91.9964372999966,,,,,,,,,,,,,,,,,91.98248170001898,92.79604280000784,93.59627169999294,93.581415499968,93.58166610001354,93.59627169999294,93.59627169999294,97.75083079998149,g,1.0,4.13996820000466,,,,,,,,,,,,,,,,,,,,,,,,,,,,,,,,,,,,,,,,sub-167,1,stroop_test,60.97323032029457,
test,red,r,1.0,3.0,0.0,1.0,r,1.0,3.6711521000252105,,,,,,,,,,,,,,,,,,1.0,0.0,3.0,0.0,,,,,,,,,97.76391849998618,,,,,,,,,,,,,,,,,97.75107349996688,97.86390130000656,98.6630358999828,98.64845530001912,98.6486506999936,98.6630358999828,98.6630358999828,102.350008599984,r,1.0,3.6711521000252105,,,,,,,,,,,,,,,,,,,,,,,,,,,,,,,,,,,,,,,,sub-167,1,stroop_test,60.97323032029457,
test,blue,b,1.0,4.0,1.0,1.0,b,1.0,0.726826699974481,,,,,,,,,,,,,,,,,,1.0,1.0,4.0,2.0,,,,,,,,,102.36304069997276,,,,,,,,,,,,,,,,,102.3502144999802,103.1630167000112,103.96292069996709,103.94860240002164,103.94883100001609,103.96292069996709,103.96292069996709,104.69964060001077,b,1.0,0.726826699974481,,,,,,,,,,,,,,,,,,,,,,,,,,,,,,,,,,,,,,,,sub-167,1,stroop_test,60.97323032029457,
test,yellow,g,1.0,5.0,2.0,1.0,g,1.0,0.9314513999852352,,,,,,,,,,,,,,,,,,1.0,2.0,5.0,1.0,,,,,,,,,104.7125597000122,,,,,,,,,,,,,,,,,104.69983469997533,105.51263159996596,106.31855450000148,106.300172200019,106.3004267999786,106.31855450000148,106.31855450000148,107.26654520002194,g,1.0,0.9314513999852352,,,,,,,,,,,,,,,,,,,,,,,,,,,,,,,,,,,,,,,,sub-167,1,stroop_test,60.97323032029457,
test,yellow,g,1.0,6.0,0.0,2.0,g,1.0,0.6689675000379793,,,,,,,,,,,,,,,,,,2.0,0.0,6.0,1.0,,,,,,,,,107.27964979998067,,,,,,,,,,,,,,,,,107.26674380002078,108.48020049999468,109.27973870001732,109.26605639996706,109.26642010000069,109.27973870001732,109.27973870001732,109.96562009997432,g,1.0,0.6689675000379793,,,,,,,,,,,,,,,,,,,,,,,,,,,,,,,,,,,,,,,,sub-167,1,stroop_test,60.97323032029457,
test,blue,b,1.0,7.0,1.0,2.0,b,1.0,0.7840048999642022,,,,,,,,,,,,,,,,,,2.0,1.0,7.0,2.0,,,,,,,,,109.98012889997337,,,,,,,,,,,,,,,,,109.96581620001234,111.18009969999548,111.979424500023,111.9653471999918,111.9656256000162,111.979424500023,111.979424500023,112.76618789997885,b,1.0,0.7840048999642022,,,,,,,,,,,,,,,,,,,,,,,,,,,,,,,,,,,,,,,,sub-167,1,stroop_test,60.97323032029457,
test,red,r,1.0,8.0,2.0,2.0,r,1.0,0.7391292999964207,,,,,,,,,,,,,,,,,,2.0,2.0,8.0,0.0,,,,,,,,,112.7797450000071,,,,,,,,,,,,,,,,,112.76636229996802,113.13008779997472,113.93033629999265,113.91666300001089,113.91687399998771,113.93033629999265,113.93033629999265,114.68408550001914,r,1.0,0.7391292999964207,,,,,,,,,,,,,,,,,,,,,,,,,,,,,,,,,,,,,,,,sub-167,1,stroop_test,60.97323032029457,
test,blue,b,1.0,9.0,0.0,3.0,b,1.0,0.6223344000172801,,,,,,,,,,,,,,,,,,3.0,0.0,9.0,2.0,,,,,,,,,114.69639419997112,,,,,,,,,,,,,,,,,114.68434809998143,115.0464961999678,115.84625669999514,115.83351440000116,115.83397759997752,115.84625669999514,115.84625669999514,116.4827987999888,b,1.0,0.6223344000172801,,,,,,,,,,,,,,,,,,,,,,,,,,,,,,,,,,,,,,,,sub-167,1,stroop_test,60.97323032029457,
test,red,r,1.0,10.0,1.0,3.0,r,1.0,0.558672100014519,,,,,,,,,,,,,,,,,,3.0,1.0,10.0,0.0,,,,,,,,,116.4960978999734,,,,,,,,,,,,,,,,,116.48302460002014,117.69580919999862,118.49699110002256,118.4821121999994,118.4823224999709,118.49699110002256,118.49699110002256,119.0653340999852,r,1.0,0.558672100014519,,,,,,,,,,,,,,,,,,,,,,,,,,,,,,,,,,,,,,,,sub-167,1,stroop_test,60.97323032029457,
test,yellow,g,1.0,11.0,2.0,3.0,g,1.0,0.8595970000023954,,,,,,,,,,,,,,,,,,3.0,2.0,11.0,1.0,,,,,,,,,119.08034929999847,,,,,,,,,,,,,,,,,119.06552930001637,120.27974349999567,121.07982669997727,121.06640589999732,121.06656730000395,121.07982669997727,121.07982669997727,121.94887339998968,g,1.0,0.8595970000023954,,,,,,,,,,,,,,,,,,,,,,,,,,,,,,,,,,,,,,,,sub-167,1,stroop_test,60.97323032029457,
,,,,,,,,,,,,,,,,,,,,,,,,,,,,,,,,,,,,,,,,,,,,,,,,,,,,,,,,,,,,,,,,,,,,121.94897640001729,121.96342210000148,121.96342210000148,127.15088279999328,space,5.177135799953248,,,,,,,,,,,,,,,,,,,,,,,,,,,,,,,,,sub-167,1,stroop_test,60.97323032029457,
,,,,0.0,0.0,0.0,,,,,blau,blue,b,1.0,b,1.0,0.7532050000154413,,,,,,,,,,,,,,0.0,0.0,0.0,5.0,,,,,127.17913920001592,,,,,,,,,,,,,,,,,127.159492900013,127.51290490000974,128.31308170000557,128.29974190000212,,,,,,,,,,,,,,,,128.30404229997657,128.31308170000557,128.31308170000557,129.08172449999256,b,1.0,0.7532050000154413,,129.0867952000117,129.0967806999688,130.08301010000287,,,,,,,,,,,,,,,,,,,,,sub-167,1,stroop_test,60.97323032029457,
,,,,1.0,1.0,0.0,,,,,rot,red,r,1.0,r,1.0,0.4884560999926179,,,,,,,,,,,,,,0.0,1.0,1.0,1.0,,,,,130.096982499992,,,,,,,,,,,,,,,,,130.0832601999864,131.29657860001316,132.09656249999534,132.0824165000231,,,,,,,,,,,,,,,,132.08651120000286,132.09656249999534,132.09656249999534,132.59890500002075,r,1.0,0.4884560999926179,,132.59913489996688,132.61303670000052,133.59910290001426,133.6133624999784,,,,,,,,,,,,,,,,,,,,sub-167,1,stroop_test,60.97323032029457,
,,,,2.0,2.0,0.0,,,,,blau,yellow,g,0.0,b,0.0,0.8744826000183821,,,,,,,,,,,,,,0.0,2.0,2.0,7.0,,,,,133.6133624999784,,,,,,,,,,,,,,,,,133.59931249998044,134.81357019999996,135.61347260000184,135.59918259998085,,,,,,,,,,,,,,,,135.60071480000624,135.61347260000184,135.61347260000184,136.49999450001633,b,0.0,0.8744826000183821,,136.50450189999538,136.51307559997076,137.49844629998552,137.51362440001685,,,,,,,,,,,,,,,,,,,,sub-167,1,stroop_test,60.97323032029457,
,,,,3.0,3.0,0.0,,,,,rot,red,r,1.0,r,1.0,1.002872099983506,,,,,,,,,,,,,,0.0,3.0,3.0,0.0,,,,,137.51362440001685,,,,,,,,,,,,,,,,,137.4986196999671,138.71337309997762,139.51340840000194,139.49871429998893,,,,,,,,,,,,,,,,139.50011939997785,139.51340840000194,139.51340840000194,140.53342130000237,r,1.0,1.002872099983506,,140.53486249997513,140.5464379999903,141.53235569997923,141.54644329997245,,,,,,,,,,,,,,,,,,,,sub-167,1,stroop_test,60.97323032029457,
,,,,4.0,4.0,0.0,,,,,blau,red,r,0.0,r,1.0,1.2855540000018664,,,,,,,,,,,,,,0.0,4.0,4.0,4.0,,,,,141.54644329997245,,,,,,,,,,,,,,,,,141.53256700001657,142.7460943000042,143.54714370000875,143.53270340000745,,,,,,,,,,,,,,,,143.5342023000121,143.54714370000875,143.54714370000875,144.83409979997668,r,1.0,1.2855540000018664,,144.83453819999704,144.84706130000995,145.8475255999947,,,,,,,,,,,,,,,,,,,,,sub-167,1,stroop_test,60.97323032029457,
,,,,5.0,5.0,0.0,,,,,gelb,yellow,g,1.0,g,1.0,1.5088639999739826,,,,,,,,,,,,,,0.0,5.0,5.0,11.0,,,,,145.86335659999168,,,,,,,,,,,,,,,,,145.84771669999463,145.94629260001238,146.74662769999122,146.73168560001068,,,,,,,,,,,,,,,,146.73317079996923,146.74662769999122,146.74662769999122,148.2660462000058,g,1.0,1.5088639999739826,,148.26653449999867,148.2800693999743,149.26636800001145,,,,,,,,,,,,,,,,,,,,,sub-167,1,stroop_test,60.97323032029457,
,,,,6.0,6.0,0.0,,,,,rot,blue,b,0.0,b,1.0,1.087451700004749,,,,,,,,,,,,,,0.0,6.0,6.0,2.0,,,,,149.2796111999778,,,,,,,,,,,,,,,,,149.26667779998388,150.07954479998443,150.88025410001865,150.86512460000813,,,,,,,,,,,,,,,,150.86795430001803,150.88025410001865,150.88025410001865,151.98379859997658,b,1.0,1.087451700004749,,151.98411269998178,151.99612440000055,152.98401580000063,,,,,,,,,,,,,,,,,,,,,sub-167,1,stroop_test,60.97323032029457,
,,,,7.0,7.0,0.0,,,,,rot,yellow,g,0.0,g,1.0,0.9492158000357448,,,,,,,,,,,,,,0.0,7.0,7.0,3.0,,,,,152.996671699977,,,,,,,,,,,,,,,,,152.98427660000743,153.09620259999065,153.89703250001185,153.88318100001197,,,,,,,,,,,,,,,,153.8834843999939,153.89703250001185,153.89703250001185,154.85015770001337,g,1.0,0.9492158000357448,,154.85041670000646,154.86283349996663,155.84942210000008,155.86287369998172,,,,,,,,,,,,,,,,,,,,sub-167,1,stroop_test,60.97323032029457,
,,,,8.0,8.0,0.0,,,,,gelb,yellow,g,1.0,g,1.0,0.7024565000319853,,,,,,,,,,,,,,0.0,8.0,8.0,10.0,,,,,155.86287369998172,,,,,,,,,,,,,,,,,155.84968569997,156.21286359999797,157.01328850002028,156.998943899991,,,,,,,,,,,,,,,,157.000345700013,157.01328850002028,157.01328850002028,157.73299899999984,g,1.0,0.7024565000319853,,157.73349780001445,157.74729199998546,158.7497353000217,,,,,,,,,,,,,,,,,,,,,sub-167,1,stroop_test,60.97323032029457,
,,,,9.0,9.0,0.0,,,,,gelb,red,r,0.0,r,1.0,0.6308699999935925,,,,,,,,,,,,,,0.0,9.0,9.0,8.0,,,,,158.76262900000438,,,,,,,,,,,,,,,,,158.7499673999846,159.0967193999677,159.89630409999518,159.88224569999147,,,,,,,,,,,,,,,,159.8824378999998,159.89630409999518,159.89630409999518,160.53228769998532,r,1.0,0.6308699999935925,,160.53256630001124,160.54587859997991,161.5321717999759,161.54656599997543,,,,,,,,,,,,,,,,,,,,sub-167,1,stroop_test,60.97323032029457,
,,,,10.0,10.0,0.0,,,,,gelb,blue,b,0.0,g,0.0,2.174007299996447,,,,,,,,,,,,,,0.0,10.0,10.0,9.0,,,,,161.54656599997543,,,,,,,,,,,,,,,,,161.53237999998964,161.64700539998012,162.44631279999157,162.43284459999995,,,,,,,,,,,,,,,,162.4330731999944,162.44631279999157,162.44631279999157,164.63264889997663,g,0.0,2.174007299996447,,164.635303499992,164.64657069998793,165.63159399997676,165.64620540000033,,,,,,,,,,,,,,,,,,,,sub-167,1,stroop_test,60.97323032029457,
,,,,11.0,11.0,0.0,,,,,blau,blue,b,1.0,b,1.0,2.008186399994884,,,,,,,,,,,,,,0.0,11.0,11.0,6.0,,,,,165.64620540000033,,,,,,,,,,,,,,,,,165.6317640999914,165.9958881000057,166.79711970000062,166.78361019998556,,,,,,,,,,,,,,,,166.78602940001292,166.79711970000062,166.79711970000062,168.81655459996546,b,1.0,2.008186399994884,,168.81905350001762,168.83011909999186,169.81601279997267,169.83033369999612,,,,,,,,,,,,,,,,,,,,sub-167,1,stroop_test,60.97323032029457,
,,,,12.0,0.0,1.0,,,,,blau,blue,b,1.0,b,1.0,0.6301937999669462,,,,,,,,,,,,,,1.0,0.0,12.0,6.0,,,,,169.83033369999612,,,,,,,,,,,,,,,,,169.81621770001948,171.0295353999827,171.82981530000689,171.81483719998505,,,,,,,,,,,,,,,,171.81521400000202,171.82981530000689,171.82981530000689,172.4669507999788,b,1.0,0.6301937999669462,,172.46735549997538,172.48096710001118,173.46704209997552,173.48019019997446,,,,,,,,,,,,,,,,,,,,sub-167,1,stroop_test,60.97323032029457,
,,,,13.0,1.0,1.0,,,,,gelb,yellow,g,1.0,g,1.0,0.8192883000010625,,,,,,,,,,,,,,1.0,1.0,13.0,11.0,,,,,173.48019019997446,,,,,,,,,,,,,,,,,173.46726629999466,173.82978789997287,174.62993190000998,174.6149230999872,,,,,,,,,,,,,,,,174.61655460001202,174.62993190000998,174.62993190000998,175.46543240000028,g,1.0,0.8192883000010625,,175.46570980001707,175.4798201000085,176.46484460000647,176.4805600999971,,,,,,,,,,,,,,,,,,,,sub-167,1,stroop_test,60.97323032029457,
,,,,14.0,2.0,1.0,,,,,gelb,blue,b,0.0,b,1.0,1.077914499968756,,,,,,,,,,,,,,1.0,2.0,14.0,9.0,,,,,176.4805600999971,,,,,,,,,,,,,,,,,176.46501779998653,176.82936340000015,177.63122999999905,177.6162456999882,,,,,,,,,,,,,,,,177.616537599999,177.63122999999905,177.63122999999905,178.7168840999948,b,1.0,1.077914499968756,,178.717154700018,178.7293376000016,179.71619329997338,179.73004799999762,,,,,,,,,,,,,,,,,,,,sub-167,1,stroop_test,60.97323032029457,
,,,,15.0,3.0,1.0,,,,,blau,blue,b,1.0,b,1.0,0.6906100999913178,,,,,,,,,,,,,,1.0,3.0,15.0,5.0,,,,,179.73004799999762,,,,,,,,,,,,,,,,,179.71635970001807,179.8308265999658,180.63044949999312,180.61614519997968,,,,,,,,,,,,,,,,180.6178598999977,180.63044949999312,180.63044949999312,181.33256040001288,b,1.0,0.6906100999913178,,181.33275860000867,181.34652530000312,182.3323459000094,182.34662490000483,,,,,,,,,,,,,,,,,,,,sub-167,1,stroop_test,60.97323032029457,
,,,,16.0,4.0,1.0,,,,,rot,red,r,1.0,r,1.0,1.5071152999880724,,,,,,,,,,,,,,1.0,4.0,16.0,0.0,,,,,182.34662490000483,,,,,,,,,,,,,,,,,182.3325307000196,182.696403799986,183.49733579996973,183.48246259999,,,,,,,,,,,,,,,,183.48415859998204,183.49733579996973,183.49733579996973,185.0170277999714,r,1.0,1.5071152999880724,,185.0174449000042,185.02968189999228,186.01610190002248,186.0295789000229,,,,,,,,,,,,,,,,,,,,sub-167,1,stroop_test,60.97323032029457,
,,,,17.0,5.0,1.0,,,,,rot,red,r,1.0,r,1.0,0.8475550000439398,,,,,,,,,,,,,,1.0,5.0,17.0,1.0,,,,,186.0295789000229,,,,,,,,,,,,,,,,,186.01637859997567,186.37912779999897,187.18026069999905,187.1662879000069,,,,,,,,,,,,,,,,187.1667321000132,187.18026069999905,187.18026069999905,188.03239649999887,r,1.0,0.8475550000439398,,188.0325717999949,188.04685769998468,189.03211089997785,189.04707570001483,,,,,,,,,,,,,,,,,,,,sub-167,1,stroop_test,60.97323032029457,
,,,,18.0,6.0,1.0,,,,,gelb,yellow,g,1.0,g,1.0,0.7534689999883994,,,,,,,,,,,,,,1.0,6.0,18.0,10.0,,,,,189.04707570001483,,,,,,,,,,,,,,,,,189.03241569997044,190.24636420002207,191.04679509997368,191.0339507000172,,,,,,,,,,,,,,,,191.0356120999786,191.04679509997368,191.04679509997368,191.8158015999943,g,1.0,0.7534689999883994,,191.81604649999645,191.83001899998635,192.8156171999872,192.83020859997487,,,,,,,,,,,,,,,,,,,,sub-167,1,stroop_test,60.97323032029457,
,,,,19.0,7.0,1.0,,,,,rot,yellow,g,0.0,g,1.0,1.1534933000220915,,,,,,,,,,,,,,1.0,7.0,19.0,3.0,,,,,192.83020859997487,,,,,,,,,,,,,,,,,192.81593929999508,194.02986750000852,194.83008919999705,194.81565559998853,,,,,,,,,,,,,,,,194.8181913999724,194.83008919999705,194.83008919999705,195.9997648000135,g,1.0,1.1534933000220915,,195.99999749998096,196.012825599988,196.9983871000004,197.01293739996615,,,,,,,,,,,,,,,,,,,,sub-167,1,stroop_test,60.97323032029457,
,,,,20.0,8.0,1.0,,,,,gelb,red,r,0.0,r,1.0,1.0146289999829603,,,,,,,,,,,,,,1.0,8.0,20.0,8.0,,,,,197.01293739996615,,,,,,,,,,,,,,,,,196.99857890000567,197.1129307000083,197.9133674000041,197.89943390002009,,,,,,,,,,,,,,,,197.90211989998352,197.9133674000041,197.9133674000041,198.93190769996727,r,1.0,1.0146289999829603,,198.93215870001583,198.9461634000181,199.93367020000005,,,,,,,,,,,,,,,,,,,,,sub-167,1,stroop_test,60.97323032029457,
,,,,21.0,9.0,1.0,,,,,blau,red,r,0.0,r,1.0,1.7081394999986514,,,,,,,,,,,,,,1.0,9.0,21.0,4.0,,,,,199.94670089997817,,,,,,,,,,,,,,,,,199.9339112999733,200.29669499996817,201.0965785000008,201.0815596000175,,,,,,,,,,,,,,,,201.082957000006,201.0965785000008,201.0965785000008,202.8156067999662,r,1.0,1.7081394999986514,,202.81587599997877,202.82994259998668,203.81702529999893,,,,,,,,,,,,,,,,,,,,,sub-167,1,stroop_test,60.97323032029457,
,,,,22.0,10.0,1.0,,,,,rot,blue,b,0.0,b,1.0,0.8486161000328138,,,,,,,,,,,,,,1.0,10.0,22.0,2.0,,,,,203.8299272999866,,,,,,,,,,,,,,,,,203.8173110000207,203.92988040001364,204.72961059998488,204.71553009998752,,,,,,,,,,,,,,,,204.7167772999965,204.72961059998488,204.72961059998488,205.58274879999223,b,1.0,0.8486161000328138,,205.5829350000131,205.59679430001412,206.58186909998767,206.5967711000121,,,,,,,,,,,,,,,,,,,,sub-167,1,stroop_test,60.97323032029457,
,,,,23.0,11.0,1.0,,,,,blau,yellow,g,0.0,g,1.0,0.4900988999870606,,,,,,,,,,,,,,1.0,11.0,23.0,7.0,,,,,206.5967711000121,,,,,,,,,,,,,,,,,206.58204489998752,206.6968937999918,207.49621909996492,207.48268299998017,,,,,,,,,,,,,,,,207.48408899997597,207.49621909996492,207.49621909996492,208.00004620000252,g,1.0,0.4900988999870606,,208.00043870002264,208.0134599999874,208.99882969999453,209.01336300000548,,,,,,,,,,,,,,,,,,,,sub-167,1,stroop_test,60.97323032029457,
,,,,,,,,,,,,,,,,,,,,,,,,,,,,,,,,,,,,,,,,,,,,,,,,,,,,,,,,,,,,,,,,,,,,,,,,,,,,,,,,,,,,,,,208.99895869998727,209.01336300000548,209.01336300000548,217.9866352999816,space,8.969445599999744,,,,,,,,,,,,,,sub-167,1,stroop_test,60.97323032029457,
,,,,0.0,0.0,0.0,,,,,,,,,,,,,gelb,yellow,g,1.0,g,1.0,0.6740119999740273,,,,,,,,,,0.0,0.0,0.0,10.0,218.01211860001783,,,,,,,,,,,,,,,,,217.9930214000051,218.3471626999672,219.14711249998072,219.1322174000088,,,,,,,,,,,,,,,,,,,,,,,,,,,,,,,,,,,219.1337196999812,219.14711249998072,219.14711249998072,219.83312029996887,g,1.0,0.6740119999740273,,,,,,sub-167,1,stroop_test,60.97323032029457,
,,,,1.0,1.0,0.0,,,,,,,,,,,,,rot,red,r,1.0,r,1.0,0.669668999966234,,,,,,,,,,0.0,1.0,1.0,0.0,219.84650869999317,,,,,,,,,,,,,,,,,219.8333439999842,219.94753230002243,220.74685499997577,220.7321170999785,,,,,,,,,,,,,,,,,,,,,,,,,,,,,,,,,,,220.733596200007,220.74685499997577,220.74685499997577,221.41835619998164,r,1.0,0.669668999966234,,,,,,sub-167,1,stroop_test,60.97323032029457,
,,,,2.0,2.0,0.0,,,,,,,,,,,,,rot,red,r,1.0,r,1.0,0.643415600003209,,,,,,,,,,0.0,2.0,2.0,1.0,221.43022520001975,,,,,,,,,,,,,,,,,221.4185647999984,221.78052420000316,222.57968129997607,222.56625819997865,,,,,,,,,,,,,,,,,,,,,,,,,,,,,,,,,,,222.56646579998775,222.57968129997607,222.57968129997607,223.2330906999996,r,1.0,0.643415600003209,,,,,,sub-167,1,stroop_test,60.97323032029457,
,,,,3.0,3.0,0.0,,,,,,,,,,,,,gelb,blue,b,0.0,b,1.0,1.726236800022889,,,,,,,,,,0.0,3.0,3.0,9.0,223.24611200002252,,,,,,,,,,,,,,,,,223.23332190001383,224.0456969999941,224.8458382000099,224.83301659999412,,,,,,,,,,,,,,,,,,,,,,,,,,,,,,,,,,,224.8344060999807,224.8458382000099,224.8458382000099,226.58339169999817,b,1.0,1.726236800022889,,,,,,sub-167,1,stroop_test,60.97323032029457,
,,,,4.0,4.0,0.0,,,,,,,,,,,,,gelb,yellow,g,1.0,g,1.0,0.7877521000336856,,,,,,,,,,0.0,4.0,4.0,11.0,226.59626209997805,,,,,,,,,,,,,,,,,226.5836433999939,227.79723349999404,228.5973274999997,228.58260399999563,,,,,,,,,,,,,,,,,,,,,,,,,,,,,,,,,,,228.58287679997736,228.5973274999997,228.5973274999997,229.39948369999183,g,1.0,0.7877521000336856,,,,,,sub-167,1,stroop_test,60.97323032029457,
,,,,5.0,5.0,0.0,,,,,,,,,,,,,blau,yellow,g,0.0,g,1.0,1.0386122000054456,,,,,,,,,,0.0,5.0,5.0,7.0,229.41348360001572,,,,,,,,,,,,,,,,,229.39982410002267,229.51356439996744,230.31359659996812,230.2995841000229,,,,,,,,,,,,,,,,,,,,,,,,,,,,,,,,,,,230.30091910000192,230.31359659996812,230.31359659996812,231.3655331999762,g,1.0,1.0386122000054456,,,,,,sub-167,1,stroop_test,60.97323032029457,
,,,,6.0,6.0,0.0,,,,,,,,,,,,,rot,yellow,g,0.0,g,1.0,1.1821182999992743,,,,,,,,,,0.0,6.0,6.0,3.0,231.37994820001768,,,,,,,,,,,,,,,,,231.36576750001404,231.71310539997648,232.51371470000595,232.49924520001517,,,,,,,,,,,,,,,,,,,,,,,,,,,,,,,,,,,232.50089859997388,232.51371470000595,232.51371470000595,233.70041489996947,g,1.0,1.1821182999992743,,,,,,sub-167,1,stroop_test,60.97323032029457,
,,,,7.0,7.0,0.0,,,,,,,,,,,,,rot,blue,b,0.0,b,1.0,0.6850835999939591,,,,,,,,,,0.0,7.0,7.0,2.0,233.7137619999703,,,,,,,,,,,,,,,,,233.70061050000368,234.513627599983,235.31302329996836,235.2990109999664,,,,,,,,,,,,,,,,,,,,,,,,,,,,,,,,,,,235.2992578999838,235.31302329996836,235.31302329996836,235.9998079999932,b,1.0,0.6850835999939591,,,,,,sub-167,1,stroop_test,60.97323032029457,
,,,,8.0,8.0,0.0,,,,,,,,,,,,,blau,red,r,0.0,r,1.0,0.6550964000052772,,,,,,,,,,0.0,8.0,8.0,4.0,236.01317920000287,,,,,,,,,,,,,,,,,236.00000529998212,236.1129555000225,236.91303960001096,236.89803819998636,,,,,,,,,,,,,,,,,,,,,,,,,,,,,,,,,,,236.9008808999788,236.91303960001096,236.91303960001096,237.58194419997744,r,1.0,0.6550964000052772,,,,,,sub-167,1,stroop_test,60.97323032029457,
,,,,9.0,9.0,0.0,,,,,,,,,,,,,blau,blue,b,1.0,b,1.0,0.5533750000176951,,,,,,,,,,0.0,9.0,9.0,5.0,237.59620339999677,,,,,,,,,,,,,,,,,237.58215989999007,237.9464733999921,238.7474080999964,238.73259229998803,,,,,,,,,,,,,,,,,,,,,,,,,,,,,,,,,,,238.7329293999937,238.7474080999964,238.7474080999964,239.31654889998023,b,1.0,0.5533750000176951,,,,,,sub-167,1,stroop_test,60.97323032029457,
,,,,10.0,10.0,0.0,,,,,,,,,,,,,gelb,red,r,0.0,r,1.0,0.5485980999656022,,,,,,,,,,0.0,10.0,10.0,8.0,239.33003939996703,,,,,,,,,,,,,,,,,239.31686670001363,240.1299905999913,240.9294931999757,240.91571819997623,,,,,,,,,,,,,,,,,,,,,,,,,,,,,,,,,,,240.91716259997335,240.9294931999757,240.9294931999757,241.48378710000543,r,1.0,0.5485980999656022,,,,,,sub-167,1,stroop_test,60.97323032029457,
,,,,11.0,11.0,0.0,,,,,,,,,,,,,blau,blue,b,1.0,b,1.0,0.5282439999864437,,,,,,,,,,0.0,11.0,11.0,6.0,241.49636609997836,,,,,,,,,,,,,,,,,241.48398929997347,241.8460455000168,242.6464678000193,242.63085269997828,,,,,,,,,,,,,,,,,,,,,,,,,,,,,,,,,,,242.63221810001411,242.6464678000193,242.6464678000193,243.182390699978,b,1.0,0.5282439999864437,,,,,,sub-167,1,stroop_test,60.97323032029457,
,,,,12.0,0.0,1.0,,,,,,,,,,,,,blau,blue,b,1.0,r,0.0,0.6723073000321165,,,,,,,,,,1.0,0.0,12.0,6.0,243.19602179998765,,,,,,,,,,,,,,,,,243.18261020001955,243.9962297999882,244.79638610000256,244.78424209996592,,,,,,,,,,,,,,,,,,,,,,,,,,,,,,,,,,,244.7844369999948,244.79638610000256,244.79638610000256,245.48301909997824,r,0.0,0.6723073000321165,,,,,,sub-167,1,stroop_test,60.97323032029457,
,,,,13.0,1.0,1.0,,,,,,,,,,,,,rot,blue,b,0.0,b,1.0,0.7430322999716736,,,,,,,,,,1.0,1.0,13.0,2.0,245.49610300001223,,,,,,,,,,,,,,,,,245.483258399996,245.5962857999839,246.396173199988,246.38269200001375,,,,,,,,,,,,,,,,,,,,,,,,,,,,,,,,,,,246.3849756999989,246.396173199988,246.396173199988,247.1500773999724,b,1.0,0.7430322999716736,,,,,,sub-167,1,stroop_test,60.97323032029457,
,,,,14.0,2.0,1.0,,,,,,,,,,,,,gelb,red,r,0.0,r,1.0,1.256004299968481,,,,,,,,,,1.0,2.0,14.0,8.0,247.16270310000985,,,,,,,,,,,,,,,,,247.1503188000061,247.2633498000214,248.06317330000456,248.0491333999671,,,,,,,,,,,,,,,,,,,,,,,,,,,,,,,,,,,248.05056689999765,248.06317330000456,248.06317330000456,249.33365829999093,r,1.0,1.256004299968481,,,,,,sub-167,1,stroop_test,60.97323032029457,
,,,,15.0,3.0,1.0,,,,,,,,,,,,,rot,yellow,g,0.0,g,1.0,0.5502859000116587,,,,,,,,,,1.0,3.0,15.0,3.0,249.3475775999832,,,,,,,,,,,,,,,,,249.33385900000576,250.1462182999821,250.9462543000118,250.932719799981,,,,,,,,,,,,,,,,,,,,,,,,,,,,,,,,,,,250.93521119997604,250.9462543000118,250.9462543000118,251.49870940000983,g,1.0,0.5502859000116587,,,,,,sub-167,1,stroop_test,60.97323032029457,
,,,,16.0,4.0,1.0,,,,,,,,,,,,,gelb,blue,b,0.0,b,1.0,0.3811957000289112,,,,,,,,,,1.0,4.0,16.0,9.0,251.5132133999723,,,,,,,,,,,,,,,,,251.4989117999794,252.3130428000004,253.1134440000169,253.09867679997117,,,,,,,,,,,,,,,,,,,,,,,,,,,,,,,,,,,253.1000672999653,253.1134440000169,253.1134440000169,253.49974319996545,b,1.0,0.3811957000289112,,,,,,sub-167,1,stroop_test,60.97323032029457,
,,,,17.0,5.0,1.0,,,,,,,,,,,,,blau,yellow,g,0.0,g,1.0,0.4545611999928951,,,,,,,,,,1.0,5.0,17.0,7.0,253.51317699998617,,,,,,,,,,,,,,,,,253.4999230999965,253.8638157999958,254.66338059998816,254.648135299969,,,,,,,,,,,,,,,,,,,,,,,,,,,,,,,,,,,254.6496374999988,254.66338059998816,254.66338059998816,255.13360090000788,g,1.0,0.4545611999928951,,,,,,sub-167,1,stroop_test,60.97323032029457,
,,,,18.0,6.0,1.0,,,,,,,,,,,,,gelb,yellow,g,1.0,g,1.0,0.456618600001093,,,,,,,,,,1.0,6.0,18.0,11.0,255.14629259996585,,,,,,,,,,,,,,,,,255.1337961999816,255.4966671000002,256.2963405000046,256.2827932999935,,,,,,,,,,,,,,,,,,,,,,,,,,,,,,,,,,,256.2850694999797,256.2963405000046,256.2963405000046,256.766718400002,g,1.0,0.456618600001093,,,,,,sub-167,1,stroop_test,60.97323032029457,
,,,,19.0,7.0,1.0,,,,,,,,,,,,,gelb,yellow,g,1.0,g,1.0,0.4114095999975689,,,,,,,,,,1.0,7.0,19.0,10.0,256.77980979997665,,,,,,,,,,,,,,,,,256.766945099982,257.1305976000149,257.9298931999947,257.91576920001535,,,,,,,,,,,,,,,,,,,,,,,,,,,,,,,,,,,257.9159660000005,257.9298931999947,257.9298931999947,258.35191159998067,g,1.0,0.4114095999975689,,,,,,sub-167,1,stroop_test,60.97323032029457,
,,,,20.0,8.0,1.0,,,,,,,,,,,,,rot,red,r,1.0,r,1.0,0.4026764999725856,,,,,,,,,,1.0,8.0,20.0,0.0,258.36343999998644,,,,,,,,,,,,,,,,,258.3521259999834,259.16284950001864,259.9629493000102,259.94967599998927,,,,,,,,,,,,,,,,,,,,,,,,,,,,,,,,,,,259.9513334999792,259.9629493000102,259.9629493000102,260.3682674000156,r,1.0,0.4026764999725856,,,,,,sub-167,1,stroop_test,60.97323032029457,
,,,,21.0,9.0,1.0,,,,,,,,,,,,,rot,red,r,1.0,g,0.0,0.4193866000277921,,,,,,,,,,1.0,9.0,21.0,1.0,260.38071459997445,,,,,,,,,,,,,,,,,260.36853639996843,261.1794051000033,261.97948420001194,261.96539189998293,,,,,,,,,,,,,,,,,,,,,,,,,,,,,,,,,,,261.96583820000524,261.97948420001194,261.97948420001194,262.4177987999865,g,0.0,0.4193866000277921,,,,,,sub-167,1,stroop_test,60.97323032029457,
,,,,22.0,10.0,1.0,,,,,,,,,,,,,blau,red,r,0.0,r,1.0,0.815893400053028,,,,,,,,,,1.0,10.0,22.0,4.0,262.43037640000694,,,,,,,,,,,,,,,,,262.4179818999837,262.780739800015,263.5804049000144,263.56556109996745,,,,,,,,,,,,,,,,,,,,,,,,,,,,,,,,,,,263.566865300003,263.5804049000144,263.5804049000144,264.39936719997786,r,1.0,0.815893400053028,,,,,,sub-167,1,stroop_test,60.97323032029457,
,,,,23.0,11.0,1.0,,,,,,,,,,,,,blau,blue,b,1.0,b,1.0,0.7059334999648854,,,,,,,,,,1.0,11.0,23.0,5.0,264.41311570000835,,,,,,,,,,,,,,,,,264.3995772000053,264.51321040000767,265.312929000007,265.2985745000188,,,,,,,,,,,,,,,,,,,,,,,,,,,,,,,,,,,265.2987704999978,265.312929000007,265.312929000007,266.0342379999929,b,1.0,0.7059334999648854,,,,,,sub-167,1,stroop_test,60.97323032029457,
,,,,24.0,0.0,2.0,,,,,,,,,,,,,gelb,yellow,g,1.0,g,1.0,0.6453456000308506,,,,,,,,,,2.0,0.0,24.0,10.0,266.04689399997005,,,,,,,,,,,,,,,,,266.03454740002053,267.2460846999893,268.04764479998266,268.0339123000158,,,,,,,,,,,,,,,,,,,,,,,,,,,,,,,,,,,268.03560469998047,268.04764479998266,268.04764479998266,268.6995028000092,g,1.0,0.6453456000308506,,,,,,sub-167,1,stroop_test,60.97323032029457,
,,,,25.0,1.0,2.0,,,,,,,,,,,,,rot,blue,b,0.0,b,1.0,0.644642700033728,,,,,,,,,,2.0,1.0,25.0,2.0,268.7132257000194,,,,,,,,,,,,,,,,,268.6997139999876,269.9131308000069,270.71343850000994,270.6984851000016,,,,,,,,,,,,,,,,,,,,,,,,,,,,,,,,,,,270.69993419997627,270.71343850000994,270.71343850000994,271.3656840000185,b,1.0,0.644642700033728,,,,,,sub-167,1,stroop_test,60.97323032029457,
,,,,26.0,2.0,2.0,,,,,,,,,,,,,rot,red,r,1.0,r,1.0,0.7450187999638729,,,,,,,,,,2.0,2.0,26.0,1.0,271.37999950000085,,,,,,,,,,,,,,,,,271.365877299977,272.5797172000166,273.37955959996907,273.3663900999818,,,,,,,,,,,,,,,,,,,,,,,,,,,,,,,,,,,273.3667119999882,273.37955959996907,273.37955959996907,274.1320538999862,r,1.0,0.7450187999638729,,,,,,sub-167,1,stroop_test,60.97323032029457,
,,,,27.0,3.0,2.0,,,,,,,,,,,,,blau,blue,b,1.0,b,1.0,0.5667860000394285,,,,,,,,,,2.0,3.0,27.0,5.0,274.14642649999587,,,,,,,,,,,,,,,,,274.1322453999892,274.23007689998485,275.0295663999859,275.01552449999144,,,,,,,,,,,,,,,,,,,,,,,,,,,,,,,,,,,275.0170100000105,275.0295663999859,275.0295663999859,275.5986966000055,b,1.0,0.5667860000394285,,,,,,sub-167,1,stroop_test,60.97323032029457,
,,,,28.0,4.0,2.0,,,,,,,,,,,,,gelb,red,r,0.0,r,1.0,0.6169329999829642,,,,,,,,,,2.0,4.0,28.0,8.0,275.6137068999815,,,,,,,,,,,,,,,,,275.5988801000058,275.9629749999731,276.76310669997474,276.74844539997866,,,,,,,,,,,,,,,,,,,,,,,,,,,,,,,,,,,276.7497027000063,276.76310669997474,276.76310669997474,277.3828715999844,r,1.0,0.6169329999829642,,,,,,sub-167,1,stroop_test,60.97323032029457,
,,,,29.0,5.0,2.0,,,,,,,,,,,,,rot,red,r,1.0,r,1.0,0.6833493000012822,,,,,,,,,,2.0,5.0,29.0,0.0,277.3959705000161,,,,,,,,,,,,,,,,,277.3831325999927,277.7465544000152,278.54669320001267,278.5316297999816,,,,,,,,,,,,,,,,,,,,,,,,,,,,,,,,,,,278.5329410000122,278.54669320001267,278.54669320001267,279.2325597999734,r,1.0,0.6833493000012822,,,,,,sub-167,1,stroop_test,60.97323032029457,
,,,,30.0,6.0,2.0,,,,,,,,,,,,,gelb,blue,b,0.0,b,1.0,0.3945260000182315,,,,,,,,,,2.0,6.0,30.0,9.0,279.2466046999907,,,,,,,,,,,,,,,,,279.23275079997256,280.44640129996696,281.24691769998753,281.2322437000112,,,,,,,,,,,,,,,,,,,,,,,,,,,,,,,,,,,281.2336871000007,281.24691769998753,281.24691769998753,281.6494963999721,b,1.0,0.3945260000182315,,,,,,sub-167,1,stroop_test,60.97323032029457,
,,,,31.0,7.0,2.0,,,,,,,,,,,,,rot,yellow,g,0.0,g,1.0,0.4714431000174954,,,,,,,,,,2.0,7.0,31.0,3.0,281.6629472000059,,,,,,,,,,,,,,,,,281.64974189997884,282.4640165999881,283.280429299979,283.26535270002205,,,,,,,,,,,,,,,,,,,,,,,,,,,,,,,,,,,283.2669709000038,283.280429299979,283.280429299979,283.76695810002275,g,1.0,0.4714431000174954,,,,,,sub-167,1,stroop_test,60.97323032029457,
,,,,32.0,8.0,2.0,,,,,,,,,,,,,gelb,yellow,g,1.0,g,1.0,0.6045397999696434,,,,,,,,,,2.0,8.0,32.0,11.0,283.7790789999999,,,,,,,,,,,,,,,,,283.7671634000144,284.58013409998966,285.3800081000081,285.366666899994,,,,,,,,,,,,,,,,,,,,,,,,,,,,,,,,,,,285.3684491000022,285.3800081000081,285.3800081000081,285.9989162000129,g,1.0,0.6045397999696434,,,,,,sub-167,1,stroop_test,60.97323032029457,
,,,,33.0,9.0,2.0,,,,,,,,,,,,,blau,blue,b,1.0,b,1.0,0.8443703000084497,,,,,,,,,,2.0,9.0,33.0,6.0,286.01417500001844,,,,,,,,,,,,,,,,,285.99909719999414,286.11364799999865,286.9133523000055,286.898082699976,,,,,,,,,,,,,,,,,,,,,,,,,,,,,,,,,,,286.899422699993,286.9133523000055,286.9133523000055,287.76625250000507,b,1.0,0.8443703000084497,,,,,,sub-167,1,stroop_test,60.97323032029457,
,,,,34.0,10.0,2.0,,,,,,,,,,,,,blau,red,r,0.0,r,1.0,0.5399940000497736,,,,,,,,,,2.0,10.0,34.0,4.0,287.7793817999773,,,,,,,,,,,,,,,,,287.76658759999555,288.9797518000123,289.78405810002005,289.7667033000034,,,,,,,,,,,,,,,,,,,,,,,,,,,,,,,,,,,289.7671072999947,289.78405810002005,289.78405810002005,290.3332159999991,r,1.0,0.5399940000497736,,,,,,sub-167,1,stroop_test,60.97323032029457,
,,,,35.0,11.0,2.0,,,,,,,,,,,,,blau,yellow,g,0.0,g,1.0,0.7968476999667473,,,,,,,,,,2.0,11.0,35.0,7.0,290.3462732000044,,,,,,,,,,,,,,,,,290.333533499972,291.5462827999727,292.3463213000214,292.33271489996696,,,,,,,,,,,,,,,,,,,,,,,,,,,,,,,,,,,292.3329510000185,292.3463213000214,292.3463213000214,293.14848129998427,g,1.0,0.7968476999667473,,,,,,sub-167,1,stroop_test,60.97323032029457,
,,,,36.0,0.0,3.0,,,,,,,,,,,,,rot,red,r,1.0,r,1.0,0.5474847999867052,,,,,,,,,,3.0,0.0,36.0,0.0,293.1634664000012,,,,,,,,,,,,,,,,,293.1486693000188,293.263706800004,294.06305669998983,294.04999520001,,,,,,,,,,,,,,,,,,,,,,,,,,,,,,,,,,,294.052304300014,294.06305669998983,294.06305669998983,294.6174819999724,r,1.0,0.5474847999867052,,,,,,sub-167,1,stroop_test,60.97323032029457,
,,,,37.0,1.0,3.0,,,,,,,,,,,,,rot,blue,b,0.0,b,1.0,0.5477756000473164,,,,,,,,,,3.0,1.0,37.0,2.0,294.62970449996646,,,,,,,,,,,,,,,,,294.6177648999728,294.9797414999921,295.7803910999792,295.767064500018,,,,,,,,,,,,,,,,,,,,,,,,,,,,,,,,,,,295.76743910001824,295.7803910999792,295.7803910999792,296.3329814000172,b,1.0,0.5477756000473164,,,,,,sub-167,1,stroop_test,60.97323032029457,
,,,,38.0,2.0,3.0,,,,,,,,,,,,,gelb,yellow,g,1.0,g,1.0,0.4146958999917842,,,,,,,,,,3.0,2.0,38.0,11.0,296.3465320999967,,,,,,,,,,,,,,,,,296.3334398000152,296.6970201000222,297.4966466000187,297.4831528000068,,,,,,,,,,,,,,,,,,,,,,,,,,,,,,,,,,,297.4844278999953,297.4966466000187,297.4966466000187,297.91562380001415,g,1.0,0.4146958999917842,,,,,,sub-167,1,stroop_test,60.97323032029457,
,,,,39.0,3.0,3.0,,,,,,,,,,,,,blau,blue,b,1.0,b,1.0,0.6176237000036053,,,,,,,,,,3.0,3.0,39.0,5.0,297.93030080001336,,,,,,,,,,,,,,,,,297.91583670000546,298.2797225000104,299.08080479997443,299.0657170999912,,,,,,,,,,,,,,,,,,,,,,,,,,,,,,,,,,,299.0668970000115,299.08080479997443,299.08080479997443,299.71511579997605,b,1.0,0.6176237000036053,,,,,,sub-167,1,stroop_test,60.97323032029457,
,,,,40.0,4.0,3.0,,,,,,,,,,,,,gelb,yellow,g,1.0,g,1.0,0.3203656999976374,,,,,,,,,,3.0,4.0,40.0,10.0,299.7293677999987,,,,,,,,,,,,,,,,,299.7153051000205,300.5303217999753,301.32955849997234,301.3155211000121,,,,,,,,,,,,,,,,,,,,,,,,,,,,,,,,,,,301.3180192,301.32955849997234,301.32955849997234,301.66578699997626,g,1.0,0.3203656999976374,,,,,,sub-167,1,stroop_test,60.97323032029457,
,,,,41.0,5.0,3.0,,,,,,,,,,,,,gelb,blue,b,0.0,b,1.0,0.4732112999772653,,,,,,,,,,3.0,5.0,41.0,9.0,301.6800237999996,,,,,,,,,,,,,,,,,301.6659998999676,302.4802864000085,303.2800916999695,303.2663466000231,,,,,,,,,,,,,,,,,,,,,,,,,,,,,,,,,,,303.2666945999954,303.2800916999695,303.2800916999695,303.7663515000022,b,1.0,0.4732112999772653,,,,,,sub-167,1,stroop_test,60.97323032029457,
,,,,42.0,6.0,3.0,,,,,,,,,,,,,blau,blue,b,1.0,b,1.0,0.5752315999707207,,,,,,,,,,3.0,6.0,42.0,6.0,303.77969699999085,,,,,,,,,,,,,,,,,303.7665801999974,304.5799009000184,305.37972269998863,305.3649145999807,,,,,,,,,,,,,,,,,,,,,,,,,,,,,,,,,,,305.36699050001334,305.37972269998863,305.37972269998863,305.968325099966,b,1.0,0.5752315999707207,,,,,,sub-167,1,stroop_test,60.97323032029457,
,,,,43.0,7.0,3.0,,,,,,,,,,,,,blau,yellow,g,0.0,g,1.0,0.543322800018359,,,,,,,,,,3.0,7.0,43.0,7.0,305.9793968999875,,,,,,,,,,,,,,,,,305.9686492999899,306.0794142999803,306.8797499000211,306.8670661000069,,,,,,,,,,,,,,,,,,,,,,,,,,,,,,,,,,,306.8673703999957,306.8797499000211,306.8797499000211,307.43448080000235,g,1.0,0.543322800018359,,,,,,sub-167,1,stroop_test,60.97323032029457,
,,,,44.0,8.0,3.0,,,,,,,,,,,,,rot,red,r,1.0,r,1.0,0.5506667000008747,,,,,,,,,,3.0,8.0,44.0,1.0,307.447772399988,,,,,,,,,,,,,,,,,307.434683999978,308.2471076999791,309.0468415999785,309.03259369998705,,,,,,,,,,,,,,,,,,,,,,,,,,,,,,,,,,,309.0351864999975,309.0468415999785,309.0468415999785,309.59856969997054,r,1.0,0.5506667000008747,,,,,,sub-167,1,stroop_test,60.97323032029457,
,,,,45.0,9.0,3.0,,,,,,,,,,,,,rot,yellow,g,0.0,b,0.0,0.8575198000180535,,,,,,,,,,3.0,9.0,45.0,3.0,309.6129156000097,,,,,,,,,,,,,,,,,309.5988353000139,310.8127231000108,311.61325469997246,311.5987635999918,,,,,,,,,,,,,,,,,,,,,,,,,,,,,,,,,,,311.59897049999563,311.61325469997246,311.61325469997246,312.4825372999767,b,0.0,0.8575198000180535,,,,,,sub-167,1,stroop_test,60.97323032029457,
,,,,46.0,10.0,3.0,,,,,,,,,,,,,blau,red,r,0.0,r,1.0,1.4102989000384696,,,,,,,,,,3.0,10.0,46.0,4.0,312.4972369999741,,,,,,,,,,,,,,,,,312.4827414000174,313.29599239997333,314.0968813999789,314.0828177999938,,,,,,,,,,,,,,,,,,,,,,,,,,,,,,,,,,,314.0844230999937,314.0968813999789,314.0968813999789,315.51603050000267,r,1.0,1.4102989000384696,,,,,,sub-167,1,stroop_test,60.97323032029457,
,,,,47.0,11.0,3.0,,,,,,,,,,,,,gelb,red,r,0.0,r,1.0,0.5881675999844447,,,,,,,,,,3.0,11.0,47.0,8.0,315.5295562999672,,,,,,,,,,,,,,,,,315.5163566999836,316.33026269997936,317.130583799968,317.1155722999829,,,,,,,,,,,,,,,,,,,,,,,,,,,,,,,,,,,317.1173209999688,317.130583799968,317.130583799968,317.7335582000087,r,1.0,0.5881675999844447,,,,,,sub-167,1,stroop_test,60.97323032029457,
,,,,48.0,0.0,4.0,,,,,,,,,,,,,gelb,blue,b,0.0,b,1.0,0.5004525000113063,,,,,,,,,,4.0,0.0,48.0,9.0,317.7464812999824,,,,,,,,,,,,,,,,,317.73382740002126,318.0969533000025,318.89698690001387,318.8836753999931,,,,,,,,,,,,,,,,,,,,,,,,,,,,,,,,,,,318.8839137000032,318.89698690001387,318.89698690001387,319.3991731000133,b,1.0,0.5004525000113063,,,,,,sub-167,1,stroop_test,60.97323032029457,
,,,,49.0,1.0,4.0,,,,,,,,,,,,,gelb,yellow,g,1.0,g,1.0,0.4016869999468326,,,,,,,,,,4.0,1.0,49.0,10.0,319.41350379999494,,,,,,,,,,,,,,,,,319.3993688999908,319.76342959998874,320.5629191999906,320.5480519999983,,,,,,,,,,,,,,,,,,,,,,,,,,,,,,,,,,,320.5482066000113,320.5629191999906,320.5629191999906,320.9661086999695,g,1.0,0.4016869999468326,,,,,,sub-167,1,stroop_test,60.97323032029457,
,,,,50.0,2.0,4.0,,,,,,,,,,,,,rot,blue,b,0.0,b,1.0,0.366228399972897,,,,,,,,,,4.0,2.0,50.0,2.0,320.9795153000159,,,,,,,,,,,,,,,,,320.966317399987,322.1802994000027,322.9795559999766,322.9658384000068,,,,,,,,,,,,,,,,,,,,,,,,,,,,,,,,,,,322.9679793000105,322.9795559999766,322.9795559999766,323.34909440000774,b,1.0,0.366228399972897,,,,,,sub-167,1,stroop_test,60.97323032029457,
,,,,51.0,3.0,4.0,,,,,,,,,,,,,gelb,yellow,g,1.0,g,1.0,0.6694772000191733,,,,,,,,,,4.0,3.0,51.0,11.0,323.36279939999804,,,,,,,,,,,,,,,,,323.34944730001735,323.4637659,324.26351959997555,324.2498398000025,,,,,,,,,,,,,,,,,,,,,,,,,,,,,,,,,,,324.2514208999928,324.26351959997555,324.26351959997555,324.9498672999908,g,1.0,0.6694772000191733,,,,,,sub-167,1,stroop_test,60.97323032029457,
,,,,52.0,4.0,4.0,,,,,,,,,,,,,gelb,red,r,0.0,r,1.0,0.3606991000124253,,,,,,,,,,4.0,4.0,52.0,8.0,324.96281419997104,,,,,,,,,,,,,,,,,324.950111299986,325.0630373000168,325.86350390000734,325.84895519999554,,,,,,,,,,,,,,,,,,,,,,,,,,,,,,,,,,,325.84919089998584,325.86350390000734,325.86350390000734,326.23236610001186,r,1.0,0.3606991000124253,,,,,,sub-167,1,stroop_test,60.97323032029457,
,,,,53.0,5.0,4.0,,,,,,,,,,,,,blau,blue,b,1.0,b,1.0,0.4599096999736503,,,,,,,,,,4.0,5.0,53.0,6.0,326.24647600000026,,,,,,,,,,,,,,,,,326.23256149998633,327.0466693000053,327.84681139996974,327.83278449997306,,,,,,,,,,,,,,,,,,,,,,,,,,,,,,,,,,,327.83427529997425,327.84681139996974,327.84681139996974,328.316403099976,b,1.0,0.4599096999736503,,,,,,sub-167,1,stroop_test,60.97323032029457,
,,,,54.0,6.0,4.0,,,,,,,,,,,,,rot,yellow,g,0.0,g,1.0,0.8453908000374213,,,,,,,,,,4.0,6.0,54.0,3.0,328.3299529000069,,,,,,,,,,,,,,,,,328.3167367000133,328.68020970001817,329.48054209997645,329.4656609999947,,,,,,,,,,,,,,,,,,,,,,,,,,,,,,,,,,,329.4671253999695,329.48054209997645,329.48054209997645,330.3324677000055,g,1.0,0.8453908000374213,,,,,,sub-167,1,stroop_test,60.97323032029457,
,,,,55.0,7.0,4.0,,,,,,,,,,,,,rot,red,r,1.0,r,1.0,0.320547700044699,,,,,,,,,,4.0,7.0,55.0,1.0,330.347197199997,,,,,,,,,,,,,,,,,330.3326758000185,330.44671109999763,331.24630399997113,331.2319592999993,,,,,,,,,,,,,,,,,,,,,,,,,,,,,,,,,,,331.2321518000099,331.24630399997113,331.24630399997113,331.5824520000024,r,1.0,0.320547700044699,,,,,,sub-167,1,stroop_test,60.97323032029457,
,,,,56.0,8.0,4.0,,,,,,,,,,,,,blau,yellow,g,0.0,g,1.0,0.6603031000122428,,,,,,,,,,4.0,8.0,56.0,7.0,331.59644240001217,,,,,,,,,,,,,,,,,331.5827867999906,332.79790000000503,333.6127087000059,333.59905640000943,,,,,,,,,,,,,,,,,,,,,,,,,,,,,,,,,,,333.60058829997433,333.6127087000059,333.6127087000059,334.2830792000168,g,1.0,0.6603031000122428,,,,,,sub-167,1,stroop_test,60.97323032029457,
,,,,57.0,9.0,4.0,,,,,,,,,,,,,blau,red,r,0.0,r,1.0,0.5681401999900118,,,,,,,,,,4.0,9.0,57.0,4.0,334.29654369998025,,,,,,,,,,,,,,,,,334.28328219999094,335.09676869999385,335.89681770000607,335.88313530001324,,,,,,,,,,,,,,,,,,,,,,,,,,,,,,,,,,,335.88336909998907,335.89681770000607,335.89681770000607,336.46619910001755,r,1.0,0.5681401999900118,,,,,,sub-167,1,stroop_test,60.97323032029457,
,,,,58.0,10.0,4.0,,,,,,,,,,,,,rot,red,r,1.0,r,1.0,0.4839465000550262,,,,,,,,,,4.0,10.0,58.0,0.0,336.4795419999864,,,,,,,,,,,,,,,,,336.46641739999177,336.8301940999809,337.6296890999656,337.6152267999714,,,,,,,,,,,,,,,,,,,,,,,,,,,,,,,,,,,337.61661379999714,337.6296890999656,337.6296890999656,338.1154533000081,r,1.0,0.4839465000550262,,,,,,sub-167,1,stroop_test,60.97323032029457,
,,,,59.0,11.0,4.0,,,,,,,,,,,,,blau,blue,b,1.0,b,1.0,0.6897810999653302,,,,,,,,,,4.0,11.0,59.0,5.0,338.1298798000207,,,,,,,,,,,,,,,,,338.1156512000016,338.9297899999656,339.72979700000724,339.715408899996,,,,,,,,,,,,,,,,,,,,,,,,,,,,,,,,,,,339.7166055999696,339.72979700000724,339.72979700000724,340.4330889999983,b,1.0,0.6897810999653302,,,,,,sub-167,1,stroop_test,60.97323032029457,
,,,,60.0,0.0,5.0,,,,,,,,,,,,,blau,yellow,g,0.0,g,1.0,0.4115540999919176,,,,,,,,,,5.0,0.0,60.0,7.0,340.44600860000355,,,,,,,,,,,,,,,,,340.4332818000112,340.7965218999889,341.59649700002046,341.58136199996807,,,,,,,,,,,,,,,,,,,,,,,,,,,,,,,,,,,341.5815433000098,341.59649700002046,341.59649700002046,342.0147678999929,g,1.0,0.4115540999919176,,,,,,sub-167,1,stroop_test,60.97323032029457,
,,,,61.0,1.0,5.0,,,,,,,,,,,,,gelb,yellow,g,1.0,g,1.0,0.4613912000204436,,,,,,,,,,5.0,1.0,61.0,10.0,342.02988970000297,,,,,,,,,,,,,,,,,342.0150682000094,342.12959069997305,342.92977250000695,342.9151850999915,,,,,,,,,,,,,,,,,,,,,,,,,,,,,,,,,,,342.9165831999853,342.92977250000695,342.92977250000695,343.39986349997343,g,1.0,0.4613912000204436,,,,,,sub-167,1,stroop_test,60.97323032029457,
,,,,62.0,2.0,5.0,,,,,,,,,,,,,gelb,red,r,0.0,r,1.0,0.7999476999975741,,,,,,,,,,5.0,2.0,62.0,8.0,343.41317489999346,,,,,,,,,,,,,,,,,343.400201499986,343.7633543999982,344.56670909997774,344.5497478999896,,,,,,,,,,,,,,,,,,,,,,,,,,,,,,,,,,,344.55000930000097,344.56670909997774,344.56670909997774,345.3842377999681,r,1.0,0.7999476999975741,,,,,,sub-167,1,stroop_test,60.97323032029457,
,,,,63.0,3.0,5.0,,,,,,,,,,,,,blau,red,r,0.0,r,1.0,0.4233559999847784,,,,,,,,,,5.0,3.0,63.0,4.0,345.3964560999884,,,,,,,,,,,,,,,,,345.38443560001906,345.7468633999815,346.5462945000036,346.53138699999545,,,,,,,,,,,,,,,,,,,,,,,,,,,,,,,,,,,346.5328898999724,346.5462945000036,346.5462945000036,346.9818259999738,r,1.0,0.4233559999847784,,,,,,sub-167,1,stroop_test,60.97323032029457,
,,,,64.0,4.0,5.0,,,,,,,,,,,,,gelb,blue,b,0.0,b,1.0,1.163623499975074,,,,,,,,,,5.0,4.0,64.0,9.0,346.9965696000145,,,,,,,,,,,,,,,,,346.9820122999954,348.19662100001005,348.9961633000057,348.98276839999016,,,,,,,,,,,,,,,,,,,,,,,,,,,,,,,,,,,348.9841675999924,348.9961633000057,348.9961633000057,350.16610580001725,b,1.0,1.163623499975074,,,,,,sub-167,1,stroop_test,60.97323032029457,
,,,,65.0,5.0,5.0,,,,,,,,,,,,,gelb,yellow,g,1.0,g,1.0,0.5323163999710232,,,,,,,,,,5.0,5.0,65.0,11.0,350.1794660000014,,,,,,,,,,,,,,,,,350.166307699983,350.98023709998233,351.7808534000069,351.76691569999093,,,,,,,,,,,,,,,,,,,,,,,,,,,,,,,,,,,351.76719430001685,351.7808534000069,351.7808534000069,352.31603430002,g,1.0,0.5323163999710232,,,,,,sub-167,1,stroop_test,60.97323032029457,
,,,,66.0,6.0,5.0,,,,,,,,,,,,,blau,blue,b,1.0,b,1.0,0.5473180999979377,,,,,,,,,,5.0,6.0,66.0,6.0,352.32942680001725,,,,,,,,,,,,,,,,,352.3162269999739,353.53002509998623,354.3299173999694,354.3167539999704,,,,,,,,,,,,,,,,,,,,,,,,,,,,,,,,,,,354.3189300000085,354.3299173999694,354.3299173999694,354.884455899999,b,1.0,0.5473180999979377,,,,,,sub-167,1,stroop_test,60.97323032029457,
,,,,67.0,7.0,5.0,,,,,,,,,,,,,rot,yellow,g,0.0,r,0.0,0.869514399964828,,,,,,,,,,5.0,7.0,67.0,3.0,354.8960279999883,,,,,,,,,,,,,,,,,354.88478000002215,355.24621750001097,356.0461113000056,356.03311089996714,,,,,,,,,,,,,,,,,,,,,,,,,,,,,,,,,,,356.0345159000135,356.0461113000056,356.0461113000056,356.9311811000225,r,0.0,0.869514399964828,,,,,,sub-167,1,stroop_test,60.97323032029457,
,,,,68.0,8.0,5.0,,,,,,,,,,,,,rot,blue,b,0.0,b,1.0,0.7652057000086643,,,,,,,,,,5.0,8.0,68.0,2.0,356.94620710000163,,,,,,,,,,,,,,,,,356.9313718000194,357.0461448999704,357.8473376000184,357.8320682999911,,,,,,,,,,,,,,,,,,,,,,,,,,,,,,,,,,,357.8322695000097,357.8473376000184,357.8473376000184,358.6158558999887,b,1.0,0.7652057000086643,,,,,,sub-167,1,stroop_test,60.97323032029457,
,,,,69.0,9.0,5.0,,,,,,,,,,,,,rot,red,r,1.0,r,1.0,0.552637999993749,,,,,,,,,,5.0,9.0,69.0,0.0,358.6300277999835,,,,,,,,,,,,,,,,,358.61604479997186,358.730280000018,359.5295033999719,359.5156348000164,,,,,,,,,,,,,,,,,,,,,,,,,,,,,,,,,,,359.51581989997067,359.5295033999719,359.5295033999719,360.09842970001046,r,1.0,0.552637999993749,,,,,,sub-167,1,stroop_test,60.97323032029457,
,,,,70.0,10.0,5.0,,,,,,,,,,,,,rot,red,r,1.0,r,1.0,0.5573670000303537,,,,,,,,,,5.0,10.0,70.0,1.0,360.1128961999784,,,,,,,,,,,,,,,,,360.09864500002004,360.2132624000078,361.01318870001705,360.9995884000091,,,,,,,,,,,,,,,,,,,,,,,,,,,,,,,,,,,360.9998386999941,361.01318870001705,361.01318870001705,361.5828966000117,r,1.0,0.5573670000303537,,,,,,sub-167,1,stroop_test,60.97323032029457,
,,,,71.0,11.0,5.0,,,,,,,,,,,,,blau,blue,b,1.0,b,1.0,0.5666734999977052,,,,,,,,,,5.0,11.0,71.0,5.0,361.59629859996494,,,,,,,,,,,,,,,,,361.5831032000133,362.397000099998,363.19689790002303,363.1823590999702,,,,,,,,,,,,,,,,,,,,,,,,,,,,,,,,,,,363.18503990001045,363.19689790002303,363.19689790002303,363.76596410002094,b,1.0,0.5666734999977052,,,,,,sub-167,1,stroop_test,60.97323032029457,
,,,,72.0,0.0,6.0,,,,,,,,,,,,,gelb,blue,b,0.0,b,1.0,0.5979578999686055,,,,,,,,,,6.0,0.0,72.0,9.0,363.779810499982,,,,,,,,,,,,,,,,,363.7661855000188,364.9800337000052,365.78004079998937,365.76623930002097,,,,,,,,,,,,,,,,,,,,,,,,,,,,,,,,,,,365.7680034000077,365.78004079998937,365.78004079998937,366.3825878999778,b,1.0,0.5979578999686055,,,,,,sub-167,1,stroop_test,60.97323032029457,
,,,,73.0,1.0,6.0,,,,,,,,,,,,,blau,yellow,g,0.0,g,1.0,0.3714053999865427,,,,,,,,,,6.0,1.0,73.0,7.0,366.3960196999833,,,,,,,,,,,,,,,,,366.38281779998215,366.7463977999869,367.5458788999822,367.5330377999926,,,,,,,,,,,,,,,,,,,,,,,,,,,,,,,,,,,367.5344703000155,367.5458788999822,367.5458788999822,367.9321958000073,g,1.0,0.3714053999865427,,,,,,sub-167,1,stroop_test,60.97323032029457,
,,,,74.0,2.0,6.0,,,,,,,,,,,,,gelb,red,r,0.0,r,1.0,0.5689862000290304,,,,,,,,,,6.0,2.0,74.0,8.0,367.9463611000101,,,,,,,,,,,,,,,,,367.93240809999406,368.2962856999948,369.0972917000181,369.0831590999733,,,,,,,,,,,,,,,,,,,,,,,,,,,,,,,,,,,369.0848721999792,369.0972917000181,369.0972917000181,369.68254860001616,r,1.0,0.5689862000290304,,,,,,sub-167,1,stroop_test,60.97323032029457,
,,,,75.0,3.0,6.0,,,,,,,,,,,,,rot,blue,b,0.0,b,1.0,0.6221385000390001,,,,,,,,,,6.0,3.0,75.0,2.0,369.69659249996766,,,,,,,,,,,,,,,,,369.6827482000226,369.7965735999751,370.5965317999944,370.58198139996966,,,,,,,,,,,,,,,,,,,,,,,,,,,,,,,,,,,370.5833486000192,370.5965317999944,370.5965317999944,371.2338211999741,b,1.0,0.6221385000390001,,,,,,sub-167,1,stroop_test,60.97323032029457,
,,,,76.0,4.0,6.0,,,,,,,,,,,,,rot,red,r,1.0,r,1.0,0.6331789999967441,,,,,,,,,,6.0,4.0,76.0,0.0,371.2465173999663,,,,,,,,,,,,,,,,,371.234062500007,372.0469560999773,372.8473602000158,372.8323844000115,,,,,,,,,,,,,,,,,,,,,,,,,,,,,,,,,,,372.8326094999793,372.8473602000158,372.8473602000158,373.4821109999903,r,1.0,0.6331789999967441,,,,,,sub-167,1,stroop_test,60.97323032029457,
,,,,77.0,5.0,6.0,,,,,,,,,,,,,gelb,yellow,g,1.0,b,0.0,0.803203699993901,,,,,,,,,,6.0,5.0,77.0,11.0,373.4966325999703,,,,,,,,,,,,,,,,,373.482283499965,373.5968513999833,374.3973142000032,374.38248899998143,,,,,,,,,,,,,,,,,,,,,,,,,,,,,,,,,,,374.38388530001976,374.3973142000032,374.3973142000032,375.2170760000008,b,0.0,0.803203699993901,,,,,,sub-167,1,stroop_test,60.97323032029457,
,,,,78.0,6.0,6.0,,,,,,,,,,,,,gelb,yellow,g,1.0,g,1.0,0.5017169999773614,,,,,,,,,,6.0,6.0,78.0,10.0,375.2299692999805,,,,,,,,,,,,,,,,,375.2172825000016,375.5796588999801,376.3798779000063,376.3652962999768,,,,,,,,,,,,,,,,,,,,,,,,,,,,,,,,,,,376.3655365000013,376.3798779000063,376.3798779000063,376.8833925999934,g,1.0,0.5017169999773614,,,,,,sub-167,1,stroop_test,60.97323032029457,
,,,,79.0,7.0,6.0,,,,,,,,,,,,,blau,blue,b,1.0,b,1.0,0.8928688999731094,,,,,,,,,,6.0,7.0,79.0,6.0,376.8965691999765,,,,,,,,,,,,,,,,,376.8835770000005,376.9967220000108,377.7963632000028,377.78251499996986,,,,,,,,,,,,,,,,,,,,,,,,,,,,,,,,,,,377.7839454999776,377.7963632000028,377.7963632000028,378.699375599972,b,1.0,0.8928688999731094,,,,,,sub-167,1,stroop_test,60.97323032029457,
,,,,80.0,8.0,6.0,,,,,,,,,,,,,blau,blue,b,1.0,b,1.0,0.6005532999988645,,,,,,,,,,6.0,8.0,80.0,5.0,378.7139982000226,,,,,,,,,,,,,,,,,378.6995826999773,379.0633548999904,379.8637350000208,379.848602699989,,,,,,,,,,,,,,,,,,,,,,,,,,,,,,,,,,,379.8487793999957,379.8637350000208,379.8637350000208,380.4664328999934,b,1.0,0.6005532999988645,,,,,,sub-167,1,stroop_test,60.97323032029457,
,,,,81.0,9.0,6.0,,,,,,,,,,,,,rot,red,r,1.0,r,1.0,0.4655512999743223,,,,,,,,,,6.0,9.0,81.0,1.0,380.48056739999447,,,,,,,,,,,,,,,,,380.4666390999919,380.82954890001565,381.6295649000094,381.61632530001225,,,,,,,,,,,,,,,,,,,,,,,,,,,,,,,,,,,381.6178097000229,381.6295649000094,381.6295649000094,382.0991398000042,r,1.0,0.4655512999743223,,,,,,sub-167,1,stroop_test,60.97323032029457,
,,,,82.0,10.0,6.0,,,,,,,,,,,,,blau,red,r,0.0,b,0.0,0.4531560000032186,,,,,,,,,,6.0,10.0,82.0,4.0,382.1130212999997,,,,,,,,,,,,,,,,,382.0994631000213,382.4637454000185,383.2629803000018,383.2493471999769,,,,,,,,,,,,,,,,,,,,,,,,,,,,,,,,,,,383.2514056999935,383.2629803000018,383.2629803000018,383.7183013000176,b,0.0,0.4531560000032186,,,,,,sub-167,1,stroop_test,60.97323032029457,
,,,,83.0,11.0,6.0,,,,,,,,,,,,,rot,yellow,g,0.0,g,1.0,0.7279928000061773,,,,,,,,,,6.0,11.0,83.0,3.0,383.72998870001175,,,,,,,,,,,,,,,,,383.7185240999679,384.9309191000066,385.7296190999914,385.7171026999713,,,,,,,,,,,,,,,,,,,,,,,,,,,,,,,,,,,385.71871539996937,385.7296190999914,385.7296190999914,386.46552590001374,g,1.0,0.7279928000061773,,,,,,sub-167,1,stroop_test,60.97323032029457,
,,,,84.0,0.0,7.0,,,,,,,,,,,,,blau,red,r,0.0,r,1.0,0.915867299947422,,,,,,,,,,7.0,0.0,84.0,4.0,386.47957139997743,,,,,,,,,,,,,,,,,386.4657407000195,386.5810336999712,387.3798068999895,387.365527099988,,,,,,,,,,,,,,,,,,,,,,,,,,,,,,,,,,,387.3683758999687,387.3798068999895,387.3798068999895,388.2988356999704,r,1.0,0.915867299947422,,,,,,sub-167,1,stroop_test,60.97323032029457,
,,,,85.0,1.0,7.0,,,,,,,,,,,,,rot,yellow,g,0.0,g,1.0,0.8208350000204518,,,,,,,,,,7.0,1.0,85.0,3.0,388.3129410999827,,,,,,,,,,,,,,,,,388.2990419999696,389.0974533999688,389.8965393999824,389.8823155999999,,,,,,,,,,,,,,,,,,,,,,,,,,,,,,,,,,,389.8837731999811,389.8965393999824,389.8965393999824,390.73264220001874,g,1.0,0.8208350000204518,,,,,,sub-167,1,stroop_test,60.97323032029457,
,,,,86.0,2.0,7.0,,,,,,,,,,,,,blau,blue,b,1.0,b,1.0,0.3788021000218577,,,,,,,,,,7.0,2.0,86.0,6.0,390.7465629000217,,,,,,,,,,,,,,,,,390.7329067999963,391.09696970001096,391.8964985000202,391.88214409997454,,,,,,,,,,,,,,,,,,,,,,,,,,,,,,,,,,,391.88381979998667,391.8964985000202,391.8964985000202,392.2836505000014,b,1.0,0.3788021000218577,,,,,,sub-167,1,stroop_test,60.97323032029457,
,,,,87.0,3.0,7.0,,,,,,,,,,,,,rot,red,r,1.0,r,1.0,0.5322373999515548,,,,,,,,,,7.0,3.0,87.0,0.0,392.2967973999912,,,,,,,,,,,,,,,,,392.2839648000081,393.49718210002175,394.29600809997646,394.2837787999888,,,,,,,,,,,,,,,,,,,,,,,,,,,,,,,,,,,394.2856996000046,394.29600809997646,394.29600809997646,394.8337413999834,r,1.0,0.5322373999515548,,,,,,sub-167,1,stroop_test,60.97323032029457,
,,,,88.0,4.0,7.0,,,,,,,,,,,,,gelb,red,r,0.0,r,1.0,0.6424194000428542,,,,,,,,,,7.0,4.0,88.0,8.0,394.8460470999708,,,,,,,,,,,,,,,,,394.8339872999932,394.9459695999976,395.7465011000168,395.732995599974,,,,,,,,,,,,,,,,,,,,,,,,,,,,,,,,,,,395.7350630000001,395.7465011000168,395.7465011000168,396.39949480001815,r,1.0,0.6424194000428542,,,,,,sub-167,1,stroop_test,60.97323032029457,
,,,,89.0,5.0,7.0,,,,,,,,,,,,,blau,yellow,g,0.0,g,1.0,0.815395699988585,,,,,,,,,,7.0,5.0,89.0,7.0,396.4129036999657,,,,,,,,,,,,,,,,,396.3996946999687,396.7631330000004,397.5637588999816,397.5486523999716,,,,,,,,,,,,,,,,,,,,,,,,,,,,,,,,,,,397.5502565000206,397.5637588999816,397.5637588999816,398.3843542999821,g,1.0,0.815395699988585,,,,,,sub-167,1,stroop_test,60.97323032029457,
,,,,90.0,6.0,7.0,,,,,,,,,,,,,blau,blue,b,1.0,b,1.0,0.4197121000033803,,,,,,,,,,7.0,6.0,90.0,5.0,398.3964822000125,,,,,,,,,,,,,,,,,398.3845787000028,398.4964082000079,399.2960157999769,399.281451799965,,,,,,,,,,,,,,,,,,,,,,,,,,,,,,,,,,,399.2816452999832,399.2960157999769,399.2960157999769,399.71700349997263,b,1.0,0.4197121000033803,,,,,,sub-167,1,stroop_test,60.97323032029457,
,,,,91.0,7.0,7.0,,,,,,,,,,,,,gelb,blue,b,0.0,r,0.0,0.4363600999931805,,,,,,,,,,7.0,7.0,91.0,9.0,399.730127799965,,,,,,,,,,,,,,,,,399.7174319999758,400.53005709999707,401.3300062000053,401.3173108000192,,,,,,,,,,,,,,,,,,,,,,,,,,,,,,,,,,,401.3195287999697,401.3300062000053,401.3300062000053,401.7829410000122,r,0.0,0.4363600999931805,,,,,,sub-167,1,stroop_test,60.97323032029457,
,,,,92.0,8.0,7.0,,,,,,,,,,,,,rot,blue,b,0.0,b,1.0,1.0902270000078715,,,,,,,,,,7.0,8.0,92.0,2.0,401.7966526999953,,,,,,,,,,,,,,,,,401.7832005000091,402.9964774000109,403.7962660000194,403.7832670999924,,,,,,,,,,,,,,,,,,,,,,,,,,,,,,,,,,,403.7849929999793,403.7962660000194,403.7962660000194,404.8991343000089,b,1.0,1.0902270000078715,,,,,,sub-167,1,stroop_test,60.97323032029457,
,,,,93.0,9.0,7.0,,,,,,,,,,,,,rot,red,r,1.0,r,1.0,0.7140474999905564,,,,,,,,,,7.0,9.0,93.0,1.0,404.9128611999913,,,,,,,,,,,,,,,,,404.8993537999922,406.1126615999965,406.91330269997707,406.90011859999504,,,,,,,,,,,,,,,,,,,,,,,,,,,,,,,,,,,406.90040959999897,406.91330269997707,406.91330269997707,407.6329668000108,r,1.0,0.7140474999905564,,,,,,sub-167,1,stroop_test,60.97323032029457,
,,,,94.0,10.0,7.0,,,,,,,,,,,,,gelb,yellow,g,1.0,g,1.0,0.5043106999946758,,,,,,,,,,7.0,10.0,94.0,10.0,407.6464441000135,,,,,,,,,,,,,,,,,407.6333176000044,407.9962883999688,408.79671139997663,408.78249429998687,,,,,,,,,,,,,,,,,,,,,,,,,,,,,,,,,,,408.7839120000135,408.79671139997663,408.79671139997663,409.3028777000145,g,1.0,0.5043106999946758,,,,,,sub-167,1,stroop_test,60.97323032029457,
,,,,95.0,11.0,7.0,,,,,,,,,,,,,gelb,yellow,g,1.0,g,1.0,0.6103671000455506,,,,,,,,,,7.0,11.0,95.0,11.0,409.3131660000072,,,,,,,,,,,,,,,,,409.3031439000042,410.5132542999927,411.3131375999656,411.2994490999845,,,,,,,,,,,,,,,,,,,,,,,,,,,,,,,,,,,411.2996737000067,411.3131375999656,411.3131375999656,411.9326964999782,g,1.0,0.6103671000455506,,,,,,sub-167,1,stroop_test,60.97323032029457,
,,,,96.0,0.0,8.0,,,,,,,,,,,,,gelb,blue,b,0.0,b,1.0,0.6264855000190437,,,,,,,,,,8.0,0.0,96.0,9.0,411.9472444999847,,,,,,,,,,,,,,,,,411.9329100999748,412.0472983000218,412.846445299976,412.8319482000079,,,,,,,,,,,,,,,,,,,,,,,,,,,,,,,,,,,412.8322455000016,412.846445299976,412.846445299976,413.4836052000173,b,1.0,0.6264855000190437,,,,,,sub-167,1,stroop_test,60.97323032029457,
,,,,97.0,1.0,8.0,,,,,,,,,,,,,rot,yellow,g,0.0,g,1.0,0.4803053999785334,,,,,,,,,,8.0,1.0,97.0,3.0,413.49618630000623,,,,,,,,,,,,,,,,,413.4838937000022,414.2971198000014,415.096584199986,415.08265019999817,,,,,,,,,,,,,,,,,,,,,,,,,,,,,,,,,,,415.0850091999746,415.096584199986,415.096584199986,415.5825700999703,g,1.0,0.4803053999785334,,,,,,sub-167,1,stroop_test,60.97323032029457,
,,,,98.0,2.0,8.0,,,,,,,,,,,,,rot,red,r,1.0,r,1.0,0.5670241999905556,,,,,,,,,,8.0,2.0,98.0,1.0,415.5970775000169,,,,,,,,,,,,,,,,,415.5827813000069,416.7963013999979,417.5964373999741,417.5834265999729,,,,,,,,,,,,,,,,,,,,,,,,,,,,,,,,,,,417.5837411999819,417.5964373999741,417.5964373999741,418.165845600015,r,1.0,0.5670241999905556,,,,,,sub-167,1,stroop_test,60.97323032029457,
,,,,99.0,3.0,8.0,,,,,,,,,,,,,blau,blue,b,1.0,b,1.0,0.600106899975799,,,,,,,,,,8.0,3.0,99.0,5.0,418.1809595999657,,,,,,,,,,,,,,,,,418.16606459999457,418.9791153999977,419.7796241000178,419.7664706999785,,,,,,,,,,,,,,,,,,,,,,,,,,,,,,,,,,,419.76800199999707,419.7796241000178,419.7796241000178,420.3838424999849,b,1.0,0.600106899975799,,,,,,sub-167,1,stroop_test,60.97323032029457,
,,,,100.0,4.0,8.0,,,,,,,,,,,,,gelb,red,r,0.0,g,0.0,0.375338300014846,,,,,,,,,,8.0,4.0,100.0,8.0,420.3968492000131,,,,,,,,,,,,,,,,,420.3840747000068,421.5965994999861,422.396098600002,422.3831638999982,,,,,,,,,,,,,,,,,,,,,,,,,,,,,,,,,,,422.384782899986,422.396098600002,422.396098600002,422.78396829997655,g,0.0,0.375338300014846,,,,,,sub-167,1,stroop_test,60.97323032029457,
,,,,101.0,5.0,8.0,,,,,,,,,,,,,blau,blue,b,1.0,b,1.0,0.6578635999467224,,,,,,,,,,8.0,5.0,101.0,6.0,422.7965880999691,,,,,,,,,,,,,,,,,422.7842487000162,423.1463425999973,423.9466914000223,423.9335714000045,,,,,,,,,,,,,,,,,,,,,,,,,,,,,,,,,,,423.9352412999724,423.9466914000223,423.9466914000223,424.6160365999676,b,1.0,0.6578635999467224,,,,,,sub-167,1,stroop_test,60.97323032029457,
,,,,102.0,6.0,8.0,,,,,,,,,,,,,gelb,yellow,g,1.0,g,1.0,0.3786327000125311,,,,,,,,,,8.0,6.0,102.0,10.0,424.6300789999659,,,,,,,,,,,,,,,,,424.616337799991,425.8296183000202,426.6299806999741,426.6153697000118,,,,,,,,,,,,,,,,,,,,,,,,,,,,,,,,,,,426.61670539999614,426.6299806999741,426.6299806999741,427.0161726999795,g,1.0,0.3786327000125311,,,,,,sub-167,1,stroop_test,60.97323032029457,
,,,,103.0,7.0,8.0,,,,,,,,,,,,,rot,blue,b,0.0,b,1.0,0.8184232999919914,,,,,,,,,,8.0,7.0,103.0,2.0,427.0297177999746,,,,,,,,,,,,,,,,,427.01651849999325,428.23049940000055,429.0295574999764,429.0154941999936,,,,,,,,,,,,,,,,,,,,,,,,,,,,,,,,,,,429.01697180001065,429.0295574999764,429.0295574999764,429.8503769999952,b,1.0,0.8184232999919914,,,,,,sub-167,1,stroop_test,60.97323032029457,
,,,,104.0,8.0,8.0,,,,,,,,,,,,,blau,yellow,g,0.0,g,1.0,0.883014400023967,,,,,,,,,,8.0,8.0,104.0,7.0,429.8636796000064,,,,,,,,,,,,,,,,,429.8505864000181,430.2142529999837,431.0139424999943,430.9999217999866,,,,,,,,,,,,,,,,,,,,,,,,,,,,,,,,,,,431.0013643999701,431.0139424999943,431.0139424999943,431.8991700999904,g,1.0,0.883014400023967,,,,,,sub-167,1,stroop_test,60.97323032029457,
,,,,105.0,9.0,8.0,,,,,,,,,,,,,gelb,yellow,g,1.0,g,1.0,0.5172822999884374,,,,,,,,,,8.0,9.0,105.0,11.0,431.91423370002303,,,,,,,,,,,,,,,,,431.8995998000028,433.11282550002215,433.913000600005,433.90065490000416,,,,,,,,,,,,,,,,,,,,,,,,,,,,,,,,,,,433.9019450999913,433.913000600005,433.913000600005,434.4333163999836,g,1.0,0.5172822999884374,,,,,,sub-167,1,stroop_test,60.97323032029457,
,,,,106.0,10.0,8.0,,,,,,,,,,,,,blau,red,r,0.0,r,1.0,0.7364222000469454,,,,,,,,,,8.0,10.0,106.0,4.0,434.44626369996695,,,,,,,,,,,,,,,,,434.43351569998777,435.24661669996567,436.0475444999756,436.0324856999796,,,,,,,,,,,,,,,,,,,,,,,,,,,,,,,,,,,436.0339847999858,436.0475444999756,436.0475444999756,436.79809369996656,r,1.0,0.7364222000469454,,,,,,sub-167,1,stroop_test,60.97323032029457,
,,,,107.0,11.0,8.0,,,,,,,,,,,,,rot,red,r,1.0,r,1.0,0.5839285000110976,,,,,,,,,,8.0,11.0,107.0,0.0,436.8134127999656,,,,,,,,,,,,,,,,,436.7983067000168,438.01311780000106,438.8131297000218,438.79930999997305,,,,,,,,,,,,,,,,,,,,,,,,,,,,,,,,,,,438.8011992999818,438.8131297000218,438.8131297000218,439.3998017999693,r,1.0,0.5839285000110976,,,,,,sub-167,1,stroop_test,60.97323032029457,
,,,,108.0,0.0,9.0,,,,,,,,,,,,,blau,red,r,0.0,r,1.0,0.6167910000076517,,,,,,,,,,9.0,0.0,108.0,4.0,439.4137522999663,,,,,,,,,,,,,,,,,439.4000169999781,439.7631865000003,440.5628526000073,440.5485652000061,,,,,,,,,,,,,,,,,,,,,,,,,,,,,,,,,,,440.5498603999731,440.5628526000073,440.5628526000073,441.183399099973,r,1.0,0.6167910000076517,,,,,,sub-167,1,stroop_test,60.97323032029457,
,,,,109.0,1.0,9.0,,,,,,,,,,,,,blau,blue,b,1.0,b,1.0,0.6153023000224493,,,,,,,,,,9.0,1.0,109.0,6.0,441.1966274000006,,,,,,,,,,,,,,,,,441.1836624999996,441.5461916999775,442.3464973999653,442.3324206999969,,,,,,,,,,,,,,,,,,,,,,,,,,,,,,,,,,,442.3326434000046,442.3464973999653,442.3464973999653,442.9671104999725,b,1.0,0.6153023000224493,,,,,,sub-167,1,stroop_test,60.97323032029457,
,,,,110.0,2.0,9.0,,,,,,,,,,,,,blau,yellow,g,0.0,g,1.0,0.4702818000223487,,,,,,,,,,9.0,2.0,110.0,7.0,442.9797956999973,,,,,,,,,,,,,,,,,442.9673722999869,443.0805590999662,443.8810218999861,443.8659734000103,,,,,,,,,,,,,,,,,,,,,,,,,,,,,,,,,,,443.86617029999616,443.8810218999861,443.8810218999861,444.3665079000057,g,1.0,0.4702818000223487,,,,,,sub-167,1,stroop_test,60.97323032029457,
,,,,111.0,3.0,9.0,,,,,,,,,,,,,gelb,yellow,g,1.0,g,1.0,0.4629207999678328,,,,,,,,,,9.0,3.0,111.0,10.0,444.3796535999864,,,,,,,,,,,,,,,,,444.3667154000141,445.18017970002256,445.9797322999802,445.9659282999928,,,,,,,,,,,,,,,,,,,,,,,,,,,,,,,,,,,445.9673562999815,445.9797322999802,445.9797322999802,446.4501928999671,g,1.0,0.4629207999678328,,,,,,sub-167,1,stroop_test,60.97323032029457,
,,,,112.0,4.0,9.0,,,,,,,,,,,,,gelb,red,r,0.0,r,1.0,0.5675149000016972,,,,,,,,,,9.0,4.0,112.0,8.0,446.4627833999693,,,,,,,,,,,,,,,,,446.4504322999856,446.56262609997066,447.36342780001,447.3492956999689,,,,,,,,,,,,,,,,,,,,,,,,,,,,,,,,,,,447.3495307000121,447.36342780001,447.36342780001,447.9335221999791,r,1.0,0.5675149000016972,,,,,,sub-167,1,stroop_test,60.97323032029457,
,,,,113.0,5.0,9.0,,,,,,,,,,,,,gelb,blue,b,0.0,b,1.0,0.5231426000245847,,,,,,,,,,9.0,5.0,113.0,9.0,447.9468062999658,,,,,,,,,,,,,,,,,447.9337289999821,448.2968872999773,449.09741859999485,449.0839738000068,,,,,,,,,,,,,,,,,,,,,,,,,,,,,,,,,,,449.0842900999705,449.09741859999485,449.09741859999485,449.6334709000075,b,1.0,0.5231426000245847,,,,,,sub-167,1,stroop_test,60.97323032029457,
,,,,114.0,6.0,9.0,,,,,,,,,,,,,rot,red,r,1.0,r,1.0,0.551191899983678,,,,,,,,,,9.0,6.0,114.0,1.0,449.6462230000179,,,,,,,,,,,,,,,,,449.63377559999935,450.8462121000048,451.6466517999652,451.6323151999968,,,,,,,,,,,,,,,,,,,,,,,,,,,,,,,,,,,451.6337690000073,451.6466517999652,451.6466517999652,452.20008739997866,r,1.0,0.551191899983678,,,,,,sub-167,1,stroop_test,60.97323032029457,
,,,,115.0,7.0,9.0,,,,,,,,,,,,,rot,red,r,1.0,r,1.0,0.4694281999836676,,,,,,,,,,9.0,7.0,115.0,0.0,452.2136245999718,,,,,,,,,,,,,,,,,452.2003084999742,452.5631103999913,453.3636459999834,453.3493723999709,,,,,,,,,,,,,,,,,,,,,,,,,,,,,,,,,,,453.3496874999837,453.3636459999834,453.3636459999834,453.84873809997225,r,1.0,0.4694281999836676,,,,,,sub-167,1,stroop_test,60.97323032029457,
,,,,116.0,8.0,9.0,,,,,,,,,,,,,gelb,yellow,g,1.0,g,1.0,0.5812398999696597,,,,,,,,,,9.0,8.0,116.0,11.0,453.8635247999919,,,,,,,,,,,,,,,,,453.8489392999909,453.9628446999705,454.7630400999915,454.7493277000031,,,,,,,,,,,,,,,,,,,,,,,,,,,,,,,,,,,454.7508087999886,454.7630400999915,454.7630400999915,455.3511120000039,g,1.0,0.5812398999696597,,,,,,sub-167,1,stroop_test,60.97323032029457,
,,,,117.0,9.0,9.0,,,,,,,,,,,,,rot,yellow,g,0.0,g,1.0,0.453065300011076,,,,,,,,,,9.0,9.0,117.0,3.0,455.3629894999904,,,,,,,,,,,,,,,,,455.351342000009,455.4630136999767,456.2635181000224,456.2483873000019,,,,,,,,,,,,,,,,,,,,,,,,,,,,,,,,,,,456.2498264000169,456.2635181000224,456.2635181000224,456.73283049999736,g,1.0,0.453065300011076,,,,,,sub-167,1,stroop_test,60.97323032029457,
,,,,118.0,10.0,9.0,,,,,,,,,,,,,blau,blue,b,1.0,b,1.0,0.5323873000452295,,,,,,,,,,9.0,10.0,118.0,5.0,456.7472744999686,,,,,,,,,,,,,,,,,456.7330368999974,457.0962619999773,457.89672640000936,457.8827696000226,,,,,,,,,,,,,,,,,,,,,,,,,,,,,,,,,,,457.884541300009,457.89672640000936,457.89672640000936,458.434253000014,b,1.0,0.5323873000452295,,,,,,sub-167,1,stroop_test,60.97323032029457,
,,,,119.0,11.0,9.0,,,,,,,,,,,,,rot,blue,b,0.0,b,1.0,0.4797555999830365,,,,,,,,,,9.0,11.0,119.0,2.0,458.4464757000096,,,,,,,,,,,,,,,,,458.434508699982,459.2482017999864,460.06306419998873,460.0494797999854,,,,,,,,,,,,,,,,,,,,,,,,,,,,,,,,,,,460.0521525000222,460.06306419998873,460.06306419998873,460.5494901000056,b,1.0,0.4797555999830365,,,,,,sub-167,1,stroop_test,60.97323032029457,
,,,,,,,,,,,,,,,,,,,,,,,,,,,,,,,,,,,,,,,,,,,,,,,,,,,,,,,,,,,,,,,,,,,,,,,,,,,,,,,,,,,,,,,,,,,,,,,,,,,,,,460.5495876999921,460.5634426000179,465.5630698999739,465.54852920002304,sub-167,1,stroop_test,60.97323032029457,
