wordCTK,colorCTK,corrAnsCTK,congruentCTK,thisN,thisTrialN,thisRepN,keyResp_CTK.keys,keyResp_CTK.corr,keyResp_CTK.rt,keyResp_CTK.duration,wordPractice,colorPractice,corrAnsPractice,congruentPractice,respPractice.keys,respPractice.corr,respPractice.rt,respPractice.duration,word,color,corrAns,congruent,keyResp_test_run.keys,keyResp_test_run.corr,keyResp_test_run.rt,keyResp_test_run.duration,trials_CTK.thisRepN,trials_CTK.thisTrialN,trials_CTK.thisN,trials_CTK.thisIndex,trials_practice.thisRepN,trials_practice.thisTrialN,trials_practice.thisN,trials_practice.thisIndex,trials_test.thisRepN,trials_test.thisTrialN,trials_test.thisN,trials_test.thisIndex,thisRow.t,notes,instruction.started,instr_text.started,instr_image.started,instr_resp.started,instruction.stopped,instr_resp.keys,instr_resp.rt,instr_resp.duration,instr_color_to_key.started,instr_ctk.started,resp_ctk.started,instr_color_to_key.stopped,resp_ctk.keys,resp_ctk.rt,resp_ctk.duration,ITI.started,fixcross.started,fixcross.stopped,ITI.stopped,color_to_key_run.started,stimulus_CTK.started,keyResp_CTK.started,color_to_key_run.stopped,trials_CTK.keyResp_CTK.keys,trials_CTK.keyResp_CTK.corr,trials_CTK.keyResp_CTK.rt,trials_CTK.keyResp_CTK.duration,instr_practice.started,instr_practice_text.started,instr_practice_resp.started,instr_practice.stopped,instr_practice_resp.keys,instr_practice_resp.rt,instr_practice_resp.duration,practice_run.started,stimulus_practice.started,respPractice.started,practice_run.stopped,trials_practice.respPractice.keys,trials_practice.respPractice.corr,trials_practice.respPractice.rt,trials_practice.respPractice.duration,feedback.started,textFeedback.started,feedback.stopped,textFeedback.stopped,instr_test.started,instr_test_text.started,instr_test_resp.started,instr_test.stopped,instr_test_resp.keys,instr_test_resp.rt,instr_test_resp.duration,test_run.started,stimulus_test_run.started,keyResp_test_run.started,test_run.stopped,trials_test.keyResp_test_run.keys,trials_test.keyResp_test_run.corr,trials_test.keyResp_test_run.rt,trials_test.keyResp_test_run.duration,goodbye.started,textGoodbye.started,goodbye.stopped,participant,session,expName,frameRate,Unnamed: 112
,,,,,,,,,,,,,,,,,,,,,,,,,,,,,,,,,,,,,,,,,0.00257959999999,0.0582743999998456,0.0582743999998456,0.0582743999998456,28.593975699999877,space,28.526591599999847,,,,,,,,,,,,,,,,,,,,,,,,,,,,,,,,,,,,,,,,,,,,,,,,,,,,,,,,,,sub-198,1,stroop_test,60.08672918487639,
,,,,,,,,,,,,,,,,,,,,,,,,,,,,,,,,,,,,,,,,,,,,,,,,,28.59402779999982,28.60715970000001,28.60715970000001,37.97869779999996,space,9.371045200000026,,,,,,,,,,,,,,,,,,,,,,,,,,,,,,,,,,,,,,,,,,,,,,,,,,,sub-198,1,stroop_test,60.08672918487639,
test,red,r,1.0,0.0,0.0,0.0,r,1.0,1.3766817999999148,,,,,,,,,,,,,,,,,,0.0,0.0,0.0,0.0,,,,,,,,,38.10323999999992,,,,,,,,,,,,,,,,,38.09978899999987,38.787080599999854,39.602340899999945,39.58594939999989,39.594104300000026,39.602340899999945,39.602340899999945,40.98408199999994,r,1.0,1.3766817999999148,,,,,,,,,,,,,,,,,,,,,,,,,,,,,,,,,,,,,,,sub-198,1,stroop_test,60.08672918487639,
test,yellow,g,1.0,1.0,1.0,0.0,g,1.0,1.8815323000001167,,,,,,,,,,,,,,,,,,0.0,1.0,1.0,1.0,,,,,,,,,41.0003643,,,,,,,,,,,,,,,,,40.98439110000004,42.19912320000003,43.014445399999886,42.99787079999987,42.99821840000004,43.014445399999886,43.014445399999886,44.91229869999984,g,1.0,1.8815323000001167,,,,,,,,,,,,,,,,,,,,,,,,,,,,,,,,,,,,,,,sub-198,1,stroop_test,60.08672918487639,
test,blue,b,1.0,2.0,2.0,0.0,b,1.0,0.7129457000000912,,,,,,,,,,,,,,,,,,0.0,2.0,2.0,2.0,,,,,,,,,44.92859679999992,,,,,,,,,,,,,,,,,44.91269199999988,45.26144799999997,46.07702199999994,46.06056360000002,46.06098529999986,46.07702199999994,46.07702199999994,46.7931274,b,1.0,0.7129457000000912,,,,,,,,,,,,,,,,,,,,,,,,,,,,,,,,,,,,,,,sub-198,1,stroop_test,60.08672918487639,
test,yellow,g,1.0,3.0,0.0,1.0,g,1.0,1.9681975000000875,,,,,,,,,,,,,,,,,,1.0,0.0,3.0,1.0,,,,,,,,,46.80942059999984,,,,,,,,,,,,,,,,,46.79344070000002,48.00792579999984,48.80678479999983,48.79100349999999,48.79195179999988,48.80678479999983,48.80678479999983,50.78777599999989,g,1.0,1.9681975000000875,,,,,,,,,,,,,,,,,,,,,,,,,,,,,,,,,,,,,,,sub-198,1,stroop_test,60.08672918487639,
test,blue,b,1.0,4.0,1.0,1.0,r,0.0,1.7736606000000847,,,,,,,,,,,,,,,,,,1.0,1.0,4.0,2.0,,,,,,,,,50.80404529999987,,,,,,,,,,,,,,,,,50.788021299999855,52.00281859999996,52.81836909999993,52.80223789999991,52.80320280000001,52.81836909999993,52.81836909999993,54.59979980000003,r,0.0,1.7736606000000847,,,,,,,,,,,,,,,,,,,,,,,,,,,,,,,,,,,,,,,sub-198,1,stroop_test,60.08672918487639,
test,red,r,1.0,5.0,2.0,1.0,r,1.0,0.999891400000024,,,,,,,,,,,,,,,,,,1.0,2.0,5.0,0.0,,,,,,,,,54.61590609999985,,,,,,,,,,,,,,,,,54.60031949999984,55.41478570000004,56.23033439999995,56.213838099999975,56.21423329999993,56.23033439999995,56.23033439999995,57.24663889999988,r,1.0,0.999891400000024,,,,,,,,,,,,,,,,,,,,,,,,,,,,,,,,,,,,,,,sub-198,1,stroop_test,60.08672918487639,
test,blue,b,1.0,6.0,0.0,2.0,b,1.0,1.6772234000000026,,,,,,,,,,,,,,,,,,2.0,0.0,6.0,2.0,,,,,,,,,57.262425799999846,,,,,,,,,,,,,,,,,57.24731840000004,58.06119119999994,58.86036459999991,58.84424119999994,58.84513240000001,58.86036459999991,58.86036459999991,60.541447299999845,b,1.0,1.6772234000000026,,,,,,,,,,,,,,,,,,,,,,,,,,,,,,,,,,,,,,,sub-198,1,stroop_test,60.08672918487639,
test,yellow,g,1.0,7.0,1.0,2.0,g,1.0,2.357057800000121,,,,,,,,,,,,,,,,,,2.0,1.0,7.0,1.0,,,,,,,,,60.55771800000002,,,,,,,,,,,,,,,,,60.54170409999983,60.640924299999824,61.44035299999996,61.42427479999992,61.42600719999996,61.44035299999996,61.44035299999996,63.80371859999991,g,1.0,2.357057800000121,,,,,,,,,,,,,,,,,,,,,,,,,,,,,,,,,,,,,,,sub-198,1,stroop_test,60.08672918487639,
test,red,r,1.0,8.0,2.0,2.0,r,1.0,0.5591509999999289,,,,,,,,,,,,,,,,,,2.0,2.0,8.0,0.0,,,,,,,,,63.82006089999982,,,,,,,,,,,,,,,,,63.803969599999846,64.15301629999999,64.96865389999994,64.95218999999997,64.95260209999992,64.96865389999994,64.96865389999994,65.53504350000003,r,1.0,0.5591509999999289,,,,,,,,,,,,,,,,,,,,,,,,,,,,,,,,,,,,,,,sub-198,1,stroop_test,60.08672918487639,
test,yellow,g,1.0,9.0,0.0,3.0,g,1.0,2.563153800000009,,,,,,,,,,,,,,,,,,3.0,0.0,9.0,1.0,,,,,,,,,65.5511962999999,,,,,,,,,,,,,,,,,65.53539299999989,66.74986059999992,67.54889890000004,67.53267570000003,67.53376219999996,67.54889890000004,67.54889890000004,70.12898689999997,g,1.0,2.563153800000009,,,,,,,,,,,,,,,,,,,,,,,,,,,,,,,,,,,,,,,sub-198,1,stroop_test,60.08672918487639,
test,red,r,1.0,10.0,1.0,3.0,r,1.0,0.8285444000000552,,,,,,,,,,,,,,,,,,3.0,1.0,10.0,0.0,,,,,,,,,70.14516329999992,,,,,,,,,,,,,,,,,70.12935309999989,70.47821179999983,71.29360369999995,71.27711419999991,71.27749969999991,71.29360369999995,71.29360369999995,72.12619359999985,r,1.0,0.8285444000000552,,,,,,,,,,,,,,,,,,,,,,,,,,,,,,,,,,,,,,,sub-198,1,stroop_test,60.08672918487639,
test,blue,b,1.0,11.0,2.0,3.0,b,1.0,0.9102768000000196,,,,,,,,,,,,,,,,,,3.0,2.0,11.0,2.0,,,,,,,,,72.14249619999987,,,,,,,,,,,,,,,,,72.12651609999989,73.34097150000002,74.14031490000002,74.12396130000002,74.12500679999994,74.14031490000002,74.14031490000002,75.05573909999998,b,1.0,0.9102768000000196,,,,,,,,,,,,,,,,,,,,,,,,,,,,,,,,,,,,,,,sub-198,1,stroop_test,60.08672918487639,
,,,,,,,,,,,,,,,,,,,,,,,,,,,,,,,,,,,,,,,,,,,,,,,,,,,,,,,,,,,,,,,,,,,,75.05589569999984,75.07220910000001,75.07220910000001,82.06305699999984,space,6.979738600000019,,,,,,,,,,,,,,,,,,,,,,,,,,,,,,,,sub-198,1,stroop_test,60.08672918487639,
,,,,0.0,0.0,0.0,,,,,gelb,yellow,g,1.0,g,1.0,2.3080291999999645,,,,,,,,,,,,,,0.0,0.0,0.0,11.0,,,,,82.11236280000003,,,,,,,,,,,,,,,,,82.10958319999986,82.16261659999986,82.97811119999983,82.96159199999988,,,,,,,,,,,,,,,,82.96564019999983,82.97811119999983,82.97811119999983,85.29197069999987,g,1.0,2.3080291999999645,,85.29726140000002,85.30839470000001,86.30710780000004,,,,,,,,,,,,,,,,,,,,sub-198,1,stroop_test,60.08672918487639,
,,,,1.0,1.0,0.0,,,,,blau,yellow,g,0.0,g,1.0,2.398608700000068,,,,,,,,,,,,,,0.0,1.0,1.0,7.0,,,,,86.32359469999983,,,,,,,,,,,,,,,,,86.30733899999996,86.40689639999982,87.22251989999995,87.20603979999987,,,,,,,,,,,,,,,,87.21051420000003,87.22251989999995,87.22251989999995,89.63629769999989,g,1.0,2.398608700000068,,89.63682389999985,89.6525838,90.65141359999984,,,,,,,,,,,,,,,,,,,,sub-198,1,stroop_test,60.08672918487639,
,,,,2.0,2.0,0.0,,,,,rot,yellow,g,0.0,g,1.0,1.7150406000000658,,,,,,,,,,,,,,0.0,2.0,2.0,3.0,,,,,90.66783459999988,,,,,,,,,,,,,,,,,90.65168749999998,91.45024999999988,92.26571990000002,92.2493247,,,,,,,,,,,,,,,,92.25311650000005,92.26571990000002,92.26571990000002,93.99713419999988,g,1.0,1.7150406000000658,,93.99757019999991,94.01354379999998,95.0124065,,,,,,,,,,,,,,,,,,,,sub-198,1,stroop_test,60.08672918487639,
,,,,3.0,3.0,0.0,,,,,gelb,yellow,g,1.0,g,1.0,1.3019254000000728,,,,,,,,,,,,,,0.0,3.0,3.0,10.0,,,,,95.02864879999991,,,,,,,,,,,,,,,,,95.01268409999987,95.11203299999988,95.9276688,95.91122039999982,,,,,,,,,,,,,,,,95.91344170000002,95.9276688,95.9276688,97.2428671,g,1.0,1.3019254000000728,,97.24326279999993,97.25919329999988,98.25803259999998,,,,,,,,,,,,,,,,,,,,sub-198,1,stroop_test,60.08672918487639,
,,,,4.0,4.0,0.0,,,,,blau,blue,b,1.0,b,1.0,2.716967199999999,,,,,,,,,,,,,,0.0,4.0,4.0,5.0,,,,,98.2744808,,,,,,,,,,,,,,,,,98.25828939999997,99.05682879999996,99.87236179999992,99.85598319999986,,,,,,,,,,,,,,,,99.85834,99.87236179999992,99.87236179999992,102.6024703999999,b,1.0,2.716967199999999,,102.60289009999995,102.61880799999994,103.61775899999998,,,,,,,,,,,,,,,,,,,,sub-198,1,stroop_test,60.08672918487639,
,,,,5.0,5.0,0.0,,,,,rot,red,r,1.0,r,1.0,0.8969640999998774,,,,,,,,,,,,,,0.0,5.0,5.0,1.0,,,,,103.63413949999996,,,,,,,,,,,,,,,,,103.61814499999991,103.96696329999986,104.76616209999996,104.75005420000002,,,,,,,,,,,,,,,,104.7578896,104.76616209999996,104.76616209999996,105.66512669999996,r,1.0,0.8969640999998774,,105.66555819999984,105.68149199999992,106.68023709999989,,,,,,,,,,,,,,,,,,,,sub-198,1,stroop_test,60.08672918487639,
,,,,6.0,6.0,0.0,,,,,rot,red,r,1.0,r,1.0,0.9951432999998816,,,,,,,,,,,,,,0.0,6.0,6.0,0.0,,,,,106.69667779999986,,,,,,,,,,,,,,,,,106.6804901999999,107.02982150000004,107.84518619999994,107.82876420000002,,,,,,,,,,,,,,,,107.82921299999998,107.84518619999994,107.84518619999994,108.84425450000003,r,1.0,0.9951432999998816,,108.84475999999997,108.86057830000004,109.85962889999996,,,,,,,,,,,,,,,,,,,,sub-198,1,stroop_test,60.08672918487639,
,,,,7.0,7.0,0.0,,,,,gelb,red,r,0.0,r,1.0,1.3580646000000345,,,,,,,,,,,,,,0.0,7.0,7.0,8.0,,,,,109.87605299999996,,,,,,,,,,,,,,,,,109.86022949999985,110.65810259999988,111.45717489999991,111.44079399999988,,,,,,,,,,,,,,,,111.44454569999994,111.45717489999991,111.45717489999991,112.82231649999994,r,1.0,1.3580646000000345,,112.8227855,112.83859269999994,113.83750429999986,,,,,,,,,,,,,,,,,,,,sub-198,1,stroop_test,60.08672918487639,
,,,,8.0,8.0,0.0,,,,,blau,blue,b,1.0,b,1.0,1.6848797999998624,,,,,,,,,,,,,,0.0,8.0,8.0,6.0,,,,,113.85385429999997,,,,,,,,,,,,,,,,,113.8378642,115.03576249999992,115.85126149999996,115.83476469999982,,,,,,,,,,,,,,,,115.83746899999984,115.85126149999996,115.85126149999996,117.54994880000004,b,1.0,1.6848797999998624,,117.55080320000002,117.56567199999996,118.56469270000002,,,,,,,,,,,,,,,,,,,,sub-198,1,stroop_test,60.08672918487639,
,,,,9.0,9.0,0.0,,,,,rot,blue,b,0.0,b,1.0,1.307469799999808,,,,,,,,,,,,,,0.0,9.0,9.0,2.0,,,,,118.58119020000004,,,,,,,,,,,,,,,,,118.56511679999994,118.66448979999996,119.47988669999997,119.4634254,,,,,,,,,,,,,,,,119.46740579999982,119.47988669999997,119.47988669999997,120.7951387999999,b,1.0,1.307469799999808,,120.79565509999998,120.81134350000002,121.81024359999992,,,,,,,,,,,,,,,,,,,,sub-198,1,stroop_test,60.08672918487639,
,,,,10.0,10.0,0.0,,,,,blau,red,r,0.0,r,1.0,1.3034757999998874,,,,,,,,,,,,,,0.0,10.0,10.0,4.0,,,,,121.82662929999992,,,,,,,,,,,,,,,,,121.81049970000004,122.60893999999983,123.42461430000004,123.4081744,,,,,,,,,,,,,,,,123.41096649999986,123.42461430000004,123.42461430000004,124.7400252,r,1.0,1.3034757999998874,,124.74065919999998,124.75635799999986,125.75505529999988,,,,,,,,,,,,,,,,,,,,sub-198,1,stroop_test,60.08672918487639,
,,,,11.0,11.0,0.0,,,,,gelb,blue,b,0.0,b,1.0,1.1354840000001332,,,,,,,,,,,,,,0.0,11.0,11.0,9.0,,,,,125.77175220000004,,,,,,,,,,,,,,,,,125.75535489999992,125.85500519999982,126.67030699999988,126.65376530000005,,,,,,,,,,,,,,,,126.65579479999997,126.67030699999988,126.67030699999988,127.81920769999988,b,1.0,1.1354840000001332,,127.81986549999988,127.83563119999984,128.83414040000002,,,,,,,,,,,,,,,,,,,,sub-198,1,stroop_test,60.08672918487639,
,,,,12.0,0.0,1.0,,,,,rot,red,r,1.0,r,1.0,0.979778099999976,,,,,,,,,,,,,,1.0,0.0,12.0,0.0,,,,,128.8506511999999,,,,,,,,,,,,,,,,,128.83439629999998,129.1836002,129.99910469999986,129.98274129999982,,,,,,,,,,,,,,,,129.98502359999998,129.99910469999986,129.99910469999986,130.9816616999999,r,1.0,0.979778099999976,,130.98223799999982,130.99793339999997,131.99672229999987,,,,,,,,,,,,,,,,,,,,sub-198,1,stroop_test,60.08672918487639,
,,,,13.0,1.0,1.0,,,,,gelb,yellow,g,1.0,g,1.0,2.580073099999936,,,,,,,,,,,,,,1.0,1.0,13.0,10.0,,,,,132.0131518999999,,,,,,,,,,,,,,,,,131.9970108,132.3461479,133.16172749999987,133.14534609999987,,,,,,,,,,,,,,,,133.14930549999983,133.16172749999987,133.16172749999987,135.74258510000004,g,1.0,2.580073099999936,,135.74376159999997,135.75861379999992,136.75752769999986,,,,,,,,,,,,,,,,,,,,sub-198,1,stroop_test,60.08672918487639,
,,,,14.0,2.0,1.0,,,,,rot,red,r,1.0,r,1.0,1.3301850000000286,,,,,,,,,,,,,,1.0,2.0,14.0,1.0,,,,,136.77379269999983,,,,,,,,,,,,,,,,,136.75821539999993,137.95531170000004,138.75425180000002,138.7378945999999,,,,,,,,,,,,,,,,138.74206000000004,138.75425180000002,138.75425180000002,140.0860857,r,1.0,1.3301850000000286,,140.08652439999992,140.10245829999985,141.1015178,,,,,,,,,,,,,,,,,,,,sub-198,1,stroop_test,60.08672918487639,
,,,,15.0,3.0,1.0,,,,,gelb,red,r,0.0,r,1.0,1.7806286,,,,,,,,,,,,,,1.0,3.0,15.0,8.0,,,,,141.1178321,,,,,,,,,,,,,,,,,141.10200579999992,141.20110499999987,142.00029010000003,141.98404229999983,,,,,,,,,,,,,,,,141.9908954,142.00029010000003,142.00029010000003,143.79779280000002,r,1.0,1.7806286,,143.7982012,143.81426179999994,144.81311189999997,,,,,,,,,,,,,,,,,,,,sub-198,1,stroop_test,60.08672918487639,
,,,,16.0,4.0,1.0,,,,,blau,yellow,g,0.0,g,1.0,1.4840810000000602,,,,,,,,,,,,,,1.0,4.0,16.0,7.0,,,,,144.8295303,,,,,,,,,,,,,,,,,144.8133917,145.1626185,145.97792119999986,145.96139949999997,,,,,,,,,,,,,,,,145.96367399999986,145.97792119999986,145.97792119999986,147.47622049999995,g,1.0,1.4840810000000602,,147.47659679999992,147.4926871,148.4916808999999,,,,,,,,,,,,,,,,,,,,sub-198,1,stroop_test,60.08672918487639,
,,,,17.0,5.0,1.0,,,,,gelb,blue,b,0.0,b,1.0,1.0640344000000823,,,,,,,,,,,,,,1.0,5.0,17.0,9.0,,,,,148.5082152,,,,,,,,,,,,,,,,,148.49209129999986,148.8409205999999,149.65644049999992,149.6399624999999,,,,,,,,,,,,,,,,149.64230999999995,149.65644049999992,149.65644049999992,150.7219149,b,1.0,1.0640344000000823,,150.7223641999999,150.73837689999982,151.73723440000003,,,,,,,,,,,,,,,,,,,,sub-198,1,stroop_test,60.08672918487639,
,,,,18.0,6.0,1.0,,,,,blau,blue,b,1.0,b,1.0,0.8408922999999504,,,,,,,,,,,,,,1.0,6.0,18.0,5.0,,,,,151.75369209999985,,,,,,,,,,,,,,,,,151.7375216999999,151.83700309999995,152.65267599999993,152.63637559999984,,,,,,,,,,,,,,,,152.64086869999983,152.65267599999993,152.65267599999993,153.50201719999995,b,1.0,0.8408922999999504,,153.50269089999983,153.5181958999999,154.51737830000002,,,,,,,,,,,,,,,,,,,,sub-198,1,stroop_test,60.08672918487639,
,,,,19.0,7.0,1.0,,,,,gelb,yellow,g,1.0,g,1.0,1.743147299999919,,,,,,,,,,,,,,1.0,7.0,19.0,11.0,,,,,154.53372139999988,,,,,,,,,,,,,,,,,154.51808199999982,154.86642299999994,155.6818662999999,155.66531509999982,,,,,,,,,,,,,,,,155.66849879999995,155.6818662999999,155.6818662999999,157.42973199999983,g,1.0,1.743147299999919,,157.43020609999985,157.4461707999999,158.44493319999992,,,,,,,,,,,,,,,,,,,,sub-198,1,stroop_test,60.08672918487639,
,,,,20.0,8.0,1.0,,,,,blau,red,r,0.0,r,1.0,0.6659259999998994,,,,,,,,,,,,,,1.0,8.0,20.0,4.0,,,,,158.46144200000003,,,,,,,,,,,,,,,,,158.4451715,159.24376799999982,160.05942029999983,160.0429342,,,,,,,,,,,,,,,,160.04614419999984,160.05942029999983,160.05942029999983,160.74218210000004,r,1.0,0.6659259999998994,,160.7426011,160.7585036999999,161.7413807999999,161.75737379999987,,,,,,,,,,,,,,,,,,,sub-198,1,stroop_test,60.08672918487639,
,,,,21.0,9.0,1.0,,,,,rot,yellow,g,0.0,g,1.0,1.2404923999999935,,,,,,,,,,,,,,1.0,9.0,21.0,3.0,,,,,161.75737379999987,,,,,,,,,,,,,,,,,161.7420752999999,162.55614409999998,163.3715631,163.35507510000002,,,,,,,,,,,,,,,,163.3573581999999,163.3715631,163.3715631,164.6205006,g,1.0,1.2404923999999935,,164.62113109999996,164.63686259999986,165.6355856999999,,,,,,,,,,,,,,,,,,,,sub-198,1,stroop_test,60.08672918487639,
,,,,22.0,10.0,1.0,,,,,blau,blue,b,1.0,b,1.0,0.7677624000000378,,,,,,,,,,,,,,1.0,10.0,22.0,6.0,,,,,165.65191229999982,,,,,,,,,,,,,,,,,165.63590550000004,165.7351624999999,166.55083790000003,166.53435590000004,,,,,,,,,,,,,,,,166.53709830000005,166.55083790000003,166.55083790000003,167.33338259999982,b,1.0,0.7677624000000378,,167.33382849999998,167.34975369999984,168.34870499999988,,,,,,,,,,,,,,,,,,,,sub-198,1,stroop_test,60.08672918487639,
,,,,23.0,11.0,1.0,,,,,rot,blue,b,0.0,b,1.0,0.9290928999998868,,,,,,,,,,,,,,1.0,11.0,23.0,2.0,,,,,168.36510299999986,,,,,,,,,,,,,,,,,168.3490976999999,168.69790009999997,169.51351499999987,169.49713780000002,,,,,,,,,,,,,,,,169.50011929999982,169.51351499999987,169.51351499999987,170.44599099999982,b,1.0,0.9290928999998868,,170.4464805,170.46232969999983,171.44532619999995,171.46123609999995,,,,,,,,,,,,,,,,,,,sub-198,1,stroop_test,60.08672918487639,
,,,,,,,,,,,,,,,,,,,,,,,,,,,,,,,,,,,,,,,,,,,,,,,,,,,,,,,,,,,,,,,,,,,,,,,,,,,,,,,,,,,,,,,171.44560749999982,171.46123609999995,171.46123609999995,175.07407549999994,space,3.601449599999796,,,,,,,,,,,,,sub-198,1,stroop_test,60.08672918487639,
,,,,0.0,0.0,0.0,,,,,,,,,,,,,gelb,blue,b,0.0,b,1.0,1.792504600000029,,,,,,,,,,0.0,0.0,0.0,9.0,175.18246699999986,,,,,,,,,,,,,,,,,175.17944399999988,175.88287309999987,176.69821849999994,176.68170280000004,,,,,,,,,,,,,,,,,,,,,,,,,,,,,,,,,,,176.68464059999997,176.69821849999994,176.69821849999994,178.4959139,b,1.0,1.792504600000029,,,,,sub-198,1,stroop_test,60.08672918487639,
,,,,1.0,1.0,0.0,,,,,,,,,,,,,gelb,red,r,0.0,r,1.0,1.184388300000137,,,,,,,,,,0.0,1.0,1.0,8.0,178.5122311,,,,,,,,,,,,,,,,,178.49618149999992,179.71093580000002,180.52648739999995,180.5099373999999,,,,,,,,,,,,,,,,,,,,,,,,,,,,,,,,,,,180.5103904,180.52648739999995,180.52648739999995,181.72530239999992,r,1.0,1.184388300000137,,,,,sub-198,1,stroop_test,60.08672918487639,
,,,,2.0,2.0,0.0,,,,,,,,,,,,,blau,blue,b,1.0,b,1.0,1.2777901000001748,,,,,,,,,,0.0,2.0,2.0,5.0,181.74133469999992,,,,,,,,,,,,,,,,,181.7256147999999,182.54042159999997,183.33953959999985,183.32310119999988,,,,,,,,,,,,,,,,,,,,,,,,,,,,,,,,,,,183.329657,183.33953959999985,183.33953959999985,184.6213839,b,1.0,1.2777901000001748,,,,,sub-198,1,stroop_test,60.08672918487639,
,,,,3.0,3.0,0.0,,,,,,,,,,,,,rot,red,r,1.0,r,1.0,0.903708399999914,,,,,,,,,,0.0,3.0,3.0,1.0,184.63757459999988,,,,,,,,,,,,,,,,,184.621797,184.9704941,185.7860145,185.76962099999992,,,,,,,,,,,,,,,,,,,,,,,,,,,,,,,,,,,185.7725948,185.7860145,185.7860145,186.7027349,r,1.0,0.903708399999914,,,,,sub-198,1,stroop_test,60.08672918487639,
,,,,4.0,4.0,0.0,,,,,,,,,,,,,blau,red,r,0.0,r,1.0,1.0775214000000233,,,,,,,,,,0.0,4.0,4.0,4.0,186.7184471999999,,,,,,,,,,,,,,,,,186.70354969999997,186.81834029999985,187.63358419999983,187.6173689,,,,,,,,,,,,,,,,,,,,,,,,,,,,,,,,,,,187.62157549999984,187.63358419999983,187.63358419999983,188.71592429999987,r,1.0,1.0775214000000233,,,,,sub-198,1,stroop_test,60.08672918487639,
,,,,5.0,5.0,0.0,,,,,,,,,,,,,rot,red,r,1.0,r,1.0,0.6229746999999861,,,,,,,,,,0.0,5.0,5.0,0.0,188.7321316,,,,,,,,,,,,,,,,,188.7162589,188.8153943,189.6144629999999,189.59817380000004,,,,,,,,,,,,,,,,,,,,,,,,,,,,,,,,,,,189.603126,189.6144629999999,189.6144629999999,190.24742079999987,r,1.0,0.6229746999999861,,,,,sub-198,1,stroop_test,60.08672918487639,
,,,,6.0,6.0,0.0,,,,,,,,,,,,,blau,blue,b,1.0,b,1.0,1.4804472000000717,,,,,,,,,,0.0,6.0,6.0,6.0,190.2634756,,,,,,,,,,,,,,,,,190.2478458999999,191.06255379999996,191.87810749999997,191.86166919999985,,,,,,,,,,,,,,,,,,,,,,,,,,,,,,,,,,,191.86493069999983,191.87810749999997,191.87810749999997,193.35983179999997,b,1.0,1.4804472000000717,,,,,sub-198,1,stroop_test,60.08672918487639,
,,,,7.0,7.0,0.0,,,,,,,,,,,,,rot,blue,b,0.0,b,1.0,0.6012930000001688,,,,,,,,,,0.0,7.0,7.0,2.0,193.3759937,,,,,,,,,,,,,,,,,193.3602569,194.17497000000003,194.9906351,194.97417669999984,,,,,,,,,,,,,,,,,,,,,,,,,,,,,,,,,,,194.97700829999985,194.9906351,194.9906351,195.6067533999999,b,1.0,0.6012930000001688,,,,,sub-198,1,stroop_test,60.08672918487639,
,,,,8.0,8.0,0.0,,,,,,,,,,,,,rot,yellow,g,0.0,g,1.0,1.18656030000011,,,,,,,,,,0.0,8.0,8.0,3.0,195.6229885,,,,,,,,,,,,,,,,,195.60707899999989,195.70629899999997,196.5055857,196.48940989999983,,,,,,,,,,,,,,,,,,,,,,,,,,,,,,,,,,,196.4905053,196.5055857,196.5055857,197.7039691,g,1.0,1.18656030000011,,,,,sub-198,1,stroop_test,60.08672918487639,
,,,,9.0,9.0,0.0,,,,,,,,,,,,,blau,yellow,g,0.0,g,1.0,0.5142467999999099,,,,,,,,,,0.0,9.0,9.0,7.0,197.72016259999987,,,,,,,,,,,,,,,,,197.70429969999984,198.51924409999992,199.3181949,199.30196249999997,,,,,,,,,,,,,,,,,,,,,,,,,,,,,,,,,,,199.30758819999983,199.3181949,199.3181949,199.83509459999985,g,1.0,0.5142467999999099,,,,,sub-198,1,stroop_test,60.08672918487639,
,,,,10.0,10.0,0.0,,,,,,,,,,,,,gelb,yellow,g,1.0,g,1.0,0.6783927999999833,,,,,,,,,,0.0,10.0,10.0,10.0,199.8510695,,,,,,,,,,,,,,,,,199.83585819999985,200.20035719999987,201.0159905999999,200.99957470000004,,,,,,,,,,,,,,,,,,,,,,,,,,,,,,,,,,,201.00276169999984,201.0159905999999,201.0159905999999,201.69864740000003,g,1.0,0.6783927999999833,,,,,sub-198,1,stroop_test,60.08672918487639,
,,,,11.0,11.0,0.0,,,,,,,,,,,,,gelb,yellow,g,1.0,g,1.0,0.6494919000001573,,,,,,,,,,0.0,11.0,11.0,11.0,201.7149460999999,,,,,,,,,,,,,,,,,201.6989242,202.51400489999992,203.31295529999989,203.29665269999987,,,,,,,,,,,,,,,,,,,,,,,,,,,,,,,,,,,203.29719439999985,203.31295529999989,203.31295529999989,203.97897649999985,g,1.0,0.6494919000001573,,,,,sub-198,1,stroop_test,60.08672918487639,
,,,,12.0,0.0,1.0,,,,,,,,,,,,,gelb,red,r,0.0,r,1.0,1.0136485000000448,,,,,,,,,,1.0,0.0,12.0,8.0,203.9952744,,,,,,,,,,,,,,,,,203.97929579999985,204.07858029999989,204.89415289999988,204.8776699,,,,,,,,,,,,,,,,,,,,,,,,,,,,,,,,,,,204.87804859999983,204.89415289999988,204.89415289999988,205.9097826,r,1.0,1.0136485000000448,,,,,sub-198,1,stroop_test,60.08672918487639,
,,,,13.0,1.0,1.0,,,,,,,,,,,,,blau,blue,b,1.0,b,1.0,0.7690579000000071,,,,,,,,,,1.0,1.0,13.0,5.0,205.9260443999999,,,,,,,,,,,,,,,,,205.9100796,206.25897769999983,207.0746015,207.05828079999992,,,,,,,,,,,,,,,,,,,,,,,,,,,,,,,,,,,207.06206099999983,207.0746015,207.0746015,207.8572528,b,1.0,0.7690579000000071,,,,,sub-198,1,stroop_test,60.08672918487639,
,,,,14.0,2.0,1.0,,,,,,,,,,,,,gelb,blue,b,0.0,b,1.0,1.1030702000000474,,,,,,,,,,1.0,2.0,14.0,9.0,207.873484,,,,,,,,,,,,,,,,,207.85762019999996,208.2230081,209.03871230000004,209.0221959999999,,,,,,,,,,,,,,,,,,,,,,,,,,,,,,,,,,,209.02439379999987,209.03871230000004,209.03871230000004,210.15411240000003,b,1.0,1.1030702000000474,,,,,sub-198,1,stroop_test,60.08672918487639,
,,,,15.0,3.0,1.0,,,,,,,,,,,,,rot,yellow,g,0.0,g,1.0,1.1319315000000645,,,,,,,,,,1.0,3.0,15.0,3.0,210.1703943,,,,,,,,,,,,,,,,,210.15441149999992,210.5032521999999,211.30237579999996,211.28650759999985,,,,,,,,,,,,,,,,,,,,,,,,,,,,,,,,,,,211.29238139999984,211.30237579999996,211.30237579999996,212.4351924,g,1.0,1.1319315000000645,,,,,sub-198,1,stroop_test,60.08672918487639,
,,,,16.0,4.0,1.0,,,,,,,,,,,,,rot,blue,b,0.0,b,1.0,1.4189773000000514,,,,,,,,,,1.0,4.0,16.0,2.0,212.45103449999988,,,,,,,,,,,,,,,,,212.43600619999984,212.5506929999999,213.36641639999996,213.34979879999992,,,,,,,,,,,,,,,,,,,,,,,,,,,,,,,,,,,213.3501775,213.36641639999996,213.36641639999996,214.7980556,b,1.0,1.4189773000000514,,,,,sub-198,1,stroop_test,60.08672918487639,
,,,,17.0,5.0,1.0,,,,,,,,,,,,,blau,blue,b,1.0,b,1.0,1.0369218000000728,,,,,,,,,,1.0,5.0,17.0,6.0,214.8142972999999,,,,,,,,,,,,,,,,,214.7984382,215.1637386,215.96287059999983,215.94637379999995,,,,,,,,,,,,,,,,,,,,,,,,,,,,,,,,,,,215.94937529999996,215.96287059999983,215.96287059999983,217.01194769999984,b,1.0,1.0369218000000728,,,,,sub-198,1,stroop_test,60.08672918487639,
,,,,18.0,6.0,1.0,,,,,,,,,,,,,rot,red,r,1.0,r,1.0,1.0358130000001893,,,,,,,,,,1.0,6.0,18.0,0.0,217.0280717999999,,,,,,,,,,,,,,,,,217.0123974999999,217.37755829999992,218.19315469999992,218.17680969999992,,,,,,,,,,,,,,,,,,,,,,,,,,,,,,,,,,,218.18007629999988,218.19315469999992,218.19315469999992,219.2427358,r,1.0,1.0358130000001893,,,,,sub-198,1,stroop_test,60.08672918487639,
,,,,19.0,7.0,1.0,,,,,,,,,,,,,gelb,yellow,g,1.0,g,1.0,0.7449128000000655,,,,,,,,,,1.0,7.0,19.0,11.0,219.25867449999987,,,,,,,,,,,,,,,,,219.2434031,220.4567775999999,221.2724814999999,221.25596129999985,,,,,,,,,,,,,,,,,,,,,,,,,,,,,,,,,,,221.25830269999983,221.2724814999999,221.2724814999999,222.02183909999985,g,1.0,0.7449128000000655,,,,,sub-198,1,stroop_test,60.08672918487639,
,,,,20.0,8.0,1.0,,,,,,,,,,,,,blau,red,r,0.0,r,1.0,1.0986535000001822,,,,,,,,,,1.0,8.0,20.0,4.0,222.0380164999999,,,,,,,,,,,,,,,,,222.02218099999985,222.12131520000003,222.9368972,222.92040729999985,,,,,,,,,,,,,,,,,,,,,,,,,,,,,,,,,,,222.92320649999988,222.9368972,222.9368972,224.03597360000003,r,1.0,1.0986535000001822,,,,,sub-198,1,stroop_test,60.08672918487639,
,,,,21.0,9.0,1.0,,,,,,,,,,,,,rot,red,r,1.0,r,1.0,0.7811953999998877,,,,,,,,,,1.0,9.0,21.0,1.0,224.05194069999996,,,,,,,,,,,,,,,,,224.0363167999999,224.13533269999996,224.93426750000003,224.91792399999983,,,,,,,,,,,,,,,,,,,,,,,,,,,,,,,,,,,224.92143609999997,224.93426750000003,224.93426750000003,225.71681620000004,r,1.0,0.7811953999998877,,,,,sub-198,1,stroop_test,60.08672918487639,
,,,,22.0,10.0,1.0,,,,,,,,,,,,,blau,yellow,g,0.0,g,1.0,1.0378886000000875,,,,,,,,,,1.0,10.0,22.0,7.0,225.73308269999984,,,,,,,,,,,,,,,,,225.71707219999985,226.93156469999985,227.73089589999995,227.7147341,,,,,,,,,,,,,,,,,,,,,,,,,,,,,,,,,,,227.72254039999984,227.73089589999995,227.73089589999995,228.77936779999985,g,1.0,1.0378886000000875,,,,,sub-198,1,stroop_test,60.08672918487639,
,,,,23.0,11.0,1.0,,,,,,,,,,,,,gelb,yellow,g,1.0,g,1.0,0.516426299999921,,,,,,,,,,1.0,11.0,23.0,10.0,228.79572139999985,,,,,,,,,,,,,,,,,228.7796959,229.99420599999985,230.79324359999987,230.7768183999999,,,,,,,,,,,,,,,,,,,,,,,,,,,,,,,,,,,230.7791634,230.79324359999987,230.79324359999987,231.32601349999985,g,1.0,0.516426299999921,,,,,sub-198,1,stroop_test,60.08672918487639,
,,,,24.0,0.0,2.0,,,,,,,,,,,,,blau,yellow,g,0.0,g,1.0,0.8490443000000596,,,,,,,,,,2.0,0.0,24.0,7.0,231.3423484,,,,,,,,,,,,,,,,,231.3263064,231.6756286,232.4747588,232.45866449999997,,,,,,,,,,,,,,,,,,,,,,,,,,,,,,,,,,,232.4665891,232.4747588,232.4747588,233.3401248,g,1.0,0.8490443000000596,,,,,sub-198,1,stroop_test,60.08672918487639,
,,,,25.0,1.0,2.0,,,,,,,,,,,,,gelb,red,r,0.0,r,1.0,1.4608926000000793,,,,,,,,,,2.0,1.0,25.0,8.0,233.35642429999984,,,,,,,,,,,,,,,,,233.34043769999997,233.68929430000003,234.48843679999985,234.4719915999999,,,,,,,,,,,,,,,,,,,,,,,,,,,,,,,,,,,234.4763917,234.48843679999985,234.48843679999985,235.95338679999983,r,1.0,1.4608926000000793,,,,,sub-198,1,stroop_test,60.08672918487639,
,,,,26.0,2.0,2.0,,,,,,,,,,,,,gelb,yellow,g,1.0,g,1.0,1.0022665000001325,,,,,,,,,,2.0,2.0,26.0,10.0,235.9695439,,,,,,,,,,,,,,,,,235.95375969999984,236.05284399999985,236.8686097,236.8522089999999,,,,,,,,,,,,,,,,,,,,,,,,,,,,,,,,,,,236.85279990000004,236.8686097,236.8686097,237.88403169999992,g,1.0,1.0022665000001325,,,,,sub-198,1,stroop_test,60.08672918487639,
,,,,27.0,3.0,2.0,,,,,,,,,,,,,rot,red,r,1.0,r,1.0,0.5907042999999703,,,,,,,,,,2.0,3.0,27.0,1.0,237.9003029999999,,,,,,,,,,,,,,,,,237.88431130000004,237.98353580000003,238.78338499999995,238.76685639999985,,,,,,,,,,,,,,,,,,,,,,,,,,,,,,,,,,,238.77018769999995,238.78338499999995,238.78338499999995,239.38304849999983,r,1.0,0.5907042999999703,,,,,sub-198,1,stroop_test,60.08672918487639,
,,,,28.0,4.0,2.0,,,,,,,,,,,,,rot,blue,b,0.0,b,1.0,1.0113179999998465,,,,,,,,,,2.0,4.0,28.0,2.0,239.3988761999999,,,,,,,,,,,,,,,,,239.3833101,240.19736019999985,241.01282089999995,240.99680799999987,,,,,,,,,,,,,,,,,,,,,,,,,,,,,,,,,,,240.99718859999984,241.01282089999995,241.01282089999995,242.02854839999983,b,1.0,1.0113179999998465,,,,,sub-198,1,stroop_test,60.08672918487639,
,,,,29.0,5.0,2.0,,,,,,,,,,,,,blau,red,r,0.0,r,1.0,1.160976100000198,,,,,,,,,,2.0,5.0,29.0,4.0,242.04487569999992,,,,,,,,,,,,,,,,,242.02884999999992,242.12820969999984,242.94371349999983,242.927283,,,,,,,,,,,,,,,,,,,,,,,,,,,,,,,,,,,242.9299656999999,242.94371349999983,242.94371349999983,244.10904059999984,r,1.0,1.160976100000198,,,,,sub-198,1,stroop_test,60.08672918487639,
,,,,30.0,6.0,2.0,,,,,,,,,,,,,blau,blue,b,1.0,b,1.0,0.9722867999998924,,,,,,,,,,2.0,6.0,30.0,5.0,244.1253697,,,,,,,,,,,,,,,,,244.1093071,244.4583367,245.25732359999984,245.24087050000003,,,,,,,,,,,,,,,,,,,,,,,,,,,,,,,,,,,245.24122650000004,245.25732359999984,245.25732359999984,246.2395179,b,1.0,0.9722867999998924,,,,,sub-198,1,stroop_test,60.08672918487639,
,,,,31.0,7.0,2.0,,,,,,,,,,,,,rot,yellow,g,0.0,g,1.0,1.5210981000000174,,,,,,,,,,2.0,7.0,31.0,3.0,246.25587369999997,,,,,,,,,,,,,,,,,246.2397778,246.33911709999984,247.13818289999995,247.1218285,,,,,,,,,,,,,,,,,,,,,,,,,,,,,,,,,,,247.1250481,247.13818289999995,247.13818289999995,248.6699647999999,g,1.0,1.5210981000000174,,,,,sub-198,1,stroop_test,60.08672918487639,
,,,,32.0,8.0,2.0,,,,,,,,,,,,,rot,red,r,1.0,r,1.0,0.7340520999998716,,,,,,,,,,2.0,8.0,32.0,0.0,248.68608529999983,,,,,,,,,,,,,,,,,248.67039980000004,249.8845778,250.7001885,250.6838777999999,,,,,,,,,,,,,,,,,,,,,,,,,,,,,,,,,,,250.68445929999984,250.7001885,250.7001885,251.4495044,r,1.0,0.7340520999998716,,,,,sub-198,1,stroop_test,60.08672918487639,
,,,,33.0,9.0,2.0,,,,,,,,,,,,,gelb,yellow,g,1.0,g,1.0,1.2511272000001554,,,,,,,,,,2.0,9.0,33.0,11.0,251.46572739999988,,,,,,,,,,,,,,,,,251.44986759999983,252.2650048999999,253.08042920000003,253.06392069999995,,,,,,,,,,,,,,,,,,,,,,,,,,,,,,,,,,,253.06640819999984,253.08042920000003,253.08042920000003,254.34569609999997,g,1.0,1.2511272000001554,,,,,sub-198,1,stroop_test,60.08672918487639,
,,,,34.0,10.0,2.0,,,,,,,,,,,,,gelb,blue,b,0.0,b,1.0,1.006613600000037,,,,,,,,,,2.0,10.0,34.0,9.0,254.3618698,,,,,,,,,,,,,,,,,254.3460086,254.44510849999983,255.260763,255.24436109999988,,,,,,,,,,,,,,,,,,,,,,,,,,,,,,,,,,,255.2447514999999,255.260763,255.260763,256.2765442,b,1.0,1.006613600000037,,,,,sub-198,1,stroop_test,60.08672918487639,
,,,,35.0,11.0,2.0,,,,,,,,,,,,,blau,blue,b,1.0,b,1.0,2.198180999999977,,,,,,,,,,2.0,11.0,35.0,6.0,256.2927278999998,,,,,,,,,,,,,,,,,256.2770381999999,257.4912772,258.30685389999985,258.2905736,,,,,,,,,,,,,,,,,,,,,,,,,,,,,,,,,,,258.2962538,258.30685389999985,258.30685389999985,260.5208614999999,b,1.0,2.198180999999977,,,,,sub-198,1,stroop_test,60.08672918487639,
,,,,36.0,0.0,3.0,,,,,,,,,,,,,gelb,yellow,g,1.0,g,1.0,1.9562802000000372,,,,,,,,,,3.0,0.0,36.0,11.0,260.53698940000004,,,,,,,,,,,,,,,,,260.5211890999999,260.6202850999998,261.4358528999999,261.4195017,,,,,,,,,,,,,,,,,,,,,,,,,,,,,,,,,,,261.4219423,261.4358528999999,261.4358528999999,263.40019929999994,g,1.0,1.9562802000000372,,,,,sub-198,1,stroop_test,60.08672918487639,
,,,,37.0,1.0,3.0,,,,,,,,,,,,,rot,red,r,1.0,r,1.0,0.7998435999998037,,,,,,,,,,3.0,1.0,37.0,0.0,263.4164364999999,,,,,,,,,,,,,,,,,263.4004929,263.49991869999985,264.3153537999999,264.29907619999994,,,,,,,,,,,,,,,,,,,,,,,,,,,,,,,,,,,264.3040377,264.3153537999999,264.3153537999999,265.13170590000004,r,1.0,0.7998435999998037,,,,,sub-198,1,stroop_test,60.08672918487639,
,,,,38.0,2.0,3.0,,,,,,,,,,,,,gelb,yellow,g,1.0,g,1.0,0.95636780000018,,,,,,,,,,3.0,2.0,38.0,10.0,265.1478078,,,,,,,,,,,,,,,,,265.1323507,265.23095549999994,266.04649240000003,266.03005269999994,,,,,,,,,,,,,,,,,,,,,,,,,,,,,,,,,,,266.03274379999993,266.04649240000003,266.04649240000003,267.0123695,g,1.0,0.95636780000018,,,,,sub-198,1,stroop_test,60.08672918487639,
,,,,39.0,3.0,3.0,,,,,,,,,,,,,blau,blue,b,1.0,b,1.0,0.8554401000001235,,,,,,,,,,3.0,3.0,39.0,6.0,267.02849219999985,,,,,,,,,,,,,,,,,267.01282279999987,267.1117866,267.91084149999983,267.89454239999986,,,,,,,,,,,,,,,,,,,,,,,,,,,,,,,,,,,267.9000096999998,267.91084149999983,267.91084149999983,268.77651019999985,b,1.0,0.8554401000001235,,,,,sub-198,1,stroop_test,60.08672918487639,
,,,,40.0,4.0,3.0,,,,,,,,,,,,,gelb,red,r,0.0,r,1.0,0.9556659999998374,,,,,,,,,,3.0,4.0,40.0,8.0,268.79273539999986,,,,,,,,,,,,,,,,,268.7768759999999,269.1256845999999,269.9249947999999,269.90889389999984,,,,,,,,,,,,,,,,,,,,,,,,,,,,,,,,,,,269.915839,269.9249947999999,269.9249947999999,270.89026449999983,r,1.0,0.9556659999998374,,,,,sub-198,1,stroop_test,60.08672918487639,
,,,,41.0,5.0,3.0,,,,,,,,,,,,,gelb,blue,b,0.0,b,1.0,0.7476064999998471,,,,,,,,,,3.0,5.0,41.0,9.0,270.9065163,,,,,,,,,,,,,,,,,270.89052879999986,271.7056129,272.5211806,272.5047781999999,,,,,,,,,,,,,,,,,,,,,,,,,,,,,,,,,,,272.5051478999999,272.5211806,272.5211806,273.2709525,b,1.0,0.7476064999998471,,,,,sub-198,1,stroop_test,60.08672918487639,
,,,,42.0,6.0,3.0,,,,,,,,,,,,,rot,yellow,g,0.0,r,0.0,1.4528073000001314,,,,,,,,,,3.0,6.0,42.0,3.0,273.2870258999999,,,,,,,,,,,,,,,,,273.2715576999999,274.0863388999999,274.9014427,274.88499,,,,,,,,,,,,,,,,,,,,,,,,,,,,,,,,,,,274.88824750000003,274.9014427,274.9014427,276.3664351,r,0.0,1.4528073000001314,,,,,sub-198,1,stroop_test,60.08672918487639,
,,,,43.0,7.0,3.0,,,,,,,,,,,,,blau,blue,b,1.0,b,1.0,1.3290145000000848,,,,,,,,,,3.0,7.0,43.0,5.0,276.3827156,,,,,,,,,,,,,,,,,276.3667495999998,276.7156358999998,277.5145662,277.4982256999999,,,,,,,,,,,,,,,,,,,,,,,,,,,,,,,,,,,277.50217099999986,277.5145662,277.5145662,278.8465242999998,b,1.0,1.3290145000000848,,,,,sub-198,1,stroop_test,60.08672918487639,
,,,,44.0,8.0,3.0,,,,,,,,,,,,,rot,blue,b,0.0,b,1.0,1.2832946999999422,,,,,,,,,,3.0,8.0,44.0,2.0,278.8627506,,,,,,,,,,,,,,,,,278.8468785,278.9460423999999,279.74514039999985,279.72888779999994,,,,,,,,,,,,,,,,,,,,,,,,,,,,,,,,,,,279.7342091999999,279.74514039999985,279.74514039999985,281.04369329999986,b,1.0,1.2832946999999422,,,,,sub-198,1,stroop_test,60.08672918487639,
,,,,45.0,9.0,3.0,,,,,,,,,,,,,blau,red,r,0.0,r,1.0,1.0503850000000057,,,,,,,,,,3.0,9.0,45.0,4.0,281.059812,,,,,,,,,,,,,,,,,281.0440641,281.1430971,281.9420379999999,281.9258817,,,,,,,,,,,,,,,,,,,,,,,,,,,,,,,,,,,281.93006279999986,281.9420379999999,281.9420379999999,283.00825039999995,r,1.0,1.0503850000000057,,,,,sub-198,1,stroop_test,60.08672918487639,
,,,,46.0,10.0,3.0,,,,,,,,,,,,,blau,yellow,g,0.0,g,1.0,1.054383700000017,,,,,,,,,,3.0,10.0,46.0,7.0,283.02421559999993,,,,,,,,,,,,,,,,,283.00904449999985,283.82289760000003,284.6221034,284.6056747,,,,,,,,,,,,,,,,,,,,,,,,,,,,,,,,,,,284.60641769999984,284.6221034,284.6221034,285.68740849999995,g,1.0,1.054383700000017,,,,,sub-198,1,stroop_test,60.08672918487639,
,,,,47.0,11.0,3.0,,,,,,,,,,,,,rot,red,r,1.0,r,1.0,0.8900280000000294,,,,,,,,,,3.0,11.0,47.0,1.0,285.7036682999999,,,,,,,,,,,,,,,,,285.6877365999999,286.90221610000003,287.7011834,287.6848677999999,,,,,,,,,,,,,,,,,,,,,,,,,,,,,,,,,,,287.69005930000003,287.7011834,287.7011834,288.6008741999999,r,1.0,0.8900280000000294,,,,,sub-198,1,stroop_test,60.08672918487639,
,,,,48.0,0.0,4.0,,,,,,,,,,,,,blau,blue,b,1.0,b,1.0,0.6926392999998825,,,,,,,,,,4.0,0.0,48.0,5.0,288.61678729999994,,,,,,,,,,,,,,,,,288.6016726999999,289.8150223,290.6305344,290.6141094,,,,,,,,,,,,,,,,,,,,,,,,,,,,,,,,,,,290.6168379999999,290.6305344,290.6305344,291.3306981999999,b,1.0,0.6926392999998825,,,,,sub-198,1,stroop_test,60.08672918487639,
,,,,49.0,1.0,4.0,,,,,,,,,,,,,rot,blue,b,0.0,b,1.0,0.7841852999999901,,,,,,,,,,4.0,1.0,49.0,2.0,291.3465131999999,,,,,,,,,,,,,,,,,291.33151069999985,291.4464516999999,292.2617883999999,292.24526419999984,,,,,,,,,,,,,,,,,,,,,,,,,,,,,,,,,,,292.24783419999994,292.2617883999999,292.2617883999999,293.0610488,b,1.0,0.7841852999999901,,,,,sub-198,1,stroop_test,60.08672918487639,
,,,,50.0,2.0,4.0,,,,,,,,,,,,,blau,red,r,0.0,r,1.0,1.0152038999999604,,,,,,,,,,4.0,2.0,50.0,4.0,293.0772158999998,,,,,,,,,,,,,,,,,293.06140329999994,294.2756715999999,295.0913519999999,295.0749311,,,,,,,,,,,,,,,,,,,,,,,,,,,,,,,,,,,295.07808090000003,295.0913519999999,295.0913519999999,296.10701819999986,r,1.0,1.0152038999999604,,,,,sub-198,1,stroop_test,60.08672918487639,
,,,,51.0,3.0,4.0,,,,,,,,,,,,,gelb,yellow,g,1.0,g,1.0,0.8088391999999658,,,,,,,,,,4.0,3.0,51.0,10.0,296.12311639999984,,,,,,,,,,,,,,,,,296.10739249999983,296.9224870999999,297.73778259999995,297.72132599999986,,,,,,,,,,,,,,,,,,,,,,,,,,,,,,,,,,,297.7234460999998,297.73778259999995,297.73778259999995,298.55401959999995,g,1.0,0.8088391999999658,,,,,sub-198,1,stroop_test,60.08672918487639,
,,,,52.0,4.0,4.0,,,,,,,,,,,,,gelb,red,r,0.0,r,1.0,1.0600908000001257,,,,,,,,,,4.0,4.0,52.0,8.0,298.5700878,,,,,,,,,,,,,,,,,298.55446459999985,299.36903689999986,300.1845475,300.16806109999993,,,,,,,,,,,,,,,,,,,,,,,,,,,,,,,,,,,300.1685346,300.1845475,300.1845475,301.250133,r,1.0,1.0600908000001257,,,,,sub-198,1,stroop_test,60.08672918487639,
,,,,53.0,5.0,4.0,,,,,,,,,,,,,blau,blue,b,1.0,b,1.0,0.9083690999998452,,,,,,,,,,4.0,5.0,53.0,6.0,301.26643969999986,,,,,,,,,,,,,,,,,301.2504692,301.3496694999999,302.1489015999998,302.13248780000004,,,,,,,,,,,,,,,,,,,,,,,,,,,,,,,,,,,302.138201,302.1489015999998,302.1489015999998,303.06436239999994,b,1.0,0.9083690999998452,,,,,sub-198,1,stroop_test,60.08672918487639,
,,,,54.0,6.0,4.0,,,,,,,,,,,,,rot,red,r,1.0,r,1.0,0.8661534999998821,,,,,,,,,,4.0,6.0,54.0,0.0,303.0806889999999,,,,,,,,,,,,,,,,,303.0646758999999,304.2792241999998,305.0946612,305.0783859999999,,,,,,,,,,,,,,,,,,,,,,,,,,,,,,,,,,,305.08198100000004,305.0946612,305.0946612,305.9770587999999,r,1.0,0.8661534999998821,,,,,sub-198,1,stroop_test,60.08672918487639,
,,,,55.0,7.0,4.0,,,,,,,,,,,,,rot,red,r,1.0,r,1.0,0.5992958000001636,,,,,,,,,,4.0,7.0,55.0,1.0,305.99346330000003,,,,,,,,,,,,,,,,,305.9773054,306.07680719999985,306.8924978,306.8761749999999,,,,,,,,,,,,,,,,,,,,,,,,,,,,,,,,,,,306.87679579999985,306.8924978,306.8924978,307.50871699999993,r,1.0,0.5992958000001636,,,,,sub-198,1,stroop_test,60.08672918487639,
,,,,56.0,8.0,4.0,,,,,,,,,,,,,blau,yellow,g,0.0,g,1.0,0.7914198000000852,,,,,,,,,,4.0,8.0,56.0,7.0,307.5248881,,,,,,,,,,,,,,,,,307.5092086,307.6080454999999,308.40702450000003,308.3911456999999,,,,,,,,,,,,,,,,,,,,,,,,,,,,,,,,,,,308.3980488,308.40702450000003,308.40702450000003,309.20645590000004,g,1.0,0.7914198000000852,,,,,sub-198,1,stroop_test,60.08672918487639,
,,,,57.0,9.0,4.0,,,,,,,,,,,,,gelb,blue,b,0.0,b,1.0,0.5518248999999287,,,,,,,,,,4.0,9.0,57.0,9.0,309.222612,,,,,,,,,,,,,,,,,309.2068684999999,310.4210871,311.2366064999999,311.22016659999986,,,,,,,,,,,,,,,,,,,,,,,,,,,,,,,,,,,311.2227565999999,311.2366064999999,311.2366064999999,311.8031974999999,b,1.0,0.5518248999999287,,,,,sub-198,1,stroop_test,60.08672918487639,
,,,,58.0,10.0,4.0,,,,,,,,,,,,,rot,yellow,g,0.0,g,1.0,1.3358353000000989,,,,,,,,,,4.0,10.0,58.0,3.0,311.81924059999983,,,,,,,,,,,,,,,,,311.80376669999987,311.90246890000003,312.7178514,312.70136690000004,,,,,,,,,,,,,,,,,,,,,,,,,,,,,,,,,,,312.70411679999984,312.7178514,312.7178514,314.066339,g,1.0,1.3358353000000989,,,,,sub-198,1,stroop_test,60.08672918487639,
,,,,59.0,11.0,4.0,,,,,,,,,,,,,gelb,yellow,g,1.0,g,1.0,0.7680620000000999,,,,,,,,,,4.0,11.0,59.0,11.0,314.08267479999995,,,,,,,,,,,,,,,,,314.06659319999994,314.16598669999985,314.9816053,314.96503469999993,,,,,,,,,,,,,,,,,,,,,,,,,,,,,,,,,,,314.96711400000004,314.9816053,314.9816053,315.7642031999999,g,1.0,0.7680620000000999,,,,,sub-198,1,stroop_test,60.08672918487639,
,,,,60.0,0.0,5.0,,,,,,,,,,,,,gelb,yellow,g,1.0,g,1.0,0.5713943999999174,,,,,,,,,,5.0,0.0,60.0,10.0,315.7805506999998,,,,,,,,,,,,,,,,,315.7644842999998,316.9789581,317.794533,317.7779363999998,,,,,,,,,,,,,,,,,,,,,,,,,,,,,,,,,,,317.7782955,317.794533,317.794533,318.37733389999994,g,1.0,0.5713943999999174,,,,,sub-198,1,stroop_test,60.08672918487639,
,,,,61.0,1.0,5.0,,,,,,,,,,,,,gelb,yellow,g,1.0,g,1.0,0.9616419999999836,,,,,,,,,,5.0,1.0,61.0,11.0,318.3935996,,,,,,,,,,,,,,,,,318.3776134,318.47687789999986,319.29255309999985,319.2759779999999,,,,,,,,,,,,,,,,,,,,,,,,,,,,,,,,,,,319.27633990000004,319.29255309999985,319.29255309999985,320.25818359999994,g,1.0,0.9616419999999836,,,,,sub-198,1,stroop_test,60.08672918487639,
,,,,62.0,2.0,5.0,,,,,,,,,,,,,blau,red,r,0.0,r,1.0,0.8457386000000042,,,,,,,,,,5.0,2.0,62.0,4.0,320.27472349999994,,,,,,,,,,,,,,,,,320.2584474,321.07384869999987,321.8892228999998,321.8726552999999,,,,,,,,,,,,,,,,,,,,,,,,,,,,,,,,,,,321.87564729999986,321.8892228999998,321.8892228999998,322.73857669999984,r,1.0,0.8457386000000042,,,,,sub-198,1,stroop_test,60.08672918487639,
,,,,63.0,3.0,5.0,,,,,,,,,,,,,rot,yellow,g,0.0,g,1.0,1.253134300000056,,,,,,,,,,5.0,3.0,63.0,3.0,322.75472019999984,,,,,,,,,,,,,,,,,322.7389696,323.9530884999999,324.75204080000003,324.73571919999995,,,,,,,,,,,,,,,,,,,,,,,,,,,,,,,,,,,324.73816179999994,324.75204080000003,324.75204080000003,326.01806769999985,g,1.0,1.253134300000056,,,,,sub-198,1,stroop_test,60.08672918487639,
,,,,64.0,4.0,5.0,,,,,,,,,,,,,gelb,blue,b,0.0,b,1.0,0.7454400999999962,,,,,,,,,,5.0,4.0,64.0,9.0,326.03372279999985,,,,,,,,,,,,,,,,,326.0188151,326.1334929,326.9492094999998,326.93260669999995,,,,,,,,,,,,,,,,,,,,,,,,,,,,,,,,,,,326.9349508,326.9492094999998,326.9492094999998,327.69847979999986,b,1.0,0.7454400999999962,,,,,sub-198,1,stroop_test,60.08672918487639,
,,,,65.0,5.0,5.0,,,,,,,,,,,,,rot,blue,b,0.0,b,1.0,1.1481564999999136,,,,,,,,,,5.0,5.0,65.0,2.0,327.7148124999999,,,,,,,,,,,,,,,,,327.6988263999999,327.7984595999999,328.6136139,328.5972242999999,,,,,,,,,,,,,,,,,,,,,,,,,,,,,,,,,,,328.60097069999983,328.6136139,328.6136139,329.7623879,b,1.0,1.1481564999999136,,,,,sub-198,1,stroop_test,60.08672918487639,
,,,,66.0,6.0,5.0,,,,,,,,,,,,,gelb,red,r,0.0,r,1.0,1.0427824000000785,,,,,,,,,,5.0,6.0,66.0,8.0,329.77867279999987,,,,,,,,,,,,,,,,,329.76268559999994,330.57757689999994,331.39322389999984,331.3767017,,,,,,,,,,,,,,,,,,,,,,,,,,,,,,,,,,,331.3791047999998,331.39322389999984,331.39322389999984,332.4420037,r,1.0,1.0427824000000785,,,,,sub-198,1,stroop_test,60.08672918487639,
,,,,67.0,7.0,5.0,,,,,,,,,,,,,rot,red,r,1.0,r,1.0,0.5565730000000713,,,,,,,,,,5.0,7.0,67.0,0.0,332.4584602,,,,,,,,,,,,,,,,,332.44227639999986,333.2574012,334.0729790999999,334.0564772,,,,,,,,,,,,,,,,,,,,,,,,,,,,,,,,,,,334.0593864,334.0729790999999,334.0729790999999,334.63953819999983,r,1.0,0.5565730000000713,,,,,sub-198,1,stroop_test,60.08672918487639,
,,,,68.0,8.0,5.0,,,,,,,,,,,,,blau,yellow,g,0.0,g,1.0,0.9763075999999272,,,,,,,,,,5.0,8.0,68.0,7.0,334.65556100000003,,,,,,,,,,,,,,,,,334.64001169999983,334.7388862,335.5544124999999,335.5379685999999,,,,,,,,,,,,,,,,,,,,,,,,,,,,,,,,,,,335.540329,335.5544124999999,335.5544124999999,336.53672329999995,g,1.0,0.9763075999999272,,,,,sub-198,1,stroop_test,60.08672918487639,
,,,,69.0,9.0,5.0,,,,,,,,,,,,,blau,blue,b,1.0,b,1.0,0.7467524000001049,,,,,,,,,,5.0,9.0,69.0,5.0,336.55301280000003,,,,,,,,,,,,,,,,,336.5369676999999,336.6362939999999,337.45185259999994,337.4352686999998,,,,,,,,,,,,,,,,,,,,,,,,,,,,,,,,,,,337.4356178999999,337.45185259999994,337.45185259999994,338.20123539999986,b,1.0,0.7467524000001049,,,,,sub-198,1,stroop_test,60.08672918487639,
,,,,70.0,10.0,5.0,,,,,,,,,,,,,rot,red,r,1.0,r,1.0,0.7774374000000535,,,,,,,,,,5.0,10.0,70.0,1.0,338.2175192,,,,,,,,,,,,,,,,,338.2015468,339.0165256999999,339.81553009999993,339.7991758999999,,,,,,,,,,,,,,,,,,,,,,,,,,,,,,,,,,,339.8028810999999,339.81553009999993,339.81553009999993,340.5983274,r,1.0,0.7774374000000535,,,,,sub-198,1,stroop_test,60.08672918487639,
,,,,71.0,11.0,5.0,,,,,,,,,,,,,blau,blue,b,1.0,b,1.0,0.903974500000004,,,,,,,,,,5.0,11.0,71.0,6.0,340.6144502,,,,,,,,,,,,,,,,,340.59894280000003,341.4132345999999,342.2288547999999,342.2124180999999,,,,,,,,,,,,,,,,,,,,,,,,,,,,,,,,,,,342.2149752,342.2288547999999,342.2288547999999,343.1445228,b,1.0,0.903974500000004,,,,,sub-198,1,stroop_test,60.08672918487639,
,,,,72.0,0.0,6.0,,,,,,,,,,,,,blau,blue,b,1.0,b,1.0,0.4615473000001202,,,,,,,,,,6.0,0.0,72.0,6.0,343.1609068,,,,,,,,,,,,,,,,,343.14478829999985,343.9600416999999,344.7755493999998,344.7591103999998,,,,,,,,,,,,,,,,,,,,,,,,,,,,,,,,,,,344.7596191,344.7755493999998,344.7755493999998,345.2418868999998,b,1.0,0.4615473000001202,,,,,sub-198,1,stroop_test,60.08672918487639,
,,,,73.0,1.0,6.0,,,,,,,,,,,,,blau,yellow,g,0.0,g,1.0,1.0554597999998805,,,,,,,,,,6.0,1.0,73.0,7.0,345.2580662999999,,,,,,,,,,,,,,,,,345.2421858,345.34145979999994,346.1570723,346.14056549999987,,,,,,,,,,,,,,,,,,,,,,,,,,,,,,,,,,,346.14105859999995,346.1570723,346.1570723,347.2225566,g,1.0,1.0554597999998805,,,,,sub-198,1,stroop_test,60.08672918487639,
,,,,74.0,2.0,6.0,,,,,,,,,,,,,blau,blue,b,1.0,b,1.0,0.8285011000000395,,,,,,,,,,6.0,2.0,74.0,5.0,347.2388424999999,,,,,,,,,,,,,,,,,347.2228614999999,347.3221765999999,348.13786749999986,348.1214808,,,,,,,,,,,,,,,,,,,,,,,,,,,,,,,,,,,348.1220533999999,348.13786749999986,348.13786749999986,348.97053889999984,b,1.0,0.8285011000000395,,,,,sub-198,1,stroop_test,60.08672918487639,
,,,,75.0,3.0,6.0,,,,,,,,,,,,,gelb,blue,b,0.0,b,1.0,1.3835941000002094,,,,,,,,,,6.0,3.0,75.0,9.0,348.9867829,,,,,,,,,,,,,,,,,348.9709665999999,349.78544420000003,350.60113839999985,350.5845158,,,,,,,,,,,,,,,,,,,,,,,,,,,,,,,,,,,350.58664929999986,350.60113839999985,350.60113839999985,351.99962600000003,b,1.0,1.3835941000002094,,,,,sub-198,1,stroop_test,60.08672918487639,
,,,,76.0,4.0,6.0,,,,,,,,,,,,,blau,red,r,0.0,r,1.0,1.0423178999999436,,,,,,,,,,6.0,4.0,76.0,4.0,352.0157767999999,,,,,,,,,,,,,,,,,351.99991839999984,353.2144661,354.0299121999999,354.0133011999999,,,,,,,,,,,,,,,,,,,,,,,,,,,,,,,,,,,354.0160183999999,354.0299121999999,354.0299121999999,355.0786994,r,1.0,1.0423178999999436,,,,,sub-198,1,stroop_test,60.08672918487639,
,,,,77.0,5.0,6.0,,,,,,,,,,,,,rot,yellow,g,0.0,g,1.0,0.5723951999998462,,,,,,,,,,6.0,5.0,77.0,3.0,355.0950266,,,,,,,,,,,,,,,,,355.0789606999999,356.29353249999986,357.0929343999999,357.07620299999985,,,,,,,,,,,,,,,,,,,,,,,,,,,,,,,,,,,357.07873670000004,357.0929343999999,357.0929343999999,357.67556779999995,g,1.0,0.5723951999998462,,,,,sub-198,1,stroop_test,60.08672918487639,
,,,,78.0,6.0,6.0,,,,,,,,,,,,,rot,blue,b,0.0,b,1.0,1.1297153999998957,,,,,,,,,,6.0,6.0,78.0,2.0,357.691816,,,,,,,,,,,,,,,,,357.6758213999999,357.7750593999999,358.5904747,358.5739226999999,,,,,,,,,,,,,,,,,,,,,,,,,,,,,,,,,,,358.5742647,358.5904747,358.5904747,359.7230127,b,1.0,1.1297153999998957,,,,,sub-198,1,stroop_test,60.08672918487639,
,,,,79.0,7.0,6.0,,,,,,,,,,,,,gelb,yellow,g,1.0,g,1.0,0.7226720000001023,,,,,,,,,,6.0,7.0,79.0,11.0,359.739112,,,,,,,,,,,,,,,,,359.72356679999984,360.5379896,361.3370207999999,361.3207837,,,,,,,,,,,,,,,,,,,,,,,,,,,,,,,,,,,361.3250598,361.3370207999999,361.3370207999999,362.0698367,g,1.0,0.7226720000001023,,,,,sub-198,1,stroop_test,60.08672918487639,
,,,,80.0,8.0,6.0,,,,,,,,,,,,,gelb,yellow,g,1.0,g,1.0,0.6758882999999969,,,,,,,,,,6.0,8.0,80.0,10.0,362.0859039,,,,,,,,,,,,,,,,,362.0702535,362.4353374,363.2344495,363.2180472999999,,,,,,,,,,,,,,,,,,,,,,,,,,,,,,,,,,,363.21845669999993,363.2344495,363.2344495,363.9171862999999,g,1.0,0.6758882999999969,,,,,sub-198,1,stroop_test,60.08672918487639,
,,,,81.0,9.0,6.0,,,,,,,,,,,,,rot,red,r,1.0,r,1.0,0.7010368000001108,,,,,,,,,,6.0,9.0,81.0,1.0,363.9333661999999,,,,,,,,,,,,,,,,,363.9175418,364.0166944,364.8322103999999,364.8157156999998,,,,,,,,,,,,,,,,,,,,,,,,,,,,,,,,,,,364.8182182999999,364.8322103999999,364.8322103999999,365.5483503999999,r,1.0,0.7010368000001108,,,,,sub-198,1,stroop_test,60.08672918487639,
,,,,82.0,10.0,6.0,,,,,,,,,,,,,gelb,red,r,0.0,r,1.0,0.694963400000006,,,,,,,,,,6.0,10.0,82.0,8.0,365.5648206999999,,,,,,,,,,,,,,,,,365.5488421,365.8975194999998,366.7132311,366.6968150999999,,,,,,,,,,,,,,,,,,,,,,,,,,,,,,,,,,,366.70085099999983,366.7132311,366.7132311,367.4127796999999,r,1.0,0.694963400000006,,,,,sub-198,1,stroop_test,60.08672918487639,
,,,,83.0,11.0,6.0,,,,,,,,,,,,,rot,red,r,1.0,r,1.0,0.4538770999999997,,,,,,,,,,6.0,11.0,83.0,0.0,367.4289185,,,,,,,,,,,,,,,,,367.41323979999993,368.2277773999999,369.0266164,369.0107011,,,,,,,,,,,,,,,,,,,,,,,,,,,,,,,,,,,369.0130334999999,369.0266164,369.0266164,369.4930989,r,1.0,0.4538770999999997,,,,,sub-198,1,stroop_test,60.08672918487639,
,,,,84.0,0.0,7.0,,,,,,,,,,,,,rot,blue,b,0.0,b,1.0,0.8658235000000332,,,,,,,,,,7.0,0.0,84.0,2.0,369.5093643999999,,,,,,,,,,,,,,,,,369.4934613999999,369.8424599,370.6579084999999,370.6414563999999,,,,,,,,,,,,,,,,,,,,,,,,,,,,,,,,,,,370.6418437,370.6579084999999,370.6579084999999,371.5409540999999,b,1.0,0.8658235000000332,,,,,sub-198,1,stroop_test,60.08672918487639,
,,,,85.0,1.0,7.0,,,,,,,,,,,,,gelb,red,r,0.0,r,1.0,1.3431196999999884,,,,,,,,,,7.0,1.0,85.0,8.0,371.5570132,,,,,,,,,,,,,,,,,371.5416906999999,371.9064616999999,372.7217782999999,372.7054338999999,,,,,,,,,,,,,,,,,,,,,,,,,,,,,,,,,,,372.708112,372.7217782999999,372.7217782999999,374.0701978,r,1.0,1.3431196999999884,,,,,sub-198,1,stroop_test,60.08672918487639,
,,,,86.0,2.0,7.0,,,,,,,,,,,,,rot,red,r,1.0,r,1.0,0.7922406000000137,,,,,,,,,,7.0,2.0,86.0,0.0,374.0871548,,,,,,,,,,,,,,,,,374.0704612,374.8855099,375.6845163,375.66800909999984,,,,,,,,,,,,,,,,,,,,,,,,,,,,,,,,,,,375.6708108,375.6845163,375.6845163,376.4836263,r,1.0,0.7922406000000137,,,,,sub-198,1,stroop_test,60.08672918487639,
,,,,87.0,3.0,7.0,,,,,,,,,,,,,gelb,blue,b,0.0,b,1.0,0.8518960999999763,,,,,,,,,,7.0,3.0,87.0,9.0,376.5000170999999,,,,,,,,,,,,,,,,,376.48390329999984,376.5832330999999,377.3823057,377.3657039999998,,,,,,,,,,,,,,,,,,,,,,,,,,,,,,,,,,,377.3677212999999,377.3823057,377.3823057,378.2479317,b,1.0,0.8518960999999763,,,,,sub-198,1,stroop_test,60.08672918487639,
,,,,88.0,4.0,7.0,,,,,,,,,,,,,blau,blue,b,1.0,b,1.0,0.4951693000000432,,,,,,,,,,7.0,4.0,88.0,6.0,378.26430959999993,,,,,,,,,,,,,,,,,378.2481994999998,379.46276079999984,380.2617639,380.2455344999999,,,,,,,,,,,,,,,,,,,,,,,,,,,,,,,,,,,380.2502508999999,380.2617639,380.2617639,380.7613365,b,1.0,0.4951693000000432,,,,,sub-198,1,stroop_test,60.08672918487639,
,,,,89.0,5.0,7.0,,,,,,,,,,,,,blau,red,r,0.0,r,1.0,0.793886799999882,,,,,,,,,,7.0,5.0,89.0,4.0,380.77770569999984,,,,,,,,,,,,,,,,,380.7616166,380.860884,381.65997859999993,381.6433631,,,,,,,,,,,,,,,,,,,,,,,,,,,,,,,,,,,381.6437105999999,381.65997859999993,381.65997859999993,382.4591211,r,1.0,0.793886799999882,,,,,sub-198,1,stroop_test,60.08672918487639,
,,,,90.0,6.0,7.0,,,,,,,,,,,,,rot,yellow,g,0.0,g,1.0,1.0121685000001437,,,,,,,,,,7.0,6.0,90.0,3.0,382.4754636999999,,,,,,,,,,,,,,,,,382.4593777999999,383.67389159999993,384.4895016999999,384.4729786,,,,,,,,,,,,,,,,,,,,,,,,,,,,,,,,,,,384.4752232999999,384.4895016999999,384.4895016999999,385.5050082,g,1.0,1.0121685000001437,,,,,sub-198,1,stroop_test,60.08672918487639,
,,,,91.0,7.0,7.0,,,,,,,,,,,,,blau,yellow,g,0.0,g,1.0,0.5404003999999532,,,,,,,,,,7.0,7.0,91.0,7.0,385.5214153,,,,,,,,,,,,,,,,,385.5052713,385.8543034,386.6699340999999,386.6533485,,,,,,,,,,,,,,,,,,,,,,,,,,,,,,,,,,,386.6556131,386.6699340999999,386.6699340999999,387.2194147999999,g,1.0,0.5404003999999532,,,,,sub-198,1,stroop_test,60.08672918487639,
,,,,92.0,8.0,7.0,,,,,,,,,,,,,rot,red,r,1.0,r,1.0,0.6886586000000534,,,,,,,,,,7.0,8.0,92.0,1.0,387.2357949,,,,,,,,,,,,,,,,,387.2196918,387.31903079999984,388.13464,388.118309,,,,,,,,,,,,,,,,,,,,,,,,,,,,,,,,,,,388.1210537,388.13464,388.13464,388.8341539999999,r,1.0,0.6886586000000534,,,,,sub-198,1,stroop_test,60.08672918487639,
,,,,93.0,9.0,7.0,,,,,,,,,,,,,blau,blue,b,1.0,b,1.0,0.7054802000000109,,,,,,,,,,7.0,9.0,93.0,5.0,388.8503507999999,,,,,,,,,,,,,,,,,388.8345333,390.0487469999998,390.8644253999999,390.8478229,,,,,,,,,,,,,,,,,,,,,,,,,,,,,,,,,,,390.8500695999999,390.8644253999999,390.8644253999999,391.5803117,b,1.0,0.7054802000000109,,,,,sub-198,1,stroop_test,60.08672918487639,
,,,,94.0,10.0,7.0,,,,,,,,,,,,,gelb,yellow,g,1.0,g,1.0,1.7101906000000326,,,,,,,,,,7.0,10.0,94.0,11.0,391.5966908999999,,,,,,,,,,,,,,,,,391.58058889999984,392.3956489,393.2113539,393.1949556,,,,,,,,,,,,,,,,,,,,,,,,,,,,,,,,,,,393.1971888999999,393.2113539,393.2113539,394.926039,g,1.0,1.7101906000000326,,,,,sub-198,1,stroop_test,60.08672918487639,
,,,,95.0,11.0,7.0,,,,,,,,,,,,,gelb,yellow,g,1.0,g,1.0,0.7689061000000947,,,,,,,,,,7.0,11.0,95.0,10.0,394.9423281,,,,,,,,,,,,,,,,,394.9263136,396.1406686999999,396.95634299999983,396.9398168,,,,,,,,,,,,,,,,,,,,,,,,,,,,,,,,,,,396.9401599999999,396.95634299999983,396.95634299999983,397.7388245,g,1.0,0.7689061000000947,,,,,sub-198,1,stroop_test,60.08672918487639,
,,,,96.0,0.0,8.0,,,,,,,,,,,,,blau,blue,b,1.0,b,1.0,0.7943933999999899,,,,,,,,,,8.0,0.0,96.0,5.0,397.7552374,,,,,,,,,,,,,,,,,397.7390853,398.0881075,398.9037705999999,398.8872167,,,,,,,,,,,,,,,,,,,,,,,,,,,,,,,,,,,398.8896700999999,398.9037705999999,398.9037705999999,399.7029094,b,1.0,0.7943933999999899,,,,,sub-198,1,stroop_test,60.08672918487639,
,,,,97.0,1.0,8.0,,,,,,,,,,,,,rot,red,r,1.0,r,1.0,0.6749425000000429,,,,,,,,,,8.0,1.0,97.0,1.0,399.7192607,,,,,,,,,,,,,,,,,399.7031738999999,399.80249719999983,400.6023667,400.58560739999984,,,,,,,,,,,,,,,,,,,,,,,,,,,,,,,,,,,400.59350989999984,400.6023667,400.6023667,401.2842512,r,1.0,0.6749425000000429,,,,,sub-198,1,stroop_test,60.08672918487639,
,,,,98.0,2.0,8.0,,,,,,,,,,,,,rot,red,r,1.0,r,1.0,0.8046312999999827,,,,,,,,,,8.0,2.0,98.0,0.0,401.3005332,,,,,,,,,,,,,,,,,401.28458,401.6337813,402.4327142999998,402.4165673,,,,,,,,,,,,,,,,,,,,,,,,,,,,,,,,,,,402.417629,402.4327142999998,402.4327142999998,403.2489241999999,r,1.0,0.8046312999999827,,,,,sub-198,1,stroop_test,60.08672918487639,
,,,,99.0,3.0,8.0,,,,,,,,,,,,,blau,blue,b,1.0,b,1.0,0.7870322999999644,,,,,,,,,,8.0,3.0,99.0,6.0,403.26477839999984,,,,,,,,,,,,,,,,,403.2497269,404.0635791999998,404.8634001,404.8461789999999,,,,,,,,,,,,,,,,,,,,,,,,,,,,,,,,,,,404.8492555,404.8634001,404.8634001,405.6616775,b,1.0,0.7870322999999644,,,,,sub-198,1,stroop_test,60.08672918487639,
,,,,100.0,4.0,8.0,,,,,,,,,,,,,gelb,yellow,g,1.0,g,1.0,0.4655660999999327,,,,,,,,,,8.0,4.0,100.0,11.0,405.6780961,,,,,,,,,,,,,,,,,405.6619510999999,406.8765377999998,407.6921656,407.67562079999993,,,,,,,,,,,,,,,,,,,,,,,,,,,,,,,,,,,407.6792963999999,407.6921656,407.6921656,408.1584553999999,g,1.0,0.4655660999999327,,,,,sub-198,1,stroop_test,60.08672918487639,
,,,,101.0,5.0,8.0,,,,,,,,,,,,,blau,yellow,g,0.0,g,1.0,0.4421345999999175,,,,,,,,,,8.0,5.0,101.0,7.0,408.1747794999999,,,,,,,,,,,,,,,,,408.1587791,409.3735752,410.1722195,410.1561843,,,,,,,,,,,,,,,,,,,,,,,,,,,,,,,,,,,410.1588061,410.1722195,410.1722195,410.6225721999999,g,1.0,0.4421345999999175,,,,,sub-198,1,stroop_test,60.08672918487639,
,,,,102.0,6.0,8.0,,,,,,,,,,,,,rot,blue,b,0.0,b,1.0,1.275018300000056,,,,,,,,,,8.0,6.0,102.0,2.0,410.6386035999999,,,,,,,,,,,,,,,,,410.6234122999999,410.721476,411.5212196,411.5047649999999,,,,,,,,,,,,,,,,,,,,,,,,,,,,,,,,,,,411.5124925999999,411.5212196,411.5212196,412.8022618,b,1.0,1.275018300000056,,,,,sub-198,1,stroop_test,60.08672918487639,
,,,,103.0,7.0,8.0,,,,,,,,,,,,,gelb,red,r,0.0,r,1.0,0.6944092000001092,,,,,,,,,,8.0,7.0,103.0,8.0,412.81864139999993,,,,,,,,,,,,,,,,,412.802528,413.6178694,414.43324429999984,414.4167926999999,,,,,,,,,,,,,,,,,,,,,,,,,,,,,,,,,,,414.41930319999983,414.43324429999984,414.43324429999984,415.1325803999998,r,1.0,0.6944092000001092,,,,,sub-198,1,stroop_test,60.08672918487639,
,,,,104.0,8.0,8.0,,,,,,,,,,,,,rot,yellow,g,0.0,r,0.0,0.8395342000001165,,,,,,,,,,8.0,8.0,104.0,3.0,415.1489436,,,,,,,,,,,,,,,,,415.1329587,415.4819143999998,416.2974393,416.2810428999999,,,,,,,,,,,,,,,,,,,,,,,,,,,,,,,,,,,416.28435249999984,416.2974393,416.2974393,417.1465994,r,0.0,0.8395342000001165,,,,,sub-198,1,stroop_test,60.08672918487639,
,,,,105.0,9.0,8.0,,,,,,,,,,,,,blau,red,r,0.0,r,1.0,0.927216499999986,,,,,,,,,,8.0,9.0,105.0,4.0,417.1628673,,,,,,,,,,,,,,,,,417.1469018999999,417.2462088,418.0452442999999,418.0289677999999,,,,,,,,,,,,,,,,,,,,,,,,,,,,,,,,,,,418.0346559,418.0452442999999,418.0452442999999,418.97742559999983,r,1.0,0.927216499999986,,,,,sub-198,1,stroop_test,60.08672918487639,
,,,,106.0,10.0,8.0,,,,,,,,,,,,,gelb,yellow,g,1.0,g,1.0,0.8866286999998465,,,,,,,,,,8.0,10.0,106.0,10.0,418.9937537999999,,,,,,,,,,,,,,,,,418.9777102999999,419.07701,419.89264,419.8763082999999,,,,,,,,,,,,,,,,,,,,,,,,,,,,,,,,,,,419.8786714,419.89264,419.89264,420.7916869999999,g,1.0,0.8866286999998465,,,,,sub-198,1,stroop_test,60.08672918487639,
,,,,107.0,11.0,8.0,,,,,,,,,,,,,gelb,blue,b,0.0,b,1.0,1.4231849000000238,,,,,,,,,,8.0,11.0,107.0,9.0,420.8079452,,,,,,,,,,,,,,,,,420.7919439,421.1409077999999,421.9567359,421.94007739999984,,,,,,,,,,,,,,,,,,,,,,,,,,,,,,,,,,,421.9404519,421.9567359,421.9567359,423.3882610999999,b,1.0,1.4231849000000238,,,,,sub-198,1,stroop_test,60.08672918487639,
,,,,108.0,0.0,9.0,,,,,,,,,,,,,blau,yellow,g,0.0,g,1.0,1.194347599999901,,,,,,,,,,9.0,0.0,108.0,7.0,423.4045988999999,,,,,,,,,,,,,,,,,423.388537,424.2036143,425.0192600999999,425.0026722999999,,,,,,,,,,,,,,,,,,,,,,,,,,,,,,,,,,,425.0054306,425.0192600999999,425.0192600999999,426.2178199999999,g,1.0,1.194347599999901,,,,,sub-198,1,stroop_test,60.08672918487639,
,,,,109.0,1.0,9.0,,,,,,,,,,,,,gelb,yellow,g,1.0,g,1.0,0.5605875999999625,,,,,,,,,,9.0,1.0,109.0,10.0,426.2341336,,,,,,,,,,,,,,,,,426.2180905999999,427.033074,427.8321619999999,427.8156861,,,,,,,,,,,,,,,,,,,,,,,,,,,,,,,,,,,427.8179376999999,427.8321619999999,427.8321619999999,428.3982346999999,g,1.0,0.5605875999999625,,,,,sub-198,1,stroop_test,60.08672918487639,
,,,,110.0,2.0,9.0,,,,,,,,,,,,,rot,red,r,1.0,r,1.0,0.5795642999999018,,,,,,,,,,9.0,2.0,110.0,1.0,428.4145672,,,,,,,,,,,,,,,,,428.3985032999999,429.2139158999999,430.0294423999999,430.0132905999999,,,,,,,,,,,,,,,,,,,,,,,,,,,,,,,,,,,430.0191465999999,430.0294423999999,430.0294423999999,430.6127339999998,r,1.0,0.5795642999999018,,,,,sub-198,1,stroop_test,60.08672918487639,
,,,,111.0,3.0,9.0,,,,,,,,,,,,,rot,red,r,1.0,r,1.0,0.4975600999998733,,,,,,,,,,9.0,3.0,111.0,0.0,430.6288342999999,,,,,,,,,,,,,,,,,430.6135712999999,431.8267896,432.6257682,432.60936159999983,,,,,,,,,,,,,,,,,,,,,,,,,,,,,,,,,,,432.6098075,432.6257682,432.6257682,433.1254351999999,r,1.0,0.4975600999998733,,,,,sub-198,1,stroop_test,60.08672918487639,
,,,,112.0,4.0,9.0,,,,,,,,,,,,,blau,blue,b,1.0,b,1.0,0.9650787999999012,,,,,,,,,,9.0,4.0,112.0,6.0,433.1417655999999,,,,,,,,,,,,,,,,,433.1257137999999,433.4746645999999,434.2903124,434.2736545999999,,,,,,,,,,,,,,,,,,,,,,,,,,,,,,,,,,,434.2759475,434.2903124,434.2903124,435.2558789999998,b,1.0,0.9650787999999012,,,,,sub-198,1,stroop_test,60.08672918487639,
,,,,113.0,5.0,9.0,,,,,,,,,,,,,gelb,blue,b,0.0,b,1.0,1.355008400000088,,,,,,,,,,9.0,5.0,113.0,9.0,435.2722899999999,,,,,,,,,,,,,,,,,435.2561486,436.4711118999999,437.28649499999983,437.2701018,,,,,,,,,,,,,,,,,,,,,,,,,,,,,,,,,,,437.2723065,437.28649499999983,437.28649499999983,438.6519845,b,1.0,1.355008400000088,,,,,sub-198,1,stroop_test,60.08672918487639,
,,,,114.0,6.0,9.0,,,,,,,,,,,,,gelb,red,r,0.0,r,1.0,1.410583299999871,,,,,,,,,,9.0,6.0,114.0,8.0,438.6680675,,,,,,,,,,,,,,,,,438.6527022999999,438.7675844999999,439.5832409,439.5667389999999,,,,,,,,,,,,,,,,,,,,,,,,,,,,,,,,,,,439.5670952999999,439.5832409,439.5832409,440.9982975,r,1.0,1.410583299999871,,,,,sub-198,1,stroop_test,60.08672918487639,
,,,,115.0,7.0,9.0,,,,,,,,,,,,,gelb,yellow,g,1.0,g,1.0,0.8696895999999015,,,,,,,,,,9.0,7.0,115.0,11.0,441.0145671999999,,,,,,,,,,,,,,,,,440.9985916999999,441.0978811,441.9135434,441.8969252,,,,,,,,,,,,,,,,,,,,,,,,,,,,,,,,,,,441.8972809,441.9135434,441.9135434,442.79600489999984,g,1.0,0.8696895999999015,,,,,sub-198,1,stroop_test,60.08672918487639,
,,,,116.0,8.0,9.0,,,,,,,,,,,,,blau,red,r,0.0,r,1.0,0.6564536999999291,,,,,,,,,,9.0,8.0,116.0,4.0,442.8122791999999,,,,,,,,,,,,,,,,,442.7962934,443.1451877,443.9607925999999,443.9442253,,,,,,,,,,,,,,,,,,,,,,,,,,,,,,,,,,,443.9466195999999,443.9607925999999,443.9607925999999,444.6269063,r,1.0,0.6564536999999291,,,,,sub-198,1,stroop_test,60.08672918487639,
,,,,117.0,9.0,9.0,,,,,,,,,,,,,rot,yellow,g,0.0,g,1.0,0.8834276000000045,,,,,,,,,,9.0,9.0,117.0,3.0,444.6431665,,,,,,,,,,,,,,,,,444.6272259,444.9926337,445.8082305999999,445.7917918999999,,,,,,,,,,,,,,,,,,,,,,,,,,,,,,,,,,,445.7942535,445.8082305999999,445.8082305999999,446.7073756,g,1.0,0.8834276000000045,,,,,sub-198,1,stroop_test,60.08672918487639,
,,,,118.0,10.0,9.0,,,,,,,,,,,,,blau,blue,b,1.0,b,1.0,0.857126899999912,,,,,,,,,,9.0,10.0,118.0,5.0,446.72362009999983,,,,,,,,,,,,,,,,,446.7076668,446.80688799999984,447.6059498,447.5896292,,,,,,,,,,,,,,,,,,,,,,,,,,,,,,,,,,,447.5917216999999,447.6059498,447.6059498,448.47166789999983,b,1.0,0.857126899999912,,,,,sub-198,1,stroop_test,60.08672918487639,
,,,,119.0,11.0,9.0,,,,,,,,,,,,,rot,blue,b,0.0,b,1.0,0.8366908000000421,,,,,,,,,,9.0,11.0,119.0,2.0,448.48799369999983,,,,,,,,,,,,,,,,,448.4719373,448.8214578,449.6366441999999,449.6204012999999,,,,,,,,,,,,,,,,,,,,,,,,,,,,,,,,,,,449.6225881,449.6366441999999,449.6366441999999,450.48575259999984,b,1.0,0.8366908000000421,,,,,sub-198,1,stroop_test,60.08672918487639,
,,,,,,,,,,,,,,,,,,,,,,,,,,,,,,,,,,,,,,,,,,,,,,,,,,,,,,,,,,,,,,,,,,,,,,,,,,,,,,,,,,,,,,,,,,,,,,,,,,,,,,450.4859087,450.502221,455.4957028999997,sub-198,1,stroop_test,60.08672918487639,
