wordCTK,colorCTK,corrAnsCTK,congruentCTK,thisN,thisTrialN,thisRepN,keyResp_CTK.keys,keyResp_CTK.corr,keyResp_CTK.rt,keyResp_CTK.duration,wordPractice,colorPractice,corrAnsPractice,congruentPractice,respPractice.keys,respPractice.corr,respPractice.rt,respPractice.duration,word,color,corrAns,congruent,keyResp_test_run.keys,keyResp_test_run.corr,keyResp_test_run.rt,keyResp_test_run.duration,trials_CTK.thisRepN,trials_CTK.thisTrialN,trials_CTK.thisN,trials_CTK.thisIndex,trials_practice.thisRepN,trials_practice.thisTrialN,trials_practice.thisN,trials_practice.thisIndex,trials_test.thisRepN,trials_test.thisTrialN,trials_test.thisN,trials_test.thisIndex,thisRow.t,notes,instruction.started,instr_text.started,instr_image.started,instr_resp.started,instruction.stopped,instr_resp.keys,instr_resp.rt,instr_resp.duration,instr_color_to_key.started,instr_ctk.started,resp_ctk.started,instr_color_to_key.stopped,resp_ctk.keys,resp_ctk.rt,resp_ctk.duration,ITI.started,fixcross.started,fixcross.stopped,ITI.stopped,color_to_key_run.started,stimulus_CTK.started,keyResp_CTK.started,color_to_key_run.stopped,trials_CTK.keyResp_CTK.keys,trials_CTK.keyResp_CTK.corr,trials_CTK.keyResp_CTK.rt,trials_CTK.keyResp_CTK.duration,instr_practice.started,instr_practice_text.started,instr_practice_resp.started,instr_practice.stopped,instr_practice_resp.keys,instr_practice_resp.rt,instr_practice_resp.duration,practice_run.started,stimulus_practice.started,respPractice.started,practice_run.stopped,trials_practice.respPractice.keys,trials_practice.respPractice.corr,trials_practice.respPractice.rt,trials_practice.respPractice.duration,feedback.started,textFeedback.started,feedback.stopped,textFeedback.stopped,instr_test.started,instr_test_text.started,instr_test_resp.started,instr_test.stopped,instr_test_resp.keys,instr_test_resp.rt,instr_test_resp.duration,test_run.started,stimulus_test_run.started,keyResp_test_run.started,test_run.stopped,trials_test.keyResp_test_run.keys,trials_test.keyResp_test_run.corr,trials_test.keyResp_test_run.rt,trials_test.keyResp_test_run.duration,goodbye.started,textGoodbye.started,textGoodbye.stopped,goodbye.stopped,participant,session,expName,frameRate,Unnamed: 113
,,,,,,,,,,,,,,,,,,,,,,,,,,,,,,,,,,,,,,,,,0.0132459999877028,0.0242542079940903,0.0242542079940903,0.0242542079940903,2.6543472920020577,space,2.6210100000025705,,,,,,,,,,,,,,,,,,,,,,,,,,,,,,,,,,,,,,,,,,,,,,,,,,,,,,,,,,,sub-148,1,stroop_test,,
,,,,,,,,,,,,,,,,,,,,,,,,,,,,,,,,,,,,,,,,,,,,,,,,,2.65446512500057,2.665459167008521,2.665459167008521,4.876963291986613,space,2.207505583006423,,,,,,,,,,,,,,,,,,,,,,,,,,,,,,,,,,,,,,,,,,,,,,,,,,,,sub-148,1,stroop_test,,
test,red,r,1.0,0.0,0.0,0.0,r,1.0,0.6263317500124685,,,,,,,,,,,,,,,,,,0.0,0.0,0.0,0.0,,,,,,,,,4.899855750001734,,,,,,,,,,,,,,,,,4.890946958010318,6.0785792079987,6.883839749993058,6.869339875003789,6.876364666997688,6.883839749993058,6.883839749993058,7.520410041994182,r,1.0,0.6263317500124685,,,,,,,,,,,,,,,,,,,,,,,,,,,,,,,,,,,,,,,,sub-148,1,stroop_test,,
test,blue,b,1.0,1.0,1.0,0.0,b,1.0,0.5463726250163745,,,,,,,,,,,,,,,,,,0.0,1.0,1.0,2.0,,,,,,,,,7.530132082989439,,,,,,,,,,,,,,,,,7.520894416986266,7.868730666988995,8.66092787499656,8.652851291990373,8.653497999999672,8.66092787499656,8.66092787499656,9.210033624985954,b,1.0,0.5463726250163745,,,,,,,,,,,,,,,,,,,,,,,,,,,,,,,,,,,,,,,,sub-148,1,stroop_test,,
test,yellow,g,1.0,2.0,2.0,0.0,g,1.0,1.1012624999857508,,,,,,,,,,,,,,,,,,0.0,2.0,2.0,1.0,,,,,,,,,9.218985167011851,,,,,,,,,,,,,,,,,9.21041504200548,10.008466833009152,10.810494667006424,10.802785292005863,10.803435000008903,10.810494667006424,10.810494667006424,11.92087891700794,g,1.0,1.1012624999857508,,,,,,,,,,,,,,,,,,,,,,,,,,,,,,,,,,,,,,,,sub-148,1,stroop_test,,
test,blue,b,1.0,3.0,0.0,1.0,b,1.0,0.6022199589933734,,,,,,,,,,,,,,,,,,1.0,0.0,3.0,2.0,,,,,,,,,11.930215583008248,,,,,,,,,,,,,,,,,11.921355750004295,12.018799292010954,12.81184624999878,12.803192332998153,12.803996041999198,12.81184624999878,12.81184624999878,13.42050524998922,b,1.0,0.6022199589933734,,,,,,,,,,,,,,,,,,,,,,,,,,,,,,,,,,,,,,,,sub-148,1,stroop_test,,
test,yellow,g,1.0,4.0,1.0,1.0,g,1.0,0.8027564579970203,,,,,,,,,,,,,,,,,,1.0,1.0,4.0,1.0,,,,,,,,,13.429800791986054,,,,,,,,,,,,,,,,,13.420902249985376,14.218921207997482,15.009301874990342,15.002736124995865,15.003170916985257,15.009301874990342,15.009301874990342,15.820530333003262,g,1.0,0.8027564579970203,,,,,,,,,,,,,,,,,,,,,,,,,,,,,,,,,,,,,,,,sub-148,1,stroop_test,,
test,red,r,1.0,5.0,2.0,1.0,r,1.0,0.5244418750226032,,,,,,,,,,,,,,,,,,1.0,2.0,5.0,0.0,,,,,,,,,15.830058541992912,,,,,,,,,,,,,,,,,15.821012958011124,15.918797582999105,16.711290707986336,16.702970457990887,16.703675958007807,16.711290707986336,16.711290707986336,17.238003167003626,r,1.0,0.5244418750226032,,,,,,,,,,,,,,,,,,,,,,,,,,,,,,,,,,,,,,,,sub-148,1,stroop_test,,
test,yellow,g,1.0,6.0,0.0,2.0,g,1.0,0.6845557920169085,,,,,,,,,,,,,,,,,,2.0,0.0,6.0,1.0,,,,,,,,,17.247242832992924,,,,,,,,,,,,,,,,,17.238396542001283,18.035720167012187,18.82730816700496,18.81957904199953,18.82022004199098,18.82730816700496,18.82730816700496,19.521247166994726,g,1.0,0.6845557920169085,,,,,,,,,,,,,,,,,,,,,,,,,,,,,,,,,,,,,,,,sub-148,1,stroop_test,,
test,blue,b,1.0,7.0,1.0,2.0,b,1.0,0.4501585839898325,,,,,,,,,,,,,,,,,,2.0,1.0,7.0,2.0,,,,,,,,,19.53042645798996,,,,,,,,,,,,,,,,,19.52173154198681,19.869099167000968,20.66102554200916,20.653021667007124,20.65366866698605,20.66102554200916,20.66102554200916,21.12110279200715,b,1.0,0.4501585839898325,,,,,,,,,,,,,,,,,,,,,,,,,,,,,,,,,,,,,,,,sub-148,1,stroop_test,,
test,red,r,1.0,8.0,2.0,2.0,r,1.0,0.3806646669982001,,,,,,,,,,,,,,,,,,2.0,2.0,8.0,0.0,,,,,,,,,21.13031941698864,,,,,,,,,,,,,,,,,21.12158504201216,22.31918441699236,23.1119191669859,23.10354895799537,23.10426491699764,23.1119191669859,23.1119191669859,23.520212583011016,r,1.0,0.3806646669982001,,,,,,,,,,,,,,,,,,,,,,,,,,,,,,,,,,,,,,,,sub-148,1,stroop_test,,
test,blue,b,1.0,9.0,0.0,3.0,b,1.0,0.5245586250093766,,,,,,,,,,,,,,,,,,3.0,0.0,9.0,2.0,,,,,,,,,23.53590829198947,,,,,,,,,,,,,,,,,23.52068462499301,23.859561666991794,24.66121020799619,24.653171207988635,24.653807041991968,24.66121020799619,24.66121020799619,25.188118124991888,b,1.0,0.5245586250093766,,,,,,,,,,,,,,,,,,,,,,,,,,,,,,,,,,,,,,,,sub-148,1,stroop_test,,
test,red,r,1.0,10.0,1.0,3.0,r,1.0,0.9650348750001284,,,,,,,,,,,,,,,,,,3.0,1.0,10.0,0.0,,,,,,,,,25.1979123330093,,,,,,,,,,,,,,,,,25.188590625009965,25.285564332996728,26.07785224998952,26.069684499991126,26.070365166990086,26.07785224998952,26.07785224998952,27.045203999994555,r,1.0,0.9650348750001284,,,,,,,,,,,,,,,,,,,,,,,,,,,,,,,,,,,,,,,,sub-148,1,stroop_test,,
test,yellow,g,1.0,11.0,2.0,3.0,g,1.0,0.8842223749961704,,,,,,,,,,,,,,,,,,3.0,2.0,11.0,1.0,,,,,,,,,27.05482670798665,,,,,,,,,,,,,,,,,27.04560808298993,27.39221975000692,28.194317457993748,28.186715332994936,28.187359042000026,28.194317457993748,28.194317457993748,29.088338792003924,g,1.0,0.8842223749961704,,,,,,,,,,,,,,,,,,,,,,,,,,,,,,,,,,,,,,,,sub-148,1,stroop_test,,
,,,,,,,,,,,,,,,,,,,,,,,,,,,,,,,,,,,,,,,,,,,,,,,,,,,,,,,,,,,,,,,,,,,,29.088592957996298,29.099947125010655,29.099947125010655,30.57182037498569,space,1.462879333994351,,,,,,,,,,,,,,,,,,,,,,,,,,,,,,,,,sub-148,1,stroop_test,,
,,,,0.0,0.0,0.0,,,,,rot,yellow,g,0.0,g,1.0,1.7594370000006163,,,,,,,,,,,,,,0.0,0.0,0.0,3.0,,,,,30.594428457989125,,,,,,,,,,,,,,,,,30.5858092920098,31.369529666990275,32.1673609999998,32.15366629199707,,,,,,,,,,,,,,,,32.15951374999713,32.1673609999998,32.1673609999998,33.93818337499397,g,1.0,1.7594370000006163,,33.946205957996426,33.956294583011186,34.94136595798773,,,,,,,,,,,,,,,,,,,,,sub-148,1,stroop_test,,
,,,,1.0,1.0,0.0,,,,,rot,blue,b,0.0,b,1.0,0.8451585829898249,,,,,,,,,,,,,,0.0,1.0,1.0,2.0,,,,,34.95236104200012,,,,,,,,,,,,,,,,,34.9418195420003,35.736229875008576,36.527927332994295,36.52025158298784,,,,,,,,,,,,,,,,36.52091841699439,36.527927332994295,36.527927332994295,37.37770608300343,b,1.0,0.8451585829898249,,37.37826254198444,37.3885753749928,38.37543608300621,38.38624104199698,,,,,,,,,,,,,,,,,,,,sub-148,1,stroop_test,,
,,,,2.0,2.0,0.0,,,,,rot,red,r,1.0,r,1.0,0.6418248330010101,,,,,,,,,,,,,,0.0,2.0,2.0,0.0,,,,,38.38624104199698,,,,,,,,,,,,,,,,,38.37591145798797,39.17620404198533,39.96915629200521,39.95974095800193,,,,,,,,,,,,,,,,39.96045533299912,39.96915629200521,39.96915629200521,40.621804082999006,r,1.0,0.6418248330010101,,40.62253862500074,40.63282574998448,41.620143999985885,41.62586245799321,,,,,,,,,,,,,,,,,,,,sub-148,1,stroop_test,,
,,,,3.0,3.0,0.0,,,,,blau,blue,b,1.0,b,1.0,0.4750955410127062,,,,,,,,,,,,,,0.0,3.0,3.0,6.0,,,,,41.62586245799321,,,,,,,,,,,,,,,,,41.62058749998687,41.719730832992354,42.51864029199351,42.50381424999796,,,,,,,,,,,,,,,,42.510874416999286,42.51864029199351,42.51864029199351,43.0050254999951,b,1.0,0.4750955410127062,,43.00574504199904,43.01629266698728,44.00391645799391,44.00997458299389,,,,,,,,,,,,,,,,,,,,sub-148,1,stroop_test,,
,,,,4.0,4.0,0.0,,,,,rot,red,r,1.0,r,1.0,0.5125656250165775,,,,,,,,,,,,,,0.0,4.0,4.0,1.0,,,,,44.00997458299389,,,,,,,,,,,,,,,,,44.00446133301011,44.3531061669928,45.14754191698739,45.136781624984,,,,,,,,,,,,,,,,45.14013037498808,45.14754191698739,45.14754191698739,45.67185887499363,r,1.0,0.5125656250165775,,45.67258583300281,45.68263108300744,46.670547707995865,46.67672508300166,,,,,,,,,,,,,,,,,,,,sub-148,1,stroop_test,,
,,,,5.0,5.0,0.0,,,,,blau,yellow,g,0.0,g,1.0,0.6403082920005545,,,,,,,,,,,,,,0.0,5.0,5.0,7.0,,,,,46.67672508300166,,,,,,,,,,,,,,,,,46.67099499999313,47.87000354198972,48.666632582986495,48.65407525000046,,,,,,,,,,,,,,,,48.65910324998549,48.666632582986495,48.666632582986495,49.31162929200218,g,1.0,0.6403082920005545,,49.31220924999798,49.32229304200155,50.30898516700836,50.31993224998587,,,,,,,,,,,,,,,,,,,,sub-148,1,stroop_test,,
,,,,6.0,6.0,0.0,,,,,gelb,yellow,g,1.0,g,1.0,0.6955134169838857,,,,,,,,,,,,,,0.0,6.0,6.0,11.0,,,,,50.31993224998587,,,,,,,,,,,,,,,,,50.30946941699949,50.40944816698902,51.20552441698965,51.19390287500573,,,,,,,,,,,,,,,,51.19749012499233,51.20552441698965,51.20552441698965,51.9049101670098,g,1.0,0.6955134169838857,,51.90548250000575,51.91586704200017,52.90410408299067,52.90992075001122,,,,,,,,,,,,,,,,,,,,sub-148,1,stroop_test,,
,,,,7.0,7.0,0.0,,,,,blau,blue,b,1.0,b,1.0,0.4153056670038495,,,,,,,,,,,,,,0.0,7.0,7.0,5.0,,,,,52.90992075001122,,,,,,,,,,,,,,,,,52.90455716699944,53.703376749996096,54.49770741700195,54.4871322500112,,,,,,,,,,,,,,,,54.49102783299168,54.49770741700195,54.49770741700195,54.92221691700979,b,1.0,0.4153056670038495,,54.92283620798844,54.93314283300424,55.92115629199543,55.92737424999359,,,,,,,,,,,,,,,,,,,,sub-148,1,stroop_test,,
,,,,8.0,8.0,0.0,,,,,gelb,yellow,g,1.0,g,1.0,0.5358644579828251,,,,,,,,,,,,,,0.0,8.0,8.0,10.0,,,,,55.92737424999359,,,,,,,,,,,,,,,,,55.92168945798767,57.12022949999664,57.91468404198531,57.90414574998431,,,,,,,,,,,,,,,,57.907608332985546,57.91468404198531,57.91468404198531,58.45567195798503,g,1.0,0.5358644579828251,,58.45638374998816,58.466768207988935,59.45451737500844,59.460766792006325,,,,,,,,,,,,,,,,,,,,sub-148,1,stroop_test,,
,,,,9.0,9.0,0.0,,,,,gelb,blue,b,0.0,b,1.0,0.89485058397986,,,,,,,,,,,,,,0.0,9.0,9.0,9.0,,,,,59.460766792006325,,,,,,,,,,,,,,,,,59.455153957998846,60.65361833298812,61.44591429200955,61.43764208300854,,,,,,,,,,,,,,,,61.438352583005326,61.44591429200955,61.44591429200955,62.34508583298884,b,1.0,0.89485058397986,,62.345772833010415,62.35618091700599,63.34315075000632,63.35372462499072,,,,,,,,,,,,,,,,,,,,sub-148,1,stroop_test,,
,,,,10.0,10.0,0.0,,,,,blau,red,r,0.0,r,1.0,0.3777805420104414,,,,,,,,,,,,,,0.0,10.0,10.0,4.0,,,,,63.35372462499072,,,,,,,,,,,,,,,,,63.3436037079955,64.14305108299595,64.93665733298985,64.92623287500464,,,,,,,,,,,,,,,,64.9297544999863,64.93665733298985,64.93665733298985,65.32248312499723,r,1.0,0.3777805420104414,,65.32305654199445,65.33324745800928,66.32095987501089,66.32670854200842,,,,,,,,,,,,,,,,,,,,sub-148,1,stroop_test,,
,,,,11.0,11.0,0.0,,,,,gelb,red,r,0.0,r,1.0,0.5237282080051955,,,,,,,,,,,,,,0.0,11.0,11.0,8.0,,,,,66.32670854200842,,,,,,,,,,,,,,,,,66.32141391700134,67.52047904199571,68.31557166698622,68.3043914999871,,,,,,,,,,,,,,,,68.30829991700011,68.31557166698622,68.31557166698622,68.845315167011,r,1.0,0.5237282080051955,,68.84588995800004,68.85622808299377,69.84287308299099,69.85377304200665,,,,,,,,,,,,,,,,,,,,sub-148,1,stroop_test,,
,,,,12.0,0.0,1.0,,,,,blau,blue,b,1.0,b,1.0,0.5000155830057338,,,,,,,,,,,,,,1.0,0.0,12.0,5.0,,,,,69.85377304200665,,,,,,,,,,,,,,,,,69.84333179198438,71.04329345800215,71.85332141700201,71.82640008299495,,,,,,,,,,,,,,,,71.83079474998522,71.85332141700201,71.85332141700201,72.3593735829927,b,1.0,0.5000155830057338,,72.35994858300546,72.3704582079954,73.35445629199967,73.36035258299671,,,,,,,,,,,,,,,,,,,,sub-148,1,stroop_test,,
,,,,13.0,1.0,1.0,,,,,blau,yellow,g,0.0,g,1.0,0.7302295000117738,,,,,,,,,,,,,,1.0,1.0,13.0,7.0,,,,,73.36035258299671,,,,,,,,,,,,,,,,,73.3548982499924,74.15391341698705,74.94574324999121,74.93787012499524,,,,,,,,,,,,,,,,74.93851779200486,74.94574324999121,74.94574324999121,75.67910624999786,g,1.0,0.7302295000117738,,75.67965587499202,75.68928550000419,76.67650237499038,76.687320291996,,,,,,,,,,,,,,,,,,,,sub-148,1,stroop_test,,
,,,,14.0,2.0,1.0,,,,,gelb,red,r,0.0,r,1.0,0.4891927079879679,,,,,,,,,,,,,,1.0,2.0,14.0,8.0,,,,,76.687320291996,,,,,,,,,,,,,,,,,76.6770117499982,77.47735495798406,78.28171241699602,78.27119674999267,,,,,,,,,,,,,,,,78.27456612500828,78.28171241699602,78.28171241699602,78.7732583330071,r,1.0,0.4891927079879679,,78.77395837500808,78.78425266698468,79.7714053329837,79.77720008298638,,,,,,,,,,,,,,,,,,,,sub-148,1,stroop_test,,
,,,,15.0,3.0,1.0,,,,,rot,red,r,1.0,r,1.0,0.610613500000909,,,,,,,,,,,,,,1.0,3.0,15.0,0.0,,,,,79.77720008298638,,,,,,,,,,,,,,,,,79.7718621249951,79.87078575001215,80.66594712500228,80.65480487499735,,,,,,,,,,,,,,,,80.65861004200997,80.66594712500228,80.66594712500228,81.27913004200673,r,1.0,0.610613500000909,,81.27971141700982,81.2899314579845,82.27860962500563,82.28718824998941,,,,,,,,,,,,,,,,,,,,sub-148,1,stroop_test,,
,,,,16.0,4.0,1.0,,,,,blau,blue,b,1.0,b,1.0,0.5344655420049094,,,,,,,,,,,,,,1.0,4.0,16.0,6.0,,,,,82.28718824998941,,,,,,,,,,,,,,,,,82.27905145799741,83.07737533299951,83.88240349999978,83.87140254199039,,,,,,,,,,,,,,,,83.87523608299671,83.88240349999978,83.88240349999978,84.42296679198625,b,1.0,0.5344655420049094,,84.42367587500485,84.43400062498404,85.42154483299237,85.42774737501168,,,,,,,,,,,,,,,,,,,,sub-148,1,stroop_test,,
,,,,17.0,5.0,1.0,,,,,blau,red,r,0.0,r,1.0,0.5552577920025215,,,,,,,,,,,,,,1.0,5.0,17.0,4.0,,,,,85.42774737501168,,,,,,,,,,,,,,,,,85.42206512499251,86.62095316700288,87.41365429200232,87.40537291701185,,,,,,,,,,,,,,,,87.40609562498867,87.41365429200232,87.41365429200232,87.97301429198706,r,1.0,0.5552577920025215,,87.97364266699878,87.98399587499443,88.9717767080001,88.97810916698654,,,,,,,,,,,,,,,,,,,,sub-148,1,stroop_test,,
,,,,18.0,6.0,1.0,,,,,gelb,blue,b,0.0,b,1.0,0.8224703750165645,,,,,,,,,,,,,,1.0,6.0,18.0,9.0,,,,,88.97810916698654,,,,,,,,,,,,,,,,,88.9722757920099,89.07108295799117,89.8668411670078,89.85509020800237,,,,,,,,,,,,,,,,89.85927745798836,89.8668411670078,89.8668411670078,90.69553900000756,b,1.0,0.8224703750165645,,90.69627541699448,90.70670224999776,91.69493487500586,91.70421633298974,,,,,,,,,,,,,,,,,,,,sub-148,1,stroop_test,,
,,,,19.0,7.0,1.0,,,,,gelb,yellow,g,1.0,g,1.0,0.5354668329819106,,,,,,,,,,,,,,1.0,7.0,19.0,11.0,,,,,91.70421633298974,,,,,,,,,,,,,,,,,91.69550612499006,92.49433304200647,93.29593283298892,93.288412666996,,,,,,,,,,,,,,,,93.28904383300689,93.29593283298892,93.29593283298892,93.8399375829904,g,1.0,0.5354668329819106,,93.8407530419936,93.85206083298544,94.83851795800727,94.8440440830018,,,,,,,,,,,,,,,,,,,,sub-148,1,stroop_test,,
,,,,20.0,8.0,1.0,,,,,gelb,yellow,g,1.0,g,1.0,0.5816014170122799,,,,,,,,,,,,,,1.0,8.0,20.0,10.0,,,,,94.8440440830018,,,,,,,,,,,,,,,,,94.83900862498558,95.18786141698364,95.98057116699056,95.9721082499891,,,,,,,,,,,,,,,,95.97290187500766,95.98057116699056,95.98057116699056,96.5734054170025,g,1.0,0.5816014170122799,,96.5741382080014,96.58454441701178,97.57180066700676,97.57740308300708,,,,,,,,,,,,,,,,,,,,sub-148,1,stroop_test,,
,,,,21.0,9.0,1.0,,,,,rot,red,r,1.0,r,1.0,0.5499778329976834,,,,,,,,,,,,,,1.0,9.0,21.0,1.0,,,,,97.57740308300708,,,,,,,,,,,,,,,,,97.57224704200053,98.37130741699366,99.1668847920082,99.15550608298508,,,,,,,,,,,,,,,,99.15961899998364,99.1668847920082,99.1668847920082,99.72333499998786,r,1.0,0.5499778329976834,,99.72405137500029,99.73453779198462,100.72225895800511,100.7284619580023,,,,,,,,,,,,,,,,,,,,sub-148,1,stroop_test,,
,,,,22.0,10.0,1.0,,,,,rot,blue,b,0.0,b,1.0,0.5349257920170203,,,,,,,,,,,,,,1.0,10.0,22.0,2.0,,,,,100.7284619580023,,,,,,,,,,,,,,,,,100.72287312499247,101.92140858300264,102.71315454199794,102.70539250000728,,,,,,,,,,,,,,,,102.70604437499424,102.71315454199794,102.71315454199794,103.2568051670096,b,1.0,0.5349257920170203,,103.25736833299744,103.26745966699671,104.25565320800524,104.26194362499518,,,,,,,,,,,,,,,,,,,,sub-148,1,stroop_test,,
,,,,23.0,11.0,1.0,,,,,rot,yellow,g,0.0,g,1.0,0.8351828749873675,,,,,,,,,,,,,,1.0,11.0,23.0,3.0,,,,,104.26194362499518,,,,,,,,,,,,,,,,,104.25622333300998,105.45457549998537,106.24679466700763,106.23865216699778,,,,,,,,,,,,,,,,106.23935662501026,106.24679466700763,106.24679466700763,107.08982520800782,g,1.0,0.8351828749873675,,107.09039604201098,107.10062391700922,108.08885745800217,108.09656604198972,,,,,,,,,,,,,,,,,,,,sub-148,1,stroop_test,,
,,,,,,,,,,,,,,,,,,,,,,,,,,,,,,,,,,,,,,,,,,,,,,,,,,,,,,,,,,,,,,,,,,,,,,,,,,,,,,,,,,,,,,,108.08905087498717,108.09656604198972,108.09656604198972,112.77469250001012,space,4.6755973330000415,,,,,,,,,,,,,,sub-148,1,stroop_test,,
,,,,0.0,0.0,0.0,,,,,,,,,,,,,rot,blue,b,0.0,b,1.0,0.6812708330107853,,,,,,,,,,0.0,0.0,0.0,2.0,112.79790995799704,,,,,,,,,,,,,,,,,112.78979312500452,113.97175050000078,114.76742462499531,114.75562179199189,,,,,,,,,,,,,,,,,,,,,,,,,,,,,,,,,,,114.75983270799044,114.76742462499531,114.76742462499531,115.4571255419869,b,1.0,0.6812708330107853,,,,,,sub-148,1,stroop_test,,
,,,,1.0,1.0,0.0,,,,,,,,,,,,,gelb,yellow,g,1.0,g,1.0,0.951290708995657,,,,,,,,,,0.0,1.0,1.0,10.0,115.46680337499129,,,,,,,,,,,,,,,,,115.45768720799242,115.5549559580104,116.35032241698354,116.33908720800537,,,,,,,,,,,,,,,,,,,,,,,,,,,,,,,,,,,116.34305354199024,116.35032241698354,116.35032241698354,117.30651016699268,g,1.0,0.951290708995657,,,,,,sub-148,1,stroop_test,,
,,,,2.0,2.0,0.0,,,,,,,,,,,,,gelb,blue,b,0.0,b,1.0,0.6163116250245366,,,,,,,,,,0.0,2.0,2.0,9.0,117.31558450000011,,,,,,,,,,,,,,,,,117.30696124999668,118.50524062500337,119.29711237500304,119.28907904200604,,,,,,,,,,,,,,,,,,,,,,,,,,,,,,,,,,,119.28973374998895,119.29711237500304,119.29711237500304,119.92390308299218,b,1.0,0.6163116250245366,,,,,,sub-148,1,stroop_test,,
,,,,3.0,3.0,0.0,,,,,,,,,,,,,blau,blue,b,1.0,b,1.0,0.4778736660082359,,,,,,,,,,0.0,3.0,3.0,5.0,119.93319379200692,,,,,,,,,,,,,,,,,119.92434566700832,120.72182683300343,121.51665712500107,121.50591174999136,,,,,,,,,,,,,,,,,,,,,,,,,,,,,,,,,,,121.50945574999788,121.51665712500107,121.51665712500107,121.99696012499044,b,1.0,0.4778736660082359,,,,,,sub-148,1,stroop_test,,
,,,,4.0,4.0,0.0,,,,,,,,,,,,,rot,red,r,1.0,r,1.0,0.5596009579894599,,,,,,,,,,0.0,4.0,4.0,0.0,122.00672370800748,,,,,,,,,,,,,,,,,121.99751433299387,122.094736250001,122.88772691698978,122.8775763750018,,,,,,,,,,,,,,,,,,,,,,,,,,,,,,,,,,,122.88061474999996,122.88772691698978,122.88772691698978,123.45721324998884,r,1.0,0.5596009579894599,,,,,,sub-148,1,stroop_test,,
,,,,5.0,5.0,0.0,,,,,,,,,,,,,blau,blue,b,1.0,b,1.0,0.5448680839908775,,,,,,,,,,0.0,5.0,5.0,6.0,123.46653091700864,,,,,,,,,,,,,,,,,123.45769549999386,124.25548420799896,125.05037750001064,125.03931395799736,,,,,,,,,,,,,,,,,,,,,,,,,,,,,,,,,,,125.0432163749938,125.05037750001064,125.05037750001064,125.59772087499732,b,1.0,0.5448680839908775,,,,,,sub-148,1,stroop_test,,
,,,,6.0,6.0,0.0,,,,,,,,,,,,,rot,red,r,1.0,r,1.0,0.5699834999977611,,,,,,,,,,0.0,6.0,6.0,1.0,125.60754795800312,,,,,,,,,,,,,,,,,125.59820420798496,125.6948507920024,126.48830645799173,126.47809729198345,,,,,,,,,,,,,,,,,,,,,,,,,,,,,,,,,,,126.4813565420045,126.48830645799173,126.48830645799173,127.063847582991,r,1.0,0.5699834999977611,,,,,,sub-148,1,stroop_test,,
,,,,7.0,7.0,0.0,,,,,,,,,,,,,blau,yellow,g,0.0,g,1.0,1.1797027080028784,,,,,,,,,,0.0,7.0,7.0,7.0,127.07390183300596,,,,,,,,,,,,,,,,,127.06433820800156,127.41238987501129,128.21729745800258,128.20622841699517,,,,,,,,,,,,,,,,,,,,,,,,,,,,,,,,,,,128.21014187499532,128.21729745800258,128.21729745800258,129.4071472499927,g,1.0,1.1797027080028784,,,,,,sub-148,1,stroop_test,,
,,,,8.0,8.0,0.0,,,,,,,,,,,,,rot,yellow,g,0.0,g,1.0,0.6376210000016727,,,,,,,,,,0.0,8.0,8.0,3.0,129.41671179200057,,,,,,,,,,,,,,,,,129.40759770799195,130.20548908298952,131.00153725000564,130.98977166699478,,,,,,,,,,,,,,,,,,,,,,,,,,,,,,,,,,,130.99395000000368,131.00153725000564,131.00153725000564,131.64155908298562,g,1.0,0.6376210000016727,,,,,,sub-148,1,stroop_test,,
,,,,9.0,9.0,0.0,,,,,,,,,,,,,gelb,red,r,0.0,r,1.0,0.634589875000529,,,,,,,,,,0.0,9.0,9.0,8.0,131.65069641699665,,,,,,,,,,,,,,,,,131.64210354199167,131.73855495799216,132.53372883299016,132.5230247080035,,,,,,,,,,,,,,,,,,,,,,,,,,,,,,,,,,,132.52665908299969,132.53372883299016,132.53372883299016,133.17438616699656,r,1.0,0.634589875000529,,,,,,sub-148,1,stroop_test,,
,,,,10.0,10.0,0.0,,,,,,,,,,,,,blau,red,r,0.0,r,1.0,0.8371435830194969,,,,,,,,,,0.0,10.0,10.0,4.0,133.18419241698575,,,,,,,,,,,,,,,,,133.17493037501117,133.52237104199594,134.31859062498552,134.30651691698586,,,,,,,,,,,,,,,,,,,,,,,,,,,,,,,,,,,134.31105650000973,134.31859062498552,134.31859062498552,135.15813629201148,r,1.0,0.8371435830194969,,,,,,sub-148,1,stroop_test,,
,,,,11.0,11.0,0.0,,,,,,,,,,,,,gelb,yellow,g,1.0,g,1.0,0.6512304579955526,,,,,,,,,,0.0,11.0,11.0,11.0,135.16735000000335,,,,,,,,,,,,,,,,,135.1585878749902,135.50574379198952,136.3005154579878,136.28957020799862,,,,,,,,,,,,,,,,,,,,,,,,,,,,,,,,,,,136.29336312500527,136.3005154579878,136.3005154579878,136.95759999999427,g,1.0,0.6512304579955526,,,,,,sub-148,1,stroop_test,,
,,,,12.0,0.0,1.0,,,,,,,,,,,,,gelb,yellow,g,1.0,g,1.0,0.625015750003513,,,,,,,,,,1.0,0.0,12.0,11.0,136.96701120800572,,,,,,,,,,,,,,,,,136.95813687500777,137.05536316699,137.84742179198656,137.8395447919902,,,,,,,,,,,,,,,,,,,,,,,,,,,,,,,,,,,137.84018512500916,137.84742179198656,137.84742179198656,138.4744746669894,g,1.0,0.625015750003513,,,,,,sub-148,1,stroop_test,,
,,,,13.0,1.0,1.0,,,,,,,,,,,,,rot,red,r,1.0,r,1.0,0.6401462499925401,,,,,,,,,,1.0,1.0,13.0,0.0,138.4839568749885,,,,,,,,,,,,,,,,,138.47501695799292,138.57245158299338,139.36775274999673,139.3565331249847,,,,,,,,,,,,,,,,,,,,,,,,,,,,,,,,,,,139.36032949999208,139.36775274999673,139.36775274999673,140.01320687500993,r,1.0,0.6401462499925401,,,,,,sub-148,1,stroop_test,,
,,,,14.0,2.0,1.0,,,,,,,,,,,,,rot,yellow,g,0.0,g,1.0,0.8300029579841066,,,,,,,,,,1.0,2.0,14.0,3.0,140.02217979199486,,,,,,,,,,,,,,,,,140.01363866700558,141.21198954200372,142.00536400001147,141.99632099998416,,,,,,,,,,,,,,,,,,,,,,,,,,,,,,,,,,,141.99702149999212,142.00536400001147,142.00536400001147,142.84102349999011,g,1.0,0.8300029579841066,,,,,,sub-148,1,stroop_test,,
,,,,15.0,3.0,1.0,,,,,,,,,,,,,gelb,yellow,g,1.0,g,1.0,0.5375105830025859,,,,,,,,,,1.0,3.0,15.0,10.0,142.8503445420065,,,,,,,,,,,,,,,,,142.8415644170018,143.639210207999,144.43502891701064,144.42321279199678,,,,,,,,,,,,,,,,,,,,,,,,,,,,,,,,,,,144.42779008299112,144.43502891701064,144.43502891701064,144.97489816698362,g,1.0,0.5375105830025859,,,,,,sub-148,1,stroop_test,,
,,,,16.0,4.0,1.0,,,,,,,,,,,,,gelb,red,r,0.0,r,1.0,0.581272750016069,,,,,,,,,,1.0,4.0,16.0,8.0,144.98423766699852,,,,,,,,,,,,,,,,,144.97534745800658,145.77268020799966,146.5643304999976,146.55628141699708,,,,,,,,,,,,,,,,,,,,,,,,,,,,,,,,,,,146.55697520799004,146.5643304999976,146.5643304999976,147.14810245798435,r,1.0,0.581272750016069,,,,,,sub-148,1,stroop_test,,
,,,,17.0,5.0,1.0,,,,,,,,,,,,,blau,yellow,g,0.0,g,1.0,0.5729823329893406,,,,,,,,,,1.0,5.0,17.0,7.0,147.15795074999917,,,,,,,,,,,,,,,,,147.14865204200032,147.49572487498517,148.2916925419995,148.2797477080021,,,,,,,,,,,,,,,,,,,,,,,,,,,,,,,,,,,148.28354274999583,148.2916925419995,148.2916925419995,148.87466012500226,g,1.0,0.5729823329893406,,,,,,sub-148,1,stroop_test,,
,,,,18.0,6.0,1.0,,,,,,,,,,,,,gelb,blue,b,0.0,b,1.0,0.4106727089965716,,,,,,,,,,1.0,6.0,18.0,9.0,148.884317249991,,,,,,,,,,,,,,,,,148.8752159170108,148.97258641698863,149.76871854200726,149.75677800000994,,,,,,,,,,,,,,,,,,,,,,,,,,,,,,,,,,,149.761158874986,149.76871854200726,149.76871854200726,150.20701787498547,b,1.0,0.4106727089965716,,,,,,sub-148,1,stroop_test,,
,,,,19.0,7.0,1.0,,,,,,,,,,,,,blau,blue,b,1.0,b,1.0,0.5409267919894774,,,,,,,,,,1.0,7.0,19.0,5.0,150.22289895798897,,,,,,,,,,,,,,,,,150.20758366701193,150.54559787499602,151.3420866249944,151.33037599999807,,,,,,,,,,,,,,,,,,,,,,,,,,,,,,,,,,,151.33426095798495,151.3420866249944,151.3420866249944,151.8910997500061,b,1.0,0.5409267919894774,,,,,,sub-148,1,stroop_test,,
,,,,20.0,8.0,1.0,,,,,,,,,,,,,rot,blue,b,0.0,b,1.0,0.4757742499932647,,,,,,,,,,1.0,8.0,20.0,2.0,151.90048241699697,,,,,,,,,,,,,,,,,151.89153887500288,152.23945412499597,153.03559650000534,153.02354629201,,,,,,,,,,,,,,,,,,,,,,,,,,,,,,,,,,,153.02811608300544,153.03559650000534,153.03559650000534,153.51416729198536,b,1.0,0.4757742499932647,,,,,,sub-148,1,stroop_test,,
,,,,21.0,9.0,1.0,,,,,,,,,,,,,rot,red,r,1.0,r,1.0,0.5749709169904236,,,,,,,,,,1.0,9.0,21.0,1.0,153.5391272919951,,,,,,,,,,,,,,,,,153.51458783299313,154.71306008298416,155.51495224999962,155.50676600000588,,,,,,,,,,,,,,,,,,,,,,,,,,,,,,,,,,,155.50744879199192,155.51495224999962,155.51495224999962,156.09557783300988,r,1.0,0.5749709169904236,,,,,,sub-148,1,stroop_test,,
,,,,22.0,10.0,1.0,,,,,,,,,,,,,blau,red,r,0.0,r,1.0,0.5844402500079013,,,,,,,,,,1.0,10.0,22.0,4.0,156.10590241700993,,,,,,,,,,,,,,,,,156.0960124169942,156.18966174998786,156.98444016699796,156.97339154200745,,,,,,,,,,,,,,,,,,,,,,,,,,,,,,,,,,,156.9772764579975,156.98444016699796,156.98444016699796,157.57490720800706,r,1.0,0.5844402500079013,,,,,,sub-148,1,stroop_test,,
,,,,23.0,11.0,1.0,,,,,,,,,,,,,blau,blue,b,1.0,b,1.0,0.5746206250041723,,,,,,,,,,1.0,11.0,23.0,6.0,157.58540024998365,,,,,,,,,,,,,,,,,157.57560174999526,157.67291379199014,158.464860957989,158.45684283299488,,,,,,,,,,,,,,,,,,,,,,,,,,,,,,,,,,,158.45749637499102,158.464860957989,158.464860957989,159.04181720799534,b,1.0,0.5746206250041723,,,,,,sub-148,1,stroop_test,,
,,,,24.0,0.0,2.0,,,,,,,,,,,,,rot,yellow,g,0.0,g,1.0,0.9629522080067544,,,,,,,,,,2.0,0.0,24.0,3.0,159.05124404199887,,,,,,,,,,,,,,,,,159.042350542004,159.3897294169874,160.18491341700428,160.17358158298885,,,,,,,,,,,,,,,,,,,,,,,,,,,,,,,,,,,160.1775217920076,160.18491341700428,160.18491341700428,161.15793066698825,g,1.0,0.9629522080067544,,,,,,sub-148,1,stroop_test,,
,,,,25.0,1.0,2.0,,,,,,,,,,,,,rot,red,r,1.0,r,1.0,0.6184395829914138,,,,,,,,,,2.0,1.0,25.0,0.0,161.16731495800195,,,,,,,,,,,,,,,,,161.15837033299613,161.2559572919854,162.04788537501008,162.04029195799376,,,,,,,,,,,,,,,,,,,,,,,,,,,,,,,,,,,162.04094120798982,162.04788537501008,162.04788537501008,162.674993291992,r,1.0,0.6184395829914138,,,,,,sub-148,1,stroop_test,,
,,,,26.0,2.0,2.0,,,,,,,,,,,,,rot,red,r,1.0,r,1.0,0.4813301249814685,,,,,,,,,,2.0,2.0,26.0,1.0,162.68481645800057,,,,,,,,,,,,,,,,,162.67555575000006,162.77266983300797,163.56519225001102,163.55734779199702,,,,,,,,,,,,,,,,,,,,,,,,,,,,,,,,,,,163.55804299999727,163.56519225001102,163.56519225001102,164.05815641698427,r,1.0,0.4813301249814685,,,,,,sub-148,1,stroop_test,,
,,,,27.0,3.0,2.0,,,,,,,,,,,,,gelb,blue,b,0.0,b,1.0,0.7204472080047708,,,,,,,,,,2.0,3.0,27.0,9.0,164.06757137499517,,,,,,,,,,,,,,,,,164.05862450000132,164.40651512501063,165.2024601669982,165.19040279201,,,,,,,,,,,,,,,,,,,,,,,,,,,,,,,,,,,165.19504299998516,165.2024601669982,165.2024601669982,165.9253454169957,b,1.0,0.7204472080047708,,,,,,sub-148,1,stroop_test,,
,,,,28.0,4.0,2.0,,,,,,,,,,,,,gelb,yellow,g,1.0,g,1.0,0.7374818329990376,,,,,,,,,,2.0,4.0,28.0,11.0,165.93477920800797,,,,,,,,,,,,,,,,,165.9258802080003,167.12333183299052,167.91505129198777,167.9070899579965,,,,,,,,,,,,,,,,,,,,,,,,,,,,,,,,,,,167.90772687501158,167.91505129198777,167.91505129198777,168.65880187498988,g,1.0,0.7374818329990376,,,,,,sub-148,1,stroop_test,,
,,,,29.0,5.0,2.0,,,,,,,,,,,,,blau,yellow,g,0.0,g,1.0,0.5730806250066962,,,,,,,,,,2.0,5.0,29.0,7.0,168.66800254199188,,,,,,,,,,,,,,,,,168.65925895801047,168.7567036249966,169.55150766699808,169.54039633300272,,,,,,,,,,,,,,,,,,,,,,,,,,,,,,,,,,,169.5442829579988,169.55150766699808,169.55150766699808,170.13129474999732,g,1.0,0.5730806250066962,,,,,,sub-148,1,stroop_test,,
,,,,30.0,6.0,2.0,,,,,,,,,,,,,blau,blue,b,1.0,b,1.0,0.4559301669942215,,,,,,,,,,2.0,6.0,30.0,5.0,170.14218154200353,,,,,,,,,,,,,,,,,170.1318564999965,170.9298149170063,171.72201195798698,171.71392116698553,,,,,,,,,,,,,,,,,,,,,,,,,,,,,,,,,,,171.71459895800217,171.72201195798698,171.72201195798698,172.18075579201104,b,1.0,0.4559301669942215,,,,,,sub-148,1,stroop_test,,
,,,,31.0,7.0,2.0,,,,,,,,,,,,,rot,blue,b,0.0,b,1.0,0.5159361659898423,,,,,,,,,,2.0,7.0,31.0,2.0,172.18954316698364,,,,,,,,,,,,,,,,,172.18117712499225,172.27990779199172,173.08435720799025,173.07382154199877,,,,,,,,,,,,,,,,,,,,,,,,,,,,,,,,,,,173.07710116700036,173.08435720799025,173.08435720799025,173.60840724999434,b,1.0,0.5159361659898423,,,,,,sub-148,1,stroop_test,,
,,,,32.0,8.0,2.0,,,,,,,,,,,,,gelb,red,r,0.0,r,1.0,0.6585310419904999,,,,,,,,,,2.0,8.0,32.0,8.0,173.61777116698795,,,,,,,,,,,,,,,,,173.6088702499983,174.8066920829879,175.60287508298643,175.5911320419982,,,,,,,,,,,,,,,,,,,,,,,,,,,,,,,,,,,175.59549929198693,175.60287508298643,175.60287508298643,176.26536129199667,r,1.0,0.6585310419904999,,,,,,sub-148,1,stroop_test,,
,,,,33.0,9.0,2.0,,,,,,,,,,,,,gelb,yellow,g,1.0,g,1.0,1.0617759589804336,,,,,,,,,,2.0,9.0,33.0,10.0,176.27516379198642,,,,,,,,,,,,,,,,,176.26579454200692,177.0632832919946,177.8563679170038,177.84649825000088,,,,,,,,,,,,,,,,,,,,,,,,,,,,,,,,,,,177.84715245800908,177.8563679170038,177.8563679170038,178.92482966699754,g,1.0,1.0617759589804336,,,,,,sub-148,1,stroop_test,,
,,,,34.0,10.0,2.0,,,,,,,,,,,,,blau,blue,b,1.0,b,1.0,0.5500492079881951,,,,,,,,,,2.0,10.0,34.0,6.0,178.93414983298862,,,,,,,,,,,,,,,,,178.92527833298664,179.27344195800833,180.06858954200288,180.05741183299688,,,,,,,,,,,,,,,,,,,,,,,,,,,,,,,,,,,180.06136733299354,180.06858954200288,180.06858954200288,180.62576558298315,b,1.0,0.5500492079881951,,,,,,sub-148,1,stroop_test,,
,,,,35.0,11.0,2.0,,,,,,,,,,,,,blau,red,r,0.0,r,1.0,0.5054213749826886,,,,,,,,,,2.0,11.0,35.0,4.0,180.63520729198356,,,,,,,,,,,,,,,,,180.62621954199855,181.4233840829984,182.2154860830051,182.20738058298596,,,,,,,,,,,,,,,,,,,,,,,,,,,,,,,,,,,182.20803720800905,182.2154860830051,182.2154860830051,182.7253440420027,r,1.0,0.5054213749826886,,,,,,sub-148,1,stroop_test,,
,,,,36.0,0.0,3.0,,,,,,,,,,,,,gelb,blue,b,0.0,b,1.0,0.5213281670003198,,,,,,,,,,3.0,0.0,36.0,9.0,182.7351472080045,,,,,,,,,,,,,,,,,182.7258971249976,183.9237325830036,184.71895591699283,184.7082257079892,,,,,,,,,,,,,,,,,,,,,,,,,,,,,,,,,,,184.7118041669892,184.71895591699283,184.71895591699283,185.2427382919996,b,1.0,0.5213281670003198,,,,,,sub-148,1,stroop_test,,
,,,,37.0,1.0,3.0,,,,,,,,,,,,,blau,blue,b,1.0,b,1.0,0.4665009579912293,,,,,,,,,,3.0,1.0,37.0,6.0,185.25222170801132,,,,,,,,,,,,,,,,,185.24328608298677,185.59047337499211,186.3865738750028,186.3744695420028,,,,,,,,,,,,,,,,,,,,,,,,,,,,,,,,,,,186.37889691698365,186.3865738750028,186.3865738750028,186.85930179199204,b,1.0,0.4665009579912293,,,,,,sub-148,1,stroop_test,,
,,,,38.0,2.0,3.0,,,,,,,,,,,,,blau,blue,b,1.0,b,1.0,0.4996575829864014,,,,,,,,,,3.0,2.0,38.0,5.0,186.86959995800865,,,,,,,,,,,,,,,,,186.8600245419948,188.05708933298592,188.8495000000112,188.84114483298617,,,,,,,,,,,,,,,,,,,,,,,,,,,,,,,,,,,188.84188658298808,188.8495000000112,188.8495000000112,189.3587677080068,b,1.0,0.4996575829864014,,,,,,sub-148,1,stroop_test,,
,,,,39.0,3.0,3.0,,,,,,,,,,,,,gelb,yellow,g,1.0,g,1.0,0.8423336659907363,,,,,,,,,,3.0,3.0,39.0,11.0,189.36781587501173,,,,,,,,,,,,,,,,,189.3592073750042,189.45695404199068,190.25347720799616,190.24131666700123,,,,,,,,,,,,,,,,,,,,,,,,,,,,,,,,,,,190.24592099999427,190.25347720799616,190.25347720799616,191.0988553329953,g,1.0,0.8423336659907363,,,,,,sub-148,1,stroop_test,,
,,,,40.0,4.0,3.0,,,,,,,,,,,,,rot,yellow,g,0.0,g,1.0,0.9425356250139884,,,,,,,,,,3.0,4.0,40.0,3.0,191.1235392919916,,,,,,,,,,,,,,,,,191.0993184580002,191.1971009580011,192.0024735830084,191.99113224999743,,,,,,,,,,,,,,,,,,,,,,,,,,,,,,,,,,,191.9949331670068,192.0024735830084,192.0024735830084,192.94955308298813,g,1.0,0.9425356250139884,,,,,,sub-148,1,stroop_test,,
,,,,41.0,5.0,3.0,,,,,,,,,,,,,rot,red,r,1.0,r,1.0,0.5622219999786466,,,,,,,,,,3.0,5.0,41.0,0.0,192.95952425000723,,,,,,,,,,,,,,,,,192.95010424999052,193.0467984999996,193.8400006669981,193.82993504198384,,,,,,,,,,,,,,,,,,,,,,,,,,,,,,,,,,,193.8305934169912,193.8400006669981,193.8400006669981,194.40921149999485,r,1.0,0.5622219999786466,,,,,,sub-148,1,stroop_test,,
,,,,42.0,6.0,3.0,,,,,,,,,,,,,rot,red,r,1.0,r,1.0,0.4250196670182049,,,,,,,,,,3.0,6.0,42.0,1.0,194.41858649998903,,,,,,,,,,,,,,,,,194.40970504199504,195.20731841700035,195.9996642920014,195.9914599169861,,,,,,,,,,,,,,,,,,,,,,,,,,,,,,,,,,,195.99216933301068,195.9996642920014,195.9996642920014,196.43710012501103,r,1.0,0.4250196670182049,,,,,,sub-148,1,stroop_test,,
,,,,43.0,7.0,3.0,,,,,,,,,,,,,rot,blue,b,0.0,b,1.0,0.5117775409889873,,,,,,,,,,3.0,7.0,43.0,2.0,196.4420205419883,,,,,,,,,,,,,,,,,196.43753887500495,197.6303033329896,198.433385042008,198.42502054199576,,,,,,,,,,,,,,,,,,,,,,,,,,,,,,,,,,,198.425699082989,198.433385042008,198.433385042008,198.9488993329869,b,1.0,0.5117775409889873,,,,,,sub-148,1,stroop_test,,
,,,,44.0,8.0,3.0,,,,,,,,,,,,,gelb,red,r,0.0,r,1.0,0.6244112919957843,,,,,,,,,,3.0,8.0,44.0,8.0,198.9735513330088,,,,,,,,,,,,,,,,,198.94939983298536,200.1470863329887,200.94342812499963,200.9309430420108,,,,,,,,,,,,,,,,,,,,,,,,,,,,,,,,,,,200.93486675000167,200.94342812499963,200.94342812499963,201.575900833006,r,1.0,0.6244112919957843,,,,,,sub-148,1,stroop_test,,
,,,,45.0,9.0,3.0,,,,,,,,,,,,,blau,yellow,g,0.0,g,1.0,0.7425559579860419,,,,,,,,,,3.0,9.0,45.0,7.0,201.5852754579973,,,,,,,,,,,,,,,,,201.5763434999972,201.6742534170044,202.4689693329856,202.45812458300497,,,,,,,,,,,,,,,,,,,,,,,,,,,,,,,,,,,202.4618242919969,202.4689693329856,202.4689693329856,203.2156950419885,g,1.0,0.7425559579860419,,,,,,sub-148,1,stroop_test,,
,,,,46.0,10.0,3.0,,,,,,,,,,,,,blau,red,r,0.0,r,1.0,0.6404837910085917,,,,,,,,,,3.0,10.0,46.0,4.0,203.2262865419907,,,,,,,,,,,,,,,,,203.2162195830024,204.4144910830073,205.2170905829989,205.2084628749872,,,,,,,,,,,,,,,,,,,,,,,,,,,,,,,,,,,205.20924595798715,205.2170905829989,205.2170905829989,205.85994587501045,r,1.0,0.6404837910085917,,,,,,sub-148,1,stroop_test,,
,,,,47.0,11.0,3.0,,,,,,,,,,,,,gelb,yellow,g,1.0,g,1.0,0.6151073339860886,,,,,,,,,,3.0,11.0,47.0,10.0,205.86931149999145,,,,,,,,,,,,,,,,,205.86040970799516,206.20773591700708,207.00307037500895,206.99144275000435,,,,,,,,,,,,,,,,,,,,,,,,,,,,,,,,,,,206.99583220799104,207.00307037500895,207.00307037500895,207.62621233300888,g,1.0,0.6151073339860886,,,,,,sub-148,1,stroop_test,,
,,,,48.0,0.0,4.0,,,,,,,,,,,,,rot,blue,b,0.0,b,1.0,0.4087901659950148,,,,,,,,,,4.0,0.0,48.0,2.0,207.6360879169952,,,,,,,,,,,,,,,,,207.6268184169894,208.8243154579832,209.6201002919988,209.60868620799735,,,,,,,,,,,,,,,,,,,,,,,,,,,,,,,,,,,209.6130241669889,209.6201002919988,209.6201002919988,210.03232624998785,b,1.0,0.4087901659950148,,,,,,sub-148,1,stroop_test,,
,,,,49.0,1.0,4.0,,,,,,,,,,,,,blau,blue,b,1.0,b,1.0,0.4824052919866517,,,,,,,,,,4.0,1.0,49.0,5.0,210.05741854201187,,,,,,,,,,,,,,,,,210.032754291984,210.83147099998317,211.63602229199023,211.62504116698983,,,,,,,,,,,,,,,,,,,,,,,,,,,,,,,,,,,211.62889220798388,211.63602229199023,211.63602229199023,212.12611304200252,b,1.0,0.4824052919866517,,,,,,sub-148,1,stroop_test,,
,,,,50.0,2.0,4.0,,,,,,,,,,,,,gelb,yellow,g,1.0,g,1.0,0.5372080410015769,,,,,,,,,,4.0,2.0,50.0,11.0,212.1355793749972,,,,,,,,,,,,,,,,,212.12662150000688,212.2244340830075,213.02045029200963,213.00855100000624,,,,,,,,,,,,,,,,,,,,,,,,,,,,,,,,,,,213.0129410829977,213.02045029200963,213.02045029200963,213.5601418330043,g,1.0,0.5372080410015769,,,,,,sub-148,1,stroop_test,,
,,,,51.0,3.0,4.0,,,,,,,,,,,,,rot,yellow,g,0.0,g,1.0,0.9516736659861637,,,,,,,,,,4.0,3.0,51.0,3.0,213.57008162498823,,,,,,,,,,,,,,,,,213.56069499999285,214.7576405,215.5527019999863,215.54168779199244,,,,,,,,,,,,,,,,,,,,,,,,,,,,,,,,,,,215.5453903329908,215.5527019999863,215.5527019999863,216.50937570800303,g,1.0,0.9516736659861637,,,,,,sub-148,1,stroop_test,,
,,,,52.0,4.0,4.0,,,,,,,,,,,,,rot,red,r,1.0,r,1.0,0.6419046249939129,,,,,,,,,,4.0,4.0,52.0,0.0,216.51860133299488,,,,,,,,,,,,,,,,,216.5098231669981,216.85785800000303,217.6501664579846,217.64194041700105,,,,,,,,,,,,,,,,,,,,,,,,,,,,,,,,,,,217.6426694169932,217.6501664579846,217.6501664579846,218.3038117079996,r,1.0,0.6419046249939129,,,,,,sub-148,1,stroop_test,,
,,,,53.0,5.0,4.0,,,,,,,,,,,,,gelb,red,r,0.0,r,1.0,0.4644450409978162,,,,,,,,,,4.0,5.0,53.0,8.0,218.30916624999367,,,,,,,,,,,,,,,,,218.304253624985,218.64751420798711,219.4525685420085,219.44189004198412,,,,,,,,,,,,,,,,,,,,,,,,,,,,,,,,,,,219.4454340419907,219.4525685420085,219.4525685420085,219.92664070799947,r,1.0,0.4644450409978162,,,,,,sub-148,1,stroop_test,,
,,,,54.0,6.0,4.0,,,,,,,,,,,,,rot,red,r,1.0,r,1.0,0.47291199999745,,,,,,,,,,4.0,6.0,54.0,1.0,219.9362044580048,,,,,,,,,,,,,,,,,219.92717350000748,220.27477349998665,221.0694946250005,221.05850029198336,,,,,,,,,,,,,,,,,,,,,,,,,,,,,,,,,,,221.06194608300572,221.0694946250005,221.0694946250005,221.5488253330113,r,1.0,0.47291199999745,,,,,,sub-148,1,stroop_test,,
,,,,55.0,7.0,4.0,,,,,,,,,,,,,blau,red,r,0.0,r,1.0,0.438616582978284,,,,,,,,,,4.0,7.0,55.0,4.0,221.55823187500937,,,,,,,,,,,,,,,,,221.5492422500101,222.34786725000595,223.1533822499914,223.14207354199607,,,,,,,,,,,,,,,,,,,,,,,,,,,,,,,,,,,223.14634350000412,223.1533822499914,223.1533822499914,223.6042523329961,r,1.0,0.438616582978284,,,,,,sub-148,1,stroop_test,,
,,,,56.0,8.0,4.0,,,,,,,,,,,,,gelb,yellow,g,1.0,g,1.0,0.6546883750124834,,,,,,,,,,4.0,8.0,56.0,10.0,223.6093924169836,,,,,,,,,,,,,,,,,223.6047125000041,223.696923874988,224.49084829198543,224.4804609999992,,,,,,,,,,,,,,,,,,,,,,,,,,,,,,,,,,,224.483812749997,224.49084829198543,224.49084829198543,225.14946349998357,g,1.0,0.6546883750124834,,,,,,sub-148,1,stroop_test,,
,,,,57.0,9.0,4.0,,,,,,,,,,,,,blau,blue,b,1.0,b,1.0,0.5404970420058817,,,,,,,,,,4.0,9.0,57.0,6.0,225.1597735419928,,,,,,,,,,,,,,,,,225.1500137500116,225.2468874579936,226.04119208300835,226.03056258300785,,,,,,,,,,,,,,,,,,,,,,,,,,,,,,,,,,,226.03430699999444,226.04119208300835,226.04119208300835,226.59174508298747,b,1.0,0.5404970420058817,,,,,,sub-148,1,stroop_test,,
,,,,58.0,10.0,4.0,,,,,,,,,,,,,gelb,blue,b,0.0,b,1.0,0.4584726670000236,,,,,,,,,,4.0,10.0,58.0,9.0,226.60039691699785,,,,,,,,,,,,,,,,,226.5921684170025,227.78197300000463,228.5909432079934,228.5652736249904,,,,,,,,,,,,,,,,,,,,,,,,,,,,,,,,,,,228.5686494999973,228.5909432079934,228.5909432079934,229.0601749579946,b,1.0,0.4584726670000236,,,,,,sub-148,1,stroop_test,,
,,,,59.0,11.0,4.0,,,,,,,,,,,,,blau,yellow,g,0.0,g,1.0,0.7422384170058649,,,,,,,,,,4.0,11.0,59.0,7.0,229.06957183300983,,,,,,,,,,,,,,,,,229.0606112079986,229.8582332500082,230.6551629169844,230.64263558300445,,,,,,,,,,,,,,,,,,,,,,,,,,,,,,,,,,,230.64731695799856,230.6551629169844,230.6551629169844,231.39974895800697,g,1.0,0.7422384170058649,,,,,,sub-148,1,stroop_test,,
,,,,60.0,0.0,5.0,,,,,,,,,,,,,gelb,blue,b,0.0,b,1.0,0.7390783750161063,,,,,,,,,,5.0,0.0,60.0,9.0,231.42461200000253,,,,,,,,,,,,,,,,,231.4001854170056,231.50052100000903,232.3032134170062,232.29220674998945,,,,,,,,,,,,,,,,,,,,,,,,,,,,,,,,,,,232.2960902499908,232.3032134170062,232.3032134170062,233.0538066669833,b,1.0,0.7390783750161063,,,,,,sub-148,1,stroop_test,,
,,,,61.0,1.0,5.0,,,,,,,,,,,,,gelb,red,r,0.0,r,1.0,0.6423549170140177,,,,,,,,,,5.0,1.0,61.0,8.0,233.06001112499507,,,,,,,,,,,,,,,,,233.0542408330075,234.2486715420091,235.05072595798995,235.0423793749942,,,,,,,,,,,,,,,,,,,,,,,,,,,,,,,,,,,235.043075833004,235.05072595798995,235.05072595798995,235.69963995800936,r,1.0,0.6423549170140177,,,,,,sub-148,1,stroop_test,,
,,,,62.0,2.0,5.0,,,,,,,,,,,,,rot,yellow,g,0.0,g,1.0,0.9967115000181366,,,,,,,,,,5.0,2.0,62.0,3.0,235.72476879198803,,,,,,,,,,,,,,,,,235.70006679199287,236.8989494999987,237.70365166699048,237.6924047920038,,,,,,,,,,,,,,,,,,,,,,,,,,,,,,,,,,,237.69626279198565,237.70365166699048,237.70365166699048,238.71047566700145,g,1.0,0.9967115000181366,,,,,,sub-148,1,stroop_test,,
,,,,63.0,3.0,5.0,,,,,,,,,,,,,blau,blue,b,1.0,b,1.0,0.5407931250229012,,,,,,,,,,5.0,3.0,63.0,6.0,238.7203599170025,,,,,,,,,,,,,,,,,238.71102849999443,239.50860000000105,240.3044062920089,240.29246191700804,,,,,,,,,,,,,,,,,,,,,,,,,,,,,,,,,,,240.29698387498505,240.3044062920089,240.3044062920089,240.84908316700603,b,1.0,0.5407931250229012,,,,,,sub-148,1,stroop_test,,
,,,,64.0,4.0,5.0,,,,,,,,,,,,,rot,red,r,1.0,r,1.0,0.4912923329975456,,,,,,,,,,5.0,4.0,64.0,0.0,240.8582996249897,,,,,,,,,,,,,,,,,240.8495126249909,241.6480128749972,242.44415187501,242.43193058299948,,,,,,,,,,,,,,,,,,,,,,,,,,,,,,,,,,,242.4358307920047,242.44415187501,242.44415187501,242.94390683301023,r,1.0,0.4912923329975456,,,,,,sub-148,1,stroop_test,,
,,,,65.0,5.0,5.0,,,,,,,,,,,,,blau,blue,b,1.0,b,1.0,0.5640614579897374,,,,,,,,,,5.0,5.0,65.0,5.0,242.9532222499838,,,,,,,,,,,,,,,,,242.94434687501047,243.29196812500595,244.08807337499456,244.0760037919972,,,,,,,,,,,,,,,,,,,,,,,,,,,,,,,,,,,244.0804604580044,244.08807337499456,244.08807337499456,244.66047520798747,b,1.0,0.5640614579897374,,,,,,sub-148,1,stroop_test,,
,,,,66.0,6.0,5.0,,,,,,,,,,,,,rot,red,r,1.0,r,1.0,0.5467242090089712,,,,,,,,,,5.0,6.0,66.0,1.0,244.6698084579839,,,,,,,,,,,,,,,,,244.6609122079972,245.4586799579847,246.25354141698332,246.24260475000483,,,,,,,,,,,,,,,,,,,,,,,,,,,,,,,,,,,246.24607070800263,246.25354141698332,246.25354141698332,246.81089541700203,r,1.0,0.5467242090089712,,,,,,sub-148,1,stroop_test,,
,,,,67.0,7.0,5.0,,,,,,,,,,,,,rot,blue,b,0.0,b,1.0,0.6172779999906197,,,,,,,,,,5.0,7.0,67.0,2.0,246.8202429169905,,,,,,,,,,,,,,,,,246.81134891699185,247.1586558749841,247.9505696670094,247.94269470800648,,,,,,,,,,,,,,,,,,,,,,,,,,,,,,,,,,,247.94334374999744,247.9505696670094,247.9505696670094,248.57759595799143,b,1.0,0.6172779999906197,,,,,,sub-148,1,stroop_test,,
,,,,68.0,8.0,5.0,,,,,,,,,,,,,blau,yellow,g,0.0,g,1.0,0.6564846670080442,,,,,,,,,,5.0,8.0,68.0,7.0,248.58807599998545,,,,,,,,,,,,,,,,,248.57829345800565,248.9255059999996,249.7212304580025,249.7094932080072,,,,,,,,,,,,,,,,,,,,,,,,,,,,,,,,,,,249.7138365420105,249.7212304580025,249.7212304580025,250.38265487499305,g,1.0,0.6564846670080442,,,,,,sub-148,1,stroop_test,,
,,,,69.0,9.0,5.0,,,,,,,,,,,,,blau,red,r,0.0,r,1.0,0.719933915999718,,,,,,,,,,5.0,9.0,69.0,4.0,250.39160450000784,,,,,,,,,,,,,,,,,250.3831003329833,250.4819782499981,251.2749617919908,251.265853082994,,,,,,,,,,,,,,,,,,,,,,,,,,,,,,,,,,,251.26654166699157,251.2749617919908,251.2749617919908,252.0001415000006,r,1.0,0.719933915999718,,,,,,sub-148,1,stroop_test,,
,,,,70.0,10.0,5.0,,,,,,,,,,,,,gelb,yellow,g,1.0,g,1.0,0.5220712499867659,,,,,,,,,,5.0,10.0,70.0,11.0,252.0251676669868,,,,,,,,,,,,,,,,,252.00057595799444,252.7996182499919,253.6036842080066,253.5927709579992,,,,,,,,,,,,,,,,,,,,,,,,,,,,,,,,,,,253.59644570801171,253.6036842080066,253.6036842080066,254.1280540000007,g,1.0,0.5220712499867659,,,,,,sub-148,1,stroop_test,,
,,,,71.0,11.0,5.0,,,,,,,,,,,,,gelb,yellow,g,1.0,g,1.0,0.4595444580190815,,,,,,,,,,5.0,11.0,71.0,10.0,254.1373527919932,,,,,,,,,,,,,,,,,254.1284851669916,255.32566266699,256.1179840829864,256.1099515829992,,,,,,,,,,,,,,,,,,,,,,,,,,,,,,,,,,,256.1106536249863,256.1179840829864,256.1179840829864,256.58379191698623,g,1.0,0.4595444580190815,,,,,,sub-148,1,stroop_test,,
,,,,72.0,0.0,6.0,,,,,,,,,,,,,blau,blue,b,1.0,b,1.0,0.5031111660064198,,,,,,,,,,6.0,0.0,72.0,6.0,256.60864112499985,,,,,,,,,,,,,,,,,256.58432237498346,256.68256874999497,257.4889149579976,257.47623104200466,,,,,,,,,,,,,,,,,,,,,,,,,,,,,,,,,,,257.4816508750082,257.4889149579976,257.4889149579976,257.9947619579907,b,1.0,0.5031111660064198,,,,,,sub-148,1,stroop_test,,
,,,,73.0,1.0,6.0,,,,,,,,,,,,,rot,red,r,1.0,r,1.0,0.4597922080138232,,,,,,,,,,6.0,1.0,73.0,1.0,258.0049461250019,,,,,,,,,,,,,,,,,257.9955270419887,258.7923944169888,259.58697754199966,259.57618362500216,,,,,,,,,,,,,,,,,,,,,,,,,,,,,,,,,,,259.57960137500777,259.58697754199966,259.58697754199966,260.0507019580109,r,1.0,0.4597922080138232,,,,,,sub-148,1,stroop_test,,
,,,,74.0,2.0,6.0,,,,,,,,,,,,,rot,red,r,1.0,r,1.0,0.4927950839919504,,,,,,,,,,6.0,2.0,74.0,0.0,260.0609079170099,,,,,,,,,,,,,,,,,260.051244458009,260.14913245799835,260.9419139579986,260.9322278749896,,,,,,,,,,,,,,,,,,,,,,,,,,,,,,,,,,,260.932896082988,260.9419139579986,260.9419139579986,261.4445458329865,r,1.0,0.4927950839919504,,,,,,sub-148,1,stroop_test,,
,,,,75.0,3.0,6.0,,,,,,,,,,,,,blau,blue,b,1.0,b,1.0,0.4462319159938488,,,,,,,,,,6.0,3.0,75.0,5.0,261.4538785420009,,,,,,,,,,,,,,,,,261.4450084170094,262.2424505829986,263.0371632500028,263.02646179200383,,,,,,,,,,,,,,,,,,,,,,,,,,,,,,,,,,,263.03010516701033,263.0371632500028,263.0371632500028,263.4941372080066,b,1.0,0.4462319159938488,,,,,,sub-148,1,stroop_test,,
,,,,76.0,4.0,6.0,,,,,,,,,,,,,blau,red,r,0.0,r,1.0,0.8133020410023164,,,,,,,,,,6.0,4.0,76.0,4.0,263.5034432079992,,,,,,,,,,,,,,,,,263.494593624986,264.29257783299545,265.0845218329923,265.07645595798385,,,,,,,,,,,,,,,,,,,,,,,,,,,,,,,,,,,265.0771339169878,265.0845218329923,265.0845218329923,265.90087541699177,r,1.0,0.8133020410023164,,,,,,sub-148,1,stroop_test,,
,,,,77.0,5.0,6.0,,,,,,,,,,,,,blau,yellow,g,0.0,g,1.0,0.61726458297926,,,,,,,,,,6.0,5.0,77.0,7.0,265.910866249993,,,,,,,,,,,,,,,,,265.9014290829946,267.099556458008,267.8921607079974,267.882742707996,,,,,,,,,,,,,,,,,,,,,,,,,,,,,,,,,,,267.88343275000807,267.8921607079974,267.8921607079974,268.51224995800294,g,1.0,0.61726458297926,,,,,,sub-148,1,stroop_test,,
,,,,78.0,6.0,6.0,,,,,,,,,,,,,rot,yellow,g,0.0,g,1.0,0.5197458750044461,,,,,,,,,,6.0,6.0,78.0,3.0,268.5221411669918,,,,,,,,,,,,,,,,,268.5128717079933,268.6093153329857,269.40588537498843,269.3935440419882,,,,,,,,,,,,,,,,,,,,,,,,,,,,,,,,,,,269.39817333300016,269.40588537498843,269.40588537498843,269.9283249170112,g,1.0,0.5197458750044461,,,,,,sub-148,1,stroop_test,,
,,,,79.0,7.0,6.0,,,,,,,,,,,,,gelb,blue,b,0.0,b,1.0,0.7260626249772031,,,,,,,,,,6.0,7.0,79.0,9.0,269.9384327919979,,,,,,,,,,,,,,,,,269.9290496670001,271.1260916249885,271.92069487500703,271.9099471250084,,,,,,,,,,,,,,,,,,,,,,,,,,,,,,,,,,,271.91357891701045,271.92069487500703,271.92069487500703,272.6508027079981,b,1.0,0.7260626249772031,,,,,,sub-148,1,stroop_test,,
,,,,80.0,8.0,6.0,,,,,,,,,,,,,gelb,yellow,g,1.0,g,1.0,0.7229313330026343,,,,,,,,,,6.0,8.0,80.0,11.0,272.67571391700767,,,,,,,,,,,,,,,,,272.6512182079896,272.9994804580056,273.7915866250114,273.7833903330029,,,,,,,,,,,,,,,,,,,,,,,,,,,,,,,,,,,273.7841020000051,273.7915866250114,273.7915866250114,274.5177175829885,g,1.0,0.7229313330026343,,,,,,sub-148,1,stroop_test,,
,,,,81.0,9.0,6.0,,,,,,,,,,,,,gelb,red,r,0.0,r,1.0,0.5284463749849238,,,,,,,,,,6.0,9.0,81.0,8.0,274.5424629999907,,,,,,,,,,,,,,,,,274.5181857080024,275.3163806250086,276.1180057919992,276.1100588330009,,,,,,,,,,,,,,,,,,,,,,,,,,,,,,,,,,,276.1106922919862,276.1180057919992,276.1180057919992,276.6511645829887,r,1.0,0.5284463749849238,,,,,,sub-148,1,stroop_test,,
,,,,82.0,10.0,6.0,,,,,,,,,,,,,rot,blue,b,0.0,b,1.0,0.4249449580092914,,,,,,,,,,6.0,10.0,82.0,2.0,276.6610839999921,,,,,,,,,,,,,,,,,276.6517258329841,276.99831249998533,277.7949884579866,277.7833518749976,,,,,,,,,,,,,,,,,,,,,,,,,,,,,,,,,,,277.7872994999925,277.7949884579866,277.7949884579866,278.22798441699706,b,1.0,0.4249449580092914,,,,,,sub-148,1,stroop_test,,
,,,,83.0,11.0,6.0,,,,,,,,,,,,,gelb,yellow,g,1.0,g,1.0,0.6902441249985714,,,,,,,,,,6.0,11.0,83.0,10.0,278.23743316699984,,,,,,,,,,,,,,,,,278.2284300419851,278.57637104199966,279.3706896670046,279.3601733329997,,,,,,,,,,,,,,,,,,,,,,,,,,,,,,,,,,,279.36348666698905,279.3706896670046,279.3706896670046,280.0683800420084,g,1.0,0.6902441249985714,,,,,,sub-148,1,stroop_test,,
,,,,84.0,0.0,7.0,,,,,,,,,,,,,blau,blue,b,1.0,b,1.0,0.5109968750039116,,,,,,,,,,7.0,0.0,84.0,5.0,280.07807770799263,,,,,,,,,,,,,,,,,280.06881662498927,280.41581862498424,281.20945950000896,281.19894916701014,,,,,,,,,,,,,,,,,,,,,,,,,,,,,,,,,,,281.2025077920116,281.20945950000896,281.20945950000896,281.7284753749845,b,1.0,0.5109968750039116,,,,,,sub-148,1,stroop_test,,
,,,,85.0,1.0,7.0,,,,,,,,,,,,,rot,yellow,g,0.0,g,1.0,0.7216015409794636,,,,,,,,,,7.0,1.0,85.0,3.0,281.73765258298954,,,,,,,,,,,,,,,,,281.7290041669912,282.0764352080005,282.8717302499863,282.8603570830019,,,,,,,,,,,,,,,,,,,,,,,,,,,,,,,,,,,282.8641480829974,282.8717302499863,282.8717302499863,283.5956527499948,g,1.0,0.7216015409794636,,,,,,sub-148,1,stroop_test,,
,,,,86.0,2.0,7.0,,,,,,,,,,,,,rot,blue,b,0.0,b,1.0,0.5836400000262074,,,,,,,,,,7.0,2.0,86.0,2.0,283.60515158300404,,,,,,,,,,,,,,,,,283.5961884169956,284.39319008300663,285.1858650420036,285.1774048329971,,,,,,,,,,,,,,,,,,,,,,,,,,,,,,,,,,,285.17817075000494,285.1858650420036,285.1858650420036,285.7785799999838,b,1.0,0.5836400000262074,,,,,,sub-148,1,stroop_test,,
,,,,87.0,3.0,7.0,,,,,,,,,,,,,gelb,yellow,g,1.0,g,1.0,0.5853751249960624,,,,,,,,,,7.0,3.0,87.0,11.0,285.787923625001,,,,,,,,,,,,,,,,,285.77913304200047,285.8766041669878,286.6718694579904,286.660602457996,,,,,,,,,,,,,,,,,,,,,,,,,,,,,,,,,,,286.66462366699125,286.6718694579904,286.6718694579904,287.2619717500056,g,1.0,0.5853751249960624,,,,,,sub-148,1,stroop_test,,
,,,,88.0,4.0,7.0,,,,,,,,,,,,,gelb,blue,b,0.0,b,1.0,0.7576706249965355,,,,,,,,,,7.0,4.0,88.0,9.0,287.27149799998733,,,,,,,,,,,,,,,,,287.2625187500089,288.05986712500453,288.8517906249908,288.8438095829915,,,,,,,,,,,,,,,,,,,,,,,,,,,,,,,,,,,288.8444777500117,288.8517906249908,288.8517906249908,289.61187145800795,b,1.0,0.7576706249965355,,,,,,sub-148,1,stroop_test,,
,,,,89.0,5.0,7.0,,,,,,,,,,,,,blau,blue,b,1.0,b,1.0,0.5557318339997437,,,,,,,,,,7.0,5.0,89.0,6.0,289.62124820798635,,,,,,,,,,,,,,,,,289.612336457998,289.95996974999434,290.7562294579984,290.7442888749938,,,,,,,,,,,,,,,,,,,,,,,,,,,,,,,,,,,290.7488807500049,290.7562294579984,290.7562294579984,291.31757445799303,b,1.0,0.5557318339997437,,,,,,sub-148,1,stroop_test,,
,,,,90.0,6.0,7.0,,,,,,,,,,,,,blau,red,r,0.0,r,1.0,0.4593406670028344,,,,,,,,,,7.0,6.0,90.0,4.0,291.3269819999987,,,,,,,,,,,,,,,,,291.3180019999854,292.1167349999887,292.9188902919996,292.9108292919991,,,,,,,,,,,,,,,,,,,,,,,,,,,,,,,,,,,292.911496582994,292.9188902919996,292.9188902919996,293.38406000001123,r,1.0,0.4593406670028344,,,,,,sub-148,1,stroop_test,,
,,,,91.0,7.0,7.0,,,,,,,,,,,,,rot,red,r,1.0,r,1.0,0.4320453330001328,,,,,,,,,,7.0,7.0,91.0,1.0,293.4096709580044,,,,,,,,,,,,,,,,,293.3846006249951,293.73310787498485,294.52857604200835,294.5169429999951,,,,,,,,,,,,,,,,,,,,,,,,,,,,,,,,,,,294.5210723330092,294.52857604200835,294.52857604200835,294.9685507079994,r,1.0,0.4320453330001328,,,,,,sub-148,1,stroop_test,,
,,,,92.0,8.0,7.0,,,,,,,,,,,,,gelb,red,r,0.0,r,1.0,0.4823657499800902,,,,,,,,,,7.0,8.0,92.0,8.0,294.99304862500867,,,,,,,,,,,,,,,,,294.96897329200874,295.76634370800457,296.57182949999697,296.5607570419961,,,,,,,,,,,,,,,,,,,,,,,,,,,,,,,,,,,296.56461641698843,296.57182949999697,296.57182949999697,297.0617141250113,r,1.0,0.4823657499800902,,,,,,sub-148,1,stroop_test,,
,,,,93.0,9.0,7.0,,,,,,,,,,,,,gelb,yellow,g,1.0,g,1.0,0.6915429579967167,,,,,,,,,,7.0,9.0,93.0,10.0,297.0707047499891,,,,,,,,,,,,,,,,,297.062149083009,297.4100815420097,298.2018001670076,298.19404149998445,,,,,,,,,,,,,,,,,,,,,,,,,,,,,,,,,,,298.1946905000077,298.2018001670076,298.2018001670076,298.89558320801007,g,1.0,0.6915429579967167,,,,,,sub-148,1,stroop_test,,
,,,,94.0,10.0,7.0,,,,,,,,,,,,,blau,yellow,g,0.0,g,1.0,0.5248856670223176,,,,,,,,,,7.0,10.0,94.0,7.0,298.9048593750049,,,,,,,,,,,,,,,,,298.8960186250042,298.99372458300786,299.7894479169918,299.7777662499866,,,,,,,,,,,,,,,,,,,,,,,,,,,,,,,,,,,299.7821452080097,299.7894479169918,299.7894479169918,300.31911691700225,g,1.0,0.5248856670223176,,,,,,sub-148,1,stroop_test,,
,,,,95.0,11.0,7.0,,,,,,,,,,,,,rot,red,r,1.0,r,1.0,0.6342596670147032,,,,,,,,,,7.0,11.0,95.0,0.0,300.3289122080023,,,,,,,,,,,,,,,,,300.3196562920057,301.5159336249926,302.3097572920087,302.2992087919847,,,,,,,,,,,,,,,,,,,,,,,,,,,,,,,,,,,302.30234804199426,302.3097572920087,302.3097572920087,302.94643691700185,r,1.0,0.6342596670147032,,,,,,sub-148,1,stroop_test,,
,,,,96.0,0.0,8.0,,,,,,,,,,,,,blau,yellow,g,0.0,g,1.0,0.693144916993333,,,,,,,,,,8.0,0.0,96.0,7.0,302.9556658329966,,,,,,,,,,,,,,,,,302.9468870830024,303.2937406669953,304.08850120799616,304.0775324580027,,,,,,,,,,,,,,,,,,,,,,,,,,,,,,,,,,,304.08102266700007,304.08850120799616,304.08850120799616,304.78490370800137,g,1.0,0.693144916993333,,,,,,sub-148,1,stroop_test,,
,,,,97.0,1.0,8.0,,,,,,,,,,,,,rot,blue,b,0.0,b,1.0,0.7394087089924142,,,,,,,,,,8.0,1.0,97.0,2.0,304.80998208301025,,,,,,,,,,,,,,,,,304.7853255829832,304.8831997500092,305.6787455829908,305.6675474999938,,,,,,,,,,,,,,,,,,,,,,,,,,,,,,,,,,,305.67125279200263,305.6787455829908,305.6787455829908,306.4295912919915,b,1.0,0.7394087089924142,,,,,,sub-148,1,stroop_test,,
,,,,98.0,2.0,8.0,,,,,,,,,,,,,gelb,red,r,0.0,r,1.0,1.7726502500008792,,,,,,,,,,8.0,2.0,98.0,8.0,306.439414249995,,,,,,,,,,,,,,,,,306.43015337499673,307.6271042499866,308.4215863329882,308.41105362499366,,,,,,,,,,,,,,,,,,,,,,,,,,,,,,,,,,,308.4144899999956,308.4215863329882,308.4215863329882,310.19667325000046,r,1.0,1.7726502500008792,,,,,,sub-148,1,stroop_test,,
,,,,99.0,3.0,8.0,,,,,,,,,,,,,blau,blue,b,1.0,b,1.0,0.6996865840046667,,,,,,,,,,8.0,3.0,99.0,5.0,310.2065137499885,,,,,,,,,,,,,,,,,310.19721862499136,311.3939122919983,312.1910087080032,312.1782489579928,,,,,,,,,,,,,,,,,,,,,,,,,,,,,,,,,,,312.18337179199443,312.1910087080032,312.1910087080032,312.895961000002,b,1.0,0.6996865840046667,,,,,,sub-148,1,stroop_test,,
,,,,100.0,4.0,8.0,,,,,,,,,,,,,gelb,yellow,g,1.0,g,1.0,0.5260063330060802,,,,,,,,,,8.0,4.0,100.0,11.0,312.9055135420058,,,,,,,,,,,,,,,,,312.8965136669867,314.09398754200083,314.88989904199843,314.87778108299244,,,,,,,,,,,,,,,,,,,,,,,,,,,,,,,,,,,314.8822033329925,314.88989904199843,314.88989904199843,315.418073000008,g,1.0,0.5260063330060802,,,,,,sub-148,1,stroop_test,,
,,,,101.0,5.0,8.0,,,,,,,,,,,,,gelb,blue,b,0.0,r,0.0,0.6997895000095014,,,,,,,,,,8.0,5.0,101.0,9.0,315.4274769999902,,,,,,,,,,,,,,,,,315.4184851250029,316.21658008301165,317.0101772499911,317.0007037080068,,,,,,,,,,,,,,,,,,,,,,,,,,,,,,,,,,,317.0013731670042,317.0101772499911,317.0101772499911,317.71252995799296,r,0.0,0.6997895000095014,,,,,,sub-148,1,stroop_test,,
,,,,102.0,6.0,8.0,,,,,,,,,,,,,gelb,yellow,g,1.0,g,1.0,0.9600842499930876,,,,,,,,,,8.0,6.0,102.0,10.0,317.72172120798496,,,,,,,,,,,,,,,,,317.7129712080059,318.5107676250045,319.3026418329973,319.2946510420006,,,,,,,,,,,,,,,,,,,,,,,,,,,,,,,,,,,319.2952950419858,319.3026418329973,319.3026418329973,320.2692652079859,g,1.0,0.9600842499930876,,,,,,sub-148,1,stroop_test,,
,,,,103.0,7.0,8.0,,,,,,,,,,,,,blau,red,r,0.0,r,1.0,0.5884642909804825,,,,,,,,,,8.0,7.0,103.0,4.0,320.2787064170116,,,,,,,,,,,,,,,,,320.2698130419885,320.3705593330087,321.1720024170063,321.1614362499968,,,,,,,,,,,,,,,,,,,,,,,,,,,,,,,,,,,321.1648294579936,321.1720024170063,321.1720024170063,321.7628575419949,r,1.0,0.5884642909804825,,,,,,sub-148,1,stroop_test,,
,,,,104.0,8.0,8.0,,,,,,,,,,,,,blau,blue,b,1.0,b,1.0,0.4974545410077553,,,,,,,,,,8.0,8.0,104.0,6.0,321.7723148750083,,,,,,,,,,,,,,,,,321.76334691699594,322.5608215829998,323.3529235419992,323.3447659169906,,,,,,,,,,,,,,,,,,,,,,,,,,,,,,,,,,,323.34541549999267,323.3529235419992,323.3529235419992,323.85286587500013,b,1.0,0.4974545410077553,,,,,,sub-148,1,stroop_test,,
,,,,105.0,9.0,8.0,,,,,,,,,,,,,rot,red,r,1.0,r,1.0,0.596984917006921,,,,,,,,,,8.0,9.0,105.0,0.0,323.8625598750077,,,,,,,,,,,,,,,,,323.85343662500964,325.050616624998,325.8468559999892,325.8346442079928,,,,,,,,,,,,,,,,,,,,,,,,,,,,,,,,,,,325.8393170830095,325.8468559999892,325.8468559999892,326.44626566700754,r,1.0,0.596984917006921,,,,,,sub-148,1,stroop_test,,
,,,,106.0,10.0,8.0,,,,,,,,,,,,,rot,yellow,g,0.0,g,1.0,0.6474629580043256,,,,,,,,,,8.0,10.0,106.0,3.0,326.4555560419976,,,,,,,,,,,,,,,,,326.44671237500734,327.6441977079958,328.4366475419956,328.42840270799934,,,,,,,,,,,,,,,,,,,,,,,,,,,,,,,,,,,328.4290822079929,328.4366475419956,328.4366475419956,329.0865185830044,g,1.0,0.6474629580043256,,,,,,sub-148,1,stroop_test,,
,,,,107.0,11.0,8.0,,,,,,,,,,,,,rot,red,r,1.0,r,1.0,0.651057207986014,,,,,,,,,,8.0,11.0,107.0,1.0,329.09627958299825,,,,,,,,,,,,,,,,,329.0869573329983,329.18451887500123,329.9772273749986,329.9683292499976,,,,,,,,,,,,,,,,,,,,,,,,,,,,,,,,,,,329.96901279198937,329.9772273749986,329.9772273749986,330.6401322919992,r,1.0,0.651057207986014,,,,,,sub-148,1,stroop_test,,
,,,,108.0,0.0,9.0,,,,,,,,,,,,,gelb,red,r,0.0,r,1.0,0.708938791998662,,,,,,,,,,9.0,0.0,108.0,8.0,330.6462065000087,,,,,,,,,,,,,,,,,330.64056925001205,330.9846172920079,331.78899058300885,331.77836029199534,,,,,,,,,,,,,,,,,,,,,,,,,,,,,,,,,,,331.78172091700253,331.78899058300885,331.78899058300885,332.502291916986,r,1.0,0.708938791998662,,,,,,sub-148,1,stroop_test,,
,,,,109.0,1.0,9.0,,,,,,,,,,,,,blau,yellow,g,0.0,g,1.0,0.8117675409885123,,,,,,,,,,9.0,1.0,109.0,7.0,332.5274873749877,,,,,,,,,,,,,,,,,332.50271624999004,333.3012614579929,334.1073774170072,334.0954153329949,,,,,,,,,,,,,,,,,,,,,,,,,,,,,,,,,,,334.0998555000115,334.1073774170072,334.1073774170072,334.9297752919956,g,1.0,0.8117675409885123,,,,,,sub-148,1,stroop_test,,
,,,,110.0,2.0,9.0,,,,,,,,,,,,,rot,red,r,1.0,r,1.0,0.5884546670131385,,,,,,,,,,9.0,2.0,110.0,0.0,334.93924229199183,,,,,,,,,,,,,,,,,334.9303000830114,335.0277548749873,335.82440337500884,335.8118214170099,,,,,,,,,,,,,,,,,,,,,,,,,,,,,,,,,,,335.8167427080043,335.82440337500884,335.82440337500884,336.41996574998484,r,1.0,0.5884546670131385,,,,,,sub-148,1,stroop_test,,
,,,,111.0,3.0,9.0,,,,,,,,,,,,,blau,blue,b,1.0,b,1.0,0.7095710420107935,,,,,,,,,,9.0,3.0,111.0,5.0,336.4299499169865,,,,,,,,,,,,,,,,,336.42050312500214,336.76815162500134,337.5730579580122,337.56195041700266,,,,,,,,,,,,,,,,,,,,,,,,,,,,,,,,,,,337.5658466669847,337.5730579580122,337.5730579580122,338.2856292919896,b,1.0,0.7095710420107935,,,,,,sub-148,1,stroop_test,,
,,,,112.0,4.0,9.0,,,,,,,,,,,,,gelb,blue,b,0.0,b,1.0,0.4326020840089768,,,,,,,,,,9.0,4.0,112.0,9.0,338.2943584169843,,,,,,,,,,,,,,,,,338.2860499999952,338.3842005000042,339.1908526250045,339.17887383300695,,,,,,,,,,,,,,,,,,,,,,,,,,,,,,,,,,,339.183213249984,339.1908526250045,339.1908526250045,339.63003454200225,b,1.0,0.4326020840089768,,,,,,sub-148,1,stroop_test,,
,,,,113.0,5.0,9.0,,,,,,,,,,,,,rot,red,r,1.0,r,1.0,0.6203567079792265,,,,,,,,,,9.0,5.0,113.0,1.0,339.63938300000154,,,,,,,,,,,,,,,,,339.6305635829922,340.82805187499616,341.62407187500503,341.6121099999873,,,,,,,,,,,,,,,,,,,,,,,,,,,,,,,,,,,341.616511041997,341.62407187500503,341.62407187500503,342.2468602079898,r,1.0,0.6203567079792265,,,,,,sub-148,1,stroop_test,,
,,,,114.0,6.0,9.0,,,,,,,,,,,,,blau,blue,b,1.0,b,1.0,0.733884457993554,,,,,,,,,,9.0,6.0,114.0,6.0,342.2560514580109,,,,,,,,,,,,,,,,,342.24740058300085,343.444822541991,344.23963929200545,344.22841999999946,,,,,,,,,,,,,,,,,,,,,,,,,,,,,,,,,,,344.2323079170019,344.23963929200545,344.23963929200545,344.98012349999044,b,1.0,0.733884457993554,,,,,,sub-148,1,stroop_test,,
,,,,115.0,7.0,9.0,,,,,,,,,,,,,blau,red,r,0.0,r,1.0,0.6638858339865692,,,,,,,,,,9.0,7.0,115.0,4.0,344.98910487498506,,,,,,,,,,,,,,,,,344.9805974169867,345.32817933300976,346.1207597499888,346.1124321249954,,,,,,,,,,,,,,,,,,,,,,,,,,,,,,,,,,,346.11313362501096,346.1207597499888,346.1207597499888,346.78708750000806,r,1.0,0.6638858339865692,,,,,,sub-148,1,stroop_test,,
,,,,116.0,8.0,9.0,,,,,,,,,,,,,rot,yellow,g,0.0,g,1.0,1.1019413330068346,,,,,,,,,,9.0,8.0,116.0,3.0,346.796712624986,,,,,,,,,,,,,,,,,346.78754216700327,347.5843792920059,348.3802893329994,348.3687571249902,,,,,,,,,,,,,,,,,,,,,,,,,,,,,,,,,,,348.3723724579904,348.3802893329994,348.3802893329994,349.4863607499865,g,1.0,1.1019413330068346,,,,,,sub-148,1,stroop_test,,
,,,,117.0,9.0,9.0,,,,,,,,,,,,,gelb,yellow,g,1.0,g,1.0,1.1316389169951435,,,,,,,,,,9.0,9.0,117.0,11.0,349.5111733329832,,,,,,,,,,,,,,,,,349.4867778749904,349.58465775000514,350.3809506249964,350.36926412500907,,,,,,,,,,,,,,,,,,,,,,,,,,,,,,,,,,,350.3733097499935,350.3809506249964,350.3809506249964,351.52489187498577,g,1.0,1.1316389169951435,,,,,,sub-148,1,stroop_test,,
,,,,118.0,10.0,9.0,,,,,,,,,,,,,rot,blue,b,0.0,b,1.0,0.5221211670141201,,,,,,,,,,9.0,10.0,118.0,2.0,351.52971637499286,,,,,,,,,,,,,,,,,351.52532570800395,351.8680218330119,352.66439779198845,352.65193824999733,,,,,,,,,,,,,,,,,,,,,,,,,,,,,,,,,,,352.6573048749997,352.66439779198845,352.66439779198845,353.19659437501105,b,1.0,0.5221211670141201,,,,,,sub-148,1,stroop_test,,
,,,,119.0,11.0,9.0,,,,,,,,,,,,,gelb,yellow,g,1.0,g,1.0,0.6813478749827482,,,,,,,,,,9.0,11.0,119.0,10.0,353.20573008299107,,,,,,,,,,,,,,,,,353.1970209169958,354.3949510419916,355.1908082499868,355.17906749999383,,,,,,,,,,,,,,,,,,,,,,,,,,,,,,,,,,,355.1835703329998,355.1908082499868,355.1908082499868,355.88002054201206,g,1.0,0.6813478749827482,,,,,,sub-148,1,stroop_test,,
,,,,,,,,,,,,,,,,,,,,,,,,,,,,,,,,,,,,,,,,,,,,,,,,,,,,,,,,,,,,,,,,,,,,,,,,,,,,,,,,,,,,,,,,,,,,,,,,,,,,,,355.8802329580067,355.89027983299457,360.883299417008,360.87915600001,sub-148,1,stroop_test,,
