wordCTK,colorCTK,corrAnsCTK,congruentCTK,thisN,thisTrialN,thisRepN,keyResp_CTK.keys,keyResp_CTK.corr,keyResp_CTK.rt,keyResp_CTK.duration,wordPractice,colorPractice,corrAnsPractice,congruentPractice,respPractice.keys,respPractice.corr,respPractice.rt,respPractice.duration,word,color,corrAns,congruent,keyResp_test_run.keys,keyResp_test_run.corr,keyResp_test_run.rt,keyResp_test_run.duration,trials_CTK.thisRepN,trials_CTK.thisTrialN,trials_CTK.thisN,trials_CTK.thisIndex,trials_practice.thisRepN,trials_practice.thisTrialN,trials_practice.thisN,trials_practice.thisIndex,trials_test.thisRepN,trials_test.thisTrialN,trials_test.thisN,trials_test.thisIndex,thisRow.t,notes,instruction.started,instr_text.started,instr_image.started,instr_resp.started,instruction.stopped,instr_resp.keys,instr_resp.rt,instr_resp.duration,instr_color_to_key.started,instr_ctk.started,resp_ctk.started,instr_color_to_key.stopped,resp_ctk.keys,resp_ctk.rt,resp_ctk.duration,ITI.started,fixcross.started,fixcross.stopped,ITI.stopped,color_to_key_run.started,stimulus_CTK.started,keyResp_CTK.started,color_to_key_run.stopped,trials_CTK.keyResp_CTK.keys,trials_CTK.keyResp_CTK.corr,trials_CTK.keyResp_CTK.rt,trials_CTK.keyResp_CTK.duration,instr_practice.started,instr_practice_text.started,instr_practice_resp.started,instr_practice.stopped,instr_practice_resp.keys,instr_practice_resp.rt,instr_practice_resp.duration,practice_run.started,stimulus_practice.started,respPractice.started,practice_run.stopped,trials_practice.respPractice.keys,trials_practice.respPractice.corr,trials_practice.respPractice.rt,trials_practice.respPractice.duration,feedback.started,textFeedback.started,feedback.stopped,textFeedback.stopped,instr_test.started,instr_test_text.started,instr_test_resp.started,instr_test.stopped,instr_test_resp.keys,instr_test_resp.rt,instr_test_resp.duration,test_run.started,stimulus_test_run.started,keyResp_test_run.started,test_run.stopped,trials_test.keyResp_test_run.keys,trials_test.keyResp_test_run.corr,trials_test.keyResp_test_run.rt,trials_test.keyResp_test_run.duration,goodbye.started,textGoodbye.started,textGoodbye.stopped,goodbye.stopped,participant,session,expName,frameRate,Unnamed: 113
,,,,,,,,,,,,,,,,,,,,,,,,,,,,,,,,,,,,,,,,,0.0056024000514298,0.0199941999744623,0.0199941999744623,0.0199941999744623,63.58465770003386,space,63.4439829000039,,,,,,,,,,,,,,,,,,,,,,,,,,,,,,,,,,,,,,,,,,,,,,,,,,,,,,,,,,,sub-088,1,stroop_test,60.07857075161577,
,,,,,,,,,,,,,,,,,,,,,,,,,,,,,,,,,,,,,,,,,,,,,,,,,63.58475619996898,63.60164110001642,63.60164110001642,68.46167680004146,space,4.8509483999805525,,,,,,,,,,,,,,,,,,,,,,,,,,,,,,,,,,,,,,,,,,,,,,,,,,,,sub-088,1,stroop_test,60.07857075161577,
test,blue,b,1.0,0.0,0.0,0.0,b,1.0,1.688923200010322,,,,,,,,,,,,,,,,,,0.0,0.0,0.0,2.0,,,,,,,,,68.53754170006141,,,,,,,,,,,,,,,,,68.53041440004017,68.5767006999813,69.3856577000115,69.36066740006208,69.378190599964,69.3856577000115,69.3856577000115,71.07879469997715,b,1.0,1.688923200010322,,,,,,,,,,,,,,,,,,,,,,,,,,,,,,,,,,,,,,,,sub-088,1,stroop_test,60.07857075161577,
test,red,r,1.0,1.0,1.0,0.0,r,1.0,1.401393299922347,,,,,,,,,,,,,,,,,,0.0,1.0,1.0,0.0,,,,,,,,,71.0930411000736,,,,,,,,,,,,,,,,,71.07923809997737,71.89327260002028,72.69331690005492,72.67792689998168,72.6793653999921,72.69331690005492,72.69331690005492,74.11209930002224,r,1.0,1.401393299922347,,,,,,,,,,,,,,,,,,,,,,,,,,,,,,,,,,,,,,,,sub-088,1,stroop_test,60.07857075161577,
test,yellow,g,1.0,2.0,2.0,0.0,g,1.0,0.6808570999419317,,,,,,,,,,,,,,,,,,0.0,2.0,2.0,1.0,,,,,,,,,74.12632619997021,,,,,,,,,,,,,,,,,74.11257300002035,74.22642319998704,75.02725230006035,75.01149850001093,75.01226330001373,75.02725230006035,75.02725230006035,75.71247260004748,g,1.0,0.6808570999419317,,,,,,,,,,,,,,,,,,,,,,,,,,,,,,,,,,,,,,,,sub-088,1,stroop_test,60.07857075161577,
test,blue,b,1.0,3.0,0.0,1.0,b,1.0,0.5062149000586942,,,,,,,,,,,,,,,,,,1.0,0.0,3.0,2.0,,,,,,,,,75.72677780000959,,,,,,,,,,,,,,,,,75.71307070006151,76.07651689997874,76.87657259998377,76.86124490003567,76.86217660002876,76.87657259998377,76.87657259998377,77.39564880006947,b,1.0,0.5062149000586942,,,,,,,,,,,,,,,,,,,,,,,,,,,,,,,,,,,,,,,,sub-088,1,stroop_test,60.07857075161577,
test,yellow,g,1.0,4.0,1.0,1.0,g,1.0,0.4253365999320522,,,,,,,,,,,,,,,,,,1.0,1.0,4.0,1.0,,,,,,,,,77.40992140001617,,,,,,,,,,,,,,,,,77.39629980002064,78.209531600005,79.0099589000456,78.9941057000542,78.99476919998415,79.0099589000456,79.0099589000456,79.4453714999836,g,1.0,0.4253365999320522,,,,,,,,,,,,,,,,,,,,,,,,,,,,,,,,,,,,,,,,sub-088,1,stroop_test,60.07857075161577,
test,red,r,1.0,5.0,2.0,1.0,r,1.0,0.4994570000562817,,,,,,,,,,,,,,,,,,1.0,2.0,5.0,0.0,,,,,,,,,79.45974520000163,,,,,,,,,,,,,,,,,79.44590180006344,79.80967850005254,80.60960029996932,80.59425860003103,80.59501499996986,80.60960029996932,80.60960029996932,81.11213540006429,r,1.0,0.4994570000562817,,,,,,,,,,,,,,,,,,,,,,,,,,,,,,,,,,,,,,,,sub-088,1,stroop_test,60.07857075161577,
test,yellow,g,1.0,6.0,0.0,2.0,g,1.0,0.4910749000264331,,,,,,,,,,,,,,,,,,2.0,0.0,6.0,1.0,,,,,,,,,81.12633980007377,,,,,,,,,,,,,,,,,81.11271280003712,81.4763413000619,82.27641310007311,82.26084550004452,82.26161719998345,82.27641310007311,82.27641310007311,82.77825600001961,g,1.0,0.4910749000264331,,,,,,,,,,,,,,,,,,,,,,,,,,,,,,,,,,,,,,,,sub-088,1,stroop_test,60.07857075161577,
test,blue,b,1.0,7.0,1.0,2.0,b,1.0,0.5652299999492243,,,,,,,,,,,,,,,,,,2.0,1.0,7.0,2.0,,,,,,,,,82.79290370002855,,,,,,,,,,,,,,,,,82.77879889996257,82.89309080003295,83.69322680006735,83.6774965999648,83.67812820000108,83.69322680006735,83.69322680006735,84.26218009996228,b,1.0,0.5652299999492243,,,,,,,,,,,,,,,,,,,,,,,,,,,,,,,,,,,,,,,,sub-088,1,stroop_test,60.07857075161577,
test,red,r,1.0,8.0,2.0,2.0,r,1.0,1.0231214999221263,,,,,,,,,,,,,,,,,,2.0,2.0,8.0,0.0,,,,,,,,,84.27637480001431,,,,,,,,,,,,,,,,,84.26261039997917,85.47676730004605,86.27646009996533,86.26135799998883,86.26220900006592,86.27646009996533,86.27646009996533,87.3115280000493,r,1.0,1.0231214999221263,,,,,,,,,,,,,,,,,,,,,,,,,,,,,,,,,,,,,,,,sub-088,1,stroop_test,60.07857075161577,
test,blue,b,1.0,9.0,0.0,3.0,b,1.0,0.6247183999512345,,,,,,,,,,,,,,,,,,3.0,0.0,9.0,2.0,,,,,,,,,87.32608949998394,,,,,,,,,,,,,,,,,87.31197030004114,87.67638890002854,88.47654050006531,88.46076419996098,88.46174259996042,88.47654050006531,88.47654050006531,89.11146739998367,b,1.0,0.6247183999512345,,,,,,,,,,,,,,,,,,,,,,,,,,,,,,,,,,,,,,,,sub-088,1,stroop_test,60.07857075161577,
test,yellow,g,1.0,10.0,1.0,3.0,g,1.0,0.4530602000886574,,,,,,,,,,,,,,,,,,3.0,1.0,10.0,1.0,,,,,,,,,89.1262679999927,,,,,,,,,,,,,,,,,89.1118919000728,90.3264851999702,91.12637299997732,91.11107370001264,91.1118944999762,91.12637299997732,91.12637299997732,91.59620729996824,g,1.0,0.4530602000886574,,,,,,,,,,,,,,,,,,,,,,,,,,,,,,,,,,,,,,,,sub-088,1,stroop_test,60.07857075161577,
test,red,r,1.0,11.0,2.0,3.0,r,1.0,0.3957010000012815,,,,,,,,,,,,,,,,,,3.0,2.0,11.0,0.0,,,,,,,,,91.60960490000434,,,,,,,,,,,,,,,,,91.59691389999352,92.40982140006965,93.20965299999808,93.19410920003428,93.19494000007398,93.20965299999808,93.20965299999808,93.6118148000678,r,1.0,0.3957010000012815,,,,,,,,,,,,,,,,,,,,,,,,,,,,,,,,,,,,,,,,sub-088,1,stroop_test,60.07857075161577,
,,,,,,,,,,,,,,,,,,,,,,,,,,,,,,,,,,,,,,,,,,,,,,,,,,,,,,,,,,,,,,,,,,,,93.61209459998643,93.62635979999322,93.62635979999322,105.07833310007118,space,11.438689100090414,,,,,,,,,,,,,,,,,,,,,,,,,,,,,,,,,sub-088,1,stroop_test,60.07857075161577,
,,,,0.0,0.0,0.0,,,,,blau,red,r,0.0,r,1.0,0.5956298999954015,,,,,,,,,,,,,,0.0,0.0,0.0,4.0,,,,,105.1239835000597,,,,,,,,,,,,,,,,,105.1172764999792,105.18455790006556,105.98578620003536,105.96907089999875,,,,,,,,,,,,,,,,105.9789776999969,105.98578620003536,105.98578620003536,106.58703840000088,r,1.0,0.5956298999954015,,106.60300890007056,106.61170470004436,107.60202870005742,,,,,,,,,,,,,,,,,,,,,sub-088,1,stroop_test,60.07857075161577,
,,,,1.0,1.0,0.0,,,,,gelb,blue,b,0.0,b,1.0,1.166104600066319,,,,,,,,,,,,,,0.0,1.0,1.0,9.0,,,,,107.61802529997658,,,,,,,,,,,,,,,,,107.60263430001214,108.8012463999912,109.60131499997806,109.58572390000336,,,,,,,,,,,,,,,,109.58995819999836,109.60131499997806,109.60131499997806,110.77037040004508,b,1.0,1.166104600066319,,110.77104620006868,110.78456930001266,111.7690247000428,111.78488579997791,,,,,,,,,,,,,,,,,,,,sub-088,1,stroop_test,60.07857075161577,
,,,,2.0,2.0,0.0,,,,,gelb,red,r,0.0,r,1.0,0.9821449000155552,,,,,,,,,,,,,,0.0,2.0,2.0,8.0,,,,,111.78488579997791,,,,,,,,,,,,,,,,,111.76972079998814,112.58464010001626,113.38484169996808,113.3689091000706,,,,,,,,,,,,,,,,113.36984369996937,113.38484169996808,113.38484169996808,114.37047429999802,r,1.0,0.9821449000155552,,114.37121010001285,114.38453470007516,115.36871129996145,115.3843589000171,,,,,,,,,,,,,,,,,,,,sub-088,1,stroop_test,60.07857075161577,
,,,,3.0,3.0,0.0,,,,,blau,blue,b,1.0,b,1.0,0.5771639000158757,,,,,,,,,,,,,,0.0,3.0,3.0,5.0,,,,,115.3843589000171,,,,,,,,,,,,,,,,,115.36913850007112,115.7343092999654,116.53443450003395,116.51878699997906,,,,,,,,,,,,,,,,116.52240450005048,116.53443450003395,116.53443450003395,117.12050640000962,b,1.0,0.5771639000158757,,117.12119740003254,117.1350210000528,118.11897379998118,118.13437950005756,,,,,,,,,,,,,,,,,,,,sub-088,1,stroop_test,60.07857075161577,
,,,,4.0,4.0,0.0,,,,,gelb,yellow,g,1.0,g,1.0,1.0261168000288308,,,,,,,,,,,,,,0.0,4.0,4.0,10.0,,,,,118.13437950005756,,,,,,,,,,,,,,,,,118.11948870006016,118.93442820000928,119.73460640001576,119.71883550006896,,,,,,,,,,,,,,,,119.72318530001212,119.73460640001576,119.73460640001576,120.76983130001464,g,1.0,1.0261168000288308,,120.7705108000664,120.7843604000518,121.76871880004182,121.78445340006148,,,,,,,,,,,,,,,,,,,,sub-088,1,stroop_test,60.07857075161577,
,,,,5.0,5.0,0.0,,,,,blau,blue,b,1.0,b,1.0,0.5426931000547484,,,,,,,,,,,,,,0.0,5.0,5.0,6.0,,,,,121.78445340006148,,,,,,,,,,,,,,,,,121.76913290005176,122.98461270006374,123.78498090000356,123.76919989997988,,,,,,,,,,,,,,,,123.77339550002944,123.78498090000356,123.78498090000356,124.33644320000894,b,1.0,0.5426931000547484,,124.33754019998014,124.35093960002996,125.33600500004832,125.3513364000246,,,,,,,,,,,,,,,,,,,,sub-088,1,stroop_test,60.07857075161577,
,,,,6.0,6.0,0.0,,,,,rot,blue,b,0.0,b,1.0,0.5729332999326289,,,,,,,,,,,,,,0.0,6.0,6.0,2.0,,,,,125.3513364000246,,,,,,,,,,,,,,,,,125.3364609000273,125.45109490002504,126.2509413000662,126.23641400004271,,,,,,,,,,,,,,,,126.24322689999826,126.2509413000662,126.2509413000662,126.83627780003008,b,1.0,0.5729332999326289,,126.83695650007576,126.85140589997172,127.83588160004,127.85135590005666,,,,,,,,,,,,,,,,,,,,sub-088,1,stroop_test,60.07857075161577,
,,,,7.0,7.0,0.0,,,,,gelb,yellow,g,1.0,g,1.0,0.3918288999702781,,,,,,,,,,,,,,0.0,7.0,7.0,11.0,,,,,127.85135590005666,,,,,,,,,,,,,,,,,127.83641550003084,128.65114980004728,129.45158960006663,129.43557930004317,,,,,,,,,,,,,,,,129.43966160004493,129.45158960006663,129.45158960006663,129.85283170000184,g,1.0,0.3918288999702781,,129.85347980004735,129.86781019996852,130.8522841000231,130.86761209997348,,,,,,,,,,,,,,,,,,,,sub-088,1,stroop_test,60.07857075161577,
,,,,8.0,8.0,0.0,,,,,blau,yellow,g,0.0,g,1.0,0.5469847000204027,,,,,,,,,,,,,,0.0,8.0,8.0,7.0,,,,,130.86761209997348,,,,,,,,,,,,,,,,,130.85272670001723,132.06793190003373,132.86804690002464,132.85224160004873,,,,,,,,,,,,,,,,132.8560817000689,132.86804690002464,132.86804690002464,133.41960709996056,g,1.0,0.5469847000204027,,133.42028319998644,133.4343604000751,134.41874670004472,134.43440879997797,,,,,,,,,,,,,,,,,,,,sub-088,1,stroop_test,60.07857075161577,
,,,,9.0,9.0,0.0,,,,,rot,yellow,g,0.0,g,1.0,0.6315775000257418,,,,,,,,,,,,,,0.0,9.0,9.0,3.0,,,,,134.43440879997797,,,,,,,,,,,,,,,,,134.41925629996695,135.234377100016,136.03437770006713,136.01906770002097,,,,,,,,,,,,,,,,136.024033099995,136.03437770006713,136.03437770006713,136.67016149999108,g,1.0,0.6315775000257418,,136.6708238000283,136.6842952000443,137.66891690006014,137.684888400021,,,,,,,,,,,,,,,,,,,,sub-088,1,stroop_test,60.07857075161577,
,,,,10.0,10.0,0.0,,,,,rot,red,r,1.0,r,1.0,0.4873978999676183,,,,,,,,,,,,,,0.0,10.0,10.0,1.0,,,,,137.684888400021,,,,,,,,,,,,,,,,,137.66935029998422,138.03448809997644,138.8343579999637,138.8190134000033,,,,,,,,,,,,,,,,138.82039700006135,138.8343579999637,138.8343579999637,139.33698610006832,r,1.0,0.4873978999676183,,139.3377852999838,139.35105910000857,140.33554590004496,140.35119209997356,,,,,,,,,,,,,,,,,,,,sub-088,1,stroop_test,60.07857075161577,
,,,,11.0,11.0,0.0,,,,,rot,red,r,1.0,r,1.0,0.3831264999462291,,,,,,,,,,,,,,0.0,11.0,11.0,0.0,,,,,140.35119209997356,,,,,,,,,,,,,,,,,140.33597700006794,140.70154789998196,141.50111960002687,141.48530759999994,,,,,,,,,,,,,,,,141.4860575000057,141.50111960002687,141.50111960002687,141.88684980000835,r,1.0,0.3831264999462291,,141.88756599999033,141.90120209997986,142.88605309999548,142.9015616000397,,,,,,,,,,,,,,,,,,,,sub-088,1,stroop_test,60.07857075161577,
,,,,12.0,0.0,1.0,,,,,blau,blue,b,1.0,b,1.0,0.4741978000383824,,,,,,,,,,,,,,1.0,0.0,12.0,5.0,,,,,142.9015616000397,,,,,,,,,,,,,,,,,142.88650719996076,143.00114299997222,143.80099310004152,143.78568029997405,,,,,,,,,,,,,,,,143.79023210005835,143.80099310004152,143.80099310004152,144.28610390005633,b,1.0,0.4741978000383824,,144.28675920004025,144.3008908999618,145.28598280006554,145.30099380004685,,,,,,,,,,,,,,,,,,,,sub-088,1,stroop_test,60.07857075161577,
,,,,13.0,1.0,1.0,,,,,gelb,blue,b,0.0,b,1.0,0.5306141999317333,,,,,,,,,,,,,,1.0,1.0,13.0,9.0,,,,,145.30099380004685,,,,,,,,,,,,,,,,,145.286508899997,145.65104989998508,146.45115370000713,146.43545940006152,,,,,,,,,,,,,,,,146.43959089997225,146.45115370000713,146.45115370000713,146.98668530001305,b,1.0,0.5306141999317333,,146.98733749997336,147.00090860005002,147.9856406999752,148.00119810004253,,,,,,,,,,,,,,,,,,,,sub-088,1,stroop_test,60.07857075161577,
,,,,14.0,2.0,1.0,,,,,gelb,red,r,0.0,r,1.0,0.7550692999502644,,,,,,,,,,,,,,1.0,2.0,14.0,8.0,,,,,148.00119810004253,,,,,,,,,,,,,,,,,147.98610700003337,148.80127150006592,149.60102259996347,149.5859765000641,,,,,,,,,,,,,,,,149.5866143000312,149.60102259996347,149.60102259996347,150.3696423000656,r,1.0,0.7550692999502644,,150.37033559998963,150.3844323999947,151.3693879999919,151.38454740005545,,,,,,,,,,,,,,,,,,,,sub-088,1,stroop_test,60.07857075161577,
,,,,15.0,3.0,1.0,,,,,rot,blue,b,0.0,b,1.0,0.693638600059785,,,,,,,,,,,,,,1.0,3.0,15.0,2.0,,,,,151.38454740005545,,,,,,,,,,,,,,,,,151.36984369996935,152.18415550002828,152.9846508000046,152.9687468999764,,,,,,,,,,,,,,,,152.9728039000183,152.9846508000046,152.9846508000046,153.68630419997498,b,1.0,0.693638600059785,,153.68695470003877,153.7010376000544,154.6853979000589,154.7011240000138,,,,,,,,,,,,,,,,,,,,sub-088,1,stroop_test,60.07857075161577,
,,,,16.0,4.0,1.0,,,,,rot,red,r,1.0,r,1.0,0.9372384001035244,,,,,,,,,,,,,,1.0,4.0,16.0,0.0,,,,,154.7011240000138,,,,,,,,,,,,,,,,,154.68592119996902,155.90146299998742,156.70128979999572,156.68551340000704,,,,,,,,,,,,,,,,156.6864069000585,156.70128979999572,156.70128979999572,157.65260829997715,r,1.0,0.9372384001035244,,157.65330240002368,157.66768189996947,158.65248080005404,158.66779910004698,,,,,,,,,,,,,,,,,,,,sub-088,1,stroop_test,60.07857075161577,
,,,,17.0,5.0,1.0,,,,,blau,blue,b,1.0,b,1.0,0.5581268999958411,,,,,,,,,,,,,,1.0,5.0,17.0,6.0,,,,,158.66779910004698,,,,,,,,,,,,,,,,,158.6530395000009,159.86760450003203,160.66765860002488,160.65243490005378,,,,,,,,,,,,,,,,160.6557754999958,160.66765860002488,160.66765860002488,161.23623470007442,b,1.0,0.5581268999958411,,161.2368852000218,161.2515293000033,162.23585070006084,162.2510266000172,,,,,,,,,,,,,,,,,,,,sub-088,1,stroop_test,60.07857075161577,
,,,,18.0,6.0,1.0,,,,,gelb,yellow,g,1.0,g,1.0,0.4178622999461368,,,,,,,,,,,,,,1.0,6.0,18.0,10.0,,,,,162.2510266000172,,,,,,,,,,,,,,,,,162.23626210005023,162.60112330003176,163.4008845000062,163.3854510000674,,,,,,,,,,,,,,,,163.39137079997454,163.4008845000062,163.4008845000062,163.83635890006553,g,1.0,0.4178622999461368,,163.83724060002714,163.85104209999554,164.83558229997288,164.85082709998824,,,,,,,,,,,,,,,,,,,,sub-088,1,stroop_test,60.07857075161577,
,,,,19.0,7.0,1.0,,,,,rot,red,r,1.0,r,1.0,0.4946201000129804,,,,,,,,,,,,,,1.0,7.0,19.0,1.0,,,,,164.85082709998824,,,,,,,,,,,,,,,,,164.8361233000178,166.0509855999844,166.8511945999926,166.83539939997718,,,,,,,,,,,,,,,,166.83943020005245,166.8511945999926,166.8511945999926,167.35347540001385,r,1.0,0.4946201000129804,,167.3541269999696,167.36754240002483,168.35200289997738,168.36769560002722,,,,,,,,,,,,,,,,,,,,sub-088,1,stroop_test,60.07857075161577,
,,,,20.0,8.0,1.0,,,,,rot,yellow,g,0.0,g,1.0,0.5431115999817848,,,,,,,,,,,,,,1.0,8.0,20.0,3.0,,,,,168.36769560002722,,,,,,,,,,,,,,,,,168.35254170000553,168.71773110004142,169.51772390003316,169.50224130006973,,,,,,,,,,,,,,,,169.50317569996696,169.51772390003316,169.51772390003316,170.06936379999388,g,1.0,0.5431115999817848,,170.070052199997,170.0840599000221,171.0689757000655,171.08469579997472,,,,,,,,,,,,,,,,,,,,sub-088,1,stroop_test,60.07857075161577,
,,,,21.0,9.0,1.0,,,,,gelb,yellow,g,1.0,g,1.0,0.4959628999931738,,,,,,,,,,,,,,1.0,9.0,21.0,11.0,,,,,171.08469579997472,,,,,,,,,,,,,,,,,171.06940829998348,171.4346205999609,172.23417359997984,172.21833359997254,,,,,,,,,,,,,,,,172.2232653000392,172.23417359997984,172.23417359997984,172.73595810006373,g,1.0,0.4959628999931738,,172.73664490005467,172.75083869998343,173.73526800004765,173.75100960000418,,,,,,,,,,,,,,,,,,,,sub-088,1,stroop_test,60.07857075161577,
,,,,22.0,10.0,1.0,,,,,blau,red,r,0.0,r,1.0,0.470508600003086,,,,,,,,,,,,,,1.0,10.0,22.0,4.0,,,,,173.75100960000418,,,,,,,,,,,,,,,,,173.7356909000082,174.55077910004184,175.3509779999731,175.3358895999845,,,,,,,,,,,,,,,,175.3392506999662,175.3509779999731,175.3509779999731,175.83748530002777,r,1.0,0.470508600003086,,175.83837899996433,175.8515043000225,176.8354908999754,176.85083050001413,,,,,,,,,,,,,,,,,,,,sub-088,1,stroop_test,60.07857075161577,
,,,,23.0,11.0,1.0,,,,,blau,yellow,g,0.0,g,1.0,0.5595839000307024,,,,,,,,,,,,,,1.0,11.0,23.0,7.0,,,,,176.85083050001413,,,,,,,,,,,,,,,,,176.83591690007597,176.9507547999965,177.75079289998394,177.73571559996344,,,,,,,,,,,,,,,,177.73646310006734,177.75079289998394,177.75079289998394,178.3193268000614,g,1.0,0.5595839000307024,,178.320018599974,178.33414030005224,179.3186054000398,179.33428740000818,,,,,,,,,,,,,,,,,,,,sub-088,1,stroop_test,60.07857075161577,
,,,,,,,,,,,,,,,,,,,,,,,,,,,,,,,,,,,,,,,,,,,,,,,,,,,,,,,,,,,,,,,,,,,,,,,,,,,,,,,,,,,,,,,179.31881870003417,179.33428740000818,179.33428740000818,196.4193949999753,space,17.07874999998603,,,,,,,,,,,,,,sub-088,1,stroop_test,60.07857075161577,
,,,,0.0,0.0,0.0,,,,,,,,,,,,,blau,red,r,0.0,r,1.0,0.6936203999212012,,,,,,,,,,0.0,0.0,0.0,4.0,196.4706559999613,,,,,,,,,,,,,,,,,196.46403230004944,196.77619080001023,197.57696310000028,197.5611288000364,,,,,,,,,,,,,,,,,,,,,,,,,,,,,,,,,,,197.56478230003268,197.57696310000028,197.57696310000028,198.278409200022,r,1.0,0.6936203999212012,,,,,,sub-088,1,stroop_test,60.07857075161577,
,,,,1.0,1.0,0.0,,,,,,,,,,,,,gelb,yellow,g,1.0,g,1.0,0.464448899962008,,,,,,,,,,0.0,1.0,1.0,10.0,198.2928852000041,,,,,,,,,,,,,,,,,198.2788882000605,198.64351169997823,199.44339610007592,199.42800329998136,,,,,,,,,,,,,,,,,,,,,,,,,,,,,,,,,,,199.43206540006213,199.44339610007592,199.44339610007592,199.9119078000076,g,1.0,0.464448899962008,,,,,,sub-088,1,stroop_test,60.07857075161577,
,,,,2.0,2.0,0.0,,,,,,,,,,,,,rot,red,r,1.0,r,1.0,0.539173899916932,,,,,,,,,,0.0,2.0,2.0,0.0,199.92636739998125,,,,,,,,,,,,,,,,,199.91246140003204,200.02595380006824,200.8263442000607,200.81108510005288,,,,,,,,,,,,,,,,,,,,,,,,,,,,,,,,,,,200.8150952999713,200.8263442000607,200.8263442000607,201.3777879000409,r,1.0,0.539173899916932,,,,,,sub-088,1,stroop_test,60.07857075161577,
,,,,3.0,3.0,0.0,,,,,,,,,,,,,gelb,yellow,g,1.0,g,1.0,0.3837177000241354,,,,,,,,,,0.0,3.0,3.0,11.0,201.3927960000001,,,,,,,,,,,,,,,,,201.37825329997577,202.1763382999925,202.97710750007536,202.96084499999412,,,,,,,,,,,,,,,,,,,,,,,,,,,,,,,,,,,202.9648312999634,202.97710750007536,202.97710750007536,203.3778539999621,g,1.0,0.3837177000241354,,,,,,sub-088,1,stroop_test,60.07857075161577,
,,,,4.0,4.0,0.0,,,,,,,,,,,,,rot,blue,b,0.0,b,1.0,0.4413569000316784,,,,,,,,,,0.0,4.0,4.0,2.0,203.39299069996923,,,,,,,,,,,,,,,,,203.37833029998,203.49316269997507,204.293727900018,204.27754799998365,,,,,,,,,,,,,,,,,,,,,,,,,,,,,,,,,,,204.28319059999197,204.293727900018,204.293727900018,204.74514670006465,b,1.0,0.4413569000316784,,,,,,sub-088,1,stroop_test,60.07857075161577,
,,,,5.0,5.0,0.0,,,,,,,,,,,,,gelb,blue,b,0.0,b,1.0,0.6929773000301793,,,,,,,,,,0.0,5.0,5.0,9.0,204.75940890004856,,,,,,,,,,,,,,,,,204.74566460005008,205.56041659996845,206.3594718000386,206.3442350999685,,,,,,,,,,,,,,,,,,,,,,,,,,,,,,,,,,,206.3482157000108,206.3594718000386,206.3594718000386,207.06168070004787,b,1.0,0.6929773000301793,,,,,,sub-088,1,stroop_test,60.07857075161577,
,,,,6.0,6.0,0.0,,,,,,,,,,,,,rot,red,r,1.0,r,1.0,0.6115400000708178,,,,,,,,,,0.0,6.0,6.0,1.0,207.0760582999792,,,,,,,,,,,,,,,,,207.06216950004452,207.1760476999916,207.97644390002824,207.96133640001065,,,,,,,,,,,,,,,,,,,,,,,,,,,,,,,,,,,207.96544950001407,207.97644390002824,207.97644390002824,208.59507460007444,r,1.0,0.6115400000708178,,,,,,sub-088,1,stroop_test,60.07857075161577,
,,,,7.0,7.0,0.0,,,,,,,,,,,,,rot,yellow,g,0.0,g,1.0,0.4725107999984175,,,,,,,,,,0.0,7.0,7.0,3.0,208.60977740003727,,,,,,,,,,,,,,,,,208.5955493999645,208.95939580001868,209.75955650000836,209.7463225000538,,,,,,,,,,,,,,,,,,,,,,,,,,,,,,,,,,,209.7469349000603,209.75955650000836,209.75955650000836,210.2448669000296,g,1.0,0.4725107999984175,,,,,,sub-088,1,stroop_test,60.07857075161577,
,,,,8.0,8.0,0.0,,,,,,,,,,,,,blau,blue,b,1.0,b,1.0,0.3679885000456124,,,,,,,,,,0.0,8.0,8.0,6.0,210.259474499966,,,,,,,,,,,,,,,,,210.2453450000612,211.05937520007137,211.85979550005868,211.844429000048,,,,,,,,,,,,,,,,,,,,,,,,,,,,,,,,,,,211.8477521999739,211.85979550005868,211.85979550005868,212.2453233000124,b,1.0,0.3679885000456124,,,,,,sub-088,1,stroop_test,60.07857075161577,
,,,,9.0,9.0,0.0,,,,,,,,,,,,,blau,blue,b,1.0,b,1.0,0.4168592999922111,,,,,,,,,,0.0,9.0,9.0,5.0,212.25981600000523,,,,,,,,,,,,,,,,,212.24580180004705,212.60965360002592,213.41045730002224,213.3943328000605,,,,,,,,,,,,,,,,,,,,,,,,,,,,,,,,,,,213.3949281000532,213.41045730002224,213.41045730002224,213.8448931999737,b,1.0,0.4168592999922111,,,,,,sub-088,1,stroop_test,60.07857075161577,
,,,,10.0,10.0,0.0,,,,,,,,,,,,,gelb,red,r,0.0,r,1.0,0.516194099909626,,,,,,,,,,0.0,10.0,10.0,8.0,213.85954279999717,,,,,,,,,,,,,,,,,213.84547239996027,215.0606129000662,215.85959090001413,215.84441949997563,,,,,,,,,,,,,,,,,,,,,,,,,,,,,,,,,,,215.8494023999665,215.85959090001413,215.85959090001413,216.3788757000584,r,1.0,0.516194099909626,,,,,,sub-088,1,stroop_test,60.07857075161577,
,,,,11.0,11.0,0.0,,,,,,,,,,,,,blau,yellow,g,0.0,g,1.0,0.501140599953942,,,,,,,,,,0.0,11.0,11.0,7.0,216.3925445000641,,,,,,,,,,,,,,,,,216.37948900007177,217.19332199997731,217.99301680002827,217.9777767000487,,,,,,,,,,,,,,,,,,,,,,,,,,,,,,,,,,,217.98233020002957,217.99301680002827,217.99301680002827,218.4966000000713,g,1.0,0.501140599953942,,,,,,sub-088,1,stroop_test,60.07857075161577,
,,,,12.0,0.0,1.0,,,,,,,,,,,,,gelb,red,r,0.0,r,1.0,0.750081600039266,,,,,,,,,,1.0,0.0,12.0,8.0,218.50988679996223,,,,,,,,,,,,,,,,,218.4971628000494,218.60924480005636,219.4098449000157,219.3937278999947,,,,,,,,,,,,,,,,,,,,,,,,,,,,,,,,,,,219.3977990000276,219.4098449000157,219.4098449000157,220.1622120999964,r,1.0,0.750081600039266,,,,,,sub-088,1,stroop_test,60.07857075161577,
,,,,13.0,1.0,1.0,,,,,,,,,,,,,rot,red,r,1.0,r,1.0,0.4662795999320224,,,,,,,,,,1.0,1.0,13.0,0.0,220.1766554999631,,,,,,,,,,,,,,,,,220.1626868000021,221.37681499996688,222.17685539997183,222.1605727999704,,,,,,,,,,,,,,,,,,,,,,,,,,,,,,,,,,,222.16492660006045,222.17685539997183,222.17685539997183,222.6457365000388,r,1.0,0.4662795999320224,,,,,,sub-088,1,stroop_test,60.07857075161577,
,,,,14.0,2.0,1.0,,,,,,,,,,,,,rot,yellow,g,0.0,g,1.0,0.4677822000812739,,,,,,,,,,1.0,2.0,14.0,3.0,222.65920350002125,,,,,,,,,,,,,,,,,222.6462057000026,223.00979869998991,223.81027010001708,223.7940596999833,,,,,,,,,,,,,,,,,,,,,,,,,,,,,,,,,,,223.79477250005584,223.81027010001708,223.81027010001708,224.29489250003823,g,1.0,0.4677822000812739,,,,,,sub-088,1,stroop_test,60.07857075161577,
,,,,15.0,3.0,1.0,,,,,,,,,,,,,blau,blue,b,1.0,b,1.0,0.491622700006701,,,,,,,,,,1.0,3.0,15.0,5.0,224.30998789996372,,,,,,,,,,,,,,,,,224.29548009997237,224.4102786000585,225.2099868999794,225.1942592000123,,,,,,,,,,,,,,,,,,,,,,,,,,,,,,,,,,,225.19766040006647,225.2099868999794,225.2099868999794,225.7108884999761,b,1.0,0.491622700006701,,,,,,sub-088,1,stroop_test,60.07857075161577,
,,,,16.0,4.0,1.0,,,,,,,,,,,,,gelb,yellow,g,1.0,g,1.0,0.5782882999628782,,,,,,,,,,1.0,4.0,16.0,10.0,225.7265181000112,,,,,,,,,,,,,,,,,225.7113595000701,226.07720409997276,226.87576940003785,226.86126540007533,,,,,,,,,,,,,,,,,,,,,,,,,,,,,,,,,,,226.86698950000573,226.87576940003785,226.87576940003785,227.4617923999904,g,1.0,0.5782882999628782,,,,,,sub-088,1,stroop_test,60.07857075161577,
,,,,17.0,5.0,1.0,,,,,,,,,,,,,gelb,yellow,g,1.0,g,1.0,0.4733246000250801,,,,,,,,,,1.0,5.0,17.0,11.0,227.47597819997463,,,,,,,,,,,,,,,,,227.4622694000136,227.5758051000303,228.3765195000451,228.36181190004567,,,,,,,,,,,,,,,,,,,,,,,,,,,,,,,,,,,228.36247799999543,228.3765195000451,228.3765195000451,228.86121600004844,g,1.0,0.4733246000250801,,,,,,sub-088,1,stroop_test,60.07857075161577,
,,,,18.0,6.0,1.0,,,,,,,,,,,,,blau,yellow,g,0.0,g,1.0,0.8594560999190435,,,,,,,,,,1.0,6.0,18.0,7.0,228.876931100036,,,,,,,,,,,,,,,,,228.86181929998563,230.07627920003145,230.87691540003289,230.86068919999525,,,,,,,,,,,,,,,,,,,,,,,,,,,,,,,,,,,230.86467979999725,230.87691540003289,230.87691540003289,231.74487569998016,g,1.0,0.8594560999190435,,,,,,sub-088,1,stroop_test,60.07857075161577,
,,,,19.0,7.0,1.0,,,,,,,,,,,,,blau,blue,b,1.0,b,1.0,0.4952749999938532,,,,,,,,,,1.0,7.0,19.0,6.0,231.7594275000738,,,,,,,,,,,,,,,,,231.74535700003617,232.10972060007043,232.9089049999602,232.893356100074,,,,,,,,,,,,,,,,,,,,,,,,,,,,,,,,,,,232.8944116999628,232.9089049999602,232.9089049999602,233.41151190001983,b,1.0,0.4952749999938532,,,,,,sub-088,1,stroop_test,60.07857075161577,
,,,,20.0,8.0,1.0,,,,,,,,,,,,,blau,red,r,0.0,r,1.0,0.5772284000413492,,,,,,,,,,1.0,8.0,20.0,4.0,233.4261481000576,,,,,,,,,,,,,,,,,233.41215530002955,233.77615639998112,234.5756579000736,234.5600514999824,,,,,,,,,,,,,,,,,,,,,,,,,,,,,,,,,,,234.56075479998253,234.5756579000736,234.5756579000736,235.16087120003067,r,1.0,0.5772284000413492,,,,,,sub-088,1,stroop_test,60.07857075161577,
,,,,21.0,9.0,1.0,,,,,,,,,,,,,rot,blue,b,0.0,b,1.0,0.6772873000008985,,,,,,,,,,1.0,9.0,21.0,2.0,235.17541739996523,,,,,,,,,,,,,,,,,235.16136340005323,236.37588229996615,237.17555140005425,237.16014489997175,,,,,,,,,,,,,,,,,,,,,,,,,,,,,,,,,,,237.16572160006035,237.17555140005425,237.17555140005425,237.8610844999785,b,1.0,0.6772873000008985,,,,,,sub-088,1,stroop_test,60.07857075161577,
,,,,22.0,10.0,1.0,,,,,,,,,,,,,gelb,blue,b,0.0,b,1.0,0.507894300040789,,,,,,,,,,1.0,10.0,22.0,9.0,237.87551549996715,,,,,,,,,,,,,,,,,237.86179810005703,237.9757103000302,238.77556089998689,238.7601682000095,,,,,,,,,,,,,,,,,,,,,,,,,,,,,,,,,,,238.76457080000543,238.77556089998689,238.77556089998689,239.29418359999545,b,1.0,0.507894300040789,,,,,,sub-088,1,stroop_test,60.07857075161577,
,,,,23.0,11.0,1.0,,,,,,,,,,,,,rot,red,r,1.0,r,1.0,0.4012459999648854,,,,,,,,,,1.0,11.0,23.0,1.0,239.30864930001556,,,,,,,,,,,,,,,,,239.29466700006745,240.5090165999718,241.30909740005157,241.29434969997965,,,,,,,,,,,,,,,,,,,,,,,,,,,,,,,,,,,241.29824809997808,241.30909740005157,241.30909740005157,241.72737680003047,r,1.0,0.4012459999648854,,,,,,sub-088,1,stroop_test,60.07857075161577,
,,,,24.0,0.0,2.0,,,,,,,,,,,,,blau,red,r,0.0,r,1.0,0.407160900067538,,,,,,,,,,2.0,0.0,24.0,4.0,241.74205700005405,,,,,,,,,,,,,,,,,241.7278873999603,242.94238620006945,243.7423199999612,243.7272067000158,,,,,,,,,,,,,,,,,,,,,,,,,,,,,,,,,,,243.73074699996505,243.7423199999612,243.7423199999612,244.1607780000195,r,1.0,0.407160900067538,,,,,,sub-088,1,stroop_test,60.07857075161577,
,,,,25.0,1.0,2.0,,,,,,,,,,,,,gelb,yellow,g,1.0,g,1.0,0.6614153999835253,,,,,,,,,,2.0,1.0,25.0,10.0,244.17535759997557,,,,,,,,,,,,,,,,,244.1612949999981,244.97598380001727,245.7755084000528,245.75982320006003,,,,,,,,,,,,,,,,,,,,,,,,,,,,,,,,,,,245.7655676000286,245.7755084000528,245.7755084000528,246.44408130005468,g,1.0,0.6614153999835253,,,,,,sub-088,1,stroop_test,60.07857075161577,
,,,,26.0,2.0,2.0,,,,,,,,,,,,,rot,red,r,1.0,r,1.0,0.6264081000117585,,,,,,,,,,2.0,2.0,26.0,1.0,246.4587185999844,,,,,,,,,,,,,,,,,246.4446161000524,247.2594176999992,248.05933349998668,248.04314980003983,,,,,,,,,,,,,,,,,,,,,,,,,,,,,,,,,,,248.04718930006493,248.05933349998668,248.05933349998668,248.6942682999652,r,1.0,0.6264081000117585,,,,,,sub-088,1,stroop_test,60.07857075161577,
,,,,27.0,3.0,2.0,,,,,,,,,,,,,blau,blue,b,1.0,b,1.0,0.4609637999674305,,,,,,,,,,2.0,3.0,27.0,5.0,248.70852470002137,,,,,,,,,,,,,,,,,248.6947632000083,249.8922209000448,250.69251139997505,250.67669600003865,,,,,,,,,,,,,,,,,,,,,,,,,,,,,,,,,,,250.68006040004548,250.69251139997505,250.69251139997505,251.1605081000598,b,1.0,0.4609637999674305,,,,,,sub-088,1,stroop_test,60.07857075161577,
,,,,28.0,4.0,2.0,,,,,,,,,,,,,gelb,yellow,g,1.0,g,1.0,0.5237544000847265,,,,,,,,,,2.0,4.0,28.0,11.0,251.17533660004847,,,,,,,,,,,,,,,,,251.1610216000117,251.97575149999463,252.77597019996028,252.76027960004285,,,,,,,,,,,,,,,,,,,,,,,,,,,,,,,,,,,252.7643417000072,252.77597019996028,252.77597019996028,253.311012799968,g,1.0,0.5237544000847265,,,,,,sub-088,1,stroop_test,60.07857075161577,
,,,,29.0,5.0,2.0,,,,,,,,,,,,,gelb,red,r,0.0,r,1.0,0.528658700059168,,,,,,,,,,2.0,5.0,29.0,8.0,253.3255142000271,,,,,,,,,,,,,,,,,253.31159569998272,253.67544460005595,254.47572690004017,254.459800700075,,,,,,,,,,,,,,,,,,,,,,,,,,,,,,,,,,,254.46054100000765,254.47572690004017,254.47572690004017,255.0107740999665,r,1.0,0.528658700059168,,,,,,sub-088,1,stroop_test,60.07857075161577,
,,,,30.0,6.0,2.0,,,,,,,,,,,,,rot,blue,b,0.0,b,1.0,0.6289360000519082,,,,,,,,,,2.0,6.0,30.0,2.0,255.0258845000062,,,,,,,,,,,,,,,,,255.0112723000348,255.82545560004652,256.6255694000283,256.6098130000755,,,,,,,,,,,,,,,,,,,,,,,,,,,,,,,,,,,256.6139089000644,256.6255694000283,256.6255694000283,257.2604566999944,b,1.0,0.6289360000519082,,,,,,sub-088,1,stroop_test,60.07857075161577,
,,,,31.0,7.0,2.0,,,,,,,,,,,,,gelb,blue,b,0.0,b,1.0,0.4405817000661045,,,,,,,,,,2.0,7.0,31.0,9.0,257.2755292999791,,,,,,,,,,,,,,,,,257.2609462999972,258.07548640004825,258.87532560003456,258.8605185999768,,,,,,,,,,,,,,,,,,,,,,,,,,,,,,,,,,,258.86599409999326,258.87532560003456,258.87532560003456,259.327252499992,b,1.0,0.4405817000661045,,,,,,sub-088,1,stroop_test,60.07857075161577,
,,,,32.0,8.0,2.0,,,,,,,,,,,,,blau,blue,b,1.0,b,1.0,0.5409542999695987,,,,,,,,,,2.0,8.0,32.0,6.0,259.34182470000815,,,,,,,,,,,,,,,,,259.32776320003904,260.5419310000725,261.34200970001984,261.3263592000585,,,,,,,,,,,,,,,,,,,,,,,,,,,,,,,,,,,261.32980140007567,261.34200970001984,261.34200970001984,261.8937201000517,b,1.0,0.5409542999695987,,,,,,sub-088,1,stroop_test,60.07857075161577,
,,,,33.0,9.0,2.0,,,,,,,,,,,,,rot,red,r,1.0,r,1.0,0.6534035999793559,,,,,,,,,,2.0,9.0,33.0,0.0,261.9084670000011,,,,,,,,,,,,,,,,,261.8941858999897,262.7088792000432,263.5086906000506,263.4934265000047,,,,,,,,,,,,,,,,,,,,,,,,,,,,,,,,,,,263.49817869998515,263.5086906000506,263.5086906000506,264.17690349998884,r,1.0,0.6534035999793559,,,,,,sub-088,1,stroop_test,60.07857075161577,
,,,,34.0,10.0,2.0,,,,,,,,,,,,,rot,yellow,g,0.0,g,1.0,0.550409400020726,,,,,,,,,,2.0,10.0,34.0,3.0,264.1917316999752,,,,,,,,,,,,,,,,,264.1774197999621,264.2922248999821,265.0920498999767,265.0763663999969,,,,,,,,,,,,,,,,,,,,,,,,,,,,,,,,,,,265.0770327000646,265.0920498999767,265.0920498999767,265.6446213000454,g,1.0,0.550409400020726,,,,,,sub-088,1,stroop_test,60.07857075161577,
,,,,35.0,11.0,2.0,,,,,,,,,,,,,blau,yellow,g,0.0,g,1.0,0.4946851000422612,,,,,,,,,,2.0,11.0,35.0,7.0,265.6586152999662,,,,,,,,,,,,,,,,,265.64509460004047,265.758759999997,266.5587265000213,266.5436478999909,,,,,,,,,,,,,,,,,,,,,,,,,,,,,,,,,,,266.5471487999894,266.5587265000213,266.5587265000213,267.0608478999929,g,1.0,0.4946851000422612,,,,,,sub-088,1,stroop_test,60.07857075161577,
,,,,36.0,0.0,3.0,,,,,,,,,,,,,gelb,yellow,g,1.0,g,1.0,0.5263597000157461,,,,,,,,,,3.0,0.0,36.0,10.0,267.0759874000214,,,,,,,,,,,,,,,,,267.06134180002846,268.27533179998863,269.076373100048,269.05995999998413,,,,,,,,,,,,,,,,,,,,,,,,,,,,,,,,,,,269.06409100000747,269.076373100048,269.076373100048,269.6108136000112,g,1.0,0.5263597000157461,,,,,,sub-088,1,stroop_test,60.07857075161577,
,,,,37.0,1.0,3.0,,,,,,,,,,,,,rot,red,r,1.0,r,1.0,0.5153181999921799,,,,,,,,,,3.0,1.0,37.0,0.0,269.62519809999503,,,,,,,,,,,,,,,,,269.6113286999753,269.9752852000529,270.7756139000412,270.7598632000154,,,,,,,,,,,,,,,,,,,,,,,,,,,,,,,,,,,270.7644892999669,270.7756139000412,270.7756139000412,271.29387930000667,r,1.0,0.5153181999921799,,,,,,sub-088,1,stroop_test,60.07857075161577,
,,,,38.0,2.0,3.0,,,,,,,,,,,,,blau,blue,b,1.0,b,1.0,0.4768659999826923,,,,,,,,,,3.0,2.0,38.0,6.0,271.3085660999641,,,,,,,,,,,,,,,,,271.2944102999754,271.6594352000393,272.4589818000095,272.4430203000084,,,,,,,,,,,,,,,,,,,,,,,,,,,,,,,,,,,272.4469187000068,272.4589818000095,272.4589818000095,272.94449510006234,b,1.0,0.4768659999826923,,,,,,sub-088,1,stroop_test,60.07857075161577,
,,,,39.0,3.0,3.0,,,,,,,,,,,,,rot,red,r,1.0,r,1.0,0.5133841000497341,,,,,,,,,,3.0,3.0,39.0,1.0,272.9585212999955,,,,,,,,,,,,,,,,,272.9450834000017,273.3086233000504,274.1088430000236,274.0930456999922,,,,,,,,,,,,,,,,,,,,,,,,,,,,,,,,,,,274.09712060005404,274.1088430000236,274.1088430000236,274.6273268000223,r,1.0,0.5133841000497341,,,,,,sub-088,1,stroop_test,60.07857075161577,
,,,,40.0,4.0,3.0,,,,,,,,,,,,,gelb,yellow,g,1.0,g,1.0,0.5772328999591991,,,,,,,,,,3.0,4.0,40.0,11.0,274.64181170007214,,,,,,,,,,,,,,,,,274.6278699999675,275.4425124999834,276.2420780999819,276.2264329000609,,,,,,,,,,,,,,,,,,,,,,,,,,,,,,,,,,,276.2310152000282,276.2420780999819,276.2420780999819,276.8270804999629,g,1.0,0.5772328999591991,,,,,,sub-088,1,stroop_test,60.07857075161577,
,,,,41.0,5.0,3.0,,,,,,,,,,,,,blau,red,r,0.0,r,1.0,0.6445197000866756,,,,,,,,,,3.0,5.0,41.0,4.0,276.84234450000804,,,,,,,,,,,,,,,,,276.82764849998057,277.64190919999965,278.4420906000305,278.42608999996446,,,,,,,,,,,,,,,,,,,,,,,,,,,,,,,,,,,278.42952999996487,278.4420906000305,278.4420906000305,279.0940473000519,r,1.0,0.6445197000866756,,,,,,sub-088,1,stroop_test,60.07857075161577,
,,,,42.0,6.0,3.0,,,,,,,,,,,,,rot,blue,b,0.0,b,1.0,0.5665745000587776,,,,,,,,,,3.0,6.0,42.0,2.0,279.1084447000176,,,,,,,,,,,,,,,,,279.09453820006456,280.30898400000297,281.108608199982,281.0935333999805,,,,,,,,,,,,,,,,,,,,,,,,,,,,,,,,,,,281.097899000044,281.108608199982,281.108608199982,281.6776685999939,b,1.0,0.5665745000587776,,,,,,sub-088,1,stroop_test,60.07857075161577,
,,,,43.0,7.0,3.0,,,,,,,,,,,,,gelb,blue,b,0.0,b,1.0,0.431378599954769,,,,,,,,,,3.0,7.0,43.0,9.0,281.6917871000478,,,,,,,,,,,,,,,,,281.67815469997004,282.04217999998946,282.84236730006523,282.82631020003464,,,,,,,,,,,,,,,,,,,,,,,,,,,,,,,,,,,282.8310999000678,282.84236730006523,282.84236730006523,283.27738039998803,b,1.0,0.431378599954769,,,,,,sub-088,1,stroop_test,60.07857075161577,
,,,,44.0,8.0,3.0,,,,,,,,,,,,,blau,yellow,g,0.0,g,1.0,0.705330100026913,,,,,,,,,,3.0,8.0,44.0,7.0,283.2921162999701,,,,,,,,,,,,,,,,,283.27791880001314,284.4917735999916,285.2920148000121,285.27645100001246,,,,,,,,,,,,,,,,,,,,,,,,,,,,,,,,,,,285.2805420999648,285.2920148000121,285.2920148000121,286.0105700000422,g,1.0,0.705330100026913,,,,,,sub-088,1,stroop_test,60.07857075161577,
,,,,45.0,9.0,3.0,,,,,,,,,,,,,rot,yellow,g,0.0,g,1.0,0.5227715999353677,,,,,,,,,,3.0,9.0,45.0,3.0,286.0253195000114,,,,,,,,,,,,,,,,,286.0112506999867,287.2253406000091,288.02499229996465,288.0097350999713,,,,,,,,,,,,,,,,,,,,,,,,,,,,,,,,,,,288.0140381000237,288.02499229996465,288.02499229996465,288.56049910001457,g,1.0,0.5227715999353677,,,,,,sub-088,1,stroop_test,60.07857075161577,
,,,,46.0,10.0,3.0,,,,,,,,,,,,,gelb,red,r,0.0,r,1.0,0.4439080000156536,,,,,,,,,,3.0,10.0,46.0,8.0,288.5754412000533,,,,,,,,,,,,,,,,,288.5609890000196,289.77618809998967,290.5753021000419,290.55965800001286,,,,,,,,,,,,,,,,,,,,,,,,,,,,,,,,,,,290.563784900005,290.5753021000419,290.5753021000419,291.03169800003525,r,1.0,0.4439080000156536,,,,,,sub-088,1,stroop_test,60.07857075161577,
,,,,47.0,11.0,3.0,,,,,,,,,,,,,blau,blue,b,1.0,b,1.0,0.488487199996598,,,,,,,,,,3.0,11.0,47.0,5.0,291.0417682999978,,,,,,,,,,,,,,,,,291.0322031000396,292.2418947999832,293.0416741999797,293.02638709999155,,,,,,,,,,,,,,,,,,,,,,,,,,,,,,,,,,,293.03037930000573,293.0416741999797,293.0416741999797,293.54381409997586,b,1.0,0.488487199996598,,,,,,sub-088,1,stroop_test,60.07857075161577,
,,,,48.0,0.0,4.0,,,,,,,,,,,,,rot,yellow,g,0.0,g,1.0,0.5520688999677077,,,,,,,,,,4.0,0.0,48.0,3.0,293.5590219000587,,,,,,,,,,,,,,,,,293.544277500012,293.6586244000355,294.4587578000501,294.4430447999621,,,,,,,,,,,,,,,,,,,,,,,,,,,,,,,,,,,294.4476462000748,294.4587578000501,294.4587578000501,295.0271313000703,g,1.0,0.5520688999677077,,,,,,sub-088,1,stroop_test,60.07857075161577,
,,,,49.0,1.0,4.0,,,,,,,,,,,,,rot,blue,b,0.0,b,1.0,0.9061091999756172,,,,,,,,,,4.0,1.0,49.0,2.0,295.0418058000505,,,,,,,,,,,,,,,,,295.02759770001285,295.8419333000202,296.6420371000422,296.6263358000433,,,,,,,,,,,,,,,,,,,,,,,,,,,,,,,,,,,296.62697320000734,296.6420371000422,296.6420371000422,297.5605269999942,b,1.0,0.9061091999756172,,,,,,sub-088,1,stroop_test,60.07857075161577,
,,,,50.0,2.0,4.0,,,,,,,,,,,,,gelb,blue,b,0.0,b,1.0,0.9713173999916762,,,,,,,,,,4.0,2.0,50.0,9.0,297.5750660999911,,,,,,,,,,,,,,,,,297.5609993999824,297.6750936000608,298.47526560002007,298.46012890001293,,,,,,,,,,,,,,,,,,,,,,,,,,,,,,,,,,,298.46423639997374,298.47526560002007,298.47526560002007,299.4602627999848,b,1.0,0.9713173999916762,,,,,,sub-088,1,stroop_test,60.07857075161577,
,,,,51.0,3.0,4.0,,,,,,,,,,,,,blau,blue,b,1.0,b,1.0,0.482865700032562,,,,,,,,,,4.0,3.0,51.0,5.0,299.47497380001005,,,,,,,,,,,,,,,,,299.46073070005514,299.5754591000732,300.37545759999193,300.3595478000352,,,,,,,,,,,,,,,,,,,,,,,,,,,,,,,,,,,300.3630808000453,300.37545759999193,300.37545759999193,300.86098670004867,b,1.0,0.482865700032562,,,,,,sub-088,1,stroop_test,60.07857075161577,
,,,,52.0,4.0,4.0,,,,,,,,,,,,,blau,red,r,0.0,r,1.0,0.5325422999449074,,,,,,,,,,4.0,4.0,52.0,4.0,300.8750363000436,,,,,,,,,,,,,,,,,300.86146589997225,301.6753487000242,302.4752857000567,302.45946320006624,,,,,,,,,,,,,,,,,,,,,,,,,,,,,,,,,,,302.4601779000368,302.4752857000567,302.4752857000567,303.01061130000744,r,1.0,0.5325422999449074,,,,,,sub-088,1,stroop_test,60.07857075161577,
,,,,53.0,5.0,4.0,,,,,,,,,,,,,gelb,yellow,g,1.0,g,1.0,0.8283383999951184,,,,,,,,,,4.0,5.0,53.0,10.0,303.0250026000431,,,,,,,,,,,,,,,,,303.011113399989,303.3755023999838,304.17546810000204,304.15973209997173,,,,,,,,,,,,,,,,,,,,,,,,,,,,,,,,,,,304.1638493000064,304.17546810000204,304.17546810000204,305.0104252999881,g,1.0,0.8283383999951184,,,,,,sub-088,1,stroop_test,60.07857075161577,
,,,,54.0,6.0,4.0,,,,,,,,,,,,,blau,blue,b,1.0,b,1.0,0.6079351999796927,,,,,,,,,,4.0,6.0,54.0,6.0,305.02500939997844,,,,,,,,,,,,,,,,,305.0109150999924,305.3754642000422,306.1753650000319,306.160313499975,,,,,,,,,,,,,,,,,,,,,,,,,,,,,,,,,,,306.1636929999804,306.1753650000319,306.1753650000319,306.7935836999677,b,1.0,0.6079351999796927,,,,,,sub-088,1,stroop_test,60.07857075161577,
,,,,55.0,7.0,4.0,,,,,,,,,,,,,gelb,yellow,g,1.0,g,1.0,0.4635647000977769,,,,,,,,,,4.0,7.0,55.0,11.0,306.808713400038,,,,,,,,,,,,,,,,,306.79406320001,306.908617899986,307.70885559997987,307.69318639999256,,,,,,,,,,,,,,,,,,,,,,,,,,,,,,,,,,,307.6971181000117,307.70885559997987,307.70885559997987,308.17708329996094,g,1.0,0.4635647000977769,,,,,,sub-088,1,stroop_test,60.07857075161577,
,,,,56.0,8.0,4.0,,,,,,,,,,,,,rot,red,r,1.0,r,1.0,0.4690400999970734,,,,,,,,,,4.0,8.0,56.0,1.0,308.1916091999737,,,,,,,,,,,,,,,,,308.1776912000496,308.9920286000706,309.79156739998143,309.7764927999815,,,,,,,,,,,,,,,,,,,,,,,,,,,,,,,,,,,309.78165400004946,309.79156739998143,309.79156739998143,310.2769632000709,r,1.0,0.4690400999970734,,,,,,sub-088,1,stroop_test,60.07857075161577,
,,,,57.0,9.0,4.0,,,,,,,,,,,,,blau,yellow,g,0.0,g,1.0,0.667712000082247,,,,,,,,,,4.0,9.0,57.0,7.0,310.2916308999993,,,,,,,,,,,,,,,,,310.27754699997604,310.39173639996443,311.1920583000174,311.1761063999729,,,,,,,,,,,,,,,,,,,,,,,,,,,,,,,,,,,311.1795413000509,311.1920583000174,311.1920583000174,311.8766602000687,g,1.0,0.667712000082247,,,,,,sub-088,1,stroop_test,60.07857075161577,
,,,,58.0,10.0,4.0,,,,,,,,,,,,,rot,red,r,1.0,r,1.0,0.5266782999970019,,,,,,,,,,4.0,10.0,58.0,0.0,311.89174440002535,,,,,,,,,,,,,,,,,311.8771293000318,313.0918145000469,313.8921338999644,313.8762020000722,,,,,,,,,,,,,,,,,,,,,,,,,,,,,,,,,,,313.88029060000554,313.8921338999644,313.8921338999644,314.42727790004574,r,1.0,0.5266782999970019,,,,,,sub-088,1,stroop_test,60.07857075161577,
,,,,59.0,11.0,4.0,,,,,,,,,,,,,gelb,red,r,0.0,r,1.0,0.5947672999463975,,,,,,,,,,4.0,11.0,59.0,8.0,314.44168250006624,,,,,,,,,,,,,,,,,314.42776450002566,315.64160049997736,316.44182319997344,316.4263082999969,,,,,,,,,,,,,,,,,,,,,,,,,,,,,,,,,,,316.4306050000014,316.44182319997344,316.44182319997344,317.0439411000116,r,1.0,0.5947672999463975,,,,,,sub-088,1,stroop_test,60.07857075161577,
,,,,60.0,0.0,5.0,,,,,,,,,,,,,blau,red,r,0.0,r,1.0,0.3914627999765798,,,,,,,,,,5.0,0.0,60.0,4.0,317.05889450002,,,,,,,,,,,,,,,,,317.0444055000553,317.85852959996555,318.6582349999808,318.6435408999678,,,,,,,,,,,,,,,,,,,,,,,,,,,,,,,,,,,318.64777170005254,318.6582349999808,318.6582349999808,319.0600858000107,r,1.0,0.3914627999765798,,,,,,sub-088,1,stroop_test,60.07857075161577,
,,,,61.0,1.0,5.0,,,,,,,,,,,,,blau,blue,b,1.0,b,1.0,0.5464853000594303,,,,,,,,,,5.0,1.0,61.0,6.0,319.07514380000066,,,,,,,,,,,,,,,,,319.06065200001467,319.4252322000684,320.22543330001645,320.20959250000305,,,,,,,,,,,,,,,,,,,,,,,,,,,,,,,,,,,320.21021190006286,320.22543330001645,320.22543330001645,320.77755760005675,b,1.0,0.5464853000594303,,,,,,sub-088,1,stroop_test,60.07857075161577,
,,,,62.0,2.0,5.0,,,,,,,,,,,,,rot,red,r,1.0,r,1.0,0.5440326000098139,,,,,,,,,,5.0,2.0,62.0,1.0,320.79187890002504,,,,,,,,,,,,,,,,,320.77803370007314,321.592325399979,322.391854000045,322.37617709999904,,,,,,,,,,,,,,,,,,,,,,,,,,,,,,,,,,,322.3808518999722,322.391854000045,322.391854000045,322.9434622999979,r,1.0,0.5440326000098139,,,,,,sub-088,1,stroop_test,60.07857075161577,
,,,,63.0,3.0,5.0,,,,,,,,,,,,,gelb,yellow,g,1.0,g,1.0,0.5294676000485197,,,,,,,,,,5.0,3.0,63.0,10.0,322.95818479999434,,,,,,,,,,,,,,,,,322.9439315999625,324.1584125000518,324.9588499000529,324.94300970004406,,,,,,,,,,,,,,,,,,,,,,,,,,,,,,,,,,,324.94771830004174,324.9588499000529,324.9588499000529,325.4939449999947,g,1.0,0.5294676000485197,,,,,,sub-088,1,stroop_test,60.07857075161577,
,,,,64.0,4.0,5.0,,,,,,,,,,,,,rot,blue,b,0.0,b,1.0,0.5765718000475317,,,,,,,,,,5.0,4.0,64.0,2.0,325.508699500002,,,,,,,,,,,,,,,,,325.49441449996084,325.8582846999634,326.6589638000587,326.64279579999857,,,,,,,,,,,,,,,,,,,,,,,,,,,,,,,,,,,326.64666149998084,326.6589638000587,326.6589638000587,327.24375680007506,b,1.0,0.5765718000475317,,,,,,sub-088,1,stroop_test,60.07857075161577,
,,,,65.0,5.0,5.0,,,,,,,,,,,,,rot,red,r,1.0,r,1.0,0.5271468999562785,,,,,,,,,,5.0,5.0,65.0,0.0,327.25841600005515,,,,,,,,,,,,,,,,,327.2444001999684,327.60874210007023,328.4087996999733,328.39266570005566,,,,,,,,,,,,,,,,,,,,,,,,,,,,,,,,,,,328.39333350001834,328.4087996999733,328.4087996999733,328.94367720000446,r,1.0,0.5271468999562785,,,,,,sub-088,1,stroop_test,60.07857075161577,
,,,,66.0,6.0,5.0,,,,,,,,,,,,,gelb,red,r,0.0,r,1.0,0.5811436000512913,,,,,,,,,,5.0,6.0,66.0,8.0,328.95831959997304,,,,,,,,,,,,,,,,,328.9441681000171,329.0582514000125,329.8584619000321,329.8433697000146,,,,,,,,,,,,,,,,,,,,,,,,,,,,,,,,,,,329.84744579996914,329.8584619000321,329.8584619000321,330.44408060004935,r,1.0,0.5811436000512913,,,,,,sub-088,1,stroop_test,60.07857075161577,
,,,,67.0,7.0,5.0,,,,,,,,,,,,,blau,yellow,g,0.0,g,1.0,0.6270225000334904,,,,,,,,,,5.0,7.0,67.0,7.0,330.45828260004055,,,,,,,,,,,,,,,,,330.44458330003545,330.5584437999641,331.35856740002055,331.3432405999629,,,,,,,,,,,,,,,,,,,,,,,,,,,,,,,,,,,331.3491475000046,331.35856740002055,331.35856740002055,331.9936137000332,g,1.0,0.6270225000334904,,,,,,sub-088,1,stroop_test,60.07857075161577,
,,,,68.0,8.0,5.0,,,,,,,,,,,,,rot,yellow,g,0.0,g,1.0,0.4446439000312239,,,,,,,,,,5.0,8.0,68.0,3.0,332.00844680005684,,,,,,,,,,,,,,,,,331.9941055000527,333.2089465999743,334.0081493000034,333.99279930000193,,,,,,,,,,,,,,,,,,,,,,,,,,,,,,,,,,,333.9985575999599,334.0081493000034,334.0081493000034,334.46044240007177,g,1.0,0.4446439000312239,,,,,,sub-088,1,stroop_test,60.07857075161577,
,,,,69.0,9.0,5.0,,,,,,,,,,,,,gelb,yellow,g,1.0,g,1.0,0.4288616999983787,,,,,,,,,,5.0,9.0,69.0,11.0,334.47510649997275,,,,,,,,,,,,,,,,,334.46091050002724,335.2750624000328,336.0748668999877,336.0598450000398,,,,,,,,,,,,,,,,,,,,,,,,,,,,,,,,,,,336.0637212999864,336.0748668999877,336.0748668999877,336.51007049996406,g,1.0,0.4288616999983787,,,,,,sub-088,1,stroop_test,60.07857075161577,
,,,,70.0,10.0,5.0,,,,,,,,,,,,,gelb,blue,b,0.0,b,1.0,0.5648898999206722,,,,,,,,,,5.0,10.0,70.0,9.0,336.5254328000592,,,,,,,,,,,,,,,,,336.51069250004366,337.32599270006176,338.1253647999838,338.1096394000342,,,,,,,,,,,,,,,,,,,,,,,,,,,,,,,,,,,338.1102329000132,338.1253647999838,338.1253647999838,338.69407950004097,b,1.0,0.5648898999206722,,,,,,sub-088,1,stroop_test,60.07857075161577,
,,,,71.0,11.0,5.0,,,,,,,,,,,,,blau,blue,b,1.0,b,1.0,0.4109966000542044,,,,,,,,,,5.0,11.0,71.0,5.0,338.7082825000398,,,,,,,,,,,,,,,,,338.69456340000033,339.9082314000698,340.70871290005744,340.69259760004934,,,,,,,,,,,,,,,,,,,,,,,,,,,,,,,,,,,340.6963828000007,340.70871290005744,340.70871290005744,341.1265359000536,b,1.0,0.4109966000542044,,,,,,sub-088,1,stroop_test,60.07857075161577,
,,,,72.0,0.0,6.0,,,,,,,,,,,,,gelb,red,r,0.0,r,1.0,0.5885371998883784,,,,,,,,,,6.0,0.0,72.0,8.0,341.1414805999957,,,,,,,,,,,,,,,,,341.126997500076,342.34170520002954,343.1415329000447,343.12601999996696,,,,,,,,,,,,,,,,,,,,,,,,,,,,,,,,,,,343.130442499998,343.1415329000447,343.1415329000447,343.74342149996664,r,1.0,0.5885371998883784,,,,,,sub-088,1,stroop_test,60.07857075161577,
,,,,73.0,1.0,6.0,,,,,,,,,,,,,gelb,yellow,g,1.0,g,1.0,0.5644685999723151,,,,,,,,,,6.0,1.0,73.0,10.0,343.7581596999662,,,,,,,,,,,,,,,,,343.7438839999959,344.10866080003325,344.90826900000684,344.892768300022,,,,,,,,,,,,,,,,,,,,,,,,,,,,,,,,,,,344.8933997000568,344.90826900000684,344.90826900000684,345.4767111999681,g,1.0,0.5644685999723151,,,,,,sub-088,1,stroop_test,60.07857075161577,
,,,,74.0,2.0,6.0,,,,,,,,,,,,,blau,yellow,g,0.0,g,1.0,0.4575533999595791,,,,,,,,,,6.0,2.0,74.0,7.0,345.49160419998225,,,,,,,,,,,,,,,,,345.47717660001945,345.59167520003393,346.3916461999761,346.37623709999025,,,,,,,,,,,,,,,,,,,,,,,,,,,,,,,,,,,346.3802125999937,346.3916461999761,346.3916461999761,346.85984350007493,g,1.0,0.4575533999595791,,,,,,sub-088,1,stroop_test,60.07857075161577,
,,,,75.0,3.0,6.0,,,,,,,,,,,,,gelb,blue,b,0.0,b,1.0,0.4734788999194279,,,,,,,,,,6.0,3.0,75.0,9.0,346.8753671000013,,,,,,,,,,,,,,,,,346.86032310000155,346.974969199975,347.7754590000259,347.75940330000594,,,,,,,,,,,,,,,,,,,,,,,,,,,,,,,,,,,347.7644631000003,347.7754590000259,347.7754590000259,348.2600456000073,b,1.0,0.4734788999194279,,,,,,sub-088,1,stroop_test,60.07857075161577,
,,,,76.0,4.0,6.0,,,,,,,,,,,,,gelb,yellow,g,1.0,g,1.0,0.6745757999597117,,,,,,,,,,6.0,4.0,76.0,11.0,348.2751542000333,,,,,,,,,,,,,,,,,348.2606357999612,348.6248807000229,349.4252010000637,349.409353199997,,,,,,,,,,,,,,,,,,,,,,,,,,,,,,,,,,,349.41002080007456,349.4252010000637,349.4252010000637,350.1099840999814,g,1.0,0.6745757999597117,,,,,,sub-088,1,stroop_test,60.07857075161577,
,,,,77.0,5.0,6.0,,,,,,,,,,,,,rot,red,r,1.0,r,1.0,0.4922215999104082,,,,,,,,,,6.0,5.0,77.0,1.0,350.12494989996776,,,,,,,,,,,,,,,,,350.1104742999887,351.3247665000381,352.1253169999691,352.1096376000205,,,,,,,,,,,,,,,,,,,,,,,,,,,,,,,,,,,352.1138407000108,352.1253169999691,352.1253169999691,352.6266448000679,r,1.0,0.4922215999104082,,,,,,sub-088,1,stroop_test,60.07857075161577,
,,,,78.0,6.0,6.0,,,,,,,,,,,,,rot,red,r,1.0,r,1.0,0.4530150999780744,,,,,,,,,,6.0,6.0,78.0,0.0,352.6414955999935,,,,,,,,,,,,,,,,,352.62713669997174,352.9915930000134,353.7913993999828,353.7762700000312,,,,,,,,,,,,,,,,,,,,,,,,,,,,,,,,,,,353.77701820002403,353.7913993999828,353.7913993999828,354.26057200005744,r,1.0,0.4530150999780744,,,,,,sub-088,1,stroop_test,60.07857075161577,
,,,,79.0,7.0,6.0,,,,,,,,,,,,,rot,blue,b,0.0,b,1.0,0.5370104999747127,,,,,,,,,,6.0,7.0,79.0,2.0,354.2749259000411,,,,,,,,,,,,,,,,,354.26115260005463,355.47495279996656,356.2750507000601,356.25953340006527,,,,,,,,,,,,,,,,,,,,,,,,,,,,,,,,,,,356.2602674000664,356.2750507000601,356.2750507000601,356.82979470002465,b,1.0,0.5370104999747127,,,,,,sub-088,1,stroop_test,60.07857075161577,
,,,,80.0,8.0,6.0,,,,,,,,,,,,,blau,blue,b,1.0,b,1.0,0.4640471000457182,,,,,,,,,,6.0,8.0,80.0,6.0,356.8412481000414,,,,,,,,,,,,,,,,,356.83029119996354,357.1915640999796,357.99188650003634,357.97635570005514,,,,,,,,,,,,,,,,,,,,,,,,,,,,,,,,,,,357.97969040006865,357.99188650003634,357.99188650003634,358.460425300058,b,1.0,0.4640471000457182,,,,,,sub-088,1,stroop_test,60.07857075161577,
,,,,81.0,9.0,6.0,,,,,,,,,,,,,rot,yellow,g,0.0,g,1.0,0.852196800056845,,,,,,,,,,6.0,9.0,81.0,3.0,358.4749262999976,,,,,,,,,,,,,,,,,358.46089880005457,358.5746467000572,359.3747612000443,359.3592746000504,,,,,,,,,,,,,,,,,,,,,,,,,,,,,,,,,,,359.3633897000691,359.3747612000443,359.3747612000443,360.24389749998227,g,1.0,0.852196800056845,,,,,,sub-088,1,stroop_test,60.07857075161577,
,,,,82.0,10.0,6.0,,,,,,,,,,,,,blau,red,r,0.0,r,1.0,0.5255373999243602,,,,,,,,,,6.0,10.0,82.0,4.0,360.2581189000048,,,,,,,,,,,,,,,,,360.24439590005204,361.45869920006953,362.2583166999975,362.24330850003753,,,,,,,,,,,,,,,,,,,,,,,,,,,,,,,,,,,362.2466491999803,362.2583166999975,362.2583166999975,362.793122000061,r,1.0,0.5255373999243602,,,,,,sub-088,1,stroop_test,60.07857075161577,
,,,,83.0,11.0,6.0,,,,,,,,,,,,,blau,blue,b,1.0,b,1.0,0.5140281000640243,,,,,,,,,,6.0,11.0,83.0,5.0,362.8078542000149,,,,,,,,,,,,,,,,,362.79362320003565,364.0088166999631,364.8084523000289,364.7923653000034,,,,,,,,,,,,,,,,,,,,,,,,,,,,,,,,,,,364.79295360005926,364.8084523000289,364.8084523000289,365.3266459000297,b,1.0,0.5140281000640243,,,,,,sub-088,1,stroop_test,60.07857075161577,
,,,,84.0,0.0,7.0,,,,,,,,,,,,,gelb,blue,b,0.0,b,1.0,0.6857739000115544,,,,,,,,,,7.0,0.0,84.0,9.0,365.34160529996734,,,,,,,,,,,,,,,,,365.32715620007366,366.5415323000634,367.34130099997856,367.3261607000604,,,,,,,,,,,,,,,,,,,,,,,,,,,,,,,,,,,367.3326022999827,367.34130099997856,367.34130099997856,368.0432151000714,b,1.0,0.6857739000115544,,,,,,sub-088,1,stroop_test,60.07857075161577,
,,,,85.0,1.0,7.0,,,,,,,,,,,,,gelb,red,r,0.0,r,1.0,0.5665785000892356,,,,,,,,,,7.0,1.0,85.0,8.0,368.0579198000487,,,,,,,,,,,,,,,,,368.0437114000088,369.2582744000247,370.0580200999975,370.0425328999991,,,,,,,,,,,,,,,,,,,,,,,,,,,,,,,,,,,370.0432124000508,370.0580200999975,370.0580200999975,370.627047499991,r,1.0,0.5665785000892356,,,,,,sub-088,1,stroop_test,60.07857075161577,
,,,,86.0,2.0,7.0,,,,,,,,,,,,,rot,red,r,1.0,r,1.0,0.4923228000989184,,,,,,,,,,7.0,2.0,86.0,1.0,370.6413890999975,,,,,,,,,,,,,,,,,370.6275156000629,371.4414252999704,372.2417413999792,372.2260593000101,,,,,,,,,,,,,,,,,,,,,,,,,,,,,,,,,,,372.2303926000605,372.2417413999792,372.2417413999792,372.7433167999843,r,1.0,0.4923228000989184,,,,,,sub-088,1,stroop_test,60.07857075161577,
,,,,87.0,3.0,7.0,,,,,,,,,,,,,rot,yellow,g,0.0,g,1.0,0.5139897000044584,,,,,,,,,,7.0,3.0,87.0,3.0,372.7580200000666,,,,,,,,,,,,,,,,,372.7438353999751,373.55846580001526,374.3579199999804,374.3425403999863,,,,,,,,,,,,,,,,,,,,,,,,,,,,,,,,,,,374.34356850001495,374.3579199999804,374.3579199999804,374.87705080001615,g,1.0,0.5139897000044584,,,,,,sub-088,1,stroop_test,60.07857075161577,
,,,,88.0,4.0,7.0,,,,,,,,,,,,,blau,yellow,g,0.0,g,1.0,0.4745759000070393,,,,,,,,,,7.0,4.0,88.0,7.0,374.8914739000611,,,,,,,,,,,,,,,,,374.8775616000639,376.0912715999875,376.8918497000122,376.8760641000699,,,,,,,,,,,,,,,,,,,,,,,,,,,,,,,,,,,376.87956560007297,376.8918497000122,376.8918497000122,377.37630130001344,g,1.0,0.4745759000070393,,,,,,sub-088,1,stroop_test,60.07857075161577,
,,,,89.0,5.0,7.0,,,,,,,,,,,,,gelb,yellow,g,1.0,g,1.0,0.4380368000129238,,,,,,,,,,7.0,5.0,89.0,11.0,377.3910636999644,,,,,,,,,,,,,,,,,377.37677920004353,377.74141839996446,378.5421449000714,378.5259405999677,,,,,,,,,,,,,,,,,,,,,,,,,,,,,,,,,,,378.5298880999908,378.5421449000714,378.5421449000714,378.993638999993,g,1.0,0.4380368000129238,,,,,,sub-088,1,stroop_test,60.07857075161577,
,,,,90.0,6.0,7.0,,,,,,,,,,,,,gelb,yellow,g,1.0,g,1.0,0.4646791000850498,,,,,,,,,,7.0,6.0,90.0,10.0,379.0090696000261,,,,,,,,,,,,,,,,,378.99416300002486,379.3580514000496,380.1581177000189,380.142399400007,,,,,,,,,,,,,,,,,,,,,,,,,,,,,,,,,,,380.1430719000055,380.1581177000189,380.1581177000189,380.6270080000395,g,1.0,0.4646791000850498,,,,,,sub-088,1,stroop_test,60.07857075161577,
,,,,91.0,7.0,7.0,,,,,,,,,,,,,blau,blue,b,1.0,b,1.0,0.5397466999711469,,,,,,,,,,7.0,7.0,91.0,5.0,380.6413120999932,,,,,,,,,,,,,,,,,380.6274978000438,380.7416542000137,381.541710200021,381.5258584000403,,,,,,,,,,,,,,,,,,,,,,,,,,,,,,,,,,,381.5293093000073,381.541710200021,381.541710200021,382.093041599961,b,1.0,0.5397466999711469,,,,,,sub-088,1,stroop_test,60.07857075161577,
,,,,92.0,8.0,7.0,,,,,,,,,,,,,rot,red,r,1.0,r,1.0,0.5097410000162199,,,,,,,,,,7.0,8.0,92.0,0.0,382.1080685000634,,,,,,,,,,,,,,,,,382.0935626999708,382.2082308999961,383.0084061999805,382.9929638999747,,,,,,,,,,,,,,,,,,,,,,,,,,,,,,,,,,,382.9976952000288,383.0084061999805,383.0084061999805,383.5265706999926,r,1.0,0.5097410000162199,,,,,,sub-088,1,stroop_test,60.07857075161577,
,,,,93.0,9.0,7.0,,,,,,,,,,,,,blau,blue,b,1.0,b,1.0,0.4941584001062438,,,,,,,,,,7.0,9.0,93.0,6.0,383.5416537000565,,,,,,,,,,,,,,,,,383.5270931000123,383.89169910002965,384.6922086999985,384.6757995999651,,,,,,,,,,,,,,,,,,,,,,,,,,,,,,,,,,,384.6791171999648,384.6922086999985,384.6922086999985,385.1934897999745,b,1.0,0.4941584001062438,,,,,,sub-088,1,stroop_test,60.07857075161577,
,,,,94.0,10.0,7.0,,,,,,,,,,,,,rot,blue,b,0.0,b,1.0,0.4639534000307321,,,,,,,,,,7.0,10.0,94.0,2.0,385.2079754000297,,,,,,,,,,,,,,,,,385.1939761000685,386.40787940006703,387.2084426999791,387.1927403999725,,,,,,,,,,,,,,,,,,,,,,,,,,,,,,,,,,,387.1970488000661,387.2084426999791,387.2084426999791,387.6768705999712,b,1.0,0.4639534000307321,,,,,,sub-088,1,stroop_test,60.07857075161577,
,,,,95.0,11.0,7.0,,,,,,,,,,,,,blau,red,r,0.0,r,1.0,0.5666128000011668,,,,,,,,,,7.0,11.0,95.0,4.0,387.6911745000398,,,,,,,,,,,,,,,,,387.6773424000712,388.0414913999848,388.8416659999639,388.82649230002426,,,,,,,,,,,,,,,,,,,,,,,,,,,,,,,,,,,388.8298633999657,388.8416659999639,388.8416659999639,389.411072100047,r,1.0,0.5666128000011668,,,,,,sub-088,1,stroop_test,60.07857075161577,
,,,,96.0,0.0,8.0,,,,,,,,,,,,,blau,blue,b,1.0,b,1.0,0.4952511999290436,,,,,,,,,,8.0,0.0,96.0,6.0,389.4245050000027,,,,,,,,,,,,,,,,,389.4117586000357,390.2249723999994,391.02462869999,391.0092553000432,,,,,,,,,,,,,,,,,,,,,,,,,,,,,,,,,,,391.00997220003046,391.02462869999,391.02462869999,391.5269833999919,b,1.0,0.4952511999290436,,,,,,sub-088,1,stroop_test,60.07857075161577,
,,,,97.0,1.0,8.0,,,,,,,,,,,,,blau,blue,b,1.0,b,1.0,0.4536193000385538,,,,,,,,,,8.0,1.0,97.0,5.0,391.54122839996126,,,,,,,,,,,,,,,,,391.52746290003415,392.341281900066,393.1416099000489,393.12606430007145,,,,,,,,,,,,,,,,,,,,,,,,,,,,,,,,,,,393.1268875000533,393.1416099000489,393.1416099000489,393.6096890000626,b,1.0,0.4536193000385538,,,,,,sub-088,1,stroop_test,60.07857075161577,
,,,,98.0,2.0,8.0,,,,,,,,,,,,,rot,red,r,1.0,r,1.0,0.4478130999486893,,,,,,,,,,8.0,2.0,98.0,0.0,393.6249075999949,,,,,,,,,,,,,,,,,393.61037879996,394.82506329996977,395.6248979000375,395.6092057999922,,,,,,,,,,,,,,,,,,,,,,,,,,,,,,,,,,,395.6130872999784,395.6248979000375,395.6248979000375,396.0767706000479,r,1.0,0.4478130999486893,,,,,,sub-088,1,stroop_test,60.07857075161577,
,,,,99.0,3.0,8.0,,,,,,,,,,,,,rot,yellow,g,0.0,g,1.0,0.7511831999290735,,,,,,,,,,8.0,3.0,99.0,3.0,396.09135590004735,,,,,,,,,,,,,,,,,396.07723559997976,396.8912203999935,397.6916149000172,397.6763692999957,,,,,,,,,,,,,,,,,,,,,,,,,,,,,,,,,,,397.6769943999825,397.6916149000172,397.6916149000172,398.4595925000031,g,1.0,0.7511831999290735,,,,,,sub-088,1,stroop_test,60.07857075161577,
,,,,100.0,4.0,8.0,,,,,,,,,,,,,gelb,yellow,g,1.0,g,1.0,0.3987573001068085,,,,,,,,,,8.0,4.0,100.0,11.0,398.4746260000393,,,,,,,,,,,,,,,,,398.4600616999669,399.27516309998464,400.0744962999597,400.0593646999914,,,,,,,,,,,,,,,,,,,,,,,,,,,,,,,,,,,400.0651939000236,400.0744962999597,400.0744962999597,400.47670180001296,g,1.0,0.3987573001068085,,,,,,sub-088,1,stroop_test,60.07857075161577,
,,,,101.0,5.0,8.0,,,,,,,,,,,,,rot,blue,b,0.0,b,1.0,0.9650392999174072,,,,,,,,,,8.0,5.0,101.0,2.0,400.4915073000593,,,,,,,,,,,,,,,,,400.4772675000131,401.692167500034,402.4914838999976,402.475836000056,,,,,,,,,,,,,,,,,,,,,,,,,,,,,,,,,,,402.4799390999833,402.4914838999976,402.4914838999976,403.46041040006094,b,1.0,0.9650392999174072,,,,,,sub-088,1,stroop_test,60.07857075161577,
,,,,102.0,6.0,8.0,,,,,,,,,,,,,blau,red,r,0.0,r,1.0,0.4669517000438645,,,,,,,,,,8.0,6.0,102.0,4.0,403.47452230006456,,,,,,,,,,,,,,,,,403.46108200005256,404.2748397999676,405.0749623000156,405.0589210999897,,,,,,,,,,,,,,,,,,,,,,,,,,,,,,,,,,,405.0629589000018,405.0749623000156,405.0749623000156,405.5445686000167,r,1.0,0.4669517000438645,,,,,,sub-088,1,stroop_test,60.07857075161577,
,,,,103.0,7.0,8.0,,,,,,,,,,,,,gelb,yellow,g,1.0,g,1.0,0.7033024000702426,,,,,,,,,,8.0,7.0,103.0,10.0,405.5580201999983,,,,,,,,,,,,,,,,,405.5451325000031,406.3584681999637,407.1580243000062,407.1421911000507,,,,,,,,,,,,,,,,,,,,,,,,,,,,,,,,,,,407.1471326999599,407.1580243000062,407.1580243000062,407.87622099998407,g,1.0,0.7033024000702426,,,,,,sub-088,1,stroop_test,60.07857075161577,
,,,,104.0,8.0,8.0,,,,,,,,,,,,,blau,yellow,g,0.0,g,1.0,0.5125386000145227,,,,,,,,,,8.0,8.0,104.0,7.0,407.8916198000079,,,,,,,,,,,,,,,,,407.876731300028,407.9914380999981,408.79156739998143,408.7757045000326,,,,,,,,,,,,,,,,,,,,,,,,,,,,,,,,,,,408.7794163000072,408.79156739998143,408.79156739998143,409.3101622000104,g,1.0,0.5125386000145227,,,,,,sub-088,1,stroop_test,60.07857075161577,
,,,,105.0,9.0,8.0,,,,,,,,,,,,,gelb,blue,b,0.0,b,1.0,0.5620970000745729,,,,,,,,,,8.0,9.0,105.0,9.0,409.3244458000409,,,,,,,,,,,,,,,,,409.3106330999872,410.5252040000632,411.3245441999752,411.3090305000078,,,,,,,,,,,,,,,,,,,,,,,,,,,,,,,,,,,411.31293400004506,411.3245441999752,411.3245441999752,411.8930911000352,b,1.0,0.5620970000745729,,,,,,sub-088,1,stroop_test,60.07857075161577,
,,,,106.0,10.0,8.0,,,,,,,,,,,,,rot,red,r,1.0,r,1.0,0.4556791000068187,,,,,,,,,,8.0,10.0,106.0,1.0,411.9078838999849,,,,,,,,,,,,,,,,,411.8935848000692,412.2584951000754,413.0581004000269,413.04229750006925,,,,,,,,,,,,,,,,,,,,,,,,,,,,,,,,,,,413.0482920999639,413.0581004000269,413.0581004000269,413.52620339998975,r,1.0,0.4556791000068187,,,,,,sub-088,1,stroop_test,60.07857075161577,
,,,,107.0,11.0,8.0,,,,,,,,,,,,,gelb,red,r,0.0,r,1.0,0.4561560999136418,,,,,,,,,,8.0,11.0,107.0,8.0,413.54121699999087,,,,,,,,,,,,,,,,,413.5267717000097,414.3414495000616,415.1414646999911,415.12594399997033,,,,,,,,,,,,,,,,,,,,,,,,,,,,,,,,,,,415.1298396000639,415.1414646999911,415.1414646999911,415.6093619000167,r,1.0,0.4561560999136418,,,,,,sub-088,1,stroop_test,60.07857075161577,
,,,,108.0,0.0,9.0,,,,,,,,,,,,,blau,blue,b,1.0,b,1.0,0.4902123999781906,,,,,,,,,,9.0,0.0,108.0,5.0,415.6245366999647,,,,,,,,,,,,,,,,,415.60991670005023,416.4244687999599,417.224465199979,417.20880700007547,,,,,,,,,,,,,,,,,,,,,,,,,,,,,,,,,,,417.2121278999839,417.224465199979,417.224465199979,417.72636860003695,b,1.0,0.4902123999781906,,,,,,sub-088,1,stroop_test,60.07857075161577,
,,,,109.0,1.0,9.0,,,,,,,,,,,,,blau,blue,b,1.0,b,1.0,0.4362942000152543,,,,,,,,,,9.0,1.0,109.0,6.0,417.74134489998687,,,,,,,,,,,,,,,,,417.7270215000026,418.9419503000099,419.7414027999621,419.72581129998434,,,,,,,,,,,,,,,,,,,,,,,,,,,,,,,,,,,419.7265102000674,419.7414027999621,419.7414027999621,420.1931537999772,b,1.0,0.4362942000152543,,,,,,sub-088,1,stroop_test,60.07857075161577,
,,,,110.0,2.0,9.0,,,,,,,,,,,,,gelb,yellow,g,1.0,g,1.0,0.6438962999964133,,,,,,,,,,9.0,2.0,110.0,11.0,420.20811100001447,,,,,,,,,,,,,,,,,420.1936309000012,421.4078640000662,422.2080573000712,422.1924310000613,,,,,,,,,,,,,,,,,,,,,,,,,,,,,,,,,,,422.1963161000749,422.2080573000712,422.2080573000712,422.8597737000091,g,1.0,0.6438962999964133,,,,,,sub-088,1,stroop_test,60.07857075161577,
,,,,111.0,3.0,9.0,,,,,,,,,,,,,rot,yellow,g,0.0,g,1.0,0.4477040999336168,,,,,,,,,,9.0,3.0,111.0,3.0,422.8745681999717,,,,,,,,,,,,,,,,,422.86023460002616,422.9747165000299,423.7780853000004,423.7591054000659,,,,,,,,,,,,,,,,,,,,,,,,,,,,,,,,,,,423.7631282999646,423.7780853000004,423.7780853000004,424.2431282000616,g,1.0,0.4477040999336168,,,,,,sub-088,1,stroop_test,60.07857075161577,
,,,,112.0,4.0,9.0,,,,,,,,,,,,,blau,yellow,g,0.0,g,1.0,0.4732897999929264,,,,,,,,,,9.0,4.0,112.0,7.0,424.2581515000202,,,,,,,,,,,,,,,,,424.2436435000273,425.05770800006576,425.8577443000395,425.8420585000422,,,,,,,,,,,,,,,,,,,,,,,,,,,,,,,,,,,425.8461859000381,425.8577443000395,425.8577443000395,426.3428122999612,g,1.0,0.4732897999929264,,,,,,sub-088,1,stroop_test,60.07857075161577,
,,,,113.0,5.0,9.0,,,,,,,,,,,,,rot,red,r,1.0,r,1.0,0.5779064999660477,,,,,,,,,,9.0,5.0,113.0,1.0,426.3580953000346,,,,,,,,,,,,,,,,,426.3432804000331,426.7076324999798,427.50825189996976,427.4925650999649,,,,,,,,,,,,,,,,,,,,,,,,,,,,,,,,,,,427.4968995000236,427.50825189996976,427.50825189996976,428.093026699964,r,1.0,0.5779064999660477,,,,,,sub-088,1,stroop_test,60.07857075161577,
,,,,114.0,6.0,9.0,,,,,,,,,,,,,gelb,blue,b,0.0,b,1.0,0.7299067999701947,,,,,,,,,,9.0,6.0,114.0,9.0,428.10769179998897,,,,,,,,,,,,,,,,,428.09349710005336,428.2079679999733,429.0080803000601,428.9921940000495,,,,,,,,,,,,,,,,,,,,,,,,,,,,,,,,,,,428.9964867000235,429.0080803000601,429.0080803000601,429.74279689998366,b,1.0,0.7299067999701947,,,,,,sub-088,1,stroop_test,60.07857075161577,
,,,,115.0,7.0,9.0,,,,,,,,,,,,,gelb,yellow,g,1.0,g,1.0,0.583545699948445,,,,,,,,,,9.0,7.0,115.0,10.0,429.7578390999697,,,,,,,,,,,,,,,,,429.7433433000697,430.5582378000254,431.35806500003673,431.3421013000189,,,,,,,,,,,,,,,,,,,,,,,,,,,,,,,,,,,431.34269890002906,431.35806500003673,431.35806500003673,431.9437306000618,g,1.0,0.583545699948445,,,,,,sub-088,1,stroop_test,60.07857075161577,
,,,,116.0,8.0,9.0,,,,,,,,,,,,,gelb,red,r,0.0,r,1.0,0.634482300025411,,,,,,,,,,9.0,8.0,116.0,8.0,431.9577361000702,,,,,,,,,,,,,,,,,431.9442458000267,433.1577672000276,433.9581562000094,433.943071900052,,,,,,,,,,,,,,,,,,,,,,,,,,,,,,,,,,,433.9437910000561,433.9581562000094,433.9581562000094,434.60924420005176,r,1.0,0.634482300025411,,,,,,sub-088,1,stroop_test,60.07857075161577,
,,,,117.0,9.0,9.0,,,,,,,,,,,,,rot,blue,b,0.0,b,1.0,0.915208899998106,,,,,,,,,,9.0,9.0,117.0,2.0,434.6249376999913,,,,,,,,,,,,,,,,,434.6097132000141,434.97428970003966,435.77504430001136,435.7593642000575,,,,,,,,,,,,,,,,,,,,,,,,,,,,,,,,,,,435.7641783000436,435.77504430001136,435.77504430001136,436.69323770003393,b,1.0,0.915208899998106,,,,,,sub-088,1,stroop_test,60.07857075161577,
,,,,118.0,10.0,9.0,,,,,,,,,,,,,blau,red,r,0.0,r,1.0,0.7709761000005528,,,,,,,,,,9.0,10.0,118.0,4.0,436.7076367000118,,,,,,,,,,,,,,,,,436.6937240000116,437.9080093000084,438.70811979996506,438.6923535000533,,,,,,,,,,,,,,,,,,,,,,,,,,,,,,,,,,,438.6956909999717,438.70811979996506,438.70811979996506,439.49258039996494,r,1.0,0.7709761000005528,,,,,,sub-088,1,stroop_test,60.07857075161577,
,,,,119.0,11.0,9.0,,,,,,,,,,,,,rot,red,r,1.0,r,1.0,0.4961531000444665,,,,,,,,,,9.0,11.0,119.0,0.0,439.5076912000077,,,,,,,,,,,,,,,,,439.4930442000041,440.2912681000307,441.0910265999846,441.0753886000021,,,,,,,,,,,,,,,,,,,,,,,,,,,,,,,,,,,441.0800298000686,441.0910265999846,441.0910265999846,441.59333850000985,r,1.0,0.4961531000444665,,,,,,sub-088,1,stroop_test,60.07857075161577,
,,,,,,,,,,,,,,,,,,,,,,,,,,,,,,,,,,,,,,,,,,,,,,,,,,,,,,,,,,,,,,,,,,,,,,,,,,,,,,,,,,,,,,,,,,,,,,,,,,,,,,441.593568900018,441.6078708000714,446.607902299962,446.5921717999736,sub-088,1,stroop_test,60.07857075161577,
