wordCTK,colorCTK,corrAnsCTK,congruentCTK,thisN,thisTrialN,thisRepN,keyResp_CTK.keys,keyResp_CTK.corr,keyResp_CTK.rt,keyResp_CTK.duration,wordPractice,colorPractice,corrAnsPractice,congruentPractice,respPractice.keys,respPractice.corr,respPractice.rt,respPractice.duration,word,color,corrAns,congruent,keyResp_test_run.keys,keyResp_test_run.corr,keyResp_test_run.rt,keyResp_test_run.duration,trials_CTK.thisRepN,trials_CTK.thisTrialN,trials_CTK.thisN,trials_CTK.thisIndex,trials_practice.thisRepN,trials_practice.thisTrialN,trials_practice.thisN,trials_practice.thisIndex,trials_test.thisRepN,trials_test.thisTrialN,trials_test.thisN,trials_test.thisIndex,thisRow.t,notes,instruction.started,instr_text.started,instr_image.started,instr_resp.started,instruction.stopped,instr_resp.keys,instr_resp.rt,instr_resp.duration,instr_color_to_key.started,instr_ctk.started,resp_ctk.started,instr_color_to_key.stopped,resp_ctk.keys,resp_ctk.rt,resp_ctk.duration,ITI.started,fixcross.started,fixcross.stopped,ITI.stopped,color_to_key_run.started,stimulus_CTK.started,keyResp_CTK.started,color_to_key_run.stopped,trials_CTK.keyResp_CTK.keys,trials_CTK.keyResp_CTK.corr,trials_CTK.keyResp_CTK.rt,trials_CTK.keyResp_CTK.duration,instr_practice.started,instr_practice_text.started,instr_practice_resp.started,instr_practice.stopped,instr_practice_resp.keys,instr_practice_resp.rt,instr_practice_resp.duration,practice_run.started,stimulus_practice.started,respPractice.started,practice_run.stopped,trials_practice.respPractice.keys,trials_practice.respPractice.corr,trials_practice.respPractice.rt,trials_practice.respPractice.duration,feedback.started,textFeedback.started,feedback.stopped,textFeedback.stopped,instr_test.started,instr_test_text.started,instr_test_resp.started,instr_test.stopped,instr_test_resp.keys,instr_test_resp.rt,instr_test_resp.duration,test_run.started,stimulus_test_run.started,keyResp_test_run.started,test_run.stopped,trials_test.keyResp_test_run.keys,trials_test.keyResp_test_run.corr,trials_test.keyResp_test_run.rt,trials_test.keyResp_test_run.duration,goodbye.started,textGoodbye.started,textGoodbye.stopped,goodbye.stopped,participant,session,expName,frameRate,Unnamed: 113
,,,,,,,,,,,,,,,,,,,,,,,,,,,,,,,,,,,,,,,,,0.0085822500113863,0.0164771669951733,0.0164771669951733,0.0164771669951733,33.09886670901324,space,33.03802787497989,,,,,,,,,,,,,,,,,,,,,,,,,,,,,,,,,,,,,,,,,,,,,,,,,,,,,,,,,,,sub-202,1,stroop_test,120.38529313542116,
,,,,,,,,,,,,,,,,,,,,,,,,,,,,,,,,,,,,,,,,,,,,,,,,,33.098938917013584,33.12714816699736,33.12714816699736,42.44626799999969,space,9.31157008302398,,,,,,,,,,,,,,,,,,,,,,,,,,,,,,,,,,,,,,,,,,,,,,,,,,,,sub-202,1,stroop_test,120.38529313542116,
test,blue,b,1.0,0.0,0.0,0.0,b,1.0,1.0727060830104165,,,,,,,,,,,,,,,,,,0.0,0.0,0.0,2.0,,,,,,,,,42.48371566701098,,,,,,,,,,,,,,,,,42.464449042017804,43.24707191702328,44.04671791702276,44.03328683401924,44.03911879201769,44.04671791702276,44.04671791702276,45.129656792007154,b,1.0,1.0727060830104165,,,,,,,,,,,,,,,,,,,,,,,,,,,,,,,,,,,,,,,,sub-202,1,stroop_test,120.38529313542116,
test,yellow,g,1.0,1.0,1.0,0.0,g,1.0,10.161576707992936,,,,,,,,,,,,,,,,,,0.0,1.0,1.0,1.0,,,,,,,,,45.13911708400701,,,,,,,,,,,,,,,,,45.13015741700656,46.327790709008696,47.1199370000104,47.111793125019176,47.11250412501977,47.1199370000104,47.1199370000104,57.28610987501452,g,1.0,10.161576707992936,,,,,,,,,,,,,,,,,,,,,,,,,,,,,,,,,,,,,,,,sub-202,1,stroop_test,120.38529313542116,
test,red,r,1.0,2.0,2.0,0.0,r,1.0,2.8681703750044107,,,,,,,,,,,,,,,,,,0.0,2.0,2.0,0.0,,,,,,,,,57.311006625008304,,,,,,,,,,,,,,,,,57.286520791996736,58.0847345420043,58.88676983400365,58.87857525001164,58.87925416699727,58.88676983400365,58.88676983400365,61.7635695420031,r,1.0,2.8681703750044107,,,,,,,,,,,,,,,,,,,,,,,,,,,,,,,,,,,,,,,,sub-202,1,stroop_test,120.38529313542116,
test,blue,b,1.0,3.0,0.0,1.0,b,1.0,0.8329483749985229,,,,,,,,,,,,,,,,,,1.0,0.0,3.0,2.0,,,,,,,,,61.772556959011126,,,,,,,,,,,,,,,,,61.76405208400684,62.11141508401488,62.90290320900385,62.89542791701388,62.89609041702352,62.90290320900385,62.90290320900385,63.74687787500443,b,1.0,0.8329483749985229,,,,,,,,,,,,,,,,,,,,,,,,,,,,,,,,,,,,,,,,sub-202,1,stroop_test,120.38529313542116,
test,red,r,1.0,4.0,1.0,1.0,r,1.0,0.9978427499881946,,,,,,,,,,,,,,,,,,1.0,1.0,4.0,0.0,,,,,,,,,63.7562405000208,,,,,,,,,,,,,,,,,63.74736275000032,63.84484779200284,64.63619141699746,64.62857045899727,64.62922437500674,64.63619141699746,64.63619141699746,65.63796487500076,r,1.0,0.9978427499881946,,,,,,,,,,,,,,,,,,,,,,,,,,,,,,,,,,,,,,,,sub-202,1,stroop_test,120.38529313542116,
test,yellow,g,1.0,5.0,2.0,1.0,g,1.0,0.6685054170084186,,,,,,,,,,,,,,,,,,1.0,2.0,5.0,1.0,,,,,,,,,65.64717616699636,,,,,,,,,,,,,,,,,65.63837062500534,66.8344550000038,67.62772320900694,67.61806420900393,67.61873466701945,67.62772320900694,67.62772320900694,68.30230641699745,g,1.0,0.6685054170084186,,,,,,,,,,,,,,,,,,,,,,,,,,,,,,,,,,,,,,,,sub-202,1,stroop_test,120.38529313542116,
test,yellow,g,1.0,6.0,0.0,2.0,g,1.0,0.820805166993523,,,,,,,,,,,,,,,,,,2.0,0.0,6.0,1.0,,,,,,,,,68.31119762500748,,,,,,,,,,,,,,,,,68.30268416702165,68.65174112500972,69.45341562500107,69.4454882919963,69.44613104200107,69.45341562500107,69.45341562500107,70.28012387501076,g,1.0,0.820805166993523,,,,,,,,,,,,,,,,,,,,,,,,,,,,,,,,,,,,,,,,sub-202,1,stroop_test,120.38529313542116,
test,red,r,1.0,7.0,1.0,2.0,r,1.0,0.6091079170000739,,,,,,,,,,,,,,,,,,2.0,1.0,7.0,0.0,,,,,,,,,70.28926445901743,,,,,,,,,,,,,,,,,70.28052570900763,70.62834774999646,71.42030225001508,71.41221683399635,71.41284462501062,71.42030225001508,71.42030225001508,72.03643283402198,r,1.0,0.6091079170000739,,,,,,,,,,,,,,,,,,,,,,,,,,,,,,,,,,,,,,,,sub-202,1,stroop_test,120.38529313542116,
test,blue,b,1.0,8.0,2.0,2.0,b,1.0,1.34469408300356,,,,,,,,,,,,,,,,,,2.0,2.0,8.0,2.0,,,,,,,,,72.06139033401269,,,,,,,,,,,,,,,,,72.03681466702255,72.8349197920179,73.63673079200089,73.62888445900171,73.62951841700124,73.63673079200089,73.63673079200089,74.98627154200221,b,1.0,1.34469408300356,,,,,,,,,,,,,,,,,,,,,,,,,,,,,,,,,,,,,,,,sub-202,1,stroop_test,120.38529313542116,
test,blue,b,1.0,9.0,0.0,3.0,b,1.0,0.5577558750228491,,,,,,,,,,,,,,,,,,3.0,0.0,9.0,2.0,,,,,,,,,74.99491649999982,,,,,,,,,,,,,,,,,74.98664575000294,75.33521116699558,76.1375620420149,76.12898041700828,76.12961212501978,76.1375620420149,76.1375620420149,76.6979154169967,b,1.0,0.5577558750228491,,,,,,,,,,,,,,,,,,,,,,,,,,,,,,,,,,,,,,,,sub-202,1,stroop_test,120.38529313542116,
test,red,r,1.0,10.0,1.0,3.0,r,1.0,0.6510580829926766,,,,,,,,,,,,,,,,,,3.0,1.0,10.0,0.0,,,,,,,,,76.70761129201856,,,,,,,,,,,,,,,,,76.69844812501105,76.7950954590051,77.58695604201057,77.5790962089959,77.57972695899662,77.58695604201057,77.58695604201057,78.24695054200129,r,1.0,0.6510580829926766,,,,,,,,,,,,,,,,,,,,,,,,,,,,,,,,,,,,,,,,sub-202,1,stroop_test,120.38529313542116,
test,yellow,g,1.0,11.0,2.0,3.0,g,1.0,0.5547680410090834,,,,,,,,,,,,,,,,,,3.0,2.0,11.0,1.0,,,,,,,,,78.25602891700692,,,,,,,,,,,,,,,,,78.24738174999948,78.5949482920114,79.38710866699694,79.37910879199626,79.37975350001943,79.38710866699694,79.38710866699694,79.94718470901717,g,1.0,0.5547680410090834,,,,,,,,,,,,,,,,,,,,,,,,,,,,,,,,,,,,,,,,sub-202,1,stroop_test,120.38529313542116,
,,,,,,,,,,,,,,,,,,,,,,,,,,,,,,,,,,,,,,,,,,,,,,,,,,,,,,,,,,,,,,,,,,,,79.94740145900869,79.95795654199901,79.95795654199901,92.46981033400516,space,12.509424709016455,,,,,,,,,,,,,,,,,,,,,,,,,,,,,,,,,sub-202,1,stroop_test,120.38529313542116,
,,,,0.0,0.0,0.0,,,,,blau,blue,b,1.0,b,1.0,0.6503182910091709,,,,,,,,,,,,,,0.0,0.0,0.0,6.0,,,,,92.49250508399564,,,,,,,,,,,,,,,,,92.48359275000983,92.81858120902324,93.6156713340024,93.60264333401574,,,,,,,,,,,,,,,,93.60876445900068,93.6156713340024,93.6156713340024,94.27101600001332,b,1.0,0.6503182910091709,,94.27787600000738,94.28829616701114,95.27921829200932,,,,,,,,,,,,,,,,,,,,,sub-202,1,stroop_test,120.38529313542116,
,,,,1.0,1.0,0.0,,,,,gelb,red,r,0.0,r,1.0,1.1476158750010654,,,,,,,,,,,,,,0.0,1.0,1.0,8.0,,,,,95.28550825000276,,,,,,,,,,,,,,,,,95.2798242919962,96.46870466700057,97.27567100001032,97.26333570902352,,,,,,,,,,,,,,,,97.26837770899874,97.27567100001032,97.27567100001032,98.43095025001094,r,1.0,1.1476158750010654,,98.43152720900252,98.44194858401896,99.42964691700764,99.43554791700444,,,,,,,,,,,,,,,,,,,,sub-202,1,stroop_test,120.38529313542116,
,,,,2.0,2.0,0.0,,,,,rot,red,r,1.0,r,1.0,0.4602933330170344,,,,,,,,,,,,,,0.0,2.0,2.0,0.0,,,,,99.43554791700444,,,,,,,,,,,,,,,,,99.43009683399578,99.52917100000197,100.32536145902122,100.31298654200508,,,,,,,,,,,,,,,,100.31800495900096,100.32536145902122,100.32536145902122,100.78804945902084,r,1.0,0.4602933330170344,,100.78860525001072,100.800715667021,101.784823916998,101.7958572920179,,,,,,,,,,,,,,,,,,,,sub-202,1,stroop_test,120.38529313542116,
,,,,3.0,3.0,0.0,,,,,rot,yellow,g,0.0,g,1.0,0.3691147080098744,,,,,,,,,,,,,,0.0,3.0,3.0,3.0,,,,,101.7958572920179,,,,,,,,,,,,,,,,,101.7852640839992,102.1359397089982,102.92868216699571,102.91904133401113,,,,,,,,,,,,,,,,102.91973045901976,102.92868216699571,102.92868216699571,103.30488095901092,g,1.0,0.3691147080098744,,103.30560170899844,103.3179358750058,104.30332412500866,104.3121439999959,,,,,,,,,,,,,,,,,,,,sub-202,1,stroop_test,120.38529313542116,
,,,,4.0,4.0,0.0,,,,,gelb,blue,b,0.0,b,1.0,0.3795011669863015,,,,,,,,,,,,,,0.0,4.0,4.0,9.0,,,,,104.3121439999959,,,,,,,,,,,,,,,,,104.30379491701024,105.50236320900147,106.30743279200397,106.29645866699866,,,,,,,,,,,,,,,,106.3000559170032,106.30743279200397,106.30743279200397,106.69761845900211,b,1.0,0.3795011669863015,,106.69818741700146,106.70812466699864,107.69670637501986,107.70239937500446,,,,,,,,,,,,,,,,,,,,sub-202,1,stroop_test,120.38529313542116,
,,,,5.0,5.0,0.0,,,,,blau,red,r,0.0,r,1.0,0.7014044160023332,,,,,,,,,,,,,,0.0,5.0,5.0,4.0,,,,,107.70239937500446,,,,,,,,,,,,,,,,,107.6972397089994,108.89589970902308,109.69087866699556,109.67988875001902,,,,,,,,,,,,,,,,109.68378008401488,109.69087866699556,109.69087866699556,110.39809483400312,r,1.0,0.7014044160023332,,110.39905012500822,110.4101233750116,111.3968367500056,111.40282808401388,,,,,,,,,,,,,,,,,,,,sub-202,1,stroop_test,120.38529313542116,
,,,,6.0,6.0,0.0,,,,,rot,red,r,1.0,r,1.0,0.4490422079979907,,,,,,,,,,,,,,0.0,6.0,6.0,1.0,,,,,111.40282808401388,,,,,,,,,,,,,,,,,111.3973349170119,112.5960077920172,113.39124729202013,113.37987566701486,,,,,,,,,,,,,,,,113.38369579199934,113.39124729202013,113.39124729202013,113.84776316699572,r,1.0,0.4490422079979907,,113.84833520901157,113.85870829201303,114.8466562090034,114.85259616700932,,,,,,,,,,,,,,,,,,,,sub-202,1,stroop_test,120.38529313542116,
,,,,7.0,7.0,0.0,,,,,blau,yellow,g,0.0,g,1.0,0.7659381249977741,,,,,,,,,,,,,,0.0,7.0,7.0,7.0,,,,,114.85259616700932,,,,,,,,,,,,,,,,,114.84711095900276,114.94612320899614,115.7415811670071,115.7298931250116,,,,,,,,,,,,,,,,115.7344030420063,115.7415811670071,115.7415811670071,116.5149712919956,g,1.0,0.7659381249977741,,116.51569454200217,116.52603087501484,117.51342195901088,117.5191972500179,,,,,,,,,,,,,,,,,,,,sub-202,1,stroop_test,120.38529313542116,
,,,,8.0,8.0,0.0,,,,,gelb,yellow,g,1.0,g,1.0,0.5949044589942787,,,,,,,,,,,,,,0.0,8.0,8.0,10.0,,,,,117.5191972500179,,,,,,,,,,,,,,,,,117.51386945901322,118.31281995901372,119.10863425000572,119.0968896250124,,,,,,,,,,,,,,,,119.10149366699623,119.10863425000572,119.10863425000572,119.714901542,g,1.0,0.5949044589942787,,119.71556100001908,119.72600704201614,120.71355770900846,120.71996837502228,,,,,,,,,,,,,,,,,,,,sub-202,1,stroop_test,120.38529313542116,
,,,,9.0,9.0,0.0,,,,,gelb,yellow,g,1.0,g,1.0,0.5648125000006985,,,,,,,,,,,,,,0.0,9.0,9.0,11.0,,,,,120.71996837502228,,,,,,,,,,,,,,,,,120.71416983401286,121.9125978340162,122.7048548750172,122.69693391700277,,,,,,,,,,,,,,,,122.69757041701814,122.7048548750172,122.7048548750172,123.27233900001738,g,1.0,0.5648125000006985,,123.27298129201516,123.28476120901178,124.27071974999852,124.27923512499548,,,,,,,,,,,,,,,,,,,,sub-202,1,stroop_test,120.38529313542116,
,,,,10.0,10.0,0.0,,,,,rot,blue,b,0.0,b,1.0,1.2075252909853589,,,,,,,,,,,,,,0.0,10.0,10.0,2.0,,,,,124.27923512499548,,,,,,,,,,,,,,,,,124.27117708401056,125.46968224999728,126.2749337500136,126.26367591699818,,,,,,,,,,,,,,,,126.26750591699964,126.2749337500136,126.2749337500136,127.48725345899584,b,1.0,1.2075252909853589,,127.48780850000912,127.4981370420137,128.48583316701115,128.49645541701466,,,,,,,,,,,,,,,,,,,,sub-202,1,stroop_test,120.38529313542116,
,,,,11.0,11.0,0.0,,,,,blau,blue,b,1.0,b,1.0,0.394137084018439,,,,,,,,,,,,,,0.0,11.0,11.0,5.0,,,,,128.49645541701466,,,,,,,,,,,,,,,,,128.4862835840031,129.2868656250066,130.0967159169959,130.07024758402258,,,,,,,,,,,,,,,,130.07355283401557,130.0967159169959,130.0967159169959,130.4985895419959,b,1.0,0.394137084018439,,130.4991641670058,130.50945645899628,131.497060624999,131.50286883400986,,,,,,,,,,,,,,,,,,,,sub-202,1,stroop_test,120.38529313542116,
,,,,12.0,0.0,1.0,,,,,gelb,yellow,g,1.0,g,1.0,0.704352792003192,,,,,,,,,,,,,,1.0,0.0,12.0,11.0,,,,,131.50286883400986,,,,,,,,,,,,,,,,,131.4975367920124,131.59648895901046,132.39240362501005,132.3805263749964,,,,,,,,,,,,,,,,132.38495295902248,132.39240362501005,132.39240362501005,133.0992405420111,g,1.0,0.704352792003192,,133.09995504200924,133.11041504199966,134.0971672500018,134.10260691700387,,,,,,,,,,,,,,,,,,,,sub-202,1,stroop_test,120.38529313542116,
,,,,13.0,1.0,1.0,,,,,rot,red,r,1.0,r,1.0,0.5253712499979883,,,,,,,,,,,,,,1.0,1.0,13.0,0.0,,,,,134.10260691700387,,,,,,,,,,,,,,,,,134.09760558401467,134.19689275001292,134.99129204201745,134.98055220901733,,,,,,,,,,,,,,,,134.98387950001052,134.99129204201745,134.99129204201745,135.52105129201664,r,1.0,0.5253712499979883,,135.52160224999534,135.53233720900607,136.51929429199663,136.52995358401677,,,,,,,,,,,,,,,,,,,,sub-202,1,stroop_test,120.38529313542116,
,,,,14.0,2.0,1.0,,,,,rot,yellow,g,0.0,g,1.0,0.7030900829995517,,,,,,,,,,,,,,1.0,2.0,14.0,3.0,,,,,136.52995358401677,,,,,,,,,,,,,,,,,136.51974012501887,137.319815750001,138.12157270900207,138.11383845901582,,,,,,,,,,,,,,,,138.114497750008,138.12157270900207,138.12157270900207,138.83171525000944,g,1.0,0.7030900829995517,,138.83229008401395,138.8426480840135,139.83061345899478,139.83643975001178,,,,,,,,,,,,,,,,,,,,sub-202,1,stroop_test,120.38529313542116,
,,,,15.0,3.0,1.0,,,,,rot,red,r,1.0,r,1.0,0.533175124990521,,,,,,,,,,,,,,1.0,3.0,15.0,1.0,,,,,139.83643975001178,,,,,,,,,,,,,,,,,139.83107795901014,139.93004016700434,140.72165095902164,140.7139653339982,,,,,,,,,,,,,,,,140.7146072500036,140.72165095902164,140.72165095902164,141.26511983401724,r,1.0,0.533175124990521,,141.2656965420174,141.27592983399518,142.26397045899648,142.26978645901545,,,,,,,,,,,,,,,,,,,,sub-202,1,stroop_test,120.38529313542116,
,,,,16.0,4.0,1.0,,,,,blau,blue,b,1.0,b,1.0,0.5335260419815313,,,,,,,,,,,,,,1.0,4.0,16.0,6.0,,,,,142.26978645901545,,,,,,,,,,,,,,,,,142.26442987500923,142.3631610420125,143.1582599170215,143.14723200001754,,,,,,,,,,,,,,,,143.15105187500012,143.1582599170215,143.1582599170215,143.69890200000373,b,1.0,0.5335260419815313,,143.69959541701246,143.709481124999,144.69742695899913,144.70331804201123,,,,,,,,,,,,,,,,,,,,sub-202,1,stroop_test,120.38529313542116,
,,,,17.0,5.0,1.0,,,,,blau,yellow,g,0.0,g,1.0,0.8939860409882385,,,,,,,,,,,,,,1.0,5.0,17.0,7.0,,,,,144.70331804201123,,,,,,,,,,,,,,,,,144.69788362502004,144.7968232090061,145.58877870900324,145.5807344590139,,,,,,,,,,,,,,,,145.58138679200783,145.58877870900324,145.58877870900324,146.4871406670136,g,1.0,0.8939860409882385,,146.4876853750029,146.49887354200473,147.48658695901395,147.49685354201938,,,,,,,,,,,,,,,,,,,,sub-202,1,stroop_test,120.38529313542116,
,,,,18.0,6.0,1.0,,,,,blau,blue,b,1.0,b,1.0,0.5612841669935733,,,,,,,,,,,,,,1.0,6.0,18.0,5.0,,,,,147.49685354201938,,,,,,,,,,,,,,,,,147.4870517500094,147.58649445901392,148.3796950840042,148.36950920900563,,,,,,,,,,,,,,,,148.37013862500316,148.3796950840042,148.3796950840042,148.9489086670219,b,1.0,0.5612841669935733,,148.94946562501718,148.9597030840232,149.94743083399953,149.9531459590071,,,,,,,,,,,,,,,,,,,,sub-202,1,stroop_test,120.38529313542116,
,,,,19.0,7.0,1.0,,,,,rot,blue,b,0.0,b,1.0,0.8459718330122996,,,,,,,,,,,,,,1.0,7.0,19.0,2.0,,,,,149.9531459590071,,,,,,,,,,,,,,,,,149.94787629201892,150.7469803749991,151.54302766700857,151.5311900000088,,,,,,,,,,,,,,,,151.535565416998,151.54302766700857,151.54302766700857,152.39909279200947,b,1.0,0.8459718330122996,,152.39981400000397,152.41051279200474,153.39790625000023,153.40393220901024,,,,,,,,,,,,,,,,,,,,sub-202,1,stroop_test,120.38529313542116,
,,,,20.0,8.0,1.0,,,,,gelb,yellow,g,1.0,g,1.0,0.6273791249841452,,,,,,,,,,,,,,1.0,8.0,20.0,10.0,,,,,153.40393220901024,,,,,,,,,,,,,,,,,153.3984048750135,154.19718562500202,154.99293725000462,154.98094791700714,,,,,,,,,,,,,,,,154.98506183401332,154.99293725000462,154.99293725000462,155.62292483399506,g,1.0,0.6273791249841452,,155.62363966699922,155.63606491699466,156.62032795901175,156.63042170900735,,,,,,,,,,,,,,,,,,,,sub-202,1,stroop_test,120.38529313542116,
,,,,21.0,9.0,1.0,,,,,gelb,red,r,0.0,r,1.0,0.6463884169934317,,,,,,,,,,,,,,1.0,9.0,21.0,8.0,,,,,156.63042170900735,,,,,,,,,,,,,,,,,156.62078808402293,156.97032908399706,157.77304404199822,157.76463887499995,,,,,,,,,,,,,,,,157.76534287500544,157.77304404199822,157.77304404199822,158.42166829202324,r,1.0,0.6463884169934317,,158.42222862501512,158.43261683400488,159.41941487501026,159.4305358749989,,,,,,,,,,,,,,,,,,,,sub-202,1,stroop_test,120.38529313542116,
,,,,22.0,10.0,1.0,,,,,gelb,blue,b,0.0,b,1.0,0.5423198329808656,,,,,,,,,,,,,,1.0,10.0,22.0,9.0,,,,,159.4305358749989,,,,,,,,,,,,,,,,,159.4198410420213,160.22072245899471,161.0224190420122,161.01446541701443,,,,,,,,,,,,,,,,161.01510954200057,161.0224190420122,161.0224190420122,161.5774299170007,b,1.0,0.5423198329808656,,161.5780018340156,161.58467654199922,162.57038050002302,162.58061970901326,,,,,,,,,,,,,,,,,,,,sub-202,1,stroop_test,120.38529313542116,
,,,,23.0,11.0,1.0,,,,,blau,red,r,0.0,r,1.0,0.426234167010989,,,,,,,,,,,,,,1.0,11.0,23.0,4.0,,,,,162.58061970901326,,,,,,,,,,,,,,,,,162.57084629201563,162.6705433750176,163.48013350000838,163.45368700000108,,,,,,,,,,,,,,,,163.457285417011,163.48013350000838,163.48013350000838,163.91606499999762,r,1.0,0.426234167010989,,163.9167390000075,163.92677183399792,164.91455891702208,164.92224725001142,,,,,,,,,,,,,,,,,,,,sub-202,1,stroop_test,120.38529313542116,
,,,,,,,,,,,,,,,,,,,,,,,,,,,,,,,,,,,,,,,,,,,,,,,,,,,,,,,,,,,,,,,,,,,,,,,,,,,,,,,,,,,,,,,164.91473820901592,164.92224725001142,164.92224725001142,178.26652645901777,space,13.333720541995715,,,,,,,,,,,,,,sub-202,1,stroop_test,120.38529313542116,
,,,,0.0,0.0,0.0,,,,,,,,,,,,,rot,blue,b,0.0,b,1.0,0.6662422079825774,,,,,,,,,,0.0,0.0,0.0,2.0,178.28958599999896,,,,,,,,,,,,,,,,,178.28102608400513,178.61430612500408,179.4096809590119,179.39819725000416,,,,,,,,,,,,,,,,,,,,,,,,,,,,,,,,,,,179.40218400000597,179.4096809590119,179.4096809590119,180.08286783401854,b,1.0,0.6662422079825774,,,,,,sub-202,1,stroop_test,120.38529313542116,
,,,,1.0,1.0,0.0,,,,,,,,,,,,,gelb,yellow,g,1.0,g,1.0,0.5520748330163769,,,,,,,,,,0.0,1.0,1.0,10.0,180.09220954199554,,,,,,,,,,,,,,,,,180.08332987502217,180.4311133750016,181.2263452920015,181.2149366250087,,,,,,,,,,,,,,,,,,,,,,,,,,,,,,,,,,,181.21884612500435,181.2263452920015,181.2263452920015,181.78229875001125,g,1.0,0.5520748330163769,,,,,,sub-202,1,stroop_test,120.38529313542116,
,,,,2.0,2.0,0.0,,,,,,,,,,,,,rot,yellow,g,0.0,g,1.0,0.5551020419807173,,,,,,,,,,0.0,2.0,2.0,3.0,181.7915965419961,,,,,,,,,,,,,,,,,181.7827666250232,182.13111970899627,182.9264235419978,182.91509241700987,,,,,,,,,,,,,,,,,,,,,,,,,,,,,,,,,,,182.91914679200272,182.9264235419978,182.9264235419978,183.49355524999555,g,1.0,0.5551020419807173,,,,,,sub-202,1,stroop_test,120.38529313542116,
,,,,3.0,3.0,0.0,,,,,,,,,,,,,blau,yellow,g,0.0,g,1.0,0.5796288340061437,,,,,,,,,,0.0,3.0,3.0,7.0,183.49906541701057,,,,,,,,,,,,,,,,,183.4940297090216,183.58927616701112,184.392699042015,184.38180991701665,,,,,,,,,,,,,,,,,,,,,,,,,,,,,,,,,,,184.3853001670213,184.392699042015,184.392699042015,184.9834451250208,g,1.0,0.5796288340061437,,,,,,sub-202,1,stroop_test,120.38529313542116,
,,,,4.0,4.0,0.0,,,,,,,,,,,,,blau,red,r,0.0,r,1.0,0.6213087910145987,,,,,,,,,,0.0,4.0,4.0,4.0,184.992863417021,,,,,,,,,,,,,,,,,184.98398566700047,185.0804519999947,185.8730234170216,185.86508237500675,,,,,,,,,,,,,,,,,,,,,,,,,,,,,,,,,,,185.86572879200685,185.8730234170216,185.8730234170216,186.4998567500152,r,1.0,0.6213087910145987,,,,,,sub-202,1,stroop_test,120.38529313542116,
,,,,5.0,5.0,0.0,,,,,,,,,,,,,gelb,blue,b,0.0,b,1.0,0.5050610839971341,,,,,,,,,,0.0,5.0,5.0,9.0,186.50947866702336,,,,,,,,,,,,,,,,,186.50041233401865,187.29790491700987,188.0928017090191,188.0817392500176,,,,,,,,,,,,,,,,,,,,,,,,,,,,,,,,,,,188.0855375000101,188.0928017090191,188.0928017090191,188.6003404170042,b,1.0,0.5050610839971341,,,,,,sub-202,1,stroop_test,120.38529313542116,
,,,,6.0,6.0,0.0,,,,,,,,,,,,,blau,blue,b,1.0,b,1.0,0.4958063749945722,,,,,,,,,,0.0,6.0,6.0,5.0,188.60961570902143,,,,,,,,,,,,,,,,,188.60080058401215,189.7978727919981,190.5930021670065,190.58196804201,,,,,,,,,,,,,,,,,,,,,,,,,,,,,,,,,,,190.58613558401703,190.5930021670065,190.5930021670065,191.0998063340085,b,1.0,0.4958063749945722,,,,,,sub-202,1,stroop_test,120.38529313542116,
,,,,7.0,7.0,0.0,,,,,,,,,,,,,rot,red,r,1.0,r,1.0,0.494623499980662,,,,,,,,,,0.0,7.0,7.0,1.0,191.10932545902324,,,,,,,,,,,,,,,,,191.1003490420117,191.8980120840133,192.69438558400725,192.6820149999985,,,,,,,,,,,,,,,,,,,,,,,,,,,,,,,,,,,192.6868218750169,192.69438558400725,192.69438558400725,193.2002305840142,r,1.0,0.494623499980662,,,,,,sub-202,1,stroop_test,120.38529313542116,
,,,,8.0,8.0,0.0,,,,,,,,,,,,,gelb,red,r,0.0,r,1.0,0.4956858750083484,,,,,,,,,,0.0,8.0,8.0,8.0,193.21036825000192,,,,,,,,,,,,,,,,,193.2009670420084,193.5480651250109,194.34398183401208,194.332215041999,,,,,,,,,,,,,,,,,,,,,,,,,,,,,,,,,,,194.3362564590061,194.34398183401208,194.34398183401208,194.8499723749992,r,1.0,0.4956858750083484,,,,,,sub-202,1,stroop_test,120.38529313542116,
,,,,9.0,9.0,0.0,,,,,,,,,,,,,rot,red,r,1.0,r,1.0,0.573274374997709,,,,,,,,,,0.0,9.0,9.0,0.0,194.8596334170143,,,,,,,,,,,,,,,,,194.8505140840134,194.94750604202272,195.74322091700745,195.73192908399503,,,,,,,,,,,,,,,,,,,,,,,,,,,,,,,,,,,195.73571300000185,195.74322091700745,195.74322091700745,196.3238116670109,r,1.0,0.573274374997709,,,,,,sub-202,1,stroop_test,120.38529313542116,
,,,,10.0,10.0,0.0,,,,,,,,,,,,,gelb,yellow,g,1.0,g,1.0,0.4046861669921782,,,,,,,,,,0.0,10.0,10.0,11.0,196.333572042,,,,,,,,,,,,,,,,,196.3243775420124,197.52068483401672,198.3139556670212,198.3037360839953,,,,,,,,,,,,,,,,,,,,,,,,,,,,,,,,,,,198.306773874996,198.3139556670212,198.3139556670212,198.72276175001755,g,1.0,0.4046861669921782,,,,,,sub-202,1,stroop_test,120.38529313542116,
,,,,11.0,11.0,0.0,,,,,,,,,,,,,blau,blue,b,1.0,b,1.0,0.4633467080129776,,,,,,,,,,0.0,11.0,11.0,6.0,198.7478108340001,,,,,,,,,,,,,,,,,198.7231803750037,199.07116308400876,199.8644239590212,199.85409804200756,,,,,,,,,,,,,,,,,,,,,,,,,,,,,,,,,,,199.85747716701007,199.8644239590212,199.8644239590212,200.33342454201195,b,1.0,0.4633467080129776,,,,,,sub-202,1,stroop_test,120.38529313542116,
,,,,12.0,0.0,1.0,,,,,,,,,,,,,blau,blue,b,1.0,b,1.0,0.3653623749851249,,,,,,,,,,1.0,0.0,12.0,5.0,200.3427170420182,,,,,,,,,,,,,,,,,200.3339562920155,200.6812655420217,201.47344425000483,201.46541416700347,,,,,,,,,,,,,,,,,,,,,,,,,,,,,,,,,,,201.4660525840009,201.47344425000483,201.47344425000483,201.84999979200077,b,1.0,0.3653623749851249,,,,,,sub-202,1,stroop_test,120.38529313542116,
,,,,13.0,1.0,1.0,,,,,,,,,,,,,rot,yellow,g,0.0,g,1.0,1.4460989159997553,,,,,,,,,,1.0,1.0,13.0,3.0,201.85935666700243,,,,,,,,,,,,,,,,,201.85047475001195,202.1982314170164,202.99336387502265,202.98225504200676,,,,,,,,,,,,,,,,,,,,,,,,,,,,,,,,,,,202.9859472090029,202.99336387502265,202.99336387502265,204.45053733402165,g,1.0,1.4460989159997553,,,,,,sub-202,1,stroop_test,120.38529313542116,
,,,,14.0,2.0,1.0,,,,,,,,,,,,,rot,red,r,1.0,r,1.0,0.6788192089879885,,,,,,,,,,1.0,2.0,14.0,1.0,204.4597756669973,,,,,,,,,,,,,,,,,204.45115066700964,205.6480656250205,206.44055045899583,206.4326374999946,,,,,,,,,,,,,,,,,,,,,,,,,,,,,,,,,,,206.4333322920138,206.44055045899583,206.44055045899583,207.12344329201733,r,1.0,0.6788192089879885,,,,,,sub-202,1,stroop_test,120.38529313542116,
,,,,15.0,3.0,1.0,,,,,,,,,,,,,blau,red,r,0.0,r,1.0,0.6581210840085987,,,,,,,,,,1.0,3.0,15.0,4.0,207.13361037502185,,,,,,,,,,,,,,,,,207.12398729199776,207.47105633400497,208.26773683400825,208.25517470901832,,,,,,,,,,,,,,,,,,,,,,,,,,,,,,,,,,,208.259598167002,208.26773683400825,208.26773683400825,208.93383029202232,r,1.0,0.6581210840085987,,,,,,sub-202,1,stroop_test,120.38529313542116,
,,,,16.0,4.0,1.0,,,,,,,,,,,,,gelb,yellow,g,1.0,g,1.0,0.6212114160007332,,,,,,,,,,1.0,4.0,16.0,11.0,208.9434404170024,,,,,,,,,,,,,,,,,208.9342682090064,209.03160216700053,209.8277944170113,209.8161105420149,,,,,,,,,,,,,,,,,,,,,,,,,,,,,,,,,,,209.82041204199777,209.8277944170113,209.8277944170113,210.46094437502325,g,1.0,0.6212114160007332,,,,,,sub-202,1,stroop_test,120.38529313542116,
,,,,17.0,5.0,1.0,,,,,,,,,,,,,blau,yellow,g,0.0,g,1.0,0.4721322910045273,,,,,,,,,,1.0,5.0,17.0,7.0,210.46629829201265,,,,,,,,,,,,,,,,,210.46138958400115,210.804842750018,211.60070741700477,211.5890626250184,,,,,,,,,,,,,,,,,,,,,,,,,,,,,,,,,,,211.5927120000124,211.60070741700477,211.60070741700477,212.0842784590204,g,1.0,0.4721322910045273,,,,,,sub-202,1,stroop_test,120.38529313542116,
,,,,18.0,6.0,1.0,,,,,,,,,,,,,gelb,blue,b,0.0,b,1.0,0.5056362910254393,,,,,,,,,,1.0,6.0,18.0,9.0,212.09342725001625,,,,,,,,,,,,,,,,,212.08486520900624,213.2818176250148,214.07639975001803,214.0657197500113,,,,,,,,,,,,,,,,,,,,,,,,,,,,,,,,,,,214.0690431670228,214.07639975001803,214.07639975001803,214.5845433750073,b,1.0,0.5056362910254393,,,,,,sub-202,1,stroop_test,120.38529313542116,
,,,,19.0,7.0,1.0,,,,,,,,,,,,,rot,red,r,1.0,r,1.0,0.5320892089803237,,,,,,,,,,1.0,7.0,19.0,0.0,214.59383645901107,,,,,,,,,,,,,,,,,214.5851394170022,215.3817307090212,216.17692075000377,216.1656970840122,,,,,,,,,,,,,,,,,,,,,,,,,,,,,,,,,,,216.16939212501163,216.17692075000377,216.17692075000377,216.71714295900887,r,1.0,0.5320892089803237,,,,,,sub-202,1,stroop_test,120.38529313542116,
,,,,20.0,8.0,1.0,,,,,,,,,,,,,blau,blue,b,1.0,b,1.0,0.6572695829963777,,,,,,,,,,1.0,8.0,20.0,6.0,216.72666833401308,,,,,,,,,,,,,,,,,216.7176830840181,217.5152934170037,218.31016250001267,218.29912641699772,,,,,,,,,,,,,,,,,,,,,,,,,,,,,,,,,,,218.30298991702148,218.31016250001267,218.31016250001267,218.9728493340081,b,1.0,0.6572695829963777,,,,,,sub-202,1,stroop_test,120.38529313542116,
,,,,21.0,9.0,1.0,,,,,,,,,,,,,rot,blue,b,0.0,b,1.0,0.4784130409825593,,,,,,,,,,1.0,9.0,21.0,2.0,218.98224566702265,,,,,,,,,,,,,,,,,218.9732720000029,220.1723290420196,220.9768234170042,220.96582554202175,,,,,,,,,,,,,,,,,,,,,,,,,,,,,,,,,,,220.96942745900012,220.9768234170042,220.9768234170042,221.48281545902137,b,1.0,0.4784130409825593,,,,,,sub-202,1,stroop_test,120.38529313542116,
,,,,22.0,10.0,1.0,,,,,,,,,,,,,gelb,yellow,g,1.0,g,1.0,0.3946423750021495,,,,,,,,,,1.0,10.0,22.0,10.0,221.4986498340149,,,,,,,,,,,,,,,,,221.4833765840158,222.2715250000183,223.08157083400877,223.05493954199483,,,,,,,,,,,,,,,,,,,,,,,,,,,,,,,,,,,223.0590570839995,223.08157083400877,223.08157083400877,223.48435858401356,g,1.0,0.3946423750021495,,,,,,sub-202,1,stroop_test,120.38529313542116,
,,,,23.0,11.0,1.0,,,,,,,,,,,,,gelb,red,r,0.0,r,1.0,0.6535258750081994,,,,,,,,,,1.0,11.0,23.0,8.0,223.4939222499961,,,,,,,,,,,,,,,,,223.4849028750032,224.2820971670153,225.07343066702012,225.06595191700035,,,,,,,,,,,,,,,,,,,,,,,,,,,,,,,,,,,225.06659000000215,225.07343066702012,225.07343066702012,225.7343144170009,r,1.0,0.6535258750081994,,,,,,sub-202,1,stroop_test,120.38529313542116,
,,,,24.0,0.0,2.0,,,,,,,,,,,,,gelb,yellow,g,1.0,g,1.0,0.5854691250133328,,,,,,,,,,2.0,0.0,24.0,10.0,225.74354362502345,,,,,,,,,,,,,,,,,225.7347752500209,226.08216441702095,226.87360679201083,226.865944292018,,,,,,,,,,,,,,,,,,,,,,,,,,,,,,,,,,,226.86657650000416,226.87360679201083,226.87360679201083,227.4676425840007,g,1.0,0.5854691250133328,,,,,,sub-202,1,stroop_test,120.38529313542116,
,,,,25.0,1.0,2.0,,,,,,,,,,,,,gelb,red,r,0.0,r,1.0,0.5590570829808712,,,,,,,,,,2.0,1.0,25.0,8.0,227.47747145901667,,,,,,,,,,,,,,,,,227.46820699999807,228.2654642919952,229.0571492919989,229.04951754200735,,,,,,,,,,,,,,,,,,,,,,,,,,,,,,,,,,,229.0501372500148,229.0571492919989,229.0571492919989,229.62230595899743,r,1.0,0.5590570829808712,,,,,,sub-202,1,stroop_test,120.38529313542116,
,,,,26.0,2.0,2.0,,,,,,,,,,,,,blau,blue,b,1.0,b,1.0,0.6505240410042461,,,,,,,,,,2.0,2.0,26.0,5.0,229.6311053340032,,,,,,,,,,,,,,,,,229.62274304201128,229.72158445901005,230.53174225002292,230.504732292,,,,,,,,,,,,,,,,,,,,,,,,,,,,,,,,,,,230.5091173750116,230.53174225002292,230.53174225002292,231.18475883401695,b,1.0,0.6505240410042461,,,,,,sub-202,1,stroop_test,120.38529313542116,
,,,,27.0,3.0,2.0,,,,,,,,,,,,,rot,yellow,g,0.0,g,1.0,0.3953800829767715,,,,,,,,,,2.0,3.0,27.0,3.0,231.19403441701436,,,,,,,,,,,,,,,,,231.18524875000003,232.3822373750154,233.1775580420217,233.1661576250044,,,,,,,,,,,,,,,,,,,,,,,,,,,,,,,,,,,233.169998708996,233.1775580420217,233.1775580420217,233.58429724999587,g,1.0,0.3953800829767715,,,,,,sub-202,1,stroop_test,120.38529313542116,
,,,,28.0,4.0,2.0,,,,,,,,,,,,,gelb,yellow,g,1.0,g,1.0,0.4252462910080794,,,,,,,,,,2.0,4.0,28.0,11.0,233.5936563340074,,,,,,,,,,,,,,,,,233.58486000000264,234.38254266700824,235.17798720899737,235.1662295419956,,,,,,,,,,,,,,,,,,,,,,,,,,,,,,,,,,,235.17073612500096,235.17798720899737,235.17798720899737,235.6070157090144,g,1.0,0.4252462910080794,,,,,,sub-202,1,stroop_test,120.38529313542116,
,,,,29.0,5.0,2.0,,,,,,,,,,,,,blau,blue,b,1.0,b,1.0,0.5120217500079889,,,,,,,,,,2.0,5.0,29.0,6.0,235.63196620901,,,,,,,,,,,,,,,,,235.60744841699488,236.8054587090155,237.61006125001583,237.59951416699917,,,,,,,,,,,,,,,,,,,,,,,,,,,,,,,,,,,237.60288725001735,237.61006125001583,237.61006125001583,238.12415991700252,b,1.0,0.5120217500079889,,,,,,sub-202,1,stroop_test,120.38529313542116,
,,,,30.0,6.0,2.0,,,,,,,,,,,,,blau,red,r,0.0,r,1.0,0.6775198329996783,,,,,,,,,,2.0,6.0,30.0,4.0,238.1336595840112,,,,,,,,,,,,,,,,,238.12460120901235,238.4724743750121,239.2738357089984,239.26627787499456,,,,,,,,,,,,,,,,,,,,,,,,,,,,,,,,,,,239.2669248339953,239.2738357089984,239.2738357089984,239.956088417006,r,1.0,0.6775198329996783,,,,,,sub-202,1,stroop_test,120.38529313542116,
,,,,31.0,7.0,2.0,,,,,,,,,,,,,blau,yellow,g,0.0,g,1.0,0.5434048750030342,,,,,,,,,,2.0,7.0,31.0,7.0,239.9651826250192,,,,,,,,,,,,,,,,,239.9565137500176,240.7556935840112,241.55778408399783,241.5497406250215,,,,,,,,,,,,,,,,,,,,,,,,,,,,,,,,,,,241.5503780000145,241.55778408399783,241.55778408399783,242.10690162499668,g,1.0,0.5434048750030342,,,,,,sub-202,1,stroop_test,120.38529313542116,
,,,,32.0,8.0,2.0,,,,,,,,,,,,,gelb,blue,b,0.0,b,1.0,0.6421748329885304,,,,,,,,,,2.0,8.0,32.0,9.0,242.1319851250155,,,,,,,,,,,,,,,,,242.10733658401296,242.45542458401175,243.26064258400584,243.24966291702003,,,,,,,,,,,,,,,,,,,,,,,,,,,,,,,,,,,243.253437959007,243.26064258400584,243.26064258400584,243.90765091701175,b,1.0,0.6421748329885304,,,,,,sub-202,1,stroop_test,120.38529313542116,
,,,,33.0,9.0,2.0,,,,,,,,,,,,,rot,red,r,1.0,r,1.0,0.58094583399361,,,,,,,,,,2.0,9.0,33.0,0.0,243.9172387090221,,,,,,,,,,,,,,,,,243.9081870420196,244.2553437089955,245.05132858399884,245.03929204199807,,,,,,,,,,,,,,,,,,,,,,,,,,,,,,,,,,,245.04318512501777,245.05132858399884,245.05132858399884,245.6348403750162,r,1.0,0.58094583399361,,,,,,sub-202,1,stroop_test,120.38529313542116,
,,,,34.0,10.0,2.0,,,,,,,,,,,,,rot,blue,b,0.0,b,1.0,1.061706290987786,,,,,,,,,,2.0,10.0,34.0,2.0,245.64409170902215,,,,,,,,,,,,,,,,,245.6352877500176,245.73199166700945,246.5254117500153,246.5167970000184,,,,,,,,,,,,,,,,,,,,,,,,,,,,,,,,,,,246.5175857090217,246.5254117500153,246.5254117500153,247.59120466699824,b,1.0,1.061706290987786,,,,,,sub-202,1,stroop_test,120.38529313542116,
,,,,35.0,11.0,2.0,,,,,,,,,,,,,rot,red,r,1.0,r,1.0,0.9084552499989512,,,,,,,,,,2.0,11.0,35.0,1.0,247.60118483399856,,,,,,,,,,,,,,,,,247.5917462920188,247.69089570900545,248.4904820420197,248.48299975000555,,,,,,,,,,,,,,,,,,,,,,,,,,,,,,,,,,,248.48364308400775,248.4904820420197,248.4904820420197,249.40136700001312,r,1.0,0.9084552499989512,,,,,,sub-202,1,stroop_test,120.38529313542116,
,,,,36.0,0.0,3.0,,,,,,,,,,,,,rot,yellow,g,0.0,g,1.0,0.6483752909989562,,,,,,,,,,3.0,0.0,36.0,3.0,249.41073079200575,,,,,,,,,,,,,,,,,249.40186766700936,249.74938045901945,250.54162379199988,250.5330826670106,,,,,,,,,,,,,,,,,,,,,,,,,,,,,,,,,,,250.5337373750226,250.54162379199988,250.54162379199988,251.2013353750226,g,1.0,0.6483752909989562,,,,,,sub-202,1,stroop_test,120.38529313542116,
,,,,37.0,1.0,3.0,,,,,,,,,,,,,gelb,blue,b,0.0,b,1.0,0.4295529589871876,,,,,,,,,,3.0,1.0,37.0,9.0,251.2104599589948,,,,,,,,,,,,,,,,,251.2017825000221,252.3993160840182,253.19516216701595,253.1833724169992,,,,,,,,,,,,,,,,,,,,,,,,,,,,,,,,,,,253.18746887499583,253.19516216701595,253.19516216701595,253.63477716699708,b,1.0,0.4295529589871876,,,,,,sub-202,1,stroop_test,120.38529313542116,
,,,,38.0,2.0,3.0,,,,,,,,,,,,,rot,red,r,1.0,r,1.0,0.5483016670041252,,,,,,,,,,3.0,2.0,38.0,0.0,253.64424570900155,,,,,,,,,,,,,,,,,253.63533237500812,254.4328215419955,255.2288447089959,255.21680233400548,,,,,,,,,,,,,,,,,,,,,,,,,,,,,,,,,,,255.22133070899872,255.2288447089959,255.2288447089959,255.7848765420204,r,1.0,0.5483016670041252,,,,,,sub-202,1,stroop_test,120.38529313542116,
,,,,39.0,3.0,3.0,,,,,,,,,,,,,rot,red,r,1.0,r,1.0,0.4583213750156574,,,,,,,,,,3.0,3.0,39.0,1.0,255.7944186670065,,,,,,,,,,,,,,,,,255.78542575001484,256.9828002919967,257.7744477500092,257.76665266702184,,,,,,,,,,,,,,,,,,,,,,,,,,,,,,,,,,,257.76729550000164,257.7744477500092,257.7744477500092,258.2353102090128,r,1.0,0.4583213750156574,,,,,,sub-202,1,stroop_test,120.38529313542116,
,,,,40.0,4.0,3.0,,,,,,,,,,,,,blau,yellow,g,0.0,g,1.0,0.8180954160052352,,,,,,,,,,3.0,4.0,40.0,7.0,258.2445515420113,,,,,,,,,,,,,,,,,258.23576229199534,259.0329405000084,259.82770520899794,259.816781875008,,,,,,,,,,,,,,,,,,,,,,,,,,,,,,,,,,,259.8207009170146,259.82770520899794,259.82770520899794,260.65175345900934,g,1.0,0.8180954160052352,,,,,,sub-202,1,stroop_test,120.38529313542116,
,,,,41.0,5.0,3.0,,,,,,,,,,,,,rot,blue,b,0.0,b,1.0,0.7464334999967832,,,,,,,,,,3.0,5.0,41.0,2.0,260.66109999999753,,,,,,,,,,,,,,,,,260.65231512501487,260.9998122090183,261.79442545899656,261.78348062501755,,,,,,,,,,,,,,,,,,,,,,,,,,,,,,,,,,,261.78716704199906,261.79442545899656,261.79442545899656,262.5517636250006,b,1.0,0.7464334999967832,,,,,,sub-202,1,stroop_test,120.38529313542116,
,,,,42.0,6.0,3.0,,,,,,,,,,,,,blau,red,r,0.0,r,1.0,0.4972152920090593,,,,,,,,,,3.0,6.0,42.0,4.0,262.56098350000684,,,,,,,,,,,,,,,,,262.55220925001777,263.7495453750016,264.5444619590125,264.53356237499975,,,,,,,,,,,,,,,,,,,,,,,,,,,,,,,,,,,264.537324792007,264.5444619590125,264.5444619590125,265.05187566700624,r,1.0,0.4972152920090593,,,,,,sub-202,1,stroop_test,120.38529313542116,
,,,,43.0,7.0,3.0,,,,,,,,,,,,,gelb,red,r,0.0,r,1.0,0.6483686249994207,,,,,,,,,,3.0,7.0,43.0,8.0,265.06145125001785,,,,,,,,,,,,,,,,,265.0524257090001,265.84966825001175,266.6467235420132,266.6337369590183,,,,,,,,,,,,,,,,,,,,,,,,,,,,,,,,,,,266.63901954199537,266.6467235420132,266.6467235420132,267.30149574999814,r,1.0,0.6483686249994207,,,,,,sub-202,1,stroop_test,120.38529313542116,
,,,,44.0,8.0,3.0,,,,,,,,,,,,,blau,blue,b,1.0,b,1.0,0.5388560409774072,,,,,,,,,,3.0,8.0,44.0,6.0,267.31089429202257,,,,,,,,,,,,,,,,,267.30193475002307,267.649803584005,268.44438270901446,268.43352012502146,,,,,,,,,,,,,,,,,,,,,,,,,,,,,,,,,,,268.4372387090116,268.44438270901446,268.44438270901446,268.9857413750142,b,1.0,0.5388560409774072,,,,,,sub-202,1,stroop_test,120.38529313542116,
,,,,45.0,9.0,3.0,,,,,,,,,,,,,gelb,yellow,g,1.0,g,1.0,0.6090057500114199,,,,,,,,,,3.0,9.0,45.0,10.0,268.99477454202133,,,,,,,,,,,,,,,,,268.9861811250157,269.33316825001384,270.1283957090054,270.1170167500095,,,,,,,,,,,,,,,,,,,,,,,,,,,,,,,,,,,270.12086770901806,270.1283957090054,270.1283957090054,270.7410198750149,g,1.0,0.6090057500114199,,,,,,sub-202,1,stroop_test,120.38529313542116,
,,,,46.0,10.0,3.0,,,,,,,,,,,,,gelb,yellow,g,1.0,g,1.0,0.6333963749930263,,,,,,,,,,3.0,10.0,46.0,11.0,270.7661753749999,,,,,,,,,,,,,,,,,270.74144100002013,271.9400688339956,272.74149687500903,272.7336099999957,,,,,,,,,,,,,,,,,,,,,,,,,,,,,,,,,,,272.73425754200434,272.74149687500903,272.74149687500903,273.3851992090058,g,1.0,0.6333963749930263,,,,,,sub-202,1,stroop_test,120.38529313542116,
,,,,47.0,11.0,3.0,,,,,,,,,,,,,blau,blue,b,1.0,b,1.0,0.5617550000024494,,,,,,,,,,3.0,11.0,47.0,5.0,273.39493858400965,,,,,,,,,,,,,,,,,273.3857596250018,273.7331667499966,274.5278799170046,274.5172781670117,,,,,,,,,,,,,,,,,,,,,,,,,,,,,,,,,,,274.5206991250161,274.5278799170046,274.5278799170046,275.0920643340214,b,1.0,0.5617550000024494,,,,,,sub-202,1,stroop_test,120.38529313542116,
,,,,48.0,0.0,4.0,,,,,,,,,,,,,blau,red,r,0.0,r,1.0,0.7971399579837453,,,,,,,,,,4.0,0.0,48.0,4.0,275.1017030420189,,,,,,,,,,,,,,,,,275.09250241701375,276.28952141699847,277.0828135840129,277.0738575840078,,,,,,,,,,,,,,,,,,,,,,,,,,,,,,,,,,,277.07448120901245,277.0828135840129,277.0828135840129,277.88511470900266,r,1.0,0.7971399579837453,,,,,,sub-202,1,stroop_test,120.38529313542116,
,,,,49.0,1.0,4.0,,,,,,,,,,,,,gelb,red,r,0.0,r,1.0,0.463996499980567,,,,,,,,,,4.0,1.0,49.0,8.0,277.8941580420069,,,,,,,,,,,,,,,,,277.88558195900987,277.9832520420023,278.7827982089948,278.7708926250052,,,,,,,,,,,,,,,,,,,,,,,,,,,,,,,,,,,278.7743197499949,278.7827982089948,278.7827982089948,279.25179545901483,r,1.0,0.463996499980567,,,,,,sub-202,1,stroop_test,120.38529313542116,
,,,,50.0,2.0,4.0,,,,,,,,,,,,,gelb,yellow,g,1.0,g,1.0,0.7196706249960698,,,,,,,,,,4.0,2.0,50.0,11.0,279.2609055840003,,,,,,,,,,,,,,,,,279.252236750006,280.44983983400743,281.2420747090073,281.23390979200485,,,,,,,,,,,,,,,,,,,,,,,,,,,,,,,,,,,281.234558791999,281.2420747090073,281.2420747090073,281.968536875007,g,1.0,0.7196706249960698,,,,,,sub-202,1,stroop_test,120.38529313542116,
,,,,51.0,3.0,4.0,,,,,,,,,,,,,gelb,blue,b,0.0,b,1.0,0.5651586250169203,,,,,,,,,,4.0,3.0,51.0,9.0,281.97786583402194,,,,,,,,,,,,,,,,,281.9689756669977,282.76698304200545,283.5589815840067,283.550592042011,,,,,,,,,,,,,,,,,,,,,,,,,,,,,,,,,,,283.5513572090131,283.5589815840067,283.5589815840067,284.1352585419954,b,1.0,0.5651586250169203,,,,,,sub-202,1,stroop_test,120.38529313542116,
,,,,52.0,4.0,4.0,,,,,,,,,,,,,rot,blue,b,0.0,b,1.0,0.5998298749909736,,,,,,,,,,4.0,4.0,52.0,2.0,284.1444134589983,,,,,,,,,,,,,,,,,284.13581166701624,284.93350050001754,285.7282755839988,285.71730754201417,,,,,,,,,,,,,,,,,,,,,,,,,,,,,,,,,,,285.7209272090113,285.7282755839988,285.7282755839988,286.3355989170086,b,1.0,0.5998298749909736,,,,,,sub-202,1,stroop_test,120.38529313542116,
,,,,53.0,5.0,4.0,,,,,,,,,,,,,blau,yellow,g,0.0,g,1.0,0.6224215000111144,,,,,,,,,,4.0,5.0,53.0,7.0,286.344860000012,,,,,,,,,,,,,,,,,286.33603554201545,287.5333290840208,288.3287182500062,288.31742454200867,,,,,,,,,,,,,,,,,,,,,,,,,,,,,,,,,,,288.3214035840065,288.3287182500062,288.3287182500062,288.9578501670039,g,1.0,0.6224215000111144,,,,,,sub-202,1,stroop_test,120.38529313542116,
,,,,54.0,6.0,4.0,,,,,,,,,,,,,gelb,yellow,g,1.0,g,1.0,0.6079378330032341,,,,,,,,,,4.0,6.0,54.0,10.0,288.96670091702254,,,,,,,,,,,,,,,,,288.9582694590208,289.7563503750134,290.55003162499634,290.53948770900024,,,,,,,,,,,,,,,,,,,,,,,,,,,,,,,,,,,290.54330937500345,290.55003162499634,290.55003162499634,291.169897417014,g,1.0,0.6079378330032341,,,,,,sub-202,1,stroop_test,120.38529313542116,
,,,,55.0,7.0,4.0,,,,,,,,,,,,,rot,red,r,1.0,r,1.0,0.9012958339881152,,,,,,,,,,4.0,7.0,55.0,1.0,291.18341100000544,,,,,,,,,,,,,,,,,291.17033208400244,291.2672239590029,292.0617274999968,292.0507984170108,,,,,,,,,,,,,,,,,,,,,,,,,,,,,,,,,,,292.0545713340107,292.0617274999968,292.0617274999968,292.9687730000005,r,1.0,0.9012958339881152,,,,,,sub-202,1,stroop_test,120.38529313542116,
,,,,56.0,8.0,4.0,,,,,,,,,,,,,blau,blue,b,1.0,b,1.0,0.4039202079875394,,,,,,,,,,4.0,8.0,56.0,5.0,292.977941042016,,,,,,,,,,,,,,,,,292.9692107090086,294.1669875420048,294.96300291700754,294.9512422920088,,,,,,,,,,,,,,,,,,,,,,,,,,,,,,,,,,,294.95540129201254,294.96300291700754,294.96300291700754,295.3690490840236,b,1.0,0.4039202079875394,,,,,,sub-202,1,stroop_test,120.38529313542116,
,,,,57.0,9.0,4.0,,,,,,,,,,,,,rot,yellow,g,0.0,g,1.0,0.6334774589922745,,,,,,,,,,4.0,9.0,57.0,3.0,295.3783035420056,,,,,,,,,,,,,,,,,295.36948412499623,295.71705745899817,296.51152850000653,296.50081604201114,,,,,,,,,,,,,,,,,,,,,,,,,,,,,,,,,,,296.50413129202207,296.51152850000653,296.51152850000653,297.1525533749955,g,1.0,0.6334774589922745,,,,,,sub-202,1,stroop_test,120.38529313542116,
,,,,58.0,10.0,4.0,,,,,,,,,,,,,blau,blue,b,1.0,b,1.0,0.8064677499933168,,,,,,,,,,4.0,10.0,58.0,6.0,297.1625634999946,,,,,,,,,,,,,,,,,297.1531127920025,297.50037887500366,298.2952650420193,298.2842775419995,,,,,,,,,,,,,,,,,,,,,,,,,,,,,,,,,,,298.2880155000021,298.2952650420193,298.2952650420193,299.1081677500042,b,1.0,0.8064677499933168,,,,,,sub-202,1,stroop_test,120.38529313542116,
,,,,59.0,11.0,4.0,,,,,,,,,,,,,rot,red,r,1.0,r,1.0,0.5486559999990277,,,,,,,,,,4.0,11.0,59.0,0.0,299.1172638340213,,,,,,,,,,,,,,,,,299.1085862920154,300.3070580420026,301.1022129589983,301.0908610839979,,,,,,,,,,,,,,,,,,,,,,,,,,,,,,,,,,,301.09466204201453,301.1022129589983,301.1022129589983,301.65316879202146,r,1.0,0.5486559999990277,,,,,,sub-202,1,stroop_test,120.38529313542116,
,,,,60.0,0.0,5.0,,,,,,,,,,,,,gelb,red,r,0.0,r,1.0,0.5899171249766368,,,,,,,,,,5.0,0.0,60.0,8.0,301.66250491701066,,,,,,,,,,,,,,,,,301.6536815419968,302.00028666699654,302.79695925000124,302.78441554200253,,,,,,,,,,,,,,,,,,,,,,,,,,,,,,,,,,,302.7897898340016,302.79695925000124,302.79695925000124,303.39172033400973,r,1.0,0.5899171249766368,,,,,,sub-202,1,stroop_test,120.38529313542116,
,,,,61.0,1.0,5.0,,,,,,,,,,,,,blau,red,r,0.0,r,1.0,0.5891842500132043,,,,,,,,,,5.0,1.0,61.0,4.0,303.4168138340174,,,,,,,,,,,,,,,,,303.39214725000784,303.7404167500208,304.5500851670222,304.5242021669983,,,,,,,,,,,,,,,,,,,,,,,,,,,,,,,,,,,304.5276596250187,304.5500851670222,304.5500851670222,305.14230804200633,r,1.0,0.5891842500132043,,,,,,sub-202,1,stroop_test,120.38529313542116,
,,,,62.0,2.0,5.0,,,,,,,,,,,,,rot,blue,b,0.0,b,1.0,0.8108172079955693,,,,,,,,,,5.0,2.0,62.0,2.0,305.1525160000019,,,,,,,,,,,,,,,,,305.1427252920112,305.490992084,306.2950567500084,306.2843839999987,,,,,,,,,,,,,,,,,,,,,,,,,,,,,,,,,,,306.2877422090096,306.2950567500084,306.2950567500084,307.1094037500152,b,1.0,0.8108172079955693,,,,,,sub-202,1,stroop_test,120.38529313542116,
,,,,63.0,3.0,5.0,,,,,,,,,,,,,rot,yellow,g,0.0,g,1.0,0.8254955410084222,,,,,,,,,,5.0,3.0,63.0,3.0,307.1190920420049,,,,,,,,,,,,,,,,,307.109842875012,307.45697837500484,308.25885687500704,308.25114445900545,,,,,,,,,,,,,,,,,,,,,,,,,,,,,,,,,,,308.2518215420132,308.25885687500704,308.25885687500704,309.08693737501744,g,1.0,0.8254955410084222,,,,,,sub-202,1,stroop_test,120.38529313542116,
,,,,64.0,4.0,5.0,,,,,,,,,,,,,gelb,yellow,g,1.0,g,1.0,1.171242666983744,,,,,,,,,,5.0,4.0,64.0,10.0,309.0963121250097,,,,,,,,,,,,,,,,,309.08753912500106,309.8840828340035,310.6791680419992,310.6679728750023,,,,,,,,,,,,,,,,,,,,,,,,,,,,,,,,,,,310.67178129201056,310.6791680419992,310.6791680419992,311.85302337500616,g,1.0,1.171242666983744,,,,,,sub-202,1,stroop_test,120.38529313542116,
,,,,65.0,5.0,5.0,,,,,,,,,,,,,gelb,blue,b,0.0,b,1.0,0.6823111659905408,,,,,,,,,,5.0,5.0,65.0,9.0,311.86242566700093,,,,,,,,,,,,,,,,,311.85356654200586,312.65078008401906,313.4425148750015,313.4347598750028,,,,,,,,,,,,,,,,,,,,,,,,,,,,,,,,,,,313.43538758400246,313.4425148750015,313.4425148750015,314.1349716670229,b,1.0,0.6823111659905408,,,,,,sub-202,1,stroop_test,120.38529313542116,
,,,,66.0,6.0,5.0,,,,,,,,,,,,,rot,red,r,1.0,r,1.0,0.5206500840140507,,,,,,,,,,5.0,6.0,66.0,1.0,314.1442366670235,,,,,,,,,,,,,,,,,314.13539979202324,314.2259092089953,315.0302417089988,315.01832670901786,,,,,,,,,,,,,,,,,,,,,,,,,,,,,,,,,,,315.0224685840076,315.0302417089988,315.0302417089988,315.55348508400493,r,1.0,0.5206500840140507,,,,,,sub-202,1,stroop_test,120.38529313542116,
,,,,67.0,7.0,5.0,,,,,,,,,,,,,rot,red,r,1.0,r,1.0,0.5295062919904012,,,,,,,,,,5.0,7.0,67.0,0.0,315.56281445900095,,,,,,,,,,,,,,,,,315.55404304200783,316.3506035419996,317.14271579199703,317.13476787501713,,,,,,,,,,,,,,,,,,,,,,,,,,,,,,,,,,,317.1354080839956,317.14271579199703,317.14271579199703,317.6757018339995,r,1.0,0.5295062919904012,,,,,,sub-202,1,stroop_test,120.38529313542116,
,,,,68.0,8.0,5.0,,,,,,,,,,,,,gelb,yellow,g,1.0,g,1.0,0.866776042006677,,,,,,,,,,5.0,8.0,68.0,11.0,317.70039954199456,,,,,,,,,,,,,,,,,317.6761243340152,317.7743774590199,318.5838395419996,318.5577412090206,,,,,,,,,,,,,,,,,,,,,,,,,,,,,,,,,,,318.56118329201126,318.5838395419996,318.5838395419996,319.4531252500019,g,1.0,0.866776042006677,,,,,,sub-202,1,stroop_test,120.38529313542116,
,,,,69.0,9.0,5.0,,,,,,,,,,,,,blau,blue,b,1.0,b,1.0,0.5686532499967143,,,,,,,,,,5.0,9.0,69.0,5.0,319.4624078750203,,,,,,,,,,,,,,,,,319.4535582920071,320.65088166701025,321.4466316670005,321.4349292090046,,,,,,,,,,,,,,,,,,,,,,,,,,,,,,,,,,,321.4395454589976,321.4466316670005,321.4466316670005,322.0194826670049,b,1.0,0.5686532499967143,,,,,,sub-202,1,stroop_test,120.38529313542116,
,,,,70.0,10.0,5.0,,,,,,,,,,,,,blau,yellow,g,0.0,g,1.0,0.8583970839972608,,,,,,,,,,5.0,10.0,70.0,7.0,322.02874387500924,,,,,,,,,,,,,,,,,322.0199130420224,322.81766029199935,323.6098030419962,323.6017409170163,,,,,,,,,,,,,,,,,,,,,,,,,,,,,,,,,,,323.602432625019,323.6098030419962,323.6098030419962,324.4800796250056,g,1.0,0.8583970839972608,,,,,,sub-202,1,stroop_test,120.38529313542116,
,,,,71.0,11.0,5.0,,,,,,,,,,,,,blau,blue,b,1.0,b,1.0,0.4883106249908451,,,,,,,,,,5.0,11.0,71.0,6.0,324.4854442500218,,,,,,,,,,,,,,,,,324.48051966700586,324.5727658749965,325.3671291250212,325.3568210420199,,,,,,,,,,,,,,,,,,,,,,,,,,,,,,,,,,,325.35747533402173,325.3671291250212,325.3671291250212,325.8595290420053,b,1.0,0.4883106249908451,,,,,,sub-202,1,stroop_test,120.38529313542116,
,,,,72.0,0.0,6.0,,,,,,,,,,,,,blau,yellow,g,0.0,g,1.0,0.4193229580123443,,,,,,,,,,6.0,0.0,72.0,7.0,325.8695572090219,,,,,,,,,,,,,,,,,325.85997637500986,326.2065902090108,327.0005422499962,326.9904082920111,,,,,,,,,,,,,,,,,,,,,,,,,,,,,,,,,,,326.9910650420061,327.0005422499962,327.0005422499962,327.42504975001793,g,1.0,0.4193229580123443,,,,,,sub-202,1,stroop_test,120.38529313542116,
,,,,73.0,1.0,6.0,,,,,,,,,,,,,blau,blue,b,1.0,b,1.0,0.4175557920243591,,,,,,,,,,6.0,1.0,73.0,6.0,327.43480162500055,,,,,,,,,,,,,,,,,327.42559020902263,327.774545125023,328.5762272090069,328.56824875000166,,,,,,,,,,,,,,,,,,,,,,,,,,,,,,,,,,,328.56888087501284,328.5762272090069,328.5762272090069,329.0033947089978,b,1.0,0.4175557920243591,,,,,,sub-202,1,stroop_test,120.38529313542116,
,,,,74.0,2.0,6.0,,,,,,,,,,,,,gelb,yellow,g,1.0,g,1.0,0.4372262080141809,,,,,,,,,,6.0,2.0,74.0,11.0,329.012615167012,,,,,,,,,,,,,,,,,329.00393587502185,330.20095545900404,330.9975116249989,330.9854475000175,,,,,,,,,,,,,,,,,,,,,,,,,,,,,,,,,,,330.99004795899964,330.9975116249989,330.9975116249989,331.4372114590078,g,1.0,0.4372262080141809,,,,,,sub-202,1,stroop_test,120.38529313542116,
,,,,75.0,3.0,6.0,,,,,,,,,,,,,gelb,red,r,0.0,r,1.0,0.5635553330066614,,,,,,,,,,6.0,3.0,75.0,8.0,331.4465085840202,,,,,,,,,,,,,,,,,331.43767516702064,331.5339664590137,332.32612358400365,332.3185627089988,,,,,,,,,,,,,,,,,,,,,,,,,,,,,,,,,,,332.3191999590199,332.32612358400365,332.32612358400365,332.89337533400976,r,1.0,0.5635553330066614,,,,,,sub-202,1,stroop_test,120.38529313542116,
,,,,76.0,4.0,6.0,,,,,,,,,,,,,rot,red,r,1.0,r,1.0,0.623246958013624,,,,,,,,,,6.0,4.0,76.0,1.0,332.9032529590186,,,,,,,,,,,,,,,,,332.8939372090099,332.984015834023,333.77963554201415,333.7685541670071,,,,,,,,,,,,,,,,,,,,,,,,,,,,,,,,,,,333.772303500009,333.77963554201415,333.77963554201415,334.40936091702315,r,1.0,0.623246958013624,,,,,,sub-202,1,stroop_test,120.38529313542116,
,,,,77.0,5.0,6.0,,,,,,,,,,,,,gelb,blue,b,0.0,b,1.0,0.8650339999876451,,,,,,,,,,6.0,5.0,77.0,9.0,334.4343388749985,,,,,,,,,,,,,,,,,334.40978466701927,334.5068547500123,335.30360174999805,335.29181329201674,,,,,,,,,,,,,,,,,,,,,,,,,,,,,,,,,,,335.29596716701053,335.30360174999805,335.30360174999805,336.18059716699645,b,1.0,0.8650339999876451,,,,,,sub-202,1,stroop_test,120.38529313542116,
,,,,78.0,6.0,6.0,,,,,,,,,,,,,rot,blue,b,0.0,b,1.0,1.0916166249953676,,,,,,,,,,6.0,6.0,78.0,2.0,336.18596512501244,,,,,,,,,,,,,,,,,336.1810235840094,337.3745017500187,338.18106975001865,338.1688332920021,,,,,,,,,,,,,,,,,,,,,,,,,,,,,,,,,,,338.17335612501483,338.18106975001865,338.18106975001865,339.27617108399863,b,1.0,1.0916166249953676,,,,,,sub-202,1,stroop_test,120.38529313542116,
,,,,79.0,7.0,6.0,,,,,,,,,,,,,rot,red,r,1.0,r,1.0,0.6521923329855781,,,,,,,,,,6.0,7.0,79.0,0.0,339.3010297919973,,,,,,,,,,,,,,,,,339.27659070902155,339.62479387500207,340.41749725001864,340.4078819999995,,,,,,,,,,,,,,,,,,,,,,,,,,,,,,,,,,,340.4088310840016,340.41749725001864,340.41749725001864,341.0761774170096,r,1.0,0.6521923329855781,,,,,,sub-202,1,stroop_test,120.38529313542116,
,,,,80.0,8.0,6.0,,,,,,,,,,,,,gelb,yellow,g,1.0,g,1.0,0.6391858749848325,,,,,,,,,,6.0,8.0,80.0,10.0,341.10093479201896,,,,,,,,,,,,,,,,,341.07659520901507,341.1738436250016,341.98422466701595,341.95713537500706,,,,,,,,,,,,,,,,,,,,,,,,,,,,,,,,,,,341.96150179201504,341.98422466701595,341.98422466701595,342.6259291250026,g,1.0,0.6391858749848325,,,,,,sub-202,1,stroop_test,120.38529313542116,
,,,,81.0,9.0,6.0,,,,,,,,,,,,,blau,red,r,0.0,r,1.0,0.6075294580077752,,,,,,,,,,6.0,9.0,81.0,4.0,342.65109450000455,,,,,,,,,,,,,,,,,342.6263596670178,343.8250632499985,344.62922387500294,344.6186491670087,,,,,,,,,,,,,,,,,,,,,,,,,,,,,,,,,,,344.6221440840163,344.62922387500294,344.62922387500294,345.24314091700944,r,1.0,0.6075294580077752,,,,,,sub-202,1,stroop_test,120.38529313542116,
,,,,82.0,10.0,6.0,,,,,,,,,,,,,blau,blue,b,1.0,b,1.0,0.4192104170215316,,,,,,,,,,6.0,10.0,82.0,5.0,345.2530847089947,,,,,,,,,,,,,,,,,345.2436881250178,345.59166325000115,346.39388733400847,346.3856555840175,,,,,,,,,,,,,,,,,,,,,,,,,,,,,,,,,,,346.38634108399856,346.39388733400847,346.39388733400847,346.8203599170083,b,1.0,0.4192104170215316,,,,,,sub-202,1,stroop_test,120.38529313542116,
,,,,83.0,11.0,6.0,,,,,,,,,,,,,rot,yellow,g,0.0,g,1.0,0.546515084017301,,,,,,,,,,6.0,11.0,83.0,3.0,346.8298437500198,,,,,,,,,,,,,,,,,346.820905583998,347.6182445840095,348.4131211250205,348.4023545840173,,,,,,,,,,,,,,,,,,,,,,,,,,,,,,,,,,,348.40605250000954,348.4131211250205,348.4131211250205,348.97003354202025,g,1.0,0.546515084017301,,,,,,sub-202,1,stroop_test,120.38529313542116,
,,,,84.0,0.0,7.0,,,,,,,,,,,,,gelb,yellow,g,1.0,g,1.0,0.4670169579912908,,,,,,,,,,7.0,0.0,84.0,10.0,348.9793013340095,,,,,,,,,,,,,,,,,348.97047420899617,349.3182270840043,350.1142371669994,350.10230966701056,,,,,,,,,,,,,,,,,,,,,,,,,,,,,,,,,,,350.10650316701503,350.1142371669994,350.1142371669994,350.5871810000099,g,1.0,0.4670169579912908,,,,,,sub-202,1,stroop_test,120.38529313542116,
,,,,85.0,1.0,7.0,,,,,,,,,,,,,blau,red,r,0.0,r,1.0,0.5974971249816008,,,,,,,,,,7.0,1.0,85.0,4.0,350.59647737501655,,,,,,,,,,,,,,,,,350.5877253750223,350.68515516701154,351.479625500011,351.46896441699937,,,,,,,,,,,,,,,,,,,,,,,,,,,,,,,,,,,351.4724789590109,351.479625500011,351.479625500011,352.0871369590168,r,1.0,0.5974971249816008,,,,,,sub-202,1,stroop_test,120.38529313542116,
,,,,86.0,2.0,7.0,,,,,,,,,,,,,rot,red,r,1.0,r,1.0,0.6038842499838211,,,,,,,,,,7.0,2.0,86.0,0.0,352.09639054202125,,,,,,,,,,,,,,,,,352.0876785420114,352.4347795420035,353.23148704200867,353.2189400840143,,,,,,,,,,,,,,,,,,,,,,,,,,,,,,,,,,,353.22351350000827,353.23148704200867,353.23148704200867,353.8378932090127,r,1.0,0.6038842499838211,,,,,,sub-202,1,stroop_test,120.38529313542116,
,,,,87.0,3.0,7.0,,,,,,,,,,,,,rot,blue,b,0.0,b,1.0,0.7505631659878418,,,,,,,,,,7.0,3.0,87.0,2.0,353.8472564590047,,,,,,,,,,,,,,,,,353.8384412500018,353.93483591699624,354.7267893340031,354.71904541700496,,,,,,,,,,,,,,,,,,,,,,,,,,,,,,,,,,,354.7196749169961,354.7267893340031,354.7267893340031,355.4872202500119,b,1.0,0.7505631659878418,,,,,,sub-202,1,stroop_test,120.38529313542116,
,,,,88.0,4.0,7.0,,,,,,,,,,,,,blau,blue,b,1.0,b,1.0,0.6832692090247292,,,,,,,,,,7.0,4.0,88.0,6.0,355.4960935419949,,,,,,,,,,,,,,,,,355.4876540840196,356.6851240840042,357.48053275002167,357.46902175000287,,,,,,,,,,,,,,,,,,,,,,,,,,,,,,,,,,,357.4734140000073,357.48053275002167,357.48053275002167,358.1701677500096,b,1.0,0.6832692090247292,,,,,,sub-202,1,stroop_test,120.38529313542116,
,,,,89.0,5.0,7.0,,,,,,,,,,,,,gelb,yellow,g,1.0,g,1.0,0.6634948749851901,,,,,,,,,,7.0,5.0,89.0,11.0,358.17960150001454,,,,,,,,,,,,,,,,,358.1706012090144,358.26792958402075,359.0638175000204,359.0524420840084,,,,,,,,,,,,,,,,,,,,,,,,,,,,,,,,,,,359.0563227920211,359.0638175000204,359.0638175000204,359.7372130000149,g,1.0,0.6634948749851901,,,,,,sub-202,1,stroop_test,120.38529313542116,
,,,,90.0,6.0,7.0,,,,,,,,,,,,,blau,blue,b,1.0,b,1.0,0.8005964999902062,,,,,,,,,,7.0,6.0,90.0,5.0,359.74654095902224,,,,,,,,,,,,,,,,,359.7376978340035,360.535145834001,361.3314034590149,361.3190089999989,,,,,,,,,,,,,,,,,,,,,,,,,,,,,,,,,,,361.32388054201147,361.3314034590149,361.3314034590149,362.1373877500009,b,1.0,0.8005964999902062,,,,,,sub-202,1,stroop_test,120.38529313542116,
,,,,91.0,7.0,7.0,,,,,,,,,,,,,rot,red,r,1.0,r,1.0,0.6881885000038892,,,,,,,,,,7.0,7.0,91.0,1.0,362.1463278340234,,,,,,,,,,,,,,,,,362.1379296250234,362.9351555000176,363.73052112502046,363.71943545900285,,,,,,,,,,,,,,,,,,,,,,,,,,,,,,,,,,,363.7231296670216,363.73052112502046,363.73052112502046,364.4216322090069,r,1.0,0.6881885000038892,,,,,,sub-202,1,stroop_test,120.38529313542116,
,,,,92.0,8.0,7.0,,,,,,,,,,,,,rot,yellow,g,0.0,g,1.0,0.7751826249877922,,,,,,,,,,7.0,8.0,92.0,3.0,364.4313748340064,,,,,,,,,,,,,,,,,364.4221968339989,364.5185561670223,365.3105457500205,365.3025242919976,,,,,,,,,,,,,,,,,,,,,,,,,,,,,,,,,,,365.3031674170052,365.3105457500205,365.3105457500205,366.08828012499725,g,1.0,0.7751826249877922,,,,,,sub-202,1,stroop_test,120.38529313542116,
,,,,93.0,9.0,7.0,,,,,,,,,,,,,blau,yellow,g,0.0,g,1.0,0.671266374993138,,,,,,,,,,7.0,9.0,93.0,7.0,366.0978062089998,,,,,,,,,,,,,,,,,366.0888490000216,366.1852718750015,366.9805689170025,366.9691512090212,,,,,,,,,,,,,,,,,,,,,,,,,,,,,,,,,,,366.9730744590052,366.9805689170025,366.9805689170025,367.65432883400354,g,1.0,0.671266374993138,,,,,,sub-202,1,stroop_test,120.38529313542116,
,,,,94.0,10.0,7.0,,,,,,,,,,,,,gelb,red,r,0.0,r,1.0,0.9502266669878736,,,,,,,,,,7.0,10.0,94.0,8.0,367.6637730000075,,,,,,,,,,,,,,,,,367.6547625840176,368.85174275000463,369.64719958399655,369.6360229590209,,,,,,,,,,,,,,,,,,,,,,,,,,,,,,,,,,,369.6398989169975,369.64719958399655,369.64719958399655,370.6037280000164,r,1.0,0.9502266669878736,,,,,,sub-202,1,stroop_test,120.38529313542116,
,,,,95.0,11.0,7.0,,,,,,,,,,,,,gelb,blue,b,0.0,b,1.0,0.540068665985018,,,,,,,,,,7.0,11.0,95.0,9.0,370.6128875419963,,,,,,,,,,,,,,,,,370.6041729999997,370.9520860420016,371.7446523749968,371.7362818749971,,,,,,,,,,,,,,,,,,,,,,,,,,,,,,,,,,,371.7370610840153,371.7446523749968,371.7446523749968,372.28752491701744,b,1.0,0.540068665985018,,,,,,sub-202,1,stroop_test,120.38529313542116,
,,,,96.0,0.0,8.0,,,,,,,,,,,,,rot,yellow,g,0.0,g,1.0,0.8168557499884628,,,,,,,,,,8.0,0.0,96.0,3.0,372.2967591670167,,,,,,,,,,,,,,,,,372.2879808750004,373.4855072500068,374.282773709012,374.2693733340129,,,,,,,,,,,,,,,,,,,,,,,,,,,,,,,,,,,374.2751865420141,374.282773709012,374.282773709012,375.1035892090004,g,1.0,0.8168557499884628,,,,,,sub-202,1,stroop_test,120.38529313542116,
,,,,97.0,1.0,8.0,,,,,,,,,,,,,gelb,red,r,0.0,r,1.0,0.6060727919975761,,,,,,,,,,8.0,1.0,97.0,8.0,375.1126600840071,,,,,,,,,,,,,,,,,375.1040297090076,375.4522158750042,376.2471065840218,376.2360511670122,,,,,,,,,,,,,,,,,,,,,,,,,,,,,,,,,,,376.2398084590095,376.2471065840218,376.2471065840218,376.8646824590105,r,1.0,0.6060727919975761,,,,,,sub-202,1,stroop_test,120.38529313542116,
,,,,98.0,2.0,8.0,,,,,,,,,,,,,rot,blue,b,0.0,b,1.0,0.5384629579784814,,,,,,,,,,8.0,2.0,98.0,2.0,376.8707084170019,,,,,,,,,,,,,,,,,376.865127291996,377.2088265000202,378.0138467500219,378.0028703340213,,,,,,,,,,,,,,,,,,,,,,,,,,,,,,,,,,,378.0065845000208,378.0138467500219,378.0138467500219,378.5549694170186,b,1.0,0.5384629579784814,,,,,,sub-202,1,stroop_test,120.38529313542116,
,,,,99.0,3.0,8.0,,,,,,,,,,,,,blau,red,r,0.0,r,1.0,1.216202165989671,,,,,,,,,,8.0,3.0,99.0,4.0,378.564701958996,,,,,,,,,,,,,,,,,378.5555477089947,379.3523310419987,380.1474068750104,380.1361369590159,,,,,,,,,,,,,,,,,,,,,,,,,,,,,,,,,,,380.1400678750069,380.1474068750104,380.1474068750104,381.3709348340053,r,1.0,1.216202165989671,,,,,,sub-202,1,stroop_test,120.38529313542116,
,,,,100.0,4.0,8.0,,,,,,,,,,,,,blau,blue,b,1.0,b,1.0,0.6129950839967933,,,,,,,,,,8.0,4.0,100.0,6.0,381.38022195899975,,,,,,,,,,,,,,,,,381.371391334018,381.46895779200713,382.2603815839975,382.2528922500205,,,,,,,,,,,,,,,,,,,,,,,,,,,,,,,,,,,382.2534999170166,382.2603815839975,382.2603815839975,382.8769238750101,b,1.0,0.6129950839967933,,,,,,sub-202,1,stroop_test,120.38529313542116,
,,,,101.0,5.0,8.0,,,,,,,,,,,,,gelb,blue,b,0.0,b,1.0,1.0546460410114378,,,,,,,,,,8.0,5.0,101.0,9.0,382.8860012500081,,,,,,,,,,,,,,,,,382.8773530000181,382.97451324999565,383.7686735840107,383.7582868750033,,,,,,,,,,,,,,,,,,,,,,,,,,,,,,,,,,,383.7618372090219,383.7686735840107,383.7686735840107,384.8273890000128,b,1.0,1.0546460410114378,,,,,,sub-202,1,stroop_test,120.38529313542116,
,,,,102.0,6.0,8.0,,,,,,,,,,,,,blau,yellow,g,0.0,g,1.0,0.5200249589979649,,,,,,,,,,8.0,6.0,102.0,7.0,384.8379067500064,,,,,,,,,,,,,,,,,384.827936125017,385.6257449170225,386.4217027919949,386.4101034589985,,,,,,,,,,,,,,,,,,,,,,,,,,,,,,,,,,,386.4139595000015,386.4217027919949,386.4217027919949,386.9528683340177,g,1.0,0.5200249589979649,,,,,,sub-202,1,stroop_test,120.38529313542116,
,,,,103.0,7.0,8.0,,,,,,,,,,,,,gelb,yellow,g,1.0,g,1.0,0.6168229170143604,,,,,,,,,,8.0,7.0,103.0,10.0,386.9577149170218,,,,,,,,,,,,,,,,,386.9533388340205,388.1419665419962,388.9521227500227,388.9260685839981,,,,,,,,,,,,,,,,,,,,,,,,,,,,,,,,,,,388.92954370900407,388.9521227500227,388.9521227500227,389.5714195840119,g,1.0,0.6168229170143604,,,,,,sub-202,1,stroop_test,120.38529313542116,
,,,,104.0,8.0,8.0,,,,,,,,,,,,,rot,red,r,1.0,r,1.0,0.5476892500009853,,,,,,,,,,8.0,8.0,104.0,1.0,389.5807922499953,,,,,,,,,,,,,,,,,389.5718484999961,389.66944316701847,390.4653508750198,390.4533594170061,,,,,,,,,,,,,,,,,,,,,,,,,,,,,,,,,,,390.4580489170039,390.4653508750198,390.4653508750198,391.0214452500222,r,1.0,0.5476892500009853,,,,,,sub-202,1,stroop_test,120.38529313542116,
,,,,105.0,9.0,8.0,,,,,,,,,,,,,gelb,yellow,g,1.0,g,1.0,0.4769452079781331,,,,,,,,,,8.0,9.0,105.0,11.0,391.0308718339948,,,,,,,,,,,,,,,,,391.0218829590012,391.8192882090225,392.6158752090123,392.6031833750021,,,,,,,,,,,,,,,,,,,,,,,,,,,,,,,,,,,392.6081011250208,392.6158752090123,392.6158752090123,393.1048877090216,g,1.0,0.4769452079781331,,,,,,sub-202,1,stroop_test,120.38529313542116,
,,,,106.0,10.0,8.0,,,,,,,,,,,,,rot,red,r,1.0,r,1.0,0.5806615419860464,,,,,,,,,,8.0,10.0,106.0,0.0,393.1142035840021,,,,,,,,,,,,,,,,,393.1053299170162,393.20262033402105,393.9977310420072,393.9865597500175,,,,,,,,,,,,,,,,,,,,,,,,,,,,,,,,,,,393.99041225001565,393.9977310420072,393.9977310420072,394.58807600001455,r,1.0,0.5806615419860464,,,,,,sub-202,1,stroop_test,120.38529313542116,
,,,,107.0,11.0,8.0,,,,,,,,,,,,,blau,blue,b,1.0,b,1.0,0.5899908330175094,,,,,,,,,,8.0,11.0,107.0,5.0,394.5973739170004,,,,,,,,,,,,,,,,,394.58852733401,395.3859623339959,396.1810458340042,396.1699481670221,,,,,,,,,,,,,,,,,,,,,,,,,,,,,,,,,,,396.1735869999975,396.1810458340042,396.1810458340042,396.7770270839974,b,1.0,0.5899908330175094,,,,,,sub-202,1,stroop_test,120.38529313542116,
,,,,108.0,0.0,9.0,,,,,,,,,,,,,blau,blue,b,1.0,b,1.0,0.4508313330006785,,,,,,,,,,9.0,0.0,108.0,5.0,396.785950999998,,,,,,,,,,,,,,,,,396.77745695901103,397.5760523340141,398.3785922499956,398.3702094590117,,,,,,,,,,,,,,,,,,,,,,,,,,,,,,,,,,,398.3709802090016,398.3785922499956,398.3785922499956,398.8377704590093,b,1.0,0.4508313330006785,,,,,,sub-202,1,stroop_test,120.38529313542116,
,,,,109.0,1.0,9.0,,,,,,,,,,,,,rot,red,r,1.0,r,1.0,0.8723042909987271,,,,,,,,,,9.0,1.0,109.0,1.0,398.8468869590142,,,,,,,,,,,,,,,,,398.83823729201686,399.6360504170007,400.4307325000118,400.41993129201,,,,,,,,,,,,,,,,,,,,,,,,,,,,,,,,,,,400.4233569590142,400.4307325000118,400.4307325000118,401.3056635000103,r,1.0,0.8723042909987271,,,,,,sub-202,1,stroop_test,120.38529313542116,
,,,,110.0,2.0,9.0,,,,,,,,,,,,,gelb,red,r,0.0,r,1.0,0.6864655410172418,,,,,,,,,,9.0,2.0,110.0,8.0,401.3150458339951,,,,,,,,,,,,,,,,,401.30620229200576,402.5027032090002,403.2974070420023,403.2867526250193,,,,,,,,,,,,,,,,,,,,,,,,,,,,,,,,,,,403.29035841699806,403.2974070420023,403.2974070420023,403.987740209006,r,1.0,0.6864655410172418,,,,,,sub-202,1,stroop_test,120.38529313542116,
,,,,111.0,3.0,9.0,,,,,,,,,,,,,blau,blue,b,1.0,b,1.0,0.5137157919816673,,,,,,,,,,9.0,3.0,111.0,6.0,403.9968968750036,,,,,,,,,,,,,,,,,403.98817812500056,404.7860436670017,405.58132995900814,405.5702127920231,,,,,,,,,,,,,,,,,,,,,,,,,,,,,,,,,,,405.5740285000065,405.58132995900814,405.58132995900814,406.1047712500149,b,1.0,0.5137157919816673,,,,,,sub-202,1,stroop_test,120.38529313542116,
,,,,112.0,4.0,9.0,,,,,,,,,,,,,blau,red,r,0.0,r,1.0,0.77205154200783,,,,,,,,,,9.0,4.0,112.0,4.0,406.1140527499956,,,,,,,,,,,,,,,,,406.10521125001833,406.203071625001,406.9947805840056,406.9867952500063,,,,,,,,,,,,,,,,,,,,,,,,,,,,,,,,,,,406.9874282920209,406.9947805840056,406.9947805840056,407.7717026250029,r,1.0,0.77205154200783,,,,,,sub-202,1,stroop_test,120.38529313542116,
,,,,113.0,5.0,9.0,,,,,,,,,,,,,gelb,yellow,g,1.0,g,1.0,0.539293457986787,,,,,,,,,,9.0,5.0,113.0,10.0,407.78105083401897,,,,,,,,,,,,,,,,,407.772150417004,407.86959320900496,408.66507633400033,408.6534999170108,,,,,,,,,,,,,,,,,,,,,,,,,,,,,,,,,,,408.6579337090079,408.66507633400033,408.66507633400033,409.21082120900974,g,1.0,0.539293457986787,,,,,,sub-202,1,stroop_test,120.38529313542116,
,,,,114.0,6.0,9.0,,,,,,,,,,,,,blau,yellow,g,0.0,g,1.0,0.472578707995126,,,,,,,,,,9.0,6.0,114.0,7.0,409.2198808340181,,,,,,,,,,,,,,,,,409.2112465420214,409.5597351250181,410.355342209019,410.3435864589992,,,,,,,,,,,,,,,,,,,,,,,,,,,,,,,,,,,410.3475302090228,410.355342209019,410.355342209019,410.8380578340148,g,1.0,0.472578707995126,,,,,,sub-202,1,stroop_test,120.38529313542116,
,,,,115.0,7.0,9.0,,,,,,,,,,,,,gelb,yellow,g,1.0,g,1.0,0.3931324169971049,,,,,,,,,,9.0,7.0,115.0,11.0,410.8468676250195,,,,,,,,,,,,,,,,,410.8385001670104,411.6363327919971,412.4322462090058,412.4205052500183,,,,,,,,,,,,,,,,,,,,,,,,,,,,,,,,,,,412.4246876249963,412.4322462090058,412.4322462090058,412.8279266669997,g,1.0,0.3931324169971049,,,,,,sub-202,1,stroop_test,120.38529313542116,
,,,,116.0,8.0,9.0,,,,,,,,,,,,,gelb,blue,b,0.0,b,1.0,0.5379356250050478,,,,,,,,,,9.0,8.0,116.0,9.0,412.8385463750165,,,,,,,,,,,,,,,,,412.8283845420228,412.925085209019,413.7191501670168,413.7097933340119,,,,,,,,,,,,,,,,,,,,,,,,,,,,,,,,,,,413.7104480419948,413.7191501670168,413.7191501670168,414.2604157919996,b,1.0,0.5379356250050478,,,,,,sub-202,1,stroop_test,120.38529313542116,
,,,,117.0,9.0,9.0,,,,,,,,,,,,,rot,blue,b,0.0,b,1.0,0.5198645000054967,,,,,,,,,,9.0,9.0,117.0,2.0,414.2692733340082,,,,,,,,,,,,,,,,,414.2608435000002,414.3583090000029,415.15586166700814,415.1443882090098,,,,,,,,,,,,,,,,,,,,,,,,,,,,,,,,,,,415.1489652500022,415.15586166700814,415.15586166700814,415.67800891702063,b,1.0,0.5198645000054967,,,,,,sub-202,1,stroop_test,120.38529313542116,
,,,,118.0,10.0,9.0,,,,,,,,,,,,,rot,yellow,g,0.0,g,1.0,0.8167668749811128,,,,,,,,,,9.0,10.0,118.0,3.0,415.6881790840125,,,,,,,,,,,,,,,,,415.6784507500124,416.8762645420211,417.6776450840116,417.67040975001873,,,,,,,,,,,,,,,,,,,,,,,,,,,,,,,,,,,417.6710471250117,417.6776450840116,417.6776450840116,418.50529983401066,g,1.0,0.8167668749811128,,,,,,sub-202,1,stroop_test,120.38529313542116,
,,,,119.0,11.0,9.0,,,,,,,,,,,,,rot,red,r,1.0,r,1.0,0.4912388329976238,,,,,,,,,,9.0,11.0,119.0,0.0,418.5143775000179,,,,,,,,,,,,,,,,,418.5058501670137,418.603313833999,419.3949623750232,419.38711158401566,,,,,,,,,,,,,,,,,,,,,,,,,,,,,,,,,,,419.3877492500178,419.3949623750232,419.3949623750232,419.8887503340084,r,1.0,0.4912388329976238,,,,,,sub-202,1,stroop_test,120.38529313542116,
,,,,,,,,,,,,,,,,,,,,,,,,,,,,,,,,,,,,,,,,,,,,,,,,,,,,,,,,,,,,,,,,,,,,,,,,,,,,,,,,,,,,,,,,,,,,,,,,,,,,,,419.8889850840205,419.89974862500094,424.891613084008,424.8872399590037,sub-202,1,stroop_test,120.38529313542116,
