wordCTK,colorCTK,corrAnsCTK,congruentCTK,thisN,thisTrialN,thisRepN,keyResp_CTK.keys,keyResp_CTK.corr,keyResp_CTK.rt,keyResp_CTK.duration,wordPractice,colorPractice,corrAnsPractice,congruentPractice,respPractice.keys,respPractice.corr,respPractice.rt,respPractice.duration,word,color,corrAns,congruent,keyResp_test_run.keys,keyResp_test_run.corr,keyResp_test_run.rt,keyResp_test_run.duration,trials_CTK.thisRepN,trials_CTK.thisTrialN,trials_CTK.thisN,trials_CTK.thisIndex,trials_practice.thisRepN,trials_practice.thisTrialN,trials_practice.thisN,trials_practice.thisIndex,trials_test.thisRepN,trials_test.thisTrialN,trials_test.thisN,trials_test.thisIndex,thisRow.t,notes,instruction.started,instr_text.started,instr_image.started,instr_resp.started,instruction.stopped,instr_resp.keys,instr_resp.rt,instr_resp.duration,instr_color_to_key.started,instr_ctk.started,resp_ctk.started,instr_color_to_key.stopped,resp_ctk.keys,resp_ctk.rt,resp_ctk.duration,ITI.started,fixcross.started,fixcross.stopped,ITI.stopped,color_to_key_run.started,stimulus_CTK.started,keyResp_CTK.started,color_to_key_run.stopped,trials_CTK.keyResp_CTK.keys,trials_CTK.keyResp_CTK.corr,trials_CTK.keyResp_CTK.rt,trials_CTK.keyResp_CTK.duration,instr_practice.started,instr_practice_text.started,instr_practice_resp.started,instr_practice.stopped,instr_practice_resp.keys,instr_practice_resp.rt,instr_practice_resp.duration,practice_run.started,stimulus_practice.started,respPractice.started,practice_run.stopped,trials_practice.respPractice.keys,trials_practice.respPractice.corr,trials_practice.respPractice.rt,trials_practice.respPractice.duration,feedback.started,textFeedback.started,feedback.stopped,textFeedback.stopped,instr_test.started,instr_test_text.started,instr_test_resp.started,instr_test.stopped,instr_test_resp.keys,instr_test_resp.rt,instr_test_resp.duration,test_run.started,stimulus_test_run.started,keyResp_test_run.started,test_run.stopped,trials_test.keyResp_test_run.keys,trials_test.keyResp_test_run.corr,trials_test.keyResp_test_run.rt,trials_test.keyResp_test_run.duration,goodbye.started,textGoodbye.started,textGoodbye.stopped,goodbye.stopped,participant,session,expName,frameRate,Unnamed: 113
,,,,,,,,,,,,,,,,,,,,,,,,,,,,,,,,,,,,,,,,,0.0184882920002564,0.0248515000021143,0.0248515000021143,0.0248515000021143,2.4233709590007493,space,2.361402708000241,,,,,,,,,,,,,,,,,,,,,,,,,,,,,,,,,,,,,,,,,,,,,,,,,,,,,,,,,,,sub-184,1,stroop_test,,
,,,,,,,,,,,,,,,,,,,,,,,,,,,,,,,,,,,,,,,,,,,,,,,,,2.4234542500016687,2.450022250002803,2.450022250002803,3.580802375003259,space,1.1077947500016307,,,,,,,,,,,,,,,,,,,,,,,,,,,,,,,,,,,,,,,,,,,,,,,,,,,,sub-184,1,stroop_test,,
test,yellow,g,1.0,0.0,0.0,0.0,g,1.0,0.8539475420002418,,,,,,,,,,,,,,,,,,0.0,0.0,0.0,1.0,,,,,,,,,3.5962027500027034,,,,,,,,,,,,,,,,,3.5919699170008244,3.6819252090026566,4.488505000001169,4.474140292000811,4.481828709002002,4.488505000001169,4.488505000001169,5.3471873340022285,g,1.0,0.8539475420002418,,,,,,,,,,,,,,,,,,,,,,,,,,,,,,,,,,,,,,,,sub-184,1,stroop_test,,
test,red,r,1.0,1.0,1.0,0.0,r,1.0,0.596255165997718,,,,,,,,,,,,,,,,,,0.0,1.0,1.0,0.0,,,,,,,,,5.3556823340004485,,,,,,,,,,,,,,,,,5.347590125002171,5.440168417000677,6.231651667003462,6.224191334000352,6.224776250001014,6.231651667003462,6.231651667003462,6.830683584001235,r,1.0,0.596255165997718,,,,,,,,,,,,,,,,,,,,,,,,,,,,,,,,,,,,,,,,sub-184,1,stroop_test,,
test,blue,b,1.0,2.0,2.0,0.0,b,1.0,0.4436367910020635,,,,,,,,,,,,,,,,,,0.0,2.0,2.0,2.0,,,,,,,,,6.838484875002905,,,,,,,,,,,,,,,,,6.83107583400124,8.030320042002131,8.832239209001273,8.824310917003459,8.82503666699995,8.832239209001273,8.832239209001273,9.280868042002112,b,1.0,0.4436367910020635,,,,,,,,,,,,,,,,,,,,,,,,,,,,,,,,,,,,,,,,sub-184,1,stroop_test,,
test,yellow,g,1.0,3.0,0.0,1.0,g,1.0,0.7412407920019177,,,,,,,,,,,,,,,,,,1.0,0.0,3.0,1.0,,,,,,,,,9.289773292002792,,,,,,,,,,,,,,,,,9.281302000003052,9.378835917003016,10.171977584002889,10.163176125002792,10.16373895900324,10.171977584002889,10.171977584002889,10.915602209002827,g,1.0,0.7412407920019177,,,,,,,,,,,,,,,,,,,,,,,,,,,,,,,,,,,,,,,,sub-184,1,stroop_test,,
test,blue,b,1.0,4.0,1.0,1.0,b,1.0,0.5745637910004007,,,,,,,,,,,,,,,,,,1.0,1.0,4.0,2.0,,,,,,,,,10.925380667002171,,,,,,,,,,,,,,,,,10.91612216700014,11.011987584002782,11.805300792002528,11.79632395900262,11.796881292000762,11.805300792002528,11.805300792002528,12.39237633400262,b,1.0,0.5745637910004007,,,,,,,,,,,,,,,,,,,,,,,,,,,,,,,,,,,,,,,,sub-184,1,stroop_test,,
test,red,r,1.0,5.0,2.0,1.0,r,1.0,0.3594058750022668,,,,,,,,,,,,,,,,,,1.0,2.0,5.0,0.0,,,,,,,,,12.40667895900333,,,,,,,,,,,,,,,,,12.392766250002753,13.590286375001597,14.38164883400168,14.374062292001328,14.374751000003016,14.38164883400168,14.38164883400168,14.75159112500114,r,1.0,0.3594058750022668,,,,,,,,,,,,,,,,,,,,,,,,,,,,,,,,,,,,,,,,sub-184,1,stroop_test,,
test,yellow,g,1.0,6.0,0.0,2.0,g,1.0,0.6919577090011444,,,,,,,,,,,,,,,,,,2.0,0.0,6.0,1.0,,,,,,,,,14.773133584003515,,,,,,,,,,,,,,,,,14.751942625000083,14.846165292001388,15.638622334001411,15.629920334002236,15.630485042001965,15.638622334001411,15.638622334001411,16.341477417001443,g,1.0,0.6919577090011444,,,,,,,,,,,,,,,,,,,,,,,,,,,,,,,,,,,,,,,,sub-184,1,stroop_test,,
test,red,r,1.0,7.0,1.0,2.0,r,1.0,1.053960334000294,,,,,,,,,,,,,,,,,,2.0,1.0,7.0,0.0,,,,,,,,,16.346803584001464,,,,,,,,,,,,,,,,,16.341881416999968,17.540091167000355,18.331782084002043,18.324244542000088,18.32497170900024,18.331782084002043,18.331782084002043,19.39212454200242,r,1.0,1.053960334000294,,,,,,,,,,,,,,,,,,,,,,,,,,,,,,,,,,,,,,,,sub-184,1,stroop_test,,
test,blue,b,1.0,8.0,2.0,2.0,b,1.0,0.4454303340025944,,,,,,,,,,,,,,,,,,2.0,2.0,8.0,2.0,,,,,,,,,19.401474917001902,,,,,,,,,,,,,,,,,19.392660417001025,20.19013520900262,20.98137166700326,20.97402625000177,20.974621084002138,20.98137166700326,20.98137166700326,21.431297167000597,b,1.0,0.4454303340025944,,,,,,,,,,,,,,,,,,,,,,,,,,,,,,,,,,,,,,,,sub-184,1,stroop_test,,
test,blue,b,1.0,9.0,0.0,3.0,b,1.0,0.5391849589977937,,,,,,,,,,,,,,,,,,3.0,0.0,9.0,2.0,,,,,,,,,21.44154675000027,,,,,,,,,,,,,,,,,21.431767292000583,21.52888550000353,22.32181537500219,22.313563125000652,22.314136917000724,22.32181537500219,22.32181537500219,22.86495020900111,b,1.0,0.5391849589977937,,,,,,,,,,,,,,,,,,,,,,,,,,,,,,,,,,,,,,,,sub-184,1,stroop_test,,
test,red,r,1.0,10.0,1.0,3.0,r,1.0,0.6221487500006333,,,,,,,,,,,,,,,,,,3.0,1.0,10.0,0.0,,,,,,,,,22.875029709000955,,,,,,,,,,,,,,,,,22.86544862500159,23.66290879200096,24.45557700000063,24.44610920900232,24.446694875001413,24.45557700000063,24.45557700000063,25.081257125002598,r,1.0,0.6221487500006333,,,,,,,,,,,,,,,,,,,,,,,,,,,,,,,,,,,,,,,,sub-184,1,stroop_test,,
test,yellow,g,1.0,11.0,2.0,3.0,g,1.0,0.7360359160011285,,,,,,,,,,,,,,,,,,3.0,2.0,11.0,1.0,,,,,,,,,25.091797042001417,,,,,,,,,,,,,,,,,25.08172391700282,25.17888262500128,25.97218658400016,25.962686459002725,25.96319504200073,25.97218658400016,25.97218658400016,26.718784084001527,g,1.0,0.7360359160011285,,,,,,,,,,,,,,,,,,,,,,,,,,,,,,,,,,,,,,,,sub-184,1,stroop_test,,
,,,,,,,,,,,,,,,,,,,,,,,,,,,,,,,,,,,,,,,,,,,,,,,,,,,,,,,,,,,,,,,,,,,,26.718961542002944,26.72608841700276,26.72608841700276,27.42639825000151,space,0.6976423330015677,,,,,,,,,,,,,,,,,,,,,,,,,,,,,,,,,sub-184,1,stroop_test,,
,,,,0.0,0.0,0.0,,,,,rot,blue,b,0.0,b,1.0,1.1154099999985192,,,,,,,,,,,,,,0.0,0.0,0.0,2.0,,,,,27.44808100000228,,,,,,,,,,,,,,,,,27.441331542002445,28.62329862500337,29.41936241700023,29.40757700000177,,,,,,,,,,,,,,,,29.413328917002215,29.41936241700023,29.41936241700023,30.54216854200058,b,1.0,1.1154099999985192,,30.55059337500279,30.559488709001016,31.543282625003485,,,,,,,,,,,,,,,,,,,,,sub-184,1,stroop_test,,
,,,,1.0,1.0,0.0,,,,,blau,blue,b,1.0,b,1.0,0.6124353749983129,,,,,,,,,,,,,,0.0,1.0,1.0,5.0,,,,,31.5554777920006,,,,,,,,,,,,,,,,,31.54377879200183,32.740046750001056,33.539275459002965,33.5243631250014,,,,,,,,,,,,,,,,33.532304584001395,33.539275459002965,33.539275459002965,34.15860370900191,b,1.0,0.6124353749983129,,34.159466625002096,34.17123483400064,35.15732850000131,35.1629274170009,,,,,,,,,,,,,,,,,,,,sub-184,1,stroop_test,,
,,,,2.0,2.0,0.0,,,,,gelb,yellow,g,1.0,g,1.0,0.5161657919998106,,,,,,,,,,,,,,0.0,2.0,2.0,10.0,,,,,35.1629274170009,,,,,,,,,,,,,,,,,35.157784042003186,36.35679587500272,37.15182945900233,37.14069858400035,,,,,,,,,,,,,,,,37.14491325000199,37.15182945900233,37.15182945900233,37.67525604200273,g,1.0,0.5161657919998106,,37.676100459000736,37.68788650000352,38.67412254200099,38.67977512500147,,,,,,,,,,,,,,,,,,,,sub-184,1,stroop_test,,
,,,,3.0,3.0,0.0,,,,,gelb,red,r,0.0,r,1.0,0.7085951670014765,,,,,,,,,,,,,,0.0,3.0,3.0,8.0,,,,,38.67977512500147,,,,,,,,,,,,,,,,,38.674622125003225,39.47343058400293,40.26496112500172,40.257449292003,,,,,,,,,,,,,,,,40.25821733400153,40.26496112500172,40.26496112500172,40.97590054200191,r,1.0,0.7085951670014765,,40.976953042001696,40.988850959001866,41.9742005420012,41.98004016699997,,,,,,,,,,,,,,,,,,,,sub-184,1,stroop_test,,
,,,,4.0,4.0,0.0,,,,,blau,yellow,g,0.0,g,1.0,1.0219627080005012,,,,,,,,,,,,,,0.0,4.0,4.0,7.0,,,,,41.98004016699997,,,,,,,,,,,,,,,,,41.974649334002606,42.07341033400007,42.86863287500091,42.85732066700075,,,,,,,,,,,,,,,,42.86145395900167,42.86863287500091,42.86863287500091,43.90392745900317,g,1.0,1.0219627080005012,,43.90448366700002,43.91039516700039,44.89608433400281,44.90672629200344,,,,,,,,,,,,,,,,,,,,sub-184,1,stroop_test,,
,,,,5.0,5.0,0.0,,,,,rot,red,r,1.0,r,1.0,0.5974328340016655,,,,,,,,,,,,,,0.0,5.0,5.0,0.0,,,,,44.90672629200344,,,,,,,,,,,,,,,,,44.89651000000231,45.24633208400337,46.04297395899994,46.02945270900091,,,,,,,,,,,,,,,,46.03667912500168,46.04297395899994,46.04297395899994,46.64282662500045,r,1.0,0.5974328340016655,,46.64385212500201,46.65569233400311,47.64089358400088,47.646600917003525,,,,,,,,,,,,,,,,,,,,sub-184,1,stroop_test,,
,,,,6.0,6.0,0.0,,,,,rot,yellow,g,0.0,g,1.0,0.5178206659984426,,,,,,,,,,,,,,0.0,6.0,6.0,3.0,,,,,47.646600917003525,,,,,,,,,,,,,,,,,47.64143175000208,48.84005141700254,49.63156912500199,49.62406845900114,,,,,,,,,,,,,,,,49.62483112500195,49.63156912500199,49.63156912500199,50.15875862500252,g,1.0,0.5178206659984426,,50.159703417000856,50.1711803750004,51.15738225000314,51.1625670420035,,,,,,,,,,,,,,,,,,,,sub-184,1,stroop_test,,
,,,,7.0,7.0,0.0,,,,,gelb,yellow,g,1.0,g,1.0,0.5106594999997469,,,,,,,,,,,,,,0.0,7.0,7.0,11.0,,,,,51.1625670420035,,,,,,,,,,,,,,,,,51.15779379200103,51.50674720900133,52.30240512500313,52.29081875000338,,,,,,,,,,,,,,,,52.29538879200118,52.30240512500313,52.30240512500313,52.8153095000016,g,1.0,0.5106594999997469,,52.81616370900156,52.82792529200015,53.81322441700104,53.82327562499995,,,,,,,,,,,,,,,,,,,,sub-184,1,stroop_test,,
,,,,8.0,8.0,0.0,,,,,blau,red,r,0.0,r,1.0,1.043926250000368,,,,,,,,,,,,,,0.0,8.0,8.0,4.0,,,,,53.82327562499995,,,,,,,,,,,,,,,,,53.81363550000242,54.16307616700215,54.97306770900104,54.94624775000193,,,,,,,,,,,,,,,,54.94989087500289,54.97306770900104,54.97306770900104,56.02541133400155,r,1.0,1.043926250000368,,56.0262783750004,56.03800066700205,57.02400962500178,57.0296033750019,,,,,,,,,,,,,,,,,,,,sub-184,1,stroop_test,,
,,,,9.0,9.0,0.0,,,,,gelb,blue,b,0.0,b,1.0,0.6644151250002324,,,,,,,,,,,,,,0.0,9.0,9.0,9.0,,,,,57.0296033750019,,,,,,,,,,,,,,,,,57.024414417002845,58.22333104200152,59.0189307920009,59.00754908400268,,,,,,,,,,,,,,,,59.01208700000279,59.0189307920009,59.0189307920009,59.6924428750026,b,1.0,0.6644151250002324,,59.69339166700229,59.70517587500217,60.69081129200276,60.69643583400102,,,,,,,,,,,,,,,,,,,,sub-184,1,stroop_test,,
,,,,10.0,10.0,0.0,,,,,blau,blue,b,1.0,b,1.0,0.6058284579994506,,,,,,,,,,,,,,0.0,10.0,10.0,6.0,,,,,60.69643583400102,,,,,,,,,,,,,,,,,60.69132791700031,61.49008150000009,62.28474558400194,62.273969042002136,,,,,,,,,,,,,,,,62.27782758400281,62.28474558400194,62.28474558400194,62.9032556250022,b,1.0,0.6058284579994506,,62.90383295900028,62.90931479200299,63.89622687500014,63.90669587500088,,,,,,,,,,,,,,,,,,,,sub-184,1,stroop_test,,
,,,,11.0,11.0,0.0,,,,,rot,red,r,1.0,r,1.0,1.0563552910025464,,,,,,,,,,,,,,0.0,11.0,11.0,1.0,,,,,63.90669587500088,,,,,,,,,,,,,,,,,63.896666375003406,65.09603125000285,65.89180575000137,65.87976608400277,,,,,,,,,,,,,,,,65.88360445900253,65.89180575000137,65.89180575000137,66.9585000420011,r,1.0,1.0563552910025464,,66.95934187500097,66.97115366700018,67.95741741700112,67.96283566700004,,,,,,,,,,,,,,,,,,,,sub-184,1,stroop_test,,
,,,,12.0,0.0,1.0,,,,,blau,blue,b,1.0,b,1.0,0.587676167000609,,,,,,,,,,,,,,1.0,0.0,12.0,6.0,,,,,67.96283566700004,,,,,,,,,,,,,,,,,67.9579618750031,69.15669837500172,69.95271762500124,69.94086779200006,,,,,,,,,,,,,,,,69.94576091700219,69.95271762500124,69.95271762500124,70.54346266700304,b,1.0,0.587676167000609,,70.5444801670019,70.55648516700239,71.54081179200148,71.54624045900346,,,,,,,,,,,,,,,,,,,,sub-184,1,stroop_test,,
,,,,13.0,1.0,1.0,,,,,rot,red,r,1.0,r,1.0,0.932010666001588,,,,,,,,,,,,,,1.0,1.0,13.0,0.0,,,,,71.54624045900346,,,,,,,,,,,,,,,,,71.54135891700207,71.63992841700019,72.4360965420019,72.42421891699996,,,,,,,,,,,,,,,,72.42864016700332,72.4360965420019,72.4360965420019,73.37533862500277,r,1.0,0.932010666001588,,73.37619808400268,73.38778933400317,74.37416845900225,74.37982012500288,,,,,,,,,,,,,,,,,,,,sub-184,1,stroop_test,,
,,,,14.0,2.0,1.0,,,,,rot,red,r,1.0,r,1.0,0.6486809999987599,,,,,,,,,,,,,,1.0,2.0,14.0,1.0,,,,,74.37982012500288,,,,,,,,,,,,,,,,,74.37470141700032,75.173436709003,75.9651227500035,75.95731758400143,,,,,,,,,,,,,,,,75.95798920900052,75.9651227500035,75.9651227500035,76.64161208400037,r,1.0,0.6486809999987599,,76.64258558400252,76.65685087500242,77.64075654200133,77.6461142090011,,,,,,,,,,,,,,,,,,,,sub-184,1,stroop_test,,
,,,,15.0,3.0,1.0,,,,,rot,yellow,g,0.0,g,1.0,1.3958254589997523,,,,,,,,,,,,,,1.0,3.0,15.0,3.0,,,,,77.6461142090011,,,,,,,,,,,,,,,,,77.6411822500013,77.74007500000153,78.53178858400133,78.52401179200024,,,,,,,,,,,,,,,,78.5247072500024,78.53178858400133,78.53178858400133,79.93132120900191,g,1.0,1.3958254589997523,,79.9320270840035,79.94455220900272,80.9298184170002,80.93994754200321,,,,,,,,,,,,,,,,,,,,sub-184,1,stroop_test,,
,,,,16.0,4.0,1.0,,,,,rot,blue,b,0.0,b,1.0,0.6245459160018072,,,,,,,,,,,,,,1.0,4.0,16.0,2.0,,,,,80.93994754200321,,,,,,,,,,,,,,,,,80.9302271250017,81.0296627500029,81.82201975000135,81.81281404200126,,,,,,,,,,,,,,,,81.81341237500237,81.82201975000135,81.82201975000135,82.44865629200285,b,1.0,0.6245459160018072,,82.4496105420003,82.46085149999999,83.44611079200331,83.45665604200258,,,,,,,,,,,,,,,,,,,,sub-184,1,stroop_test,,
,,,,17.0,5.0,1.0,,,,,blau,yellow,g,0.0,g,1.0,0.9400839580011962,,,,,,,,,,,,,,1.0,5.0,17.0,7.0,,,,,83.45665604200258,,,,,,,,,,,,,,,,,83.44655195900123,84.64669062500252,85.44150300000183,85.42984791700292,,,,,,,,,,,,,,,,85.43351554200126,85.44150300000183,85.44150300000183,86.39184908400057,g,1.0,0.9400839580011962,,86.39267904200096,86.40391183400061,87.39079416700042,87.39630250000118,,,,,,,,,,,,,,,,,,,,sub-184,1,stroop_test,,
,,,,18.0,6.0,1.0,,,,,gelb,yellow,g,1.0,g,1.0,0.8010091659998579,,,,,,,,,,,,,,1.0,6.0,18.0,11.0,,,,,87.39630250000118,,,,,,,,,,,,,,,,,87.39133275000131,88.19006495900248,88.98521141700257,88.97408379200351,,,,,,,,,,,,,,,,88.97811524999997,88.98521141700257,88.98521141700257,89.79205979200196,g,1.0,0.8010091659998579,,89.79300995900121,89.80429387500044,90.79100308400302,90.79689233400131,,,,,,,,,,,,,,,,,,,,sub-184,1,stroop_test,,
,,,,19.0,7.0,1.0,,,,,blau,blue,b,1.0,b,1.0,0.6521047500027635,,,,,,,,,,,,,,1.0,7.0,19.0,5.0,,,,,90.79689233400131,,,,,,,,,,,,,,,,,90.79157125000349,91.14005154200277,91.93527854200148,91.92404975000318,,,,,,,,,,,,,,,,91.9283765,91.93527854200148,91.93527854200148,92.59154358400338,b,1.0,0.6521047500027635,,92.59231045900016,92.60047416700036,93.59092712500204,93.59667341700332,,,,,,,,,,,,,,,,,,,,sub-184,1,stroop_test,,
,,,,20.0,8.0,1.0,,,,,gelb,red,r,0.0,g,0.0,0.7992926250008168,,,,,,,,,,,,,,1.0,8.0,20.0,8.0,,,,,93.59667341700332,,,,,,,,,,,,,,,,,93.59150583400331,93.9399420840018,94.7362985840009,94.72410412500176,,,,,,,,,,,,,,,,94.7292776250033,94.7362985840009,94.7362985840009,95.54211983400091,g,0.0,0.7992926250008168,,95.54911195900058,95.55814954200105,96.54553320900231,,,,,,,,,,,,,,,,,,,,,sub-184,1,stroop_test,,
,,,,21.0,9.0,1.0,,,,,gelb,blue,b,0.0,b,1.0,0.7802702090011735,,,,,,,,,,,,,,1.0,9.0,21.0,9.0,,,,,96.55665666700224,,,,,,,,,,,,,,,,,96.54603687500276,96.88994879200254,97.68201729200156,97.6743863340016,,,,,,,,,,,,,,,,97.67521237500114,97.68201729200156,97.68201729200156,98.46450325000114,b,1.0,0.7802702090011735,,98.4693204590003,98.47825212500176,99.46344416700232,99.47322033400268,,,,,,,,,,,,,,,,,,,,sub-184,1,stroop_test,,
,,,,22.0,10.0,1.0,,,,,blau,red,r,0.0,r,1.0,1.2505060410003352,,,,,,,,,,,,,,1.0,10.0,22.0,4.0,,,,,99.47322033400268,,,,,,,,,,,,,,,,,99.4638565000023,99.81343304200344,100.61903370900107,100.60749158399994,,,,,,,,,,,,,,,,100.61200645900315,100.61903370900107,100.61903370900107,101.87540595900282,r,1.0,1.2505060410003352,,101.8762387090028,101.88603762500134,102.87405945900171,102.8792858750021,,,,,,,,,,,,,,,,,,,,sub-184,1,stroop_test,,
,,,,23.0,11.0,1.0,,,,,gelb,yellow,g,1.0,g,1.0,0.8775945420020435,,,,,,,,,,,,,,1.0,11.0,23.0,10.0,,,,,102.8792858750021,,,,,,,,,,,,,,,,,102.87447445900034,103.6734149590011,104.46923891700136,104.45763154200176,,,,,,,,,,,,,,,,104.4622845840022,104.46923891700136,104.46923891700136,105.35914445900198,g,1.0,0.8775945420020435,,105.3595992920018,105.37319950000165,106.35740712500046,106.36499499999992,,,,,,,,,,,,,,,,,,,,sub-184,1,stroop_test,,
,,,,,,,,,,,,,,,,,,,,,,,,,,,,,,,,,,,,,,,,,,,,,,,,,,,,,,,,,,,,,,,,,,,,,,,,,,,,,,,,,,,,,,,106.35757033400296,106.36499499999992,106.36499499999992,107.21445975000096,space,0.8465214999996533,,,,,,,,,,,,,,sub-184,1,stroop_test,,
,,,,0.0,0.0,0.0,,,,,,,,,,,,,gelb,red,r,0.0,r,1.0,1.0235830000019632,,,,,,,,,,0.0,0.0,0.0,8.0,107.23607387500306,,,,,,,,,,,,,,,,,107.22949387500194,107.56266420900285,108.35816912500012,108.34646195900132,,,,,,,,,,,,,,,,,,,,,,,,,,,,,,,,,,,108.3501770840012,108.35816912500012,108.35816912500012,109.3918503340028,r,1.0,1.0235830000019632,,,,,,sub-184,1,stroop_test,,
,,,,1.0,1.0,0.0,,,,,,,,,,,,,gelb,yellow,g,1.0,g,1.0,0.7870937080006115,,,,,,,,,,0.0,1.0,1.0,10.0,109.4017134170026,,,,,,,,,,,,,,,,,109.39245116700113,110.590267167001,111.38175654200312,111.3739381250016,,,,,,,,,,,,,,,,,,,,,,,,,,,,,,,,,,,111.37502566700276,111.38175654200312,111.38175654200312,112.17540783400182,g,1.0,0.7870937080006115,,,,,,sub-184,1,stroop_test,,
,,,,2.0,2.0,0.0,,,,,,,,,,,,,blau,yellow,g,0.0,g,1.0,0.4879562080022879,,,,,,,,,,0.0,2.0,2.0,7.0,112.18520220900244,,,,,,,,,,,,,,,,,112.17604891700104,112.97336604200244,113.7688021670001,113.75752162500066,,,,,,,,,,,,,,,,,,,,,,,,,,,,,,,,,,,113.76194520900026,113.7688021670001,113.7688021670001,114.25905050000074,g,1.0,0.4879562080022879,,,,,,sub-184,1,stroop_test,,
,,,,3.0,3.0,0.0,,,,,,,,,,,,,rot,yellow,g,0.0,g,1.0,0.8998280000014347,,,,,,,,,,0.0,3.0,3.0,3.0,114.26920287500252,,,,,,,,,,,,,,,,,114.25991491700188,114.6067493340015,115.4024202920009,115.39076958400256,,,,,,,,,,,,,,,,,,,,,,,,,,,,,,,,,,,115.39501579200078,115.4024202920009,115.4024202920009,116.30857170900344,g,1.0,0.8998280000014347,,,,,,sub-184,1,stroop_test,,
,,,,4.0,4.0,0.0,,,,,,,,,,,,,rot,blue,b,0.0,b,1.0,0.9232034590022522,,,,,,,,,,0.0,4.0,4.0,2.0,116.31851741700302,,,,,,,,,,,,,,,,,116.30921233400296,116.65656645900162,117.44766662500116,117.44053479200012,,,,,,,,,,,,,,,,,,,,,,,,,,,,,,,,,,,117.44113325000215,117.44766662500116,117.44766662500116,118.37510845900032,b,1.0,0.9232034590022522,,,,,,sub-184,1,stroop_test,,
,,,,5.0,5.0,0.0,,,,,,,,,,,,,rot,red,r,1.0,r,1.0,0.7856845419992169,,,,,,,,,,0.0,5.0,5.0,0.0,118.38538541700107,,,,,,,,,,,,,,,,,118.37573641700146,119.57352387500214,120.36447191700064,120.35732558400196,,,,,,,,,,,,,,,,,,,,,,,,,,,,,,,,,,,120.3579203750014,120.36447191700064,120.36447191700064,121.15861095900254,r,1.0,0.7856845419992169,,,,,,sub-184,1,stroop_test,,
,,,,6.0,6.0,0.0,,,,,,,,,,,,,blau,red,r,0.0,r,1.0,0.4334776659998169,,,,,,,,,,0.0,6.0,6.0,4.0,121.16901616700125,,,,,,,,,,,,,,,,,121.15925637500186,121.9565813750014,122.75221500000043,122.74064629200076,,,,,,,,,,,,,,,,,,,,,,,,,,,,,,,,,,,122.7450967090008,122.75221500000043,122.75221500000043,123.19198037500246,r,1.0,0.4334776659998169,,,,,,sub-184,1,stroop_test,,
,,,,7.0,7.0,0.0,,,,,,,,,,,,,gelb,yellow,g,1.0,g,1.0,0.633019291999517,,,,,,,,,,0.0,7.0,7.0,11.0,123.20159045900073,,,,,,,,,,,,,,,,,123.19259391700324,123.54012745900036,124.33507554200332,124.3240354590016,,,,,,,,,,,,,,,,,,,,,,,,,,,,,,,,,,,124.3279660420012,124.33507554200332,124.33507554200332,124.97523337500024,g,1.0,0.633019291999517,,,,,,sub-184,1,stroop_test,,
,,,,8.0,8.0,0.0,,,,,,,,,,,,,blau,blue,b,1.0,b,1.0,0.5078760420001345,,,,,,,,,,0.0,8.0,8.0,6.0,124.98543537500154,,,,,,,,,,,,,,,,,124.97591354200269,125.77337954200266,126.5682960840022,126.55726395900274,,,,,,,,,,,,,,,,,,,,,,,,,,,,,,,,,,,126.56135216700204,126.5682960840022,126.5682960840022,127.08132370900056,b,1.0,0.5078760420001345,,,,,,sub-184,1,stroop_test,,
,,,,9.0,9.0,0.0,,,,,,,,,,,,,rot,red,r,1.0,r,1.0,0.6439452499980689,,,,,,,,,,0.0,9.0,9.0,1.0,127.09182375000093,,,,,,,,,,,,,,,,,127.08189087500068,127.17888725000012,127.97476883400304,127.9625748340004,,,,,,,,,,,,,,,,,,,,,,,,,,,,,,,,,,,127.96736491699994,127.97476883400304,127.97476883400304,128.62510208400272,r,1.0,0.6439452499980689,,,,,,sub-184,1,stroop_test,,
,,,,10.0,10.0,0.0,,,,,,,,,,,,,blau,blue,b,1.0,b,1.0,0.994765624996944,,,,,,,,,,0.0,10.0,10.0,5.0,128.6352479590023,,,,,,,,,,,,,,,,,128.62571958400076,129.42334391700206,130.21931091700026,130.2074505840028,,,,,,,,,,,,,,,,,,,,,,,,,,,,,,,,,,,130.21193091700115,130.21931091700026,130.21931091700026,131.2251391250029,b,1.0,0.994765624996944,,,,,,sub-184,1,stroop_test,,
,,,,11.0,11.0,0.0,,,,,,,,,,,,,gelb,blue,b,0.0,b,1.0,0.6244137500034412,,,,,,,,,,0.0,11.0,11.0,9.0,131.23502695900245,,,,,,,,,,,,,,,,,131.22574270900077,132.02319487500063,132.81985629200062,132.80790883400186,,,,,,,,,,,,,,,,,,,,,,,,,,,,,,,,,,,132.81255712500206,132.81985629200062,132.81985629200062,133.4476334170031,b,1.0,0.6244137500034412,,,,,,sub-184,1,stroop_test,,
,,,,12.0,0.0,1.0,,,,,,,,,,,,,blau,red,r,0.0,r,1.0,0.9941780420012948,,,,,,,,,,1.0,0.0,12.0,4.0,133.45811912499994,,,,,,,,,,,,,,,,,133.44819904200267,134.64698616700116,135.4519175000023,135.4405741670016,,,,,,,,,,,,,,,,,,,,,,,,,,,,,,,,,,,135.44487004200346,135.4519175000023,135.4519175000023,136.44850191700243,r,1.0,0.9941780420012948,,,,,,sub-184,1,stroop_test,,
,,,,13.0,1.0,1.0,,,,,,,,,,,,,gelb,blue,b,0.0,b,1.0,0.6793726249998144,,,,,,,,,,1.0,1.0,13.0,9.0,136.458925834002,,,,,,,,,,,,,,,,,136.44907075000083,137.24676483400253,138.05241166700216,138.04085037500045,,,,,,,,,,,,,,,,,,,,,,,,,,,,,,,,,,,138.04544645900023,138.05241166700216,138.05241166700216,138.7417287920034,b,1.0,0.6793726249998144,,,,,,sub-184,1,stroop_test,,
,,,,14.0,2.0,1.0,,,,,,,,,,,,,blau,yellow,g,0.0,g,1.0,0.9163810840000224,,,,,,,,,,1.0,2.0,14.0,7.0,138.75176545900104,,,,,,,,,,,,,,,,,138.74234137500025,139.0899139590001,139.88552933400206,139.874188167003,,,,,,,,,,,,,,,,,,,,,,,,,,,,,,,,,,,139.87873837500229,139.88552933400206,139.88552933400206,140.80842820900216,g,1.0,0.9163810840000224,,,,,,sub-184,1,stroop_test,,
,,,,15.0,3.0,1.0,,,,,,,,,,,,,gelb,yellow,g,1.0,g,1.0,0.6686462910001865,,,,,,,,,,1.0,3.0,15.0,10.0,140.8184989170004,,,,,,,,,,,,,,,,,140.8090569590022,142.00668725000287,142.80238304200248,142.7907689590029,,,,,,,,,,,,,,,,,,,,,,,,,,,,,,,,,,,142.79523829200116,142.80238304200248,142.80238304200248,143.47506708400033,g,1.0,0.6686462910001865,,,,,,sub-184,1,stroop_test,,
,,,,16.0,4.0,1.0,,,,,,,,,,,,,blau,blue,b,1.0,b,1.0,0.6151830000017071,,,,,,,,,,1.0,4.0,16.0,5.0,143.48521695900126,,,,,,,,,,,,,,,,,143.47566175000247,143.5717023340003,144.37022312500267,144.35749237500204,,,,,,,,,,,,,,,,,,,,,,,,,,,,,,,,,,,144.3628391250022,144.37022312500267,144.37022312500267,144.9918489170013,b,1.0,0.6151830000017071,,,,,,sub-184,1,stroop_test,,
,,,,17.0,5.0,1.0,,,,,,,,,,,,,rot,blue,b,0.0,b,1.0,1.8957698339982016,,,,,,,,,,1.0,5.0,17.0,2.0,145.00223104200268,,,,,,,,,,,,,,,,,144.99250291700082,146.18997020900133,146.98574083400308,146.974145917,,,,,,,,,,,,,,,,,,,,,,,,,,,,,,,,,,,146.97855420900305,146.98574083400308,146.98574083400308,148.89212920900172,b,1.0,1.8957698339982016,,,,,,sub-184,1,stroop_test,,
,,,,18.0,6.0,1.0,,,,,,,,,,,,,rot,red,r,1.0,r,1.0,0.7388069999979052,,,,,,,,,,1.0,6.0,18.0,0.0,148.90264579200084,,,,,,,,,,,,,,,,,148.8928201250019,148.9899403340023,149.78127954200318,149.77385975000288,,,,,,,,,,,,,,,,,,,,,,,,,,,,,,,,,,,149.77444154200202,149.78127954200318,149.78127954200318,150.525099167,r,1.0,0.7388069999979052,,,,,,sub-184,1,stroop_test,,
,,,,19.0,7.0,1.0,,,,,,,,,,,,,rot,yellow,g,0.0,g,1.0,0.6914682919996267,,,,,,,,,,1.0,7.0,19.0,3.0,150.53313916700063,,,,,,,,,,,,,,,,,150.52563779200136,151.32327125000302,152.11527650000062,152.10739679200196,,,,,,,,,,,,,,,,,,,,,,,,,,,,,,,,,,,152.10817079200206,152.11527650000062,152.11527650000062,152.80912354200336,g,1.0,0.6914682919996267,,,,,,sub-184,1,stroop_test,,
,,,,20.0,8.0,1.0,,,,,,,,,,,,,gelb,red,r,0.0,r,1.0,1.3121695000008913,,,,,,,,,,1.0,8.0,20.0,8.0,152.81797579200065,,,,,,,,,,,,,,,,,152.80986120900343,152.9066368340027,153.70251258400094,153.690744042,,,,,,,,,,,,,,,,,,,,,,,,,,,,,,,,,,,153.69523537500208,153.70251258400094,153.70251258400094,155.04191954199996,r,1.0,1.3121695000008913,,,,,,sub-184,1,stroop_test,,
,,,,21.0,9.0,1.0,,,,,,,,,,,,,blau,blue,b,1.0,b,1.0,0.4338725829984469,,,,,,,,,,1.0,9.0,21.0,6.0,155.05689258400162,,,,,,,,,,,,,,,,,155.04257025000334,156.23987533400214,157.03318166700046,157.02406587500082,,,,,,,,,,,,,,,,,,,,,,,,,,,,,,,,,,,157.0276094590008,157.03318166700046,157.03318166700046,157.47526083400226,b,1.0,0.4338725829984469,,,,,,sub-184,1,stroop_test,,
,,,,22.0,10.0,1.0,,,,,,,,,,,,,gelb,yellow,g,1.0,g,1.0,0.6229158749993076,,,,,,,,,,1.0,10.0,22.0,11.0,157.48560387500038,,,,,,,,,,,,,,,,,157.47591237500092,157.5733899170009,158.36742604200117,158.35718320900196,,,,,,,,,,,,,,,,,,,,,,,,,,,,,,,,,,,158.3607582500008,158.36742604200117,158.36742604200117,158.99273491700296,g,1.0,0.6229158749993076,,,,,,sub-184,1,stroop_test,,
,,,,23.0,11.0,1.0,,,,,,,,,,,,,rot,red,r,1.0,r,1.0,0.8056771250012389,,,,,,,,,,1.0,11.0,23.0,1.0,159.00290950000272,,,,,,,,,,,,,,,,,158.99345970900322,159.33999504200256,160.1355409590033,160.12420266700065,,,,,,,,,,,,,,,,,,,,,,,,,,,,,,,,,,,160.12831870900118,160.1355409590033,160.1355409590033,160.95252395900025,r,1.0,0.8056771250012389,,,,,,sub-184,1,stroop_test,,
,,,,24.0,0.0,2.0,,,,,,,,,,,,,rot,yellow,g,0.0,g,1.0,1.0059121250014869,,,,,,,,,,2.0,0.0,24.0,3.0,160.95841612500226,,,,,,,,,,,,,,,,,160.95304083400333,161.04568550000113,161.83847308400073,161.82977495900195,,,,,,,,,,,,,,,,,,,,,,,,,,,,,,,,,,,161.83034362500257,161.83847308400073,161.83847308400073,162.8475908750006,g,1.0,1.0059121250014869,,,,,,sub-184,1,stroop_test,,
,,,,25.0,1.0,2.0,,,,,,,,,,,,,gelb,blue,b,0.0,b,1.0,1.1768702910012507,,,,,,,,,,2.0,1.0,25.0,9.0,162.8583818340012,,,,,,,,,,,,,,,,,162.84812716700253,164.04650204200152,164.8421906250005,164.82971529200222,,,,,,,,,,,,,,,,,,,,,,,,,,,,,,,,,,,164.8348617920019,164.8421906250005,164.8421906250005,166.02541629200277,b,1.0,1.1768702910012507,,,,,,sub-184,1,stroop_test,,
,,,,26.0,2.0,2.0,,,,,,,,,,,,,rot,blue,b,0.0,b,1.0,0.6444562079996103,,,,,,,,,,2.0,2.0,26.0,2.0,166.03652041700116,,,,,,,,,,,,,,,,,166.02613512500102,166.12326441700134,166.9189349590015,166.90735637500256,,,,,,,,,,,,,,,,,,,,,,,,,,,,,,,,,,,166.91167262500312,166.9189349590015,166.9189349590015,167.59138887500012,b,1.0,0.6444562079996103,,,,,,sub-184,1,stroop_test,,
,,,,27.0,3.0,2.0,,,,,,,,,,,,,blau,red,r,0.0,r,1.0,0.7485288749994652,,,,,,,,,,2.0,3.0,27.0,4.0,167.60667891699995,,,,,,,,,,,,,,,,,167.592112792001,167.68995895900298,168.48584250000204,168.47408945900315,,,,,,,,,,,,,,,,,,,,,,,,,,,,,,,,,,,168.47856745900208,168.48584250000204,168.48584250000204,169.24177333400075,r,1.0,0.7485288749994652,,,,,,sub-184,1,stroop_test,,
,,,,28.0,4.0,2.0,,,,,,,,,,,,,rot,red,r,1.0,r,1.0,0.6649041670025326,,,,,,,,,,2.0,4.0,28.0,0.0,169.2527182090016,,,,,,,,,,,,,,,,,169.24244375000126,170.039980542002,170.8356693340029,170.824009750002,,,,,,,,,,,,,,,,,,,,,,,,,,,,,,,,,,,170.82847737500197,170.8356693340029,170.8356693340029,171.50863691700215,r,1.0,0.6649041670025326,,,,,,sub-184,1,stroop_test,,
,,,,29.0,5.0,2.0,,,,,,,,,,,,,blau,blue,b,1.0,b,1.0,0.6283942499976547,,,,,,,,,,2.0,5.0,29.0,5.0,171.51960441700066,,,,,,,,,,,,,,,,,171.50937770900055,172.3066232500023,173.10234854200098,173.0908830840017,,,,,,,,,,,,,,,,,,,,,,,,,,,,,,,,,,,173.09533987500254,173.10234854200098,173.10234854200098,173.74193720900075,b,1.0,0.6283942499976547,,,,,,sub-184,1,stroop_test,,
,,,,30.0,6.0,2.0,,,,,,,,,,,,,blau,yellow,g,0.0,g,1.0,0.6960224590002326,,,,,,,,,,2.0,6.0,30.0,7.0,173.74996179200025,,,,,,,,,,,,,,,,,173.74247825000202,173.8391505840009,174.63092837500153,174.6239537090005,,,,,,,,,,,,,,,,,,,,,,,,,,,,,,,,,,,174.62456329199995,174.63092837500153,174.63092837500153,175.33096470900273,g,1.0,0.6960224590002326,,,,,,sub-184,1,stroop_test,,
,,,,31.0,7.0,2.0,,,,,,,,,,,,,gelb,yellow,g,1.0,g,1.0,0.5335292079980718,,,,,,,,,,2.0,7.0,31.0,11.0,175.33978237500196,,,,,,,,,,,,,,,,,175.3314510420023,175.42879145900224,176.2248674170005,176.21302945900243,,,,,,,,,,,,,,,,,,,,,,,,,,,,,,,,,,,176.21669162500257,176.2248674170005,176.2248674170005,176.76345633400342,g,1.0,0.5335292079980718,,,,,,sub-184,1,stroop_test,,
,,,,32.0,8.0,2.0,,,,,,,,,,,,,gelb,red,r,0.0,r,1.0,0.7205189169981168,,,,,,,,,,2.0,8.0,32.0,8.0,176.77214533400183,,,,,,,,,,,,,,,,,176.76386362500125,177.95665995900345,178.74845795900185,178.7406804170023,,,,,,,,,,,,,,,,,,,,,,,,,,,,,,,,,,,178.74143579200245,178.74845795900185,178.74845795900185,179.47555545900104,r,1.0,0.7205189169981168,,,,,,sub-184,1,stroop_test,,
,,,,33.0,9.0,2.0,,,,,,,,,,,,,gelb,yellow,g,1.0,g,1.0,0.6290711249966989,,,,,,,,,,2.0,9.0,33.0,10.0,179.4854310840019,,,,,,,,,,,,,,,,,179.4762565000019,179.8232501670027,180.61498995900183,180.60731420900265,,,,,,,,,,,,,,,,,,,,,,,,,,,,,,,,,,,180.60812620900103,180.61498995900183,180.61498995900183,181.24729833400124,g,1.0,0.6290711249966989,,,,,,sub-184,1,stroop_test,,
,,,,34.0,10.0,2.0,,,,,,,,,,,,,blau,blue,b,1.0,b,1.0,0.7398351250012638,,,,,,,,,,2.0,10.0,34.0,6.0,181.2581500840024,,,,,,,,,,,,,,,,,181.24784766700031,182.04590737500257,182.84176487500008,182.82958500000316,,,,,,,,,,,,,,,,,,,,,,,,,,,,,,,,,,,182.8346482090019,182.84176487500008,182.84176487500008,183.59190462500192,b,1.0,0.7398351250012638,,,,,,sub-184,1,stroop_test,,
,,,,35.0,11.0,2.0,,,,,,,,,,,,,rot,red,r,1.0,r,1.0,1.2126894169996376,,,,,,,,,,2.0,11.0,35.0,1.0,183.60193854200045,,,,,,,,,,,,,,,,,183.5925805420011,183.6899244590022,184.48577862500315,184.47390375000032,,,,,,,,,,,,,,,,,,,,,,,,,,,,,,,,,,,184.47840537500088,184.48577862500315,184.48577862500315,185.7094162500034,r,1.0,1.2126894169996376,,,,,,sub-184,1,stroop_test,,
,,,,36.0,0.0,3.0,,,,,,,,,,,,,gelb,red,r,0.0,r,1.0,1.0499013749977166,,,,,,,,,,3.0,0.0,36.0,8.0,185.71840475000133,,,,,,,,,,,,,,,,,185.7101668750001,185.8065661670007,186.60231658400156,186.5906718340011,,,,,,,,,,,,,,,,,,,,,,,,,,,,,,,,,,,186.5950134170016,186.60231658400156,186.60231658400156,187.6588115000013,r,1.0,1.0499013749977166,,,,,,sub-184,1,stroop_test,,
,,,,37.0,1.0,3.0,,,,,,,,,,,,,rot,red,r,1.0,r,1.0,0.6540534590021707,,,,,,,,,,3.0,1.0,37.0,1.0,187.6685216670012,,,,,,,,,,,,,,,,,187.65948637500333,188.8565478340024,189.65321116700213,189.64088362500115,,,,,,,,,,,,,,,,,,,,,,,,,,,,,,,,,,,189.64562662500248,189.65321116700213,189.65321116700213,190.32051954200145,r,1.0,0.6540534590021707,,,,,,sub-184,1,stroop_test,,
,,,,38.0,2.0,3.0,,,,,,,,,,,,,rot,blue,b,0.0,b,1.0,1.2868985409986635,,,,,,,,,,3.0,2.0,38.0,2.0,190.32548629200028,,,,,,,,,,,,,,,,,190.3209436670004,191.5129144590028,192.30506225000136,192.2959615840009,,,,,,,,,,,,,,,,,,,,,,,,,,,,,,,,,,,192.2966987500004,192.30506225000136,192.30506225000136,193.5981622500003,b,1.0,1.2868985409986635,,,,,,sub-184,1,stroop_test,,
,,,,39.0,3.0,3.0,,,,,,,,,,,,,blau,blue,b,1.0,b,1.0,0.5275706659995194,,,,,,,,,,3.0,3.0,39.0,5.0,193.6090184170025,,,,,,,,,,,,,,,,,193.5988164170012,193.69536758400136,194.49184762500224,194.48004291700272,,,,,,,,,,,,,,,,,,,,,,,,,,,,,,,,,,,194.48390983400168,194.49184762500224,194.49184762500224,195.02508125000168,b,1.0,0.5275706659995194,,,,,,sub-184,1,stroop_test,,
,,,,40.0,4.0,3.0,,,,,,,,,,,,,gelb,yellow,g,1.0,g,1.0,0.922105666999414,,,,,,,,,,3.0,4.0,40.0,10.0,195.03428733400145,,,,,,,,,,,,,,,,,195.0256540420014,195.82321204200343,196.6183780840001,196.60729308400187,,,,,,,,,,,,,,,,,,,,,,,,,,,,,,,,,,,196.6111897090013,196.6183780840001,196.6183780840001,197.55294195900208,g,1.0,0.922105666999414,,,,,,sub-184,1,stroop_test,,
,,,,41.0,5.0,3.0,,,,,,,,,,,,,gelb,yellow,g,1.0,g,1.0,0.6798841659983736,,,,,,,,,,3.0,5.0,41.0,11.0,197.558196209,,,,,,,,,,,,,,,,,197.55340812500071,197.6451508340033,198.43837450000137,198.42984912500103,,,,,,,,,,,,,,,,,,,,,,,,,,,,,,,,,,,198.43043408400263,198.43837450000137,198.43837450000137,199.1250432500019,g,1.0,0.6798841659983736,,,,,,sub-184,1,stroop_test,,
,,,,42.0,6.0,3.0,,,,,,,,,,,,,blau,yellow,g,0.0,g,1.0,1.1046898329987016,,,,,,,,,,3.0,6.0,42.0,7.0,199.1347864590025,,,,,,,,,,,,,,,,,199.12571391700112,199.22306225000284,200.0200996670028,200.007327542,,,,,,,,,,,,,,,,,,,,,,,,,,,,,,,,,,,200.0130057500028,200.0200996670028,200.0200996670028,201.1358862920024,g,1.0,1.1046898329987016,,,,,,sub-184,1,stroop_test,,
,,,,43.0,7.0,3.0,,,,,,,,,,,,,rot,yellow,g,0.0,g,1.0,0.6263685000012629,,,,,,,,,,3.0,7.0,43.0,3.0,201.1417770420012,,,,,,,,,,,,,,,,,201.13638658400305,201.2288252090002,202.024561000002,202.0128693750012,,,,,,,,,,,,,,,,,,,,,,,,,,,,,,,,,,,202.01651895900068,202.024561000002,202.024561000002,202.65838145900125,g,1.0,0.6263685000012629,,,,,,sub-184,1,stroop_test,,
,,,,44.0,8.0,3.0,,,,,,,,,,,,,rot,red,r,1.0,r,1.0,0.6687177499989048,,,,,,,,,,3.0,8.0,44.0,0.0,202.66670287500165,,,,,,,,,,,,,,,,,202.6589878750019,203.8566175420019,204.64877795900247,204.6406638340013,,,,,,,,,,,,,,,,,,,,,,,,,,,,,,,,,,,204.6414436250016,204.64877795900247,204.64877795900247,205.32493329200224,r,1.0,0.6687177499989048,,,,,,sub-184,1,stroop_test,,
,,,,45.0,9.0,3.0,,,,,,,,,,,,,blau,blue,b,1.0,b,1.0,0.5093392090020643,,,,,,,,,,3.0,9.0,45.0,6.0,205.33337937500252,,,,,,,,,,,,,,,,,205.3254949590009,205.67316320900136,206.46899445900272,206.4573826670021,,,,,,,,,,,,,,,,,,,,,,,,,,,,,,,,,,,206.46183400000157,206.46899445900272,206.46899445900272,206.98082070900276,b,1.0,0.5093392090020643,,,,,,sub-184,1,stroop_test,,
,,,,46.0,10.0,3.0,,,,,,,,,,,,,gelb,blue,b,0.0,b,1.0,0.4889532500019413,,,,,,,,,,3.0,10.0,46.0,9.0,206.98829087500053,,,,,,,,,,,,,,,,,206.9812245840003,207.77975275000065,208.5852998750015,208.573912459,,,,,,,,,,,,,,,,,,,,,,,,,,,,,,,,,,,208.5782768340032,208.5852998750015,208.5852998750015,209.08482016700145,b,1.0,0.4889532500019413,,,,,,sub-184,1,stroop_test,,
,,,,47.0,11.0,3.0,,,,,,,,,,,,,blau,red,r,0.0,r,1.0,0.7446771249997255,,,,,,,,,,3.0,11.0,47.0,4.0,209.08898191700064,,,,,,,,,,,,,,,,,209.08515425000223,209.88030845899996,210.68535533400063,210.6738642090022,,,,,,,,,,,,,,,,,,,,,,,,,,,,,,,,,,,210.67844933400195,210.68535533400063,210.68535533400063,211.4410178750004,r,1.0,0.7446771249997255,,,,,,sub-184,1,stroop_test,,
,,,,48.0,0.0,4.0,,,,,,,,,,,,,gelb,red,r,0.0,r,1.0,0.4655214170015824,,,,,,,,,,4.0,0.0,48.0,8.0,211.44669541700205,,,,,,,,,,,,,,,,,211.4416585420004,211.78992029200165,212.58500325000205,212.5739544590033,,,,,,,,,,,,,,,,,,,,,,,,,,,,,,,,,,,212.57783162500343,212.58500325000205,212.58500325000205,213.05859179200343,r,1.0,0.4655214170015824,,,,,,sub-184,1,stroop_test,,
,,,,49.0,1.0,4.0,,,,,,,,,,,,,gelb,yellow,g,1.0,b,0.0,0.6018181660001574,,,,,,,,,,4.0,1.0,49.0,10.0,213.0681423340029,,,,,,,,,,,,,,,,,213.0591924170003,213.1565345420022,213.947849209002,213.9405976670023,,,,,,,,,,,,,,,,,,,,,,,,,,,,,,,,,,,213.94133720900209,213.947849209002,213.947849209002,214.55862220900235,b,0.0,0.6018181660001574,,,,,,sub-184,1,stroop_test,,
,,,,50.0,2.0,4.0,,,,,,,,,,,,,gelb,blue,b,0.0,b,1.0,1.260287041997799,,,,,,,,,,4.0,2.0,50.0,9.0,214.56790812500185,,,,,,,,,,,,,,,,,214.55924495900035,215.7566002090025,216.548400417003,216.5408464170032,,,,,,,,,,,,,,,,,,,,,,,,,,,,,,,,,,,216.54145616700043,216.548400417003,216.548400417003,217.81366750000237,b,1.0,1.260287041997799,,,,,,sub-184,1,stroop_test,,
,,,,51.0,3.0,4.0,,,,,,,,,,,,,rot,red,r,1.0,r,1.0,0.6598883750011737,,,,,,,,,,4.0,3.0,51.0,1.0,217.82152354200295,,,,,,,,,,,,,,,,,217.8141390000019,218.1627547090029,218.95921612500024,218.9462707920029,,,,,,,,,,,,,,,,,,,,,,,,,,,,,,,,,,,218.95158595900284,218.95921612500024,218.95921612500024,219.62476258400056,r,1.0,0.6598883750011737,,,,,,sub-184,1,stroop_test,,
,,,,52.0,4.0,4.0,,,,,,,,,,,,,blau,red,r,0.0,r,1.0,0.6059921250016487,,,,,,,,,,4.0,4.0,52.0,4.0,219.63263383400044,,,,,,,,,,,,,,,,,219.62513533400124,219.9732530000001,220.768049084003,220.7570877090002,,,,,,,,,,,,,,,,,,,,,,,,,,,,,,,,,,,220.76102908400208,220.768049084003,220.768049084003,221.37720583400005,r,1.0,0.6059921250016487,,,,,,sub-184,1,stroop_test,,
,,,,53.0,5.0,4.0,,,,,,,,,,,,,rot,red,r,1.0,r,1.0,0.5741692079973291,,,,,,,,,,4.0,5.0,53.0,0.0,221.388040834001,,,,,,,,,,,,,,,,,221.37799712500052,222.57323637500303,223.36908308400237,223.3573113340026,,,,,,,,,,,,,,,,,,,,,,,,,,,,,,,,,,,223.3618970000025,223.36908308400237,223.36908308400237,223.94795050000172,r,1.0,0.5741692079973291,,,,,,sub-184,1,stroop_test,,
,,,,54.0,6.0,4.0,,,,,,,,,,,,,blau,blue,b,1.0,b,1.0,0.5179984999995213,,,,,,,,,,4.0,6.0,54.0,5.0,223.95880358400245,,,,,,,,,,,,,,,,,223.9485103340012,224.29593083400323,225.10612500000207,225.0792871670019,,,,,,,,,,,,,,,,,,,,,,,,,,,,,,,,,,,225.08296516700284,225.10612500000207,225.10612500000207,225.63512475000243,b,1.0,0.5179984999995213,,,,,,sub-184,1,stroop_test,,
,,,,55.0,7.0,4.0,,,,,,,,,,,,,rot,blue,b,0.0,b,1.0,0.9496466250020604,,,,,,,,,,4.0,7.0,55.0,2.0,225.64163462500076,,,,,,,,,,,,,,,,,225.63568987500184,226.82952037500215,227.62485833400208,227.61327337500188,,,,,,,,,,,,,,,,,,,,,,,,,,,,,,,,,,,227.61708,227.62485833400208,227.62485833400208,228.58754595900243,b,1.0,0.9496466250020604,,,,,,sub-184,1,stroop_test,,
,,,,56.0,8.0,4.0,,,,,,,,,,,,,blau,blue,b,1.0,b,1.0,0.5713462499988964,,,,,,,,,,4.0,8.0,56.0,6.0,228.592063125001,,,,,,,,,,,,,,,,,228.58801545900133,228.9294135420023,229.72470541700025,229.7131289170029,,,,,,,,,,,,,,,,,,,,,,,,,,,,,,,,,,,229.7167577920009,229.72470541700025,229.72470541700025,230.29857287500272,b,1.0,0.5713462499988964,,,,,,sub-184,1,stroop_test,,
,,,,57.0,9.0,4.0,,,,,,,,,,,,,rot,yellow,g,0.0,g,1.0,0.8594347090001975,,,,,,,,,,4.0,9.0,57.0,3.0,230.30896466700145,,,,,,,,,,,,,,,,,230.2993030840007,231.4957533750021,232.29152558400165,232.28002950000155,,,,,,,,,,,,,,,,,,,,,,,,,,,,,,,,,,,232.283634792002,232.29152558400165,232.29152558400165,233.1587297920014,g,1.0,0.8594347090001975,,,,,,sub-184,1,stroop_test,,
,,,,58.0,10.0,4.0,,,,,,,,,,,,,gelb,yellow,g,1.0,g,1.0,0.7492132089973893,,,,,,,,,,4.0,10.0,58.0,11.0,233.1690190420013,,,,,,,,,,,,,,,,,233.1594076670008,234.35646937500127,235.15289904200108,235.1403910000008,,,,,,,,,,,,,,,,,,,,,,,,,,,,,,,,,,,235.14609108400327,235.15289904200108,235.15289904200108,235.90869404200205,g,1.0,0.7492132089973893,,,,,,sub-184,1,stroop_test,,
,,,,59.0,11.0,4.0,,,,,,,,,,,,,blau,yellow,g,0.0,g,1.0,0.7858203750001849,,,,,,,,,,4.0,11.0,59.0,7.0,235.91915395900287,,,,,,,,,,,,,,,,,235.90935879200333,236.70678758400027,237.50101808399995,237.4906777920005,,,,,,,,,,,,,,,,,,,,,,,,,,,,,,,,,,,237.493826209,237.50101808399995,237.50101808399995,238.29141329200135,g,1.0,0.7858203750001849,,,,,,sub-184,1,stroop_test,,
,,,,60.0,0.0,5.0,,,,,,,,,,,,,rot,yellow,g,0.0,g,1.0,0.521582875000604,,,,,,,,,,5.0,0.0,60.0,3.0,238.29968558400287,,,,,,,,,,,,,,,,,238.29193495900108,239.0901655000016,239.88561145900167,239.87413108400145,,,,,,,,,,,,,,,,,,,,,,,,,,,,,,,,,,,239.87818733400127,239.88561145900167,239.88561145900167,240.4190191250018,g,1.0,0.521582875000604,,,,,,sub-184,1,stroop_test,,
,,,,61.0,1.0,5.0,,,,,,,,,,,,,blau,yellow,g,0.0,g,1.0,0.4931647919984243,,,,,,,,,,5.0,1.0,61.0,7.0,240.42444004200297,,,,,,,,,,,,,,,,,240.419464417002,240.76254941700245,241.55806954200307,241.54652945900307,,,,,,,,,,,,,,,,,,,,,,,,,,,,,,,,,,,241.55020166700345,241.55806954200307,241.55806954200307,242.0584163340027,g,1.0,0.4931647919984243,,,,,,sub-184,1,stroop_test,,
,,,,62.0,2.0,5.0,,,,,,,,,,,,,gelb,yellow,g,1.0,g,1.0,0.5729922919999808,,,,,,,,,,5.0,2.0,62.0,10.0,242.0680024170033,,,,,,,,,,,,,,,,,242.05907216700143,242.8563857090012,243.6513896250035,243.6405069170032,,,,,,,,,,,,,,,,,,,,,,,,,,,,,,,,,,,243.64431133400285,243.6513896250035,243.6513896250035,244.2348547090005,g,1.0,0.5729922919999808,,,,,,sub-184,1,stroop_test,,
,,,,63.0,3.0,5.0,,,,,,,,,,,,,gelb,yellow,g,1.0,g,1.0,0.4565089169991552,,,,,,,,,,5.0,3.0,63.0,11.0,244.2411711670029,,,,,,,,,,,,,,,,,244.2353971670018,244.32880345900048,245.12306570900185,245.112330750002,,,,,,,,,,,,,,,,,,,,,,,,,,,,,,,,,,,245.11280925000028,245.12306570900185,245.12306570900185,245.5819308340033,g,1.0,0.4565089169991552,,,,,,sub-184,1,stroop_test,,
,,,,64.0,4.0,5.0,,,,,,,,,,,,,rot,red,r,1.0,r,1.0,0.700056041998323,,,,,,,,,,5.0,4.0,64.0,1.0,245.59180191700216,,,,,,,,,,,,,,,,,245.5824840420028,246.37953887500043,247.1748756670022,247.1626896250018,,,,,,,,,,,,,,,,,,,,,,,,,,,,,,,,,,,247.1663015840022,247.1748756670022,247.1748756670022,247.88007579200348,r,1.0,0.700056041998323,,,,,,sub-184,1,stroop_test,,
,,,,65.0,5.0,5.0,,,,,,,,,,,,,rot,red,r,1.0,r,1.0,0.5879267499985872,,,,,,,,,,5.0,5.0,65.0,0.0,247.88835087500047,,,,,,,,,,,,,,,,,247.8805318750019,247.97940425000343,248.77188229200328,248.7626062090021,,,,,,,,,,,,,,,,,,,,,,,,,,,,,,,,,,,248.76317479200225,248.77188229200328,248.77188229200328,249.3637457090008,r,1.0,0.5879267499985872,,,,,,sub-184,1,stroop_test,,
,,,,66.0,6.0,5.0,,,,,,,,,,,,,gelb,red,r,0.0,r,1.0,0.6751934589992743,,,,,,,,,,5.0,6.0,66.0,8.0,249.3723227920018,,,,,,,,,,,,,,,,,249.3642546250012,249.7127762090022,250.51577604200065,250.50638354200052,,,,,,,,,,,,,,,,,,,,,,,,,,,,,,,,,,,250.5101296250032,250.51577604200065,250.51577604200065,251.2034478750029,r,1.0,0.6751934589992743,,,,,,sub-184,1,stroop_test,,
,,,,67.0,7.0,5.0,,,,,,,,,,,,,rot,blue,b,0.0,b,1.0,0.817749083002127,,,,,,,,,,5.0,7.0,67.0,2.0,251.2086199170008,,,,,,,,,,,,,,,,,251.203952459,251.2954316250034,252.09363629200016,252.07982991700192,,,,,,,,,,,,,,,,,,,,,,,,,,,,,,,,,,,252.0872378750028,252.09363629200016,252.09363629200016,252.91462833400143,b,1.0,0.817749083002127,,,,,,sub-184,1,stroop_test,,
,,,,68.0,8.0,5.0,,,,,,,,,,,,,blau,blue,b,1.0,b,1.0,0.6019659169978695,,,,,,,,,,5.0,8.0,68.0,5.0,252.9257356670023,,,,,,,,,,,,,,,,,252.91518383400037,253.71314454200183,254.5185825840017,254.5072745840007,,,,,,,,,,,,,,,,,,,,,,,,,,,,,,,,,,,254.51127520900263,254.5185825840017,254.5185825840017,255.1246287920003,b,1.0,0.6019659169978695,,,,,,sub-184,1,stroop_test,,
,,,,69.0,9.0,5.0,,,,,,,,,,,,,blau,red,r,0.0,r,1.0,1.2257044580001093,,,,,,,,,,5.0,9.0,69.0,4.0,255.133181125002,,,,,,,,,,,,,,,,,255.12520525000215,255.47317008400205,256.2648040000022,256.2572926250032,,,,,,,,,,,,,,,,,,,,,,,,,,,,,,,,,,,256.2580452500006,256.2648040000022,256.2648040000022,257.50315595900247,r,1.0,1.2257044580001093,,,,,,sub-184,1,stroop_test,,
,,,,70.0,10.0,5.0,,,,,,,,,,,,,gelb,blue,b,0.0,b,1.0,0.8172115000015765,,,,,,,,,,5.0,10.0,70.0,9.0,257.50774670900137,,,,,,,,,,,,,,,,,257.5036247920034,258.6962432920009,259.4914705420015,259.4797911250025,,,,,,,,,,,,,,,,,,,,,,,,,,,,,,,,,,,259.48341829200217,259.4914705420015,259.4914705420015,260.31404933400336,b,1.0,0.8172115000015765,,,,,,sub-184,1,stroop_test,,
,,,,71.0,11.0,5.0,,,,,,,,,,,,,blau,blue,b,1.0,b,1.0,0.7233356249998906,,,,,,,,,,5.0,11.0,71.0,6.0,260.32488166700205,,,,,,,,,,,,,,,,,260.3146003340007,261.5135258750015,262.3188751250018,262.3072340840008,,,,,,,,,,,,,,,,,,,,,,,,,,,,,,,,,,,262.311751084002,262.3188751250018,262.3188751250018,263.0475411670013,b,1.0,0.7233356249998906,,,,,,sub-184,1,stroop_test,,
,,,,72.0,0.0,6.0,,,,,,,,,,,,,blau,yellow,g,0.0,g,1.0,0.9955087089983864,,,,,,,,,,6.0,0.0,72.0,7.0,263.0583403340024,,,,,,,,,,,,,,,,,263.0480774170028,263.3967730840013,264.1882556670025,264.18024133400104,,,,,,,,,,,,,,,,,,,,,,,,,,,,,,,,,,,264.1808035840004,264.1882556670025,264.1882556670025,265.19167620900043,g,1.0,0.9955087089983864,,,,,,sub-184,1,stroop_test,,
,,,,73.0,1.0,6.0,,,,,,,,,,,,,blau,blue,b,1.0,b,1.0,0.6715075000029174,,,,,,,,,,6.0,1.0,73.0,6.0,265.2017689170025,,,,,,,,,,,,,,,,,265.19225804200323,265.53984666700126,266.33208708400343,266.3244129170016,,,,,,,,,,,,,,,,,,,,,,,,,,,,,,,,,,,266.32522141700247,266.33208708400343,266.33208708400343,267.0082295000029,b,1.0,0.6715075000029174,,,,,,sub-184,1,stroop_test,,
,,,,74.0,2.0,6.0,,,,,,,,,,,,,gelb,yellow,g,1.0,g,1.0,0.7492631249988335,,,,,,,,,,6.0,2.0,74.0,11.0,267.0181180840009,,,,,,,,,,,,,,,,,267.0088402500005,267.806579125001,268.6015434590008,268.5904116670026,,,,,,,,,,,,,,,,,,,,,,,,,,,,,,,,,,,268.59431508400303,268.6015434590008,268.6015434590008,269.3584902920011,g,1.0,0.7492631249988335,,,,,,sub-184,1,stroop_test,,
,,,,75.0,3.0,6.0,,,,,,,,,,,,,rot,yellow,g,0.0,g,1.0,0.7376121670022258,,,,,,,,,,6.0,3.0,75.0,3.0,269.36877254200226,,,,,,,,,,,,,,,,,269.35915704200306,270.55650500000047,271.3523545840035,271.3407188750025,,,,,,,,,,,,,,,,,,,,,,,,,,,,,,,,,,,271.3452450420009,271.3523545840035,271.3523545840035,272.0922894590003,g,1.0,0.7376121670022258,,,,,,sub-184,1,stroop_test,,
,,,,76.0,4.0,6.0,,,,,,,,,,,,,gelb,yellow,g,1.0,g,1.0,0.6313377910009876,,,,,,,,,,6.0,4.0,76.0,10.0,272.1027698750004,,,,,,,,,,,,,,,,,272.0930259170018,272.8898359170016,273.6871726670033,273.6738567920001,,,,,,,,,,,,,,,,,,,,,,,,,,,,,,,,,,,273.6800984170004,273.6871726670033,273.6871726670033,274.3251013750014,g,1.0,0.6313377910009876,,,,,,sub-184,1,stroop_test,,
,,,,77.0,5.0,6.0,,,,,,,,,,,,,rot,blue,b,0.0,b,1.0,1.104820667002059,,,,,,,,,,6.0,5.0,77.0,2.0,274.3354072090005,,,,,,,,,,,,,,,,,274.3257032500005,275.52313591700295,276.31903216700084,276.3073951250008,,,,,,,,,,,,,,,,,,,,,,,,,,,,,,,,,,,276.31183254200005,276.31903216700084,276.31903216700084,277.4349788750005,b,1.0,1.104820667002059,,,,,,sub-184,1,stroop_test,,
,,,,78.0,6.0,6.0,,,,,,,,,,,,,blau,blue,b,1.0,b,1.0,0.5152593749990046,,,,,,,,,,6.0,6.0,78.0,5.0,277.45616987500034,,,,,,,,,,,,,,,,,277.4354378340031,277.52869141700285,278.3252360840015,278.3136679590025,,,,,,,,,,,,,,,,,,,,,,,,,,,,,,,,,,,278.3174462920033,278.3252360840015,278.3252360840015,278.8532992090004,b,1.0,0.5152593749990046,,,,,,sub-184,1,stroop_test,,
,,,,79.0,7.0,6.0,,,,,,,,,,,,,gelb,red,r,0.0,r,1.0,0.690105792000395,,,,,,,,,,6.0,7.0,79.0,8.0,278.8579481250017,,,,,,,,,,,,,,,,,278.85373808400254,280.04592220900304,280.8560777090024,280.82950212500145,,,,,,,,,,,,,,,,,,,,,,,,,,,,,,,,,,,280.8330715420016,280.8560777090024,280.8560777090024,281.54834304200267,r,1.0,0.690105792000395,,,,,,sub-184,1,stroop_test,,
,,,,80.0,8.0,6.0,,,,,,,,,,,,,blau,red,r,0.0,r,1.0,0.6435569580025913,,,,,,,,,,6.0,8.0,80.0,4.0,281.5586290420033,,,,,,,,,,,,,,,,,281.5489301250018,282.74650575000123,283.5520626670004,283.54048350000085,,,,,,,,,,,,,,,,,,,,,,,,,,,,,,,,,,,283.5450089170008,283.5520626670004,283.5520626670004,284.19772283400016,r,1.0,0.6435569580025913,,,,,,sub-184,1,stroop_test,,
,,,,81.0,9.0,6.0,,,,,,,,,,,,,gelb,blue,b,0.0,b,1.0,0.8331152499995369,,,,,,,,,,6.0,9.0,81.0,9.0,284.20818691700333,,,,,,,,,,,,,,,,,284.19828637500177,285.39662362500167,286.1915339170009,286.1797195420004,,,,,,,,,,,,,,,,,,,,,,,,,,,,,,,,,,,286.1834418340004,286.1915339170009,286.1915339170009,287.0277355420003,b,1.0,0.8331152499995369,,,,,,sub-184,1,stroop_test,,
,,,,82.0,10.0,6.0,,,,,,,,,,,,,rot,red,r,1.0,r,1.0,0.9714273329991556,,,,,,,,,,6.0,10.0,82.0,1.0,287.03776262500105,,,,,,,,,,,,,,,,,287.0284482920033,287.12300370900266,287.9193244170019,287.90744675000315,,,,,,,,,,,,,,,,,,,,,,,,,,,,,,,,,,,287.9120230000008,287.9193244170019,287.9193244170019,288.9021969170026,r,1.0,0.9714273329991556,,,,,,sub-184,1,stroop_test,,
,,,,83.0,11.0,6.0,,,,,,,,,,,,,rot,red,r,1.0,r,1.0,0.5255168749972654,,,,,,,,,,6.0,11.0,83.0,0.0,288.9079395000008,,,,,,,,,,,,,,,,,288.902674459001,289.69617091700275,290.4882256250021,290.4797223750029,,,,,,,,,,,,,,,,,,,,,,,,,,,,,,,,,,,290.4802765000022,290.4882256250021,290.4882256250021,291.02492320900274,r,1.0,0.5255168749972654,,,,,,sub-184,1,stroop_test,,
,,,,84.0,0.0,7.0,,,,,,,,,,,,,rot,red,r,1.0,r,1.0,0.4629641249994165,,,,,,,,,,7.0,0.0,84.0,1.0,291.030443959,,,,,,,,,,,,,,,,,291.0253908750019,291.373053542,292.1650543750002,292.15739250000115,,,,,,,,,,,,,,,,,,,,,,,,,,,,,,,,,,,292.1581236250022,292.1650543750002,292.1650543750002,292.63073495900244,r,1.0,0.4629641249994165,,,,,,sub-184,1,stroop_test,,
,,,,85.0,1.0,7.0,,,,,,,,,,,,,rot,blue,b,0.0,b,1.0,0.9745781250021536,,,,,,,,,,7.0,1.0,85.0,2.0,292.6414636670015,,,,,,,,,,,,,,,,,292.63125200000286,293.4300229590008,294.222356667,294.21358300000065,,,,,,,,,,,,,,,,,,,,,,,,,,,,,,,,,,,294.21416983400195,294.222356667,294.222356667,295.2076172920024,b,1.0,0.9745781250021536,,,,,,sub-184,1,stroop_test,,
,,,,86.0,2.0,7.0,,,,,,,,,,,,,blau,yellow,g,0.0,g,1.0,0.8601244170022255,,,,,,,,,,7.0,2.0,86.0,7.0,295.2130830000024,,,,,,,,,,,,,,,,,295.2080937500032,295.3064268750022,296.1019766670033,296.0905980000025,,,,,,,,,,,,,,,,,,,,,,,,,,,,,,,,,,,296.09515529200144,296.1019766670033,296.1019766670033,296.964290750002,g,1.0,0.8601244170022255,,,,,,sub-184,1,stroop_test,,
,,,,87.0,3.0,7.0,,,,,,,,,,,,,blau,blue,b,1.0,b,1.0,0.5384249170019757,,,,,,,,,,7.0,3.0,87.0,6.0,296.9749700420034,,,,,,,,,,,,,,,,,296.96487566700307,297.0620965420021,297.8557091670009,297.8457776670002,,,,,,,,,,,,,,,,,,,,,,,,,,,,,,,,,,,297.8463577090006,297.8557091670009,297.8557091670009,298.39744254200195,b,1.0,0.5384249170019757,,,,,,sub-184,1,stroop_test,,
,,,,88.0,4.0,7.0,,,,,,,,,,,,,gelb,red,r,0.0,r,1.0,1.1839342919993214,,,,,,,,,,7.0,4.0,88.0,8.0,298.4062192090023,,,,,,,,,,,,,,,,,298.3979590420022,298.4948506670007,299.3060686250028,299.2791040420016,,,,,,,,,,,,,,,,,,,,,,,,,,,,,,,,,,,299.2828537500027,299.3060686250028,299.3060686250028,300.49253208400114,r,1.0,1.1839342919993214,,,,,,sub-184,1,stroop_test,,
,,,,89.0,5.0,7.0,,,,,,,,,,,,,rot,yellow,g,0.0,g,1.0,0.8547891250018438,,,,,,,,,,7.0,5.0,89.0,3.0,300.5024925000034,,,,,,,,,,,,,,,,,300.49325445900104,300.5897434590006,301.3855672500031,301.3739716670025,,,,,,,,,,,,,,,,,,,,,,,,,,,,,,,,,,,301.37803258400163,301.3855672500031,301.3855672500031,302.2536470840023,g,1.0,0.8547891250018438,,,,,,sub-184,1,stroop_test,,
,,,,90.0,6.0,7.0,,,,,,,,,,,,,blau,red,r,0.0,r,1.0,0.993458583001484,,,,,,,,,,7.0,6.0,90.0,4.0,302.25807366700246,,,,,,,,,,,,,,,,,302.25408550000066,302.3442938340013,303.14138358400305,303.1295110420033,,,,,,,,,,,,,,,,,,,,,,,,,,,,,,,,,,,303.1335500840032,303.14138358400305,303.14138358400305,304.1416240840008,r,1.0,0.993458583001484,,,,,,sub-184,1,stroop_test,,
,,,,91.0,7.0,7.0,,,,,,,,,,,,,gelb,yellow,g,1.0,g,1.0,0.7596800419996725,,,,,,,,,,7.0,7.0,91.0,11.0,304.151542167001,,,,,,,,,,,,,,,,,304.14220775000285,304.48983862500245,305.2853517090007,305.2739097090016,,,,,,,,,,,,,,,,,,,,,,,,,,,,,,,,,,,305.27806170900294,305.2853517090007,305.2853517090007,306.0476310000013,g,1.0,0.7596800419996725,,,,,,sub-184,1,stroop_test,,
,,,,92.0,8.0,7.0,,,,,,,,,,,,,gelb,blue,b,0.0,b,1.0,0.6688067909999518,,,,,,,,,,7.0,8.0,92.0,9.0,306.0579046670028,,,,,,,,,,,,,,,,,306.048200084002,307.24682970900176,308.04777025000294,308.04033933400206,,,,,,,,,,,,,,,,,,,,,,,,,,,,,,,,,,,308.0410650420017,308.04777025000294,308.04777025000294,308.7247126250004,b,1.0,0.6688067909999518,,,,,,sub-184,1,stroop_test,,
,,,,93.0,9.0,7.0,,,,,,,,,,,,,gelb,yellow,g,1.0,g,1.0,0.650161958001263,,,,,,,,,,7.0,9.0,93.0,10.0,308.7323540840007,,,,,,,,,,,,,,,,,308.7252267500008,309.5231297090031,310.3144475840017,310.3070346670029,,,,,,,,,,,,,,,,,,,,,,,,,,,,,,,,,,,310.3076419590034,310.3144475840017,310.3144475840017,310.97484920900024,g,1.0,0.650161958001263,,,,,,sub-184,1,stroop_test,,
,,,,94.0,10.0,7.0,,,,,,,,,,,,,rot,red,r,1.0,r,1.0,0.8412530410023464,,,,,,,,,,7.0,10.0,94.0,0.0,310.9854715420006,,,,,,,,,,,,,,,,,310.97550391700133,311.32317283400334,312.11791729200195,312.107347000001,,,,,,,,,,,,,,,,,,,,,,,,,,,,,,,,,,,312.1107249170018,312.11791729200195,312.11791729200195,312.96440925000206,r,1.0,0.8412530410023464,,,,,,sub-184,1,stroop_test,,
,,,,95.0,11.0,7.0,,,,,,,,,,,,,blau,blue,b,1.0,b,1.0,0.9582395830002496,,,,,,,,,,7.0,11.0,95.0,5.0,312.97490170900346,,,,,,,,,,,,,,,,,312.9649874170027,313.0620763340012,313.858531959002,313.8465457090024,,,,,,,,,,,,,,,,,,,,,,,,,,,,,,,,,,,313.85129395900003,313.858531959002,313.858531959002,314.82489779200114,b,1.0,0.9582395830002496,,,,,,sub-184,1,stroop_test,,
,,,,96.0,0.0,8.0,,,,,,,,,,,,,rot,yellow,g,0.0,g,1.0,1.2332947089998925,,,,,,,,,,8.0,0.0,96.0,3.0,314.83568008400107,,,,,,,,,,,,,,,,,314.8255442920017,315.62315666700306,316.418683584001,316.40726150000046,,,,,,,,,,,,,,,,,,,,,,,,,,,,,,,,,,,316.4112721670026,316.418683584001,316.418683584001,317.6581665840022,g,1.0,1.2332947089998925,,,,,,sub-184,1,stroop_test,,
,,,,97.0,1.0,8.0,,,,,,,,,,,,,blau,blue,b,1.0,b,1.0,0.6420421250004438,,,,,,,,,,8.0,1.0,97.0,5.0,317.6688570840015,,,,,,,,,,,,,,,,,317.6587669170003,318.45649116700224,319.2517844590002,319.24054841700126,,,,,,,,,,,,,,,,,,,,,,,,,,,,,,,,,,,319.2445793340012,319.2517844590002,319.2517844590002,319.8975241670014,b,1.0,0.6420421250004438,,,,,,sub-184,1,stroop_test,,
,,,,98.0,2.0,8.0,,,,,,,,,,,,,blau,yellow,g,0.0,g,1.0,0.7319559579991619,,,,,,,,,,8.0,2.0,98.0,7.0,319.90826683400155,,,,,,,,,,,,,,,,,319.89809604200127,320.6937841250001,321.4883270000028,321.47970029200224,,,,,,,,,,,,,,,,,,,,,,,,,,,,,,,,,,,321.48034716700204,321.4883270000028,321.4883270000028,322.2250889590032,g,1.0,0.7319559579991619,,,,,,sub-184,1,stroop_test,,
,,,,99.0,3.0,8.0,,,,,,,,,,,,,gelb,red,r,0.0,r,1.0,1.1984635000007984,,,,,,,,,,8.0,3.0,99.0,8.0,322.2342830840025,,,,,,,,,,,,,,,,,322.22566883400214,322.3234697920016,323.1175673750004,323.1070649590001,,,,,,,,,,,,,,,,,,,,,,,,,,,,,,,,,,,323.11036679200333,323.1175673750004,323.1175673750004,324.324774834,r,1.0,1.1984635000007984,,,,,,sub-184,1,stroop_test,,
,,,,100.0,4.0,8.0,,,,,,,,,,,,,gelb,yellow,g,1.0,g,1.0,0.6670115830020222,,,,,,,,,,8.0,4.0,100.0,11.0,324.3329202090026,,,,,,,,,,,,,,,,,324.3253707090007,324.4233083750005,325.2145206250025,325.2071577920033,,,,,,,,,,,,,,,,,,,,,,,,,,,,,,,,,,,325.2077389170008,325.2145206250025,325.2145206250025,325.8914961670016,g,1.0,0.6670115830020222,,,,,,sub-184,1,stroop_test,,
,,,,101.0,5.0,8.0,,,,,,,,,,,,,rot,red,r,1.0,r,1.0,0.8706238749982731,,,,,,,,,,8.0,5.0,101.0,1.0,325.89929566700084,,,,,,,,,,,,,,,,,325.8920260420018,326.2396393750023,327.0334202920021,327.02364987500187,,,,,,,,,,,,,,,,,,,,,,,,,,,,,,,,,,,327.02698983400114,327.0334202920021,327.0334202920021,327.9080970840005,r,1.0,0.8706238749982731,,,,,,sub-184,1,stroop_test,,
,,,,102.0,6.0,8.0,,,,,,,,,,,,,gelb,yellow,g,1.0,g,1.0,0.7798913339975115,,,,,,,,,,8.0,6.0,102.0,10.0,327.91607400000066,,,,,,,,,,,,,,,,,327.9085059590034,329.10640050000075,329.9017322090004,329.8906538750016,,,,,,,,,,,,,,,,,,,,,,,,,,,,,,,,,,,329.8946379170011,329.9017322090004,329.9017322090004,330.6917250000006,g,1.0,0.7798913339975115,,,,,,sub-184,1,stroop_test,,
,,,,103.0,7.0,8.0,,,,,,,,,,,,,rot,red,r,1.0,r,1.0,0.6704412910003157,,,,,,,,,,8.0,7.0,103.0,0.0,330.7011527090035,,,,,,,,,,,,,,,,,330.69230812500246,330.78980912500265,331.5864041670029,331.57366958400235,,,,,,,,,,,,,,,,,,,,,,,,,,,,,,,,,,,331.5790310000011,331.5864041670029,331.5864041670029,332.2596924590034,r,1.0,0.6704412910003157,,,,,,sub-184,1,stroop_test,,
,,,,104.0,8.0,8.0,,,,,,,,,,,,,rot,blue,b,0.0,b,1.0,0.9121224580012496,,,,,,,,,,8.0,8.0,104.0,2.0,332.2697306250011,,,,,,,,,,,,,,,,,332.26040191700304,333.0564025000021,333.8475536250007,333.84034120900105,,,,,,,,,,,,,,,,,,,,,,,,,,,,,,,,,,,333.8409673340029,333.8475536250007,333.8475536250007,334.763832167002,b,1.0,0.9121224580012496,,,,,,sub-184,1,stroop_test,,
,,,,105.0,9.0,8.0,,,,,,,,,,,,,blau,blue,b,1.0,b,1.0,0.4338410830023349,,,,,,,,,,8.0,9.0,105.0,6.0,334.77464858400344,,,,,,,,,,,,,,,,,334.7643592090026,335.5624318340015,336.3727378340009,336.3458790420009,,,,,,,,,,,,,,,,,,,,,,,,,,,,,,,,,,,336.3493624170005,336.3727378340009,336.3727378340009,336.809005334002,b,1.0,0.4338410830023349,,,,,,sub-184,1,stroop_test,,
,,,,106.0,10.0,8.0,,,,,,,,,,,,,blau,red,r,0.0,r,1.0,0.9641250839995336,,,,,,,,,,8.0,10.0,106.0,4.0,336.8191354590017,,,,,,,,,,,,,,,,,336.8097310000012,336.9067382920002,337.6977953340029,337.6904092090008,,,,,,,,,,,,,,,,,,,,,,,,,,,,,,,,,,,337.69102550000025,337.6977953340029,337.6977953340029,338.6645632920008,r,1.0,0.9641250839995336,,,,,,sub-184,1,stroop_test,,
,,,,107.0,11.0,8.0,,,,,,,,,,,,,gelb,blue,b,0.0,b,1.0,1.0104780000001483,,,,,,,,,,8.0,11.0,107.0,9.0,338.6745300840012,,,,,,,,,,,,,,,,,338.6651078750001,339.01311850000275,339.8084086670024,339.79683062500044,,,,,,,,,,,,,,,,,,,,,,,,,,,,,,,,,,,339.80060954200235,339.8084086670024,339.8084086670024,340.8251637500034,b,1.0,1.0104780000001483,,,,,,sub-184,1,stroop_test,,
,,,,108.0,0.0,9.0,,,,,,,,,,,,,gelb,blue,b,0.0,b,1.0,0.5591700830009358,,,,,,,,,,9.0,0.0,108.0,9.0,340.83503500000006,,,,,,,,,,,,,,,,,340.8258075420017,341.6233651250004,342.4142898340033,342.4070271670025,,,,,,,,,,,,,,,,,,,,,,,,,,,,,,,,,,,342.4076883750022,342.4142898340033,342.4142898340033,342.97596387500016,b,1.0,0.5591700830009358,,,,,,sub-184,1,stroop_test,,
,,,,109.0,1.0,9.0,,,,,,,,,,,,,rot,red,r,1.0,r,1.0,0.7544047080009477,,,,,,,,,,9.0,1.0,109.0,1.0,342.9863102090021,,,,,,,,,,,,,,,,,342.9766722500026,343.3230372090002,344.1188963750028,344.1071395420004,,,,,,,,,,,,,,,,,,,,,,,,,,,,,,,,,,,344.1116317090018,344.1188963750028,344.1188963750028,344.8759620420024,r,1.0,0.7544047080009477,,,,,,sub-184,1,stroop_test,,
,,,,110.0,2.0,9.0,,,,,,,,,,,,,gelb,yellow,g,1.0,g,1.0,0.6795080000010785,,,,,,,,,,9.0,2.0,110.0,11.0,344.8859959170004,,,,,,,,,,,,,,,,,344.87667733400303,345.22313870900325,346.0186037500025,346.0071831250025,,,,,,,,,,,,,,,,,,,,,,,,,,,,,,,,,,,346.01168908399995,346.0186037500025,346.0186037500025,346.7083247920018,g,1.0,0.6795080000010785,,,,,,sub-184,1,stroop_test,,
,,,,111.0,3.0,9.0,,,,,,,,,,,,,blau,red,r,0.0,r,1.0,0.7097785000005388,,,,,,,,,,9.0,3.0,111.0,4.0,346.71835250000004,,,,,,,,,,,,,,,,,346.7089335840028,347.5064506250019,348.3011512500016,348.2904090420016,,,,,,,,,,,,,,,,,,,,,,,,,,,,,,,,,,,348.2942728340022,348.3011512500016,348.3011512500016,349.01393675000145,r,1.0,0.7097785000005388,,,,,,sub-184,1,stroop_test,,
,,,,112.0,4.0,9.0,,,,,,,,,,,,,blau,yellow,g,0.0,g,1.0,1.1989875420003957,,,,,,,,,,9.0,4.0,112.0,7.0,349.02473612500035,,,,,,,,,,,,,,,,,349.01446545900035,349.1119657920026,349.9048015000008,349.89649612500216,,,,,,,,,,,,,,,,,,,,,,,,,,,,,,,,,,,349.89709762500206,349.9048015000008,349.9048015000008,351.10821070900056,g,1.0,1.1989875420003957,,,,,,sub-184,1,stroop_test,,
,,,,113.0,5.0,9.0,,,,,,,,,,,,,rot,blue,b,0.0,b,1.0,1.2921155410003848,,,,,,,,,,9.0,5.0,113.0,2.0,351.118259709001,,,,,,,,,,,,,,,,,351.1088295840018,352.30633120900166,353.10367033400325,353.09057487500104,,,,,,,,,,,,,,,,,,,,,,,,,,,,,,,,,,,353.0963235840027,353.10367033400325,353.10367033400325,354.3980013750006,b,1.0,1.2921155410003848,,,,,,sub-184,1,stroop_test,,
,,,,114.0,6.0,9.0,,,,,,,,,,,,,rot,yellow,g,0.0,r,0.0,0.6349233340006322,,,,,,,,,,9.0,6.0,114.0,3.0,354.408237292002,,,,,,,,,,,,,,,,,354.3986612500012,354.74661941700106,355.5487670000002,355.54087837500265,,,,,,,,,,,,,,,,,,,,,,,,,,,,,,,,,,,355.54195545900075,355.5487670000002,355.5487670000002,356.19169737500124,r,0.0,0.6349233340006322,,,,,,sub-184,1,stroop_test,,
,,,,115.0,7.0,9.0,,,,,,,,,,,,,blau,blue,b,1.0,b,1.0,0.5440797920018667,,,,,,,,,,9.0,7.0,115.0,6.0,356.2016577500035,,,,,,,,,,,,,,,,,356.1923564590033,356.53977933400165,357.33516154200333,357.3238469590033,,,,,,,,,,,,,,,,,,,,,,,,,,,,,,,,,,,357.328251834002,357.33516154200333,357.33516154200333,357.892102875001,b,1.0,0.5440797920018667,,,,,,sub-184,1,stroop_test,,
,,,,116.0,8.0,9.0,,,,,,,,,,,,,blau,blue,b,1.0,b,1.0,0.6092747909970058,,,,,,,,,,9.0,8.0,116.0,5.0,357.9063914170001,,,,,,,,,,,,,,,,,357.8924431250016,358.2396485420031,359.031378959,359.02382687499994,,,,,,,,,,,,,,,,,,,,,,,,,,,,,,,,,,,359.0245575000008,359.031378959,359.031378959,359.6517740840027,b,1.0,0.6092747909970058,,,,,,sub-184,1,stroop_test,,
,,,,117.0,9.0,9.0,,,,,,,,,,,,,rot,red,r,1.0,r,1.0,1.0953977910030517,,,,,,,,,,9.0,9.0,117.0,0.0,359.6578582090005,,,,,,,,,,,,,,,,,359.65217354200286,359.74522987500313,360.5560166250034,360.52929416700135,,,,,,,,,,,,,,,,,,,,,,,,,,,,,,,,,,,360.532814000002,360.5560166250034,360.5560166250034,361.658204542,r,1.0,1.0953977910030517,,,,,,sub-184,1,stroop_test,,
,,,,118.0,10.0,9.0,,,,,,,,,,,,,gelb,red,r,0.0,r,1.0,0.9314866250024352,,,,,,,,,,9.0,10.0,118.0,8.0,361.668322417001,,,,,,,,,,,,,,,,,361.6587927090004,362.8563975420002,363.6523640000014,363.640718542003,,,,,,,,,,,,,,,,,,,,,,,,,,,,,,,,,,,363.6451615840015,363.6523640000014,363.6523640000014,364.59156150000126,r,1.0,0.9314866250024352,,,,,,sub-184,1,stroop_test,,
,,,,119.0,11.0,9.0,,,,,,,,,,,,,gelb,yellow,g,1.0,g,1.0,0.7275651250020019,,,,,,,,,,9.0,11.0,119.0,10.0,364.6016225840031,,,,,,,,,,,,,,,,,364.5921425840024,364.9396977500001,365.7312387500024,365.7237929170005,,,,,,,,,,,,,,,,,,,,,,,,,,,,,,,,,,,365.7245359590015,365.7312387500024,365.7312387500024,366.4647344590012,g,1.0,0.7275651250020019,,,,,,sub-184,1,stroop_test,,
,,,,,,,,,,,,,,,,,,,,,,,,,,,,,,,,,,,,,,,,,,,,,,,,,,,,,,,,,,,,,,,,,,,,,,,,,,,,,,,,,,,,,,,,,,,,,,,,,,,,,,366.4650230840016,366.4775418750032,371.4730415840022,371.46224016700216,sub-184,1,stroop_test,,
