wordCTK,colorCTK,corrAnsCTK,congruentCTK,thisN,thisTrialN,thisRepN,keyResp_CTK.keys,keyResp_CTK.corr,keyResp_CTK.rt,keyResp_CTK.duration,wordPractice,colorPractice,corrAnsPractice,congruentPractice,respPractice.keys,respPractice.corr,respPractice.rt,respPractice.duration,word,color,corrAns,congruent,keyResp_test_run.keys,keyResp_test_run.corr,keyResp_test_run.rt,keyResp_test_run.duration,trials_CTK.thisRepN,trials_CTK.thisTrialN,trials_CTK.thisN,trials_CTK.thisIndex,trials_practice.thisRepN,trials_practice.thisTrialN,trials_practice.thisN,trials_practice.thisIndex,trials_test.thisRepN,trials_test.thisTrialN,trials_test.thisN,trials_test.thisIndex,thisRow.t,notes,instruction.started,instr_text.started,instr_image.started,instr_resp.started,instruction.stopped,instr_resp.keys,instr_resp.rt,instr_resp.duration,instr_color_to_key.started,instr_ctk.started,resp_ctk.started,instr_color_to_key.stopped,resp_ctk.keys,resp_ctk.rt,resp_ctk.duration,ITI.started,fixcross.started,fixcross.stopped,ITI.stopped,color_to_key_run.started,stimulus_CTK.started,keyResp_CTK.started,color_to_key_run.stopped,trials_CTK.keyResp_CTK.keys,trials_CTK.keyResp_CTK.corr,trials_CTK.keyResp_CTK.rt,trials_CTK.keyResp_CTK.duration,instr_practice.started,instr_practice_text.started,instr_practice_resp.started,instr_practice.stopped,instr_practice_resp.keys,instr_practice_resp.rt,instr_practice_resp.duration,practice_run.started,stimulus_practice.started,respPractice.started,practice_run.stopped,trials_practice.respPractice.keys,trials_practice.respPractice.corr,trials_practice.respPractice.rt,trials_practice.respPractice.duration,feedback.started,textFeedback.started,textFeedback.stopped,feedback.stopped,instr_test.started,instr_test_text.started,instr_test_resp.started,instr_test.stopped,instr_test_resp.keys,instr_test_resp.rt,instr_test_resp.duration,test_run.started,stimulus_test_run.started,keyResp_test_run.started,test_run.stopped,trials_test.keyResp_test_run.keys,trials_test.keyResp_test_run.corr,trials_test.keyResp_test_run.rt,trials_test.keyResp_test_run.duration,goodbye.started,textGoodbye.started,textGoodbye.stopped,goodbye.stopped,participant,session,expName,frameRate,Unnamed: 113
,,,,,,,,,,,,,,,,,,,,,,,,,,,,,,,,,,,,,,,,,0.0026747999945655,0.0761734999832697,0.0761734999832697,0.0761734999832697,69.79260359995533,space,69.6973447999917,,,,,,,,,,,,,,,,,,,,,,,,,,,,,,,,,,,,,,,,,,,,,,,,,,,,,,,,,,,sub-131,1,stroop_test,60.23225558604704,
,,,,,,,,,,,,,,,,,,,,,,,,,,,,,,,,,,,,,,,,,,,,,,,,,69.7926913999836,69.80378179997206,69.80378179997206,78.58921339997323,space,8.767811300000176,,,,,,,,,,,,,,,,,,,,,,,,,,,,,,,,,,,,,,,,,,,,,,,,,,,,sub-131,1,stroop_test,60.23225558604704,
test,red,r,1.0,0.0,0.0,0.0,r,1.0,1.3792595000122674,,,,,,,,,,,,,,,,,,0.0,0.0,0.0,0.0,,,,,,,,,78.60396799998125,,,,,,,,,,,,,,,,,78.60062270000344,79.40414649999002,80.20580429997062,80.18967499997234,80.20154330000514,80.20580429997062,80.20580429997062,81.58943789999466,r,1.0,1.3792595000122674,,,,,,,,,,,,,,,,,,,,,,,,,,,,,,,,,,,,,,,,sub-131,1,stroop_test,60.23225558604704,
test,blue,b,1.0,1.0,1.0,0.0,b,1.0,0.9145833000075072,,,,,,,,,,,,,,,,,,0.0,1.0,1.0,2.0,,,,,,,,,81.60399119998328,,,,,,,,,,,,,,,,,81.58982209995156,81.95405529998243,82.75384499999927,82.7394242999726,82.74057229998289,82.75384499999927,82.75384499999927,83.67354369995883,b,1.0,0.9145833000075072,,,,,,,,,,,,,,,,,,,,,,,,,,,,,,,,,,,,,,,,sub-131,1,stroop_test,60.23225558604704,
test,yellow,g,1.0,2.0,2.0,0.0,g,1.0,0.9181921000126748,,,,,,,,,,,,,,,,,,0.0,2.0,2.0,1.0,,,,,,,,,83.68742899998324,,,,,,,,,,,,,,,,,83.6741509999847,84.88727209996432,85.68765099998564,85.67248629999813,85.6736125999596,85.68765099998564,85.68765099998564,86.62155329994857,g,1.0,0.9181921000126748,,,,,,,,,,,,,,,,,,,,,,,,,,,,,,,,,,,,,,,,sub-131,1,stroop_test,60.23225558604704,
test,red,r,1.0,3.0,0.0,1.0,r,1.0,0.6275993999443017,,,,,,,,,,,,,,,,,,1.0,0.0,3.0,0.0,,,,,,,,,86.63730020000366,,,,,,,,,,,,,,,,,86.62189369997941,86.9706135999877,87.77098669996485,87.75529770000139,87.7560233999975,87.77098669996485,87.77098669996485,88.40571049996652,r,1.0,0.6275993999443017,,,,,,,,,,,,,,,,,,,,,,,,,,,,,,,,,,,,,,,,sub-131,1,stroop_test,60.23225558604704,
test,yellow,g,1.0,4.0,1.0,1.0,g,1.0,0.9704020000062884,,,,,,,,,,,,,,,,,,1.0,1.0,4.0,1.0,,,,,,,,,88.42058689997066,,,,,,,,,,,,,,,,,88.40613550000126,89.22079529997427,90.02058149996446,90.00489029998425,90.0055475999834,90.02058149996446,90.02058149996446,91.0056334999972,g,1.0,0.9704020000062884,,,,,,,,,,,,,,,,,,,,,,,,,,,,,,,,,,,,,,,,sub-131,1,stroop_test,60.23225558604704,
test,blue,b,1.0,5.0,2.0,1.0,b,1.0,0.6119532000157051,,,,,,,,,,,,,,,,,,1.0,2.0,5.0,2.0,,,,,,,,,91.02041779999854,,,,,,,,,,,,,,,,,91.00605869997526,91.12073089997284,91.92045469995357,91.90509789995848,91.9059182999772,91.92045469995357,91.92045469995357,92.538601999986,b,1.0,0.6119532000157051,,,,,,,,,,,,,,,,,,,,,,,,,,,,,,,,,,,,,,,,sub-131,1,stroop_test,60.23225558604704,
test,yellow,g,1.0,6.0,0.0,2.0,g,1.0,1.116298499982804,,,,,,,,,,,,,,,,,,2.0,0.0,6.0,1.0,,,,,,,,,92.55387809994863,,,,,,,,,,,,,,,,,92.53898479999044,93.7539636999718,94.55404779996024,94.53902510000626,94.53986079996685,94.55404779996024,94.55404779996024,95.6751471000025,g,1.0,1.116298499982804,,,,,,,,,,,,,,,,,,,,,,,,,,,,,,,,,,,,,,,,sub-131,1,stroop_test,60.23225558604704,
test,blue,b,1.0,7.0,1.0,2.0,b,1.0,0.640497200016398,,,,,,,,,,,,,,,,,,2.0,1.0,7.0,2.0,,,,,,,,,95.6871620999882,,,,,,,,,,,,,,,,,95.67552649998106,95.78746169997612,96.5872150999494,96.57203979999758,96.57290579995606,96.5872150999494,96.5872150999494,97.23877949995222,b,1.0,0.640497200016398,,,,,,,,,,,,,,,,,,,,,,,,,,,,,,,,,,,,,,,,sub-131,1,stroop_test,60.23225558604704,
test,red,r,1.0,8.0,2.0,2.0,r,1.0,0.5098044999758713,,,,,,,,,,,,,,,,,,2.0,2.0,8.0,0.0,,,,,,,,,97.25371609994907,,,,,,,,,,,,,,,,,97.23917859996436,97.35371809999924,98.15388699999312,98.13917709997622,98.13998979999452,98.15388699999312,98.15388699999312,98.67222720000429,r,1.0,0.5098044999758713,,,,,,,,,,,,,,,,,,,,,,,,,,,,,,,,,,,,,,,,sub-131,1,stroop_test,60.23225558604704,
test,blue,b,1.0,9.0,0.0,3.0,b,1.0,0.576829000026919,,,,,,,,,,,,,,,,,,3.0,0.0,9.0,2.0,,,,,,,,,98.686862499977,,,,,,,,,,,,,,,,,98.67273639998166,99.48684049997246,100.2871962999925,100.27237819996662,100.27351319999434,100.2871962999925,100.2871962999925,100.87161929998548,b,1.0,0.576829000026919,,,,,,,,,,,,,,,,,,,,,,,,,,,,,,,,,,,,,,,,sub-131,1,stroop_test,60.23225558604704,
test,red,r,1.0,10.0,1.0,3.0,r,1.0,0.6788706999504939,,,,,,,,,,,,,,,,,,3.0,1.0,10.0,0.0,,,,,,,,,100.88727149995977,,,,,,,,,,,,,,,,,100.87202319997596,101.23749390000012,102.03716889995847,102.02197020000312,102.023029199976,102.03716889995847,102.03716889995847,102.72254829999292,r,1.0,0.6788706999504939,,,,,,,,,,,,,,,,,,,,,,,,,,,,,,,,,,,,,,,,sub-131,1,stroop_test,60.23225558604704,
test,yellow,g,1.0,11.0,2.0,3.0,g,1.0,0.4745619000168517,,,,,,,,,,,,,,,,,,3.0,2.0,11.0,1.0,,,,,,,,,102.7369738999987,,,,,,,,,,,,,,,,,102.72303589998046,103.53697799996009,104.33654099999694,104.32090829999652,104.3215108999866,104.33654099999694,104.33654099999694,104.82150389999153,g,1.0,0.4745619000168517,,,,,,,,,,,,,,,,,,,,,,,,,,,,,,,,,,,,,,,,sub-131,1,stroop_test,60.23225558604704,
,,,,,,,,,,,,,,,,,,,,,,,,,,,,,,,,,,,,,,,,,,,,,,,,,,,,,,,,,,,,,,,,,,,,104.82175819994882,104.83718889998272,104.83718889998272,126.170522899949,space,21.325154099962678,,,,,,,,,,,,,,,,,,,,,,,,,,,,,,,,,sub-131,1,stroop_test,60.23225558604704,
,,,,0.0,0.0,0.0,,,,,gelb,blue,b,0.0,b,1.0,1.3165133000002245,,,,,,,,,,,,,,0.0,0.0,0.0,9.0,,,,,126.18621069996152,,,,,,,,,,,,,,,,,126.1790157999494,126.28623289999086,127.08619669999462,127.06994600000326,,,,,,,,,,,,,,,,127.07634359999793,127.08619669999462,127.08619669999462,128.40447119995952,b,1.0,1.3165133000002245,,128.41300780000165,128.4193616999546,129.4194007999613,129.40329309995286,,,,,,,,,,,,,,,,,,,,sub-131,1,stroop_test,60.23225558604704,
,,,,1.0,1.0,0.0,,,,,gelb,yellow,g,1.0,g,1.0,0.5913060000166297,,,,,,,,,,,,,,0.0,1.0,1.0,10.0,,,,,129.4194007999613,,,,,,,,,,,,,,,,,129.40363829996204,130.21961169998394,131.01988109998638,131.00385869998718,,,,,,,,,,,,,,,,131.00433559995145,131.01988109998638,131.01988109998638,131.62125739996554,g,1.0,0.5913060000166297,,131.62183789996195,131.63647929998115,132.6363859999692,132.6202598999953,,,,,,,,,,,,,,,,,,,,sub-131,1,stroop_test,60.23225558604704,
,,,,2.0,2.0,0.0,,,,,blau,yellow,g,0.0,g,1.0,1.0339190000086091,,,,,,,,,,,,,,0.0,2.0,2.0,7.0,,,,,132.6363859999692,,,,,,,,,,,,,,,,,132.62058980000438,132.98639939998975,133.78634719998809,133.77038719999837,,,,,,,,,,,,,,,,133.77803669997957,133.78634719998809,133.78634719998809,134.83779199997662,g,1.0,1.0339190000086091,,134.83827829995425,134.85299059998945,135.8530043999781,135.8369982999866,,,,,,,,,,,,,,,,,,,,sub-131,1,stroop_test,60.23225558604704,
,,,,3.0,3.0,0.0,,,,,rot,blue,b,0.0,b,1.0,0.836665999959223,,,,,,,,,,,,,,0.0,3.0,3.0,2.0,,,,,135.8530043999781,,,,,,,,,,,,,,,,,135.83730660000583,137.05321929999627,137.85288759996183,137.83758319995832,,,,,,,,,,,,,,,,137.84465779998573,137.85288759996183,137.85288759996183,138.70584799995413,b,1.0,0.836665999959223,,138.70618799998192,138.7194958999753,139.71967109997058,139.7037505999906,,,,,,,,,,,,,,,,,,,,sub-131,1,stroop_test,60.23225558604704,
,,,,4.0,4.0,0.0,,,,,gelb,red,r,0.0,r,1.0,0.5786512999911793,,,,,,,,,,,,,,0.0,4.0,4.0,8.0,,,,,139.71967109997058,,,,,,,,,,,,,,,,,139.70411039999453,139.82045119995018,140.6194613999687,140.60375839995686,,,,,,,,,,,,,,,,140.6061411999981,140.6194613999687,140.6194613999687,141.22109969996382,r,1.0,0.5786512999911793,,141.2215307999868,141.22486279997975,142.23645639995812,142.22053269995376,,,,,,,,,,,,,,,,,,,,sub-131,1,stroop_test,60.23225558604704,
,,,,5.0,5.0,0.0,,,,,rot,red,r,1.0,r,1.0,0.6356746999663301,,,,,,,,,,,,,,0.0,5.0,5.0,1.0,,,,,142.23645639995812,,,,,,,,,,,,,,,,,142.22075079998467,143.03656149999006,143.83645679999609,143.8204689999693,,,,,,,,,,,,,,,,143.82298120000632,143.83645679999609,143.83645679999609,144.48743359994842,r,1.0,0.6356746999663301,,144.48776809999254,144.50292739999713,145.5028327999753,145.48698489996605,,,,,,,,,,,,,,,,,,,,sub-131,1,stroop_test,60.23225558604704,
,,,,6.0,6.0,0.0,,,,,blau,red,r,0.0,r,1.0,0.6930781999835745,,,,,,,,,,,,,,0.0,6.0,6.0,4.0,,,,,145.5028327999753,,,,,,,,,,,,,,,,,145.48725969996303,146.30297969997628,147.10306850000052,147.0872287999955,,,,,,,,,,,,,,,,147.09233979997225,147.10306850000052,147.10306850000052,147.80571109999437,r,1.0,0.6930781999835745,,147.80653959995834,147.81975739996415,148.8197083999985,148.80379219999304,,,,,,,,,,,,,,,,,,,,sub-131,1,stroop_test,60.23225558604704,
,,,,7.0,7.0,0.0,,,,,rot,yellow,g,0.0,g,1.0,0.7484274000162259,,,,,,,,,,,,,,0.0,7.0,7.0,3.0,,,,,148.8197083999985,,,,,,,,,,,,,,,,,148.8041350999847,149.61942309996812,150.41959029994905,150.4031247999519,,,,,,,,,,,,,,,,150.40642969997134,150.41959029994905,150.41959029994905,151.17306060000556,g,1.0,0.7484274000162259,,151.17395369999576,151.1863830999937,152.18589429999702,152.1700149999815,,,,,,,,,,,,,,,,,,,,sub-131,1,stroop_test,60.23225558604704,
,,,,8.0,8.0,0.0,,,,,blau,blue,b,1.0,b,1.0,0.5854040999547578,,,,,,,,,,,,,,0.0,8.0,8.0,5.0,,,,,152.18589429999702,,,,,,,,,,,,,,,,,152.17034129996318,153.38618699996732,154.18622559995856,154.1713608999853,,,,,,,,,,,,,,,,154.1766313999542,154.18622559995856,154.18622559995856,154.78890059998955,b,1.0,0.5854040999547578,,154.78952969994862,154.8030965999933,155.80294609995326,155.78695270000026,,,,,,,,,,,,,,,,,,,,sub-131,1,stroop_test,60.23225558604704,
,,,,9.0,9.0,0.0,,,,,gelb,yellow,g,1.0,g,1.0,0.6884765999857336,,,,,,,,,,,,,,0.0,9.0,9.0,11.0,,,,,155.80294609995326,,,,,,,,,,,,,,,,,155.7873517999542,156.60291620000498,157.40298859996255,157.38721349998377,,,,,,,,,,,,,,,,157.39137339999434,157.40298859996255,157.40298859996255,158.10472459997982,g,1.0,0.6884765999857336,,158.1053509999765,158.11960929998895,159.1194433000055,159.10410359996604,,,,,,,,,,,,,,,,,,,,sub-131,1,stroop_test,60.23225558604704,
,,,,10.0,10.0,0.0,,,,,rot,red,r,1.0,r,1.0,0.587060299993027,,,,,,,,,,,,,,0.0,10.0,10.0,0.0,,,,,159.1194433000055,,,,,,,,,,,,,,,,,159.10461589996703,159.21967629995197,160.01950979995308,160.0046558000031,,,,,,,,,,,,,,,,160.00984249997418,160.01950979995308,160.01950979995308,160.62179859995376,r,1.0,0.587060299993027,,160.6224188999622,160.63619419996394,161.63610439997865,161.62083799997345,,,,,,,,,,,,,,,,,,,,sub-131,1,stroop_test,60.23225558604704,
,,,,11.0,11.0,0.0,,,,,blau,blue,b,1.0,b,1.0,0.5022091999999247,,,,,,,,,,,,,,0.0,11.0,11.0,6.0,,,,,161.63610439997865,,,,,,,,,,,,,,,,,161.621311099967,162.83589549997123,163.63576809997903,163.62042969994943,,,,,,,,,,,,,,,,163.62440459994832,163.63576809997903,163.63576809997903,164.155270999996,b,1.0,0.5022091999999247,,164.15603979997104,164.16902009997284,165.1696017999784,165.15405809995718,,,,,,,,,,,,,,,,,,,,sub-131,1,stroop_test,60.23225558604704,
,,,,12.0,0.0,1.0,,,,,rot,red,r,1.0,r,1.0,0.7168496000231244,,,,,,,,,,,,,,1.0,0.0,12.0,1.0,,,,,165.1696017999784,,,,,,,,,,,,,,,,,165.15483289997792,165.96917939995183,166.76946489996044,166.75394159997813,,,,,,,,,,,,,,,,166.7579654000001,166.76946489996044,166.76946489996044,167.49046449997695,r,1.0,0.7168496000231244,,167.49110449996078,167.50255779997678,168.50256979995174,168.48707779997494,,,,,,,,,,,,,,,,,,,,sub-131,1,stroop_test,60.23225558604704,
,,,,13.0,1.0,1.0,,,,,blau,red,r,0.0,r,1.0,0.8966491000028327,,,,,,,,,,,,,,1.0,1.0,13.0,4.0,,,,,168.50256979995174,,,,,,,,,,,,,,,,,168.48754899995402,169.70263559999876,170.50251699995715,170.48748339997837,,,,,,,,,,,,,,,,170.49257929995656,170.50251699995715,170.50251699995715,171.4041653999593,r,1.0,0.8966491000028327,,171.40478829998756,171.41930549999233,172.41950719995657,172.4040978999692,,,,,,,,,,,,,,,,,,,,sub-131,1,stroop_test,60.23225558604704,
,,,,14.0,2.0,1.0,,,,,blau,blue,b,1.0,b,1.0,0.5136712999665178,,,,,,,,,,,,,,1.0,2.0,14.0,6.0,,,,,172.41950719995657,,,,,,,,,,,,,,,,,172.40463079995243,173.21894359996077,174.01898049999727,174.00397239997983,,,,,,,,,,,,,,,,174.00480699999025,174.01898049999727,174.01898049999727,174.53808329999447,b,1.0,0.5136712999665178,,174.53883629996562,174.55274179996923,175.55276069999672,175.53756079997402,,,,,,,,,,,,,,,,,,,,sub-131,1,stroop_test,60.23225558604704,
,,,,15.0,3.0,1.0,,,,,gelb,yellow,g,1.0,g,1.0,0.8028530000010505,,,,,,,,,,,,,,1.0,3.0,15.0,10.0,,,,,175.55276069999672,,,,,,,,,,,,,,,,,175.5382779999636,175.90296589996433,176.70255289995112,176.68741499999305,,,,,,,,,,,,,,,,176.69177330000093,176.70255289995112,176.70255289995112,177.52090979996137,g,1.0,0.8028530000010505,,177.52154419996077,177.53585649997694,178.53585829999065,178.5198274999857,,,,,,,,,,,,,,,,,,,,sub-131,1,stroop_test,60.23225558604704,
,,,,16.0,4.0,1.0,,,,,rot,blue,b,0.0,b,1.0,0.6322254000115208,,,,,,,,,,,,,,1.0,4.0,16.0,2.0,,,,,178.53585829999065,,,,,,,,,,,,,,,,,178.52021419996163,178.63632869999856,179.43595829996048,179.42092010000488,,,,,,,,,,,,,,,,179.42526910000015,179.43595829996048,179.43595829996048,180.072834599996,b,1.0,0.6322254000115208,,180.07415840000613,180.08596529997885,181.0857636999572,181.07024249999083,,,,,,,,,,,,,,,,,,,,sub-131,1,stroop_test,60.23225558604704,
,,,,17.0,5.0,1.0,,,,,rot,yellow,g,0.0,r,0.0,0.9702924999874084,,,,,,,,,,,,,,1.0,5.0,17.0,3.0,,,,,181.0857636999572,,,,,,,,,,,,,,,,,181.0706389999832,181.4361289999797,182.23572779999813,182.22100279998267,,,,,,,,,,,,,,,,182.22183229995423,182.23572779999813,182.23572779999813,183.22123619995543,r,0.0,0.9702924999874084,,183.2294702999643,183.23543879995125,184.2354384999489,184.21915819996505,,,,,,,,,,,,,,,,,,,,sub-131,1,stroop_test,60.23225558604704,
,,,,18.0,6.0,1.0,,,,,blau,blue,b,1.0,b,1.0,0.5732958000153303,,,,,,,,,,,,,,1.0,6.0,18.0,5.0,,,,,184.2354384999489,,,,,,,,,,,,,,,,,184.21954979997827,185.0355371999904,185.83577469998272,185.8205280999537,,,,,,,,,,,,,,,,185.82462999998825,185.83577469998272,185.83577469998272,186.4194183999789,b,1.0,0.5732958000153303,,186.42415679997063,186.4353840999538,187.43577149999328,187.42071269999724,,,,,,,,,,,,,,,,,,,,sub-131,1,stroop_test,60.23225558604704,
,,,,19.0,7.0,1.0,,,,,gelb,yellow,g,1.0,g,1.0,0.8640248000156134,,,,,,,,,,,,,,1.0,7.0,19.0,11.0,,,,,187.43577149999328,,,,,,,,,,,,,,,,,187.421229199972,187.76921860000584,188.56914779997896,188.5540279999841,,,,,,,,,,,,,,,,188.55882989999373,188.56914779997896,188.56914779997896,189.4385867999517,g,1.0,0.8640248000156134,,189.43936089996717,189.4525321999681,190.4524486999726,190.43729309999617,,,,,,,,,,,,,,,,,,,,sub-131,1,stroop_test,60.23225558604704,
,,,,20.0,8.0,1.0,,,,,gelb,blue,b,0.0,b,1.0,0.5673892000340857,,,,,,,,,,,,,,1.0,8.0,20.0,9.0,,,,,190.4524486999726,,,,,,,,,,,,,,,,,190.4379335999838,190.80220459995328,191.60205059999132,191.58667299995432,,,,,,,,,,,,,,,,191.5873486999772,191.60205059999132,191.60205059999132,192.1741109999712,b,1.0,0.5673892000340857,,192.17472809995525,192.18555759999435,193.18566809996264,193.1701938000042,,,,,,,,,,,,,,,,,,,,sub-131,1,stroop_test,60.23225558604704,
,,,,21.0,9.0,1.0,,,,,gelb,red,r,0.0,r,1.0,0.6366763000260107,,,,,,,,,,,,,,1.0,9.0,21.0,8.0,,,,,193.18566809996264,,,,,,,,,,,,,,,,,193.17065139999613,193.2859295999515,194.08521970000584,194.07089909998467,,,,,,,,,,,,,,,,194.07168779999483,194.08521970000584,194.08521970000584,194.73739539994855,r,1.0,0.6366763000260107,,194.73815229994943,194.75212709995685,195.7522523999796,195.7366488999687,,,,,,,,,,,,,,,,,,,,sub-131,1,stroop_test,60.23225558604704,
,,,,22.0,10.0,1.0,,,,,rot,red,r,1.0,r,1.0,0.8729763000155799,,,,,,,,,,,,,,1.0,10.0,22.0,0.0,,,,,195.7522523999796,,,,,,,,,,,,,,,,,195.73705269995844,196.1023756999639,196.90205609996335,196.88714969996363,,,,,,,,,,,,,,,,196.8921480999561,196.90205609996335,196.90205609996335,197.78794909996213,r,1.0,0.8729763000155799,,197.7886806000024,197.80211329995652,198.8026761999936,198.787833499955,,,,,,,,,,,,,,,,,,,,sub-131,1,stroop_test,60.23225558604704,
,,,,23.0,11.0,1.0,,,,,blau,yellow,g,0.0,g,1.0,0.7237390000373125,,,,,,,,,,,,,,1.0,11.0,23.0,7.0,,,,,198.8026761999936,,,,,,,,,,,,,,,,,198.78875680000056,199.1521087999572,199.951841699949,199.93598469998688,,,,,,,,,,,,,,,,199.9403892999981,199.951841699949,199.951841699949,200.68742669996573,g,1.0,0.7237390000373125,,200.68818499997724,200.70249609998427,201.70229559997097,201.68756719998785,,,,,,,,,,,,,,,,,,,,sub-131,1,stroop_test,60.23225558604704,
,,,,,,,,,,,,,,,,,,,,,,,,,,,,,,,,,,,,,,,,,,,,,,,,,,,,,,,,,,,,,,,,,,,,,,,,,,,,,,,,,,,,,,,201.68777639995096,201.70229559997097,201.70229559997097,206.2369257999817,space,4.523715599963907,,,,,,,,,,,,,,sub-131,1,stroop_test,60.23225558604704,
,,,,0.0,0.0,0.0,,,,,,,,,,,,,blau,red,r,0.0,r,1.0,0.7367185999755748,,,,,,,,,,0.0,0.0,0.0,4.0,206.25232159998268,,,,,,,,,,,,,,,,,206.2495606999728,206.6023133999552,207.4018378999899,207.38773129996844,,,,,,,,,,,,,,,,,,,,,,,,,,,,,,,,,,,207.39340569998603,207.4018378999899,207.4018378999899,208.15327650000108,r,1.0,0.7367185999755748,,,,,,sub-131,1,stroop_test,60.23225558604704,
,,,,1.0,1.0,0.0,,,,,,,,,,,,,gelb,yellow,g,1.0,g,1.0,0.4055487999576144,,,,,,,,,,0.0,1.0,1.0,10.0,208.16831300000197,,,,,,,,,,,,,,,,,208.1538692999748,209.36847529996885,210.168781699962,210.15329809999093,,,,,,,,,,,,,,,,,,,,,,,,,,,,,,,,,,,210.1583546999609,210.168781699962,210.168781699962,210.586247499974,g,1.0,0.4055487999576144,,,,,,sub-131,1,stroop_test,60.23225558604704,
,,,,2.0,2.0,0.0,,,,,,,,,,,,,gelb,yellow,g,1.0,g,1.0,0.663938199984841,,,,,,,,,,0.0,2.0,2.0,11.0,210.60194530000445,,,,,,,,,,,,,,,,,210.5866314999876,211.38561699999264,212.18552179995456,212.17013599997156,,,,,,,,,,,,,,,,,,,,,,,,,,,,,,,,,,,212.1710087999818,212.18552179995456,212.18552179995456,212.85524199996144,g,1.0,0.663938199984841,,,,,,sub-131,1,stroop_test,60.23225558604704,
,,,,3.0,3.0,0.0,,,,,,,,,,,,,gelb,blue,b,0.0,b,1.0,0.6224039999651723,,,,,,,,,,0.0,3.0,3.0,9.0,212.86902949999785,,,,,,,,,,,,,,,,,212.85576479998417,213.2188884000061,214.0187610999565,214.0035038999631,,,,,,,,,,,,,,,,,,,,,,,,,,,,,,,,,,,214.0042218999588,214.0187610999565,214.0187610999565,214.6541061999742,b,1.0,0.6224039999651723,,,,,,sub-131,1,stroop_test,60.23225558604704,
,,,,4.0,4.0,0.0,,,,,,,,,,,,,blau,yellow,g,0.0,g,1.0,0.676500000001397,,,,,,,,,,0.0,4.0,4.0,7.0,214.6686085999827,,,,,,,,,,,,,,,,,214.6545907999971,215.01862149999943,215.8188763999497,215.80300079996232,,,,,,,,,,,,,,,,,,,,,,,,,,,,,,,,,,,215.80753209994876,215.8188763999497,215.8188763999497,216.5038933999604,g,1.0,0.676500000001397,,,,,,sub-131,1,stroop_test,60.23225558604704,
,,,,5.0,5.0,0.0,,,,,,,,,,,,,gelb,red,r,0.0,r,1.0,0.572122500045225,,,,,,,,,,0.0,5.0,5.0,8.0,216.51850059995195,,,,,,,,,,,,,,,,,216.50434179999863,217.3187632999616,218.1180845999625,218.10303319996456,,,,,,,,,,,,,,,,,,,,,,,,,,,,,,,,,,,218.10910790000344,218.1180845999625,218.1180845999625,218.70273809996436,r,1.0,0.572122500045225,,,,,,sub-131,1,stroop_test,60.23225558604704,
,,,,6.0,6.0,0.0,,,,,,,,,,,,,blau,blue,b,1.0,b,1.0,0.4991830000071786,,,,,,,,,,0.0,6.0,6.0,6.0,218.7188020999893,,,,,,,,,,,,,,,,,218.7031070999801,219.90199449996,220.70164569997,220.68703019997335,,,,,,,,,,,,,,,,,,,,,,,,,,,,,,,,,,,220.693371100002,220.70164569997,220.70164569997,221.2054713999969,b,1.0,0.4991830000071786,,,,,,sub-131,1,stroop_test,60.23225558604704,
,,,,7.0,7.0,0.0,,,,,,,,,,,,,rot,red,r,1.0,r,1.0,0.5721662000287324,,,,,,,,,,0.0,7.0,7.0,1.0,221.2183223000029,,,,,,,,,,,,,,,,,221.20592459995527,222.0189832999604,222.81848479999465,222.80319999996573,,,,,,,,,,,,,,,,,,,,,,,,,,,,,,,,,,,222.80784279998625,222.81848479999465,222.81848479999465,223.403579899983,r,1.0,0.5721662000287324,,,,,,sub-131,1,stroop_test,60.23225558604704,
,,,,8.0,8.0,0.0,,,,,,,,,,,,,rot,red,r,1.0,r,1.0,0.5683250000001863,,,,,,,,,,0.0,8.0,8.0,0.0,223.4183107999852,,,,,,,,,,,,,,,,,223.40407759998925,224.6181879999931,225.4183117999928,225.40282899996964,,,,,,,,,,,,,,,,,,,,,,,,,,,,,,,,,,,225.4035800999845,225.4183117999928,225.4183117999928,226.00405230000612,r,1.0,0.5683250000001863,,,,,,sub-131,1,stroop_test,60.23225558604704,
,,,,9.0,9.0,0.0,,,,,,,,,,,,,rot,blue,b,0.0,b,1.0,0.4603018999914638,,,,,,,,,,0.0,9.0,9.0,2.0,226.018584299949,,,,,,,,,,,,,,,,,226.00464949995512,227.21848229999887,228.0179576999508,228.003647000005,,,,,,,,,,,,,,,,,,,,,,,,,,,,,,,,,,,228.0047954999609,228.0179576999508,228.0179576999508,228.4868931999663,b,1.0,0.4603018999914638,,,,,,sub-131,1,stroop_test,60.23225558604704,
,,,,10.0,10.0,0.0,,,,,,,,,,,,,blau,blue,b,1.0,b,1.0,0.6634183000423945,,,,,,,,,,0.0,10.0,10.0,5.0,228.50196359999245,,,,,,,,,,,,,,,,,228.487363799999,229.70151119999355,230.50188679998973,230.4869334999821,,,,,,,,,,,,,,,,,,,,,,,,,,,,,,,,,,,230.4917990999529,230.50188679998973,230.50188679998973,231.17083119996823,b,1.0,0.6634183000423945,,,,,,sub-131,1,stroop_test,60.23225558604704,
,,,,11.0,11.0,0.0,,,,,,,,,,,,,rot,yellow,g,0.0,g,1.0,0.7509114000131376,,,,,,,,,,0.0,11.0,11.0,3.0,231.184948399954,,,,,,,,,,,,,,,,,231.17147179995663,232.38513439998496,233.18502519995675,233.16948519996367,,,,,,,,,,,,,,,,,,,,,,,,,,,,,,,,,,,233.17427580000367,233.18502519995675,233.18502519995675,233.94051289994968,g,1.0,0.7509114000131376,,,,,,sub-131,1,stroop_test,60.23225558604704,
,,,,12.0,0.0,1.0,,,,,,,,,,,,,gelb,yellow,g,1.0,g,1.0,0.6574674000148661,,,,,,,,,,1.0,0.0,12.0,11.0,233.9515384999686,,,,,,,,,,,,,,,,,233.94103709998308,234.75123900000472,235.6139770000009,235.5361720999936,,,,,,,,,,,,,,,,,,,,,,,,,,,,,,,,,,,235.60936349997064,235.6139770000009,235.6139770000009,236.28715479996757,g,1.0,0.6574674000148661,,,,,,sub-131,1,stroop_test,60.23225558604704,
,,,,13.0,1.0,1.0,,,,,,,,,,,,,gelb,red,r,0.0,r,1.0,0.5916368000325747,,,,,,,,,,1.0,1.0,13.0,8.0,236.30153529997915,,,,,,,,,,,,,,,,,236.28779579995896,237.50134369998705,238.3017731999862,238.2861642999924,,,,,,,,,,,,,,,,,,,,,,,,,,,,,,,,,,,238.28693709999789,238.3017731999862,238.3017731999862,238.9048277999973,r,1.0,0.5916368000325747,,,,,,sub-131,1,stroop_test,60.23225558604704,
,,,,14.0,2.0,1.0,,,,,,,,,,,,,blau,blue,b,1.0,b,1.0,0.6170926000340842,,,,,,,,,,1.0,2.0,14.0,6.0,238.9182901000022,,,,,,,,,,,,,,,,,238.9052929999889,239.0184996000025,239.81818309996743,239.80367269995625,,,,,,,,,,,,,,,,,,,,,,,,,,,,,,,,,,,239.8096174999955,239.81818309996743,239.81818309996743,240.43949029996293,b,1.0,0.6170926000340842,,,,,,sub-131,1,stroop_test,60.23225558604704,
,,,,15.0,3.0,1.0,,,,,,,,,,,,,blau,blue,b,1.0,b,1.0,0.5644003999768756,,,,,,,,,,1.0,3.0,15.0,5.0,240.45161329995608,,,,,,,,,,,,,,,,,240.4399099999573,240.80141029995863,241.6017991999979,241.58627879997948,,,,,,,,,,,,,,,,,,,,,,,,,,,,,,,,,,,241.5869120999705,241.6017991999979,241.6017991999979,242.16968999995152,b,1.0,0.5644003999768756,,,,,,sub-131,1,stroop_test,60.23225558604704,
,,,,16.0,4.0,1.0,,,,,,,,,,,,,gelb,blue,b,0.0,b,1.0,0.502695599978324,,,,,,,,,,1.0,4.0,16.0,9.0,242.18439619999845,,,,,,,,,,,,,,,,,242.17008059995717,242.98482779995535,243.78468059998704,243.76947449997533,,,,,,,,,,,,,,,,,,,,,,,,,,,,,,,,,,,243.7736609999556,243.78468059998704,243.78468059998704,244.30339399998772,b,1.0,0.502695599978324,,,,,,sub-131,1,stroop_test,60.23225558604704,
,,,,17.0,5.0,1.0,,,,,,,,,,,,,blau,red,r,0.0,r,1.0,0.5582962000044063,,,,,,,,,,1.0,5.0,17.0,4.0,244.31838359998076,,,,,,,,,,,,,,,,,244.30411299999105,245.11858660000144,245.91812439996284,245.9024919999647,,,,,,,,,,,,,,,,,,,,,,,,,,,,,,,,,,,245.906547599996,245.91812439996284,245.91812439996284,246.48672019998776,r,1.0,0.5582962000044063,,,,,,sub-131,1,stroop_test,60.23225558604704,
,,,,18.0,6.0,1.0,,,,,,,,,,,,,rot,blue,b,0.0,b,1.0,1.0813940000371076,,,,,,,,,,1.0,6.0,18.0,2.0,246.5015401999699,,,,,,,,,,,,,,,,,246.4874046999612,247.30185869999696,248.1014005999896,248.08599289995615,,,,,,,,,,,,,,,,,,,,,,,,,,,,,,,,,,,248.09117029997287,248.1014005999896,248.1014005999896,249.18846390000544,b,1.0,1.0813940000371076,,,,,,sub-131,1,stroop_test,60.23225558604704,
,,,,19.0,7.0,1.0,,,,,,,,,,,,,blau,yellow,g,0.0,g,1.0,0.4921459999750368,,,,,,,,,,1.0,7.0,19.0,7.0,249.2014818000025,,,,,,,,,,,,,,,,,249.1890376999509,250.4011985999532,251.2013324999716,251.18622849998064,,,,,,,,,,,,,,,,,,,,,,,,,,,,,,,,,,,251.1920434999629,251.2013324999716,251.2013324999716,251.70414970000277,g,1.0,0.4921459999750368,,,,,,sub-131,1,stroop_test,60.23225558604704,
,,,,20.0,8.0,1.0,,,,,,,,,,,,,rot,red,r,1.0,r,1.0,0.7573051999788731,,,,,,,,,,1.0,8.0,20.0,1.0,251.71804929996145,,,,,,,,,,,,,,,,,251.705017899978,252.9183052000008,253.71807750000156,253.70253710000543,,,,,,,,,,,,,,,,,,,,,,,,,,,,,,,,,,,253.70740600000136,253.71807750000156,253.71807750000156,254.48727599997076,r,1.0,0.7573051999788731,,,,,,sub-131,1,stroop_test,60.23225558604704,
,,,,21.0,9.0,1.0,,,,,,,,,,,,,rot,red,r,1.0,r,1.0,0.7570934999966994,,,,,,,,,,1.0,9.0,21.0,0.0,254.5016444999492,,,,,,,,,,,,,,,,,254.48786069999915,254.8513482999988,255.6516686999821,255.6361436999869,,,,,,,,,,,,,,,,,,,,,,,,,,,,,,,,,,,255.6368855999899,255.6516686999821,255.6516686999821,256.4206092999666,r,1.0,0.7570934999966994,,,,,,sub-131,1,stroop_test,60.23225558604704,
,,,,22.0,10.0,1.0,,,,,,,,,,,,,gelb,yellow,g,1.0,g,1.0,0.5463482000050135,,,,,,,,,,1.0,10.0,22.0,10.0,256.43450689996826,,,,,,,,,,,,,,,,,256.421254099987,257.63465029996587,258.4345669999602,258.4193250999669,,,,,,,,,,,,,,,,,,,,,,,,,,,,,,,,,,,258.4239300999907,258.4345669999602,258.4345669999602,258.98718249995727,g,1.0,0.5463482000050135,,,,,,sub-131,1,stroop_test,60.23225558604704,
,,,,23.0,11.0,1.0,,,,,,,,,,,,,rot,yellow,g,0.0,g,1.0,0.6320677999756299,,,,,,,,,,1.0,11.0,23.0,3.0,259.0011628999491,,,,,,,,,,,,,,,,,258.9877096999553,260.20120019995375,261.0009965999634,260.98494529997697,,,,,,,,,,,,,,,,,,,,,,,,,,,,,,,,,,,260.98949759994866,261.0009965999634,261.0009965999634,261.63681429997087,g,1.0,0.6320677999756299,,,,,,sub-131,1,stroop_test,60.23225558604704,
,,,,24.0,0.0,2.0,,,,,,,,,,,,,gelb,yellow,g,1.0,g,1.0,0.7249163999804296,,,,,,,,,,2.0,0.0,24.0,11.0,261.65143859997625,,,,,,,,,,,,,,,,,261.6372870999621,262.45116469997447,263.2511760999914,263.2359818999539,,,,,,,,,,,,,,,,,,,,,,,,,,,,,,,,,,,263.2401254999568,263.2511760999914,263.2511760999914,263.98769899999024,g,1.0,0.7249163999804296,,,,,,sub-131,1,stroop_test,60.23225558604704,
,,,,25.0,1.0,2.0,,,,,,,,,,,,,blau,blue,b,1.0,b,1.0,0.5207170000066981,,,,,,,,,,2.0,1.0,25.0,5.0,264.0009342999547,,,,,,,,,,,,,,,,,263.98814659996424,265.20113089995,266.0010948999552,265.9855330999708,,,,,,,,,,,,,,,,,,,,,,,,,,,,,,,,,,,265.99053359997924,266.0010948999552,266.0010948999552,266.53575330000604,b,1.0,0.5207170000066981,,,,,,sub-131,1,stroop_test,60.23225558604704,
,,,,26.0,2.0,2.0,,,,,,,,,,,,,blau,yellow,g,0.0,g,1.0,0.6332315999898128,,,,,,,,,,2.0,2.0,26.0,7.0,266.55128769995645,,,,,,,,,,,,,,,,,266.53623889997834,267.75135119998595,268.55082099995343,268.53585359995486,,,,,,,,,,,,,,,,,,,,,,,,,,,,,,,,,,,268.53664690000005,268.55082099995343,268.55082099995343,269.18791360000614,g,1.0,0.6332315999898128,,,,,,sub-131,1,stroop_test,60.23225558604704,
,,,,27.0,3.0,2.0,,,,,,,,,,,,,rot,red,r,1.0,r,1.0,0.6171075000311248,,,,,,,,,,2.0,3.0,27.0,0.0,269.2010360999848,,,,,,,,,,,,,,,,,269.1883801999502,270.0014557999675,270.8010035000043,270.7858756999485,,,,,,,,,,,,,,,,,,,,,,,,,,,,,,,,,,,270.79034459998365,270.8010035000043,270.8010035000043,271.4361428999691,r,1.0,0.6171075000311248,,,,,,sub-131,1,stroop_test,60.23225558604704,
,,,,28.0,4.0,2.0,,,,,,,,,,,,,rot,yellow,g,0.0,g,1.0,0.7492643000441603,,,,,,,,,,2.0,4.0,28.0,3.0,271.4512391999597,,,,,,,,,,,,,,,,,271.436812800006,272.6511976000038,273.45155599998543,273.4358995999792,,,,,,,,,,,,,,,,,,,,,,,,,,,,,,,,,,,273.4365410999744,273.45155599998543,273.45155599998543,274.2060487999697,g,1.0,0.7492643000441603,,,,,,sub-131,1,stroop_test,60.23225558604704,
,,,,29.0,5.0,2.0,,,,,,,,,,,,,blau,blue,b,1.0,b,1.0,0.6470162000041455,,,,,,,,,,2.0,5.0,29.0,6.0,274.2180452999892,,,,,,,,,,,,,,,,,274.2066421000054,274.3178402999765,275.1173760999809,275.1018691000063,,,,,,,,,,,,,,,,,,,,,,,,,,,,,,,,,,,275.10768739995547,275.1173760999809,275.1173760999809,275.77026999997906,b,1.0,0.6470162000041455,,,,,,sub-131,1,stroop_test,60.23225558604704,
,,,,30.0,6.0,2.0,,,,,,,,,,,,,gelb,red,r,0.0,r,1.0,0.6257645000005141,,,,,,,,,,2.0,6.0,30.0,8.0,275.78430099994875,,,,,,,,,,,,,,,,,275.770863099955,276.9843853999628,277.7838004999794,277.769119799952,,,,,,,,,,,,,,,,,,,,,,,,,,,,,,,,,,,277.7740884999512,277.7838004999794,277.7838004999794,278.4194931999664,r,1.0,0.6257645000005141,,,,,,sub-131,1,stroop_test,60.23225558604704,
,,,,31.0,7.0,2.0,,,,,,,,,,,,,gelb,yellow,g,1.0,g,1.0,0.6308980000321753,,,,,,,,,,2.0,7.0,31.0,10.0,278.43485209997743,,,,,,,,,,,,,,,,,278.41998509998666,279.6343536999775,280.43451079999795,280.41941079997923,,,,,,,,,,,,,,,,,,,,,,,,,,,,,,,,,,,280.42025209998246,280.43451079999795,280.43451079999795,281.0715132000041,g,1.0,0.6308980000321753,,,,,,sub-131,1,stroop_test,60.23225558604704,
,,,,32.0,8.0,2.0,,,,,,,,,,,,,blau,red,r,0.0,r,1.0,0.668016700015869,,,,,,,,,,2.0,8.0,32.0,4.0,281.08468979998725,,,,,,,,,,,,,,,,,281.0719444999704,281.18435120000504,281.9844525999506,281.97217769996496,,,,,,,,,,,,,,,,,,,,,,,,,,,,,,,,,,,281.97742939996533,281.9844525999506,281.9844525999506,282.67005029995926,r,1.0,0.668016700015869,,,,,,sub-131,1,stroop_test,60.23225558604704,
,,,,33.0,9.0,2.0,,,,,,,,,,,,,rot,blue,b,0.0,b,1.0,0.496006200031843,,,,,,,,,,2.0,9.0,33.0,2.0,282.6845264000003,,,,,,,,,,,,,,,,,282.67061049997574,283.03486999997403,283.83418059995165,283.81906039995374,,,,,,,,,,,,,,,,,,,,,,,,,,,,,,,,,,,283.8233776999987,283.83418059995165,283.83418059995165,284.3363720999914,b,1.0,0.496006200031843,,,,,,sub-131,1,stroop_test,60.23225558604704,
,,,,34.0,10.0,2.0,,,,,,,,,,,,,rot,red,r,1.0,r,1.0,0.4954452000092715,,,,,,,,,,2.0,10.0,34.0,1.0,284.3506647999748,,,,,,,,,,,,,,,,,284.3370071999961,285.55094749998534,286.35094169998774,286.3359143999987,,,,,,,,,,,,,,,,,,,,,,,,,,,,,,,,,,,286.3369788999553,286.35094169998774,286.35094169998774,286.85275689995615,r,1.0,0.4954452000092715,,,,,,sub-131,1,stroop_test,60.23225558604704,
,,,,35.0,11.0,2.0,,,,,,,,,,,,,gelb,blue,b,0.0,b,1.0,0.5480835000053048,,,,,,,,,,2.0,11.0,35.0,9.0,286.8675118999672,,,,,,,,,,,,,,,,,286.85320660000434,287.6674313999829,288.46741639997344,288.4516985999653,,,,,,,,,,,,,,,,,,,,,,,,,,,,,,,,,,,288.45545029995264,288.46741639997344,288.46741639997344,289.0206238999963,b,1.0,0.5480835000053048,,,,,,sub-131,1,stroop_test,60.23225558604704,
,,,,36.0,0.0,3.0,,,,,,,,,,,,,gelb,yellow,g,1.0,g,1.0,0.5875056999502704,,,,,,,,,,3.0,0.0,36.0,11.0,289.0342560999561,,,,,,,,,,,,,,,,,289.0211702999659,290.2338054999709,291.0339952999493,291.01857309998013,,,,,,,,,,,,,,,,,,,,,,,,,,,,,,,,,,,291.019413299975,291.0339952999493,291.0339952999493,291.63666819996433,g,1.0,0.5875056999502704,,,,,,sub-131,1,stroop_test,60.23225558604704,
,,,,37.0,1.0,3.0,,,,,,,,,,,,,rot,blue,b,0.0,b,1.0,0.828160899982322,,,,,,,,,,3.0,1.0,37.0,2.0,291.6507927000057,,,,,,,,,,,,,,,,,291.63723920000484,292.8508907999494,293.650830700004,293.6353858999792,,,,,,,,,,,,,,,,,,,,,,,,,,,,,,,,,,,293.6415067999624,293.650830700004,293.650830700004,294.48569639999187,b,1.0,0.828160899982322,,,,,,sub-131,1,stroop_test,60.23225558604704,
,,,,38.0,2.0,3.0,,,,,,,,,,,,,rot,red,r,1.0,r,1.0,0.5464997999952175,,,,,,,,,,3.0,2.0,38.0,1.0,294.5007948999992,,,,,,,,,,,,,,,,,294.48634589998983,295.3007297999575,296.10072769998806,296.0852493999992,,,,,,,,,,,,,,,,,,,,,,,,,,,,,,,,,,,296.08608689997345,296.10072769998806,296.10072769998806,296.6524012999725,r,1.0,0.5464997999952175,,,,,,sub-131,1,stroop_test,60.23225558604704,
,,,,39.0,3.0,3.0,,,,,,,,,,,,,rot,red,r,1.0,r,1.0,0.5873031999799423,,,,,,,,,,3.0,3.0,39.0,0.0,296.6672916999669,,,,,,,,,,,,,,,,,296.65286370000103,297.0175703999703,297.8174981999909,297.8021082999767,,,,,,,,,,,,,,,,,,,,,,,,,,,,,,,,,,,297.80305429996224,297.8174981999909,297.8174981999909,298.4190664999769,r,1.0,0.5873031999799423,,,,,,sub-131,1,stroop_test,60.23225558604704,
,,,,40.0,4.0,3.0,,,,,,,,,,,,,gelb,red,r,0.0,r,1.0,0.6027329000062309,,,,,,,,,,3.0,4.0,40.0,8.0,298.4340637999703,,,,,,,,,,,,,,,,,298.419468899956,298.53397089999635,299.33381969999755,299.31868679996114,,,,,,,,,,,,,,,,,,,,,,,,,,,,,,,,,,,299.32377929997165,299.33381969999755,299.33381969999755,299.953428399982,r,1.0,0.6027329000062309,,,,,,sub-131,1,stroop_test,60.23225558604704,
,,,,41.0,5.0,3.0,,,,,,,,,,,,,blau,blue,b,1.0,b,1.0,0.6213467999477871,,,,,,,,,,3.0,5.0,41.0,5.0,299.96731909998925,,,,,,,,,,,,,,,,,299.95404129999224,300.0672803999623,300.86717939999653,300.8531999999541,,,,,,,,,,,,,,,,,,,,,,,,,,,,,,,,,,,300.85848299996,300.86717939999653,300.86717939999653,301.5036686999956,b,1.0,0.6213467999477871,,,,,,sub-131,1,stroop_test,60.23225558604704,
,,,,42.0,6.0,3.0,,,,,,,,,,,,,blau,blue,b,1.0,b,1.0,0.5554408000316471,,,,,,,,,,3.0,6.0,42.0,6.0,301.5174548999639,,,,,,,,,,,,,,,,,301.5041818000027,302.3173207999789,303.11756789998617,303.10225569998147,,,,,,,,,,,,,,,,,,,,,,,,,,,,,,,,,,,303.102993199951,303.11756789998617,303.11756789998617,303.68628689995967,b,1.0,0.5554408000316471,,,,,,sub-131,1,stroop_test,60.23225558604704,
,,,,43.0,7.0,3.0,,,,,,,,,,,,,gelb,yellow,g,1.0,g,1.0,0.4615713999955915,,,,,,,,,,3.0,7.0,43.0,10.0,303.70070449996274,,,,,,,,,,,,,,,,,303.68680909997784,304.50052069994854,305.3006282999995,305.2848701999756,,,,,,,,,,,,,,,,,,,,,,,,,,,,,,,,,,,305.2885658000014,305.3006282999995,305.3006282999995,305.7694013,g,1.0,0.4615713999955915,,,,,,sub-131,1,stroop_test,60.23225558604704,
,,,,44.0,8.0,3.0,,,,,,,,,,,,,blau,red,r,0.0,r,1.0,0.5855398999992758,,,,,,,,,,3.0,8.0,44.0,4.0,305.7842043999699,,,,,,,,,,,,,,,,,305.76985579996835,306.1338590999949,306.93385209998814,306.9179211999872,,,,,,,,,,,,,,,,,,,,,,,,,,,,,,,,,,,306.9221937999828,306.93385209998814,306.93385209998814,307.53604589996394,r,1.0,0.5855398999992758,,,,,,sub-131,1,stroop_test,60.23225558604704,
,,,,45.0,9.0,3.0,,,,,,,,,,,,,gelb,blue,b,0.0,b,1.0,0.5816960000083782,,,,,,,,,,3.0,9.0,45.0,9.0,307.5505397999659,,,,,,,,,,,,,,,,,307.5365889999666,307.6507972999825,308.45057069999166,308.4352818999905,,,,,,,,,,,,,,,,,,,,,,,,,,,,,,,,,,,308.4402897999971,308.45057069999166,308.45057069999166,309.0375032000011,b,1.0,0.5816960000083782,,,,,,sub-131,1,stroop_test,60.23225558604704,
,,,,46.0,10.0,3.0,,,,,,,,,,,,,rot,yellow,g,0.0,g,1.0,0.8026562999584712,,,,,,,,,,3.0,10.0,46.0,3.0,309.05052190000424,,,,,,,,,,,,,,,,,309.0382001999533,309.8507213999983,310.65032089996384,310.6353440999519,,,,,,,,,,,,,,,,,,,,,,,,,,,,,,,,,,,310.6414021999808,310.65032089996384,310.65032089996384,311.4692464999971,g,1.0,0.8026562999584712,,,,,,sub-131,1,stroop_test,60.23225558604704,
,,,,47.0,11.0,3.0,,,,,,,,,,,,,blau,yellow,g,0.0,g,1.0,0.6577463999856263,,,,,,,,,,3.0,11.0,47.0,7.0,311.483868899988,,,,,,,,,,,,,,,,,311.46973089996027,312.28331349999644,313.0834652999765,313.0670822999673,,,,,,,,,,,,,,,,,,,,,,,,,,,,,,,,,,,313.0698349999729,313.0834652999765,313.0834652999765,313.75071319995914,g,1.0,0.6577463999856263,,,,,,sub-131,1,stroop_test,60.23225558604704,
,,,,48.0,0.0,4.0,,,,,,,,,,,,,gelb,yellow,g,1.0,g,1.0,0.6133597000152804,,,,,,,,,,4.0,0.0,48.0,10.0,313.76659379998455,,,,,,,,,,,,,,,,,313.7509499999578,314.5507372999564,315.3501725999522,315.33396709995577,,,,,,,,,,,,,,,,,,,,,,,,,,,,,,,,,,,315.3370822999859,315.3501725999522,315.3501725999522,315.9674783999799,g,1.0,0.6133597000152804,,,,,,sub-131,1,stroop_test,60.23225558604704,
,,,,49.0,1.0,4.0,,,,,,,,,,,,,gelb,red,r,0.0,r,1.0,0.6266477999743074,,,,,,,,,,4.0,1.0,49.0,8.0,315.9832378999563,,,,,,,,,,,,,,,,,315.9677968999604,316.06657069997163,316.8666174999671,316.850523400004,,,,,,,,,,,,,,,,,,,,,,,,,,,,,,,,,,,316.8509572999901,316.8666174999671,316.8666174999671,317.5009373999783,r,1.0,0.6266477999743074,,,,,,sub-131,1,stroop_test,60.23225558604704,
,,,,50.0,2.0,4.0,,,,,,,,,,,,,rot,red,r,1.0,r,1.0,0.5694482999970205,,,,,,,,,,4.0,2.0,50.0,0.0,317.51668099995004,,,,,,,,,,,,,,,,,317.50118659995496,317.59983719995944,318.4000730999978,318.3837083999533,,,,,,,,,,,,,,,,,,,,,,,,,,,,,,,,,,,318.3869106999482,318.4000730999978,318.4000730999978,318.98411560000386,r,1.0,0.5694482999970205,,,,,,sub-131,1,stroop_test,60.23225558604704,
,,,,51.0,3.0,4.0,,,,,,,,,,,,,gelb,yellow,g,1.0,g,1.0,0.6930647999979556,,,,,,,,,,4.0,3.0,51.0,11.0,318.9998553000041,,,,,,,,,,,,,,,,,318.9844885999919,320.1831851999741,320.98322789999656,320.9670093999593,,,,,,,,,,,,,,,,,,,,,,,,,,,,,,,,,,,320.97076639998704,320.98322789999656,320.98322789999656,321.6840291999979,g,1.0,0.6930647999979556,,,,,,sub-131,1,stroop_test,60.23225558604704,
,,,,52.0,4.0,4.0,,,,,,,,,,,,,rot,blue,b,0.0,b,1.0,0.578740100027062,,,,,,,,,,4.0,4.0,52.0,2.0,321.6999785999651,,,,,,,,,,,,,,,,,321.6843369999551,321.7830833999906,322.58326319995103,322.5669728999492,,,,,,,,,,,,,,,,,,,,,,,,,,,,,,,,,,,322.5705873999977,322.58326319995103,322.58326319995103,323.167450799956,b,1.0,0.578740100027062,,,,,,sub-131,1,stroop_test,60.23225558604704,
,,,,53.0,5.0,4.0,,,,,,,,,,,,,rot,red,r,1.0,r,1.0,0.6477376999682747,,,,,,,,,,4.0,5.0,53.0,1.0,323.1831249999814,,,,,,,,,,,,,,,,,323.1677065999829,323.983212799998,324.78392719995463,324.7685526999994,,,,,,,,,,,,,,,,,,,,,,,,,,,,,,,,,,,324.7689436999499,324.78392719995463,324.78392719995463,325.45160879998,r,1.0,0.6477376999682747,,,,,,sub-131,1,stroop_test,60.23225558604704,
,,,,54.0,6.0,4.0,,,,,,,,,,,,,blau,yellow,g,0.0,g,1.0,0.7300726000103168,,,,,,,,,,4.0,6.0,54.0,7.0,325.4544209999731,,,,,,,,,,,,,,,,,325.45195639994927,325.800380199973,326.60038929997245,326.5843781000003,,,,,,,,,,,,,,,,,,,,,,,,,,,,,,,,,,,326.5884846999543,326.60038929997245,326.60038929997245,327.3363690999686,g,1.0,0.7300726000103168,,,,,,sub-131,1,stroop_test,60.23225558604704,
,,,,55.0,7.0,4.0,,,,,,,,,,,,,blau,blue,b,1.0,b,1.0,0.5132329000043683,,,,,,,,,,4.0,7.0,55.0,5.0,327.350191799982,,,,,,,,,,,,,,,,,327.33661729999585,327.7000567999785,328.5000066999928,328.4839465999976,,,,,,,,,,,,,,,,,,,,,,,,,,,,,,,,,,,328.4844516000012,328.5000066999928,328.5000066999928,329.0184631999582,b,1.0,0.5132329000043683,,,,,,sub-131,1,stroop_test,60.23225558604704,
,,,,56.0,8.0,4.0,,,,,,,,,,,,,blau,blue,b,1.0,b,1.0,0.6417176999966614,,,,,,,,,,4.0,8.0,56.0,6.0,329.0334252999746,,,,,,,,,,,,,,,,,329.01885639998363,329.3835621000035,330.1835820999695,330.1672580000013,,,,,,,,,,,,,,,,,,,,,,,,,,,,,,,,,,,330.1675772999879,330.1835820999695,330.1835820999695,330.8352440999588,b,1.0,0.6417176999966614,,,,,,sub-131,1,stroop_test,60.23225558604704,
,,,,57.0,9.0,4.0,,,,,,,,,,,,,rot,yellow,g,0.0,g,1.0,0.7180246000061743,,,,,,,,,,4.0,9.0,57.0,3.0,330.8504152999958,,,,,,,,,,,,,,,,,330.8355348999612,330.9945059999591,331.8002458999981,331.7847833999549,,,,,,,,,,,,,,,,,,,,,,,,,,,,,,,,,,,331.7871113999863,331.8002458999981,331.8002458999981,332.5347154999617,g,1.0,0.7180246000061743,,,,,,sub-131,1,stroop_test,60.23225558604704,
,,,,58.0,10.0,4.0,,,,,,,,,,,,,blau,red,r,0.0,r,1.0,0.5983758000074886,,,,,,,,,,4.0,10.0,58.0,4.0,332.54997880000155,,,,,,,,,,,,,,,,,332.535088399949,332.65017759997863,333.4501032999833,333.4342174999765,,,,,,,,,,,,,,,,,,,,,,,,,,,,,,,,,,,333.4369444999611,333.4501032999833,333.4501032999833,334.07289009995293,r,1.0,0.5983758000074886,,,,,,sub-131,1,stroop_test,60.23225558604704,
,,,,59.0,11.0,4.0,,,,,,,,,,,,,gelb,blue,b,0.0,b,1.0,0.9135360999498516,,,,,,,,,,4.0,11.0,59.0,9.0,334.0770892999717,,,,,,,,,,,,,,,,,334.07323749997886,334.1834151999792,334.98330349999014,334.96721350000007,,,,,,,,,,,,,,,,,,,,,,,,,,,,,,,,,,,334.9705524999881,334.98330349999014,334.98330349999014,335.902871600003,b,1.0,0.9135360999498516,,,,,,sub-131,1,stroop_test,60.23225558604704,
,,,,60.0,0.0,5.0,,,,,,,,,,,,,gelb,blue,b,0.0,b,1.0,0.5811113999807276,,,,,,,,,,5.0,0.0,60.0,9.0,335.91717479994986,,,,,,,,,,,,,,,,,335.9031501999707,337.11648649995914,337.9166170999524,337.90103109995835,,,,,,,,,,,,,,,,,,,,,,,,,,,,,,,,,,,337.90138890000526,337.9166170999524,337.9166170999524,338.5198879999807,b,1.0,0.5811113999807276,,,,,,sub-131,1,stroop_test,60.23225558604704,
,,,,61.0,1.0,5.0,,,,,,,,,,,,,gelb,yellow,g,1.0,g,1.0,0.5419893999933265,,,,,,,,,,5.0,1.0,61.0,11.0,338.5234605000005,,,,,,,,,,,,,,,,,338.52026379999006,338.63328119996004,339.43362959998194,339.4173475999851,,,,,,,,,,,,,,,,,,,,,,,,,,,,,,,,,,,339.417665099958,339.43362959998194,339.43362959998194,339.98506619996624,g,1.0,0.5419893999933265,,,,,,sub-131,1,stroop_test,60.23225558604704,
,,,,62.0,2.0,5.0,,,,,,,,,,,,,blau,blue,b,1.0,b,1.0,0.5141095999861136,,,,,,,,,,5.0,2.0,62.0,5.0,339.99997289996827,,,,,,,,,,,,,,,,,339.98534399998607,340.7999755999772,341.60014009999577,341.5837292999495,,,,,,,,,,,,,,,,,,,,,,,,,,,,,,,,,,,341.5872465999564,341.60014009999577,341.60014009999577,342.119317899982,b,1.0,0.5141095999861136,,,,,,sub-131,1,stroop_test,60.23225558604704,
,,,,63.0,3.0,5.0,,,,,,,,,,,,,rot,red,r,1.0,r,1.0,0.6956678000278771,,,,,,,,,,5.0,3.0,63.0,1.0,342.13341929996386,,,,,,,,,,,,,,,,,342.1197438999661,342.933282199956,343.7327797999605,343.71666449995246,,,,,,,,,,,,,,,,,,,,,,,,,,,,,,,,,,,343.7191452999832,343.7327797999605,343.7327797999605,344.4337670999812,r,1.0,0.6956678000278771,,,,,,sub-131,1,stroop_test,60.23225558604704,
,,,,64.0,4.0,5.0,,,,,,,,,,,,,rot,red,r,1.0,r,1.0,0.525873800041154,,,,,,,,,,5.0,4.0,64.0,0.0,344.4495268999599,,,,,,,,,,,,,,,,,344.4341233999585,345.63311529997736,346.4332638999913,346.41727889998583,,,,,,,,,,,,,,,,,,,,,,,,,,,,,,,,,,,346.41808919998584,346.4332638999913,346.4332638999913,346.9691831999808,r,1.0,0.525873800041154,,,,,,sub-131,1,stroop_test,60.23225558604704,
,,,,65.0,5.0,5.0,,,,,,,,,,,,,rot,yellow,g,0.0,g,1.0,0.613657100009732,,,,,,,,,,5.0,5.0,65.0,3.0,346.9832970999996,,,,,,,,,,,,,,,,,346.9697820000001,347.3331638999516,348.1333713000058,348.1184096999932,,,,,,,,,,,,,,,,,,,,,,,,,,,,,,,,,,,348.1192323999712,348.1333713000058,348.1333713000058,348.75054779998027,g,1.0,0.613657100009732,,,,,,sub-131,1,stroop_test,60.23225558604704,
,,,,66.0,6.0,5.0,,,,,,,,,,,,,gelb,red,r,0.0,r,1.0,0.8479443000396714,,,,,,,,,,5.0,6.0,66.0,8.0,348.76659039995866,,,,,,,,,,,,,,,,,348.75079359998927,349.5661356999772,350.36652219999814,350.3507335999748,,,,,,,,,,,,,,,,,,,,,,,,,,,,,,,,,,,350.35690919996705,350.36652219999814,350.36652219999814,351.21940939995693,r,1.0,0.8479443000396714,,,,,,sub-131,1,stroop_test,60.23225558604704,
,,,,67.0,7.0,5.0,,,,,,,,,,,,,blau,blue,b,1.0,b,1.0,0.4393612000276334,,,,,,,,,,5.0,7.0,67.0,6.0,351.2333948999876,,,,,,,,,,,,,,,,,351.2200565999956,352.0330519999843,352.8329323999933,352.81794609996723,,,,,,,,,,,,,,,,,,,,,,,,,,,,,,,,,,,352.8222327999538,352.8329323999933,352.8329323999933,353.28519649995724,b,1.0,0.4393612000276334,,,,,,sub-131,1,stroop_test,60.23225558604704,
,,,,68.0,8.0,5.0,,,,,,,,,,,,,gelb,yellow,g,1.0,g,1.0,0.7350426000193693,,,,,,,,,,5.0,8.0,68.0,10.0,353.2997386999777,,,,,,,,,,,,,,,,,353.2856518999906,353.40013609995367,354.20012309995946,354.1849859999493,,,,,,,,,,,,,,,,,,,,,,,,,,,,,,,,,,,354.18979009997565,354.20012309995946,354.20012309995946,354.9506928999908,g,1.0,0.7350426000193693,,,,,,sub-131,1,stroop_test,60.23225558604704,
,,,,69.0,9.0,5.0,,,,,,,,,,,,,blau,yellow,g,0.0,g,1.0,0.6249087000032887,,,,,,,,,,5.0,9.0,69.0,7.0,354.9663551999838,,,,,,,,,,,,,,,,,354.9512065000017,356.1666184999631,356.9662427000003,356.95139189995825,,,,,,,,,,,,,,,,,,,,,,,,,,,,,,,,,,,356.9572182999691,356.9662427000003,356.9662427000003,357.6019244999625,g,1.0,0.6249087000032887,,,,,,sub-131,1,stroop_test,60.23225558604704,
,,,,70.0,10.0,5.0,,,,,,,,,,,,,blau,red,r,0.0,r,1.0,0.6066555000143126,,,,,,,,,,5.0,10.0,70.0,4.0,357.6165501999785,,,,,,,,,,,,,,,,,357.6024960999493,357.7166884999606,358.51668689999497,358.501715899969,,,,,,,,,,,,,,,,,,,,,,,,,,,,,,,,,,,358.5025281999842,358.51668689999497,358.51668689999497,359.13509429997066,r,1.0,0.6066555000143126,,,,,,sub-131,1,stroop_test,60.23225558604704,
,,,,71.0,11.0,5.0,,,,,,,,,,,,,rot,blue,b,0.0,b,1.0,0.5178164000390097,,,,,,,,,,5.0,11.0,71.0,2.0,359.1501990999677,,,,,,,,,,,,,,,,,359.1355395999853,360.349788099993,361.1499011999695,361.1344348999555,,,,,,,,,,,,,,,,,,,,,,,,,,,,,,,,,,,361.1398068999988,361.1499011999695,361.1499011999695,361.6852711999673,b,1.0,0.5178164000390097,,,,,,sub-131,1,stroop_test,60.23225558604704,
,,,,72.0,0.0,6.0,,,,,,,,,,,,,rot,yellow,g,0.0,g,1.0,0.6496441999915987,,,,,,,,,,6.0,0.0,72.0,3.0,361.6996559999534,,,,,,,,,,,,,,,,,361.6858599999687,362.4999966999749,363.2993827000028,363.2842527999892,,,,,,,,,,,,,,,,,,,,,,,,,,,,,,,,,,,363.2851998999831,363.2993827000028,363.2993827000028,363.9535408999655,g,1.0,0.6496441999915987,,,,,,sub-131,1,stroop_test,60.23225558604704,
,,,,73.0,1.0,6.0,,,,,,,,,,,,,rot,red,r,1.0,r,1.0,0.5317207999760285,,,,,,,,,,6.0,1.0,73.0,1.0,363.9663882000023,,,,,,,,,,,,,,,,,363.9541448999662,365.1662444999674,365.9664778999868,365.9506925999885,,,,,,,,,,,,,,,,,,,,,,,,,,,,,,,,,,,365.9516733000055,365.9664778999868,365.9664778999868,366.5016813999973,r,1.0,0.5317207999760285,,,,,,sub-131,1,stroop_test,60.23225558604704,
,,,,74.0,2.0,6.0,,,,,,,,,,,,,blau,yellow,g,0.0,g,1.0,0.7293196999817155,,,,,,,,,,6.0,2.0,74.0,7.0,366.5162313999608,,,,,,,,,,,,,,,,,366.50230979995104,367.7165117999539,368.5164381999639,368.50074339995626,,,,,,,,,,,,,,,,,,,,,,,,,,,,,,,,,,,368.50634249998257,368.5164381999639,368.5164381999639,369.2515227999538,g,1.0,0.7293196999817155,,,,,,sub-131,1,stroop_test,60.23225558604704,
,,,,75.0,3.0,6.0,,,,,,,,,,,,,gelb,yellow,g,1.0,g,1.0,0.5567727000452578,,,,,,,,,,6.0,3.0,75.0,10.0,369.2665289999568,,,,,,,,,,,,,,,,,369.2519773999811,370.4664156999788,371.2659981999896,371.2506417999976,,,,,,,,,,,,,,,,,,,,,,,,,,,,,,,,,,,371.25573319999967,371.2659981999896,371.2659981999896,371.83470939996187,g,1.0,0.5567727000452578,,,,,,sub-131,1,stroop_test,60.23225558604704,
,,,,76.0,4.0,6.0,,,,,,,,,,,,,gelb,red,r,0.0,r,1.0,0.6095108999870718,,,,,,,,,,6.0,4.0,76.0,8.0,371.8494176999666,,,,,,,,,,,,,,,,,371.8351425000001,371.9494238999905,372.7494341999991,372.734123000002,,,,,,,,,,,,,,,,,,,,,,,,,,,,,,,,,,,372.7350051999674,372.7494341999991,372.7494341999991,373.3682847999735,r,1.0,0.6095108999870718,,,,,,sub-131,1,stroop_test,60.23225558604704,
,,,,77.0,5.0,6.0,,,,,,,,,,,,,gelb,blue,b,0.0,b,1.0,0.5506388999638148,,,,,,,,,,6.0,5.0,77.0,9.0,373.3826676000026,,,,,,,,,,,,,,,,,373.368819699972,374.1831011999748,374.98283959995024,374.9675297999638,,,,,,,,,,,,,,,,,,,,,,,,,,,,,,,,,,,374.9684568999801,374.98283959995024,374.98283959995024,375.5378590999753,b,1.0,0.5506388999638148,,,,,,sub-131,1,stroop_test,60.23225558604704,
,,,,78.0,6.0,6.0,,,,,,,,,,,,,blau,blue,b,1.0,b,1.0,0.5125753000029363,,,,,,,,,,6.0,6.0,78.0,5.0,375.5496291999589,,,,,,,,,,,,,,,,,375.5382889999892,376.3492616000003,377.1499714999809,377.1343214999652,,,,,,,,,,,,,,,,,,,,,,,,,,,,,,,,,,,377.1385638999636,377.1499714999809,377.1499714999809,377.668082499993,b,1.0,0.5125753000029363,,,,,,sub-131,1,stroop_test,60.23225558604704,
,,,,79.0,7.0,6.0,,,,,,,,,,,,,rot,red,r,1.0,r,1.0,0.6944818000192754,,,,,,,,,,6.0,7.0,79.0,0.0,377.68296539998846,,,,,,,,,,,,,,,,,377.6686302999733,378.48305169999367,379.2823661000002,379.26752699998906,,,,,,,,,,,,,,,,,,,,,,,,,,,,,,,,,,,379.2720158000011,379.2823661000002,379.2823661000002,379.9854279999854,r,1.0,0.6944818000192754,,,,,,sub-131,1,stroop_test,60.23225558604704,
,,,,80.0,8.0,6.0,,,,,,,,,,,,,blau,blue,b,1.0,b,1.0,0.6252829000004567,,,,,,,,,,6.0,8.0,80.0,6.0,379.99949119996745,,,,,,,,,,,,,,,,,379.9859621999785,380.0991446999833,380.8996821999899,380.8842508999514,,,,,,,,,,,,,,,,,,,,,,,,,,,,,,,,,,,380.8894695999916,380.8996821999899,380.8996821999899,381.5341800999595,b,1.0,0.6252829000004567,,,,,,sub-131,1,stroop_test,60.23225558604704,
,,,,81.0,9.0,6.0,,,,,,,,,,,,,gelb,yellow,g,1.0,g,1.0,0.5319908000528812,,,,,,,,,,6.0,9.0,81.0,11.0,381.5493022999726,,,,,,,,,,,,,,,,,381.5346664999961,381.89946479996433,382.6996342999628,382.6843856999767,,,,,,,,,,,,,,,,,,,,,,,,,,,,,,,,,,,382.6892488999874,382.6996342999628,382.6996342999628,383.2361680999748,g,1.0,0.5319908000528812,,,,,,sub-131,1,stroop_test,60.23225558604704,
,,,,82.0,10.0,6.0,,,,,,,,,,,,,rot,blue,b,0.0,b,1.0,0.6589086999883875,,,,,,,,,,6.0,10.0,82.0,2.0,383.24935589998495,,,,,,,,,,,,,,,,,383.2366659999825,383.3490853999974,384.1494520999841,384.1347184999613,,,,,,,,,,,,,,,,,,,,,,,,,,,,,,,,,,,384.14061269996455,384.1494520999841,384.1494520999841,384.8177447000053,b,1.0,0.6589086999883875,,,,,,sub-131,1,stroop_test,60.23225558604704,
,,,,83.0,11.0,6.0,,,,,,,,,,,,,blau,red,r,0.0,r,1.0,0.4422359999734908,,,,,,,,,,6.0,11.0,83.0,4.0,384.8324449999491,,,,,,,,,,,,,,,,,384.818202399998,385.1825536999968,385.9824420999503,385.9673743000021,,,,,,,,,,,,,,,,,,,,,,,,,,,,,,,,,,,385.9731858999585,385.9824420999503,385.9824420999503,386.43300779996207,r,1.0,0.4422359999734908,,,,,,sub-131,1,stroop_test,60.23225558604704,
,,,,84.0,0.0,7.0,,,,,,,,,,,,,blau,yellow,g,0.0,g,1.0,0.7142401000019163,,,,,,,,,,7.0,0.0,84.0,7.0,386.4492201999528,,,,,,,,,,,,,,,,,386.4332666999544,386.5331146999961,387.3328142999672,387.3177270999877,,,,,,,,,,,,,,,,,,,,,,,,,,,,,,,,,,,387.3185519999825,387.3328142999672,387.3328142999672,388.0503176999628,g,1.0,0.7142401000019163,,,,,,sub-131,1,stroop_test,60.23225558604704,
,,,,85.0,1.0,7.0,,,,,,,,,,,,,gelb,yellow,g,1.0,g,1.0,0.6026886000181548,,,,,,,,,,7.0,1.0,85.0,10.0,388.0659378999844,,,,,,,,,,,,,,,,,388.0506671000039,388.4158279999974,389.2161237999681,389.2009901999845,,,,,,,,,,,,,,,,,,,,,,,,,,,,,,,,,,,389.2062288000016,389.2161237999681,389.2161237999681,389.83566409995547,g,1.0,0.6026886000181548,,,,,,sub-131,1,stroop_test,60.23225558604704,
,,,,86.0,2.0,7.0,,,,,,,,,,,,,rot,red,r,1.0,r,1.0,0.5161628000205383,,,,,,,,,,7.0,2.0,86.0,0.0,389.8494936999632,,,,,,,,,,,,,,,,,389.8362797999871,391.04908149997937,391.8490408999496,391.83419219998177,,,,,,,,,,,,,,,,,,,,,,,,,,,,,,,,,,,391.8396327999653,391.8490408999496,391.8490408999496,392.37041469995165,r,1.0,0.5161628000205383,,,,,,sub-131,1,stroop_test,60.23225558604704,
,,,,87.0,3.0,7.0,,,,,,,,,,,,,gelb,red,r,0.0,r,1.0,0.7401845999993384,,,,,,,,,,7.0,3.0,87.0,8.0,392.3824087999528,,,,,,,,,,,,,,,,,392.3708967999555,392.4828362999833,393.2825489999959,393.2670409999555,,,,,,,,,,,,,,,,,,,,,,,,,,,,,,,,,,,393.2707389999996,393.2825489999959,393.2825489999959,394.0348184999893,r,1.0,0.7401845999993384,,,,,,sub-131,1,stroop_test,60.23225558604704,
,,,,88.0,4.0,7.0,,,,,,,,,,,,,gelb,blue,b,0.0,b,1.0,0.4795674000051804,,,,,,,,,,7.0,4.0,88.0,9.0,394.0490905999905,,,,,,,,,,,,,,,,,394.0353069999837,394.3993044999661,395.1997665999807,395.1839990000008,,,,,,,,,,,,,,,,,,,,,,,,,,,,,,,,,,,395.18468229996506,395.1997665999807,395.1997665999807,395.6859343999531,b,1.0,0.4795674000051804,,,,,,sub-131,1,stroop_test,60.23225558604704,
,,,,89.0,5.0,7.0,,,,,,,,,,,,,blau,blue,b,1.0,b,1.0,0.653023699996993,,,,,,,,,,7.0,5.0,89.0,5.0,395.69923099997686,,,,,,,,,,,,,,,,,395.6864892999874,395.79913299996406,396.5991775000002,396.5836055999971,,,,,,,,,,,,,,,,,,,,,,,,,,,,,,,,,,,396.5897044999874,396.5991775000002,396.5991775000002,397.2687079999596,b,1.0,0.653023699996993,,,,,,sub-131,1,stroop_test,60.23225558604704,
,,,,90.0,6.0,7.0,,,,,,,,,,,,,blau,red,r,0.0,r,1.0,0.6265749000012875,,,,,,,,,,7.0,6.0,90.0,4.0,397.2824571999954,,,,,,,,,,,,,,,,,397.2692589999642,398.4821372999577,399.282475999964,399.267187099962,,,,,,,,,,,,,,,,,,,,,,,,,,,,,,,,,,,399.2683954999666,399.282475999964,399.282475999964,399.9173104999936,r,1.0,0.6265749000012875,,,,,,sub-131,1,stroop_test,60.23225558604704,
,,,,91.0,7.0,7.0,,,,,,,,,,,,,rot,blue,b,0.0,b,1.0,0.6852468999568373,,,,,,,,,,7.0,7.0,91.0,2.0,399.9321515999618,,,,,,,,,,,,,,,,,399.9177942999522,400.732411200006,401.532482599956,401.5166960000061,,,,,,,,,,,,,,,,,,,,,,,,,,,,,,,,,,,401.5211857999675,401.532482599956,401.532482599956,402.2343919999548,b,1.0,0.6852468999568373,,,,,,sub-131,1,stroop_test,60.23225558604704,
,,,,92.0,8.0,7.0,,,,,,,,,,,,,rot,red,r,1.0,r,1.0,0.7257118999841623,,,,,,,,,,7.0,8.0,92.0,1.0,402.2493635999854,,,,,,,,,,,,,,,,,402.2351610999904,403.4496386999963,404.24905709997984,404.2331688999548,,,,,,,,,,,,,,,,,,,,,,,,,,,,,,,,,,,404.2340045999736,404.24905709997984,404.24905709997984,404.9845350999967,r,1.0,0.7257118999841623,,,,,,sub-131,1,stroop_test,60.23225558604704,
,,,,93.0,9.0,7.0,,,,,,,,,,,,,rot,yellow,g,0.0,g,1.0,0.7072367999935523,,,,,,,,,,7.0,9.0,93.0,3.0,404.9989340999746,,,,,,,,,,,,,,,,,404.9851148999878,405.7993396999664,406.5987437999575,406.5826065999572,,,,,,,,,,,,,,,,,,,,,,,,,,,,,,,,,,,406.58313659997657,406.5987437999575,406.5987437999575,407.3179091999773,g,1.0,0.7072367999935523,,,,,,sub-131,1,stroop_test,60.23225558604704,
,,,,94.0,10.0,7.0,,,,,,,,,,,,,blau,blue,b,1.0,b,1.0,0.578606299997773,,,,,,,,,,7.0,10.0,94.0,6.0,407.3323315999587,,,,,,,,,,,,,,,,,407.3184309999924,407.4322503999574,408.2323185999994,408.2171220000018,,,,,,,,,,,,,,,,,,,,,,,,,,,,,,,,,,,408.2237392999814,408.2323185999994,408.2323185999994,408.81832219997887,b,1.0,0.578606299997773,,,,,,sub-131,1,stroop_test,60.23225558604704,
,,,,95.0,11.0,7.0,,,,,,,,,,,,,gelb,yellow,g,1.0,g,1.0,0.6819411999895237,,,,,,,,,,7.0,11.0,95.0,11.0,408.8324056999991,,,,,,,,,,,,,,,,,408.8188921999536,409.1818798999884,409.9824535999797,409.9677302999771,,,,,,,,,,,,,,,,,,,,,,,,,,,,,,,,,,,409.9730638999608,409.9824535999797,409.9824535999797,410.6684765999671,g,1.0,0.6819411999895237,,,,,,sub-131,1,stroop_test,60.23225558604704,
,,,,96.0,0.0,8.0,,,,,,,,,,,,,rot,blue,b,0.0,b,1.0,0.5862764000194147,,,,,,,,,,8.0,0.0,96.0,2.0,410.6822052999632,,,,,,,,,,,,,,,,,410.6690349999699,411.48232650000136,412.2822398999706,412.2676293999539,,,,,,,,,,,,,,,,,,,,,,,,,,,,,,,,,,,412.2734531000024,412.2822398999706,412.2822398999706,412.8846420999616,b,1.0,0.5862764000194147,,,,,,sub-131,1,stroop_test,60.23225558604704,
,,,,97.0,1.0,8.0,,,,,,,,,,,,,rot,red,r,1.0,r,1.0,0.5763239999650978,,,,,,,,,,8.0,1.0,97.0,1.0,412.8991355999606,,,,,,,,,,,,,,,,,412.88534300000174,414.0987571000005,414.8990538999788,414.88368919998175,,,,,,,,,,,,,,,,,,,,,,,,,,,,,,,,,,,414.88439079996897,414.8990538999788,414.8990538999788,415.4854571999749,r,1.0,0.5763239999650978,,,,,,sub-131,1,stroop_test,60.23225558604704,
,,,,98.0,2.0,8.0,,,,,,,,,,,,,blau,yellow,g,0.0,g,1.0,0.4607608999940566,,,,,,,,,,8.0,2.0,98.0,7.0,415.4989213999943,,,,,,,,,,,,,,,,,415.4859047999489,416.2991472999565,417.0987423000042,417.0842788000009,,,,,,,,,,,,,,,,,,,,,,,,,,,,,,,,,,,417.089327899972,417.0987423000042,417.0987423000042,417.5672347999644,g,1.0,0.4607608999940566,,,,,,sub-131,1,stroop_test,60.23225558604704,
,,,,99.0,3.0,8.0,,,,,,,,,,,,,rot,yellow,g,0.0,g,1.0,0.6666918999981135,,,,,,,,,,8.0,3.0,99.0,3.0,417.5820349999704,,,,,,,,,,,,,,,,,417.5677569999825,418.3822153999936,419.1821612999775,419.1673682999681,,,,,,,,,,,,,,,,,,,,,,,,,,,,,,,,,,,419.17218479997246,419.1821612999775,419.1821612999775,419.8536894999561,g,1.0,0.6666918999981135,,,,,,sub-131,1,stroop_test,60.23225558604704,
,,,,100.0,4.0,8.0,,,,,,,,,,,,,gelb,blue,b,0.0,b,1.0,0.6116656999802217,,,,,,,,,,8.0,4.0,100.0,9.0,419.8657336999895,,,,,,,,,,,,,,,,,419.8541859999532,420.2155786999501,421.0154156999779,420.9999158999999,,,,,,,,,,,,,,,,,,,,,,,,,,,,,,,,,,,421.0060788999545,421.0154156999779,421.0154156999779,421.6342127999524,b,1.0,0.6116656999802217,,,,,,sub-131,1,stroop_test,60.23225558604704,
,,,,101.0,5.0,8.0,,,,,,,,,,,,,blau,red,r,0.0,r,1.0,1.0469737999956124,,,,,,,,,,8.0,5.0,101.0,4.0,421.6490463999799,,,,,,,,,,,,,,,,,421.6346932000015,421.74887799995486,422.5491494999733,422.53300890000537,,,,,,,,,,,,,,,,,,,,,,,,,,,,,,,,,,,422.5376173999976,422.5491494999733,422.5491494999733,423.6023936999845,r,1.0,1.0469737999956124,,,,,,sub-131,1,stroop_test,60.23225558604704,
,,,,102.0,6.0,8.0,,,,,,,,,,,,,blau,blue,b,1.0,b,1.0,0.5335443000076339,,,,,,,,,,8.0,6.0,102.0,5.0,423.6153157999506,,,,,,,,,,,,,,,,,423.6028836999904,424.4157117999857,425.2156452999916,425.2000960999867,,,,,,,,,,,,,,,,,,,,,,,,,,,,,,,,,,,425.2008851999999,425.2156452999916,425.2156452999916,425.7553196999943,b,1.0,0.5335443000076339,,,,,,sub-131,1,stroop_test,60.23225558604704,
,,,,103.0,7.0,8.0,,,,,,,,,,,,,gelb,red,r,0.0,r,1.0,0.9286944000050426,,,,,,,,,,8.0,7.0,103.0,8.0,425.7655257000006,,,,,,,,,,,,,,,,,425.75598289998015,426.1155013999669,426.9152245000005,426.89987169997767,,,,,,,,,,,,,,,,,,,,,,,,,,,,,,,,,,,426.90469799999846,426.9152245000005,426.9152245000005,427.8505169999553,r,1.0,0.9286944000050426,,,,,,sub-131,1,stroop_test,60.23225558604704,
,,,,104.0,8.0,8.0,,,,,,,,,,,,,rot,red,r,1.0,r,1.0,0.626913899963256,,,,,,,,,,8.0,8.0,104.0,0.0,427.8654303999501,,,,,,,,,,,,,,,,,427.851036899956,428.21500659995945,429.0151779999724,428.9986979999812,,,,,,,,,,,,,,,,,,,,,,,,,,,,,,,,,,,429.0018908999628,429.0151779999724,429.0151779999724,429.6506211999804,r,1.0,0.626913899963256,,,,,,sub-131,1,stroop_test,60.23225558604704,
,,,,105.0,9.0,8.0,,,,,,,,,,,,,gelb,yellow,g,1.0,g,1.0,0.4967037999886088,,,,,,,,,,8.0,9.0,105.0,10.0,429.6652427999652,,,,,,,,,,,,,,,,,429.65106599999126,430.8655584999942,431.66535500000464,431.6504081999883,,,,,,,,,,,,,,,,,,,,,,,,,,,,,,,,,,,431.6548143999535,431.66535500000464,431.66535500000464,432.167963099957,g,1.0,0.4967037999886088,,,,,,sub-131,1,stroop_test,60.23225558604704,
,,,,106.0,10.0,8.0,,,,,,,,,,,,,blau,blue,b,1.0,b,1.0,0.5708411000086926,,,,,,,,,,8.0,10.0,106.0,6.0,432.18178489996353,,,,,,,,,,,,,,,,,432.168546699977,433.3817505000043,434.1818066999549,434.16668759996537,,,,,,,,,,,,,,,,,,,,,,,,,,,,,,,,,,,434.1717562999693,434.1818066999549,434.1818066999549,434.76837559998967,b,1.0,0.5708411000086926,,,,,,sub-131,1,stroop_test,60.23225558604704,
,,,,107.0,11.0,8.0,,,,,,,,,,,,,gelb,yellow,g,1.0,g,1.0,0.7395779999787919,,,,,,,,,,8.0,11.0,107.0,11.0,434.7820403999649,,,,,,,,,,,,,,,,,434.7690253999899,435.13170029997127,435.93214009999065,435.9163734999602,,,,,,,,,,,,,,,,,,,,,,,,,,,,,,,,,,,435.9204757999978,435.93214009999065,435.93214009999065,436.6839034999721,g,1.0,0.7395779999787919,,,,,,sub-131,1,stroop_test,60.23225558604704,
,,,,108.0,0.0,9.0,,,,,,,,,,,,,gelb,yellow,g,1.0,g,1.0,0.5293380999937654,,,,,,,,,,9.0,0.0,108.0,11.0,436.6987175999675,,,,,,,,,,,,,,,,,436.68435579998186,436.7987553999992,437.5984595000045,437.58305209997343,,,,,,,,,,,,,,,,,,,,,,,,,,,,,,,,,,,437.5839300999651,437.5984595000045,437.5984595000045,438.1344527999754,g,1.0,0.5293380999937654,,,,,,sub-131,1,stroop_test,60.23225558604704,
,,,,109.0,1.0,9.0,,,,,,,,,,,,,blau,blue,b,1.0,b,1.0,0.5715264999889769,,,,,,,,,,9.0,1.0,109.0,6.0,438.1483771999483,,,,,,,,,,,,,,,,,438.1348524999921,438.24870050000027,439.048323999974,439.03375999996206,,,,,,,,,,,,,,,,,,,,,,,,,,,,,,,,,,,439.03869829996256,439.048323999974,439.048323999974,439.6336752999923,b,1.0,0.5715264999889769,,,,,,sub-131,1,stroop_test,60.23225558604704,
,,,,110.0,2.0,9.0,,,,,,,,,,,,,rot,red,r,1.0,r,1.0,0.5569661000045016,,,,,,,,,,9.0,2.0,110.0,1.0,439.6488945999881,,,,,,,,,,,,,,,,,439.6341749999556,440.4489682999556,441.2482380999718,441.2332486999803,,,,,,,,,,,,,,,,,,,,,,,,,,,,,,,,,,,441.2390480999602,441.2482380999718,441.2482380999718,441.81728159997147,r,1.0,0.5569661000045016,,,,,,sub-131,1,stroop_test,60.23225558604704,
,,,,111.0,3.0,9.0,,,,,,,,,,,,,gelb,blue,b,0.0,b,1.0,0.6493334000115283,,,,,,,,,,9.0,3.0,111.0,9.0,441.8317013999913,,,,,,,,,,,,,,,,,441.8177727999864,443.0316070999834,443.831429999962,443.81536079995567,,,,,,,,,,,,,,,,,,,,,,,,,,,,,,,,,,,443.8181370999664,443.831429999962,443.831429999962,444.4855569999781,b,1.0,0.6493334000115283,,,,,,sub-131,1,stroop_test,60.23225558604704,
,,,,112.0,4.0,9.0,,,,,,,,,,,,,blau,red,r,0.0,r,1.0,0.6170726999989711,,,,,,,,,,9.0,4.0,112.0,4.0,444.49851449998096,,,,,,,,,,,,,,,,,444.4861625999911,445.29809739999473,446.0984647999867,446.0833538000006,,,,,,,,,,,,,,,,,,,,,,,,,,,,,,,,,,,446.0887432000018,446.0984647999867,446.0984647999867,446.7198090999737,r,1.0,0.6170726999989711,,,,,,sub-131,1,stroop_test,60.23225558604704,
,,,,113.0,5.0,9.0,,,,,,,,,,,,,rot,red,r,1.0,r,1.0,0.6497751999995671,,,,,,,,,,9.0,5.0,113.0,0.0,446.7316687999992,,,,,,,,,,,,,,,,,446.7202589999652,447.931638799957,448.731753,448.71678659995086,,,,,,,,,,,,,,,,,,,,,,,,,,,,,,,,,,,448.7221948999795,448.731753,448.731753,449.3861176999635,r,1.0,0.6497751999995671,,,,,,sub-131,1,stroop_test,60.23225558604704,
,,,,114.0,6.0,9.0,,,,,,,,,,,,,rot,yellow,g,0.0,g,1.0,0.5668512000120245,,,,,,,,,,9.0,6.0,114.0,3.0,449.3981544999988,,,,,,,,,,,,,,,,,449.38662129995646,449.7486970999744,450.5483226999641,450.5329293999821,,,,,,,,,,,,,,,,,,,,,,,,,,,,,,,,,,,450.5337821999565,450.5483226999641,450.5483226999641,451.1177250999608,g,1.0,0.5668512000120245,,,,,,sub-131,1,stroop_test,60.23225558604704,
,,,,115.0,7.0,9.0,,,,,,,,,,,,,rot,blue,b,0.0,b,1.0,0.5952133000246249,,,,,,,,,,9.0,7.0,115.0,2.0,451.1316149999621,,,,,,,,,,,,,,,,,451.118047099968,451.48140729998704,452.2816923999926,452.26592679996975,,,,,,,,,,,,,,,,,,,,,,,,,,,,,,,,,,,452.2665955999983,452.2816923999926,452.2816923999926,452.88345999998273,b,1.0,0.5952133000246249,,,,,,sub-131,1,stroop_test,60.23225558604704,
,,,,116.0,8.0,9.0,,,,,,,,,,,,,blau,yellow,g,0.0,g,1.0,0.8285774000105448,,,,,,,,,,9.0,8.0,116.0,7.0,452.8983849999495,,,,,,,,,,,,,,,,,452.88390239997534,453.6982346999576,454.4983753999695,454.4826701999991,,,,,,,,,,,,,,,,,,,,,,,,,,,,,,,,,,,454.48740709997946,454.4983753999695,454.4983753999695,455.33306059998,g,1.0,0.8285774000105448,,,,,,sub-131,1,stroop_test,60.23225558604704,
,,,,117.0,9.0,9.0,,,,,,,,,,,,,blau,blue,b,1.0,b,1.0,0.7757206999813206,,,,,,,,,,9.0,9.0,117.0,5.0,455.3483414999792,,,,,,,,,,,,,,,,,455.3334388999501,455.4482709000004,456.2484168999945,456.2329954999732,,,,,,,,,,,,,,,,,,,,,,,,,,,,,,,,,,,456.2337904999731,456.2484168999945,456.2484168999945,457.0330546000041,b,1.0,0.7757206999813206,,,,,,sub-131,1,stroop_test,60.23225558604704,
,,,,118.0,10.0,9.0,,,,,,,,,,,,,gelb,red,r,0.0,r,1.0,0.5486156999832019,,,,,,,,,,9.0,10.0,118.0,8.0,457.0480413999758,,,,,,,,,,,,,,,,,457.03358329995535,457.1477801000001,457.94820719998097,457.93259799998486,,,,,,,,,,,,,,,,,,,,,,,,,,,,,,,,,,,457.9365508999908,457.94820719998097,457.94820719998097,458.5022950999555,r,1.0,0.5486156999832019,,,,,,sub-131,1,stroop_test,60.23225558604704,
,,,,119.0,11.0,9.0,,,,,,,,,,,,,gelb,yellow,g,1.0,g,1.0,0.5498116000089794,,,,,,,,,,9.0,11.0,119.0,10.0,458.51509599998826,,,,,,,,,,,,,,,,,458.5027751000016,459.3149306999985,460.1145540999714,460.098506899958,,,,,,,,,,,,,,,,,,,,,,,,,,,,,,,,,,,460.0988485999988,460.1145540999714,460.1145540999714,460.66632619994925,g,1.0,0.5498116000089794,,,,,,sub-131,1,stroop_test,60.23225558604704,
,,,,,,,,,,,,,,,,,,,,,,,,,,,,,,,,,,,,,,,,,,,,,,,,,,,,,,,,,,,,,,,,,,,,,,,,,,,,,,,,,,,,,,,,,,,,,,,,,,,,,,460.66644439997617,460.6811170000001,465.6815421999781,465.6667170999572,sub-131,1,stroop_test,60.23225558604704,
