wordCTK,colorCTK,corrAnsCTK,congruentCTK,wordPractice,colorPractice,corrAnsPractice,congruentPractice,word,color,corrAns,congruent,trials_CTK.thisRepN,trials_CTK.thisTrialN,trials_CTK.thisN,trials_CTK.thisIndex,trials_practice.thisRepN,trials_practice.thisTrialN,trials_practice.thisN,trials_practice.thisIndex,trials_test.thisRepN,trials_test.thisTrialN,trials_test.thisN,trials_test.thisIndex,thisRow.t,notes,instruction.started,instr_text.started,instr_image.started,instr_resp.started,instruction.stopped,instr_resp.keys,instr_resp.rt,instr_resp.duration,instr_color_to_key.started,instr_ctk.started,resp_ctk.started,instr_color_to_key.stopped,resp_ctk.keys,resp_ctk.rt,resp_ctk.duration,ITI.started,fixcross.started,fixcross.stopped,ITI.stopped,color_to_key_run.started,stimulus_CTK.started,keyResp_CTK.started,color_to_key_run.stopped,keyResp_CTK.keys,keyResp_CTK.corr,keyResp_CTK.rt,keyResp_CTK.duration,instr_practice.started,instr_practice_text.started,instr_practice_resp.started,instr_practice.stopped,instr_practice_resp.keys,instr_practice_resp.rt,instr_practice_resp.duration,practice_run.started,stimulus_practice.started,respPractice.started,practice_run.stopped,respPractice.keys,respPractice.corr,respPractice.rt,respPractice.duration,feedback.started,textFeedback.started,feedback.stopped,textFeedback.stopped,instr_test.started,instr_test_text.started,instr_test_resp.started,instr_test.stopped,instr_test_resp.keys,instr_test_resp.rt,instr_test_resp.duration,test_run.started,stimulus_test_run.started,keyResp_test_run.started,test_run.stopped,keyResp_test_run.keys,keyResp_test_run.corr,keyResp_test_run.rt,keyResp_test_run.duration,goodbye.started,textGoodbye.started,goodbye.stopped,participant,session,expName,frameRate,Unnamed: 97
,,,,,,,,,,,,,,,,,,,,,,,,,,0.0080421000020578,0.0775126999942585,0.0775126999942585,0.0775126999942585,4.086176799959503,space,4.004303999943659,,,,,,,,,,,,,,,,,,,,,,,,,,,,,,,,,,,,,,,,,,,,,,,,,,,,,,,,,,sub-138,3.0,stroop_test,59.63637318633464,
,,,,,,,,,,,,,,,,,,,,,,,,,,,,,,,,,,4.086268899962306,4.103280399926007,4.103280399926007,4.902809899998829,space,0.7845601999433711,,,,,,,,,,,,,,,,,,,,,,,,,,,,,,,,,,,,,,,,,,,,,,,,,,,sub-138,3.0,stroop_test,59.63637318633464,
test,yellow,g,1.0,,,,,,,,,0.0,0.0,0.0,1.0,,,,,,,,,5.038927600020543,,,,,,,,,,,,,,,,,5.023436999996193,5.038927600020543,5.848949000006542,5.830638599931262,5.830679300008342,5.848949000006542,5.848949000006542,6.8828750000102445,g,1.0,1.0260400000261145,,,,,,,,,,,,,,,,,,,,,,,,,,,,,,,,,,,,,,,sub-138,3.0,stroop_test,59.63637318633464,
test,red,r,1.0,,,,,,,,,0.0,1.0,1.0,0.0,,,,,,,,,6.903346200007945,,,,,,,,,,,,,,,,,6.897801899933256,6.99643009994179,7.796800300013274,7.780746400007047,7.780786799965426,7.796800300013274,7.796800300013274,8.564076800015755,r,1.0,0.7583219000371173,,,,,,,,,,,,,,,,,,,,,,,,,,,,,,,,,,,,,,,sub-138,3.0,stroop_test,59.63637318633464,
test,blue,b,1.0,,,,,,,,,0.0,2.0,2.0,2.0,,,,,,,,,8.578828500001691,,,,,,,,,,,,,,,,,8.565941900014877,8.678775199921802,9.478951100027189,9.464533900027163,9.464607500005512,9.478951100027189,9.478951100027189,9.848825299995951,b,1.0,0.35461729997769,,,,,,,,,,,,,,,,,,,,,,,,,,,,,,,,,,,,,,,sub-138,3.0,stroop_test,59.63637318633464,
test,blue,b,1.0,,,,,,,,,1.0,0.0,3.0,2.0,,,,,,,,,9.862579499953426,,,,,,,,,,,,,,,,,9.85116109997034,10.6631016000174,11.47803739993833,11.464409900014289,11.46453300002031,11.47803739993833,11.47803739993833,12.04955080000218,r,0.0,0.5578347999835387,,,,,,,,,,,,,,,,,,,,,,,,,,,,,,,,,,,,,,,sub-138,3.0,stroop_test,59.63637318633464,
test,red,r,1.0,,,,,,,,,1.0,1.0,4.0,0.0,,,,,,,,,12.061516399960963,,,,,,,,,,,,,,,,,12.052964499918744,12.411790199927054,13.21075019997079,13.19629220000934,13.196369200013578,13.21075019997079,13.21075019997079,14.079450199962594,r,1.0,0.8519229999510571,,,,,,,,,,,,,,,,,,,,,,,,,,,,,,,,,,,,,,,sub-138,3.0,stroop_test,59.63637318633464,
test,yellow,g,1.0,,,,,,,,,1.0,2.0,5.0,1.0,,,,,,,,,14.093218200025149,,,,,,,,,,,,,,,,,14.08232439996209,14.892802699934691,15.692154499934986,15.677739399950951,15.677798899938352,15.692154499934986,15.692154499934986,16.444770099944435,g,1.0,0.7346213000128046,,,,,,,,,,,,,,,,,,,,,,,,,,,,,,,,,,,,,,,sub-138,3.0,stroop_test,59.63637318633464,
test,blue,b,1.0,,,,,,,,,2.0,0.0,6.0,2.0,,,,,,,,,16.458293100004084,,,,,,,,,,,,,,,,,16.447701000026427,16.558701999951154,17.357700899941847,17.342950199963525,17.343008999945596,17.357700899941847,17.357700899941847,18.390364599996246,b,1.0,1.0300748000154272,,,,,,,,,,,,,,,,,,,,,,,,,,,,,,,,,,,,,,,sub-138,3.0,stroop_test,59.63637318633464,
test,red,r,1.0,,,,,,,,,2.0,1.0,7.0,0.0,,,,,,,,,18.40480179991573,,,,,,,,,,,,,,,,,18.391449899994768,18.7549488999648,19.554923699935895,19.53961380000692,19.539664499927312,19.554923699935895,19.554923699935895,20.423279899987392,r,1.0,0.8531867999117821,,,,,,,,,,,,,,,,,,,,,,,,,,,,,,,,,,,,,,,sub-138,3.0,stroop_test,59.63637318633464,
test,yellow,g,1.0,,,,,,,,,2.0,2.0,8.0,1.0,,,,,,,,,20.43787389993668,,,,,,,,,,,,,,,,,20.42482019995805,21.64210950001143,22.453154399991035,22.43662069994025,22.436664899927564,22.453154399991035,22.453154399991035,23.390314599964768,g,1.0,0.9322668999666348,,,,,,,,,,,,,,,,,,,,,,,,,,,,,,,,,,,,,,,sub-138,3.0,stroop_test,59.63637318633464,
test,yellow,g,1.0,,,,,,,,,3.0,0.0,9.0,1.0,,,,,,,,,23.403640699922107,,,,,,,,,,,,,,,,,23.393220699974336,24.20334309991449,25.00270009995438,24.98783280001953,24.98788599995896,25.00270009995438,25.00270009995438,26.03827579994686,g,1.0,1.017780900001526,,,,,,,,,,,,,,,,,,,,,,,,,,,,,,,,,,,,,,,sub-138,3.0,stroop_test,59.63637318633464,
test,red,r,1.0,,,,,,,,,3.0,1.0,10.0,0.0,,,,,,,,,26.052055999985896,,,,,,,,,,,,,,,,,26.041494200006127,26.401805199915543,27.20123030000832,27.18682960001752,27.186912199947983,27.20123030000832,27.20123030000832,27.971539999940436,r,1.0,0.7524294999893755,,,,,,,,,,,,,,,,,,,,,,,,,,,,,,,,,,,,,,,sub-138,3.0,stroop_test,59.63637318633464,
test,blue,b,1.0,,,,,,,,,3.0,2.0,11.0,2.0,,,,,,,,,27.984001899953,,,,,,,,,,,,,,,,,27.974229399929754,29.183794799959287,29.99919310002588,29.984955699997958,29.985009699943475,29.99919310002588,29.99919310002588,30.370220299926583,b,1.0,0.3624888999620452,,,,,,,,,,,,,,,,,,,,,,,,,,,,,,,,,,,,,,,sub-138,3.0,stroop_test,59.63637318633464,
,,,,,,,,,,,,,,,,,,,,,,,,,,,,,,,,,,,,,,,,,,,,,,,,,,,,,30.372330299927853,30.38352769997437,30.38352769997437,31.485679199919105,space,1.089873700053431,,,,,,,,,,,,,,,,,,,,,,,,,,,,,,,,sub-138,3.0,stroop_test,59.63637318633464,
,,,,gelb,yellow,g,1.0,,,,,,,,,0.0,0.0,0.0,11.0,,,,,31.60936649993528,,,,,,,,,,,,,,,,,31.60170799994376,32.29645729996264,33.11364410002716,33.08282979996875,,,,,,,,,,,,,,,,33.08290279994253,33.11364410002716,33.11364410002716,34.13314639998134,g,1.0,1.0080799999414012,,34.13529749994632,34.17541329993401,35.146307899965905,,,,,,,,,,,,,,,,,,,,sub-138,3.0,stroop_test,59.63637318633464,
,,,,rot,yellow,g,0.0,,,,,,,,,0.0,1.0,1.0,3.0,,,,,35.162424799986184,,,,,,,,,,,,,,,,,35.14794569998048,35.24579969991464,36.06066049996298,36.03063019993715,,,,,,,,,,,,,,,,36.03071249998175,36.06066049996298,36.06066049996298,36.79986749996897,g,1.0,0.7353303000563756,,36.80146629991941,36.81394949997775,37.81157519994304,,,,,,,,,,,,,,,,,,,,sub-138,3.0,stroop_test,59.63637318633464,
,,,,gelb,blue,b,0.0,,,,,,,,,0.0,2.0,2.0,9.0,,,,,37.827802999992855,,,,,,,,,,,,,,,,,37.81294430000708,38.610390799934976,39.42206949996762,39.39623760001268,,,,,,,,,,,,,,,,39.39633179991506,39.42206949996762,39.42206949996762,40.11269259999972,b,1.0,0.6734552000416443,,40.114630299969576,40.12747089995537,41.12544039997738,,,,,,,,,,,,,,,,,,,,sub-138,3.0,stroop_test,59.63637318633464,
,,,,blau,blue,b,1.0,,,,,,,,,0.0,3.0,3.0,6.0,,,,,41.1415871999925,,,,,,,,,,,,,,,,,41.12655449996237,41.47668590000831,42.294637299957685,42.26091790001374,,,,,,,,,,,,,,,,42.26097039994784,42.294637299957685,42.294637299957685,42.87845959991682,b,1.0,0.5795835999306291,,42.88100509997457,42.89391510002315,43.89061030000448,,,,,,,,,,,,,,,,,,,,sub-138,3.0,stroop_test,59.63637318633464,
,,,,gelb,red,r,0.0,,,,,,,,,0.0,4.0,4.0,8.0,,,,,43.9065808999585,,,,,,,,,,,,,,,,,43.89159769995604,44.240022099926136,45.04987899994012,45.026461499976,,,,,,,,,,,,,,,,45.02651919994969,45.04987899994012,45.04987899994012,45.85980199999176,r,1.0,0.8038059000391513,,45.86223019997124,45.87513950001448,46.87204459996428,,,,,,,,,,,,,,,,,,,,sub-138,3.0,stroop_test,59.63637318633464,
,,,,gelb,yellow,g,1.0,,,,,,,,,0.0,5.0,5.0,10.0,,,,,46.8891098999884,,,,,,,,,,,,,,,,,46.8734527999768,47.22130079998169,48.020744399982505,48.00577159994282,,,,,,,,,,,,,,,,48.00584250001703,48.020744399982505,48.020744399982505,48.74152959999629,g,1.0,0.7107797000790015,,48.74330420000479,48.76899999997113,49.75400019995868,,,,,,,,,,,,,,,,,,,,sub-138,3.0,stroop_test,59.63637318633464,
,,,,blau,yellow,g,0.0,,,,,,,,,0.0,6.0,6.0,7.0,,,,,49.76984670001548,,,,,,,,,,,,,,,,,49.7556568,50.9558666999219,51.78451469994616,51.75481860002037,,,,,,,,,,,,,,,,51.75487599999178,51.78451469994616,51.78451469994616,52.88724309997633,g,1.0,1.0913606999674812,,52.888843899942,52.90376839996316,53.90002539998386,,,,,,,,,,,,,,,,,,,,sub-138,3.0,stroop_test,59.63637318633464,
,,,,rot,red,r,1.0,,,,,,,,,0.0,7.0,7.0,0.0,,,,,53.91680909995921,,,,,,,,,,,,,,,,,53.90115309995599,54.24977330002002,55.064909099950455,55.03568700002506,,,,,,,,,,,,,,,,55.03576569992583,55.064909099950455,55.064909099950455,55.3702603999991,r,1.0,0.2995796999894082,,55.371695499983616,55.38513680000324,56.38251359993592,,,,,,,,,,,,,,,,,,,,sub-138,3.0,stroop_test,59.63637318633464,
,,,,blau,blue,b,1.0,,,,,,,,,0.0,8.0,8.0,5.0,,,,,56.39959189994261,,,,,,,,,,,,,,,,,56.383935599937104,56.48213159991428,57.29891279991716,57.266842199955136,,,,,,,,,,,,,,,,57.2669237999944,57.29891279991716,57.29891279991716,57.83584369998425,b,1.0,0.5274991999613121,,57.83806899993215,57.8527326999465,58.84701699996367,,,,,,,,,,,,,,,,,,,,sub-138,3.0,stroop_test,59.63637318633464,
,,,,blau,red,r,0.0,,,,,,,,,0.0,9.0,9.0,4.0,,,,,58.8631259999238,,,,,,,,,,,,,,,,,58.848414700012654,60.04587899998296,60.8453351999633,60.83035810000729,,,,,,,,,,,,,,,,60.830405300017446,60.8453351999633,60.8453351999633,61.64827959996183,b,0.0,0.7899015999864787,,61.65002619998995,61.67768039996736,62.66135269997176,,,,,,,,,,,,,,,,,,,,sub-138,3.0,stroop_test,59.63637318633464,
,,,,rot,red,r,1.0,,,,,,,,,0.0,10.0,10.0,1.0,,,,,62.67747759993654,,,,,,,,,,,,,,,,,62.66255439992528,63.46014079998713,64.26703260000795,64.24442140001338,,,,,,,,,,,,,,,,64.24447009991854,64.26703260000795,64.26703260000795,65.2124274999369,r,1.0,0.9282689000247046,,65.21443299995735,65.23860579996835,66.22558480000589,,,,,,,,,,,,,,,,,,,,sub-138,3.0,stroop_test,59.63637318633464,
,,,,rot,blue,b,0.0,,,,,,,,,0.0,11.0,11.0,2.0,,,,,66.2419483999256,,,,,,,,,,,,,,,,,66.22663599997759,66.32520439999644,67.12608519999776,67.11016129993368,,,,,,,,,,,,,,,,67.11021620000247,67.12608519999776,67.12608519999776,67.91351109999232,b,1.0,0.7783367000520229,,67.91555959999096,67.9306046999991,68.92408689996228,,,,,,,,,,,,,,,,,,,,sub-138,3.0,stroop_test,59.63637318633464,
,,,,blau,blue,b,1.0,,,,,,,,,1.0,0.0,12.0,5.0,,,,,68.94064059993252,,,,,,,,,,,,,,,,,68.9256624999689,69.72314070002176,70.53453649999574,70.5084425000241,,,,,,,,,,,,,,,,70.50850250001531,70.53453649999574,70.53453649999574,71.67573239991907,b,1.0,1.1311520000454038,,71.67799479991663,71.69054929993581,72.6879974999465,,,,,,,,,,,,,,,,,,,,sub-138,3.0,stroop_test,59.63637318633464,
,,,,rot,red,r,1.0,,,,,,,,,1.0,1.0,13.0,1.0,,,,,72.70400859997608,,,,,,,,,,,,,,,,,72.68975749996025,72.78783469996415,73.60374219994992,73.58663829998113,,,,,,,,,,,,,,,,73.58667129999958,73.60374219994992,73.60374219994992,74.37380559998564,r,1.0,0.7619123000185937,,74.37551369995344,74.38896389992442,75.38662809995003,,,,,,,,,,,,,,,,,,,,sub-138,3.0,stroop_test,59.63637318633464,
,,,,gelb,yellow,g,1.0,,,,,,,,,1.0,2.0,14.0,11.0,,,,,75.40254699997604,,,,,,,,,,,,,,,,,75.38810119999107,75.7363967000274,76.56196540000383,76.53706060000695,,,,,,,,,,,,,,,,76.53712699993048,76.56196540000383,76.56196540000383,77.10481869999785,g,1.0,0.5379302999936044,,77.10650260001421,77.11902079998981,78.11833259998821,,,,,,,,,,,,,,,,,,,,sub-138,3.0,stroop_test,59.63637318633464,
,,,,gelb,red,r,0.0,,,,,,,,,1.0,3.0,15.0,8.0,,,,,78.13370509992819,,,,,,,,,,,,,,,,,78.11932990001515,78.2170141999377,79.0167119000107,79.00144119991455,,,,,,,,,,,,,,,,79.00148769991938,79.0167119000107,79.0167119000107,79.88726490002591,r,1.0,0.8662615999346599,,79.88896299991757,79.90089349995833,80.89997339993715,,,,,,,,,,,,,,,,,,,,sub-138,3.0,stroop_test,59.63637318633464,
,,,,blau,blue,b,1.0,,,,,,,,,1.0,4.0,16.0,6.0,,,,,80.91627970000263,,,,,,,,,,,,,,,,,80.90136659995187,81.69848339993041,82.50764169998001,82.48389749997295,,,,,,,,,,,,,,,,82.48395359993447,82.50764169998001,82.50764169998001,83.10084780002944,b,1.0,0.5767842999193817,,83.10311549995095,83.1163856999483,84.11410569993313,,,,,,,,,,,,,,,,,,,,sub-138,3.0,stroop_test,59.63637318633464,
,,,,gelb,yellow,g,1.0,,,,,,,,,1.0,5.0,17.0,10.0,,,,,84.13211230002344,,,,,,,,,,,,,,,,,84.11538219999056,84.91324639995582,85.71896780002862,85.69797919993289,,,,,,,,,,,,,,,,85.69803390000015,85.71896780002862,85.71896780002862,86.47892000002321,g,1.0,0.7574867000803351,,86.48016579996329,86.49310670001432,87.47998790000565,87.49543699994683,,,,,,,,,,,,,,,,,,,sub-138,3.0,stroop_test,59.63637318633464,
,,,,rot,red,r,1.0,,,,,,,,,1.0,6.0,18.0,0.0,,,,,87.49543699994683,,,,,,,,,,,,,,,,,87.48123319994193,87.84493279992603,88.65689959994052,88.62954659992829,,,,,,,,,,,,,,,,88.62966410000809,88.65689959994052,88.65689959994052,89.46229990001302,r,1.0,0.7876549999928102,,89.46357249992434,89.47628770000301,90.46076799998993,90.47619179997128,,,,,,,,,,,,,,,,,,,sub-138,3.0,stroop_test,59.63637318633464,
,,,,rot,blue,b,0.0,,,,,,,,,1.0,7.0,19.0,2.0,,,,,90.47619179997128,,,,,,,,,,,,,,,,,90.4616520999698,90.82559239992406,91.62508919998072,91.61002689995804,,,,,,,,,,,,,,,,91.61007759999484,91.62508919998072,91.62508919998072,92.0281964999158,b,1.0,0.3939084000885486,,92.03020969999488,92.04216009995434,93.04165109992029,,,,,,,,,,,,,,,,,,,,sub-138,3.0,stroop_test,59.63637318633464,
,,,,blau,yellow,g,0.0,,,,,,,,,1.0,8.0,20.0,7.0,,,,,93.05718579993118,,,,,,,,,,,,,,,,,93.04276570002548,93.39050320000388,94.19754099997226,94.1751708999509,,,,,,,,,,,,,,,,94.17524319991936,94.19754099997226,94.19754099997226,95.15934579994064,g,1.0,0.9437165000708774,,95.16095249995124,95.17389640002511,96.17236510000656,,,,,,,,,,,,,,,,,,,,sub-138,3.0,stroop_test,59.63637318633464,
,,,,rot,yellow,g,0.0,,,,,,,,,1.0,9.0,21.0,3.0,,,,,96.1884050000226,,,,,,,,,,,,,,,,,96.17382709996308,96.272931399988,97.09492609999144,97.0728117999388,,,,,,,,,,,,,,,,97.07285789994056,97.09492609999144,97.09492609999144,98.00846249994356,g,1.0,0.9012546999147162,,98.0097306999378,98.0220366999274,99.0205972000258,,,,,,,,,,,,,,,,,,,,sub-138,3.0,stroop_test,59.63637318633464,
,,,,gelb,blue,b,0.0,,,,,,,,,1.0,10.0,22.0,9.0,,,,,99.0364472999936,,,,,,,,,,,,,,,,,99.0220568999648,99.81937399995512,100.62416329991538,100.60400039993692,,,,,,,,,,,,,,,,100.60404749994632,100.62416329991538,100.62416329991538,101.30647109996062,b,1.0,0.671185199986212,,101.3086208999157,101.32099479995668,102.31819639995228,,,,,,,,,,,,,,,,,,,,sub-138,3.0,stroop_test,59.63637318633464,
,,,,blau,red,r,0.0,,,,,,,,,1.0,11.0,23.0,4.0,,,,,102.33479049999733,,,,,,,,,,,,,,,,,102.31934779998846,102.41794139996637,103.22475359996317,103.20210729993414,,,,,,,,,,,,,,,,103.2021570999641,103.22475359996317,103.22475359996317,104.40313989995047,r,1.0,1.1679103000788018,,104.40484690002631,104.41709399991667,105.40130479994696,105.41577700001652,,,,,,,,,,,,,,,,,,,sub-138,3.0,stroop_test,59.63637318633464,
,,,,,,,,,,,,,,,,,,,,,,,,,,,,,,,,,,,,,,,,,,,,,,,,,,,,,,,,,,,,,,,,,,,,,,,,105.401529799914,105.41577700001652,105.41577700001652,106.30265939992388,space,0.8820837000384927,,,,,,,,,,,,,sub-138,3.0,stroop_test,59.63637318633464,
,,,,,,,,gelb,red,r,0.0,,,,,,,,,0.0,0.0,0.0,8.0,106.40002729999831,,,,,,,,,,,,,,,,,106.393109299941,106.66552179993596,107.47403439995831,107.44988650002053,,,,,,,,,,,,,,,,,,,,,,,,,,,,,,,,,,,107.44997129996771,107.47403439995831,107.47403439995831,108.48580409993885,g,0.0,0.992800600011833,0.0137395000783726,,,,sub-138,3.0,stroop_test,59.63637318633464,
,,,,,,,,rot,blue,b,0.0,,,,,,,,,0.0,1.0,1.0,2.0,108.49852299992926,,,,,,,,,,,,,,,,,108.4899300999241,108.5974269999424,109.41331590001936,109.38252649991772,,,,,,,,,,,,,,,,,,,,,,,,,,,,,,,,,,,109.38257819996215,109.41331590001936,109.41331590001936,110.08407849993092,b,1.0,0.6600759000284597,,,,,sub-138,3.0,stroop_test,59.63637318633464,
,,,,,,,,blau,blue,b,1.0,,,,,,,,,0.0,2.0,2.0,6.0,110.09756579995155,,,,,,,,,,,,,,,,,110.08777280000504,111.29496700002346,112.09812949993648,112.07970190001652,,,,,,,,,,,,,,,,,,,,,,,,,,,,,,,,,,,112.0797569999704,112.09812949993648,112.09812949993648,112.7813200999517,b,1.0,0.6783189000561833,,,,,sub-138,3.0,stroop_test,59.63637318633464,
,,,,,,,,blau,red,r,0.0,,,,,,,,,0.0,3.0,3.0,4.0,112.79444929992314,,,,,,,,,,,,,,,,,112.78441770002246,113.9940084000118,114.79348150000442,114.77827519993298,,,,,,,,,,,,,,,,,,,,,,,,,,,,,,,,,,,114.77836009999736,114.79348150000442,114.79348150000442,115.81234359997325,r,1.0,1.0067250999854878,,,,,sub-138,3.0,stroop_test,59.63637318633464,
,,,,,,,,rot,yellow,g,0.0,,,,,,,,,0.0,4.0,4.0,3.0,115.82771290000528,,,,,,,,,,,,,,,,,115.81491590000223,116.17333749996033,116.99456889997236,116.963365899981,,,,,,,,,,,,,,,,,,,,,,,,,,,,,,,,,,,116.9634482000256,116.99456889997236,116.99456889997236,117.70816429995466,g,1.0,0.7103347000665963,,,,,sub-138,3.0,stroop_test,59.63637318633464,
,,,,,,,,blau,yellow,g,0.0,,,,,,,,,0.0,5.0,5.0,7.0,117.72199280001225,,,,,,,,,,,,,,,,,117.70979370002168,118.52157869993243,119.32288959994912,119.30667339998764,,,,,,,,,,,,,,,,,,,,,,,,,,,,,,,,,,,119.30671079992317,119.32288959994912,119.32288959994912,120.04216940002516,g,1.0,0.7162414999911562,,,,,sub-138,3.0,stroop_test,59.63637318633464,
,,,,,,,,gelb,yellow,g,1.0,,,,,,,,,0.0,6.0,6.0,11.0,120.05479470000137,,,,,,,,,,,,,,,,,120.04416089993902,121.25410219992044,122.06587419996504,122.04116020002402,,,,,,,,,,,,,,,,,,,,,,,,,,,,,,,,,,,122.04121279995888,122.06587419996504,122.06587419996504,122.67707630002404,g,1.0,0.5948271000524983,,,,,sub-138,3.0,stroop_test,59.63637318633464,
,,,,,,,,blau,blue,b,1.0,,,,,,,,,0.0,7.0,7.0,5.0,122.68802120001055,,,,,,,,,,,,,,,,,122.67982810002286,123.48640199995134,124.286304499954,124.27008399995977,,,,,,,,,,,,,,,,,,,,,,,,,,,,,,,,,,,124.2701190999942,124.286304499954,124.286304499954,124.72631069994532,b,1.0,0.4308910999679938,,,,,sub-138,3.0,stroop_test,59.63637318633464,
,,,,,,,,rot,red,r,1.0,,,,,,,,,0.0,8.0,8.0,1.0,124.7355645999778,,,,,,,,,,,,,,,,,124.7288555999985,124.83523540000895,125.63620850001462,125.61900539998896,,,,,,,,,,,,,,,,,,,,,,,,,,,,,,,,,,,125.61905839992689,125.63620850001462,125.63620850001462,126.08759469992948,r,1.0,0.4398885000264272,,,,,sub-138,3.0,stroop_test,59.63637318633464,
,,,,,,,,rot,red,r,1.0,,,,,,,,,0.0,9.0,9.0,0.0,126.1015849999385,,,,,,,,,,,,,,,,,126.08964879997076,126.20195959997363,127.01791039993986,127.00266819994432,,,,,,,,,,,,,,,,,,,,,,,,,,,,,,,,,,,127.00273790000938,127.01791039993986,127.01791039993986,127.61998109996784,r,1.0,0.5901764000300318,,,,,sub-138,3.0,stroop_test,59.63637318633464,
,,,,,,,,gelb,blue,b,0.0,,,,,,,,,0.0,10.0,10.0,9.0,127.6338531000074,,,,,,,,,,,,,,,,,127.62232039996888,128.83412269991825,129.64197999995667,129.6190863000229,,,,,,,,,,,,,,,,,,,,,,,,,,,,,,,,,,,129.61916869995184,129.64197999995667,129.64197999995667,130.53594700002577,b,1.0,0.8804943000432104,,,,,sub-138,3.0,stroop_test,59.63637318633464,
,,,,,,,,gelb,yellow,g,1.0,,,,,,,,,0.0,11.0,11.0,10.0,130.5494139000075,,,,,,,,,,,,,,,,,130.5406194999814,131.34891299996525,132.1478598000249,132.13390859996434,,,,,,,,,,,,,,,,,,,,,,,,,,,,,,,,,,,132.13397989992518,132.1478598000249,132.1478598000249,133.00083349994384,g,1.0,0.8356740999734029,,,,,sub-138,3.0,stroop_test,59.63637318633464,
,,,,,,,,rot,red,r,1.0,,,,,,,,,1.0,0.0,12.0,0.0,133.0144746999722,,,,,,,,,,,,,,,,,133.0032469999278,134.21406979998574,135.0312181999907,135.00039489998017,,,,,,,,,,,,,,,,,,,,,,,,,,,,,,,,,,,135.00044819992036,135.0312181999907,135.0312181999907,135.64993359998334,r,1.0,0.6138469999423251,,,,,sub-138,3.0,stroop_test,59.63637318633464,
,,,,,,,,blau,yellow,g,0.0,,,,,,,,,1.0,1.0,13.0,7.0,135.6626878000097,,,,,,,,,,,,,,,,,135.65342200000305,136.86186619999353,137.67439049994573,137.64700529992115,,,,,,,,,,,,,,,,,,,,,,,,,,,,,,,,,,,137.6470628000097,137.67439049994573,137.67439049994573,138.34790839999914,b,0.0,0.6613717000000179,,,,,sub-138,3.0,stroop_test,59.63637318633464,
,,,,,,,,gelb,red,r,0.0,,,,,,,,,1.0,2.0,14.0,8.0,138.36148989992216,,,,,,,,,,,,,,,,,138.35119760001544,139.5600179999601,140.3686408000067,140.34503059997223,,,,,,,,,,,,,,,,,,,,,,,,,,,,,,,,,,,140.3451796999434,140.3686408000067,140.3686408000067,141.52909929992165,r,1.0,1.142199800000526,,,,,sub-138,3.0,stroop_test,59.63637318633464,
,,,,,,,,rot,red,r,1.0,,,,,,,,,1.0,3.0,15.0,1.0,141.5429963999195,,,,,,,,,,,,,,,,,141.53370259993244,141.64225509995595,142.45310179993976,142.42675450001843,,,,,,,,,,,,,,,,,,,,,,,,,,,,,,,,,,,142.42681129998527,142.45310179993976,142.45310179993976,143.01285109994933,r,1.0,0.5532151999650523,,,,,sub-138,3.0,stroop_test,59.63637318633464,
,,,,,,,,blau,blue,b,1.0,,,,,,,,,1.0,4.0,16.0,6.0,143.02509040001314,,,,,,,,,,,,,,,,,143.01569789997302,143.82488700002432,144.6541733000195,144.62537070002872,,,,,,,,,,,,,,,,,,,,,,,,,,,,,,,,,,,144.6254250999773,144.6541733000195,144.6541733000195,145.36073519999627,b,1.0,0.6949858000734821,,,,,sub-138,3.0,stroop_test,59.63637318633464,
,,,,,,,,rot,yellow,g,0.0,,,,,,,,,1.0,5.0,17.0,3.0,145.37285559996965,,,,,,,,,,,,,,,,,145.36397189996205,145.7239935999969,146.5532226000214,146.5241112000076,,,,,,,,,,,,,,,,,,,,,,,,,,,,,,,,,,,146.52416379994247,146.5532226000214,146.5532226000214,148.20676069997717,g,1.0,1.650598100037314,,,,,sub-138,3.0,stroop_test,59.63637318633464,
,,,,,,,,blau,red,r,0.0,,,,,,,,,1.0,6.0,18.0,4.0,148.220326700015,,,,,,,,,,,,,,,,,148.20893570000771,148.57048400002532,149.37956609996036,149.35535299999174,,,,,,,,,,,,,,,,,,,,,,,,,,,,,,,,,,,149.35542459995486,149.37956609996036,149.37956609996036,150.9231148000108,r,1.0,1.5320840999484062,,,,,sub-138,3.0,stroop_test,59.63637318633464,
,,,,,,,,gelb,yellow,g,1.0,,,,,,,,,1.0,7.0,19.0,10.0,150.93619439995382,,,,,,,,,,,,,,,,,150.92747659992892,151.7349258000031,152.5513444999233,152.5355129999807,,,,,,,,,,,,,,,,,,,,,,,,,,,,,,,,,,,152.53554730000906,152.5513444999233,152.5513444999233,153.50302179995924,g,1.0,0.9332675999030472,0.0152738000033423,,,,sub-138,3.0,stroop_test,59.63637318633464,
,,,,,,,,blau,blue,b,1.0,,,,,,,,,1.0,8.0,20.0,5.0,153.51635549997445,,,,,,,,,,,,,,,,,153.5058428000193,154.71669529995415,155.53240020002704,155.50179359992035,,,,,,,,,,,,,,,,,,,,,,,,,,,,,,,,,,,155.50184949999675,155.53240020002704,155.53240020002704,156.4565376000246,b,1.0,0.9128551000030712,,,,,sub-138,3.0,stroop_test,59.63637318633464,
,,,,,,,,gelb,blue,b,0.0,,,,,,,,,1.0,9.0,21.0,9.0,156.47964629996568,,,,,,,,,,,,,,,,,156.46058870002162,157.26527500001248,158.0857643999625,158.06565649993718,,,,,,,,,,,,,,,,,,,,,,,,,,,,,,,,,,,158.0657036999473,158.0857643999625,158.0857643999625,159.3159213999752,b,1.0,1.2190495999529958,,,,,sub-138,3.0,stroop_test,59.63637318633464,
,,,,,,,,gelb,yellow,g,1.0,,,,,,,,,1.0,10.0,22.0,11.0,159.33019100001547,,,,,,,,,,,,,,,,,159.31957649998367,159.6805867999792,160.47956070001237,160.46531689993571,,,,,,,,,,,,,,,,,,,,,,,,,,,,,,,,,,,160.46541539998725,160.47956070001237,160.47956070001237,161.23271279991604,g,1.0,0.744302700040862,,,,,sub-138,3.0,stroop_test,59.63637318633464,
,,,,,,,,rot,blue,b,0.0,,,,,,,,,1.0,11.0,23.0,2.0,161.2454336999217,,,,,,,,,,,,,,,,,161.23658639995847,161.5962934999261,162.4247866999358,162.39723659993615,,,,,,,,,,,,,,,,,,,,,,,,,,,,,,,,,,,162.39731369994115,162.4247866999358,162.4247866999358,163.64788009994663,b,1.0,1.217665300006047,,,,,sub-138,3.0,stroop_test,59.63637318633464,
,,,,,,,,gelb,yellow,g,1.0,,,,,,,,,2.0,0.0,24.0,10.0,163.66081369994208,,,,,,,,,,,,,,,,,163.65152810001746,164.0108441999182,164.82059409993235,164.79536160000134,,,,,,,,,,,,,,,,,,,,,,,,,,,,,,,,,,,164.7954404000193,164.82059409993235,164.82059409993235,165.7294235000154,g,1.0,0.8974807999329641,,,,,sub-138,3.0,stroop_test,59.63637318633464,
,,,,,,,,gelb,red,r,0.0,,,,,,,,,2.0,1.0,25.0,8.0,165.74253899999894,,,,,,,,,,,,,,,,,165.7325840999838,166.5431733999867,167.34378609992564,167.32795299997088,,,,,,,,,,,,,,,,,,,,,,,,,,,,,,,,,,,167.32802239991724,167.34378609992564,167.34378609992564,169.34002120001242,r,1.0,1.9883039999986067,,,,,sub-138,3.0,stroop_test,59.63637318633464,
,,,,,,,,blau,red,r,0.0,,,,,,,,,2.0,2.0,26.0,4.0,169.35601599991787,,,,,,,,,,,,,,,,,169.34143369994126,169.45508029998746,170.26716459996533,170.24097549996804,,,,,,,,,,,,,,,,,,,,,,,,,,,,,,,,,,,170.24102179997135,170.26716459996533,170.26716459996533,171.1102916999953,r,1.0,0.8317703000502661,,,,,sub-138,3.0,stroop_test,59.63637318633464,
,,,,,,,,rot,red,r,1.0,,,,,,,,,2.0,3.0,27.0,0.0,171.12268919998314,,,,,,,,,,,,,,,,,171.11329260002822,171.2225638999371,172.0333238999592,172.00747269997373,,,,,,,,,,,,,,,,,,,,,,,,,,,,,,,,,,,172.0075319999596,172.0333238999592,172.0333238999592,172.4921303000301,r,1.0,0.4471133999759331,,,,,sub-138,3.0,stroop_test,59.63637318633464,
,,,,,,,,rot,blue,b,0.0,,,,,,,,,2.0,4.0,28.0,2.0,172.50648009998258,,,,,,,,,,,,,,,,,172.4963966999203,172.8553157999413,173.654289899976,173.6398099999642,,,,,,,,,,,,,,,,,,,,,,,,,,,,,,,,,,,173.63988979998976,173.654289899976,173.654289899976,174.474623600021,b,1.0,0.8150867000222206,,,,,sub-138,3.0,stroop_test,59.63637318633464,
,,,,,,,,blau,yellow,g,0.0,,,,,,,,,2.0,5.0,29.0,7.0,174.48741229996085,,,,,,,,,,,,,,,,,174.47780300001614,174.83740910002962,175.6632427999284,175.63757889997214,,,,,,,,,,,,,,,,,,,,,,,,,,,,,,,,,,,175.6376293000067,175.6632427999284,175.6632427999284,176.81082709995098,g,1.0,1.125960599980317,,,,,sub-138,3.0,stroop_test,59.63637318633464,
,,,,,,,,blau,blue,b,1.0,,,,,,,,,2.0,6.0,30.0,6.0,176.82321129995398,,,,,,,,,,,,,,,,,176.81564879999496,178.01826859998982,178.81820540002082,178.8029005000135,,,,,,,,,,,,,,,,,,,,,,,,,,,,,,,,,,,178.80299350002315,178.81820540002082,178.81820540002082,179.40467119996902,b,1.0,0.5765536000253633,,,,,sub-138,3.0,stroop_test,59.63637318633464,
,,,,,,,,gelb,yellow,g,1.0,,,,,,,,,2.0,7.0,31.0,11.0,179.4172577999998,,,,,,,,,,,,,,,,,179.40772070002276,179.767093500006,180.57937319995835,180.5518239999656,,,,,,,,,,,,,,,,,,,,,,,,,,,,,,,,,,,180.5518816999393,180.57937319995835,180.57937319995835,181.3033690999728,g,1.0,0.7122230000095442,,,,,sub-138,3.0,stroop_test,59.63637318633464,
,,,,,,,,gelb,blue,b,0.0,,,,,,,,,2.0,8.0,32.0,9.0,181.31627079995812,,,,,,,,,,,,,,,,,181.30708940001205,182.51563679997344,183.31447620003016,183.30043149995615,,,,,,,,,,,,,,,,,,,,,,,,,,,,,,,,,,,183.3004863000242,183.31447620003016,183.31447620003016,184.003219599952,b,1.0,0.6796308000339195,,,,,sub-138,3.0,stroop_test,59.63637318633464,
,,,,,,,,rot,yellow,g,0.0,,,,,,,,,2.0,9.0,33.0,3.0,184.01498460001312,,,,,,,,,,,,,,,,,184.00721269997305,184.11419619992373,184.9293197999941,184.899255599943,,,,,,,,,,,,,,,,,,,,,,,,,,,,,,,,,,,184.89933739998375,184.9293197999941,184.9293197999941,187.0315931999357,g,1.0,2.097145300009288,,,,,sub-138,3.0,stroop_test,59.63637318633464,
,,,,,,,,rot,red,r,1.0,,,,,,,,,2.0,10.0,34.0,1.0,187.04448219994083,,,,,,,,,,,,,,,,,187.03442519996315,187.84474710002544,188.64435959991533,188.6293285000138,,,,,,,,,,,,,,,,,,,,,,,,,,,,,,,,,,,188.62938189995475,188.64435959991533,188.64435959991533,189.1992565999972,r,1.0,0.5386562999337912,,,,,sub-138,3.0,stroop_test,59.63637318633464,
,,,,,,,,blau,blue,b,1.0,,,,,,,,,2.0,11.0,35.0,5.0,189.2117871999508,,,,,,,,,,,,,,,,,189.2028015999822,189.3106312999735,190.1256747000152,190.0960249999771,,,,,,,,,,,,,,,,,,,,,,,,,,,,,,,,,,,190.09607869992035,190.1256747000152,190.1256747000152,190.6799567999551,b,1.0,0.5489502000855282,,,,,sub-138,3.0,stroop_test,59.63637318633464,
,,,,,,,,blau,blue,b,1.0,,,,,,,,,3.0,0.0,36.0,5.0,190.6927269999869,,,,,,,,,,,,,,,,,190.683411099948,191.8920860999497,192.69450480001976,192.67858159996103,,,,,,,,,,,,,,,,,,,,,,,,,,,,,,,,,,,192.67866420000792,192.69450480001976,192.69450480001976,193.29550649994053,b,1.0,0.589557999977842,,,,,sub-138,3.0,stroop_test,59.63637318633464,
,,,,,,,,rot,yellow,g,0.0,,,,,,,,,3.0,1.0,37.0,3.0,193.30784409993797,,,,,,,,,,,,,,,,,193.29882909997832,194.5071230999893,195.31783479999285,195.2917198999785,,,,,,,,,,,,,,,,,,,,,,,,,,,,,,,,,,,195.29179899999872,195.31783479999285,195.31783479999285,196.12560259993188,g,1.0,0.7917724000290036,,,,,sub-138,3.0,stroop_test,59.63637318633464,
,,,,,,,,blau,blue,b,1.0,,,,,,,,,3.0,2.0,38.0,6.0,196.14049759996124,,,,,,,,,,,,,,,,,196.12882350001016,196.489658699953,197.30218449991665,197.27435119997244,,,,,,,,,,,,,,,,,,,,,,,,,,,,,,,,,,,197.27442809997592,197.30218449991665,197.30218449991665,197.80613759998232,b,1.0,0.4999866000143811,,,,,sub-138,3.0,stroop_test,59.63637318633464,
,,,,,,,,rot,blue,b,0.0,,,,,,,,,3.0,3.0,39.0,2.0,197.82021689997052,,,,,,,,,,,,,,,,,197.8080560999224,197.9210665000137,198.73479759995823,198.7068208999699,,,,,,,,,,,,,,,,,,,,,,,,,,,,,,,,,,,198.70690260000995,198.73479759995823,198.73479759995823,199.85772309999447,b,1.0,1.1097912999102846,,,,,sub-138,3.0,stroop_test,59.63637318633464,
,,,,,,,,gelb,yellow,g,1.0,,,,,,,,,3.0,4.0,40.0,11.0,199.8700362999225,,,,,,,,,,,,,,,,,199.86093189998064,200.66986459994223,201.47969009994995,201.4549056999385,,,,,,,,,,,,,,,,,,,,,,,,,,,,,,,,,,,201.45498199993744,201.47969009994995,201.47969009994995,202.35669399995825,g,1.0,0.8682506999466568,,,,,sub-138,3.0,stroop_test,59.63637318633464,
,,,,,,,,gelb,red,r,0.0,,,,,,,,,3.0,5.0,41.0,8.0,202.36840849998407,,,,,,,,,,,,,,,,,202.36022859998047,202.4691877999576,203.284338700003,203.26965819997716,,,,,,,,,,,,,,,,,,,,,,,,,,,,,,,,,,,203.2697117999196,203.284338700003,203.284338700003,204.1885235999944,r,1.0,0.8955076000420377,,,,,sub-138,3.0,stroop_test,59.63637318633464,
,,,,,,,,gelb,yellow,g,1.0,,,,,,,,,3.0,6.0,42.0,10.0,204.20083300000988,,,,,,,,,,,,,,,,,204.19197369995527,204.30095029994845,205.1164899999276,205.1023564999923,,,,,,,,,,,,,,,,,,,,,,,,,,,,,,,,,,,205.10242709994785,205.1164899999276,205.1164899999276,205.9037648999365,g,1.0,0.7703017999883741,,,,,sub-138,3.0,stroop_test,59.63637318633464,
,,,,,,,,rot,red,r,1.0,,,,,,,,,3.0,7.0,43.0,0.0,205.9167066999944,,,,,,,,,,,,,,,,,205.90701239998447,206.26617129996885,207.0769773999928,207.05088479991537,,,,,,,,,,,,,,,,,,,,,,,,,,,,,,,,,,,207.05097600002773,207.0769773999928,207.0769773999928,208.3669827999547,r,1.0,1.2729374000336977,,,,,sub-138,3.0,stroop_test,59.63637318633464,
,,,,,,,,blau,red,r,0.0,,,,,,,,,3.0,8.0,44.0,4.0,208.3808133000275,,,,,,,,,,,,,,,,,208.37001960002817,209.5798423999222,210.39169229997788,210.36453229992185,,,,,,,,,,,,,,,,,,,,,,,,,,,,,,,,,,,210.36461139994208,210.39169229997788,210.39169229997788,212.19819689996075,r,1.0,1.7932206999976188,,,,,sub-138,3.0,stroop_test,59.63637318633464,
,,,,,,,,gelb,blue,b,0.0,,,,,,,,,3.0,9.0,45.0,9.0,212.2114965999499,,,,,,,,,,,,,,,,,212.2021351000294,212.5616673999466,213.3679601999465,213.34656660002656,,,,,,,,,,,,,,,,,,,,,,,,,,,,,,,,,,,213.3466515999753,213.3679601999465,213.3679601999465,214.38158629997636,b,1.0,1.0021298000356182,,,,,sub-138,3.0,stroop_test,59.63637318633464,
,,,,,,,,rot,red,r,1.0,,,,,,,,,3.0,10.0,46.0,1.0,214.39345149998556,,,,,,,,,,,,,,,,,214.38564569992013,215.19410810002591,216.02296019997448,215.99488579994068,,,,,,,,,,,,,,,,,,,,,,,,,,,,,,,,,,,215.99496609997004,216.02296019997448,216.02296019997448,216.59709850000215,r,1.0,0.5629674000665545,,,,,sub-138,3.0,stroop_test,59.63637318633464,
,,,,,,,,blau,yellow,g,0.0,,,,,,,,,3.0,11.0,47.0,7.0,216.6096543999156,,,,,,,,,,,,,,,,,216.60081520001404,217.80811839993112,218.6174544999376,218.5932186000282,,,,,,,,,,,,,,,,,,,,,,,,,,,,,,,,,,,218.5932949000271,218.6174544999376,218.6174544999376,219.55994159996044,g,1.0,0.9334758999757468,,,,,sub-138,3.0,stroop_test,59.63637318633464,
,,,,,,,,rot,red,r,1.0,,,,,,,,,4.0,0.0,48.0,1.0,219.5752209000057,,,,,,,,,,,,,,,,,219.5623832999263,220.37365889991636,221.18769259995315,221.15975769993383,,,,,,,,,,,,,,,,,,,,,,,,,,,,,,,,,,,221.1598332999274,221.18769259995315,221.18769259995315,221.74406259995885,r,1.0,0.5516008000122383,,,,,sub-138,3.0,stroop_test,59.63637318633464,
,,,,,,,,gelb,yellow,g,1.0,,,,,,,,,4.0,1.0,49.0,10.0,221.75609489995983,,,,,,,,,,,,,,,,,221.7470326999901,222.5554462999571,223.3666087000165,223.34007539995943,,,,,,,,,,,,,,,,,,,,,,,,,,,,,,,,,,,223.34013419994156,223.3666087000165,223.3666087000165,224.05999169999268,g,1.0,0.6839409000240266,,,,,sub-138,3.0,stroop_test,59.63637318633464,
,,,,,,,,gelb,blue,b,0.0,,,,,,,,,4.0,2.0,50.0,9.0,224.07269489998,,,,,,,,,,,,,,,,,224.06479580001903,224.87110400001984,225.68637949996628,225.67186280002352,,,,,,,,,,,,,,,,,,,,,,,,,,,,,,,,,,,225.67195380001797,225.68637949996628,225.68637949996628,226.3570748999482,b,1.0,0.662195699987933,,,,,sub-138,3.0,stroop_test,59.63637318633464,
,,,,,,,,blau,blue,b,1.0,,,,,,,,,4.0,3.0,51.0,6.0,226.3692146999529,,,,,,,,,,,,,,,,,226.35948400001507,226.4693730999716,227.28136939997785,227.25407109991647,,,,,,,,,,,,,,,,,,,,,,,,,,,,,,,,,,,227.2541240999708,227.28136939997785,227.28136939997785,227.82171960000412,b,1.0,0.5240933999884874,,,,,sub-138,3.0,stroop_test,59.63637318633464,
,,,,,,,,rot,yellow,g,0.0,,,,,,,,,4.0,4.0,52.0,3.0,227.83498059993144,,,,,,,,,,,,,,,,,227.82449199992695,229.0343497999711,229.84553890000095,229.8192764000269,,,,,,,,,,,,,,,,,,,,,,,,,,,,,,,,,,,229.81932949996556,229.84553890000095,229.84553890000095,230.78788600000556,r,0.0,0.9384765999857336,,,,,sub-138,3.0,stroop_test,59.63637318633464,
,,,,,,,,rot,blue,b,0.0,,,,,,,,,4.0,5.0,53.0,2.0,230.80044999998063,,,,,,,,,,,,,,,,,230.7908879999304,231.59879550000187,232.3987261999864,232.38413279992528,,,,,,,,,,,,,,,,,,,,,,,,,,,,,,,,,,,232.38419110002,232.3987261999864,232.3987261999864,233.0194245999446,b,1.0,0.6150122000835836,,,,,sub-138,3.0,stroop_test,59.63637318633464,
,,,,,,,,gelb,red,r,0.0,,,,,,,,,4.0,6.0,54.0,8.0,233.0335399999749,,,,,,,,,,,,,,,,,233.0227018999867,233.13159399991852,233.9422892000293,233.9164921999909,,,,,,,,,,,,,,,,,,,,,,,,,,,,,,,,,,,233.916567999986,233.9422892000293,233.9422892000293,235.06513519992583,r,1.0,1.1196160999825224,,,,,sub-138,3.0,stroop_test,59.63637318633464,
,,,,,,,,gelb,yellow,g,1.0,,,,,,,,,4.0,7.0,55.0,11.0,235.07886250002772,,,,,,,,,,,,,,,,,235.0671480000019,236.28008499997668,237.09561119996943,237.08115869993344,,,,,,,,,,,,,,,,,,,,,,,,,,,,,,,,,,,237.0812155000167,237.09561119996943,237.09561119996943,237.7480270999949,g,1.0,0.6467752000316978,,,,,sub-138,3.0,stroop_test,59.63637318633464,
,,,,,,,,blau,yellow,g,0.0,,,,,,,,,4.0,8.0,56.0,7.0,237.7612933999626,,,,,,,,,,,,,,,,,237.75138119992332,238.112205500016,238.92607629997656,238.8973270999268,,,,,,,,,,,,,,,,,,,,,,,,,,,,,,,,,,,238.8974166000262,238.92607629997656,238.92607629997656,240.1816983999452,g,1.0,1.2473063999786973,,,,,sub-138,3.0,stroop_test,59.63637318633464,
,,,,,,,,blau,red,r,0.0,,,,,,,,,4.0,9.0,57.0,4.0,240.1947185000172,,,,,,,,,,,,,,,,,240.1846060999669,240.99320779996924,241.79220819997136,241.77810779993888,,,,,,,,,,,,,,,,,,,,,,,,,,,,,,,,,,,241.77818439994007,241.79220819997136,241.79220819997136,243.4923765999265,r,1.0,1.6965980000095442,,,,,sub-138,3.0,stroop_test,59.63637318633464,
,,,,,,,,blau,blue,b,1.0,,,,,,,,,4.0,10.0,58.0,5.0,243.50668300001416,,,,,,,,,,,,,,,,,243.49455059994943,243.6080678999424,244.40741149999667,244.39264550001823,,,,,,,,,,,,,,,,,,,,,,,,,,,,,,,,,,,244.39270239998584,244.40741149999667,244.40741149999667,245.06067769997756,b,1.0,0.6482556000119075,,,,,sub-138,3.0,stroop_test,59.63637318633464,
,,,,,,,,rot,red,r,1.0,,,,,,,,,4.0,11.0,59.0,0.0,245.0739080000203,,,,,,,,,,,,,,,,,245.06448239996095,245.4236287999665,246.240214999998,246.20856609998737,,,,,,,,,,,,,,,,,,,,,,,,,,,,,,,,,,,246.2086487999186,246.240214999998,246.240214999998,248.37459139991552,r,1.0,2.1262573999119923,,,,,sub-138,3.0,stroop_test,59.63637318633464,
,,,,,,,,gelb,yellow,g,1.0,,,,,,,,,5.0,0.0,60.0,10.0,248.38845620001663,,,,,,,,,,,,,,,,,248.37784119998105,248.48766310000792,249.29180769994852,249.2726505999453,,,,,,,,,,,,,,,,,,,,,,,,,,,,,,,,,,,249.2726964999456,249.29180769994852,249.29180769994852,250.98577349993863,g,1.0,1.6850477999541909,,,,,sub-138,3.0,stroop_test,59.63637318633464,
,,,,,,,,rot,blue,b,0.0,,,,,,,,,5.0,1.0,61.0,2.0,251.00088960002176,,,,,,,,,,,,,,,,,250.98733709997032,252.1889280999312,253.0009230999276,252.9840634999564,,,,,,,,,,,,,,,,,,,,,,,,,,,,,,,,,,,252.98410779994447,253.0009230999276,253.0009230999276,254.32257309998383,b,1.0,1.316255300072953,,,,,sub-138,3.0,stroop_test,59.63637318633464,
,,,,,,,,blau,blue,b,1.0,,,,,,,,,5.0,2.0,62.0,5.0,254.3360243999632,,,,,,,,,,,,,,,,,254.3262908000033,255.53428259992504,256.350891900016,256.3329585000174,,,,,,,,,,,,,,,,,,,,,,,,,,,,,,,,,,,256.3330123999622,256.350891900016,256.350891900016,257.0027494999813,b,1.0,0.6469448000425473,,,,,sub-138,3.0,stroop_test,59.63637318633464,
,,,,,,,,blau,red,r,0.0,,,,,,,,,5.0,3.0,63.0,4.0,257.0154402999906,,,,,,,,,,,,,,,,,257.0062724999152,258.2144387000008,259.014185899985,258.9988536000019,,,,,,,,,,,,,,,,,,,,,,,,,,,,,,,,,,,258.9989093999611,259.014185899985,259.014185899985,259.78430149995256,r,1.0,0.7615747998934239,,,,,sub-138,3.0,stroop_test,59.63637318633464,
,,,,,,,,blau,yellow,g,0.0,,,,,,,,,5.0,4.0,64.0,7.0,259.7965337999631,,,,,,,,,,,,,,,,,259.7880411000224,259.89680869993754,260.69582439993974,260.6815601999406,,,,,,,,,,,,,,,,,,,,,,,,,,,,,,,,,,,260.68163070001174,260.69582439993974,260.69582439993974,261.5998823000118,g,1.0,0.8949653999879956,,,,,sub-138,3.0,stroop_test,59.63637318633464,
,,,,,,,,gelb,blue,b,0.0,,,,,,,,,5.0,5.0,65.0,9.0,261.6126065999269,,,,,,,,,,,,,,,,,261.6036412999965,261.96243979991414,262.77238659991417,262.7476569999708,,,,,,,,,,,,,,,,,,,,,,,,,,,,,,,,,,,262.74771249992773,262.77238659991417,262.77238659991417,263.63069959997665,b,1.0,0.8531918000662699,,,,,sub-138,3.0,stroop_test,59.63637318633464,
,,,,,,,,rot,red,r,1.0,,,,,,,,,5.0,6.0,66.0,0.0,263.6441958999494,,,,,,,,,,,,,,,,,263.634049299988,263.7441747999983,264.55246309994254,264.52913449995685,,,,,,,,,,,,,,,,,,,,,,,,,,,,,,,,,,,264.5291821999708,264.55246309994254,264.55246309994254,265.09710709995124,r,1.0,0.5363256999989972,,,,,sub-138,3.0,stroop_test,59.63637318633464,
,,,,,,,,rot,yellow,g,0.0,,,,,,,,,5.0,7.0,67.0,3.0,265.1097735000076,,,,,,,,,,,,,,,,,265.10025599994697,265.9083205999341,266.7086760000093,266.69462899991777,,,,,,,,,,,,,,,,,,,,,,,,,,,,,,,,,,,266.6946749999188,266.7086760000093,266.7086760000093,267.6958102999488,g,1.0,0.9825617000460624,,,,,sub-138,3.0,stroop_test,59.63637318633464,
,,,,,,,,blau,blue,b,1.0,,,,,,,,,5.0,8.0,68.0,6.0,267.708435599925,,,,,,,,,,,,,,,,,267.6985151999397,268.0586995999329,268.8698485000059,268.8432695999509,,,,,,,,,,,,,,,,,,,,,,,,,,,,,,,,,,,268.8433534000069,268.8698485000059,268.8698485000059,269.5455681999447,b,1.0,0.6706725000403821,,,,,sub-138,3.0,stroop_test,59.63637318633464,
,,,,,,,,gelb,red,r,0.0,,,,,,,,,5.0,9.0,69.0,8.0,269.5574149999302,,,,,,,,,,,,,,,,,269.5488546999404,269.6571682000067,270.4651701999828,270.4426230000099,,,,,,,,,,,,,,,,,,,,,,,,,,,,,,,,,,,270.4426928999601,270.4651701999828,270.4651701999828,271.2449932999443,r,1.0,0.7721020999597386,,,,,sub-138,3.0,stroop_test,59.63637318633464,
,,,,,,,,rot,red,r,1.0,,,,,,,,,5.0,10.0,70.0,1.0,271.2572464999976,,,,,,,,,,,,,,,,,271.2491297000088,271.3562461999245,272.1674038999481,272.1410017999588,,,,,,,,,,,,,,,,,,,,,,,,,,,,,,,,,,,272.1410585999256,272.1674038999481,272.1674038999481,272.9581460999325,r,1.0,0.7725082000251859,,,,,sub-138,3.0,stroop_test,59.63637318633464,
,,,,,,,,gelb,yellow,g,1.0,,,,,,,,,5.0,11.0,71.0,11.0,272.97221649996936,,,,,,,,,,,,,,,,,272.9613844000269,274.1715807999717,274.98025929997675,274.95661220001057,,,,,,,,,,,,,,,,,,,,,,,,,,,,,,,,,,,274.95667019998655,274.98025929997675,274.98025929997675,275.62410979997367,g,1.0,0.6400109999813139,,,,,sub-138,3.0,stroop_test,59.63637318633464,
,,,,,,,,blau,red,r,0.0,,,,,,,,,6.0,0.0,72.0,4.0,275.6372873999644,,,,,,,,,,,,,,,,,275.6270004999824,275.73633859993424,276.5510286999633,276.52116809994914,,,,,,,,,,,,,,,,,,,,,,,,,,,,,,,,,,,276.5212518000044,276.5510286999633,276.5510286999633,276.8574986999156,r,1.0,0.3015717000234872,,,,,sub-138,3.0,stroop_test,59.63637318633464,
,,,,,,,,blau,yellow,g,0.0,,,,,,,,,6.0,1.0,73.0,7.0,276.86927789996844,,,,,,,,,,,,,,,,,276.86088479997125,278.06861329998355,278.8682187999366,278.8531505999854,,,,,,,,,,,,,,,,,,,,,,,,,,,,,,,,,,,278.853230800014,278.8682187999366,278.8682187999366,279.4055659000296,g,1.0,0.5325848999200389,,,,,sub-138,3.0,stroop_test,59.63637318633464,
,,,,,,,,rot,blue,b,0.0,,,,,,,,,6.0,2.0,74.0,2.0,279.4182546000229,,,,,,,,,,,,,,,,,279.40980499994475,280.21708420000505,281.03911150002386,281.004892500001,,,,,,,,,,,,,,,,,,,,,,,,,,,,,,,,,,,281.0049788999604,281.03911150002386,281.03911150002386,281.5683733000187,b,1.0,0.5194010999985039,,,,,sub-138,3.0,stroop_test,59.63637318633464,
,,,,,,,,rot,red,r,1.0,,,,,,,,,6.0,3.0,75.0,0.0,281.5825514999451,,,,,,,,,,,,,,,,,281.5707541999873,281.9329038999276,282.73195319995284,282.7176182999974,,,,,,,,,,,,,,,,,,,,,,,,,,,,,,,,,,,282.71767019992694,282.73195319995284,282.73195319995284,283.40347419993486,r,1.0,0.6627603999804705,,,,,sub-138,3.0,stroop_test,59.63637318633464,
,,,,,,,,gelb,yellow,g,1.0,,,,,,,,,6.0,4.0,76.0,10.0,283.4151209000265,,,,,,,,,,,,,,,,,283.4067245000042,284.6141114999773,285.4250398000004,285.3986830000067,,,,,,,,,,,,,,,,,,,,,,,,,,,,,,,,,,,285.3987877999898,285.4250398000004,285.4250398000004,285.9168904999969,g,1.0,0.487342800013721,,,,,sub-138,3.0,stroop_test,59.63637318633464,
,,,,,,,,blau,blue,b,1.0,,,,,,,,,6.0,5.0,77.0,6.0,285.9292509999359,,,,,,,,,,,,,,,,,285.91977969999425,287.12931079999544,287.941626099986,287.91427259997,,,,,,,,,,,,,,,,,,,,,,,,,,,,,,,,,,,287.914325300022,287.941626099986,287.941626099986,288.4820222000126,b,1.0,0.5283491000300273,,,,,sub-138,3.0,stroop_test,59.63637318633464,
,,,,,,,,rot,red,r,1.0,,,,,,,,,6.0,6.0,78.0,1.0,288.49444759998005,,,,,,,,,,,,,,,,,288.48519889998715,289.29707849991973,290.11940620001405,290.0950143999653,,,,,,,,,,,,,,,,,,,,,,,,,,,,,,,,,,,290.0950921999756,290.11940620001405,290.11940620001405,290.4792027999647,r,1.0,0.3423966999398544,,,,,sub-138,3.0,stroop_test,59.63637318633464,
,,,,,,,,blau,blue,b,1.0,,,,,,,,,6.0,7.0,79.0,5.0,290.4935001999838,,,,,,,,,,,,,,,,,290.4821116999956,291.6934833999257,292.52126770000905,292.4941767000128,,,,,,,,,,,,,,,,,,,,,,,,,,,,,,,,,,,292.49425330001395,292.52126770000905,292.52126770000905,293.32842059992254,b,1.0,0.7933258999837562,,,,,sub-138,3.0,stroop_test,59.63637318633464,
,,,,,,,,gelb,blue,b,0.0,,,,,,,,,6.0,8.0,80.0,9.0,293.3416272000177,,,,,,,,,,,,,,,,,293.33185129996855,293.44182469998486,294.2516461999621,294.2263847999275,,,,,,,,,,,,,,,,,,,,,,,,,,,,,,,,,,,294.22643869998865,294.2516461999621,294.2516461999621,295.26072459993884,b,1.0,0.9997782999416812,,,,,sub-138,3.0,stroop_test,59.63637318633464,
,,,,,,,,gelb,yellow,g,1.0,,,,,,,,,6.0,9.0,81.0,11.0,295.2737407999812,,,,,,,,,,,,,,,,,295.26410149992444,296.4729232999962,297.27253830002155,297.2577858000295,,,,,,,,,,,,,,,,,,,,,,,,,,,,,,,,,,,297.25786749995314,297.27253830002155,297.27253830002155,297.9417391999159,g,1.0,0.6543128000339493,,,,,sub-138,3.0,stroop_test,59.63637318633464,
,,,,,,,,gelb,red,r,0.0,,,,,,,,,6.0,10.0,82.0,8.0,297.955095399986,,,,,,,,,,,,,,,,,297.9454726999393,299.15491249994375,299.9536353999283,299.93943459994625,,,,,,,,,,,,,,,,,,,,,,,,,,,,,,,,,,,299.9395144999726,299.9536353999283,299.9536353999283,300.5401355000213,r,1.0,0.5681197999510914,,,,,sub-138,3.0,stroop_test,59.63637318633464,
,,,,,,,,rot,yellow,g,0.0,,,,,,,,,6.0,11.0,83.0,3.0,300.5536411999492,,,,,,,,,,,,,,,,,300.5434626999777,301.7529183999868,302.5645172999939,302.53764629992656,,,,,,,,,,,,,,,,,,,,,,,,,,,,,,,,,,,302.5377357000252,302.5645172999939,302.5645172999939,303.8550625999924,g,1.0,1.2852835999801755,,,,,sub-138,3.0,stroop_test,59.63637318633464,
,,,,,,,,gelb,yellow,g,1.0,,,,,,,,,7.0,0.0,84.0,10.0,303.86776229995303,,,,,,,,,,,,,,,,,303.8589224999305,304.6676004999317,305.47952809999697,305.45285789994523,,,,,,,,,,,,,,,,,,,,,,,,,,,,,,,,,,,305.4529513999587,305.47952809999697,305.47952809999697,306.0379145999905,g,1.0,0.5524132000282407,,,,,sub-138,3.0,stroop_test,59.63637318633464,
,,,,,,,,gelb,yellow,g,1.0,,,,,,,,,7.0,1.0,85.0,11.0,306.05027549993247,,,,,,,,,,,,,,,,,306.0409886999987,306.84927879995666,307.6490986000281,307.6342070000246,,,,,,,,,,,,,,,,,,,,,,,,,,,,,,,,,,,307.63426750001963,307.6490986000281,307.6490986000281,308.13722879998386,g,1.0,0.4688792000524699,,,,,sub-138,3.0,stroop_test,59.63637318633464,
,,,,,,,,blau,blue,b,1.0,,,,,,,,,7.0,2.0,86.0,5.0,308.1486643999815,,,,,,,,,,,,,,,,,308.1400699999649,309.3480317000067,310.16047020000406,310.13335699995514,,,,,,,,,,,,,,,,,,,,,,,,,,,,,,,,,,,310.1334409000119,310.16047020000406,310.16047020000406,310.73771889996715,b,1.0,0.5690098000923172,,,,,sub-138,3.0,stroop_test,59.63637318633464,
,,,,,,,,rot,red,r,1.0,,,,,,,,,7.0,3.0,87.0,1.0,310.7619686999824,,,,,,,,,,,,,,,,,310.74199459992815,310.846974199987,311.67729080002755,311.64819929993246,,,,,,,,,,,,,,,,,,,,,,,,,,,,,,,,,,,311.6482738999184,311.67729080002755,311.67729080002755,312.3488778999308,r,1.0,0.6555681000463665,,,,,sub-138,3.0,stroop_test,59.63637318633464,
,,,,,,,,blau,red,r,0.0,,,,,,,,,7.0,4.0,88.0,4.0,312.3626428999705,,,,,,,,,,,,,,,,,312.35195229994133,312.46233399992343,313.2747194999829,313.24693759996444,,,,,,,,,,,,,,,,,,,,,,,,,,,,,,,,,,,313.2469964999473,313.2747194999829,313.2747194999829,313.9984846999869,r,1.0,0.7174161999719217,,,,,sub-138,3.0,stroop_test,59.63637318633464,
,,,,,,,,blau,blue,b,1.0,,,,,,,,,7.0,5.0,89.0,6.0,314.0120518999174,,,,,,,,,,,,,,,,,314.00216539995745,314.1113081999356,314.91155610000715,314.8960481999675,,,,,,,,,,,,,,,,,,,,,,,,,,,,,,,,,,,314.8961671999423,314.91155610000715,314.91155610000715,315.4148924999172,g,0.0,0.4937914999900386,,,,,sub-138,3.0,stroop_test,59.63637318633464,
,,,,,,,,rot,yellow,g,0.0,,,,,,,,,7.0,6.0,90.0,3.0,315.4269469999708,,,,,,,,,,,,,,,,,315.41815459996,316.2267606999958,317.0383485999191,317.01111189997755,,,,,,,,,,,,,,,,,,,,,,,,,,,,,,,,,,,317.0111978999339,317.0383485999191,317.0383485999191,318.2759558999678,g,1.0,1.2235958999954164,,,,,sub-138,3.0,stroop_test,59.63637318633464,
,,,,,,,,rot,blue,b,0.0,,,,,,,,,7.0,7.0,91.0,2.0,318.2903690999374,,,,,,,,,,,,,,,,,318.27803099993616,318.3915385999717,319.20639209996443,319.1907559999963,,,,,,,,,,,,,,,,,,,,,,,,,,,,,,,,,,,319.1908142999746,319.20639209996443,319.20639209996443,320.1593726000283,b,1.0,0.9403767000185326,,,,,sub-138,3.0,stroop_test,59.63637318633464,
,,,,,,,,blau,yellow,g,0.0,,,,,,,,,7.0,8.0,92.0,7.0,320.17356799996924,,,,,,,,,,,,,,,,,320.1619215999963,321.3731677000178,322.196781000006,322.1753463000059,,,,,,,,,,,,,,,,,,,,,,,,,,,,,,,,,,,322.1754389000125,322.196781000006,322.196781000006,323.47279479994904,g,1.0,1.2688741999445483,,,,,sub-138,3.0,stroop_test,59.63637318633464,
,,,,,,,,gelb,blue,b,0.0,,,,,,,,,7.0,9.0,93.0,9.0,323.48771289992146,,,,,,,,,,,,,,,,,323.47486309998203,323.5889707999304,324.4096244999673,324.3892036000034,,,,,,,,,,,,,,,,,,,,,,,,,,,,,,,,,,,324.3892498000059,324.4096244999673,324.4096244999673,325.4390324000269,b,1.0,1.016901700058952,,,,,sub-138,3.0,stroop_test,59.63637318633464,
,,,,,,,,rot,red,r,1.0,,,,,,,,,7.0,10.0,94.0,0.0,325.4533223999897,,,,,,,,,,,,,,,,,325.4423230999382,325.5544009000296,326.3816151999636,326.3550978000276,,,,,,,,,,,,,,,,,,,,,,,,,,,,,,,,,,,326.35516689997166,326.3816151999636,326.3816151999636,327.0372471999144,r,1.0,0.6527510000159964,,,,,sub-138,3.0,stroop_test,59.63637318633464,
,,,,,,,,gelb,red,r,0.0,,,,,,,,,7.0,11.0,95.0,8.0,327.05116999999154,,,,,,,,,,,,,,,,,327.0390325000044,327.15090839995537,327.9539605999598,327.9361023999518,,,,,,,,,,,,,,,,,,,,,,,,,,,,,,,,,,,327.93617210001685,327.9539605999598,327.9539605999598,329.05289129994344,r,1.0,1.083856699988246,,,,,sub-138,3.0,stroop_test,59.63637318633464,
,,,,,,,,gelb,red,r,0.0,,,,,,,,,8.0,0.0,96.0,8.0,329.06721260002814,,,,,,,,,,,,,,,,,329.0552325999597,330.2667125000153,331.0678009999683,331.05366710003,,,,,,,,,,,,,,,,,,,,,,,,,,,,,,,,,,,331.0537466999376,331.0678009999683,331.0678009999683,331.5544361999491,r,1.0,0.4827386999968439,,,,,sub-138,3.0,stroop_test,59.63637318633464,
,,,,,,,,gelb,yellow,g,1.0,,,,,,,,,8.0,1.0,97.0,11.0,331.56717039993964,,,,,,,,,,,,,,,,,331.5574037999613,331.9162682999158,332.7154213999165,332.7005306999199,,,,,,,,,,,,,,,,,,,,,,,,,,,,,,,,,,,332.7005843999796,332.7154213999165,332.7154213999165,333.48239459993783,g,1.0,0.7497306999284774,,,,,sub-138,3.0,stroop_test,59.63637318633464,
,,,,,,,,blau,blue,b,1.0,,,,,,,,,8.0,2.0,98.0,5.0,333.4971750000259,,,,,,,,,,,,,,,,,333.48452699999325,334.69727689994033,335.5048621000024,335.48193399992306,,,,,,,,,,,,,,,,,,,,,,,,,,,,,,,,,,,335.4819802999264,335.5048621000024,335.5048621000024,335.8829299999634,b,1.0,0.3662856000009924,,,,,sub-138,3.0,stroop_test,59.63637318633464,
,,,,,,,,rot,red,r,1.0,,,,,,,,,8.0,3.0,99.0,1.0,335.89625430002343,,,,,,,,,,,,,,,,,335.8853927999735,336.2461457999889,337.0520406999858,337.0305802000221,,,,,,,,,,,,,,,,,,,,,,,,,,,,,,,,,,,337.0306491999654,337.0520406999858,337.0520406999858,337.7964361999184,g,0.0,0.7287074999185279,,,,,sub-138,3.0,stroop_test,59.63637318633464,
,,,,,,,,gelb,blue,b,0.0,,,,,,,,,8.0,4.0,100.0,9.0,337.8108343000058,,,,,,,,,,,,,,,,,337.7984691999154,339.0116341999965,339.8218844999792,339.7962515000254,,,,,,,,,,,,,,,,,,,,,,,,,,,,,,,,,,,339.79633129993454,339.8218844999792,339.8218844999792,340.746890099952,b,1.0,0.9131896999897436,,,,,sub-138,3.0,stroop_test,59.63637318633464,
,,,,,,,,blau,blue,b,1.0,,,,,,,,,8.0,5.0,101.0,6.0,340.75993649999145,,,,,,,,,,,,,,,,,340.7505133999512,341.95958289993,342.7723926999606,342.7456355999457,,,,,,,,,,,,,,,,,,,,,,,,,,,,,,,,,,,342.7456950999331,342.7723926999606,342.7723926999606,343.3137087000068,b,1.0,0.529453199938871,,,,,sub-138,3.0,stroop_test,59.63637318633464,
,,,,,,,,rot,red,r,1.0,,,,,,,,,8.0,6.0,102.0,0.0,343.3256827000296,,,,,,,,,,,,,,,,,343.31726969999727,343.6756295999512,344.48606849997304,344.460224899929,,,,,,,,,,,,,,,,,,,,,,,,,,,,,,,,,,,344.4602763999719,344.48606849997304,344.48606849997304,345.2632819999708,r,1.0,0.7639728999929503,,,,,sub-138,3.0,stroop_test,59.63637318633464,
,,,,,,,,rot,blue,b,0.0,,,,,,,,,8.0,7.0,103.0,2.0,345.27475330000743,,,,,,,,,,,,,,,,,345.26658289995976,346.4732794999145,347.27218510000966,347.2577161999652,,,,,,,,,,,,,,,,,,,,,,,,,,,,,,,,,,,347.2577757999534,347.27218510000966,347.27218510000966,348.27543009992223,b,1.0,0.9938896000385284,,,,,sub-138,3.0,stroop_test,59.63637318633464,
,,,,,,,,rot,yellow,g,0.0,,,,,,,,,8.0,8.0,104.0,3.0,348.2887679999694,,,,,,,,,,,,,,,,,348.2778586000204,348.6387227999512,349.45397269993555,349.4393019999843,,,,,,,,,,,,,,,,,,,,,,,,,,,,,,,,,,,349.4393899999559,349.45397269993555,349.45397269993555,350.3579304999439,r,0.0,0.8867006999207661,,,,,sub-138,3.0,stroop_test,59.63637318633464,
,,,,,,,,blau,yellow,g,0.0,,,,,,,,,8.0,9.0,105.0,7.0,350.3701717000222,,,,,,,,,,,,,,,,,350.3606717999792,351.57034289999865,352.3822207999183,352.3546641999856,,,,,,,,,,,,,,,,,,,,,,,,,,,,,,,,,,,352.35472709999885,352.3822207999183,352.3822207999183,353.2555326999864,g,1.0,0.854224200011231,,,,,sub-138,3.0,stroop_test,59.63637318633464,
,,,,,,,,blau,red,r,0.0,,,,,,,,,8.0,10.0,106.0,4.0,353.2683175000129,,,,,,,,,,,,,,,,,353.2585029000184,353.6182752000168,354.4181245999644,354.4035344999284,,,,,,,,,,,,,,,,,,,,,,,,,,,,,,,,,,,354.40359090000857,354.4181245999644,354.4181245999644,355.3714086000109,r,1.0,0.9494394999928772,,,,,sub-138,3.0,stroop_test,59.63637318633464,
,,,,,,,,gelb,yellow,g,1.0,,,,,,,,,8.0,11.0,107.0,10.0,355.3836739999242,,,,,,,,,,,,,,,,,355.3745570000028,356.1839557000203,356.9916343999794,356.9688528999686,,,,,,,,,,,,,,,,,,,,,,,,,,,,,,,,,,,356.96893540001474,356.9916343999794,356.9916343999794,357.6194056000095,g,1.0,0.6113622999982908,,,,,sub-138,3.0,stroop_test,59.63637318633464,
,,,,,,,,blau,red,r,0.0,,,,,,,,,9.0,0.0,108.0,4.0,357.6324151000008,,,,,,,,,,,,,,,,,357.62312260002363,357.98217410000507,358.7961248999927,358.767376499949,,,,,,,,,,,,,,,,,,,,,,,,,,,,,,,,,,,358.767453599954,358.7961248999927,358.7961248999927,359.61962769995444,r,1.0,0.8194484999403358,,,,,sub-138,3.0,stroop_test,59.63637318633464,
,,,,,,,,gelb,yellow,g,1.0,,,,,,,,,9.0,1.0,109.0,10.0,359.6316943999845,,,,,,,,,,,,,,,,,359.6225215999875,360.4306399999186,361.2412056999746,361.21532119996846,,,,,,,,,,,,,,,,,,,,,,,,,,,,,,,,,,,361.21537450002506,361.2412056999746,361.2412056999746,362.2337659000186,g,1.0,0.9829782999586314,,,,,sub-138,3.0,stroop_test,59.63637318633464,
,,,,,,,,blau,yellow,g,0.0,,,,,,,,,9.0,2.0,110.0,7.0,362.2459950000048,,,,,,,,,,,,,,,,,362.2368460999569,363.4454795999918,364.261321799946,364.2445202999516,,,,,,,,,,,,,,,,,,,,,,,,,,,,,,,,,,,364.2445587000111,364.261321799946,364.261321799946,365.11410280002747,g,1.0,0.8482760000042617,,,,,sub-138,3.0,stroop_test,59.63637318633464,
,,,,,,,,gelb,red,r,0.0,,,,,,,,,9.0,3.0,111.0,8.0,365.1276213999372,,,,,,,,,,,,,,,,,365.1174322000006,365.9269165999722,366.74087689991575,366.71197449998,,,,,,,,,,,,,,,,,,,,,,,,,,,,,,,,,,,366.7120351999765,366.74087689991575,366.74087689991575,367.5122629000107,r,1.0,0.7548282999778166,,,,,sub-138,3.0,stroop_test,59.63637318633464,
,,,,,,,,gelb,blue,b,0.0,,,,,,,,,9.0,4.0,112.0,9.0,367.5261556999758,,,,,,,,,,,,,,,,,367.515295399935,368.32531540002674,369.12479779997375,369.1108048999449,,,,,,,,,,,,,,,,,,,,,,,,,,,,,,,,,,,369.1108896000078,369.12479779997375,369.12479779997375,369.72827899991535,b,1.0,0.5975921999197453,,,,,sub-138,3.0,stroop_test,59.63637318633464,
,,,,,,,,rot,red,r,1.0,,,,,,,,,9.0,5.0,113.0,1.0,369.7411196000176,,,,,,,,,,,,,,,,,369.73193319991697,370.5407894999953,371.354084599996,371.3252544000279,,,,,,,,,,,,,,,,,,,,,,,,,,,,,,,,,,,371.32531169999857,371.354084599996,371.354084599996,371.9767766000005,r,1.0,0.6091058999300003,,,,,sub-138,3.0,stroop_test,59.63637318633464,
,,,,,,,,gelb,yellow,g,1.0,,,,,,,,,9.0,6.0,114.0,11.0,371.989925300004,,,,,,,,,,,,,,,,,371.9798993000295,372.0896625999594,372.8982916999376,372.8751158999512,,,,,,,,,,,,,,,,,,,,,,,,,,,,,,,,,,,372.875195599976,372.8982916999376,372.8982916999376,373.9755423999159,g,1.0,1.0589592000469563,,,,,sub-138,3.0,stroop_test,59.63637318633464,
,,,,,,,,rot,yellow,g,0.0,,,,,,,,,9.0,7.0,115.0,3.0,373.9888781999471,,,,,,,,,,,,,,,,,373.979548699921,375.1873482000083,376.0045910999179,375.97350349999033,,,,,,,,,,,,,,,,,,,,,,,,,,,,,,,,,,,375.9735926999711,376.0045910999179,376.0045910999179,377.6217034999281,g,1.0,1.6021260999841616,,,,,sub-138,3.0,stroop_test,59.63637318633464,
,,,,,,,,rot,blue,b,0.0,,,,,,,,,9.0,8.0,116.0,2.0,377.6363414999796,,,,,,,,,,,,,,,,,377.6244665000122,377.7353488999652,378.53468109993264,378.5196940000169,,,,,,,,,,,,,,,,,,,,,,,,,,,,,,,,,,,378.51974479993805,378.53468109993264,378.53468109993264,379.4222740000114,b,1.0,0.8753983000060543,,,,,sub-138,3.0,stroop_test,59.63637318633464,
,,,,,,,,blau,blue,b,1.0,,,,,,,,,9.0,9.0,117.0,6.0,379.4338929000078,,,,,,,,,,,,,,,,,379.42533300002106,380.23352929996327,381.0440293999855,381.0182795999572,,,,,,,,,,,,,,,,,,,,,,,,,,,,,,,,,,,381.0183503999142,381.0440293999855,381.0440293999855,381.7862723999424,b,1.0,0.7246492999838665,,,,,sub-138,3.0,stroop_test,59.63637318633464,
,,,,,,,,rot,red,r,1.0,,,,,,,,,9.0,10.0,118.0,0.0,381.79887649999,,,,,,,,,,,,,,,,,381.7899853999261,381.8996652999194,382.7215497000143,382.7000527000055,,,,,,,,,,,,,,,,,,,,,,,,,,,,,,,,,,,382.70009850000497,382.7215497000143,382.7215497000143,383.3838279999327,r,1.0,0.6456293999217451,,,,,sub-138,3.0,stroop_test,59.63637318633464,
,,,,,,,,blau,blue,b,1.0,,,,,,,,,9.0,11.0,119.0,5.0,383.39820759999566,,,,,,,,,,,,,,,,,383.3868019999936,383.7482323999284,384.5573561999481,384.53379130002577,,,,,,,,,,,,,,,,,,,,,,,,,,,,,,,,,,,384.53384259995073,384.5573561999481,384.5573561999481,385.4007415999658,b,1.0,0.8346577000338584,,,,,sub-138,3.0,stroop_test,59.63637318633464,
,,,,,,,,,,,,,,,,,,,,,,,,,,,,,,,,,,,,,,,,,,,,,,,,,,,,,,,,,,,,,,,,,,,,,,,,,,,,,,,,,,,,,,,385.4028828999726,385.4145011999644,390.4097119999351,sub-138,,,,
