wordCTK,colorCTK,corrAnsCTK,congruentCTK,thisN,thisTrialN,thisRepN,keyResp_CTK.keys,keyResp_CTK.corr,keyResp_CTK.rt,keyResp_CTK.duration,wordPractice,colorPractice,corrAnsPractice,congruentPractice,respPractice.keys,respPractice.corr,respPractice.rt,respPractice.duration,word,color,corrAns,congruent,keyResp_test_run.keys,keyResp_test_run.corr,keyResp_test_run.rt,keyResp_test_run.duration,trials_CTK.thisRepN,trials_CTK.thisTrialN,trials_CTK.thisN,trials_CTK.thisIndex,trials_practice.thisRepN,trials_practice.thisTrialN,trials_practice.thisN,trials_practice.thisIndex,trials_test.thisRepN,trials_test.thisTrialN,trials_test.thisN,trials_test.thisIndex,thisRow.t,notes,instruction.started,instr_text.started,instr_image.started,instr_resp.started,instruction.stopped,instr_resp.keys,instr_resp.rt,instr_resp.duration,instr_color_to_key.started,instr_ctk.started,resp_ctk.started,instr_color_to_key.stopped,resp_ctk.keys,resp_ctk.rt,resp_ctk.duration,ITI.started,fixcross.started,fixcross.stopped,ITI.stopped,color_to_key_run.started,stimulus_CTK.started,keyResp_CTK.started,color_to_key_run.stopped,trials_CTK.keyResp_CTK.keys,trials_CTK.keyResp_CTK.corr,trials_CTK.keyResp_CTK.rt,trials_CTK.keyResp_CTK.duration,instr_practice.started,instr_practice_text.started,instr_practice_resp.started,instr_practice.stopped,instr_practice_resp.keys,instr_practice_resp.rt,instr_practice_resp.duration,practice_run.started,stimulus_practice.started,respPractice.started,practice_run.stopped,trials_practice.respPractice.keys,trials_practice.respPractice.corr,trials_practice.respPractice.rt,trials_practice.respPractice.duration,feedback.started,textFeedback.started,feedback.stopped,textFeedback.stopped,instr_test.started,instr_test_text.started,instr_test_resp.started,instr_test.stopped,instr_test_resp.keys,instr_test_resp.rt,instr_test_resp.duration,test_run.started,stimulus_test_run.started,keyResp_test_run.started,test_run.stopped,trials_test.keyResp_test_run.keys,trials_test.keyResp_test_run.corr,trials_test.keyResp_test_run.rt,trials_test.keyResp_test_run.duration,goodbye.started,textGoodbye.started,goodbye.stopped,participant,session,expName,frameRate,Unnamed: 112
,,,,,,,,,,,,,,,,,,,,,,,,,,,,,,,,,,,,,,,,,0.0036256999997021,0.0306747999998151,0.0306747999998151,0.0306747999998151,79.30718609999985,space,79.2603382000002,,,,,,,,,,,,,,,,,,,,,,,,,,,,,,,,,,,,,,,,,,,,,,,,,,,,,,,,,,sub-073,1,stroop_test,59.88257027968528,
,,,,,,,,,,,,,,,,,,,,,,,,,,,,,,,,,,,,,,,,,,,,,,,,,79.30727339999976,79.31554989999995,79.31554989999995,99.59045209999977,space,20.27128700000003,,,,,,,,,,,,,,,,,,,,,,,,,,,,,,,,,,,,,,,,,,,,,,,,,,,sub-073,1,stroop_test,59.88257027968528,
test,red,r,1.0,0.0,0.0,0.0,r,1.0,1.2503646000000117,,,,,,,,,,,,,,,,,,0.0,0.0,0.0,0.0,,,,,,,,,99.60746189999963,,,,,,,,,,,,,,,,,99.60251289999997,99.70428949999996,100.50443619999989,100.48951929999976,100.49947810000003,100.50443619999989,100.50443619999989,101.77318650000008,r,1.0,1.2503646000000117,,,,,,,,,,,,,,,,,,,,,,,,,,,,,,,,,,,,,,,sub-073,1,stroop_test,59.88257027968528,
test,blue,b,1.0,1.0,1.0,0.0,b,1.0,2.661260100000163,,,,,,,,,,,,,,,,,,0.0,1.0,1.0,2.0,,,,,,,,,101.7866436999998,,,,,,,,,,,,,,,,,101.77392919999966,102.58593380000002,103.38559269999996,103.3692444999997,103.3697416,103.38559269999996,103.38559269999996,106.05292599999984,b,1.0,2.661260100000163,,,,,,,,,,,,,,,,,,,,,,,,,,,,,,,,,,,,,,,sub-073,1,stroop_test,59.88257027968528,
test,yellow,g,1.0,2.0,2.0,0.0,g,1.0,1.1603423999999904,,,,,,,,,,,,,,,,,,0.0,2.0,2.0,1.0,,,,,,,,,106.06785499999978,,,,,,,,,,,,,,,,,106.0534091999998,106.866939,107.6668267,107.65204459999995,107.65294399999992,107.6668267,107.6668267,108.8350400999998,g,1.0,1.1603423999999904,,,,,,,,,,,,,,,,,,,,,,,,,,,,,,,,,,,,,,,sub-073,1,stroop_test,59.88257027968528,
test,yellow,g,1.0,3.0,0.0,1.0,g,1.0,1.8870151999999507,,,,,,,,,,,,,,,,,,1.0,0.0,3.0,1.0,,,,,,,,,108.84942599999977,,,,,,,,,,,,,,,,,108.83555609999983,109.64865659999988,110.4481593999999,110.43355489999976,110.43453759999966,110.4481593999999,110.4481593999999,112.35027619999984,g,1.0,1.8870151999999507,,,,,,,,,,,,,,,,,,,,,,,,,,,,,,,,,,,,,,,sub-073,1,stroop_test,59.88257027968528,
test,blue,b,1.0,4.0,1.0,1.0,b,1.0,1.5442263999998431,,,,,,,,,,,,,,,,,,1.0,1.0,4.0,2.0,,,,,,,,,112.36394389999988,,,,,,,,,,,,,,,,,112.3510581999999,112.46402959999978,113.26380229999997,113.24904339999966,113.25004790000004,113.26380229999997,113.26380229999997,114.81440109999994,b,1.0,1.5442263999998431,,,,,,,,,,,,,,,,,,,,,,,,,,,,,,,,,,,,,,,sub-073,1,stroop_test,59.88257027968528,
test,red,r,1.0,5.0,2.0,1.0,r,1.0,0.8815931999997701,,,,,,,,,,,,,,,,,,1.0,2.0,5.0,0.0,,,,,,,,,114.82893549999972,,,,,,,,,,,,,,,,,114.8149398999999,114.92918729999974,115.72861669999976,115.71433549999983,115.71542479999972,115.72861669999976,115.72861669999976,116.61463509999976,r,1.0,0.8815931999997701,,,,,,,,,,,,,,,,,,,,,,,,,,,,,,,,,,,,,,,sub-073,1,stroop_test,59.88257027968528,
test,yellow,g,1.0,6.0,0.0,2.0,g,1.0,1.971136000000115,,,,,,,,,,,,,,,,,,2.0,0.0,6.0,1.0,,,,,,,,,116.62837199999969,,,,,,,,,,,,,,,,,116.6152063999998,117.42767049999976,118.22709229999964,118.21151859999964,118.21224889999984,118.22709229999964,118.22709229999964,120.21208249999972,g,1.0,1.971136000000115,,,,,,,,,,,,,,,,,,,,,,,,,,,,,,,,,,,,,,,sub-073,1,stroop_test,59.88257027968528,
test,blue,b,1.0,7.0,1.0,2.0,b,1.0,0.5646904999998696,,,,,,,,,,,,,,,,,,2.0,1.0,7.0,2.0,,,,,,,,,120.22598349999998,,,,,,,,,,,,,,,,,120.21262780000006,121.0256688999998,121.82517199999984,121.81041649999996,121.81121769999982,121.82517199999984,121.82517199999984,122.39415609999968,b,1.0,0.5646904999998696,,,,,,,,,,,,,,,,,,,,,,,,,,,,,,,,,,,,,,,sub-073,1,stroop_test,59.88257027968528,
test,red,r,1.0,8.0,2.0,2.0,r,1.0,0.9579545999999936,,,,,,,,,,,,,,,,,,2.0,2.0,8.0,0.0,,,,,,,,,122.40838719999964,,,,,,,,,,,,,,,,,122.39477579999992,123.20790820000002,124.00746839999964,123.99318839999978,123.99411779999993,124.00746839999964,124.00746839999964,124.97600769999964,r,1.0,0.9579545999999936,,,,,,,,,,,,,,,,,,,,,,,,,,,,,,,,,,,,,,,sub-073,1,stroop_test,59.88257027968528,
test,blue,b,1.0,9.0,0.0,3.0,b,1.0,2.340526500000124,,,,,,,,,,,,,,,,,,3.0,0.0,9.0,2.0,,,,,,,,,124.9904016999999,,,,,,,,,,,,,,,,,124.97670160000008,126.1897114999997,126.98964690000004,126.97380179999982,126.9745042999998,126.98964690000004,126.98964690000004,129.3402345999998,b,1.0,2.340526500000124,,,,,,,,,,,,,,,,,,,,,,,,,,,,,,,,,,,,,,,sub-073,1,stroop_test,59.88257027968528,
test,yellow,g,1.0,10.0,1.0,3.0,g,1.0,1.3270210000000588,,,,,,,,,,,,,,,,,,3.0,1.0,10.0,1.0,,,,,,,,,129.35437179999963,,,,,,,,,,,,,,,,,129.3407904999999,129.45457129999977,130.25422309999976,130.23901690000002,130.2399132999999,130.25422309999976,130.25422309999976,131.58728549999978,g,1.0,1.3270210000000588,,,,,,,,,,,,,,,,,,,,,,,,,,,,,,,,,,,,,,,sub-073,1,stroop_test,59.88257027968528,
test,red,r,1.0,11.0,2.0,3.0,r,1.0,0.7964748000003965,,,,,,,,,,,,,,,,,,3.0,2.0,11.0,0.0,,,,,,,,,131.6031825,,,,,,,,,,,,,,,,,131.58762119999983,132.80257200000003,133.6020811999997,133.58728939999992,133.58835649999992,133.6020811999997,133.6020811999997,134.40474829999994,r,1.0,0.7964748000003965,,,,,,,,,,,,,,,,,,,,,,,,,,,,,,,,,,,,,,,sub-073,1,stroop_test,59.88257027968528,
,,,,,,,,,,,,,,,,,,,,,,,,,,,,,,,,,,,,,,,,,,,,,,,,,,,,,,,,,,,,,,,,,,,,134.40505429999985,134.4183982999998,134.4183982999998,155.67532889999984,space,21.249797200000103,,,,,,,,,,,,,,,,,,,,,,,,,,,,,,,,sub-073,1,stroop_test,59.88257027968528,
,,,,0.0,0.0,0.0,,,,,rot,yellow,g,0.0,g,1.0,2.5353854999998475,,,,,,,,,,,,,,0.0,0.0,0.0,3.0,,,,,155.6896730999997,,,,,,,,,,,,,,,,,155.68619779999972,155.79020709999986,156.5892762999997,156.57518200000004,,,,,,,,,,,,,,,,156.58455319999985,156.5892762999997,156.5892762999997,159.14088439999978,g,1.0,2.5353854999998475,,159.15182830000003,159.15663509999968,160.1546476999997,,,,,,,,,,,,,,,,,,,,sub-073,1,stroop_test,59.88257027968528,
,,,,1.0,1.0,0.0,,,,,blau,red,r,0.0,r,1.0,1.8543531000000255,,,,,,,,,,,,,,0.0,1.0,1.0,4.0,,,,,160.17077359999985,,,,,,,,,,,,,,,,,160.15532229999965,160.25414869999986,161.0533086999999,161.0394041999998,,,,,,,,,,,,,,,,161.04892269999982,161.0533086999999,161.0533086999999,162.92197540000006,r,1.0,1.8543531000000255,,162.92302539999991,162.9358825999998,163.92110609999963,163.93557529999998,,,,,,,,,,,,,,,,,,,sub-073,1,stroop_test,59.88257027968528,
,,,,2.0,2.0,0.0,,,,,rot,red,r,1.0,r,1.0,1.929806899999676,,,,,,,,,,,,,,0.0,2.0,2.0,0.0,,,,,163.93557529999998,,,,,,,,,,,,,,,,,163.92187009999998,164.28540759999987,165.08519419999993,165.07061010000007,,,,,,,,,,,,,,,,165.07594070000005,165.08519419999993,165.08519419999993,167.0196375999999,r,1.0,1.929806899999676,,167.02061689999982,167.03360359999988,168.01859309999963,168.03343749999976,,,,,,,,,,,,,,,,,,,sub-073,1,stroop_test,59.88257027968528,
,,,,3.0,3.0,0.0,,,,,gelb,yellow,g,1.0,g,1.0,1.7654019000001426,,,,,,,,,,,,,,0.0,3.0,3.0,10.0,,,,,168.03343749999976,,,,,,,,,,,,,,,,,168.01922639999975,168.13325989999976,168.93253830000003,168.91832039999963,,,,,,,,,,,,,,,,168.92383519999976,168.93253830000003,168.93253830000003,170.70132839999997,g,1.0,1.7654019000001426,,170.70219999999972,170.71498819999988,171.71521499999972,,,,,,,,,,,,,,,,,,,,sub-073,1,stroop_test,59.88257027968528,
,,,,4.0,4.0,0.0,,,,,rot,red,r,1.0,r,1.0,0.8261184000002686,,,,,,,,,,,,,,0.0,4.0,4.0,1.0,,,,,171.73124430000007,,,,,,,,,,,,,,,,,171.71598419999964,172.91410989999986,173.71303529999977,173.69846319999988,,,,,,,,,,,,,,,,173.7044882,173.71303529999977,173.71303529999977,174.54913499999975,r,1.0,0.8261184000002686,,174.55061479999995,174.56285529999968,175.54678309999963,175.56245629999967,,,,,,,,,,,,,,,,,,,sub-073,1,stroop_test,59.88257027968528,
,,,,5.0,5.0,0.0,,,,,blau,yellow,g,0.0,g,1.0,2.486653500000102,,,,,,,,,,,,,,0.0,5.0,5.0,7.0,,,,,175.56245629999967,,,,,,,,,,,,,,,,,175.54740919999995,176.76155889999973,177.5611541999997,177.54639319999978,,,,,,,,,,,,,,,,177.55190390000007,177.5611541999997,177.5611541999997,180.06316669999978,g,1.0,2.486653500000102,,180.06406239999978,180.07645839999986,181.06141249999973,181.07613949999995,,,,,,,,,,,,,,,,,,,sub-073,1,stroop_test,59.88257027968528,
,,,,6.0,6.0,0.0,,,,,blau,blue,b,1.0,b,1.0,1.4526565999999548,,,,,,,,,,,,,,0.0,6.0,6.0,6.0,,,,,181.07613949999995,,,,,,,,,,,,,,,,,181.06223249999996,182.27535169999965,183.0748973,183.05947509999987,,,,,,,,,,,,,,,,183.06036779999977,183.0748973,183.0748973,184.5431675,b,1.0,1.4526565999999548,,184.5442398,184.55742869999995,185.5420629,185.55709869999964,,,,,,,,,,,,,,,,,,,sub-073,1,stroop_test,59.88257027968528,
,,,,7.0,7.0,0.0,,,,,gelb,yellow,g,1.0,g,1.0,1.4430127999999058,,,,,,,,,,,,,,0.0,7.0,7.0,11.0,,,,,185.55709869999964,,,,,,,,,,,,,,,,,185.54271309999967,186.75621679999995,187.55583519999985,187.5401168999997,,,,,,,,,,,,,,,,187.54548049999997,187.55583519999985,187.55583519999985,189.00714119999972,g,1.0,1.4430127999999058,,189.0080045,189.02169860000004,190.00636769999983,190.02080209999983,,,,,,,,,,,,,,,,,,,sub-073,1,stroop_test,59.88257027968528,
,,,,8.0,8.0,0.0,,,,,rot,blue,b,0.0,b,1.0,1.6990230999999767,,,,,,,,,,,,,,0.0,8.0,8.0,2.0,,,,,190.02080209999983,,,,,,,,,,,,,,,,,190.00698879999985,190.82077679999972,191.62016779999976,191.60455319999983,,,,,,,,,,,,,,,,191.60972649999985,191.62016779999976,191.62016779999976,193.3215894,b,1.0,1.6990230999999767,,193.32233479999968,193.3356467999997,194.32051580000007,194.33490200000008,,,,,,,,,,,,,,,,,,,sub-073,1,stroop_test,59.88257027968528,
,,,,9.0,9.0,0.0,,,,,gelb,blue,b,0.0,b,1.0,1.623323899999832,,,,,,,,,,,,,,0.0,9.0,9.0,9.0,,,,,194.33490200000008,,,,,,,,,,,,,,,,,194.3211311,195.1348085,195.93407609999983,195.9199997000001,,,,,,,,,,,,,,,,195.925804,195.93407609999983,195.93407609999983,197.5701750999997,b,1.0,1.623323899999832,,197.57107210000004,197.5836790999997,198.56854499999963,198.58282489999965,,,,,,,,,,,,,,,,,,,sub-073,1,stroop_test,59.88257027968528,
,,,,10.0,10.0,0.0,,,,,gelb,red,r,0.0,r,1.0,1.1099699999999757,,,,,,,,,,,,,,0.0,10.0,10.0,8.0,,,,,198.58282489999965,,,,,,,,,,,,,,,,,198.56918799999997,199.7821896999999,200.58194860000003,200.5669401,,,,,,,,,,,,,,,,200.56793369999968,200.58194860000003,200.58194860000003,201.69987730000005,r,1.0,1.1099699999999757,,201.7006419999998,201.7146321,202.6995284,202.71390129999963,,,,,,,,,,,,,,,,,,,sub-073,1,stroop_test,59.88257027968528,
,,,,11.0,11.0,0.0,,,,,blau,blue,b,1.0,b,1.0,1.1964938000000984,,,,,,,,,,,,,,0.0,11.0,11.0,5.0,,,,,202.71390129999963,,,,,,,,,,,,,,,,,202.7000524,203.91318809999984,204.7126393999997,204.69877739999995,,,,,,,,,,,,,,,,204.70504029999984,204.7126393999997,204.7126393999997,205.91333429999983,b,1.0,1.1964938000000984,,205.9138951,205.92888969999967,206.91388770000003,206.92805409999983,,,,,,,,,,,,,,,,,,,sub-073,1,stroop_test,59.88257027968528,
,,,,12.0,0.0,1.0,,,,,blau,red,r,0.0,r,1.0,0.9104745999998158,,,,,,,,,,,,,,1.0,0.0,12.0,4.0,,,,,206.92805409999983,,,,,,,,,,,,,,,,,206.91451949999964,207.2783030999999,208.0777254,208.06297270000005,,,,,,,,,,,,,,,,208.06392509999975,208.0777254,208.0777254,208.99659810000003,r,1.0,0.9104745999998158,,208.9974828999998,209.0104713000001,209.99515649999967,210.01014769999983,,,,,,,,,,,,,,,,,,,sub-073,1,stroop_test,59.88257027968528,
,,,,13.0,1.0,1.0,,,,,blau,blue,b,1.0,b,1.0,1.3638860000000932,,,,,,,,,,,,,,1.0,1.0,13.0,6.0,,,,,210.01014769999983,,,,,,,,,,,,,,,,,209.9958494999996,211.2095734999998,212.0089284999999,211.9942372999999,,,,,,,,,,,,,,,,211.9952092999997,212.0089284999999,212.0089284999999,213.37700330000007,b,1.0,1.3638860000000932,,213.3779328999999,213.39138109999976,214.3758051,214.3910652999998,,,,,,,,,,,,,,,,,,,sub-073,1,stroop_test,59.88257027968528,
,,,,14.0,2.0,1.0,,,,,blau,yellow,g,0.0,g,1.0,1.1107004000000416,,,,,,,,,,,,,,1.0,2.0,14.0,7.0,,,,,214.3910652999998,,,,,,,,,,,,,,,,,214.37636010000008,215.1902858999997,215.98999520000007,215.97533959999964,,,,,,,,,,,,,,,,215.9763721999998,215.98999520000007,215.98999520000007,217.10943169999973,g,1.0,1.1107004000000416,,217.1102381000001,217.12302569999972,218.10703759999976,218.12209619999976,,,,,,,,,,,,,,,,,,,sub-073,1,stroop_test,59.88257027968528,
,,,,15.0,3.0,1.0,,,,,gelb,red,r,0.0,r,1.0,1.5803685999999288,,,,,,,,,,,,,,1.0,3.0,15.0,8.0,,,,,218.12209619999976,,,,,,,,,,,,,,,,,218.10775319999996,219.32113089999984,220.12110889999985,220.1071717,,,,,,,,,,,,,,,,220.1123966,220.12110889999985,220.12110889999985,221.70560909999995,r,1.0,1.5803685999999288,,221.7064071,221.72010869999983,222.7047023,222.71940640000005,,,,,,,,,,,,,,,,,,,sub-073,1,stroop_test,59.88257027968528,
,,,,16.0,4.0,1.0,,,,,rot,blue,b,0.0,b,1.0,1.0624926999998934,,,,,,,,,,,,,,1.0,4.0,16.0,2.0,,,,,222.71940640000005,,,,,,,,,,,,,,,,,222.70533869999963,222.8191167,223.61871979999975,223.6038125,,,,,,,,,,,,,,,,223.6088671999996,223.61871979999975,223.61871979999975,224.68653959999983,b,1.0,1.0624926999998934,,224.68728029999968,224.7016653999999,225.6861174999999,225.70119320000003,,,,,,,,,,,,,,,,,,,sub-073,1,stroop_test,59.88257027968528,
,,,,17.0,5.0,1.0,,,,,rot,red,r,1.0,r,1.0,0.7438384000001861,,,,,,,,,,,,,,1.0,5.0,17.0,1.0,,,,,225.70119320000003,,,,,,,,,,,,,,,,,225.68677239999988,226.50106860000005,227.30068489999985,227.2855992,,,,,,,,,,,,,,,,227.28636460000007,227.30068489999985,227.30068489999985,228.0521759999997,r,1.0,0.7438384000001861,,228.0530630999997,228.0665071999997,229.05185029999984,229.0661197999998,,,,,,,,,,,,,,,,,,,sub-073,1,stroop_test,59.88257027968528,
,,,,18.0,6.0,1.0,,,,,rot,red,r,1.0,r,1.0,0.8582337000002553,,,,,,,,,,,,,,1.0,6.0,18.0,0.0,,,,,229.0661197999998,,,,,,,,,,,,,,,,,229.0525543999997,229.1661369999997,229.96540129999997,229.95100239999965,,,,,,,,,,,,,,,,229.9519839,229.96540129999997,229.96540129999997,230.8351322999997,r,1.0,0.8582337000002553,,230.83603689999973,230.8485286,231.8326493999998,231.84782670000004,,,,,,,,,,,,,,,,,,,sub-073,1,stroop_test,59.88257027968528,
,,,,19.0,7.0,1.0,,,,,rot,yellow,g,0.0,g,1.0,0.7847369999999501,,,,,,,,,,,,,,1.0,7.0,19.0,3.0,,,,,231.84782670000004,,,,,,,,,,,,,,,,,231.8332860999999,232.6477281999996,233.44731809999985,233.43228699999963,,,,,,,,,,,,,,,,233.4334457,233.44731809999985,233.44731809999985,234.25018679999997,g,1.0,0.7847369999999501,,234.2509654999999,234.2632825999999,235.24729239999988,235.2624429999996,,,,,,,,,,,,,,,,,,,sub-073,1,stroop_test,59.88257027968528,
,,,,20.0,8.0,1.0,,,,,gelb,blue,b,0.0,b,1.0,0.8296262999997452,,,,,,,,,,,,,,1.0,8.0,20.0,9.0,,,,,235.2624429999996,,,,,,,,,,,,,,,,,235.2481654999997,236.4618974,237.26129319999973,237.2469228,,,,,,,,,,,,,,,,237.25224839999964,237.26129319999973,237.26129319999973,238.0961514999999,b,1.0,0.8296262999997452,,238.0969240999998,238.1108577,239.09536439999965,239.11050129999967,,,,,,,,,,,,,,,,,,,sub-073,1,stroop_test,59.88257027968528,
,,,,21.0,9.0,1.0,,,,,gelb,yellow,g,1.0,g,1.0,1.401301500000045,,,,,,,,,,,,,,1.0,9.0,21.0,11.0,,,,,239.11050129999967,,,,,,,,,,,,,,,,,239.0958532,239.21024880000004,240.00993530000005,239.99491179999995,,,,,,,,,,,,,,,,239.9959730999999,240.00993530000005,240.00993530000005,241.4287394999997,g,1.0,1.401301500000045,,241.42965109999977,241.4429001999997,242.42686909999972,242.44208359999996,,,,,,,,,,,,,,,,,,,sub-073,1,stroop_test,59.88257027968528,
,,,,22.0,10.0,1.0,,,,,gelb,yellow,g,1.0,g,1.0,0.7097122000000127,,,,,,,,,,,,,,1.0,10.0,22.0,10.0,,,,,242.44208359999996,,,,,,,,,,,,,,,,,242.42735779999973,243.6414255,244.4410214999998,244.42633849999996,,,,,,,,,,,,,,,,244.4272772999998,244.4410214999998,244.4410214999998,245.1595316999997,g,1.0,0.7097122000000127,,245.16032199999967,245.1739508999999,246.1585126,246.1734222,,,,,,,,,,,,,,,,,,,sub-073,1,stroop_test,59.88257027968528,
,,,,23.0,11.0,1.0,,,,,blau,blue,b,1.0,b,1.0,0.8039420000000064,,,,,,,,,,,,,,1.0,11.0,23.0,5.0,,,,,246.1734222,,,,,,,,,,,,,,,,,246.1592387000001,246.97292709999965,247.77227270000003,247.7575259,,,,,,,,,,,,,,,,247.76304869999967,247.77227270000003,247.77227270000003,248.59214459999976,b,1.0,0.8039420000000064,,248.59294099999988,248.6054964,249.59050839999964,249.6047328,,,,,,,,,,,,,,,,,,,sub-073,1,stroop_test,59.88257027968528,
,,,,,,,,,,,,,,,,,,,,,,,,,,,,,,,,,,,,,,,,,,,,,,,,,,,,,,,,,,,,,,,,,,,,,,,,,,,,,,,,,,,,,,,249.59074659999987,249.6047328,249.6047328,259.7847969999998,space,10.174000700000306,,,,,,,,,,,,,sub-073,1,stroop_test,59.88257027968528,
,,,,0.0,0.0,0.0,,,,,,,,,,,,,rot,red,r,1.0,r,1.0,1.8354542000001857,,,,,,,,,,0.0,0.0,0.0,1.0,259.80033289999983,,,,,,,,,,,,,,,,,259.7964898,260.9985797999998,261.7978438,261.7828589999999,,,,,,,,,,,,,,,,,,,,,,,,,,,,,,,,,,,261.7869658999998,261.7978438,261.7978438,263.6496413,r,1.0,1.8354542000001857,,,,,sub-073,1,stroop_test,59.88257027968528,
,,,,1.0,1.0,0.0,,,,,,,,,,,,,gelb,yellow,g,1.0,g,1.0,1.6212898000003406,,,,,,,,,,0.0,1.0,1.0,11.0,263.66375160000007,,,,,,,,,,,,,,,,,263.6503051,264.46348499999976,265.26265779999994,265.2480154,,,,,,,,,,,,,,,,,,,,,,,,,,,,,,,,,,,265.25288899999987,265.26265779999994,265.26265779999994,266.89752580000004,g,1.0,1.6212898000003406,,,,,sub-073,1,stroop_test,59.88257027968528,
,,,,2.0,2.0,0.0,,,,,,,,,,,,,blau,blue,b,1.0,b,1.0,0.7587228000002142,,,,,,,,,,0.0,2.0,2.0,5.0,266.91216429999986,,,,,,,,,,,,,,,,,266.89816569999994,268.1116634,268.9271257999999,268.9126962999999,,,,,,,,,,,,,,,,,,,,,,,,,,,,,,,,,,,268.9193038999997,268.9271257999999,268.9271257999999,269.69593080000004,b,1.0,0.7587228000002142,,,,,sub-073,1,stroop_test,59.88257027968528,
,,,,3.0,3.0,0.0,,,,,,,,,,,,,rot,yellow,g,0.0,g,1.0,1.112463899999966,,,,,,,,,,0.0,3.0,3.0,3.0,269.71048729999984,,,,,,,,,,,,,,,,,269.6967947999997,270.90977079999993,271.7087905999997,271.6947983,,,,,,,,,,,,,,,,,,,,,,,,,,,,,,,,,,,271.70097450000003,271.7087905999997,271.7087905999997,272.82814419999977,g,1.0,1.112463899999966,,,,,sub-073,1,stroop_test,59.88257027968528,
,,,,4.0,4.0,0.0,,,,,,,,,,,,,blau,blue,b,1.0,b,1.0,0.7724171999998362,,,,,,,,,,0.0,4.0,4.0,6.0,272.84170849999964,,,,,,,,,,,,,,,,,272.82879,273.1916962999999,273.99088219999976,273.9761217999999,,,,,,,,,,,,,,,,,,,,,,,,,,,,,,,,,,,273.98078110000006,273.99088219999976,273.99088219999976,274.7771137999998,b,1.0,0.7724171999998362,,,,,sub-073,1,stroop_test,59.88257027968528,
,,,,5.0,5.0,0.0,,,,,,,,,,,,,rot,blue,b,0.0,b,1.0,0.6870613000000958,,,,,,,,,,0.0,5.0,5.0,2.0,274.79077489999963,,,,,,,,,,,,,,,,,274.77777049999986,275.14068259999976,275.93997939999963,275.9252821,,,,,,,,,,,,,,,,,,,,,,,,,,,,,,,,,,,275.9301567999996,275.93997939999963,275.93997939999963,276.6421551999997,b,1.0,0.6870613000000958,,,,,sub-073,1,stroop_test,59.88257027968528,
,,,,6.0,6.0,0.0,,,,,,,,,,,,,blau,yellow,g,0.0,g,1.0,1.3207010000000992,,,,,,,,,,0.0,6.0,6.0,7.0,276.6566866999997,,,,,,,,,,,,,,,,,276.64282619999994,277.85589709999977,278.65527329999986,278.6403864999997,,,,,,,,,,,,,,,,,,,,,,,,,,,,,,,,,,,278.64581299999963,278.65527329999986,278.65527329999986,279.9909791,g,1.0,1.3207010000000992,,,,,sub-073,1,stroop_test,59.88257027968528,
,,,,7.0,7.0,0.0,,,,,,,,,,,,,rot,red,r,1.0,r,1.0,0.9844535000001996,,,,,,,,,,0.0,7.0,7.0,0.0,280.00462879999986,,,,,,,,,,,,,,,,,279.9916086999997,280.1048077999999,280.9206528999998,280.9055937999997,,,,,,,,,,,,,,,,,,,,,,,,,,,,,,,,,,,280.9108434,280.9206528999998,280.9206528999998,281.92221249999966,r,1.0,0.9844535000001996,,,,,sub-073,1,stroop_test,59.88257027968528,
,,,,8.0,8.0,0.0,,,,,,,,,,,,,blau,red,r,0.0,r,1.0,0.9673721999997724,,,,,,,,,,0.0,8.0,8.0,4.0,281.93646839999974,,,,,,,,,,,,,,,,,281.9228859,282.73642470000004,283.53619949999984,283.5215816,,,,,,,,,,,,,,,,,,,,,,,,,,,,,,,,,,,283.5281480999997,283.53619949999984,283.53619949999984,284.52150429999983,r,1.0,0.9673721999997724,,,,,sub-073,1,stroop_test,59.88257027968528,
,,,,9.0,9.0,0.0,,,,,,,,,,,,,gelb,blue,b,0.0,b,1.0,1.2389490999998998,,,,,,,,,,0.0,9.0,9.0,9.0,284.5353836999998,,,,,,,,,,,,,,,,,284.5222980999997,284.88520489999974,285.6848934,285.6703625,,,,,,,,,,,,,,,,,,,,,,,,,,,,,,,,,,,285.67571039999984,285.6848934,285.6848934,286.9365349,b,1.0,1.2389490999998998,,,,,sub-073,1,stroop_test,59.88257027968528,
,,,,10.0,10.0,0.0,,,,,,,,,,,,,gelb,red,r,0.0,r,1.0,1.5195361000000958,,,,,,,,,,0.0,10.0,10.0,8.0,286.9508966999997,,,,,,,,,,,,,,,,,286.9372297,287.3007831,288.1168896999998,288.10163539999985,,,,,,,,,,,,,,,,,,,,,,,,,,,,,,,,,,,288.1025209999998,288.1168896999998,288.1168896999998,289.6515781999997,r,1.0,1.5195361000000958,,,,,sub-073,1,stroop_test,59.88257027968528,
,,,,11.0,11.0,0.0,,,,,,,,,,,,,gelb,yellow,g,1.0,g,1.0,1.4562300000002324,,,,,,,,,,0.0,11.0,11.0,10.0,289.6662477,,,,,,,,,,,,,,,,,289.6522166999998,290.0158220999997,290.8153451999997,290.8001301999998,,,,,,,,,,,,,,,,,,,,,,,,,,,,,,,,,,,290.80085659999986,290.8153451999997,290.8153451999997,292.2831391,g,1.0,1.4562300000002324,,,,,sub-073,1,stroop_test,59.88257027968528,
,,,,12.0,0.0,1.0,,,,,,,,,,,,,rot,yellow,g,0.0,g,1.0,1.079699000000346,,,,,,,,,,1.0,0.0,12.0,3.0,292.2979412999998,,,,,,,,,,,,,,,,,292.2838149999998,293.497116,294.29717359999995,294.28205179999986,,,,,,,,,,,,,,,,,,,,,,,,,,,,,,,,,,,294.28664290000006,294.29717359999995,294.29717359999995,295.38166509999974,g,1.0,1.079699000000346,,,,,sub-073,1,stroop_test,59.88257027968528,
,,,,13.0,1.0,1.0,,,,,,,,,,,,,gelb,red,r,0.0,r,1.0,0.8937556000000768,,,,,,,,,,1.0,1.0,13.0,8.0,295.39615379999987,,,,,,,,,,,,,,,,,295.3822576999996,296.19587679999995,297.01189339999974,296.9967416999998,,,,,,,,,,,,,,,,,,,,,,,,,,,,,,,,,,,297.0019735999999,297.01189339999974,297.01189339999974,297.9144873,r,1.0,0.8937556000000768,,,,,sub-073,1,stroop_test,59.88257027968528,
,,,,14.0,2.0,1.0,,,,,,,,,,,,,rot,red,r,1.0,r,1.0,0.8290403999999398,,,,,,,,,,1.0,2.0,14.0,0.0,297.9281278999997,,,,,,,,,,,,,,,,,297.9151757999998,298.7272203999996,299.5270406999998,299.51237820000006,,,,,,,,,,,,,,,,,,,,,,,,,,,,,,,,,,,299.51781749999964,299.5270406999998,299.5270406999998,300.3627821,r,1.0,0.8290403999999398,,,,,sub-073,1,stroop_test,59.88257027968528,
,,,,15.0,3.0,1.0,,,,,,,,,,,,,gelb,yellow,g,1.0,g,1.0,0.8404740999999376,,,,,,,,,,1.0,3.0,15.0,11.0,300.37651800000003,,,,,,,,,,,,,,,,,300.36349199999995,301.17596639999965,301.9755719,301.96037290000004,,,,,,,,,,,,,,,,,,,,,,,,,,,,,,,,,,,301.96650120000004,301.9755719,301.9755719,302.82770059999984,g,1.0,0.8404740999999376,,,,,sub-073,1,stroop_test,59.88257027968528,
,,,,16.0,4.0,1.0,,,,,,,,,,,,,blau,yellow,g,0.0,g,1.0,0.8315206999996008,,,,,,,,,,1.0,4.0,16.0,7.0,302.8420704,,,,,,,,,,,,,,,,,302.8283545999998,302.94201440000006,303.74129589999984,303.7270656999999,,,,,,,,,,,,,,,,,,,,,,,,,,,,,,,,,,,303.7321614999996,303.74129589999984,303.74129589999984,304.5772167,g,1.0,0.8315206999996008,,,,,sub-073,1,stroop_test,59.88257027968528,
,,,,17.0,5.0,1.0,,,,,,,,,,,,,rot,blue,b,0.0,b,1.0,1.0478539000000635,,,,,,,,,,1.0,5.0,17.0,2.0,304.5905398,,,,,,,,,,,,,,,,,304.5778117,304.69121799999994,305.49036709999973,305.4750040999997,,,,,,,,,,,,,,,,,,,,,,,,,,,,,,,,,,,305.4795492999997,305.49036709999973,305.49036709999973,306.54262470000003,b,1.0,1.0478539000000635,,,,,sub-073,1,stroop_test,59.88257027968528,
,,,,18.0,6.0,1.0,,,,,,,,,,,,,rot,red,r,1.0,r,1.0,0.8684515999998439,,,,,,,,,,1.0,6.0,18.0,1.0,306.5565155999998,,,,,,,,,,,,,,,,,306.5433251999998,307.3562844999997,308.155761,308.1411329999996,,,,,,,,,,,,,,,,,,,,,,,,,,,,,,,,,,,308.1421599999999,308.155761,308.155761,309.0417862999998,r,1.0,0.8684515999998439,,,,,sub-073,1,stroop_test,59.88257027968528,
,,,,19.0,7.0,1.0,,,,,,,,,,,,,gelb,blue,b,0.0,b,1.0,0.9125465000001896,,,,,,,,,,1.0,7.0,19.0,9.0,309.0553092,,,,,,,,,,,,,,,,,309.04250460000003,309.1552236999996,309.9545948,309.93983409999964,,,,,,,,,,,,,,,,,,,,,,,,,,,,,,,,,,,309.9449215999998,309.9545948,309.9545948,310.87226199999986,b,1.0,0.9125465000001896,,,,,sub-073,1,stroop_test,59.88257027968528,
,,,,20.0,8.0,1.0,,,,,,,,,,,,,blau,blue,b,1.0,b,1.0,0.7829686000000038,,,,,,,,,,1.0,8.0,20.0,6.0,310.88765620000004,,,,,,,,,,,,,,,,,310.8727432999999,312.0867027999998,312.8864301999997,312.8715434999999,,,,,,,,,,,,,,,,,,,,,,,,,,,,,,,,,,,312.8768148999998,312.8864301999997,312.8864301999997,313.67338919999975,b,1.0,0.7829686000000038,,,,,sub-073,1,stroop_test,59.88257027968528,
,,,,21.0,9.0,1.0,,,,,,,,,,,,,gelb,yellow,g,1.0,g,1.0,0.8683916999998473,,,,,,,,,,1.0,9.0,21.0,10.0,313.6859449999997,,,,,,,,,,,,,,,,,313.67397789999995,313.7861352,314.5854569999997,314.5706983,,,,,,,,,,,,,,,,,,,,,,,,,,,,,,,,,,,314.5764313999998,314.5854569999997,314.5854569999997,315.47046610000007,g,1.0,0.8683916999998473,,,,,sub-073,1,stroop_test,59.88257027968528,
,,,,22.0,10.0,1.0,,,,,,,,,,,,,blau,blue,b,1.0,b,1.0,0.874163899999985,,,,,,,,,,1.0,10.0,22.0,5.0,315.4850262,,,,,,,,,,,,,,,,,315.4710968999998,315.5850956,316.3844985999999,316.3706121,,,,,,,,,,,,,,,,,,,,,,,,,,,,,,,,,,,316.3767635999998,316.3844985999999,316.3844985999999,317.26904909999985,b,1.0,0.874163899999985,,,,,sub-073,1,stroop_test,59.88257027968528,
,,,,23.0,11.0,1.0,,,,,,,,,,,,,blau,red,r,0.0,r,1.0,0.7115563000002112,,,,,,,,,,1.0,11.0,23.0,4.0,317.2843227999997,,,,,,,,,,,,,,,,,317.26958719999993,318.0837545999998,318.8833977999998,318.8676707,,,,,,,,,,,,,,,,,,,,,,,,,,,,,,,,,,,318.86848299999974,318.8833977999998,318.8833977999998,319.60124210000004,r,1.0,0.7115563000002112,,,,,sub-073,1,stroop_test,59.88257027968528,
,,,,24.0,0.0,2.0,,,,,,,,,,,,,blau,blue,b,1.0,b,1.0,1.039870300000075,,,,,,,,,,2.0,0.0,24.0,6.0,319.6161235999998,,,,,,,,,,,,,,,,,319.6017042999997,320.8153364,321.6148534999997,321.5997487,,,,,,,,,,,,,,,,,,,,,,,,,,,,,,,,,,,321.6004439999997,321.6148534999997,321.6148534999997,322.6671729,b,1.0,1.039870300000075,,,,,sub-073,1,stroop_test,59.88257027968528,
,,,,25.0,1.0,2.0,,,,,,,,,,,,,gelb,yellow,g,1.0,g,1.0,0.9287297000000764,,,,,,,,,,2.0,1.0,25.0,10.0,322.68067840000003,,,,,,,,,,,,,,,,,322.6678466999997,322.781285,323.5804026999999,323.5654077999998,,,,,,,,,,,,,,,,,,,,,,,,,,,,,,,,,,,323.5702409999999,323.5804026999999,323.5804026999999,324.51649180000004,g,1.0,0.9287297000000764,,,,,sub-073,1,stroop_test,59.88257027968528,
,,,,26.0,2.0,2.0,,,,,,,,,,,,,blau,yellow,g,0.0,g,1.0,1.439573599999676,,,,,,,,,,2.0,2.0,26.0,7.0,324.5303832999998,,,,,,,,,,,,,,,,,324.5171071999998,325.3294401999997,326.1292349999999,326.11455449999994,,,,,,,,,,,,,,,,,,,,,,,,,,,,,,,,,,,326.11957029999985,326.1292349999999,326.1292349999999,327.5807139999997,g,1.0,1.439573599999676,,,,,sub-073,1,stroop_test,59.88257027968528,
,,,,27.0,3.0,2.0,,,,,,,,,,,,,gelb,blue,b,0.0,b,1.0,0.7557621999999355,,,,,,,,,,2.0,3.0,27.0,9.0,327.59490609999966,,,,,,,,,,,,,,,,,327.5815554999999,327.9451079999999,328.7610875999999,328.7455852999997,,,,,,,,,,,,,,,,,,,,,,,,,,,,,,,,,,,328.7509748999996,328.7610875999999,328.7610875999999,329.5299028999998,b,1.0,0.7557621999999355,,,,,sub-073,1,stroop_test,59.88257027968528,
,,,,28.0,4.0,2.0,,,,,,,,,,,,,rot,blue,b,0.0,b,1.0,0.9044905000000654,,,,,,,,,,2.0,4.0,28.0,2.0,329.5440368,,,,,,,,,,,,,,,,,329.5304821999998,330.7435250999997,331.54247499999974,331.5278169999997,,,,,,,,,,,,,,,,,,,,,,,,,,,,,,,,,,,331.5328316,331.54247499999974,331.54247499999974,332.46052389999977,b,1.0,0.9044905000000654,,,,,sub-073,1,stroop_test,59.88257027968528,
,,,,29.0,5.0,2.0,,,,,,,,,,,,,rot,red,r,1.0,r,1.0,1.179541800000152,,,,,,,,,,2.0,5.0,29.0,0.0,332.4755771,,,,,,,,,,,,,,,,,332.46118419999993,332.5757359999998,333.37503560000005,333.3595691999999,,,,,,,,,,,,,,,,,,,,,,,,,,,,,,,,,,,333.3604594999997,333.37503560000005,333.37503560000005,334.5597263,r,1.0,1.179541800000152,,,,,sub-073,1,stroop_test,59.88257027968528,
,,,,30.0,6.0,2.0,,,,,,,,,,,,,gelb,red,r,0.0,r,1.0,1.045100100000127,,,,,,,,,,2.0,6.0,30.0,8.0,334.5744786999999,,,,,,,,,,,,,,,,,334.5603667999999,335.7739105999999,336.5736256,336.55734029999985,,,,,,,,,,,,,,,,,,,,,,,,,,,,,,,,,,,336.5619849999998,336.5736256,336.5736256,337.62444989999995,r,1.0,1.045100100000127,,,,,sub-073,1,stroop_test,59.88257027968528,
,,,,31.0,7.0,2.0,,,,,,,,,,,,,blau,red,r,0.0,r,1.0,0.7596877999999379,,,,,,,,,,2.0,7.0,31.0,4.0,337.63972969999986,,,,,,,,,,,,,,,,,337.6250028999998,338.8388437999997,339.6384850999998,339.6225679999998,,,,,,,,,,,,,,,,,,,,,,,,,,,,,,,,,,,339.6268750999998,339.6384850999998,339.6384850999998,340.4072283999999,r,1.0,0.7596877999999379,,,,,sub-073,1,stroop_test,59.88257027968528,
,,,,32.0,8.0,2.0,,,,,,,,,,,,,rot,yellow,g,0.0,g,1.0,0.9292654000000766,,,,,,,,,,2.0,8.0,32.0,3.0,340.4211041999997,,,,,,,,,,,,,,,,,340.4079935999998,341.2211749999997,342.0202163999997,342.0050075999998,,,,,,,,,,,,,,,,,,,,,,,,,,,,,,,,,,,342.01043819999995,342.0202163999997,342.0202163999997,342.95494229999986,g,1.0,0.9292654000000766,,,,,sub-073,1,stroop_test,59.88257027968528,
,,,,33.0,9.0,2.0,,,,,,,,,,,,,rot,red,r,1.0,r,1.0,1.5114207000001445,,,,,,,,,,2.0,9.0,33.0,1.0,342.96988310000006,,,,,,,,,,,,,,,,,342.95556540000007,343.3194807,344.11898999999994,344.10524859999987,,,,,,,,,,,,,,,,,,,,,,,,,,,,,,,,,,,344.10618780000004,344.11898999999994,344.11898999999994,345.6374590999999,r,1.0,1.5114207000001445,,,,,sub-073,1,stroop_test,59.88257027968528,
,,,,34.0,10.0,2.0,,,,,,,,,,,,,blau,blue,b,1.0,b,1.0,1.052647800000159,,,,,,,,,,2.0,10.0,34.0,5.0,345.65132159999985,,,,,,,,,,,,,,,,,345.6380319,346.85090820000005,347.6504176999997,347.6354416999998,,,,,,,,,,,,,,,,,,,,,,,,,,,,,,,,,,,347.64027069999975,347.6504176999997,347.6504176999997,348.7192989,b,1.0,1.052647800000159,,,,,sub-073,1,stroop_test,59.88257027968528,
,,,,35.0,11.0,2.0,,,,,,,,,,,,,gelb,yellow,g,1.0,g,1.0,1.718865000000278,,,,,,,,,,2.0,11.0,35.0,11.0,348.7334867,,,,,,,,,,,,,,,,,348.7198487999999,349.9324901,350.73220139999967,350.71738490000007,,,,,,,,,,,,,,,,,,,,,,,,,,,,,,,,,,,350.7239261999998,350.73220139999967,350.73220139999967,352.4669113,g,1.0,1.718865000000278,,,,,sub-073,1,stroop_test,59.88257027968528,
,,,,36.0,0.0,3.0,,,,,,,,,,,,,blau,blue,b,1.0,b,1.0,0.688784299999952,,,,,,,,,,3.0,0.0,36.0,5.0,352.48137670000006,,,,,,,,,,,,,,,,,352.4676073999999,352.8309237999997,353.6305195,353.615601,,,,,,,,,,,,,,,,,,,,,,,,,,,,,,,,,,,353.6211211,353.6305195,353.6305195,354.3324571999997,b,1.0,0.688784299999952,,,,,sub-073,1,stroop_test,59.88257027968528,
,,,,37.0,1.0,3.0,,,,,,,,,,,,,rot,yellow,g,0.0,g,1.0,0.8627240000000711,,,,,,,,,,3.0,1.0,37.0,3.0,354.34751819999974,,,,,,,,,,,,,,,,,354.3330446,354.4466183999998,355.2462766999997,355.23128339999994,,,,,,,,,,,,,,,,,,,,,,,,,,,,,,,,,,,355.2375078,355.2462766999997,355.2462766999997,356.1142184999999,g,1.0,0.8627240000000711,,,,,sub-073,1,stroop_test,59.88257027968528,
,,,,38.0,2.0,3.0,,,,,,,,,,,,,blau,red,r,0.0,r,1.0,0.7259684999999081,,,,,,,,,,3.0,2.0,38.0,4.0,356.12945360000003,,,,,,,,,,,,,,,,,356.11467790000006,357.3283704999999,358.1281448,358.1137586,,,,,,,,,,,,,,,,,,,,,,,,,,,,,,,,,,,358.1187007999997,358.1281448,358.1281448,358.8638686999998,r,1.0,0.7259684999999081,,,,,sub-073,1,stroop_test,59.88257027968528,
,,,,39.0,3.0,3.0,,,,,,,,,,,,,gelb,yellow,g,1.0,g,1.0,1.2985465000001568,,,,,,,,,,3.0,3.0,39.0,11.0,358.8780398999997,,,,,,,,,,,,,,,,,358.86441399999967,360.07708209999964,360.8764564999997,360.862537,,,,,,,,,,,,,,,,,,,,,,,,,,,,,,,,,,,360.8676759999999,360.8764564999997,360.8764564999997,362.1787519,g,1.0,1.2985465000001568,,,,,sub-073,1,stroop_test,59.88257027968528,
,,,,40.0,4.0,3.0,,,,,,,,,,,,,gelb,blue,b,0.0,b,1.0,0.928211200000078,,,,,,,,,,3.0,4.0,40.0,9.0,362.1922707999997,,,,,,,,,,,,,,,,,362.1793854999996,362.9921145999997,363.7915593999997,363.7761833,,,,,,,,,,,,,,,,,,,,,,,,,,,,,,,,,,,363.7769715,363.7915593999997,363.7915593999997,364.7269489,b,1.0,0.928211200000078,,,,,sub-073,1,stroop_test,59.88257027968528,
,,,,41.0,5.0,3.0,,,,,,,,,,,,,rot,red,r,1.0,r,1.0,0.990121100000124,,,,,,,,,,3.0,5.0,41.0,0.0,364.7411858,,,,,,,,,,,,,,,,,364.7275912999999,365.94027259999984,366.7397375999999,366.7250841,,,,,,,,,,,,,,,,,,,,,,,,,,,,,,,,,,,366.7297129999997,366.7397375999999,366.7397375999999,367.74261149999984,r,1.0,0.990121100000124,,,,,sub-073,1,stroop_test,59.88257027968528,
,,,,42.0,6.0,3.0,,,,,,,,,,,,,blau,blue,b,1.0,b,1.0,1.4753160000000207,,,,,,,,,,3.0,6.0,42.0,6.0,367.75636589999976,,,,,,,,,,,,,,,,,367.7432165,368.9554227999997,369.7550082999997,369.7396817999997,,,,,,,,,,,,,,,,,,,,,,,,,,,,,,,,,,,369.7446837999996,369.7550082999997,369.7550082999997,371.2400960999999,b,1.0,1.4753160000000207,,,,,sub-073,1,stroop_test,59.88257027968528,
,,,,43.0,7.0,3.0,,,,,,,,,,,,,rot,blue,b,0.0,b,1.0,0.6893099999997503,,,,,,,,,,3.0,7.0,43.0,2.0,371.2541186999997,,,,,,,,,,,,,,,,,371.24073659999976,371.6040230999997,372.4035612999997,372.38869099999965,,,,,,,,,,,,,,,,,,,,,,,,,,,,,,,,,,,372.393846,372.4035612999997,372.4035612999997,373.1060064999997,b,1.0,0.6893099999997503,,,,,sub-073,1,stroop_test,59.88257027968528,
,,,,44.0,8.0,3.0,,,,,,,,,,,,,blau,yellow,g,0.0,g,1.0,0.8042832999999519,,,,,,,,,,3.0,8.0,44.0,7.0,373.11985060000006,,,,,,,,,,,,,,,,,373.1066262999998,373.46983759999966,374.2689870999998,374.2550213,,,,,,,,,,,,,,,,,,,,,,,,,,,,,,,,,,,374.2616579000001,374.2689870999998,374.2689870999998,375.0885174,g,1.0,0.8042832999999519,,,,,sub-073,1,stroop_test,59.88257027968528,
,,,,45.0,9.0,3.0,,,,,,,,,,,,,rot,red,r,1.0,r,1.0,0.7339287999998305,,,,,,,,,,3.0,9.0,45.0,1.0,375.1020331,,,,,,,,,,,,,,,,,375.0892749999998,375.90175759999966,376.70129819999966,376.6860486999999,,,,,,,,,,,,,,,,,,,,,,,,,,,,,,,,,,,376.691441,376.70129819999966,376.70129819999966,377.4534767,r,1.0,0.7339287999998305,,,,,sub-073,1,stroop_test,59.88257027968528,
,,,,46.0,10.0,3.0,,,,,,,,,,,,,gelb,red,r,0.0,r,1.0,0.9889923999999156,,,,,,,,,,3.0,10.0,46.0,8.0,377.4677167,,,,,,,,,,,,,,,,,377.4541623,378.2670370999999,379.0667479999997,379.0513735999998,,,,,,,,,,,,,,,,,,,,,,,,,,,,,,,,,,,379.056106,379.0667479999997,379.0667479999997,380.0681685999998,r,1.0,0.9889923999999156,,,,,sub-073,1,stroop_test,59.88257027968528,
,,,,47.0,11.0,3.0,,,,,,,,,,,,,gelb,yellow,g,1.0,g,1.0,0.7718297999999777,,,,,,,,,,3.0,11.0,47.0,10.0,380.0827605999998,,,,,,,,,,,,,,,,,380.0687888999996,380.1824772,380.9821475999997,380.96733289999975,,,,,,,,,,,,,,,,,,,,,,,,,,,,,,,,,,,380.9683424,380.9821475999997,380.9821475999997,381.7683431,g,1.0,0.7718297999999777,,,,,sub-073,1,stroop_test,59.88257027968528,
,,,,48.0,0.0,4.0,,,,,,,,,,,,,blau,blue,b,1.0,b,1.0,0.7732308999998168,,,,,,,,,,4.0,0.0,48.0,5.0,381.7816877,,,,,,,,,,,,,,,,,381.76890269999967,382.9807901999998,383.78033449999975,383.7652757999999,,,,,,,,,,,,,,,,,,,,,,,,,,,,,,,,,,,383.7705211999996,383.78033449999975,383.78033449999975,384.5659028999999,b,1.0,0.7732308999998168,,,,,sub-073,1,stroop_test,59.88257027968528,
,,,,49.0,1.0,4.0,,,,,,,,,,,,,rot,red,r,1.0,r,1.0,0.8103042999996433,,,,,,,,,,4.0,1.0,49.0,0.0,384.5801146999997,,,,,,,,,,,,,,,,,384.5665338999997,384.93024369999966,385.7294708999998,385.7145255999999,,,,,,,,,,,,,,,,,,,,,,,,,,,,,,,,,,,385.7196802999997,385.7294708999998,385.7294708999998,386.5485067999998,r,1.0,0.8103042999996433,,,,,sub-073,1,stroop_test,59.88257027968528,
,,,,50.0,2.0,4.0,,,,,,,,,,,,,rot,yellow,g,0.0,g,1.0,0.7615568000001076,,,,,,,,,,4.0,2.0,50.0,3.0,386.5622608999997,,,,,,,,,,,,,,,,,386.5492239,386.9119115999997,387.71158019999984,387.69694409999966,,,,,,,,,,,,,,,,,,,,,,,,,,,,,,,,,,,387.6979106999997,387.71158019999984,387.71158019999984,388.4803692999999,g,1.0,0.7615568000001076,,,,,sub-073,1,stroop_test,59.88257027968528,
,,,,51.0,3.0,4.0,,,,,,,,,,,,,blau,blue,b,1.0,b,1.0,0.9026592000000164,,,,,,,,,,4.0,3.0,51.0,6.0,388.4947401,,,,,,,,,,,,,,,,,388.4811040999998,388.8447268,389.6439505999997,389.6286922999998,,,,,,,,,,,,,,,,,,,,,,,,,,,,,,,,,,,389.6343494999997,389.6439505999997,389.6439505999997,390.5633155,b,1.0,0.9026592000000164,,,,,sub-073,1,stroop_test,59.88257027968528,
,,,,52.0,4.0,4.0,,,,,,,,,,,,,gelb,yellow,g,1.0,g,1.0,1.2873736999999892,,,,,,,,,,4.0,4.0,52.0,11.0,390.5768595,,,,,,,,,,,,,,,,,390.5641089999999,391.3765349999999,392.1755882999996,392.1607159,,,,,,,,,,,,,,,,,,,,,,,,,,,,,,,,,,,392.1661924,392.1755882999996,392.1755882999996,393.4777049999998,g,1.0,1.2873736999999892,,,,,sub-073,1,stroop_test,59.88257027968528,
,,,,53.0,5.0,4.0,,,,,,,,,,,,,gelb,red,r,0.0,r,1.0,0.6070647999999892,,,,,,,,,,4.0,5.0,53.0,8.0,393.49186169999984,,,,,,,,,,,,,,,,,393.4783291999997,394.29171289999977,395.0910334999999,395.0757820999997,,,,,,,,,,,,,,,,,,,,,,,,,,,,,,,,,,,395.0768155999999,395.0910334999999,395.0910334999999,395.7106853999999,r,1.0,0.6070647999999892,,,,,sub-073,1,stroop_test,59.88257027968528,
,,,,54.0,6.0,4.0,,,,,,,,,,,,,blau,red,r,0.0,r,1.0,0.7469274999998561,,,,,,,,,,4.0,6.0,54.0,4.0,395.7241924,,,,,,,,,,,,,,,,,395.7113405999999,396.5234954999996,397.3227843999998,397.3081960999998,,,,,,,,,,,,,,,,,,,,,,,,,,,,,,,,,,,397.3131903999997,397.3227843999998,397.3227843999998,398.07509869999967,r,1.0,0.7469274999998561,,,,,sub-073,1,stroop_test,59.88257027968528,
,,,,55.0,7.0,4.0,,,,,,,,,,,,,rot,blue,b,0.0,b,1.0,1.0162213000003248,,,,,,,,,,4.0,7.0,55.0,2.0,398.08928769999966,,,,,,,,,,,,,,,,,398.07586850000007,398.1895299999997,398.9888762000001,398.9747420999997,,,,,,,,,,,,,,,,,,,,,,,,,,,,,,,,,,,398.9797509999999,398.9888762000001,398.9888762000001,400.0086320999999,b,1.0,1.0162213000003248,,,,,sub-073,1,stroop_test,59.88257027968528,
,,,,56.0,8.0,4.0,,,,,,,,,,,,,gelb,blue,b,0.0,b,1.0,0.8101442000001953,,,,,,,,,,4.0,8.0,56.0,9.0,400.0219536,,,,,,,,,,,,,,,,,400.0091976999997,401.2209300999998,402.0201555999997,402.0054858999997,,,,,,,,,,,,,,,,,,,,,,,,,,,,,,,,,,,402.01002329999983,402.0201555999997,402.0201555999997,402.8397375,b,1.0,0.8101442000001953,,,,,sub-073,1,stroop_test,59.88257027968528,
,,,,57.0,9.0,4.0,,,,,,,,,,,,,rot,red,r,1.0,r,1.0,1.295005200000105,,,,,,,,,,4.0,9.0,57.0,1.0,402.8536154999997,,,,,,,,,,,,,,,,,402.8403866999997,403.6534220999997,404.45241110000006,404.43811479999977,,,,,,,,,,,,,,,,,,,,,,,,,,,,,,,,,,,404.44355300000007,404.45241110000006,404.45241110000006,405.7549027999999,r,1.0,1.295005200000105,,,,,sub-073,1,stroop_test,59.88257027968528,
,,,,58.0,10.0,4.0,,,,,,,,,,,,,gelb,yellow,g,1.0,g,1.0,0.7483294000003298,,,,,,,,,,4.0,10.0,58.0,10.0,405.7684089999998,,,,,,,,,,,,,,,,,405.7555229,406.56781729999966,407.3672735999999,407.3527652999997,,,,,,,,,,,,,,,,,,,,,,,,,,,,,,,,,,,407.3592257999999,407.3672735999999,407.3672735999999,408.1196802999998,g,1.0,0.7483294000003298,,,,,sub-073,1,stroop_test,59.88257027968528,
,,,,59.0,11.0,4.0,,,,,,,,,,,,,blau,yellow,g,0.0,g,1.0,0.5701991999999336,,,,,,,,,,4.0,11.0,59.0,7.0,408.1338999,,,,,,,,,,,,,,,,,408.1202543999998,408.4838553999998,409.28308389999984,409.2683671,,,,,,,,,,,,,,,,,,,,,,,,,,,,,,,,,,,409.2732117999999,409.28308389999984,409.28308389999984,409.8689746999999,g,1.0,0.5701991999999336,,,,,sub-073,1,stroop_test,59.88257027968528,
,,,,60.0,0.0,5.0,,,,,,,,,,,,,blau,red,r,0.0,r,1.0,1.1168115999998918,,,,,,,,,,5.0,0.0,60.0,4.0,409.88265169999977,,,,,,,,,,,,,,,,,409.8696195999996,410.2327808,411.03239319999966,411.0176345,,,,,,,,,,,,,,,,,,,,,,,,,,,,,,,,,,,411.0186967,411.03239319999966,411.03239319999966,412.1518649,r,1.0,1.1168115999998918,,,,,sub-073,1,stroop_test,59.88257027968528,
,,,,61.0,1.0,5.0,,,,,,,,,,,,,gelb,yellow,g,1.0,g,1.0,1.33099779999975,,,,,,,,,,5.0,1.0,61.0,10.0,412.16467729999977,,,,,,,,,,,,,,,,,412.1525901999999,413.36430100000007,414.163658,414.1493744999998,,,,,,,,,,,,,,,,,,,,,,,,,,,,,,,,,,,414.15509919999977,414.163658,414.163658,415.4994692999999,g,1.0,1.33099779999975,,,,,sub-073,1,stroop_test,59.88257027968528,
,,,,62.0,2.0,5.0,,,,,,,,,,,,,gelb,yellow,g,1.0,g,1.0,0.6490052999997715,,,,,,,,,,5.0,2.0,62.0,11.0,415.5127334999997,,,,,,,,,,,,,,,,,415.5001287999999,415.8627305999999,416.662425,416.6481208,,,,,,,,,,,,,,,,,,,,,,,,,,,,,,,,,,,416.6491084999998,416.662425,416.662425,417.3149306,g,1.0,0.6490052999997715,,,,,sub-073,1,stroop_test,59.88257027968528,
,,,,63.0,3.0,5.0,,,,,,,,,,,,,rot,red,r,1.0,r,1.0,0.6628924000001462,,,,,,,,,,5.0,3.0,63.0,0.0,417.32865969999966,,,,,,,,,,,,,,,,,417.3159805999999,418.528476,419.32753090000006,419.3123882,,,,,,,,,,,,,,,,,,,,,,,,,,,,,,,,,,,419.3183730999999,419.32753090000006,419.32753090000006,419.99650219999967,r,1.0,0.6628924000001462,,,,,sub-073,1,stroop_test,59.88257027968528,
,,,,64.0,4.0,5.0,,,,,,,,,,,,,gelb,red,r,0.0,r,1.0,0.9704965000000813,,,,,,,,,,5.0,4.0,64.0,8.0,420.0107106,,,,,,,,,,,,,,,,,419.9972241999999,420.110169,420.91005049999967,420.8952322,,,,,,,,,,,,,,,,,,,,,,,,,,,,,,,,,,,420.9013969999996,420.91005049999967,420.91005049999967,421.89529859999993,r,1.0,0.9704965000000813,,,,,sub-073,1,stroop_test,59.88257027968528,
,,,,65.0,5.0,5.0,,,,,,,,,,,,,gelb,blue,b,0.0,b,1.0,0.9477811000001566,,,,,,,,,,5.0,5.0,65.0,9.0,421.90945759999977,,,,,,,,,,,,,,,,,421.89607380000007,422.7093092999999,423.50845919999983,423.4938376999999,,,,,,,,,,,,,,,,,,,,,,,,,,,,,,,,,,,423.494514,423.50845919999983,423.50845919999983,424.46004509999966,b,1.0,0.9477811000001566,,,,,sub-073,1,stroop_test,59.88257027968528,
,,,,66.0,6.0,5.0,,,,,,,,,,,,,rot,yellow,g,0.0,g,1.0,1.0240352000000712,,,,,,,,,,5.0,6.0,66.0,3.0,424.4747689000001,,,,,,,,,,,,,,,,,424.4605431,425.2743311999998,426.0739274999996,426.0591064,,,,,,,,,,,,,,,,,,,,,,,,,,,,,,,,,,,426.0651534999997,426.0739274999996,426.0739274999996,427.1094853,g,1.0,1.0240352000000712,,,,,sub-073,1,stroop_test,59.88257027968528,
,,,,67.0,7.0,5.0,,,,,,,,,,,,,blau,blue,b,1.0,b,1.0,0.7980102999999872,,,,,,,,,,5.0,7.0,67.0,5.0,427.1229819999999,,,,,,,,,,,,,,,,,427.1101875999998,427.4732649999996,428.2725433999999,428.2581935999997,,,,,,,,,,,,,,,,,,,,,,,,,,,,,,,,,,,428.2633257999996,428.2725433999999,428.2725433999999,429.0753421,b,1.0,0.7980102999999872,,,,,sub-073,1,stroop_test,59.88257027968528,
,,,,68.0,8.0,5.0,,,,,,,,,,,,,blau,blue,b,1.0,b,1.0,0.7184926999998424,,,,,,,,,,5.0,8.0,68.0,6.0,429.0888961999999,,,,,,,,,,,,,,,,,429.0758985999996,429.888582,430.6879371,430.672658,,,,,,,,,,,,,,,,,,,,,,,,,,,,,,,,,,,430.67351549999967,430.6879371,430.6879371,431.4228896,b,1.0,0.7184926999998424,,,,,sub-073,1,stroop_test,59.88257027968528,
,,,,69.0,9.0,5.0,,,,,,,,,,,,,blau,yellow,g,0.0,g,1.0,0.8022299999997813,,,,,,,,,,5.0,9.0,69.0,7.0,431.4377335999998,,,,,,,,,,,,,,,,,431.4235743999998,432.23707799999966,433.0368202999998,433.0224946999997,,,,,,,,,,,,,,,,,,,,,,,,,,,,,,,,,,,433.0232644999997,433.0368202999998,433.0368202999998,433.8545764999999,g,1.0,0.8022299999997813,,,,,sub-073,1,stroop_test,59.88257027968528,
,,,,70.0,10.0,5.0,,,,,,,,,,,,,rot,blue,b,0.0,b,1.0,0.9486453999998048,,,,,,,,,,5.0,10.0,70.0,2.0,433.86997539999993,,,,,,,,,,,,,,,,,433.85518150000007,434.6693178999999,435.4684649999999,435.4534854999997,,,,,,,,,,,,,,,,,,,,,,,,,,,,,,,,,,,435.4585555999997,435.4684649999999,435.4684649999999,436.42040739999993,b,1.0,0.9486453999998048,,,,,sub-073,1,stroop_test,59.88257027968528,
,,,,71.0,11.0,5.0,,,,,,,,,,,,,rot,red,r,1.0,r,1.0,0.8047672999996394,,,,,,,,,,5.0,11.0,71.0,1.0,436.4348562999999,,,,,,,,,,,,,,,,,436.4210407000001,436.5349548999998,437.3345895999996,437.3210249999997,,,,,,,,,,,,,,,,,,,,,,,,,,,,,,,,,,,437.32208999999966,437.3345895999996,437.3345895999996,438.1530838999997,r,1.0,0.8047672999996394,,,,,sub-073,1,stroop_test,59.88257027968528,
,,,,72.0,0.0,6.0,,,,,,,,,,,,,gelb,blue,b,0.0,b,1.0,0.7412641000000804,,,,,,,,,,6.0,0.0,72.0,9.0,438.1672761,,,,,,,,,,,,,,,,,438.1537906999997,438.5170558,439.3163786,439.3010449999997,,,,,,,,,,,,,,,,,,,,,,,,,,,,,,,,,,,439.3061439999997,439.3163786,439.3163786,440.07029909999983,b,1.0,0.7412641000000804,,,,,sub-073,1,stroop_test,59.88257027968528,
,,,,73.0,1.0,6.0,,,,,,,,,,,,,blau,red,r,0.0,r,1.0,1.0848697999999786,,,,,,,,,,6.0,1.0,73.0,4.0,440.0831906999997,,,,,,,,,,,,,,,,,440.0710199,440.8825367999998,441.6821184,441.6675074,,,,,,,,,,,,,,,,,,,,,,,,,,,,,,,,,,,441.6730107999997,441.6821184,441.6821184,442.7839067,r,1.0,1.0848697999999786,,,,,sub-073,1,stroop_test,59.88257027968528,
,,,,74.0,2.0,6.0,,,,,,,,,,,,,rot,red,r,1.0,r,1.0,0.7202146999998149,,,,,,,,,,6.0,2.0,74.0,1.0,442.7981949999999,,,,,,,,,,,,,,,,,442.7846829999999,442.89804939999976,443.6972455999999,443.6833128999997,,,,,,,,,,,,,,,,,,,,,,,,,,,,,,,,,,,443.6904,443.6972455999999,443.6972455999999,444.4325420999999,r,1.0,0.7202146999998149,,,,,sub-073,1,stroop_test,59.88257027968528,
,,,,75.0,3.0,6.0,,,,,,,,,,,,,gelb,yellow,g,1.0,g,1.0,1.0270039000001816,,,,,,,,,,6.0,3.0,75.0,10.0,444.4470468999998,,,,,,,,,,,,,,,,,444.4330560999997,445.24676610000006,446.0461302999997,446.0308238999996,,,,,,,,,,,,,,,,,,,,,,,,,,,,,,,,,,,446.0353729999997,446.0461302999997,446.0461302999997,447.08068509999976,g,1.0,1.0270039000001816,,,,,sub-073,1,stroop_test,59.88257027968528,
,,,,76.0,4.0,6.0,,,,,,,,,,,,,blau,blue,b,1.0,b,1.0,0.760802600000261,,,,,,,,,,6.0,4.0,76.0,6.0,447.0956148999999,,,,,,,,,,,,,,,,,447.0811524999999,447.89517929999965,448.6946226,448.6791914,,,,,,,,,,,,,,,,,,,,,,,,,,,,,,,,,,,448.6834509,448.6946226,448.6946226,449.4627139999998,b,1.0,0.760802600000261,,,,,sub-073,1,stroop_test,59.88257027968528,
,,,,77.0,5.0,6.0,,,,,,,,,,,,,blau,yellow,g,0.0,g,1.0,1.4757093000002897,,,,,,,,,,6.0,5.0,77.0,7.0,449.47794129999966,,,,,,,,,,,,,,,,,449.46329369999967,450.6773561,451.4766697,451.4620322999999,,,,,,,,,,,,,,,,,,,,,,,,,,,,,,,,,,,451.4629571,451.4766697,451.4766697,452.96265079999966,g,1.0,1.4757093000002897,,,,,sub-073,1,stroop_test,59.88257027968528,
,,,,78.0,6.0,6.0,,,,,,,,,,,,,blau,blue,b,1.0,b,1.0,0.7857634000001781,,,,,,,,,,6.0,6.0,78.0,5.0,452.97593629999983,,,,,,,,,,,,,,,,,452.96334309999975,453.7752823000001,454.5750092999997,454.5595991999999,,,,,,,,,,,,,,,,,,,,,,,,,,,,,,,,,,,454.56047949999993,454.5750092999997,454.5750092999997,455.3774635,b,1.0,0.7857634000001781,,,,,sub-073,1,stroop_test,59.88257027968528,
,,,,79.0,7.0,6.0,,,,,,,,,,,,,gelb,red,r,0.0,r,1.0,0.9851850000000012,,,,,,,,,,6.0,7.0,79.0,8.0,455.3913011999998,,,,,,,,,,,,,,,,,455.37811109999984,455.74081369999976,456.54029809999975,456.5254735999997,,,,,,,,,,,,,,,,,,,,,,,,,,,,,,,,,,,456.5304409999999,456.54029809999975,456.54029809999975,457.5419190999996,r,1.0,0.9851850000000012,,,,,sub-073,1,stroop_test,59.88257027968528,
,,,,80.0,8.0,6.0,,,,,,,,,,,,,rot,blue,b,0.0,b,1.0,0.9966967000000296,,,,,,,,,,6.0,8.0,80.0,2.0,457.5565867999999,,,,,,,,,,,,,,,,,457.5425986,458.3563251999999,459.1555694999997,459.1409736999999,,,,,,,,,,,,,,,,,,,,,,,,,,,,,,,,,,,459.14621959999977,459.1555694999997,459.1555694999997,460.1582626999998,b,1.0,0.9966967000000296,,,,,sub-073,1,stroop_test,59.88257027968528,
,,,,81.0,9.0,6.0,,,,,,,,,,,,,gelb,yellow,g,1.0,g,1.0,1.012040099999922,,,,,,,,,,6.0,9.0,81.0,11.0,460.1720538999998,,,,,,,,,,,,,,,,,460.1588257999997,460.2715177999999,461.0711355999997,461.0567861999998,,,,,,,,,,,,,,,,,,,,,,,,,,,,,,,,,,,461.0627611,461.0711355999997,461.0711355999997,462.0898748999998,g,1.0,1.012040099999922,,,,,sub-073,1,stroop_test,59.88257027968528,
,,,,82.0,10.0,6.0,,,,,,,,,,,,,rot,yellow,g,0.0,g,1.0,0.6420508999999583,,,,,,,,,,6.0,10.0,82.0,3.0,462.1040671999999,,,,,,,,,,,,,,,,,462.09045190000006,462.4543644,463.2532913,463.2389315,,,,,,,,,,,,,,,,,,,,,,,,,,,,,,,,,,,463.2444787999998,463.2532913,463.2532913,463.9049909999999,g,1.0,0.6420508999999583,,,,,sub-073,1,stroop_test,59.88257027968528,
,,,,83.0,11.0,6.0,,,,,,,,,,,,,rot,red,r,1.0,r,1.0,0.7862876999997752,,,,,,,,,,6.0,11.0,83.0,0.0,463.9201273999997,,,,,,,,,,,,,,,,,463.9056010999998,464.7194967999999,465.51908719999983,465.5037605999996,,,,,,,,,,,,,,,,,,,,,,,,,,,,,,,,,,,465.50473779999993,465.51908719999983,465.51908719999983,466.3208052999999,r,1.0,0.7862876999997752,,,,,sub-073,1,stroop_test,59.88257027968528,
,,,,84.0,0.0,7.0,,,,,,,,,,,,,gelb,yellow,g,1.0,g,1.0,0.6101158000001305,,,,,,,,,,7.0,0.0,84.0,11.0,466.3347354999996,,,,,,,,,,,,,,,,,466.321332,466.4350946,467.2342964,467.219638,,,,,,,,,,,,,,,,,,,,,,,,,,,,,,,,,,,467.2244169000001,467.2342964,467.2342964,467.853462,g,1.0,0.6101158000001305,,,,,sub-073,1,stroop_test,59.88257027968528,
,,,,85.0,1.0,7.0,,,,,,,,,,,,,blau,blue,b,1.0,b,1.0,0.580961500000285,,,,,,,,,,7.0,1.0,85.0,6.0,467.8675137,,,,,,,,,,,,,,,,,467.8542155,467.9677254999997,468.7669034999999,468.7519567999998,,,,,,,,,,,,,,,,,,,,,,,,,,,,,,,,,,,468.75732359999984,468.7669034999999,468.7669034999999,469.3529558,b,1.0,0.580961500000285,,,,,sub-073,1,stroop_test,59.88257027968528,
,,,,86.0,2.0,7.0,,,,,,,,,,,,,rot,yellow,g,0.0,g,1.0,0.8131553999996868,,,,,,,,,,7.0,2.0,86.0,3.0,469.3665587999999,,,,,,,,,,,,,,,,,469.3536055,469.7166223999998,470.5158747999999,470.50120149999975,,,,,,,,,,,,,,,,,,,,,,,,,,,,,,,,,,,470.506296,470.5158747999999,470.5158747999999,471.3338945,g,1.0,0.8131553999996868,,,,,sub-073,1,stroop_test,59.88257027968528,
,,,,87.0,3.0,7.0,,,,,,,,,,,,,gelb,red,r,0.0,r,1.0,0.7822894000000815,,,,,,,,,,7.0,3.0,87.0,8.0,471.3489786,,,,,,,,,,,,,,,,,471.33441349999976,472.5484956,473.3477647,473.3331925999996,,,,,,,,,,,,,,,,,,,,,,,,,,,,,,,,,,,473.33917219999967,473.3477647,473.3477647,474.1334265999999,r,1.0,0.7822894000000815,,,,,sub-073,1,stroop_test,59.88257027968528,
,,,,88.0,4.0,7.0,,,,,,,,,,,,,blau,yellow,g,0.0,g,1.0,1.947371799999928,,,,,,,,,,7.0,4.0,88.0,7.0,474.1474644,,,,,,,,,,,,,,,,,474.13413390000005,474.49732079999967,475.2965605,475.2811371999997,,,,,,,,,,,,,,,,,,,,,,,,,,,,,,,,,,,475.2863729999999,475.2965605,475.2965605,477.2484863999998,g,1.0,1.947371799999928,,,,,sub-073,1,stroop_test,59.88257027968528,
,,,,89.0,5.0,7.0,,,,,,,,,,,,,rot,blue,b,0.0,b,1.0,0.7707319000001007,,,,,,,,,,7.0,5.0,89.0,2.0,477.2625054999999,,,,,,,,,,,,,,,,,477.2492350999996,477.61229939999976,478.4118086999997,478.3967012999997,,,,,,,,,,,,,,,,,,,,,,,,,,,,,,,,,,,478.4010506,478.4118086999997,478.4118086999997,479.19775409999966,b,1.0,0.7707319000001007,,,,,sub-073,1,stroop_test,59.88257027968528,
,,,,90.0,6.0,7.0,,,,,,,,,,,,,rot,red,r,1.0,r,1.0,1.031043899999986,,,,,,,,,,7.0,6.0,90.0,0.0,479.21122609999975,,,,,,,,,,,,,,,,,479.1983393,480.0108221999999,480.8105584,480.79542409999976,,,,,,,,,,,,,,,,,,,,,,,,,,,,,,,,,,,480.7963953999997,480.8105584,480.8105584,481.8457438,r,1.0,1.031043899999986,,,,,sub-073,1,stroop_test,59.88257027968528,
,,,,91.0,7.0,7.0,,,,,,,,,,,,,rot,red,r,1.0,r,1.0,1.1111574000001383,,,,,,,,,,7.0,7.0,91.0,1.0,481.8595219999997,,,,,,,,,,,,,,,,,481.8462881,482.2094149999998,483.0091115,482.99414739999975,,,,,,,,,,,,,,,,,,,,,,,,,,,,,,,,,,,482.9950967,483.0091115,483.0091115,484.12688869999965,r,1.0,1.1111574000001383,,,,,sub-073,1,stroop_test,59.88257027968528,
,,,,92.0,8.0,7.0,,,,,,,,,,,,,gelb,blue,b,0.0,b,1.0,1.0352451000003384,,,,,,,,,,7.0,8.0,92.0,9.0,484.1420782,,,,,,,,,,,,,,,,,484.12754529999984,484.2418353999997,485.04118530000005,485.0260681999998,,,,,,,,,,,,,,,,,,,,,,,,,,,,,,,,,,,485.0317571000001,485.04118530000005,485.04118530000005,486.0936004999999,b,1.0,1.0352451000003384,,,,,sub-073,1,stroop_test,59.88257027968528,
,,,,93.0,9.0,7.0,,,,,,,,,,,,,gelb,yellow,g,1.0,g,1.0,0.6588709999996354,,,,,,,,,,7.0,9.0,93.0,10.0,486.1076648999997,,,,,,,,,,,,,,,,,486.0942215999999,486.20764599999984,487.0070086999999,486.9931045999997,,,,,,,,,,,,,,,,,,,,,,,,,,,,,,,,,,,486.9942302,487.0070086999999,487.0070086999999,487.6749797999996,g,1.0,0.6588709999996354,,,,,sub-073,1,stroop_test,59.88257027968528,
,,,,94.0,10.0,7.0,,,,,,,,,,,,,blau,blue,b,1.0,b,1.0,1.8539682999999056,,,,,,,,,,7.0,10.0,94.0,5.0,487.6900078999997,,,,,,,,,,,,,,,,,487.6755272999999,488.8890637999998,489.6886136999997,489.6738140999996,,,,,,,,,,,,,,,,,,,,,,,,,,,,,,,,,,,489.6779182,489.6886136999997,489.6886136999997,491.55709979999983,b,1.0,1.8539682999999056,,,,,sub-073,1,stroop_test,59.88257027968528,
,,,,95.0,11.0,7.0,,,,,,,,,,,,,blau,red,r,0.0,r,1.0,0.8518820999997843,,,,,,,,,,7.0,11.0,95.0,4.0,491.5706789999999,,,,,,,,,,,,,,,,,491.5577917999999,491.671265,492.4704333,492.4551738999999,,,,,,,,,,,,,,,,,,,,,,,,,,,,,,,,,,,492.4560223999997,492.4704333,492.4704333,493.3401228999997,r,1.0,0.8518820999997843,,,,,sub-073,1,stroop_test,59.88257027968528,
,,,,96.0,0.0,8.0,,,,,,,,,,,,,rot,red,r,1.0,r,1.0,0.7589646999999786,,,,,,,,,,8.0,0.0,96.0,0.0,493.35353159999977,,,,,,,,,,,,,,,,,493.3408022999997,493.7035578,494.5027719,494.4884643,,,,,,,,,,,,,,,,,,,,,,,,,,,,,,,,,,,494.4930371999999,494.5027719,494.5027719,495.2716876999998,r,1.0,0.7589646999999786,,,,,sub-073,1,stroop_test,59.88257027968528,
,,,,97.0,1.0,8.0,,,,,,,,,,,,,gelb,blue,b,0.0,b,1.0,1.410167300000012,,,,,,,,,,8.0,1.0,97.0,9.0,495.2858547999999,,,,,,,,,,,,,,,,,495.27242929999966,496.4851018999998,497.2845459,497.2703161999998,,,,,,,,,,,,,,,,,,,,,,,,,,,,,,,,,,,497.2764551,497.2845459,497.2845459,498.7015161,b,1.0,1.410167300000012,,,,,sub-073,1,stroop_test,59.88257027968528,
,,,,98.0,2.0,8.0,,,,,,,,,,,,,gelb,yellow,g,1.0,g,1.0,0.9005114000001413,,,,,,,,,,8.0,2.0,98.0,11.0,498.7165691,,,,,,,,,,,,,,,,,498.7019671999997,498.81680030000007,499.6169648999999,499.6021114,,,,,,,,,,,,,,,,,,,,,,,,,,,,,,,,,,,499.60311,499.6169648999999,499.6169648999999,500.5344025,g,1.0,0.9005114000001413,,,,,sub-073,1,stroop_test,59.88257027968528,
,,,,99.0,3.0,8.0,,,,,,,,,,,,,blau,red,r,0.0,r,1.0,1.0604001000001515,,,,,,,,,,8.0,3.0,99.0,4.0,500.5495361999997,,,,,,,,,,,,,,,,,500.5350340999999,500.8995298,501.6987559999998,501.6836423999998,,,,,,,,,,,,,,,,,,,,,,,,,,,,,,,,,,,501.6886248999999,501.6987559999998,501.6987559999998,502.7665683999999,r,1.0,1.0604001000001515,,,,,sub-073,1,stroop_test,59.88257027968528,
,,,,100.0,4.0,8.0,,,,,,,,,,,,,gelb,red,r,0.0,r,1.0,0.7211667000001398,,,,,,,,,,8.0,4.0,100.0,8.0,502.781414,,,,,,,,,,,,,,,,,502.7671848,503.9809802999998,504.7799691999999,504.7652804999998,,,,,,,,,,,,,,,,,,,,,,,,,,,,,,,,,,,504.77117869999984,504.7799691999999,504.7799691999999,505.5156121,r,1.0,0.7211667000001398,,,,,sub-073,1,stroop_test,59.88257027968528,
,,,,101.0,5.0,8.0,,,,,,,,,,,,,blau,blue,b,1.0,b,1.0,1.2542551000001367,,,,,,,,,,8.0,5.0,101.0,6.0,505.5300368999997,,,,,,,,,,,,,,,,,505.5160931,505.63000299999976,506.4292489,506.4144054999997,,,,,,,,,,,,,,,,,,,,,,,,,,,,,,,,,,,506.4200940999999,506.4292489,506.4292489,507.69931849999966,b,1.0,1.2542551000001367,,,,,sub-073,1,stroop_test,59.88257027968528,
,,,,102.0,6.0,8.0,,,,,,,,,,,,,rot,yellow,g,0.0,g,1.0,1.017726699999912,,,,,,,,,,8.0,6.0,102.0,3.0,507.7119740999997,,,,,,,,,,,,,,,,,507.6999650999997,508.0617634,508.8613028,508.8457672999998,,,,,,,,,,,,,,,,,,,,,,,,,,,,,,,,,,,508.8492744999999,508.8613028,508.8613028,509.8822662999996,g,1.0,1.017726699999912,,,,,sub-073,1,stroop_test,59.88257027968528,
,,,,103.0,7.0,8.0,,,,,,,,,,,,,gelb,yellow,g,1.0,g,1.0,0.6332446000001255,,,,,,,,,,8.0,7.0,103.0,10.0,509.8945943999997,,,,,,,,,,,,,,,,,509.88286199999993,510.2440185999999,511.0436212,511.0289601999998,,,,,,,,,,,,,,,,,,,,,,,,,,,,,,,,,,,511.03426599999966,511.0436212,511.0436212,511.6803593999998,g,1.0,0.6332446000001255,,,,,sub-073,1,stroop_test,59.88257027968528,
,,,,104.0,8.0,8.0,,,,,,,,,,,,,blau,yellow,g,0.0,g,1.0,0.6905114000001049,,,,,,,,,,8.0,8.0,104.0,7.0,511.6930233999997,,,,,,,,,,,,,,,,,511.6810716,512.4933424999999,513.2924679999996,513.2773721999997,,,,,,,,,,,,,,,,,,,,,,,,,,,,,,,,,,,513.2824968,513.2924679999996,513.2924679999996,513.9946322000001,g,1.0,0.6905114000001049,,,,,sub-073,1,stroop_test,59.88257027968528,
,,,,105.0,9.0,8.0,,,,,,,,,,,,,rot,red,r,1.0,r,1.0,0.6749580000000606,,,,,,,,,,8.0,9.0,105.0,1.0,514.0085856000001,,,,,,,,,,,,,,,,,513.9953495,514.1086498,514.9079924999996,514.8933078,,,,,,,,,,,,,,,,,,,,,,,,,,,,,,,,,,,514.8983015999997,514.9079924999996,514.9079924999996,515.5925647999998,r,1.0,0.6749580000000606,,,,,sub-073,1,stroop_test,59.88257027968528,
,,,,106.0,10.0,8.0,,,,,,,,,,,,,blau,blue,b,1.0,b,1.0,0.867028599999685,,,,,,,,,,8.0,10.0,106.0,5.0,515.6078172999996,,,,,,,,,,,,,,,,,515.5931375,515.7077130999996,516.5073110999997,516.4924216999998,,,,,,,,,,,,,,,,,,,,,,,,,,,,,,,,,,,516.4978867999998,516.5073110999997,516.5073110999997,517.3777064999999,b,1.0,0.867028599999685,,,,,sub-073,1,stroop_test,59.88257027968528,
,,,,107.0,11.0,8.0,,,,,,,,,,,,,rot,blue,b,0.0,b,1.0,0.694525700000213,,,,,,,,,,8.0,11.0,107.0,2.0,517.3900878999998,,,,,,,,,,,,,,,,,517.3784569,518.1901475999998,518.9892200999998,518.9751289999999,,,,,,,,,,,,,,,,,,,,,,,,,,,,,,,,,,,518.9801611999997,518.9892200999998,518.9892200999998,519.6911022999998,b,1.0,0.694525700000213,,,,,sub-073,1,stroop_test,59.88257027968528,
,,,,108.0,0.0,9.0,,,,,,,,,,,,,blau,blue,b,1.0,b,1.0,0.5392542999998113,,,,,,,,,,9.0,0.0,108.0,6.0,519.7053240999999,,,,,,,,,,,,,,,,,519.6917556999997,519.8054457999997,520.6046511999998,520.5904725,,,,,,,,,,,,,,,,,,,,,,,,,,,,,,,,,,,520.5954855,520.6046511999998,520.6046511999998,521.1569553999998,b,1.0,0.5392542999998113,,,,,sub-073,1,stroop_test,59.88257027968528,
,,,,109.0,1.0,9.0,,,,,,,,,,,,,rot,red,r,1.0,r,1.0,0.8395540000001347,,,,,,,,,,9.0,1.0,109.0,1.0,521.1712066999999,,,,,,,,,,,,,,,,,521.1575808999996,521.5211934999998,522.3207158999999,522.3061112,,,,,,,,,,,,,,,,,,,,,,,,,,,,,,,,,,,522.3118443999997,522.3207158999999,522.3207158999999,523.1732238,r,1.0,0.8395540000001347,,,,,sub-073,1,stroop_test,59.88257027968528,
,,,,110.0,2.0,9.0,,,,,,,,,,,,,blau,red,r,0.0,r,1.0,0.9807854000000588,,,,,,,,,,9.0,2.0,110.0,4.0,523.1867585,,,,,,,,,,,,,,,,,523.1739776,523.2873427,524.0862207999999,524.0717280999997,,,,,,,,,,,,,,,,,,,,,,,,,,,,,,,,,,,524.0772404999998,524.0862207999999,524.0862207999999,525.0713409999998,r,1.0,0.9807854000000588,,,,,sub-073,1,stroop_test,59.88257027968528,
,,,,111.0,3.0,9.0,,,,,,,,,,,,,rot,yellow,g,0.0,g,1.0,1.2155903999996551,,,,,,,,,,9.0,3.0,111.0,3.0,525.0859960999996,,,,,,,,,,,,,,,,,525.0719681,525.1859049,525.9850283999999,525.9708529,,,,,,,,,,,,,,,,,,,,,,,,,,,,,,,,,,,525.9763211,525.9850283999999,525.9850283999999,527.2046617999999,g,1.0,1.2155903999996551,,,,,sub-073,1,stroop_test,59.88257027968528,
,,,,112.0,4.0,9.0,,,,,,,,,,,,,gelb,yellow,g,1.0,g,1.0,0.6610367999996924,,,,,,,,,,9.0,4.0,112.0,10.0,527.2180632999998,,,,,,,,,,,,,,,,,527.2052102999996,528.4176106,529.2168167,529.2027097,,,,,,,,,,,,,,,,,,,,,,,,,,,,,,,,,,,529.2082731,529.2168167,529.2168167,529.8855524,g,1.0,0.6610367999996924,,,,,sub-073,1,stroop_test,59.88257027968528,
,,,,113.0,5.0,9.0,,,,,,,,,,,,,gelb,red,r,0.0,r,1.0,0.783964300000207,,,,,,,,,,9.0,5.0,113.0,8.0,529.8997150999999,,,,,,,,,,,,,,,,,529.8861423999997,530.2499421999996,531.0489608999997,531.0347108999999,,,,,,,,,,,,,,,,,,,,,,,,,,,,,,,,,,,531.0356512999997,531.0489608999997,531.0489608999997,531.8355078999998,r,1.0,0.783964300000207,,,,,sub-073,1,stroop_test,59.88257027968528,
,,,,114.0,6.0,9.0,,,,,,,,,,,,,blau,yellow,g,0.0,g,1.0,0.7069452999999157,,,,,,,,,,9.0,6.0,114.0,7.0,531.8488207,,,,,,,,,,,,,,,,,531.8360995999997,532.6487063999998,533.4475954,533.4329687999998,,,,,,,,,,,,,,,,,,,,,,,,,,,,,,,,,,,533.4373581999998,533.4475954,533.4475954,534.1673888,g,1.0,0.7069452999999157,,,,,sub-073,1,stroop_test,59.88257027968528,
,,,,115.0,7.0,9.0,,,,,,,,,,,,,gelb,blue,b,0.0,b,1.0,0.4980284000002939,,,,,,,,,,9.0,7.0,115.0,9.0,534.1807915999998,,,,,,,,,,,,,,,,,534.1680862999997,534.9808847999998,535.7801680999996,535.7651250999998,,,,,,,,,,,,,,,,,,,,,,,,,,,,,,,,,,,535.7710597999999,535.7801680999996,535.7801680999996,536.2826240999998,b,1.0,0.4980284000002939,,,,,sub-073,1,stroop_test,59.88257027968528,
,,,,116.0,8.0,9.0,,,,,,,,,,,,,gelb,yellow,g,1.0,g,1.0,1.5565541000000849,,,,,,,,,,9.0,8.0,116.0,11.0,536.2962603999999,,,,,,,,,,,,,,,,,536.2832119,537.0959869999997,537.8953753999999,537.8805606999999,,,,,,,,,,,,,,,,,,,,,,,,,,,,,,,,,,,537.8814829999997,537.8953753999999,537.8953753999999,539.4645562999999,g,1.0,1.5565541000000849,,,,,sub-073,1,stroop_test,59.88257027968528,
,,,,117.0,9.0,9.0,,,,,,,,,,,,,blau,blue,b,1.0,b,1.0,0.7860894999998891,,,,,,,,,,9.0,9.0,117.0,5.0,539.4780077999999,,,,,,,,,,,,,,,,,539.4652255999999,540.6773343999998,541.4769621999999,541.4625219999998,,,,,,,,,,,,,,,,,,,,,,,,,,,,,,,,,,,541.4683731,541.4769621999999,541.4769621999999,542.2788545999997,b,1.0,0.7860894999998891,,,,,sub-073,1,stroop_test,59.88257027968528,
,,,,118.0,10.0,9.0,,,,,,,,,,,,,rot,blue,b,0.0,b,1.0,0.6240164000000732,,,,,,,,,,9.0,10.0,118.0,2.0,542.2929111999997,,,,,,,,,,,,,,,,,542.2794979,543.0927443999999,543.8921502999997,543.8766178999999,,,,,,,,,,,,,,,,,,,,,,,,,,,,,,,,,,,543.8799621999997,543.8921502999997,543.8921502999997,544.5284065999999,b,1.0,0.6240164000000732,,,,,sub-073,1,stroop_test,59.88257027968528,
,,,,119.0,11.0,9.0,,,,,,,,,,,,,rot,red,r,1.0,r,1.0,1.1009870000002593,,,,,,,,,,9.0,11.0,119.0,0.0,544.5420999999997,,,,,,,,,,,,,,,,,544.5291413999998,544.8914848999998,545.6912067999997,545.6766115999999,,,,,,,,,,,,,,,,,,,,,,,,,,,,,,,,,,,545.6773542999999,545.6912067999997,545.6912067999997,546.8101763,r,1.0,1.1009870000002593,,,,,sub-073,1,stroop_test,59.88257027968528,
,,,,,,,,,,,,,,,,,,,,,,,,,,,,,,,,,,,,,,,,,,,,,,,,,,,,,,,,,,,,,,,,,,,,,,,,,,,,,,,,,,,,,,,,,,,,,,,,,,,,,,546.8104703999998,546.8240317,551.8219055999998,sub-073,1,stroop_test,59.88257027968528,
