wordCTK,colorCTK,corrAnsCTK,congruentCTK,thisN,thisTrialN,thisRepN,keyResp_CTK.keys,keyResp_CTK.corr,keyResp_CTK.rt,keyResp_CTK.duration,wordPractice,colorPractice,corrAnsPractice,congruentPractice,respPractice.keys,respPractice.corr,respPractice.rt,respPractice.duration,word,color,corrAns,congruent,keyResp_test_run.keys,keyResp_test_run.corr,keyResp_test_run.rt,keyResp_test_run.duration,trials_CTK.thisRepN,trials_CTK.thisTrialN,trials_CTK.thisN,trials_CTK.thisIndex,trials_practice.thisRepN,trials_practice.thisTrialN,trials_practice.thisN,trials_practice.thisIndex,trials_test.thisRepN,trials_test.thisTrialN,trials_test.thisN,trials_test.thisIndex,thisRow.t,notes,instruction.started,instr_text.started,instr_image.started,instr_resp.started,instruction.stopped,instr_resp.keys,instr_resp.rt,instr_resp.duration,instr_color_to_key.started,instr_ctk.started,resp_ctk.started,instr_color_to_key.stopped,resp_ctk.keys,resp_ctk.rt,resp_ctk.duration,ITI.started,fixcross.started,fixcross.stopped,ITI.stopped,color_to_key_run.started,stimulus_CTK.started,keyResp_CTK.started,color_to_key_run.stopped,trials_CTK.keyResp_CTK.keys,trials_CTK.keyResp_CTK.corr,trials_CTK.keyResp_CTK.rt,trials_CTK.keyResp_CTK.duration,instr_practice.started,instr_practice_text.started,instr_practice_resp.started,instr_practice.stopped,instr_practice_resp.keys,instr_practice_resp.rt,instr_practice_resp.duration,practice_run.started,stimulus_practice.started,respPractice.started,practice_run.stopped,trials_practice.respPractice.keys,trials_practice.respPractice.corr,trials_practice.respPractice.rt,trials_practice.respPractice.duration,feedback.started,textFeedback.started,textFeedback.stopped,feedback.stopped,instr_test.started,instr_test_text.started,instr_test_resp.started,instr_test.stopped,instr_test_resp.keys,instr_test_resp.rt,instr_test_resp.duration,test_run.started,stimulus_test_run.started,keyResp_test_run.started,test_run.stopped,trials_test.keyResp_test_run.keys,trials_test.keyResp_test_run.corr,trials_test.keyResp_test_run.rt,trials_test.keyResp_test_run.duration,goodbye.started,textGoodbye.started,textGoodbye.stopped,goodbye.stopped,participant,session,expName,frameRate,Unnamed: 113
,,,,,,,,,,,,,,,,,,,,,,,,,,,,,,,,,,,,,,,,,0.0016613000188954,0.0444735000492073,0.0444735000492073,0.0444735000492073,39.202487600035965,space,39.12275320000481,,,,,,,,,,,,,,,,,,,,,,,,,,,,,,,,,,,,,,,,,,,,,,,,,,,,,,,,,,,sub-146,1,stroop_test,60.091603652556095,
,,,,,,,,,,,,,,,,,,,,,,,,,,,,,,,,,,,,,,,,,,,,,,,,,39.202535600052215,39.20560950000072,39.20560950000072,44.75584150000941,space,5.543904800026212,,,,,,,,,,,,,,,,,,,,,,,,,,,,,,,,,,,,,,,,,,,,,,,,,,,,sub-146,1,stroop_test,60.091603652556095,
test,red,r,1.0,0.0,0.0,0.0,r,1.0,1.0194498000200838,,,,,,,,,,,,,,,,,,0.0,0.0,0.0,0.0,,,,,,,,,44.7790542000439,,,,,,,,,,,,,,,,,44.77710860001389,45.95535560004646,46.75531510001747,46.738881800032686,46.74351120000938,46.75531510001747,46.75531510001747,47.78964280005312,r,1.0,1.0194498000200838,,,,,,,,,,,,,,,,,,,,,,,,,,,,,,,,,,,,,,,,sub-146,1,stroop_test,60.091603652556095,
test,yellow,g,1.0,1.0,1.0,0.0,g,1.0,2.287890200037509,,,,,,,,,,,,,,,,,,0.0,1.0,1.0,1.0,,,,,,,,,47.8051809000317,,,,,,,,,,,,,,,,,47.78982100001304,47.90521270001773,48.70491520001087,48.68875840003602,48.68898400000762,48.70491520001087,48.70491520001087,51.005752000026405,g,1.0,2.287890200037509,,,,,,,,,,,,,,,,,,,,,,,,,,,,,,,,,,,,,,,,sub-146,1,stroop_test,60.091603652556095,
test,blue,b,1.0,2.0,2.0,0.0,b,1.0,0.3955641000065952,,,,,,,,,,,,,,,,,,0.0,2.0,2.0,2.0,,,,,,,,,51.02201980003156,,,,,,,,,,,,,,,,,51.00593110005138,51.35524580004858,52.15497510001296,52.13865150004858,52.13890000001993,52.15497510001296,52.15497510001296,52.55589590000454,b,1.0,0.3955641000065952,,,,,,,,,,,,,,,,,,,,,,,,,,,,,,,,,,,,,,,,sub-146,1,stroop_test,60.091603652556095,
test,yellow,g,1.0,3.0,0.0,1.0,g,1.0,0.8921110999654047,,,,,,,,,,,,,,,,,,1.0,0.0,3.0,1.0,,,,,,,,,52.57186340005137,,,,,,,,,,,,,,,,,52.55606220004847,53.355307100049686,54.15497580001829,54.13896830001613,54.13918240001658,54.15497580001829,54.15497580001829,55.05612290004501,g,1.0,0.8921110999654047,,,,,,,,,,,,,,,,,,,,,,,,,,,,,,,,,,,,,,,,sub-146,1,stroop_test,60.091603652556095,
test,red,r,1.0,4.0,1.0,1.0,r,1.0,0.4836669000214897,,,,,,,,,,,,,,,,,,1.0,1.0,4.0,0.0,,,,,,,,,55.071614300017245,,,,,,,,,,,,,,,,,55.05637960002059,55.15506830002414,55.955193000030704,55.93916140001966,55.93950070004212,55.955193000030704,55.955193000030704,56.45587700000033,r,1.0,0.4836669000214897,,,,,,,,,,,,,,,,,,,,,,,,,,,,,,,,,,,,,,,,sub-146,1,stroop_test,60.091603652556095,
test,blue,b,1.0,5.0,2.0,1.0,b,1.0,0.3500902999658137,,,,,,,,,,,,,,,,,,1.0,2.0,5.0,2.0,,,,,,,,,56.47163250000449,,,,,,,,,,,,,,,,,56.45603100000881,56.5552774000098,57.35510410001734,57.33883020002395,57.339048699999694,57.35510410001734,57.35510410001734,57.70703780004988,b,1.0,0.3500902999658137,,,,,,,,,,,,,,,,,,,,,,,,,,,,,,,,,,,,,,,,sub-146,1,stroop_test,60.091603652556095,
test,blue,b,1.0,6.0,0.0,2.0,b,1.0,0.5493762000114657,,,,,,,,,,,,,,,,,,2.0,0.0,6.0,2.0,,,,,,,,,57.72182430000976,,,,,,,,,,,,,,,,,57.70722410001326,58.52183890005108,59.321687300049234,59.30566660000477,59.30602160003036,59.321687300049234,59.321687300049234,59.87275030004093,b,1.0,0.5493762000114657,,,,,,,,,,,,,,,,,,,,,,,,,,,,,,,,,,,,,,,,sub-146,1,stroop_test,60.091603652556095,
test,yellow,g,1.0,7.0,1.0,2.0,g,1.0,0.8747911999817006,,,,,,,,,,,,,,,,,,2.0,1.0,7.0,1.0,,,,,,,,,59.88824060000479,,,,,,,,,,,,,,,,,59.872982700006105,61.07177480001701,61.87186060001841,61.85556600004202,61.85580760001904,61.87186060001841,61.87186060001841,62.755373000050895,g,1.0,0.8747911999817006,,,,,,,,,,,,,,,,,,,,,,,,,,,,,,,,,,,,,,,,sub-146,1,stroop_test,60.091603652556095,
test,red,r,1.0,8.0,2.0,2.0,r,1.0,0.3493588999845087,,,,,,,,,,,,,,,,,,2.0,2.0,8.0,0.0,,,,,,,,,62.77137349999976,,,,,,,,,,,,,,,,,62.75554199999897,63.55521570000565,64.35503500001505,64.33850090001943,64.338718300045,64.35503500001505,64.35503500001505,64.70559590001358,r,1.0,0.3493588999845087,,,,,,,,,,,,,,,,,,,,,,,,,,,,,,,,,,,,,,,,sub-146,1,stroop_test,60.091603652556095,
test,blue,b,1.0,9.0,0.0,3.0,b,1.0,0.4813255000044592,,,,,,,,,,,,,,,,,,3.0,0.0,9.0,2.0,,,,,,,,,64.7215008000494,,,,,,,,,,,,,,,,,64.70574820000911,65.05499050003709,65.85473710001679,65.838745200017,65.8392606000416,65.85473710001679,65.85473710001679,66.33854320005048,b,1.0,0.4813255000044592,,,,,,,,,,,,,,,,,,,,,,,,,,,,,,,,,,,,,,,,sub-146,1,stroop_test,60.091603652556095,
test,red,r,1.0,10.0,1.0,3.0,r,1.0,0.4970805000048131,,,,,,,,,,,,,,,,,,3.0,1.0,10.0,0.0,,,,,,,,,66.3548953999998,,,,,,,,,,,,,,,,,66.33869660005439,67.53821710002376,68.33828370005358,68.3221324000042,68.32237360003637,68.33828370005358,68.33828370005358,68.8383553000167,r,1.0,0.4970805000048131,,,,,,,,,,,,,,,,,,,,,,,,,,,,,,,,,,,,,,,,sub-146,1,stroop_test,60.091603652556095,
test,yellow,g,1.0,11.0,2.0,3.0,g,1.0,0.4672445000032894,,,,,,,,,,,,,,,,,,3.0,2.0,11.0,1.0,,,,,,,,,68.85495500004617,,,,,,,,,,,,,,,,,68.83849490003195,68.9382128000143,69.73813770001289,69.721978400019,69.72223250003299,69.73813770001289,69.73813770001289,70.22200010000961,g,1.0,0.4672445000032894,,,,,,,,,,,,,,,,,,,,,,,,,,,,,,,,,,,,,,,,sub-146,1,stroop_test,60.091603652556095,
,,,,,,,,,,,,,,,,,,,,,,,,,,,,,,,,,,,,,,,,,,,,,,,,,,,,,,,,,,,,,,,,,,,,70.22209320002003,70.23818360001314,70.23818360001314,78.0402366000344,space,7.799972300010268,,,,,,,,,,,,,,,,,,,,,,,,,,,,,,,,,sub-146,1,stroop_test,60.091603652556095,
,,,,0.0,0.0,0.0,,,,,blau,blue,b,1.0,b,1.0,0.806614900007844,,,,,,,,,,,,,,0.0,0.0,0.0,6.0,,,,,78.05578930000775,,,,,,,,,,,,,,,,,78.05392500001471,78.15481220005313,78.95465190004325,78.93865570001071,,,,,,,,,,,,,,,,78.94242960005067,78.95465190004325,78.95465190004325,79.7723925000173,b,1.0,0.806614900007844,,79.7771986000007,79.78798860003008,80.78810320002958,80.77213779999875,,,,,,,,,,,,,,,,,,,,sub-146,1,stroop_test,60.091603652556095,
,,,,1.0,1.0,0.0,,,,,rot,red,r,1.0,r,1.0,0.4770736999926157,,,,,,,,,,,,,,0.0,1.0,1.0,1.0,,,,,80.78810320002958,,,,,,,,,,,,,,,,,80.77242930000648,81.97151160001522,82.77143640001304,82.75539360003313,,,,,,,,,,,,,,,,82.75851350004086,82.77143640001304,82.77143640001304,83.2553140000091,r,1.0,0.4770736999926157,,83.25560910004424,83.27131840004586,84.27134050003951,84.25517560000299,,,,,,,,,,,,,,,,,,,,sub-146,1,stroop_test,60.091603652556095,
,,,,2.0,2.0,0.0,,,,,rot,blue,b,0.0,b,1.0,0.4553861999884248,,,,,,,,,,,,,,0.0,2.0,2.0,2.0,,,,,84.27134050003951,,,,,,,,,,,,,,,,,84.2554263000493,84.35453520005103,85.15450880001299,85.13862990000052,,,,,,,,,,,,,,,,85.13890790002188,85.15450880001299,85.15450880001299,85.6223002000479,b,1.0,0.4553861999884248,,85.6225747000426,85.63811980001628,86.6384398000082,86.62178909999784,,,,,,,,,,,,,,,,,,,,sub-146,1,stroop_test,60.091603652556095,
,,,,3.0,3.0,0.0,,,,,blau,yellow,g,0.0,g,1.0,0.5197484000236727,,,,,,,,,,,,,,0.0,3.0,3.0,7.0,,,,,86.6384398000082,,,,,,,,,,,,,,,,,86.62193320004735,86.98788080003578,87.78783040004782,87.77148910000687,,,,,,,,,,,,,,,,87.77279519999865,87.78783040004782,87.78783040004782,88.32190950005315,g,1.0,0.5197484000236727,,88.32211180002196,88.33812480000779,89.33788669999922,89.32206990005216,,,,,,,,,,,,,,,,,,,,sub-146,1,stroop_test,60.091603652556095,
,,,,4.0,4.0,0.0,,,,,blau,blue,b,1.0,b,1.0,0.6445475000073202,,,,,,,,,,,,,,0.0,4.0,4.0,5.0,,,,,89.33788669999922,,,,,,,,,,,,,,,,,89.32231440005125,90.52114360005362,91.32141720002984,91.30492800002683,,,,,,,,,,,,,,,,91.3051372000482,91.32141720002984,91.32141720002984,91.97169100004248,b,1.0,0.6445475000073202,,91.97191640001256,91.98806440003682,92.9877426000312,92.97148560005007,,,,,,,,,,,,,,,,,,,,sub-146,1,stroop_test,60.091603652556095,
,,,,5.0,5.0,0.0,,,,,gelb,yellow,g,1.0,g,1.0,0.4647167000221088,,,,,,,,,,,,,,0.0,5.0,5.0,10.0,,,,,92.9877426000312,,,,,,,,,,,,,,,,,92.97165770002177,93.77105950005352,94.570852200035,94.55467860004865,,,,,,,,,,,,,,,,94.55799550004303,94.570852200035,94.570852200035,95.03855290001955,g,1.0,0.4647167000221088,,95.03883760003372,95.05440610001097,96.05464680003934,96.03839490003884,,,,,,,,,,,,,,,,,,,,sub-146,1,stroop_test,60.091603652556095,
,,,,6.0,6.0,0.0,,,,,blau,red,r,0.0,r,1.0,0.5894173999549821,,,,,,,,,,,,,,0.0,6.0,6.0,4.0,,,,,96.05464680003934,,,,,,,,,,,,,,,,,96.0386219000211,96.13800030003767,96.937564700027,96.9212256000028,,,,,,,,,,,,,,,,96.92269140004646,96.937564700027,96.937564700027,97.53885230002923,r,1.0,0.5894173999549821,,97.53914130001796,97.5545351000037,98.55436600005488,98.53806650004115,,,,,,,,,,,,,,,,,,,,sub-146,1,stroop_test,60.091603652556095,
,,,,7.0,7.0,0.0,,,,,gelb,red,r,0.0,r,1.0,0.5839330999879166,,,,,,,,,,,,,,0.0,7.0,7.0,8.0,,,,,98.55436600005488,,,,,,,,,,,,,,,,,98.5382224000059,98.65434570005164,99.45444030000364,99.4380655999994,,,,,,,,,,,,,,,,99.43949820002308,99.45444030000364,99.45444030000364,100.05495440005323,r,1.0,0.5839330999879166,,100.05524280003738,100.07094920001693,101.07095480000136,101.05510660004802,,,,,,,,,,,,,,,,,,,,sub-146,1,stroop_test,60.091603652556095,
,,,,8.0,8.0,0.0,,,,,gelb,blue,b,0.0,b,1.0,0.4622210999950766,,,,,,,,,,,,,,0.0,8.0,8.0,9.0,,,,,101.07095480000136,,,,,,,,,,,,,,,,,101.05532130005304,101.40433980000672,102.20418600004632,102.1881634000456,,,,,,,,,,,,,,,,102.18838400003732,102.20418600004632,102.20418600004632,102.67197190003937,b,1.0,0.4622210999950766,,102.67224100005114,102.68768130004172,103.68754000001354,103.67159490002086,,,,,,,,,,,,,,,,,,,,sub-146,1,stroop_test,60.091603652556095,
,,,,9.0,9.0,0.0,,,,,rot,yellow,g,0.0,g,1.0,0.7856356999836862,,,,,,,,,,,,,,0.0,9.0,9.0,3.0,,,,,103.68754000001354,,,,,,,,,,,,,,,,,103.67176540003857,104.48756730003517,105.28756870003416,105.27149569999892,,,,,,,,,,,,,,,,105.27374830003828,105.28756870003416,105.28756870003416,106.08833240001697,g,1.0,0.7856356999836862,,106.08855520002544,106.10422900004778,107.10449340002378,107.08806900004856,,,,,,,,,,,,,,,,,,,,sub-146,1,stroop_test,60.091603652556095,
,,,,10.0,10.0,0.0,,,,,gelb,yellow,g,1.0,g,1.0,0.4827038000221364,,,,,,,,,,,,,,0.0,10.0,10.0,11.0,,,,,107.10449340002378,,,,,,,,,,,,,,,,,107.08824990002904,108.28783310001018,109.08743569999932,109.07150950003415,,,,,,,,,,,,,,,,109.0730677000247,109.08743569999932,109.08743569999932,109.57221680000656,g,1.0,0.4827038000221364,,109.5724594000494,109.58751740003936,110.58746930002236,110.57146390003618,,,,,,,,,,,,,,,,,,,,sub-146,1,stroop_test,60.091603652556095,
,,,,11.0,11.0,0.0,,,,,rot,red,r,1.0,r,1.0,0.800111900025513,,,,,,,,,,,,,,0.0,11.0,11.0,0.0,,,,,110.58746930002236,,,,,,,,,,,,,,,,,110.57164930005092,110.93769570003496,111.73779120005202,111.72138080000876,,,,,,,,,,,,,,,,111.72278120002012,111.73779120005202,111.73779120005202,112.5398374000215,r,1.0,0.800111900025513,,112.54014220001407,112.55437680002068,113.5544720000471,113.53831980004908,,,,,,,,,,,,,,,,,,,,sub-146,1,stroop_test,60.091603652556095,
,,,,12.0,0.0,1.0,,,,,rot,red,r,1.0,r,1.0,0.4497642999631353,,,,,,,,,,,,,,1.0,0.0,12.0,1.0,,,,,113.5544720000471,,,,,,,,,,,,,,,,,113.53855720005232,114.35430430003908,115.15432590001728,115.13855460000924,,,,,,,,,,,,,,,,115.13896830001612,115.15432590001728,115.15432590001728,115.60671250004089,r,1.0,0.4497642999631353,,115.60706060001394,115.62081160000524,116.62106700002914,116.60449970001356,,,,,,,,,,,,,,,,,,,,sub-146,1,stroop_test,60.091603652556095,
,,,,13.0,1.0,1.0,,,,,blau,blue,b,1.0,b,1.0,0.5002432999899611,,,,,,,,,,,,,,1.0,1.0,13.0,6.0,,,,,116.62106700002914,,,,,,,,,,,,,,,,,116.60464260005392,117.82094450003932,118.62094790005358,118.6048235000344,,,,,,,,,,,,,,,,118.60624690004624,118.62094790005358,118.62094790005358,119.13802410004428,b,1.0,0.5002432999899611,,119.13826500001596,119.1543908000458,120.15419010003096,120.13787560001948,,,,,,,,,,,,,,,,,,,,sub-146,1,stroop_test,60.091603652556095,
,,,,14.0,2.0,1.0,,,,,gelb,red,r,0.0,r,1.0,0.7569013999891467,,,,,,,,,,,,,,1.0,2.0,14.0,8.0,,,,,120.15419010003096,,,,,,,,,,,,,,,,,120.13800940004876,120.4875902000349,121.28730200004064,121.27108330000192,,,,,,,,,,,,,,,,121.27290130004984,121.28730200004064,121.28730200004064,122.0545716000488,r,1.0,0.7569013999891467,,122.0547817000188,122.07044120004866,123.0703322000336,123.05414710001789,,,,,,,,,,,,,,,,,,,,sub-146,1,stroop_test,60.091603652556095,
,,,,15.0,3.0,1.0,,,,,rot,red,r,1.0,r,1.0,0.4768145999987609,,,,,,,,,,,,,,1.0,3.0,15.0,0.0,,,,,123.0703322000336,,,,,,,,,,,,,,,,,123.05435510003008,123.15442299999997,123.95408960001078,123.93838930001948,,,,,,,,,,,,,,,,123.9406694000354,123.95408960001078,123.95408960001078,124.43858750001527,r,1.0,0.4768145999987609,,124.43888230004814,124.45419170003152,125.45410860003904,125.4378009000211,,,,,,,,,,,,,,,,,,,,sub-146,1,stroop_test,60.091603652556095,
,,,,16.0,4.0,1.0,,,,,blau,yellow,g,0.0,g,1.0,0.6201856000116095,,,,,,,,,,,,,,1.0,4.0,16.0,7.0,,,,,125.45410860003904,,,,,,,,,,,,,,,,,125.43795940000564,126.65418130002216,127.4540836000233,127.4381463000318,,,,,,,,,,,,,,,,127.44020650000311,127.4540836000233,127.4540836000233,128.08778900001198,g,1.0,0.6201856000116095,,128.08812540001236,128.10370690003035,129.10380450001685,129.0875196999987,,,,,,,,,,,,,,,,,,,,sub-146,1,stroop_test,60.091603652556095,
,,,,17.0,5.0,1.0,,,,,blau,red,r,0.0,r,1.0,0.8049887000233866,,,,,,,,,,,,,,1.0,5.0,17.0,4.0,,,,,129.10380450001685,,,,,,,,,,,,,,,,,129.08766820002347,129.43745700002182,130.23752480000255,130.22132630000124,,,,,,,,,,,,,,,,130.22164689999772,130.23752480000255,130.23752480000255,131.0548060000292,r,1.0,0.8049887000233866,,131.05518460000167,131.07081090001157,132.0704881999991,132.0538642000174,,,,,,,,,,,,,,,,,,,,sub-146,1,stroop_test,60.091603652556095,
,,,,18.0,6.0,1.0,,,,,gelb,yellow,g,1.0,g,1.0,0.6099525000317954,,,,,,,,,,,,,,1.0,6.0,18.0,11.0,,,,,132.0704881999991,,,,,,,,,,,,,,,,,132.05400800000643,133.25399960001232,134.05408760003047,134.03780240000924,,,,,,,,,,,,,,,,134.03941820003092,134.05408760003047,134.05408760003047,134.671650400036,g,1.0,0.6099525000317954,,134.6720150000183,134.68721950001782,135.6873357000295,135.67134610004723,,,,,,,,,,,,,,,,,,,,sub-146,1,stroop_test,60.091603652556095,
,,,,19.0,7.0,1.0,,,,,rot,blue,b,0.0,b,1.0,0.6049055000185035,,,,,,,,,,,,,,1.0,7.0,19.0,2.0,,,,,135.6873357000295,,,,,,,,,,,,,,,,,135.67154040001333,136.03711760003353,136.83710370003246,136.82101740001235,,,,,,,,,,,,,,,,136.8230123000103,136.83710370003246,136.83710370003246,137.45465160004096,b,1.0,0.6049055000185035,,137.45488170004683,137.47065460000886,138.4705942000146,138.4544106000103,,,,,,,,,,,,,,,,,,,,sub-146,1,stroop_test,60.091603652556095,
,,,,20.0,8.0,1.0,,,,,gelb,blue,b,0.0,b,1.0,0.659549500036519,,,,,,,,,,,,,,1.0,8.0,20.0,9.0,,,,,138.4705942000146,,,,,,,,,,,,,,,,,138.4546256000176,139.25419950002106,140.05401320004603,140.03768060001312,,,,,,,,,,,,,,,,140.04051180003444,140.05401320004603,140.05401320004603,140.72144560003653,b,1.0,0.659549500036519,,140.7216690000496,140.7371519000153,141.73707130004186,141.72092550003435,,,,,,,,,,,,,,,,,,,,sub-146,1,stroop_test,60.091603652556095,
,,,,21.0,9.0,1.0,,,,,rot,yellow,g,0.0,g,1.0,0.6503876999486238,,,,,,,,,,,,,,1.0,9.0,21.0,3.0,,,,,141.73707130004186,,,,,,,,,,,,,,,,,141.72107450000476,142.92045370000417,143.72045600001002,143.70406890002778,,,,,,,,,,,,,,,,143.70564330002526,143.72045600001002,143.72045600001002,144.37211240001488,g,1.0,0.6503876999486238,,144.37237530003767,144.3873083000071,145.38682190002874,145.37089680001372,,,,,,,,,,,,,,,,,,,,sub-146,1,stroop_test,60.091603652556095,
,,,,22.0,10.0,1.0,,,,,blau,blue,b,1.0,b,1.0,0.9034410999738612,,,,,,,,,,,,,,1.0,10.0,22.0,5.0,,,,,145.38682190002874,,,,,,,,,,,,,,,,,145.37106550001772,145.73712340003112,146.5371697000228,146.5211949000368,,,,,,,,,,,,,,,,146.52286560001085,146.5371697000228,146.5371697000228,147.45470600004774,b,1.0,0.9034410999738612,,147.45493810001062,147.4702457000385,148.46995920001063,148.45369970001047,,,,,,,,,,,,,,,,,,,,sub-146,1,stroop_test,60.091603652556095,
,,,,23.0,11.0,1.0,,,,,gelb,yellow,g,1.0,g,1.0,0.4839519000379368,,,,,,,,,,,,,,1.0,11.0,23.0,10.0,,,,,148.46995920001063,,,,,,,,,,,,,,,,,148.45386670000153,148.82009950000793,149.619945500046,149.60365580004873,,,,,,,,,,,,,,,,149.60523820004892,149.619945500046,149.619945500046,150.10612470004708,g,1.0,0.4839519000379368,,150.1063722000108,150.12035350000951,151.12051570002222,151.10414080001647,,,,,,,,,,,,,,,,,,,,sub-146,1,stroop_test,60.091603652556095,
,,,,,,,,,,,,,,,,,,,,,,,,,,,,,,,,,,,,,,,,,,,,,,,,,,,,,,,,,,,,,,,,,,,,,,,,,,,,,,,,,,,,,,,151.10421220003627,151.12051570002222,151.12051570002222,154.4559697000077,space,3.3329917000373825,,,,,,,,,,,,,,sub-146,1,stroop_test,60.091603652556095,
,,,,0.0,0.0,0.0,,,,,,,,,,,,,gelb,red,r,0.0,r,1.0,0.4502118000527844,,,,,,,,,,0.0,0.0,0.0,8.0,154.47193550004158,,,,,,,,,,,,,,,,,154.46986700000707,155.67008530005114,156.47039020003285,156.45400360005442,,,,,,,,,,,,,,,,,,,,,,,,,,,,,,,,,,,156.455457700009,156.47039020003285,156.47039020003285,156.92313920002198,r,1.0,0.4502118000527844,,,,,,sub-146,1,stroop_test,60.091603652556095,
,,,,1.0,1.0,0.0,,,,,,,,,,,,,rot,red,r,1.0,r,1.0,0.4810140999616124,,,,,,,,,,0.0,1.0,1.0,0.0,156.93684760003816,,,,,,,,,,,,,,,,,156.9234605000238,157.037105000054,157.83694180002203,157.8203516000067,,,,,,,,,,,,,,,,,,,,,,,,,,,,,,,,,,,157.8218056000187,157.83694180002203,157.83694180002203,158.32030150003266,r,1.0,0.4810140999616124,,,,,,sub-146,1,stroop_test,60.091603652556095,
,,,,2.0,2.0,0.0,,,,,,,,,,,,,gelb,yellow,g,1.0,g,1.0,0.3639040000271052,,,,,,,,,,0.0,2.0,2.0,10.0,158.33674520003842,,,,,,,,,,,,,,,,,158.32045080000535,159.52033400000073,160.3202240000246,160.3040293000522,,,,,,,,,,,,,,,,,,,,,,,,,,,,,,,,,,,160.30541950004408,160.3202240000246,160.3202240000246,160.68762070004595,g,1.0,0.3639040000271052,,,,,,sub-146,1,stroop_test,60.091603652556095,
,,,,3.0,3.0,0.0,,,,,,,,,,,,,rot,yellow,g,0.0,g,1.0,0.4127954999567009,,,,,,,,,,0.0,3.0,3.0,3.0,160.7036826000549,,,,,,,,,,,,,,,,,160.68784840003354,161.88698380003916,162.6868912000209,162.67073030001484,,,,,,,,,,,,,,,,,,,,,,,,,,,,,,,,,,,162.6722429000074,162.6868912000209,162.6868912000209,163.104209800018,g,1.0,0.4127954999567009,,,,,,sub-146,1,stroop_test,60.091603652556095,
,,,,4.0,4.0,0.0,,,,,,,,,,,,,gelb,yellow,g,1.0,g,1.0,0.4472707000095397,,,,,,,,,,0.0,4.0,4.0,11.0,163.12006149999797,,,,,,,,,,,,,,,,,163.104372300033,163.9035361999995,164.70361950004008,164.6874219000456,,,,,,,,,,,,,,,,,,,,,,,,,,,,,,,,,,,164.6894177000504,164.70361950004008,164.70361950004008,165.15415750001557,g,1.0,0.4472707000095397,,,,,,sub-146,1,stroop_test,60.091603652556095,
,,,,5.0,5.0,0.0,,,,,,,,,,,,,rot,red,r,1.0,r,1.0,0.5749173000222072,,,,,,,,,,0.0,5.0,5.0,1.0,165.17022060003364,,,,,,,,,,,,,,,,,165.1543303000508,165.5035011,166.30306860001292,166.28663440002128,,,,,,,,,,,,,,,,,,,,,,,,,,,,,,,,,,,166.2890449000406,166.30306860001292,166.30306860001292,166.88779760000762,r,1.0,0.5749173000222072,,,,,,sub-146,1,stroop_test,60.091603652556095,
,,,,6.0,6.0,0.0,,,,,,,,,,,,,blau,red,r,0.0,r,1.0,0.6172130000195466,,,,,,,,,,0.0,6.0,6.0,4.0,166.9032793000224,,,,,,,,,,,,,,,,,166.8880274000112,167.25310410000384,168.0534692000365,168.03722650004784,,,,,,,,,,,,,,,,,,,,,,,,,,,,,,,,,,,168.03864530002463,168.0534692000365,168.0534692000365,168.68756460002623,r,1.0,0.6172130000195466,,,,,,sub-146,1,stroop_test,60.091603652556095,
,,,,7.0,7.0,0.0,,,,,,,,,,,,,blau,blue,b,1.0,b,1.0,0.3962462999625131,,,,,,,,,,0.0,7.0,7.0,6.0,168.70337020000443,,,,,,,,,,,,,,,,,168.68776270002127,168.7869208000484,169.58694170002127,169.57072300004074,,,,,,,,,,,,,,,,,,,,,,,,,,,,,,,,,,,169.57092640001792,169.58694170002127,169.58694170002127,169.98790830001235,b,1.0,0.3962462999625131,,,,,,sub-146,1,stroop_test,60.091603652556095,
,,,,8.0,8.0,0.0,,,,,,,,,,,,,blau,yellow,g,0.0,g,1.0,0.5419411999755539,,,,,,,,,,0.0,8.0,8.0,7.0,170.00342960003763,,,,,,,,,,,,,,,,,169.98807590000797,171.20330130000366,172.00333820004016,171.9872047000099,,,,,,,,,,,,,,,,,,,,,,,,,,,,,,,,,,,171.98748810001416,172.00333820004016,172.00333820004016,172.55410680000205,g,1.0,0.5419411999755539,,,,,,sub-146,1,stroop_test,60.091603652556095,
,,,,9.0,9.0,0.0,,,,,,,,,,,,,rot,blue,b,0.0,b,1.0,0.6931890000123531,,,,,,,,,,0.0,9.0,9.0,2.0,172.569960599998,,,,,,,,,,,,,,,,,172.5542999000172,172.67004600004293,173.4701681000297,173.45364630001131,,,,,,,,,,,,,,,,,,,,,,,,,,,,,,,,,,,173.4550049000536,173.4701681000297,173.4701681000297,174.17120950005483,b,1.0,0.6931890000123531,,,,,,sub-146,1,stroop_test,60.091603652556095,
,,,,10.0,10.0,0.0,,,,,,,,,,,,,gelb,blue,b,0.0,b,1.0,0.498786799958907,,,,,,,,,,0.0,10.0,10.0,9.0,174.18663500004914,,,,,,,,,,,,,,,,,174.1714797000168,175.38660840003286,176.18664530001115,176.17055880004773,,,,,,,,,,,,,,,,,,,,,,,,,,,,,,,,,,,176.17254800000228,176.18664530001115,176.18664530001115,176.68703370000003,b,1.0,0.498786799958907,,,,,,sub-146,1,stroop_test,60.091603652556095,
,,,,11.0,11.0,0.0,,,,,,,,,,,,,blau,blue,b,1.0,b,1.0,0.4557299999869428,,,,,,,,,,0.0,11.0,11.0,5.0,176.7033400000073,,,,,,,,,,,,,,,,,176.68732010002714,176.78670090000378,177.61517010000534,177.57070490001934,,,,,,,,,,,,,,,,,,,,,,,,,,,,,,,,,,,177.61282700003358,177.61517010000534,177.61517010000534,178.08734580001328,b,1.0,0.4557299999869428,,,,,,sub-146,1,stroop_test,60.091603652556095,
,,,,12.0,0.0,1.0,,,,,,,,,,,,,gelb,blue,b,0.0,b,1.0,0.4973964000237174,,,,,,,,,,1.0,0.0,12.0,9.0,178.10323820001213,,,,,,,,,,,,,,,,,178.08752620004816,179.28639680001652,180.0865331000532,180.0701176000293,,,,,,,,,,,,,,,,,,,,,,,,,,,,,,,,,,,180.0715091000311,180.0865331000532,180.0865331000532,180.58701050002128,b,1.0,0.4973964000237174,,,,,,sub-146,1,stroop_test,60.091603652556095,
,,,,13.0,1.0,1.0,,,,,,,,,,,,,rot,blue,b,0.0,b,1.0,0.5425567000056617,,,,,,,,,,1.0,1.0,13.0,2.0,180.60338250000493,,,,,,,,,,,,,,,,,180.58721060003157,181.3866206000093,182.1865794000332,182.1702395000029,,,,,,,,,,,,,,,,,,,,,,,,,,,,,,,,,,,182.17164350004168,182.1865794000332,182.1865794000332,182.7367788000265,b,1.0,0.5425567000056617,,,,,,sub-146,1,stroop_test,60.091603652556095,
,,,,14.0,2.0,1.0,,,,,,,,,,,,,gelb,red,r,0.0,r,1.0,0.4343972000060603,,,,,,,,,,1.0,2.0,14.0,8.0,182.75322130002317,,,,,,,,,,,,,,,,,182.73694760003127,182.83659190003527,183.63654530001804,183.62047040002653,,,,,,,,,,,,,,,,,,,,,,,,,,,,,,,,,,,183.62200660002415,183.63654530001804,183.63654530001804,184.08758400002264,r,1.0,0.4343972000060603,,,,,,sub-146,1,stroop_test,60.091603652556095,
,,,,15.0,3.0,1.0,,,,,,,,,,,,,rot,yellow,g,0.0,g,1.0,0.4631485000136308,,,,,,,,,,1.0,3.0,15.0,3.0,184.10286380001344,,,,,,,,,,,,,,,,,184.0878052000189,184.2030275000143,185.00326270004732,184.98695340001723,,,,,,,,,,,,,,,,,,,,,,,,,,,,,,,,,,,184.98866580001777,185.00326270004732,185.00326270004732,185.47071540000616,g,1.0,0.4631485000136308,,,,,,sub-146,1,stroop_test,60.091603652556095,
,,,,16.0,4.0,1.0,,,,,,,,,,,,,gelb,yellow,g,1.0,g,1.0,0.8657979999552481,,,,,,,,,,1.0,4.0,16.0,11.0,185.48670000000857,,,,,,,,,,,,,,,,,185.4708919000113,185.83669830003052,186.6362041000393,186.6201477000141,,,,,,,,,,,,,,,,,,,,,,,,,,,,,,,,,,,186.6215106000309,186.6362041000393,186.6362041000393,187.50336329999843,g,1.0,0.8657979999552481,,,,,,sub-146,1,stroop_test,60.091603652556095,
,,,,17.0,5.0,1.0,,,,,,,,,,,,,blau,red,r,0.0,r,1.0,0.4853619000059552,,,,,,,,,,1.0,5.0,17.0,4.0,187.51995670003816,,,,,,,,,,,,,,,,,187.50352660001957,188.70287810004083,189.50309120002203,189.4869437000016,,,,,,,,,,,,,,,,,,,,,,,,,,,,,,,,,,,189.48865030001616,189.50309120002203,189.50309120002203,190.0040178000345,r,1.0,0.4853619000059552,,,,,,sub-146,1,stroop_test,60.091603652556095,
,,,,18.0,6.0,1.0,,,,,,,,,,,,,blau,blue,b,1.0,b,1.0,0.3711053999722935,,,,,,,,,,1.0,6.0,18.0,6.0,190.01980050001293,,,,,,,,,,,,,,,,,190.00428690004628,190.3695054000127,191.1698135000188,191.1532036000281,,,,,,,,,,,,,,,,,,,,,,,,,,,,,,,,,,,191.1534227000084,191.1698135000188,191.1698135000188,191.553866900038,b,1.0,0.3711053999722935,,,,,,sub-146,1,stroop_test,60.091603652556095,
,,,,19.0,7.0,1.0,,,,,,,,,,,,,blau,blue,b,1.0,b,1.0,0.433866899984423,,,,,,,,,,1.0,7.0,19.0,5.0,191.5696616000496,,,,,,,,,,,,,,,,,191.5540386000066,191.65289890003623,192.4529259999981,192.43629560002591,,,,,,,,,,,,,,,,,,,,,,,,,,,,,,,,,,,192.4364952000324,192.4529259999981,192.4529259999981,192.88889709999785,b,1.0,0.433866899984423,,,,,,sub-146,1,stroop_test,60.091603652556095,
,,,,20.0,8.0,1.0,,,,,,,,,,,,,rot,red,r,1.0,r,1.0,0.3965937999892048,,,,,,,,,,1.0,8.0,20.0,0.0,192.90327410004105,,,,,,,,,,,,,,,,,192.88907090004068,194.1028799000196,194.9030165000004,194.88684310001557,,,,,,,,,,,,,,,,,,,,,,,,,,,,,,,,,,,194.88912090001395,194.9030165000004,194.9030165000004,195.3036668000277,r,1.0,0.3965937999892048,,,,,,sub-146,1,stroop_test,60.091603652556095,
,,,,21.0,9.0,1.0,,,,,,,,,,,,,rot,red,r,1.0,r,1.0,0.4435279000317678,,,,,,,,,,1.0,9.0,21.0,1.0,195.31971860001795,,,,,,,,,,,,,,,,,195.3038707000087,195.653148500016,196.45334480004385,196.4363707000157,,,,,,,,,,,,,,,,,,,,,,,,,,,,,,,,,,,196.43668390001403,196.45334480004385,196.45334480004385,196.90403260005405,r,1.0,0.4435279000317678,,,,,,sub-146,1,stroop_test,60.091603652556095,
,,,,22.0,10.0,1.0,,,,,,,,,,,,,blau,yellow,g,0.0,g,1.0,0.4870449000154622,,,,,,,,,,1.0,10.0,22.0,7.0,196.9195529000135,,,,,,,,,,,,,,,,,196.90425790002337,197.71959350002,198.5197975000483,198.50346470001384,,,,,,,,,,,,,,,,,,,,,,,,,,,,,,,,,,,198.5047137000365,198.5197975000483,198.5197975000483,199.0204588000197,g,1.0,0.4870449000154622,,,,,,sub-146,1,stroop_test,60.091603652556095,
,,,,23.0,11.0,1.0,,,,,,,,,,,,,gelb,yellow,g,1.0,g,1.0,0.4651838000281714,,,,,,,,,,1.0,11.0,23.0,10.0,199.03653410001425,,,,,,,,,,,,,,,,,199.0206307000481,199.36983750003856,200.16966820001835,200.15349550003884,,,,,,,,,,,,,,,,,,,,,,,,,,,,,,,,,,,200.15497080003843,200.16966820001835,200.16966820001835,200.63693200005216,g,1.0,0.4651838000281714,,,,,,sub-146,1,stroop_test,60.091603652556095,
,,,,24.0,0.0,2.0,,,,,,,,,,,,,blau,yellow,g,0.0,g,1.0,0.6775578000233509,,,,,,,,,,2.0,0.0,24.0,7.0,200.65288800001144,,,,,,,,,,,,,,,,,200.6371118000243,201.45256400003564,202.25256750005065,202.23652730003232,,,,,,,,,,,,,,,,,,,,,,,,,,,,,,,,,,,202.2378527999972,202.25256750005065,202.25256750005065,202.93646160000932,g,1.0,0.6775578000233509,,,,,,sub-146,1,stroop_test,60.091603652556095,
,,,,25.0,1.0,2.0,,,,,,,,,,,,,rot,blue,b,0.0,b,1.0,0.7802187000052072,,,,,,,,,,2.0,1.0,25.0,2.0,202.9525496000424,,,,,,,,,,,,,,,,,202.936629600008,203.73592850001296,204.53578180004843,204.51958640001249,,,,,,,,,,,,,,,,,,,,,,,,,,,,,,,,,,,204.52160900004677,204.53578180004843,204.53578180004843,205.31982190004783,b,1.0,0.7802187000052072,,,,,,sub-146,1,stroop_test,60.091603652556095,
,,,,26.0,2.0,2.0,,,,,,,,,,,,,rot,yellow,g,0.0,g,1.0,0.6094934999709949,,,,,,,,,,2.0,2.0,26.0,3.0,205.3359350000392,,,,,,,,,,,,,,,,,205.3200606000028,206.51913400000197,207.319356699998,207.3029059000546,,,,,,,,,,,,,,,,,,,,,,,,,,,,,,,,,,,207.3031881000497,207.319356699998,207.319356699998,207.93639720004285,g,1.0,0.6094934999709949,,,,,,sub-146,1,stroop_test,60.091603652556095,
,,,,27.0,3.0,2.0,,,,,,,,,,,,,blau,blue,b,1.0,b,1.0,0.5294760999968275,,,,,,,,,,2.0,3.0,27.0,5.0,207.9525266000419,,,,,,,,,,,,,,,,,207.9365703000221,208.0359714000369,208.83585080003832,208.8195488000056,,,,,,,,,,,,,,,,,,,,,,,,,,,,,,,,,,,208.8214879000443,208.83585080003832,208.83585080003832,209.369691400032,b,1.0,0.5294760999968275,,,,,,sub-146,1,stroop_test,60.091603652556095,
,,,,28.0,4.0,2.0,,,,,,,,,,,,,blau,blue,b,1.0,b,1.0,0.4271210999577306,,,,,,,,,,2.0,4.0,28.0,6.0,209.38579670002215,,,,,,,,,,,,,,,,,209.36986260005503,210.16915830003563,210.9692253000103,210.9530792000005,,,,,,,,,,,,,,,,,,,,,,,,,,,,,,,,,,,210.95336050004695,210.9692253000103,210.9692253000103,211.40279180003563,b,1.0,0.4271210999577306,,,,,,sub-146,1,stroop_test,60.091603652556095,
,,,,29.0,5.0,2.0,,,,,,,,,,,,,gelb,yellow,g,1.0,g,1.0,0.5500188999576494,,,,,,,,,,2.0,5.0,29.0,11.0,211.41926520003472,,,,,,,,,,,,,,,,,211.40295840002364,211.50283430004487,212.3025062000379,212.2860910000163,,,,,,,,,,,,,,,,,,,,,,,,,,,,,,,,,,,212.2874973000144,212.3025062000379,212.3025062000379,212.85333180002635,g,1.0,0.5500188999576494,,,,,,sub-146,1,stroop_test,60.091603652556095,
,,,,30.0,6.0,2.0,,,,,,,,,,,,,blau,red,r,0.0,r,1.0,0.6526622999808751,,,,,,,,,,2.0,6.0,30.0,4.0,212.8691611000104,,,,,,,,,,,,,,,,,212.85349350003528,212.95236990001283,213.75241510005435,213.73610270000063,,,,,,,,,,,,,,,,,,,,,,,,,,,,,,,,,,,213.73744019999867,213.75241510005435,213.75241510005435,214.41958390001676,r,1.0,0.6526622999808751,,,,,,sub-146,1,stroop_test,60.091603652556095,
,,,,31.0,7.0,2.0,,,,,,,,,,,,,rot,red,r,1.0,r,1.0,0.711955200007651,,,,,,,,,,2.0,7.0,31.0,1.0,214.43578560004244,,,,,,,,,,,,,,,,,214.41973410005448,215.219001999998,216.01908690005075,216.00273180002117,,,,,,,,,,,,,,,,,,,,,,,,,,,,,,,,,,,216.00416540005244,216.01908690005075,216.01908690005075,216.7361695000436,r,1.0,0.711955200007651,,,,,,sub-146,1,stroop_test,60.091603652556095,
,,,,32.0,8.0,2.0,,,,,,,,,,,,,gelb,red,r,0.0,r,1.0,0.7384782999870367,,,,,,,,,,2.0,8.0,32.0,8.0,216.75247669999956,,,,,,,,,,,,,,,,,216.7364068000461,217.93587490002392,218.7356782000279,218.7195342000341,,,,,,,,,,,,,,,,,,,,,,,,,,,,,,,,,,,218.7210433,218.7356782000279,218.7356782000279,219.48639740003276,r,1.0,0.7384782999870367,,,,,,sub-146,1,stroop_test,60.091603652556095,
,,,,33.0,9.0,2.0,,,,,,,,,,,,,gelb,blue,b,0.0,b,1.0,0.5255858000018634,,,,,,,,,,2.0,9.0,33.0,9.0,219.50226269999985,,,,,,,,,,,,,,,,,219.48662140005035,220.68573230004404,221.48570160003143,221.46932890004248,,,,,,,,,,,,,,,,,,,,,,,,,,,,,,,,,,,221.46952390001388,221.48570160003143,221.48570160003143,222.01996550004696,b,1.0,0.5255858000018634,,,,,,sub-146,1,stroop_test,60.091603652556095,
,,,,34.0,10.0,2.0,,,,,,,,,,,,,rot,red,r,1.0,r,1.0,0.5512070000404492,,,,,,,,,,2.0,10.0,34.0,0.0,222.03571940003891,,,,,,,,,,,,,,,,,222.02018510003109,222.83577250002415,223.63559130002977,223.6192056,,,,,,,,,,,,,,,,,,,,,,,,,,,,,,,,,,,223.62146870000288,223.63559130002977,223.63559130002977,224.2030049000168,r,1.0,0.5512070000404492,,,,,,sub-146,1,stroop_test,60.091603652556095,
,,,,35.0,11.0,2.0,,,,,,,,,,,,,gelb,yellow,g,1.0,g,1.0,0.6204905000049621,,,,,,,,,,2.0,11.0,35.0,10.0,224.21889250003733,,,,,,,,,,,,,,,,,224.20358930004292,225.00241070002085,225.80235100002028,225.7859927000245,,,,,,,,,,,,,,,,,,,,,,,,,,,,,,,,,,,225.7875951000024,225.80235100002028,225.80235100002028,226.43638810003176,g,1.0,0.6204905000049621,,,,,,sub-146,1,stroop_test,60.091603652556095,
,,,,36.0,0.0,3.0,,,,,,,,,,,,,gelb,yellow,g,1.0,g,1.0,0.489708499982953,,,,,,,,,,3.0,0.0,36.0,10.0,226.45231250004144,,,,,,,,,,,,,,,,,226.43655969999963,226.785890500003,227.585498200031,227.56906900001923,,,,,,,,,,,,,,,,,,,,,,,,,,,,,,,,,,,227.5693346000044,227.585498200031,227.585498200031,228.0867479000008,g,1.0,0.489708499982953,,,,,,sub-146,1,stroop_test,60.091603652556095,
,,,,37.0,1.0,3.0,,,,,,,,,,,,,blau,blue,b,1.0,b,1.0,0.3882343999575823,,,,,,,,,,3.0,1.0,37.0,5.0,228.1024692000356,,,,,,,,,,,,,,,,,228.08695150003769,228.8857356000226,229.68595350004037,229.66967930004463,,,,,,,,,,,,,,,,,,,,,,,,,,,,,,,,,,,229.67159030004404,229.68595350004037,229.68595350004037,230.08664160000623,b,1.0,0.3882343999575823,,,,,,sub-146,1,stroop_test,60.091603652556095,
,,,,38.0,2.0,3.0,,,,,,,,,,,,,rot,red,r,1.0,g,0.0,0.4181090000201948,,,,,,,,,,3.0,2.0,38.0,0.0,230.1021669000038,,,,,,,,,,,,,,,,,230.0868130000308,230.88578230002892,231.68590800004316,231.66974640003173,,,,,,,,,,,,,,,,,,,,,,,,,,,,,,,,,,,231.6712957000127,231.68590800004316,231.68590800004316,232.1199058000348,g,0.0,0.4181090000201948,,,,,,sub-146,1,stroop_test,60.091603652556095,
,,,,39.0,3.0,3.0,,,,,,,,,,,,,blau,yellow,g,0.0,g,1.0,0.5167481999960728,,,,,,,,,,3.0,3.0,39.0,7.0,232.1360419000266,,,,,,,,,,,,,,,,,232.12007960001935,232.21940940001517,233.0192707000533,233.0032911000308,,,,,,,,,,,,,,,,,,,,,,,,,,,,,,,,,,,233.0052475000266,233.0192707000533,233.0192707000533,233.53785510000307,g,1.0,0.5167481999960728,,,,,,sub-146,1,stroop_test,60.091603652556095,
,,,,40.0,4.0,3.0,,,,,,,,,,,,,gelb,yellow,g,1.0,g,1.0,0.4914020000142045,,,,,,,,,,3.0,4.0,40.0,11.0,233.5525469999993,,,,,,,,,,,,,,,,,233.53802590002303,233.65235730004497,234.45237040001663,234.4362944000168,,,,,,,,,,,,,,,,,,,,,,,,,,,,,,,,,,,234.4390472000232,234.45237040001663,234.45237040001663,234.95354150002825,g,1.0,0.4914020000142045,,,,,,sub-146,1,stroop_test,60.091603652556095,
,,,,41.0,5.0,3.0,,,,,,,,,,,,,blau,blue,b,1.0,b,1.0,0.5537034000153653,,,,,,,,,,3.0,5.0,41.0,6.0,234.96897500002524,,,,,,,,,,,,,,,,,234.9538210000028,235.3192758000223,236.11919140000828,236.10291390004568,,,,,,,,,,,,,,,,,,,,,,,,,,,,,,,,,,,236.1041762000532,236.11919140000828,236.11919140000828,236.68660290003757,b,1.0,0.5537034000153653,,,,,,sub-146,1,stroop_test,60.091603652556095,
,,,,42.0,6.0,3.0,,,,,,,,,,,,,blau,red,r,0.0,r,1.0,0.7229296000441536,,,,,,,,,,3.0,6.0,42.0,4.0,236.7022862000158,,,,,,,,,,,,,,,,,236.6867758000153,237.0524806000176,237.85253670002567,237.83646070002575,,,,,,,,,,,,,,,,,,,,,,,,,,,,,,,,,,,237.83671200001845,237.85253670002567,237.85253670002567,238.58696340001188,r,1.0,0.7229296000441536,,,,,,sub-146,1,stroop_test,60.091603652556095,
,,,,43.0,7.0,3.0,,,,,,,,,,,,,rot,red,r,1.0,r,1.0,0.359645200020168,,,,,,,,,,3.0,7.0,43.0,1.0,238.6021908000112,,,,,,,,,,,,,,,,,238.58714300004067,239.8026604000479,240.6021827000077,240.5861983000068,,,,,,,,,,,,,,,,,,,,,,,,,,,,,,,,,,,240.58834300003943,240.6021827000077,240.6021827000077,240.97012790001463,r,1.0,0.359645200020168,,,,,,sub-146,1,stroop_test,60.091603652556095,
,,,,44.0,8.0,3.0,,,,,,,,,,,,,rot,yellow,g,0.0,g,1.0,0.4750032999436371,,,,,,,,,,3.0,8.0,44.0,3.0,240.9858255000436,,,,,,,,,,,,,,,,,240.97028880001744,241.33566450001672,242.1356885000132,242.1196562999976,,,,,,,,,,,,,,,,,,,,,,,,,,,,,,,,,,,242.11992240004477,242.1356885000132,242.1356885000132,242.6196930000442,g,1.0,0.4750032999436371,,,,,,sub-146,1,stroop_test,60.091603652556095,
,,,,45.0,9.0,3.0,,,,,,,,,,,,,gelb,red,r,0.0,r,1.0,0.5442767000058666,,,,,,,,,,3.0,9.0,45.0,8.0,242.6353333000443,,,,,,,,,,,,,,,,,242.6199903000379,243.8189956000424,244.6184731000103,244.6025425000116,,,,,,,,,,,,,,,,,,,,,,,,,,,,,,,,,,,244.6047478000401,244.6184731000103,244.6184731000103,245.16992670000764,r,1.0,0.5442767000058666,,,,,,sub-146,1,stroop_test,60.091603652556095,
,,,,46.0,10.0,3.0,,,,,,,,,,,,,rot,blue,b,0.0,b,1.0,0.5145724999601953,,,,,,,,,,3.0,10.0,46.0,2.0,245.18556490004997,,,,,,,,,,,,,,,,,245.1701064000372,246.38590720004868,247.1857435000129,247.16940810001688,,,,,,,,,,,,,,,,,,,,,,,,,,,,,,,,,,,247.17072510003345,247.1857435000129,247.1857435000129,247.70250210003,b,1.0,0.5145724999601953,,,,,,sub-146,1,stroop_test,60.091603652556095,
,,,,47.0,11.0,3.0,,,,,,,,,,,,,gelb,blue,b,0.0,b,1.0,0.5356865000212565,,,,,,,,,,3.0,11.0,47.0,9.0,247.71851780003635,,,,,,,,,,,,,,,,,247.7027478000382,248.05245430005016,248.85225180001,248.83603330003095,,,,,,,,,,,,,,,,,,,,,,,,,,,,,,,,,,,248.8377672000206,248.85225180001,248.85225180001,249.4030009999988,b,1.0,0.5356865000212565,,,,,,sub-146,1,stroop_test,60.091603652556095,
,,,,48.0,0.0,4.0,,,,,,,,,,,,,gelb,yellow,g,1.0,g,1.0,0.5107416000100784,,,,,,,,,,4.0,0.0,48.0,10.0,249.41899090004156,,,,,,,,,,,,,,,,,249.4031697000028,250.20228330005196,251.00254620000487,250.98608560004504,,,,,,,,,,,,,,,,,,,,,,,,,,,,,,,,,,,250.98630740004592,251.00254620000487,251.00254620000487,251.51910170004703,g,1.0,0.5107416000100784,,,,,,sub-146,1,stroop_test,60.091603652556095,
,,,,49.0,1.0,4.0,,,,,,,,,,,,,gelb,blue,b,0.0,b,1.0,0.8928784999880008,,,,,,,,,,4.0,1.0,49.0,9.0,251.53554220002843,,,,,,,,,,,,,,,,,251.51933600002667,252.71867590001784,253.51888540002983,253.50298770004883,,,,,,,,,,,,,,,,,,,,,,,,,,,,,,,,,,,253.5031887000077,253.51888540002983,253.51888540002983,254.4197304000263,b,1.0,0.8928784999880008,,,,,,sub-146,1,stroop_test,60.091603652556095,
,,,,50.0,2.0,4.0,,,,,,,,,,,,,gelb,red,r,0.0,r,1.0,0.6695028999820352,,,,,,,,,,4.0,2.0,50.0,8.0,254.43551229999863,,,,,,,,,,,,,,,,,254.4199036000064,255.21877910004696,256.0189742000075,256.0028002000181,,,,,,,,,,,,,,,,,,,,,,,,,,,,,,,,,,,256.0030236000312,256.0189742000075,256.0189742000075,256.70217410003534,r,1.0,0.6695028999820352,,,,,,sub-146,1,stroop_test,60.091603652556095,
,,,,51.0,3.0,4.0,,,,,,,,,,,,,blau,red,r,0.0,r,1.0,0.4832760000135749,,,,,,,,,,4.0,3.0,51.0,4.0,256.71852170000784,,,,,,,,,,,,,,,,,256.7023219000548,257.5018889000057,258.30232990003424,258.2859912000131,,,,,,,,,,,,,,,,,,,,,,,,,,,,,,,,,,,258.2877781999996,258.30232990003424,258.30232990003424,258.7875829000259,r,1.0,0.4832760000135749,,,,,,sub-146,1,stroop_test,60.091603652556095,
,,,,52.0,4.0,4.0,,,,,,,,,,,,,gelb,yellow,g,1.0,g,1.0,0.3374511000001803,,,,,,,,,,4.0,4.0,52.0,11.0,258.80199350003386,,,,,,,,,,,,,,,,,258.787769400049,260.0019738000119,260.8019121000543,260.78561610000907,,,,,,,,,,,,,,,,,,,,,,,,,,,,,,,,,,,260.78708620002726,260.8019121000543,260.8019121000543,261.15292030002456,g,1.0,0.3374511000001803,,,,,,sub-146,1,stroop_test,60.091603652556095,
,,,,53.0,5.0,4.0,,,,,,,,,,,,,rot,yellow,g,0.0,g,1.0,0.3572436000104062,,,,,,,,,,4.0,5.0,53.0,3.0,261.1689535000478,,,,,,,,,,,,,,,,,261.15308200003346,262.3684067000286,263.16877850005403,263.15231030003633,,,,,,,,,,,,,,,,,,,,,,,,,,,,,,,,,,,263.1538112999988,263.16877850005403,263.16877850005403,263.5357237000135,g,1.0,0.3572436000104062,,,,,,sub-146,1,stroop_test,60.091603652556095,
,,,,54.0,6.0,4.0,,,,,,,,,,,,,rot,red,r,1.0,r,1.0,0.5561401000013575,,,,,,,,,,4.0,6.0,54.0,0.0,263.5520408000448,,,,,,,,,,,,,,,,,263.5358887000475,264.33529500005534,265.1354376000236,265.11914230004186,,,,,,,,,,,,,,,,,,,,,,,,,,,,,,,,,,,265.11944660003064,265.1354376000236,265.1354376000236,265.70323560002726,r,1.0,0.5561401000013575,,,,,,sub-146,1,stroop_test,60.091603652556095,
,,,,55.0,7.0,4.0,,,,,,,,,,,,,blau,blue,b,1.0,b,1.0,0.4694769000052474,,,,,,,,,,4.0,7.0,55.0,6.0,265.7187435000087,,,,,,,,,,,,,,,,,265.7034114000271,265.8185488000163,266.61868700000923,266.6025953000062,,,,,,,,,,,,,,,,,,,,,,,,,,,,,,,,,,,266.6046654000529,266.61868700000923,266.61868700000923,267.1029227000545,b,1.0,0.4694769000052474,,,,,,sub-146,1,stroop_test,60.091603652556095,
,,,,56.0,8.0,4.0,,,,,,,,,,,,,blau,yellow,g,0.0,r,0.0,0.5467053999891505,,,,,,,,,,4.0,8.0,56.0,7.0,267.11856240005,,,,,,,,,,,,,,,,,267.10310210002353,267.9019634000142,268.7018785000546,268.6855983000132,,,,,,,,,,,,,,,,,,,,,,,,,,,,,,,,,,,268.6858067000285,268.7018785000546,268.7018785000546,269.2523063000408,r,0.0,0.5467053999891505,,,,,,sub-146,1,stroop_test,60.091603652556095,
,,,,57.0,9.0,4.0,,,,,,,,,,,,,blau,blue,b,1.0,b,1.0,0.6447816000436433,,,,,,,,,,4.0,9.0,57.0,5.0,269.2686863000272,,,,,,,,,,,,,,,,,269.2524941000156,269.6020921000163,270.40168340003584,270.3855190000031,,,,,,,,,,,,,,,,,,,,,,,,,,,,,,,,,,,270.3857290000305,270.40168340003584,270.40168340003584,271.0522907000268,b,1.0,0.6447816000436433,,,,,,sub-146,1,stroop_test,60.091603652556095,
,,,,58.0,10.0,4.0,,,,,,,,,,,,,rot,red,r,1.0,r,1.0,0.3579839000012725,,,,,,,,,,4.0,10.0,58.0,1.0,271.06846460001543,,,,,,,,,,,,,,,,,271.0525030000136,271.40189140004804,272.201867100026,272.1855423000525,,,,,,,,,,,,,,,,,,,,,,,,,,,,,,,,,,,272.1869874999975,272.201867100026,272.201867100026,272.56903510005213,r,1.0,0.3579839000012725,,,,,,sub-146,1,stroop_test,60.091603652556095,
,,,,59.0,11.0,4.0,,,,,,,,,,,,,rot,blue,b,0.0,b,1.0,0.6937868000240996,,,,,,,,,,4.0,11.0,59.0,2.0,272.5853779000463,,,,,,,,,,,,,,,,,272.56920660001924,272.66859690001,273.4684864000301,273.45236190001015,,,,,,,,,,,,,,,,,,,,,,,,,,,,,,,,,,,273.4525956000434,273.4684864000301,273.4684864000301,274.169290400052,b,1.0,0.6937868000240996,,,,,,sub-146,1,stroop_test,60.091603652556095,
,,,,60.0,0.0,5.0,,,,,,,,,,,,,rot,red,r,1.0,r,1.0,0.4651295999647118,,,,,,,,,,5.0,0.0,60.0,1.0,274.18521530000726,,,,,,,,,,,,,,,,,274.169461100013,275.3686707000016,276.168679800001,276.1522861000267,,,,,,,,,,,,,,,,,,,,,,,,,,,,,,,,,,,276.15250330005074,276.168679800001,276.168679800001,276.6359038000228,r,1.0,0.4651295999647118,,,,,,sub-146,1,stroop_test,60.091603652556095,
,,,,61.0,1.0,5.0,,,,,,,,,,,,,rot,red,r,1.0,r,1.0,0.5109565000166185,,,,,,,,,,5.0,1.0,61.0,0.0,276.6516476000543,,,,,,,,,,,,,,,,,276.6360914000543,276.7350281000254,277.5352792000049,277.51858210004866,,,,,,,,,,,,,,,,,,,,,,,,,,,,,,,,,,,277.51881210005376,277.5352792000049,277.5352792000049,278.0523277000175,r,1.0,0.5109565000166185,,,,,,sub-146,1,stroop_test,60.091603652556095,
,,,,62.0,2.0,5.0,,,,,,,,,,,,,blau,blue,b,1.0,b,1.0,0.5533734000055119,,,,,,,,,,5.0,2.0,62.0,5.0,278.0682011000463,,,,,,,,,,,,,,,,,278.05251280002994,278.4017407000065,279.20203590003075,279.1857393000392,,,,,,,,,,,,,,,,,,,,,,,,,,,,,,,,,,,279.18743620003806,279.20203590003075,279.20203590003075,279.769055700046,b,1.0,0.5533734000055119,,,,,,sub-146,1,stroop_test,60.091603652556095,
,,,,63.0,3.0,5.0,,,,,,,,,,,,,blau,red,r,0.0,r,1.0,0.5484245999832638,,,,,,,,,,5.0,3.0,63.0,4.0,279.7851827000268,,,,,,,,,,,,,,,,,279.76924960000906,279.8681860000361,280.66842400003225,280.65220080001745,,,,,,,,,,,,,,,,,,,,,,,,,,,,,,,,,,,280.6524173000362,280.66842400003225,280.66842400003225,281.2191650000168,r,1.0,0.5484245999832638,,,,,,sub-146,1,stroop_test,60.091603652556095,
,,,,64.0,4.0,5.0,,,,,,,,,,,,,gelb,yellow,g,1.0,g,1.0,0.3620243000332266,,,,,,,,,,5.0,4.0,64.0,10.0,281.2348930000444,,,,,,,,,,,,,,,,,281.21932580001885,282.01856430002954,282.8180958000012,282.80330890003825,,,,,,,,,,,,,,,,,,,,,,,,,,,,,,,,,,,282.80477300001075,282.8180958000012,282.8180958000012,283.18605850002496,g,1.0,0.3620243000332266,,,,,,sub-146,1,stroop_test,60.091603652556095,
,,,,65.0,5.0,5.0,,,,,,,,,,,,,gelb,red,r,0.0,r,1.0,0.5217858999967575,,,,,,,,,,5.0,5.0,65.0,8.0,283.2016692000325,,,,,,,,,,,,,,,,,283.1862625000067,283.3018133000005,284.10171300004004,284.0854640000034,,,,,,,,,,,,,,,,,,,,,,,,,,,,,,,,,,,284.0857346000266,284.10171300004004,284.10171300004004,284.6354513000115,r,1.0,0.5217858999967575,,,,,,sub-146,1,stroop_test,60.091603652556095,
,,,,66.0,6.0,5.0,,,,,,,,,,,,,rot,yellow,g,0.0,g,1.0,0.3828073000186123,,,,,,,,,,5.0,6.0,66.0,3.0,284.65157550002914,,,,,,,,,,,,,,,,,284.6356148000341,285.4350739000365,286.2351838000468,286.2189715999993,,,,,,,,,,,,,,,,,,,,,,,,,,,,,,,,,,,286.2210548000294,286.2351838000468,286.2351838000468,286.6191637000302,g,1.0,0.3828073000186123,,,,,,sub-146,1,stroop_test,60.091603652556095,
,,,,67.0,7.0,5.0,,,,,,,,,,,,,gelb,yellow,g,1.0,g,1.0,0.5169179000076838,,,,,,,,,,5.0,7.0,67.0,11.0,286.6350500000408,,,,,,,,,,,,,,,,,286.61933900002623,287.8185407000128,288.61836360004963,288.60220820002723,,,,,,,,,,,,,,,,,,,,,,,,,,,,,,,,,,,288.6041257000179,288.61836360004963,288.61836360004963,289.15239900001325,g,1.0,0.5169179000076838,,,,,,sub-146,1,stroop_test,60.091603652556095,
,,,,68.0,8.0,5.0,,,,,,,,,,,,,blau,yellow,g,0.0,g,1.0,0.470733999973163,,,,,,,,,,5.0,8.0,68.0,7.0,289.1681868000305,,,,,,,,,,,,,,,,,289.1526085000369,289.25172320002457,290.0513704000041,290.0355185000226,,,,,,,,,,,,,,,,,,,,,,,,,,,,,,,,,,,290.03694420005195,290.0513704000041,290.0513704000041,290.53555710002547,g,1.0,0.470733999973163,,,,,,sub-146,1,stroop_test,60.091603652556095,
,,,,69.0,9.0,5.0,,,,,,,,,,,,,blau,blue,b,1.0,b,1.0,0.5092777999816462,,,,,,,,,,5.0,9.0,69.0,6.0,290.5516749000526,,,,,,,,,,,,,,,,,290.5357244000188,291.73461700003827,292.5349280000082,292.5187750000041,,,,,,,,,,,,,,,,,,,,,,,,,,,,,,,,,,,292.5189926000312,292.5349280000082,292.5349280000082,293.0524218000355,b,1.0,0.5092777999816462,,,,,,sub-146,1,stroop_test,60.091603652556095,
,,,,70.0,10.0,5.0,,,,,,,,,,,,,rot,blue,b,0.0,b,1.0,0.4182721000397578,,,,,,,,,,5.0,10.0,70.0,2.0,293.06818670005305,,,,,,,,,,,,,,,,,293.0527018000139,293.1517069000401,293.95158550003543,293.93534470000304,,,,,,,,,,,,,,,,,,,,,,,,,,,,,,,,,,,293.936779700045,293.95158550003543,293.95158550003543,294.38524080003845,b,1.0,0.4182721000397578,,,,,,sub-146,1,stroop_test,60.091603652556095,
,,,,71.0,11.0,5.0,,,,,,,,,,,,,gelb,blue,b,0.0,b,1.0,0.4975366999860853,,,,,,,,,,5.0,11.0,71.0,9.0,294.4016560000018,,,,,,,,,,,,,,,,,294.38541080005234,294.48483900004067,295.28456850000657,295.2682554000057,,,,,,,,,,,,,,,,,,,,,,,,,,,,,,,,,,,295.26964450004743,295.28456850000657,295.28456850000657,295.78517550003016,b,1.0,0.4975366999860853,,,,,,sub-146,1,stroop_test,60.091603652556095,
,,,,72.0,0.0,6.0,,,,,,,,,,,,,rot,yellow,g,0.0,g,1.0,0.7673374000005424,,,,,,,,,,6.0,0.0,72.0,3.0,295.8014035000233,,,,,,,,,,,,,,,,,295.7853456000448,296.58512340002926,297.38505610002903,297.36822820000816,,,,,,,,,,,,,,,,,,,,,,,,,,,,,,,,,,,297.36983900005,297.38505610002903,297.38505610002903,298.1688526000362,g,1.0,0.7673374000005424,,,,,,sub-146,1,stroop_test,60.091603652556095,
,,,,73.0,1.0,6.0,,,,,,,,,,,,,blau,red,r,0.0,r,1.0,0.5130211000214331,,,,,,,,,,6.0,1.0,73.0,4.0,298.1847898000269,,,,,,,,,,,,,,,,,298.1690239000018,298.26834560005227,299.0680246000411,299.05168750003213,,,,,,,,,,,,,,,,,,,,,,,,,,,,,,,,,,,299.0532741000061,299.0680246000411,299.0680246000411,299.58550820004893,r,1.0,0.5130211000214331,,,,,,sub-146,1,stroop_test,60.091603652556095,
,,,,74.0,2.0,6.0,,,,,,,,,,,,,blau,yellow,g,0.0,g,1.0,0.6634561999817379,,,,,,,,,,6.0,2.0,74.0,7.0,299.60157540004,,,,,,,,,,,,,,,,,299.5856751000392,300.7845650000381,301.5845249000122,301.56828090001363,,,,,,,,,,,,,,,,,,,,,,,,,,,,,,,,,,,301.56849980005063,301.5845249000122,301.5845249000122,302.2519874999998,g,1.0,0.6634561999817379,,,,,,sub-146,1,stroop_test,60.091603652556095,
,,,,75.0,3.0,6.0,,,,,,,,,,,,,blau,blue,b,1.0,b,1.0,0.6337779000168666,,,,,,,,,,6.0,3.0,75.0,5.0,302.2678519000183,,,,,,,,,,,,,,,,,302.2521712000016,303.45096580003155,304.2514228000073,304.2352647000225,,,,,,,,,,,,,,,,,,,,,,,,,,,,,,,,,,,304.2355637000292,304.2514228000073,304.2514228000073,304.9018814000301,b,1.0,0.6337779000168666,,,,,,sub-146,1,stroop_test,60.091603652556095,
,,,,76.0,4.0,6.0,,,,,,,,,,,,,rot,red,r,1.0,r,1.0,0.5563015000079758,,,,,,,,,,6.0,4.0,76.0,1.0,304.9178002999979,,,,,,,,,,,,,,,,,304.9020571000292,306.10107470001094,306.90149010001915,306.8853849000297,,,,,,,,,,,,,,,,,,,,,,,,,,,,,,,,,,,306.88704360002885,306.90149010001915,306.90149010001915,307.4687021000427,r,1.0,0.5563015000079758,,,,,,sub-146,1,stroop_test,60.091603652556095,
,,,,77.0,5.0,6.0,,,,,,,,,,,,,blau,blue,b,1.0,b,1.0,0.5934437999967486,,,,,,,,,,6.0,5.0,77.0,6.0,307.4845045999973,,,,,,,,,,,,,,,,,307.4688908000244,307.81815669999924,308.6179947000346,308.6016704000067,,,,,,,,,,,,,,,,,,,,,,,,,,,,,,,,,,,308.6032703000237,308.6179947000346,308.6179947000346,309.218854500039,b,1.0,0.5934437999967486,,,,,,sub-146,1,stroop_test,60.091603652556095,
,,,,78.0,6.0,6.0,,,,,,,,,,,,,gelb,red,r,0.0,r,1.0,0.5001730999792926,,,,,,,,,,6.0,6.0,78.0,8.0,309.23441680002725,,,,,,,,,,,,,,,,,309.2190286000259,309.3176940000267,310.1179986000061,310.1019328000257,,,,,,,,,,,,,,,,,,,,,,,,,,,,,,,,,,,310.10329270001967,310.1179986000061,310.1179986000061,310.634930500004,r,1.0,0.5001730999792926,,,,,,sub-146,1,stroop_test,60.091603652556095,
,,,,79.0,7.0,6.0,,,,,,,,,,,,,gelb,yellow,g,1.0,g,1.0,0.3616671000490896,,,,,,,,,,6.0,7.0,79.0,11.0,310.6512836000184,,,,,,,,,,,,,,,,,310.6350942000281,311.83466829999816,312.6344195000129,312.61843730002875,,,,,,,,,,,,,,,,,,,,,,,,,,,,,,,,,,,312.6188058000407,312.6344195000129,312.6344195000129,313.0016054000007,g,1.0,0.3616671000490896,,,,,,sub-146,1,stroop_test,60.091603652556095,
,,,,80.0,8.0,6.0,,,,,,,,,,,,,gelb,yellow,g,1.0,g,1.0,0.3449964000028558,,,,,,,,,,6.0,8.0,80.0,10.0,313.0174777000211,,,,,,,,,,,,,,,,,313.0017635000404,313.1010895000072,313.9013282000087,313.88510930002667,,,,,,,,,,,,,,,,,,,,,,,,,,,,,,,,,,,313.88539140002104,313.9013282000087,313.9013282000087,314.2518594000139,g,1.0,0.3449964000028558,,,,,,sub-146,1,stroop_test,60.091603652556095,
,,,,81.0,9.0,6.0,,,,,,,,,,,,,rot,blue,b,0.0,r,0.0,0.6292876999941655,,,,,,,,,,6.0,9.0,81.0,2.0,314.2680185000063,,,,,,,,,,,,,,,,,314.25201590004144,314.6014261000091,315.4011593000032,315.3851133999997,,,,,,,,,,,,,,,,,,,,,,,,,,,,,,,,,,,315.3870805000188,315.4011593000032,315.4011593000032,316.03497810004046,r,0.0,0.6292876999941655,,,,,,sub-146,1,stroop_test,60.091603652556095,
,,,,82.0,10.0,6.0,,,,,,,,,,,,,rot,red,r,1.0,b,0.0,0.7275734000140801,,,,,,,,,,6.0,10.0,82.0,0.0,316.0511033000075,,,,,,,,,,,,,,,,,316.03515300003346,317.23437750001904,318.0342079999973,318.01805100002093,,,,,,,,,,,,,,,,,,,,,,,,,,,,,,,,,,,318.0182475000038,318.0342079999973,318.0342079999973,318.76817260001553,b,0.0,0.7275734000140801,,,,,,sub-146,1,stroop_test,60.091603652556095,
,,,,83.0,11.0,6.0,,,,,,,,,,,,,gelb,blue,b,0.0,r,0.0,0.5515817000414245,,,,,,,,,,6.0,11.0,83.0,9.0,318.784159700037,,,,,,,,,,,,,,,,,318.7683248000103,318.86780240002554,319.66803170001367,319.65187480003806,,,,,,,,,,,,,,,,,,,,,,,,,,,,,,,,,,,319.6532817000407,319.66803170001367,319.66803170001367,320.2350860000006,r,0.0,0.5515817000414245,,,,,,sub-146,1,stroop_test,60.091603652556095,
,,,,84.0,0.0,7.0,,,,,,,,,,,,,rot,red,r,1.0,r,1.0,0.5500049000256695,,,,,,,,,,7.0,0.0,84.0,0.0,320.25114160001976,,,,,,,,,,,,,,,,,320.23525770002743,321.03414270002395,321.8345498000272,321.8184137000353,,,,,,,,,,,,,,,,,,,,,,,,,,,,,,,,,,,321.82012400001986,321.8345498000272,321.8345498000272,322.3868293000269,r,1.0,0.5500049000256695,,,,,,sub-146,1,stroop_test,60.091603652556095,
,,,,85.0,1.0,7.0,,,,,,,,,,,,,rot,blue,b,0.0,b,1.0,0.389919999986887,,,,,,,,,,7.0,1.0,85.0,2.0,322.4012113000499,,,,,,,,,,,,,,,,,322.3870987000409,323.6009348000516,324.40127090003807,324.3849066000548,,,,,,,,,,,,,,,,,,,,,,,,,,,,,,,,,,,324.3852022000356,324.40127090003807,324.40127090003807,324.80188230000203,b,1.0,0.389919999986887,,,,,,sub-146,1,stroop_test,60.091603652556095,
,,,,86.0,2.0,7.0,,,,,,,,,,,,,gelb,yellow,g,1.0,g,1.0,0.5631462999735959,,,,,,,,,,7.0,2.0,86.0,11.0,324.81791450001765,,,,,,,,,,,,,,,,,324.8020671000122,326.00119910005014,326.800961800036,326.7851420000079,,,,,,,,,,,,,,,,,,,,,,,,,,,,,,,,,,,326.78667739999946,326.800961800036,326.800961800036,327.3691218000022,g,1.0,0.5631462999735959,,,,,,sub-146,1,stroop_test,60.091603652556095,
,,,,87.0,3.0,7.0,,,,,,,,,,,,,gelb,yellow,g,1.0,g,1.0,0.628299199976027,,,,,,,,,,7.0,3.0,87.0,10.0,327.3843586000148,,,,,,,,,,,,,,,,,327.3693918000208,327.73432550003054,328.53460630000336,328.5185829999973,,,,,,,,,,,,,,,,,,,,,,,,,,,,,,,,,,,328.51903310004855,328.53460630000336,328.53460630000336,329.1680295000551,g,1.0,0.628299199976027,,,,,,sub-146,1,stroop_test,60.091603652556095,
,,,,88.0,4.0,7.0,,,,,,,,,,,,,rot,red,r,1.0,r,1.0,0.6223744000308216,,,,,,,,,,7.0,4.0,88.0,1.0,329.18422049999936,,,,,,,,,,,,,,,,,329.16823490004754,329.26783080003224,330.0673349000281,330.0510345000075,,,,,,,,,,,,,,,,,,,,,,,,,,,,,,,,,,,330.05435520003084,330.0673349000281,330.0673349000281,330.7017530000303,r,1.0,0.6223744000308216,,,,,,sub-146,1,stroop_test,60.091603652556095,
,,,,89.0,5.0,7.0,,,,,,,,,,,,,blau,yellow,g,0.0,g,1.0,0.516052299994044,,,,,,,,,,7.0,5.0,89.0,7.0,330.7177847000421,,,,,,,,,,,,,,,,,330.7019246999989,331.9011013000272,332.7009100000141,332.684634300007,,,,,,,,,,,,,,,,,,,,,,,,,,,,,,,,,,,332.68703620001907,332.7009100000141,332.7009100000141,333.21950610005297,g,1.0,0.516052299994044,,,,,,sub-146,1,stroop_test,60.091603652556095,
,,,,90.0,6.0,7.0,,,,,,,,,,,,,rot,yellow,g,0.0,g,1.0,0.463958200009074,,,,,,,,,,7.0,6.0,90.0,3.0,333.2340115000261,,,,,,,,,,,,,,,,,333.2197350000497,333.3343541000504,334.1344747000257,334.1181870000437,,,,,,,,,,,,,,,,,,,,,,,,,,,,,,,,,,,334.1196106999996,334.1344747000257,334.1344747000257,334.60192200000165,g,1.0,0.463958200009074,,,,,,sub-146,1,stroop_test,60.091603652556095,
,,,,91.0,7.0,7.0,,,,,,,,,,,,,gelb,red,r,0.0,r,1.0,0.5406425999826752,,,,,,,,,,7.0,7.0,91.0,8.0,334.6176392000052,,,,,,,,,,,,,,,,,334.6021607000148,335.8011929000495,336.60090730001684,336.5847960000392,,,,,,,,,,,,,,,,,,,,,,,,,,,,,,,,,,,336.5873864000314,336.60090730001684,336.60090730001684,337.15163830004167,r,1.0,0.5406425999826752,,,,,,sub-146,1,stroop_test,60.091603652556095,
,,,,92.0,8.0,7.0,,,,,,,,,,,,,blau,red,r,0.0,r,1.0,0.5017206000047736,,,,,,,,,,7.0,8.0,92.0,4.0,337.1680435000453,,,,,,,,,,,,,,,,,337.1518059000373,337.2509187000105,338.05111620004755,338.0349694000324,,,,,,,,,,,,,,,,,,,,,,,,,,,,,,,,,,,338.03632380004274,338.05111620004755,338.05111620004755,338.56845760002034,r,1.0,0.5017206000047736,,,,,,sub-146,1,stroop_test,60.091603652556095,
,,,,93.0,9.0,7.0,,,,,,,,,,,,,blau,blue,b,1.0,b,1.0,0.3798460999969393,,,,,,,,,,7.0,9.0,93.0,5.0,338.5841326000518,,,,,,,,,,,,,,,,,338.5686554000131,339.3674551000004,340.16740800003754,340.15115140000125,,,,,,,,,,,,,,,,,,,,,,,,,,,,,,,,,,,340.1513697000337,340.16740800003754,340.16740800003754,340.5516420000349,b,1.0,0.3798460999969393,,,,,,sub-146,1,stroop_test,60.091603652556095,
,,,,94.0,10.0,7.0,,,,,,,,,,,,,blau,blue,b,1.0,b,1.0,0.3658972000121139,,,,,,,,,,7.0,10.0,94.0,6.0,340.567357300024,,,,,,,,,,,,,,,,,340.55190660001244,341.35047030000715,342.15052250004373,342.1344945000019,,,,,,,,,,,,,,,,,,,,,,,,,,,,,,,,,,,342.1347434000345,342.15052250004373,342.15052250004373,342.51834200002486,b,1.0,0.3658972000121139,,,,,,sub-146,1,stroop_test,60.091603652556095,
,,,,95.0,11.0,7.0,,,,,,,,,,,,,gelb,blue,b,0.0,b,1.0,0.4659921000129543,,,,,,,,,,7.0,11.0,95.0,9.0,342.5341737000272,,,,,,,,,,,,,,,,,342.5185481000226,342.61784040002385,343.41725070000393,343.401530800038,,,,,,,,,,,,,,,,,,,,,,,,,,,,,,,,,,,343.4043755000457,343.41725070000393,343.41725070000393,343.8877232000232,b,1.0,0.4659921000129543,,,,,,sub-146,1,stroop_test,60.091603652556095,
,,,,96.0,0.0,8.0,,,,,,,,,,,,,rot,red,r,1.0,r,1.0,0.4997325000003911,,,,,,,,,,8.0,0.0,96.0,1.0,343.900558000023,,,,,,,,,,,,,,,,,343.8879298000247,344.2507348000072,345.0508571000537,345.0347151000169,,,,,,,,,,,,,,,,,,,,,,,,,,,,,,,,,,,345.0363407999976,345.0508571000537,345.0508571000537,345.55183050001506,r,1.0,0.4997325000003911,,,,,,sub-146,1,stroop_test,60.091603652556095,
,,,,97.0,1.0,8.0,,,,,,,,,,,,,gelb,yellow,g,1.0,g,1.0,0.4530668000224978,,,,,,,,,,8.0,1.0,97.0,11.0,345.5673240000033,,,,,,,,,,,,,,,,,345.5520155000268,345.9174063000246,346.7171969000483,346.7015538000269,,,,,,,,,,,,,,,,,,,,,,,,,,,,,,,,,,,346.7037336000358,346.7171969000483,346.7171969000483,347.18447120004566,g,1.0,0.4530668000224978,,,,,,sub-146,1,stroop_test,60.091603652556095,
,,,,98.0,2.0,8.0,,,,,,,,,,,,,blau,red,r,0.0,r,1.0,0.7333387000253424,,,,,,,,,,8.0,2.0,98.0,4.0,347.2003861000412,,,,,,,,,,,,,,,,,347.18463500001235,347.5338046000106,348.3342305000406,348.3183263000101,,,,,,,,,,,,,,,,,,,,,,,,,,,,,,,,,,,348.3206162000424,348.3342305000406,348.3342305000406,349.06961410003714,r,1.0,0.7333387000253424,,,,,,sub-146,1,stroop_test,60.091603652556095,
,,,,99.0,3.0,8.0,,,,,,,,,,,,,blau,yellow,g,0.0,g,1.0,0.5294782999553718,,,,,,,,,,8.0,3.0,99.0,7.0,349.0838447000133,,,,,,,,,,,,,,,,,349.0698191000265,349.88395730004413,350.6841055999976,350.66793830000097,,,,,,,,,,,,,,,,,,,,,,,,,,,,,,,,,,,350.6682792000356,350.6841055999976,350.6841055999976,351.2179757000413,g,1.0,0.5294782999553718,,,,,,sub-146,1,stroop_test,60.091603652556095,
,,,,100.0,4.0,8.0,,,,,,,,,,,,,rot,yellow,g,0.0,g,1.0,0.4622709999675862,,,,,,,,,,8.0,4.0,100.0,3.0,351.23412940005073,,,,,,,,,,,,,,,,,351.2181490000221,352.4174485000549,353.21747670002514,353.20063750003465,,,,,,,,,,,,,,,,,,,,,,,,,,,,,,,,,,,353.20204679999733,353.21747670002514,353.21747670002514,353.68472890002886,g,1.0,0.4622709999675862,,,,,,sub-146,1,stroop_test,60.091603652556095,
,,,,101.0,5.0,8.0,,,,,,,,,,,,,blau,blue,b,1.0,r,0.0,0.6929979000124149,,,,,,,,,,8.0,5.0,101.0,6.0,353.7008304000483,,,,,,,,,,,,,,,,,353.6848964000237,354.88417950004805,355.68400030001067,355.667901000008,,,,,,,,,,,,,,,,,,,,,,,,,,,,,,,,,,,355.6698562000529,355.68400030001067,355.68400030001067,356.3846735000261,r,0.0,0.6929979000124149,,,,,,sub-146,1,stroop_test,60.091603652556095,
,,,,102.0,6.0,8.0,,,,,,,,,,,,,gelb,red,r,0.0,r,1.0,0.5680551999830641,,,,,,,,,,8.0,6.0,102.0,8.0,356.4004713000031,,,,,,,,,,,,,,,,,356.3849025000236,357.183543000021,357.9840425000293,357.96770200005267,,,,,,,,,,,,,,,,,,,,,,,,,,,,,,,,,,,357.969087400008,357.9840425000293,357.9840425000293,358.5680857000407,r,1.0,0.5680551999830641,,,,,,sub-146,1,stroop_test,60.091603652556095,
,,,,103.0,7.0,8.0,,,,,,,,,,,,,blau,blue,b,1.0,b,1.0,0.3756900000153109,,,,,,,,,,8.0,7.0,103.0,5.0,358.5838100000401,,,,,,,,,,,,,,,,,358.5683692000457,359.3673567000078,360.167222100019,360.15146680001635,,,,,,,,,,,,,,,,,,,,,,,,,,,,,,,,,,,360.1535877000424,360.167222100019,360.167222100019,360.5514787000138,b,1.0,0.3756900000153109,,,,,,sub-146,1,stroop_test,60.091603652556095,
,,,,104.0,8.0,8.0,,,,,,,,,,,,,gelb,blue,b,0.0,b,1.0,0.4289366999873891,,,,,,,,,,8.0,8.0,104.0,9.0,360.567044800031,,,,,,,,,,,,,,,,,360.5516541000106,360.6505985000404,361.45059070002753,361.4342018000316,,,,,,,,,,,,,,,,,,,,,,,,,,,,,,,,,,,361.4356470000348,361.45059070002753,361.45059070002753,361.88465300004464,b,1.0,0.4289366999873891,,,,,,sub-146,1,stroop_test,60.091603652556095,
,,,,105.0,9.0,8.0,,,,,,,,,,,,,rot,red,r,1.0,r,1.0,0.5217243999941275,,,,,,,,,,8.0,9.0,105.0,0.0,361.9005950000137,,,,,,,,,,,,,,,,,361.88483220001217,362.2505845000269,363.0507376000169,363.0341019000043,,,,,,,,,,,,,,,,,,,,,,,,,,,,,,,,,,,363.035568100051,363.0507376000169,363.0507376000169,363.5848263000371,r,1.0,0.5217243999941275,,,,,,sub-146,1,stroop_test,60.091603652556095,
,,,,106.0,10.0,8.0,,,,,,,,,,,,,rot,blue,b,0.0,r,0.0,0.6971436999738216,,,,,,,,,,8.0,10.0,106.0,2.0,363.6005957000307,,,,,,,,,,,,,,,,,363.5850372000132,364.783734800003,365.5837039000471,365.5676496000378,,,,,,,,,,,,,,,,,,,,,,,,,,,,,,,,,,,365.5679423000547,365.5837039000471,365.5837039000471,366.2842375000473,r,0.0,0.6971436999738216,,,,,,sub-146,1,stroop_test,60.091603652556095,
,,,,107.0,11.0,8.0,,,,,,,,,,,,,gelb,yellow,g,1.0,g,1.0,0.642541799985338,,,,,,,,,,8.0,11.0,107.0,10.0,366.3005226000096,,,,,,,,,,,,,,,,,366.2843899000436,367.08375760004856,367.8837370999972,367.8679044000455,,,,,,,,,,,,,,,,,,,,,,,,,,,,,,,,,,,367.8708249000483,367.8837370999972,367.8837370999972,368.5346817000536,g,1.0,0.642541799985338,,,,,,sub-146,1,stroop_test,60.091603652556095,
,,,,108.0,0.0,9.0,,,,,,,,,,,,,rot,yellow,g,0.0,g,1.0,0.7957448000088334,,,,,,,,,,9.0,0.0,108.0,3.0,368.5505970000522,,,,,,,,,,,,,,,,,368.5349106000504,368.8836935000145,369.6837233999977,369.6677590000327,,,,,,,,,,,,,,,,,,,,,,,,,,,,,,,,,,,369.6696967000025,369.6837233999977,369.6837233999977,370.4847455000272,g,1.0,0.7957448000088334,,,,,,sub-146,1,stroop_test,60.091603652556095,
,,,,109.0,1.0,9.0,,,,,,,,,,,,,rot,blue,b,0.0,r,0.0,0.5911157000227831,,,,,,,,,,9.0,1.0,109.0,2.0,370.5005092000356,,,,,,,,,,,,,,,,,370.48496060003527,371.300189200032,372.0999760000268,372.0836751000024,,,,,,,,,,,,,,,,,,,,,,,,,,,,,,,,,,,372.0838857000344,372.0999760000268,372.0999760000268,372.7013346000458,r,0.0,0.5911157000227831,,,,,,sub-146,1,stroop_test,60.091603652556095,
,,,,110.0,2.0,9.0,,,,,,,,,,,,,blau,blue,b,1.0,r,0.0,0.6629031000193208,,,,,,,,,,9.0,2.0,110.0,6.0,372.7171093000216,,,,,,,,,,,,,,,,,372.7015471000341,373.5001689000055,374.29994360002456,374.2835817000014,,,,,,,,,,,,,,,,,,,,,,,,,,,,,,,,,,,374.2850152000319,374.29994360002456,374.29994360002456,374.9676558000501,r,0.0,0.6629031000193208,,,,,,sub-146,1,stroop_test,60.091603652556095,
,,,,111.0,3.0,9.0,,,,,,,,,,,,,gelb,yellow,g,1.0,g,1.0,0.5249284000019543,,,,,,,,,,9.0,3.0,111.0,11.0,374.9837043000152,,,,,,,,,,,,,,,,,374.96782860002713,375.7671452000504,376.5670935000526,376.5509336000541,,,,,,,,,,,,,,,,,,,,,,,,,,,,,,,,,,,376.553115000017,376.5670935000526,376.5670935000526,377.1008751000045,g,1.0,0.5249284000019543,,,,,,sub-146,1,stroop_test,60.091603652556095,
,,,,112.0,4.0,9.0,,,,,,,,,,,,,rot,red,r,1.0,r,1.0,0.563829299993813,,,,,,,,,,9.0,4.0,112.0,1.0,377.1172061000252,,,,,,,,,,,,,,,,,377.10104880004656,377.899930900021,378.7001499000471,378.6842619000236,,,,,,,,,,,,,,,,,,,,,,,,,,,,,,,,,,,378.6861034000176,378.7001499000471,378.7001499000471,379.2676881000516,r,1.0,0.563829299993813,,,,,,sub-146,1,stroop_test,60.091603652556095,
,,,,113.0,5.0,9.0,,,,,,,,,,,,,gelb,yellow,g,1.0,g,1.0,0.6523130999994464,,,,,,,,,,9.0,5.0,113.0,10.0,379.28330470004585,,,,,,,,,,,,,,,,,379.2679818000179,379.3667165000225,380.1674729000079,380.15080890001263,,,,,,,,,,,,,,,,,,,,,,,,,,,,,,,,,,,380.15278140001465,380.1674729000079,380.1674729000079,380.8343981000362,g,1.0,0.6523130999994464,,,,,,sub-146,1,stroop_test,60.091603652556095,
,,,,114.0,6.0,9.0,,,,,,,,,,,,,blau,yellow,g,0.0,g,1.0,0.8694602000177838,,,,,,,,,,9.0,6.0,114.0,7.0,380.8502506000223,,,,,,,,,,,,,,,,,380.8345810000319,381.6335255000158,382.433482500026,382.4171721000457,,,,,,,,,,,,,,,,,,,,,,,,,,,,,,,,,,,382.418484600028,382.433482500026,382.433482500026,383.31693080003606,g,1.0,0.8694602000177838,,,,,,sub-146,1,stroop_test,60.091603652556095,
,,,,115.0,7.0,9.0,,,,,,,,,,,,,gelb,red,r,0.0,r,1.0,0.7237256999942474,,,,,,,,,,9.0,7.0,115.0,8.0,383.3332047000295,,,,,,,,,,,,,,,,,383.31716760003474,383.66678700002376,384.46675120003056,384.4512542000157,,,,,,,,,,,,,,,,,,,,,,,,,,,,,,,,,,,384.4537258000346,384.46675120003056,384.46675120003056,385.20109310001135,r,1.0,0.7237256999942474,,,,,,sub-146,1,stroop_test,60.091603652556095,
,,,,116.0,8.0,9.0,,,,,,,,,,,,,rot,red,r,1.0,r,1.0,0.9295248999842444,,,,,,,,,,9.0,8.0,116.0,0.0,385.2171493000351,,,,,,,,,,,,,,,,,385.2012581000454,385.29984940000577,386.0998714000452,386.0834367000498,,,,,,,,,,,,,,,,,,,,,,,,,,,,,,,,,,,386.0848249000264,386.0998714000452,386.0998714000452,387.0339614000404,r,1.0,0.9295248999842444,,,,,,sub-146,1,stroop_test,60.091603652556095,
,,,,117.0,9.0,9.0,,,,,,,,,,,,,blau,blue,b,1.0,b,1.0,0.3796697999932803,,,,,,,,,,9.0,9.0,117.0,5.0,387.049818200001,,,,,,,,,,,,,,,,,387.0341143000405,388.2332548000268,389.0333335000323,389.0168477999978,,,,,,,,,,,,,,,,,,,,,,,,,,,,,,,,,,,389.018114000035,389.0333335000323,389.0333335000323,389.4170568000409,b,1.0,0.3796697999932803,,,,,,sub-146,1,stroop_test,60.091603652556095,
,,,,118.0,10.0,9.0,,,,,,,,,,,,,blau,red,r,0.0,r,1.0,0.6985377999953926,,,,,,,,,,9.0,10.0,118.0,4.0,389.4331404000404,,,,,,,,,,,,,,,,,389.4172194999992,389.76646030001575,390.5665001000161,390.5499751000316,,,,,,,,,,,,,,,,,,,,,,,,,,,,,,,,,,,390.55017290002434,390.5665001000161,390.5665001000161,391.26690889999736,r,1.0,0.6985377999953926,,,,,,sub-146,1,stroop_test,60.091603652556095,
,,,,119.0,11.0,9.0,,,,,,,,,,,,,gelb,blue,b,0.0,b,1.0,0.5453373999916948,,,,,,,,,,9.0,11.0,119.0,9.0,391.2831048000371,,,,,,,,,,,,,,,,,391.26715060003335,391.3664095000131,392.1663191000116,392.1500677000149,,,,,,,,,,,,,,,,,,,,,,,,,,,,,,,,,,,392.1524325000355,392.1663191000116,392.1663191000116,392.7169873000239,b,1.0,0.5453373999916948,,,,,,sub-146,1,stroop_test,60.091603652556095,
,,,,,,,,,,,,,,,,,,,,,,,,,,,,,,,,,,,,,,,,,,,,,,,,,,,,,,,,,,,,,,,,,,,,,,,,,,,,,,,,,,,,,,,,,,,,,,,,,,,,,,392.7171097000246,392.73310070001753,397.7331161000184,397.7165941999992,sub-146,1,stroop_test,60.091603652556095,
