wordCTK,colorCTK,corrAnsCTK,congruentCTK,thisN,thisTrialN,thisRepN,keyResp_CTK.keys,keyResp_CTK.corr,keyResp_CTK.rt,keyResp_CTK.duration,wordPractice,colorPractice,corrAnsPractice,congruentPractice,respPractice.keys,respPractice.corr,respPractice.rt,respPractice.duration,word,color,corrAns,congruent,keyResp_test_run.keys,keyResp_test_run.corr,keyResp_test_run.rt,keyResp_test_run.duration,trials_CTK.thisRepN,trials_CTK.thisTrialN,trials_CTK.thisN,trials_CTK.thisIndex,trials_practice.thisRepN,trials_practice.thisTrialN,trials_practice.thisN,trials_practice.thisIndex,trials_test.thisRepN,trials_test.thisTrialN,trials_test.thisN,trials_test.thisIndex,thisRow.t,notes,instruction.started,instr_text.started,instr_image.started,instr_resp.started,instruction.stopped,instr_resp.keys,instr_resp.rt,instr_resp.duration,instr_color_to_key.started,instr_ctk.started,resp_ctk.started,instr_color_to_key.stopped,resp_ctk.keys,resp_ctk.rt,resp_ctk.duration,ITI.started,fixcross.started,fixcross.stopped,ITI.stopped,color_to_key_run.started,stimulus_CTK.started,keyResp_CTK.started,color_to_key_run.stopped,trials_CTK.keyResp_CTK.keys,trials_CTK.keyResp_CTK.corr,trials_CTK.keyResp_CTK.rt,trials_CTK.keyResp_CTK.duration,instr_practice.started,instr_practice_text.started,instr_practice_resp.started,instr_practice.stopped,instr_practice_resp.keys,instr_practice_resp.rt,instr_practice_resp.duration,practice_run.started,stimulus_practice.started,respPractice.started,practice_run.stopped,trials_practice.respPractice.keys,trials_practice.respPractice.corr,trials_practice.respPractice.rt,trials_practice.respPractice.duration,feedback.started,textFeedback.started,feedback.stopped,textFeedback.stopped,instr_test.started,instr_test_text.started,instr_test_resp.started,instr_test.stopped,instr_test_resp.keys,instr_test_resp.rt,instr_test_resp.duration,test_run.started,stimulus_test_run.started,keyResp_test_run.started,test_run.stopped,trials_test.keyResp_test_run.keys,trials_test.keyResp_test_run.corr,trials_test.keyResp_test_run.rt,trials_test.keyResp_test_run.duration,goodbye.started,textGoodbye.started,textGoodbye.stopped,goodbye.stopped,participant,session,expName,frameRate,Unnamed: 113
,,,,,,,,,,,,,,,,,,,,,,,,,,,,,,,,,,,,,,,,,0.0050872000865638,0.0342667000368237,0.0342667000368237,0.0342667000368237,11.160551600158216,space,11.109973900020124,,,,,,,,,,,,,,,,,,,,,,,,,,,,,,,,,,,,,,,,,,,,,,,,,,,,,,,,,,,sub-065,1,stroop_test,59.95512960228432,
,,,,,,,,,,,,,,,,,,,,,,,,,,,,,,,,,,,,,,,,,,,,,,,,,11.160613800166177,11.17137400014326,11.17137400014326,18.46273330016993,space,7.28031999990344,,,,,,,,,,,,,,,,,,,,,,,,,,,,,,,,,,,,,,,,,,,,,,,,,,,,sub-065,1,stroop_test,59.95512960228432,
test,yellow,g,1.0,0.0,0.0,0.0,g,1.0,1.208007900044322,,,,,,,,,,,,,,,,,,0.0,0.0,0.0,1.0,,,,,,,,,18.494318300159648,,,,,,,,,,,,,,,,,18.489024500129744,19.278108000056815,20.08863959996961,20.0631921000313,20.079065900063146,20.08863959996961,20.08863959996961,21.312258700141683,g,1.0,1.208007900044322,,,,,,,,,,,,,,,,,,,,,,,,,,,,,,,,,,,,,,,,sub-065,1,stroop_test,59.95512960228432,
test,blue,b,1.0,1.0,1.0,0.0,b,1.0,1.2548832998145372,,,,,,,,,,,,,,,,,,0.0,1.0,1.0,2.0,,,,,,,,,21.327811000170183,,,,,,,,,,,,,,,,,21.31253150012344,21.662361199967563,22.462290200171992,22.44575359998271,22.446076800115407,22.462290200171992,22.462290200171992,23.73020500014536,b,1.0,1.2548832998145372,,,,,,,,,,,,,,,,,,,,,,,,,,,,,,,,,,,,,,,,sub-065,1,stroop_test,59.95512960228432,
test,red,r,1.0,2.0,2.0,0.0,r,1.0,0.4417815001215786,,,,,,,,,,,,,,,,,,0.0,2.0,2.0,0.0,,,,,,,,,23.745759800076485,,,,,,,,,,,,,,,,,23.73049910017289,24.545206899987534,25.3447490001563,25.329464700073004,25.329782500164583,25.3447490001563,25.3447490001563,25.795915100025013,r,1.0,0.4417815001215786,,,,,,,,,,,,,,,,,,,,,,,,,,,,,,,,,,,,,,,,sub-065,1,stroop_test,59.95512960228432,
test,red,r,1.0,3.0,0.0,1.0,r,1.0,0.5887378000188619,,,,,,,,,,,,,,,,,,1.0,0.0,3.0,0.0,,,,,,,,,25.81239310000092,,,,,,,,,,,,,,,,,25.79611830017529,26.59497130010277,27.396251500118524,27.380173800047487,27.38061810005456,27.396251500118524,27.396251500118524,27.99609520006925,r,1.0,0.5887378000188619,,,,,,,,,,,,,,,,,,,,,,,,,,,,,,,,,,,,,,,,sub-065,1,stroop_test,59.95512960228432,
test,yellow,g,1.0,4.0,1.0,1.0,g,1.0,1.2118913999293,,,,,,,,,,,,,,,,,,1.0,1.0,4.0,1.0,,,,,,,,,28.0117436000146,,,,,,,,,,,,,,,,,27.99630530015565,29.194893300067637,30.011649599997327,29.99470779998228,29.995038700057197,30.011649599997327,30.011649599997327,31.22925730003044,g,1.0,1.2118913999293,,,,,,,,,,,,,,,,,,,,,,,,,,,,,,,,,,,,,,,,sub-065,1,stroop_test,59.95512960228432,
test,blue,b,1.0,5.0,2.0,1.0,b,1.0,0.4509159999433905,,,,,,,,,,,,,,,,,,1.0,2.0,5.0,2.0,,,,,,,,,31.24613740015775,,,,,,,,,,,,,,,,,31.22948540002108,32.42879629996605,33.22800060012378,33.2122824001126,33.21259959996678,33.22800060012378,33.22800060012378,33.6809831999708,b,1.0,0.4509159999433905,,,,,,,,,,,,,,,,,,,,,,,,,,,,,,,,,,,,,,,,sub-065,1,stroop_test,59.95512960228432,
test,yellow,g,1.0,6.0,0.0,2.0,g,1.0,0.7677753998432308,,,,,,,,,,,,,,,,,,2.0,0.0,6.0,1.0,,,,,,,,,33.69517210009508,,,,,,,,,,,,,,,,,33.68127030017786,34.4951758000534,35.294501499971375,35.27931270003319,35.27960730018094,35.294501499971375,35.294501499971375,36.06469300016761,g,1.0,0.7677753998432308,,,,,,,,,,,,,,,,,,,,,,,,,,,,,,,,,,,,,,,,sub-065,1,stroop_test,59.95512960228432,
test,red,r,1.0,7.0,1.0,2.0,r,1.0,0.4825127001386136,,,,,,,,,,,,,,,,,,2.0,1.0,7.0,0.0,,,,,,,,,36.07888280018233,,,,,,,,,,,,,,,,,36.06489310017787,36.4276533999946,37.22922040009871,37.212367200059816,37.212714000139385,37.22922040009871,37.22922040009871,37.71397539996542,r,1.0,0.4825127001386136,,,,,,,,,,,,,,,,,,,,,,,,,,,,,,,,,,,,,,,,sub-065,1,stroop_test,59.95512960228432,
test,blue,b,1.0,8.0,2.0,2.0,b,1.0,0.7390920000616461,,,,,,,,,,,,,,,,,,2.0,2.0,8.0,2.0,,,,,,,,,37.72805789997801,,,,,,,,,,,,,,,,,37.714318400016055,37.82847300008871,38.62806380004622,38.61210920009762,38.61315420013853,38.62806380004622,38.62806380004622,39.379670600174,b,1.0,0.7390920000616461,,,,,,,,,,,,,,,,,,,,,,,,,,,,,,,,,,,,,,,,sub-065,1,stroop_test,59.95512960228432,
test,yellow,g,1.0,9.0,0.0,3.0,g,1.0,0.8848200000356883,,,,,,,,,,,,,,,,,,3.0,0.0,9.0,1.0,,,,,,,,,39.39452220010571,,,,,,,,,,,,,,,,,39.37988380016759,39.49487489997409,40.29466650006361,40.27932219998911,40.279655599966645,40.29466650006361,40.29466650006361,41.19604260008782,g,1.0,0.8848200000356883,,,,,,,,,,,,,,,,,,,,,,,,,,,,,,,,,,,,,,,,sub-065,1,stroop_test,59.95512960228432,
test,red,r,1.0,10.0,1.0,3.0,r,1.0,0.5389529999811202,,,,,,,,,,,,,,,,,,3.0,1.0,10.0,0.0,,,,,,,,,41.21148780011572,,,,,,,,,,,,,,,,,41.19627530011349,41.29605740006082,42.0954478001222,42.07969569996931,42.0800779000856,42.0954478001222,42.0954478001222,42.6451481000986,r,1.0,0.5389529999811202,,,,,,,,,,,,,,,,,,,,,,,,,,,,,,,,,,,,,,,,sub-065,1,stroop_test,59.95512960228432,
test,blue,b,1.0,11.0,2.0,3.0,b,1.0,0.714881099993363,,,,,,,,,,,,,,,,,,3.0,2.0,11.0,2.0,,,,,,,,,42.66250910004601,,,,,,,,,,,,,,,,,42.64535660017282,42.744673600187525,43.54466080013663,43.52855859999545,43.52969520003535,43.54466080013663,43.54466080013663,44.26351419999264,b,1.0,0.714881099993363,,,,,,,,,,,,,,,,,,,,,,,,,,,,,,,,,,,,,,,,sub-065,1,stroop_test,59.95512960228432,
,,,,,,,,,,,,,,,,,,,,,,,,,,,,,,,,,,,,,,,,,,,,,,,,,,,,,,,,,,,,,,,,,,,,44.26362209999934,44.27748250006698,44.27748250006698,49.72917419997975,space,5.434621100081131,,,,,,,,,,,,,,,,,,,,,,,,,,,,,,,,,sub-065,1,stroop_test,59.95512960228432,
,,,,0.0,0.0,0.0,,,,,rot,red,r,1.0,r,1.0,1.5269979999866337,,,,,,,,,,,,,,0.0,0.0,0.0,0.0,,,,,49.746283299988136,,,,,,,,,,,,,,,,,49.73928530002013,50.09415390016511,50.89380770013668,50.8787601001095,,,,,,,,,,,,,,,,50.88439920009114,50.89380770013668,50.89380770013668,52.42851920006797,r,1.0,1.5269979999866337,,52.436698500067,52.444848800078034,53.428792000049725,,,,,,,,,,,,,,,,,,,,,sub-065,1,stroop_test,59.95512960228432,
,,,,1.0,1.0,0.0,,,,,blau,blue,b,1.0,b,1.0,0.8309125998057425,,,,,,,,,,,,,,0.0,1.0,1.0,5.0,,,,,53.44518240005709,,,,,,,,,,,,,,,,,53.4291632999666,54.22772660013288,55.02815810008906,55.01184800011106,,,,,,,,,,,,,,,,55.01807610015385,55.02815810008906,55.02815810008906,55.86244060005993,b,1.0,0.8309125998057425,,55.86278510000557,55.878100499976426,56.861774699995294,56.87686960003339,,,,,,,,,,,,,,,,,,,,sub-065,1,stroop_test,59.95512960228432,
,,,,2.0,2.0,0.0,,,,,blau,yellow,g,0.0,b,0.0,0.94360339990817,,,,,,,,,,,,,,0.0,2.0,2.0,7.0,,,,,56.87686960003339,,,,,,,,,,,,,,,,,56.86200459999964,58.06178140011616,58.861325200181454,58.84556829999201,,,,,,,,,,,,,,,,58.84595390013419,58.861325200181454,58.861325200181454,59.81223720009439,b,0.0,0.94360339990817,,59.82367940014228,59.83163350005634,60.8279967000708,,,,,,,,,,,,,,,,,,,,,sub-065,1,stroop_test,59.95512960228432,
,,,,3.0,3.0,0.0,,,,,blau,red,r,0.0,r,1.0,1.0434777999762446,,,,,,,,,,,,,,0.0,3.0,3.0,4.0,,,,,60.843931700102985,,,,,,,,,,,,,,,,,60.828270100057125,61.161703899968415,61.96178390015848,61.94554980006069,,,,,,,,,,,,,,,,61.94593980000354,61.96178390015848,61.96178390015848,63.01311490009539,r,1.0,1.0434777999762446,,63.015962900128216,63.02676420006901,64.01237240014598,64.02779219998047,,,,,,,,,,,,,,,,,,,,sub-065,1,stroop_test,59.95512960228432,
,,,,4.0,4.0,0.0,,,,,gelb,red,r,0.0,r,1.0,0.5499094999395311,,,,,,,,,,,,,,0.0,4.0,4.0,8.0,,,,,64.02779219998047,,,,,,,,,,,,,,,,,64.01273089996539,64.37868500011973,65.17852280009538,65.16272950009443,,,,,,,,,,,,,,,,65.1659215001855,65.17852280009538,65.17852280009538,65.74496969999745,r,1.0,0.5499094999395311,,65.74532050010748,65.76058180001564,66.74544800003059,66.7610262001399,,,,,,,,,,,,,,,,,,,,sub-065,1,stroop_test,59.95512960228432,
,,,,5.0,5.0,0.0,,,,,blau,blue,b,1.0,b,1.0,0.8931208001449704,,,,,,,,,,,,,,0.0,5.0,5.0,6.0,,,,,66.7610262001399,,,,,,,,,,,,,,,,,66.74565180018544,66.84518020018004,67.66072889999487,67.64476920012385,,,,,,,,,,,,,,,,67.64653190015815,67.66072889999487,67.66072889999487,68.56204630015418,b,1.0,0.8931208001449704,,68.56235600006767,68.57709880010225,69.56235880008899,,,,,,,,,,,,,,,,,,,,,sub-065,1,stroop_test,59.95512960228432,
,,,,6.0,6.0,0.0,,,,,rot,yellow,g,0.0,g,1.0,0.8596425999421626,,,,,,,,,,,,,,0.0,6.0,6.0,3.0,,,,,69.57877940009348,,,,,,,,,,,,,,,,,69.56276340014301,70.37733589997515,71.17790700006299,71.16290540015325,,,,,,,,,,,,,,,,71.16590850008652,71.17790700006299,71.17790700006299,72.04547210014425,g,1.0,0.8596425999421626,,72.04576890007593,72.06058350019157,73.045551400166,73.06138640013523,,,,,,,,,,,,,,,,,,,,sub-065,1,stroop_test,59.95512960228432,
,,,,7.0,7.0,0.0,,,,,rot,red,r,1.0,r,1.0,0.6380153000354767,,,,,,,,,,,,,,0.0,7.0,7.0,1.0,,,,,73.06138640013523,,,,,,,,,,,,,,,,,73.04584200005047,73.41149480012245,74.2112930000294,74.19521020003594,,,,,,,,,,,,,,,,74.19559600017965,74.2112930000294,74.2112930000294,74.86139760003425,r,1.0,0.6380153000354767,,74.86177509999834,74.87833259999752,75.87781690014526,,,,,,,,,,,,,,,,,,,,,sub-065,1,stroop_test,59.95512960228432,
,,,,8.0,8.0,0.0,,,,,gelb,blue,b,0.0,b,1.0,1.4801052000839263,,,,,,,,,,,,,,0.0,8.0,8.0,9.0,,,,,75.89456070004962,,,,,,,,,,,,,,,,,75.87812949996442,75.96059070015326,76.75994849996641,76.74479530006647,,,,,,,,,,,,,,,,76.7466591000557,76.75994849996641,76.75994849996641,78.2457722001709,b,1.0,1.4801052000839263,,78.24607240012847,78.26063979999162,79.24501570011489,79.26086740009487,,,,,,,,,,,,,,,,,,,,sub-065,1,stroop_test,59.95512960228432,
,,,,9.0,9.0,0.0,,,,,gelb,yellow,g,1.0,g,1.0,1.311518399976194,,,,,,,,,,,,,,0.0,9.0,9.0,11.0,,,,,79.26086740009487,,,,,,,,,,,,,,,,,79.24535059998743,79.34596180007793,80.16077840002254,80.14468999998644,,,,,,,,,,,,,,,,80.14498730003834,80.16077840002254,80.16077840002254,81.47880910011008,g,1.0,1.311518399976194,,81.47911170008592,81.49389889999293,82.47840640018694,82.49462720006704,,,,,,,,,,,,,,,,,,,,sub-065,1,stroop_test,59.95512960228432,
,,,,10.0,10.0,0.0,,,,,rot,blue,b,0.0,b,1.0,1.125030699884519,,,,,,,,,,,,,,0.0,10.0,10.0,2.0,,,,,82.49462720006704,,,,,,,,,,,,,,,,,82.47866060002707,82.84384680003859,83.647106599994,83.62911650002934,,,,,,,,,,,,,,,,83.63124960009009,83.647106599994,83.647106599994,84.78089960012585,b,1.0,1.125030699884519,,84.78134550014511,84.79513159999624,85.7783906001132,85.79350730008446,,,,,,,,,,,,,,,,,,,,sub-065,1,stroop_test,59.95512960228432,
,,,,11.0,11.0,0.0,,,,,gelb,yellow,g,1.0,g,1.0,0.7779629998840392,,,,,,,,,,,,,,0.0,11.0,11.0,10.0,,,,,85.79350730008446,,,,,,,,,,,,,,,,,85.77864360017702,85.8944674001541,86.6941884001717,86.67778240004554,,,,,,,,,,,,,,,,86.67973039997742,86.6941884001717,86.6941884001717,87.47867830004543,g,1.0,0.7779629998840392,,87.47901780018583,87.49399400013499,88.47865199996158,88.49498170008883,,,,,,,,,,,,,,,,,,,,sub-065,1,stroop_test,59.95512960228432,
,,,,12.0,0.0,1.0,,,,,gelb,yellow,g,1.0,g,1.0,0.6498040000442415,,,,,,,,,,,,,,1.0,0.0,12.0,10.0,,,,,88.49498170008883,,,,,,,,,,,,,,,,,88.47894300008193,89.29466460016556,90.09405830013566,90.07810270017944,,,,,,,,,,,,,,,,90.07839090004563,90.09405830013566,90.09405830013566,90.74635830009356,g,1.0,0.6498040000442415,,90.7466891000513,90.76015750016086,91.7444762000814,91.76013730000705,,,,,,,,,,,,,,,,,,,,sub-065,1,stroop_test,59.95512960228432,
,,,,13.0,1.0,1.0,,,,,gelb,blue,b,0.0,b,1.0,0.5017063000705093,,,,,,,,,,,,,,1.0,1.0,13.0,9.0,,,,,91.76013730000705,,,,,,,,,,,,,,,,,91.74476979998872,92.56069090007804,93.3604664001614,93.34471049997956,,,,,,,,,,,,,,,,93.34507060004398,93.3604664001614,93.3604664001614,93.87853540014476,b,1.0,0.5017063000705093,,93.87888780003414,93.89368670014665,94.87777570006438,94.89417700003833,,,,,,,,,,,,,,,,,,,,sub-065,1,stroop_test,59.95512960228432,
,,,,14.0,2.0,1.0,,,,,blau,red,r,0.0,r,1.0,0.3710747000295669,,,,,,,,,,,,,,1.0,2.0,14.0,4.0,,,,,94.89417700003833,,,,,,,,,,,,,,,,,94.87803170015104,95.69339270005004,96.49516100017354,96.4797733000014,,,,,,,,,,,,,,,,96.48196350014769,96.49516100017354,96.49516100017354,96.87960100010967,r,1.0,0.3710747000295669,,96.87989730015396,96.89494410017504,97.87849600007758,97.8950881001074,,,,,,,,,,,,,,,,,,,,sub-065,1,stroop_test,59.95512960228432,
,,,,15.0,3.0,1.0,,,,,gelb,red,r,0.0,r,1.0,0.5244690999388695,,,,,,,,,,,,,,1.0,3.0,15.0,8.0,,,,,97.8950881001074,,,,,,,,,,,,,,,,,97.87871970003472,99.07868740009144,99.87799510010518,99.86225270014256,,,,,,,,,,,,,,,,99.86415250017308,99.87799510010518,99.87799510010518,100.41215190012008,r,1.0,0.5244690999388695,,100.41254340019076,100.42807999998332,101.41165250004268,101.42702880012804,,,,,,,,,,,,,,,,,,,,sub-065,1,stroop_test,59.95512960228432,
,,,,16.0,4.0,1.0,,,,,blau,blue,b,1.0,b,1.0,0.8055213000625372,,,,,,,,,,,,,,1.0,4.0,16.0,6.0,,,,,101.42702880012804,,,,,,,,,,,,,,,,,101.41196299996228,101.5266627999954,102.32626810017972,102.31078900001012,,,,,,,,,,,,,,,,102.31321629998274,102.32626810017972,102.32626810017972,103.1446865000762,b,1.0,0.8055213000625372,,103.14504830003716,103.15963720018044,104.14407879998907,104.15983740007503,,,,,,,,,,,,,,,,,,,,sub-065,1,stroop_test,59.95512960228432,
,,,,17.0,5.0,1.0,,,,,rot,red,r,1.0,r,1.0,0.5384976000059396,,,,,,,,,,,,,,1.0,5.0,17.0,1.0,,,,,104.15983740007503,,,,,,,,,,,,,,,,,104.14428620017134,104.9442730001174,105.74285849998704,105.72790100006388,,,,,,,,,,,,,,,,105.73060080013238,105.74285849998704,105.74285849998704,106.29585650004448,r,1.0,0.5384976000059396,,106.29631530004552,106.30993480002508,107.29404810001142,107.31042640004308,,,,,,,,,,,,,,,,,,,,sub-065,1,stroop_test,59.95512960228432,
,,,,18.0,6.0,1.0,,,,,blau,blue,b,1.0,b,1.0,0.6008540999609977,,,,,,,,,,,,,,1.0,6.0,18.0,5.0,,,,,107.31042640004308,,,,,,,,,,,,,,,,,107.29428230016492,107.40993460011669,108.2099735001102,108.19497680012137,,,,,,,,,,,,,,,,108.19959980016574,108.2099735001102,108.2099735001102,108.81298380019145,b,1.0,0.6008540999609977,,108.81327609997244,108.8271033000201,109.8114742001053,109.82725120009854,,,,,,,,,,,,,,,,,,,,sub-065,1,stroop_test,59.95512960228432,
,,,,19.0,7.0,1.0,,,,,blau,yellow,g,0.0,g,1.0,0.591990299988538,,,,,,,,,,,,,,1.0,7.0,19.0,7.0,,,,,109.82725120009854,,,,,,,,,,,,,,,,,109.8117202001158,110.17766409995966,110.99367190012708,110.97780530015008,,,,,,,,,,,,,,,,110.9781542001292,110.99367190012708,110.99367190012708,111.59484080015682,g,1.0,0.591990299988538,,111.59523240011184,111.61027560010552,112.59458150016144,112.6100110001862,,,,,,,,,,,,,,,,,,,,sub-065,1,stroop_test,59.95512960228432,
,,,,20.0,8.0,1.0,,,,,rot,yellow,g,0.0,g,1.0,0.78457530005835,,,,,,,,,,,,,,1.0,8.0,20.0,3.0,,,,,112.6100110001862,,,,,,,,,,,,,,,,,112.59487530007029,113.409658000106,114.2099324001465,114.1941539000254,,,,,,,,,,,,,,,,114.19662680011244,114.2099324001465,114.2099324001465,115.01127750007436,g,1.0,0.78457530005835,,115.0116197001189,115.0260693000164,116.01028460008092,116.02703040000053,,,,,,,,,,,,,,,,,,,,sub-065,1,stroop_test,59.95512960228432,
,,,,21.0,9.0,1.0,,,,,rot,blue,b,0.0,b,1.0,0.4753330000676214,,,,,,,,,,,,,,1.0,9.0,21.0,2.0,,,,,116.02703040000053,,,,,,,,,,,,,,,,,116.0104826001916,116.82656330009922,117.62642049998976,117.61162970005536,,,,,,,,,,,,,,,,117.6120141001884,117.62642049998976,117.62642049998976,118.11077639996074,b,1.0,0.4753330000676214,,118.11119240010156,118.12664659996516,119.11027260008268,119.12656270014122,,,,,,,,,,,,,,,,,,,,sub-065,1,stroop_test,59.95512960228432,
,,,,22.0,10.0,1.0,,,,,rot,red,r,1.0,r,1.0,0.7956783000845462,,,,,,,,,,,,,,1.0,10.0,22.0,0.0,,,,,119.12656270014122,,,,,,,,,,,,,,,,,119.11051920009776,119.2264738001395,120.0273363001179,120.01210080017336,,,,,,,,,,,,,,,,120.01253900001755,120.0273363001179,120.0273363001179,120.82862829999068,r,1.0,0.7956783000845462,,120.82904450013302,120.84238789998926,121.82762180012652,121.8433058001101,,,,,,,,,,,,,,,,,,,,sub-065,1,stroop_test,59.95512960228432,
,,,,23.0,11.0,1.0,,,,,gelb,yellow,g,1.0,g,1.0,0.4911261999513954,,,,,,,,,,,,,,1.0,11.0,23.0,11.0,,,,,121.8433058001101,,,,,,,,,,,,,,,,,121.8279036001768,122.1932060001418,122.99324510013685,122.97775009996258,,,,,,,,,,,,,,,,122.98051090002993,122.99324510013685,122.99324510013685,123.49417650001124,g,1.0,0.4911261999513954,,123.4945655001793,123.50985490018502,124.49443419999444,124.51005430007352,,,,,,,,,,,,,,,,,,,,sub-065,1,stroop_test,59.95512960228432,
,,,,,,,,,,,,,,,,,,,,,,,,,,,,,,,,,,,,,,,,,,,,,,,,,,,,,,,,,,,,,,,,,,,,,,,,,,,,,,,,,,,,,,,124.4945616000332,124.51005430007352,124.51005430007352,131.99528950010426,space,7.482837999938056,,,,,,,,,,,,,,sub-065,1,stroop_test,59.95512960228432,
,,,,0.0,0.0,0.0,,,,,,,,,,,,,gelb,blue,b,0.0,b,1.0,0.8237457999493927,,,,,,,,,,0.0,0.0,0.0,9.0,132.00905770016834,,,,,,,,,,,,,,,,,132.0011237000581,132.11011510016397,132.909464500146,132.89461630000733,,,,,,,,,,,,,,,,,,,,,,,,,,,,,,,,,,,132.89680820005017,132.909464500146,132.909464500146,133.7509868000634,b,1.0,0.8237457999493927,,,,,,sub-065,1,stroop_test,59.95512960228432,
,,,,1.0,1.0,0.0,,,,,,,,,,,,,rot,red,r,1.0,r,1.0,0.4564022000413388,,,,,,,,,,0.0,1.0,1.0,1.0,133.75963700003922,,,,,,,,,,,,,,,,,133.7512582000345,134.96124590002,135.77665959997103,135.7610524999909,,,,,,,,,,,,,,,,,,,,,,,,,,,,,,,,,,,135.7636145001743,135.77665959997103,135.77665959997103,136.24421699997038,r,1.0,0.4564022000413388,,,,,,sub-065,1,stroop_test,59.95512960228432,
,,,,2.0,2.0,0.0,,,,,,,,,,,,,blau,yellow,g,0.0,g,1.0,0.5420655999332666,,,,,,,,,,0.0,2.0,2.0,7.0,136.26007540011778,,,,,,,,,,,,,,,,,136.2445311001502,137.05996460001916,137.8602627001237,137.8441433000844,,,,,,,,,,,,,,,,,,,,,,,,,,,,,,,,,,,137.8463628999889,137.8602627001237,137.8602627001237,138.4108298001811,g,1.0,0.5420655999332666,,,,,,sub-065,1,stroop_test,59.95512960228432,
,,,,3.0,3.0,0.0,,,,,,,,,,,,,gelb,yellow,g,1.0,g,1.0,0.4384512000251561,,,,,,,,,,0.0,3.0,3.0,10.0,138.42643900006078,,,,,,,,,,,,,,,,,138.41114099998958,139.20954179996625,140.01176630007103,139.99414340010844,,,,,,,,,,,,,,,,,,,,,,,,,,,,,,,,,,,139.99801460001618,140.01176630007103,140.01176630007103,140.4604472999927,g,1.0,0.4384512000251561,,,,,,sub-065,1,stroop_test,59.95512960228432,
,,,,4.0,4.0,0.0,,,,,,,,,,,,,rot,red,r,1.0,r,1.0,0.7897208000067621,,,,,,,,,,0.0,4.0,4.0,0.0,140.47569730016403,,,,,,,,,,,,,,,,,140.46069840015844,140.57665679999627,141.37489970005117,141.36027489998378,,,,,,,,,,,,,,,,,,,,,,,,,,,,,,,,,,,141.36278320010751,141.37489970005117,141.37489970005117,142.17757880012505,r,1.0,0.7897208000067621,,,,,,sub-065,1,stroop_test,59.95512960228432,
,,,,5.0,5.0,0.0,,,,,,,,,,,,,blau,blue,b,1.0,b,1.0,0.3937089999672025,,,,,,,,,,0.0,5.0,5.0,5.0,142.19235990010202,,,,,,,,,,,,,,,,,142.1778802999761,143.37634350010194,144.17611700017005,144.16069720010273,,,,,,,,,,,,,,,,,,,,,,,,,,,,,,,,,,,144.1625930001028,144.17611700017005,144.17611700017005,144.57842710008845,b,1.0,0.3937089999672025,,,,,,sub-065,1,stroop_test,59.95512960228432,
,,,,6.0,6.0,0.0,,,,,,,,,,,,,blau,blue,b,1.0,b,1.0,0.4442612000275403,,,,,,,,,,0.0,6.0,6.0,6.0,144.59244529996067,,,,,,,,,,,,,,,,,144.5787522001192,144.6922321000602,145.49352380004711,145.4779426001478,,,,,,,,,,,,,,,,,,,,,,,,,,,,,,,,,,,145.47824160009625,145.49352380004711,145.49352380004711,145.9446779000573,b,1.0,0.4442612000275403,,,,,,sub-065,1,stroop_test,59.95512960228432,
,,,,7.0,7.0,0.0,,,,,,,,,,,,,rot,yellow,g,0.0,g,1.0,0.7869440000504255,,,,,,,,,,0.0,7.0,7.0,3.0,145.9589073001407,,,,,,,,,,,,,,,,,145.9449819000438,146.0592210001778,146.85885740001686,146.8433852000162,,,,,,,,,,,,,,,,,,,,,,,,,,,,,,,,,,,146.84548919997178,146.85885740001686,146.85885740001686,147.6605116999708,g,1.0,0.7869440000504255,,,,,,sub-065,1,stroop_test,59.95512960228432,
,,,,8.0,8.0,0.0,,,,,,,,,,,,,gelb,yellow,g,1.0,g,1.0,0.5800328999757767,,,,,,,,,,0.0,8.0,8.0,11.0,147.67544970009476,,,,,,,,,,,,,,,,,147.66072540008463,148.87547329999506,149.67640860006213,149.6603979000356,,,,,,,,,,,,,,,,,,,,,,,,,,,,,,,,,,,149.6627187000122,149.67640860006213,149.67640860006213,150.2604352000635,g,1.0,0.5800328999757767,,,,,,sub-065,1,stroop_test,59.95512960228432,
,,,,9.0,9.0,0.0,,,,,,,,,,,,,rot,blue,b,0.0,b,1.0,0.7557049000170082,,,,,,,,,,0.0,9.0,9.0,2.0,150.27620059996843,,,,,,,,,,,,,,,,,150.2606440000236,150.60942480014637,151.4090766001027,151.39380339998752,,,,,,,,,,,,,,,,,,,,,,,,,,,,,,,,,,,151.39679220016114,151.4090766001027,151.4090766001027,152.17672340013087,b,1.0,0.7557049000170082,,,,,,sub-065,1,stroop_test,59.95512960228432,
,,,,10.0,10.0,0.0,,,,,,,,,,,,,gelb,red,r,0.0,r,1.0,0.4901524998713285,,,,,,,,,,0.0,10.0,10.0,8.0,152.19262009998783,,,,,,,,,,,,,,,,,152.17705070017837,152.52614600001834,153.32564940000884,153.3113704000134,,,,,,,,,,,,,,,,,,,,,,,,,,,,,,,,,,,153.3181718001142,153.32564940000884,153.32564940000884,153.82685109996237,r,1.0,0.4901524998713285,,,,,,sub-065,1,stroop_test,59.95512960228432,
,,,,11.0,11.0,0.0,,,,,,,,,,,,,blau,red,r,0.0,r,1.0,0.6059221001341939,,,,,,,,,,0.0,11.0,11.0,4.0,153.84283590014093,,,,,,,,,,,,,,,,,153.82711430010386,153.92539870017208,154.72646689997055,154.7106638001278,,,,,,,,,,,,,,,,,,,,,,,,,,,,,,,,,,,154.71340130013414,154.72646689997055,154.72646689997055,155.34498300007544,r,1.0,0.6059221001341939,,,,,,sub-065,1,stroop_test,59.95512960228432,
,,,,12.0,0.0,1.0,,,,,,,,,,,,,blau,yellow,g,0.0,g,1.0,0.7457451999653131,,,,,,,,,,1.0,0.0,12.0,7.0,155.3595150001347,,,,,,,,,,,,,,,,,155.3453440000303,156.55896720010787,157.3595973001793,157.3440664999653,,,,,,,,,,,,,,,,,,,,,,,,,,,,,,,,,,,157.34448670013808,157.3595973001793,157.3595973001793,158.1113103001844,g,1.0,0.7457451999653131,,,,,,sub-065,1,stroop_test,59.95512960228432,
,,,,13.0,1.0,1.0,,,,,,,,,,,,,blau,red,r,0.0,r,1.0,0.5981857001315802,,,,,,,,,,1.0,1.0,13.0,4.0,158.12543740007095,,,,,,,,,,,,,,,,,158.1115460000001,158.92638060008176,159.7427999000065,159.72662650002167,,,,,,,,,,,,,,,,,,,,,,,,,,,,,,,,,,,159.7268950000871,159.7427999000065,159.7427999000065,160.34421020001173,r,1.0,0.5981857001315802,,,,,,sub-065,1,stroop_test,59.95512960228432,
,,,,14.0,2.0,1.0,,,,,,,,,,,,,rot,yellow,g,0.0,g,1.0,0.6090790999587625,,,,,,,,,,1.0,2.0,14.0,3.0,160.35985350003466,,,,,,,,,,,,,,,,,160.34449220006354,161.55922799999826,162.3590816000942,162.3435575000476,,,,,,,,,,,,,,,,,,,,,,,,,,,,,,,,,,,162.34606230002828,162.3590816000942,162.3590816000942,162.97711650002748,g,1.0,0.6090790999587625,,,,,,sub-065,1,stroop_test,59.95512960228432,
,,,,15.0,3.0,1.0,,,,,,,,,,,,,blau,blue,b,1.0,b,1.0,1.1141818000469357,,,,,,,,,,1.0,3.0,15.0,6.0,162.99198120017536,,,,,,,,,,,,,,,,,162.9774841000326,163.3417617001105,164.1428668000735,164.12699130014516,,,,,,,,,,,,,,,,,,,,,,,,,,,,,,,,,,,164.12985000014305,164.1428668000735,164.1428668000735,165.26059730001725,b,1.0,1.1141818000469357,,,,,,sub-065,1,stroop_test,59.95512960228432,
,,,,16.0,4.0,1.0,,,,,,,,,,,,,rot,red,r,1.0,r,1.0,0.4523114999756217,,,,,,,,,,1.0,4.0,16.0,1.0,165.27545360010117,,,,,,,,,,,,,,,,,165.26081910007633,165.6263490000274,166.42507630004548,166.41011449997313,,,,,,,,,,,,,,,,,,,,,,,,,,,,,,,,,,,166.41224840003997,166.42507630004548,166.42507630004548,166.8937344001606,r,1.0,0.4523114999756217,,,,,,sub-065,1,stroop_test,59.95512960228432,
,,,,17.0,5.0,1.0,,,,,,,,,,,,,rot,blue,b,0.0,b,1.0,0.6480264998972416,,,,,,,,,,1.0,5.0,17.0,2.0,166.90865710005164,,,,,,,,,,,,,,,,,166.89397380012088,167.2430549999699,168.04285349999554,168.02745659998618,,,,,,,,,,,,,,,,,,,,,,,,,,,,,,,,,,,168.02771880012006,168.04285349999554,168.04285349999554,168.69377480004914,b,1.0,0.6480264998972416,,,,,,sub-065,1,stroop_test,59.95512960228432,
,,,,18.0,6.0,1.0,,,,,,,,,,,,,rot,red,r,1.0,r,1.0,0.9973929000552744,,,,,,,,,,1.0,6.0,18.0,0.0,168.70854280004278,,,,,,,,,,,,,,,,,168.69405000004917,169.50870060012676,170.30945289996453,170.29328320012428,,,,,,,,,,,,,,,,,,,,,,,,,,,,,,,,,,,170.29361680010334,170.30945289996453,170.30945289996453,171.31012940010987,r,1.0,0.9973929000552744,,,,,,sub-065,1,stroop_test,59.95512960228432,
,,,,19.0,7.0,1.0,,,,,,,,,,,,,blau,blue,b,1.0,b,1.0,0.4888514999765903,,,,,,,,,,1.0,7.0,19.0,5.0,171.32512599998154,,,,,,,,,,,,,,,,,171.31035290006548,172.50883870013058,173.30908940010704,173.29393699998036,,,,,,,,,,,,,,,,,,,,,,,,,,,,,,,,,,,173.29620610014535,173.30908940010704,173.30908940010704,173.80998100014403,b,1.0,0.4888514999765903,,,,,,sub-065,1,stroop_test,59.95512960228432,
,,,,20.0,8.0,1.0,,,,,,,,,,,,,gelb,yellow,g,1.0,g,1.0,0.4350555001292377,,,,,,,,,,1.0,8.0,20.0,10.0,173.82548450003378,,,,,,,,,,,,,,,,,173.81020130007528,175.00852750008926,175.8097429999616,175.79401280009188,,,,,,,,,,,,,,,,,,,,,,,,,,,,,,,,,,,175.7973599000834,175.8097429999616,175.8097429999616,176.26086900010705,g,1.0,0.4350555001292377,,,,,,sub-065,1,stroop_test,59.95512960228432,
,,,,21.0,9.0,1.0,,,,,,,,,,,,,gelb,red,r,0.0,r,1.0,0.4088675999082625,,,,,,,,,,1.0,9.0,21.0,8.0,176.27662000013515,,,,,,,,,,,,,,,,,176.2611110000871,177.47562590008602,178.27542080008425,178.25911230011843,,,,,,,,,,,,,,,,,,,,,,,,,,,,,,,,,,,178.25942690018564,178.27542080008425,178.27542080008425,178.69249050016515,r,1.0,0.4088675999082625,,,,,,sub-065,1,stroop_test,59.95512960228432,
,,,,22.0,10.0,1.0,,,,,,,,,,,,,gelb,yellow,g,1.0,g,1.0,0.7166921000462025,,,,,,,,,,1.0,10.0,22.0,11.0,178.70818360010162,,,,,,,,,,,,,,,,,178.69271390000358,179.04164270008914,179.84230070002377,179.8263936000876,,,,,,,,,,,,,,,,,,,,,,,,,,,,,,,,,,,179.82681440003216,179.84230070002377,179.84230070002377,180.5613156000618,g,1.0,0.7166921000462025,,,,,,sub-065,1,stroop_test,59.95512960228432,
,,,,23.0,11.0,1.0,,,,,,,,,,,,,gelb,blue,b,0.0,b,1.0,0.4583823999855667,,,,,,,,,,1.0,11.0,23.0,9.0,180.5758780001197,,,,,,,,,,,,,,,,,180.56159509997812,181.77552440017465,182.57488219998777,182.55931539996527,,,,,,,,,,,,,,,,,,,,,,,,,,,,,,,,,,,182.55966740008444,182.57488219998777,182.57488219998777,183.042549100006,b,1.0,0.4583823999855667,,,,,,sub-065,1,stroop_test,59.95512960228432,
,,,,24.0,0.0,2.0,,,,,,,,,,,,,blau,red,r,0.0,r,1.0,0.3236999998334795,,,,,,,,,,2.0,0.0,24.0,4.0,183.05863430001773,,,,,,,,,,,,,,,,,183.0430081000086,183.3924229000695,184.19149910006672,184.17590200016275,,,,,,,,,,,,,,,,,,,,,,,,,,,,,,,,,,,184.17794980015609,184.19149910006672,184.19149910006672,184.5260064001195,r,1.0,0.3236999998334795,,,,,,sub-065,1,stroop_test,59.95512960228432,
,,,,25.0,1.0,2.0,,,,,,,,,,,,,blau,yellow,g,0.0,g,1.0,0.5483647000510246,,,,,,,,,,2.0,1.0,25.0,7.0,184.5422063001897,,,,,,,,,,,,,,,,,184.52622810006145,185.32610090007077,186.14204189996235,186.13101760018617,,,,,,,,,,,,,,,,,,,,,,,,,,,,,,,,,,,186.1315387999639,186.14204189996235,186.14204189996235,186.69473860017024,g,1.0,0.5483647000510246,,,,,,sub-065,1,stroop_test,59.95512960228432,
,,,,26.0,2.0,2.0,,,,,,,,,,,,,blau,blue,b,1.0,b,1.0,0.6405792001169175,,,,,,,,,,2.0,2.0,26.0,6.0,186.70956510002725,,,,,,,,,,,,,,,,,186.69502620003183,186.8090548000764,187.60827339999375,187.5924327000976,,,,,,,,,,,,,,,,,,,,,,,,,,,,,,,,,,,187.59277370013297,187.60827339999375,187.60827339999375,188.26027059997432,b,1.0,0.6405792001169175,,,,,,sub-065,1,stroop_test,59.95512960228432,
,,,,27.0,3.0,2.0,,,,,,,,,,,,,gelb,yellow,g,1.0,g,1.0,0.6470228999387473,,,,,,,,,,2.0,3.0,27.0,11.0,188.27467590011656,,,,,,,,,,,,,,,,,188.26054140017368,188.6253436000552,189.4251339000184,189.41003220016137,,,,,,,,,,,,,,,,,,,,,,,,,,,,,,,,,,,189.41242279997093,189.4251339000184,189.4251339000184,190.0763256000355,g,1.0,0.6470228999387473,,,,,,sub-065,1,stroop_test,59.95512960228432,
,,,,28.0,4.0,2.0,,,,,,,,,,,,,rot,red,r,1.0,r,1.0,0.5395710000302643,,,,,,,,,,2.0,4.0,28.0,0.0,190.0916892001405,,,,,,,,,,,,,,,,,190.07655330002308,190.42587110004388,191.2415811000392,191.22562779998407,,,,,,,,,,,,,,,,,,,,,,,,,,,,,,,,,,,191.2284482000396,191.2415811000392,191.2415811000392,191.79227300011556,r,1.0,0.5395710000302643,,,,,,sub-065,1,stroop_test,59.95512960228432,
,,,,29.0,5.0,2.0,,,,,,,,,,,,,gelb,red,r,0.0,r,1.0,0.5417865000199527,,,,,,,,,,2.0,5.0,29.0,8.0,191.8079022001475,,,,,,,,,,,,,,,,,191.7925256001763,192.9923405000009,193.79129470000044,193.7764258000534,,,,,,,,,,,,,,,,,,,,,,,,,,,,,,,,,,,193.78216910013,193.79129470000044,193.79129470000044,194.34488390013576,r,1.0,0.5417865000199527,,,,,,sub-065,1,stroop_test,59.95512960228432,
,,,,30.0,6.0,2.0,,,,,,,,,,,,,blau,blue,b,1.0,b,1.0,0.4192092001903802,,,,,,,,,,2.0,6.0,30.0,5.0,194.3585727000609,,,,,,,,,,,,,,,,,194.34545340016484,195.1587108001113,195.95968470000665,195.94341720012017,,,,,,,,,,,,,,,,,,,,,,,,,,,,,,,,,,,195.9518645000644,195.95968470000665,195.95968470000665,196.3925113000441,b,1.0,0.4192092001903802,,,,,,sub-065,1,stroop_test,59.95512960228432,
,,,,31.0,7.0,2.0,,,,,,,,,,,,,gelb,blue,b,0.0,b,1.0,0.6082752998918295,,,,,,,,,,2.0,7.0,31.0,9.0,196.4080807999708,,,,,,,,,,,,,,,,,196.39286290016025,196.49199630017392,197.2920001000166,197.2760342999827,,,,,,,,,,,,,,,,,,,,,,,,,,,,,,,,,,,197.27886339998804,197.2920001000166,197.2920001000166,197.90953360009007,b,1.0,0.6082752998918295,,,,,,sub-065,1,stroop_test,59.95512960228432,
,,,,32.0,8.0,2.0,,,,,,,,,,,,,rot,yellow,g,0.0,g,1.0,0.7518859000410885,,,,,,,,,,2.0,8.0,32.0,3.0,197.92534840013832,,,,,,,,,,,,,,,,,197.90981980017384,198.00822780001909,198.8098919000477,198.79330210015175,,,,,,,,,,,,,,,,,,,,,,,,,,,,,,,,,,,198.80299090011977,198.8098919000477,198.8098919000477,199.57681400002912,g,1.0,0.7518859000410885,,,,,,sub-065,1,stroop_test,59.95512960228432,
,,,,33.0,9.0,2.0,,,,,,,,,,,,,rot,red,r,1.0,r,1.0,0.3915727999992668,,,,,,,,,,2.0,9.0,33.0,1.0,199.59280920005403,,,,,,,,,,,,,,,,,199.57712110015564,199.6923704000656,200.4924483001232,200.4767291999888,,,,,,,,,,,,,,,,,,,,,,,,,,,,,,,,,,,200.477188100107,200.4924483001232,200.4924483001232,200.89221270009875,r,1.0,0.3915727999992668,,,,,,sub-065,1,stroop_test,59.95512960228432,
,,,,34.0,10.0,2.0,,,,,,,,,,,,,rot,blue,b,0.0,b,1.0,0.6781752998940647,,,,,,,,,,2.0,10.0,34.0,2.0,200.9085528000724,,,,,,,,,,,,,,,,,200.89250940014608,201.6913931001909,202.49190690019168,202.47552620014176,,,,,,,,,,,,,,,,,,,,,,,,,,,,,,,,,,,202.47586310002956,202.49190690019168,202.49190690019168,203.1774846999906,b,1.0,0.6781752998940647,,,,,,sub-065,1,stroop_test,59.95512960228432,
,,,,35.0,11.0,2.0,,,,,,,,,,,,,gelb,yellow,g,1.0,g,1.0,0.3749309000559151,,,,,,,,,,2.0,11.0,35.0,10.0,203.1921910000965,,,,,,,,,,,,,,,,,203.17776380013677,203.29230630001985,204.09226010018028,204.0761416000314,,,,,,,,,,,,,,,,,,,,,,,,,,,,,,,,,,,204.07864130008969,204.09226010018028,204.09226010018028,204.4764370999765,g,1.0,0.3749309000559151,,,,,,sub-065,1,stroop_test,59.95512960228432,
,,,,36.0,0.0,3.0,,,,,,,,,,,,,blau,blue,b,1.0,b,1.0,0.4986042000818997,,,,,,,,,,3.0,0.0,36.0,6.0,204.49193560006097,,,,,,,,,,,,,,,,,204.47673970018516,204.8256577001885,205.64151330012828,205.62589330016635,,,,,,,,,,,,,,,,,,,,,,,,,,,,,,,,,,,205.6278003000189,205.64151330012828,205.64151330012828,206.14380039996468,b,1.0,0.4986042000818997,,,,,,sub-065,1,stroop_test,59.95512960228432,
,,,,37.0,1.0,3.0,,,,,,,,,,,,,rot,blue,b,0.0,b,1.0,0.598497899947688,,,,,,,,,,3.0,1.0,37.0,2.0,206.15891370014288,,,,,,,,,,,,,,,,,206.14406460011375,206.2577111001592,207.06153800012544,207.0431351000443,,,,,,,,,,,,,,,,,,,,,,,,,,,,,,,,,,,207.05487500014715,207.06153800012544,207.06153800012544,207.67648120014928,b,1.0,0.598497899947688,,,,,,sub-065,1,stroop_test,59.95512960228432,
,,,,38.0,2.0,3.0,,,,,,,,,,,,,gelb,yellow,g,1.0,g,1.0,0.574932900024578,,,,,,,,,,3.0,2.0,38.0,10.0,207.6918766000308,,,,,,,,,,,,,,,,,207.67673559999093,208.47548150015064,209.29180000000636,209.27508449996824,,,,,,,,,,,,,,,,,,,,,,,,,,,,,,,,,,,209.27718430012465,209.29180000000636,209.29180000000636,209.8759614999872,g,1.0,0.574932900024578,,,,,,sub-065,1,stroop_test,59.95512960228432,
,,,,39.0,3.0,3.0,,,,,,,,,,,,,gelb,yellow,g,1.0,g,1.0,0.4698089999146759,,,,,,,,,,3.0,3.0,39.0,11.0,209.892268500058,,,,,,,,,,,,,,,,,209.87621999997648,210.6754638000857,211.47482140013017,211.45898290001787,,,,,,,,,,,,,,,,,,,,,,,,,,,,,,,,,,,211.4593315999955,211.47482140013017,211.47482140013017,211.96031540003605,g,1.0,0.4698089999146759,,,,,,sub-065,1,stroop_test,59.95512960228432,
,,,,40.0,4.0,3.0,,,,,,,,,,,,,rot,red,r,1.0,r,1.0,0.5718648999463767,,,,,,,,,,3.0,4.0,40.0,1.0,211.97552129998803,,,,,,,,,,,,,,,,,211.9608261999674,212.77542800013907,213.57701660017483,213.5593210000079,,,,,,,,,,,,,,,,,,,,,,,,,,,,,,,,,,,213.56244640005752,213.57701660017483,213.57701660017483,214.16068130009808,r,1.0,0.5718648999463767,,,,,,sub-065,1,stroop_test,59.95512960228432,
,,,,41.0,5.0,3.0,,,,,,,,,,,,,rot,red,r,1.0,r,1.0,0.5018767998553813,,,,,,,,,,3.0,5.0,41.0,0.0,214.17530610016547,,,,,,,,,,,,,,,,,214.16096530016512,214.27497530006804,215.0751988000702,215.05934679997156,,,,,,,,,,,,,,,,,,,,,,,,,,,,,,,,,,,215.0597149999812,215.0751988000702,215.0751988000702,215.5923085000832,r,1.0,0.5018767998553813,,,,,,sub-065,1,stroop_test,59.95512960228432,
,,,,42.0,6.0,3.0,,,,,,,,,,,,,gelb,blue,b,0.0,b,1.0,0.8115613001864403,,,,,,,,,,3.0,6.0,42.0,9.0,215.6078153999988,,,,,,,,,,,,,,,,,215.59253340004943,215.6921167001128,216.5083445000928,216.49256280018017,,,,,,,,,,,,,,,,,,,,,,,,,,,,,,,,,,,216.50093850004487,216.5083445000928,216.5083445000928,217.3263704001438,b,1.0,0.8115613001864403,,,,,,sub-065,1,stroop_test,59.95512960228432,
,,,,43.0,7.0,3.0,,,,,,,,,,,,,blau,yellow,g,0.0,g,1.0,0.5241417998913676,,,,,,,,,,3.0,7.0,43.0,7.0,217.34084439999424,,,,,,,,,,,,,,,,,217.3265980000142,218.5420099000912,219.3418362999801,219.32588670006956,,,,,,,,,,,,,,,,,,,,,,,,,,,,,,,,,,,219.3279046001844,219.3418362999801,219.3418362999801,219.8759904000908,g,1.0,0.5241417998913676,,,,,,sub-065,1,stroop_test,59.95512960228432,
,,,,44.0,8.0,3.0,,,,,,,,,,,,,blau,blue,b,1.0,b,1.0,0.538446799851954,,,,,,,,,,3.0,8.0,44.0,5.0,219.89117000019175,,,,,,,,,,,,,,,,,219.87628860003315,220.2415014000144,221.04071169998497,221.0247673999984,,,,,,,,,,,,,,,,,,,,,,,,,,,,,,,,,,,221.0250862000976,221.04071169998497,221.04071169998497,221.59308909997344,b,1.0,0.538446799851954,,,,,,sub-065,1,stroop_test,59.95512960228432,
,,,,45.0,9.0,3.0,,,,,,,,,,,,,blau,red,r,0.0,r,1.0,0.53325380012393,,,,,,,,,,3.0,9.0,45.0,4.0,221.60767689999196,,,,,,,,,,,,,,,,,221.59330149996092,222.7934457000811,223.6073184001725,223.590917600086,,,,,,,,,,,,,,,,,,,,,,,,,,,,,,,,,,,223.59126770007424,223.6073184001725,223.6073184001725,224.1436817999929,r,1.0,0.53325380012393,,,,,,sub-065,1,stroop_test,59.95512960228432,
,,,,46.0,10.0,3.0,,,,,,,,,,,,,rot,yellow,g,0.0,b,0.0,0.5209526000544429,,,,,,,,,,3.0,10.0,46.0,3.0,224.15838570008052,,,,,,,,,,,,,,,,,224.14389720000327,225.358650600072,226.1586039001122,226.14292849996127,,,,,,,,,,,,,,,,,,,,,,,,,,,,,,,,,,,226.1453588001896,226.1586039001122,226.1586039001122,226.69330340018496,b,0.0,0.5209526000544429,,,,,,sub-065,1,stroop_test,59.95512960228432,
,,,,47.0,11.0,3.0,,,,,,,,,,,,,gelb,red,r,0.0,r,1.0,0.7926129000261426,,,,,,,,,,3.0,11.0,47.0,8.0,226.70785290002823,,,,,,,,,,,,,,,,,226.69356800010428,227.0581452001352,227.85812960006297,227.84167960006744,,,,,,,,,,,,,,,,,,,,,,,,,,,,,,,,,,,227.84542430005968,227.85812960006297,227.85812960006297,228.65891370014288,r,1.0,0.7926129000261426,,,,,,sub-065,1,stroop_test,59.95512960228432,
,,,,48.0,0.0,4.0,,,,,,,,,,,,,gelb,blue,b,0.0,b,1.0,0.5239150999113917,,,,,,,,,,4.0,0.0,48.0,9.0,228.6746982999612,,,,,,,,,,,,,,,,,228.6592049000319,229.8582542999648,230.65812130016275,230.64273370010775,,,,,,,,,,,,,,,,,,,,,,,,,,,,,,,,,,,230.643136800034,230.65812130016275,230.65812130016275,231.19176820013672,b,1.0,0.5239150999113917,,,,,,sub-065,1,stroop_test,59.95512960228432,
,,,,49.0,1.0,4.0,,,,,,,,,,,,,rot,red,r,1.0,r,1.0,0.5645447999704629,,,,,,,,,,4.0,1.0,49.0,1.0,231.20771310012788,,,,,,,,,,,,,,,,,231.19203869998452,232.39152669999748,233.21096950001083,233.1753231000621,,,,,,,,,,,,,,,,,,,,,,,,,,,,,,,,,,,233.20522570004687,233.21096950001083,233.21096950001083,233.79181920015253,r,1.0,0.5645447999704629,,,,,,sub-065,1,stroop_test,59.95512960228432,
,,,,50.0,2.0,4.0,,,,,,,,,,,,,gelb,yellow,g,1.0,g,1.0,0.612001899862662,,,,,,,,,,4.0,2.0,50.0,11.0,233.80808600015007,,,,,,,,,,,,,,,,,233.7920304001309,234.99119620001875,235.7914933001157,235.7756098001264,,,,,,,,,,,,,,,,,,,,,,,,,,,,,,,,,,,235.7778046000749,235.7914933001157,235.7914933001157,236.41004910017364,g,1.0,0.612001899862662,,,,,,sub-065,1,stroop_test,59.95512960228432,
,,,,51.0,3.0,4.0,,,,,,,,,,,,,rot,red,r,1.0,r,1.0,0.7100029999855906,,,,,,,,,,4.0,3.0,51.0,0.0,236.42491580010392,,,,,,,,,,,,,,,,,236.4103365000337,236.77436420018785,237.57460980000903,237.557873000158,,,,,,,,,,,,,,,,,,,,,,,,,,,,,,,,,,,237.5600132001564,237.57460980000903,237.57460980000903,238.2924196000677,r,1.0,0.7100029999855906,,,,,,sub-065,1,stroop_test,59.95512960228432,
,,,,52.0,4.0,4.0,,,,,,,,,,,,,blau,blue,b,1.0,b,1.0,0.4563196001108736,,,,,,,,,,4.0,4.0,52.0,5.0,238.30778570007533,,,,,,,,,,,,,,,,,238.2926709000021,239.4911250001751,240.29081500018947,240.27504590014,,,,,,,,,,,,,,,,,,,,,,,,,,,,,,,,,,,240.2784684000071,240.29081500018947,240.29081500018947,240.7588490999769,b,1.0,0.4563196001108736,,,,,,sub-065,1,stroop_test,59.95512960228432,
,,,,53.0,5.0,4.0,,,,,,,,,,,,,gelb,red,r,0.0,r,1.0,0.7456797000486404,,,,,,,,,,4.0,5.0,53.0,8.0,240.7748583999928,,,,,,,,,,,,,,,,,240.75914070010185,241.1245097999927,241.92418040009213,241.90805010008623,,,,,,,,,,,,,,,,,,,,,,,,,,,,,,,,,,,241.91317920014265,241.92418040009213,241.92418040009213,242.6762537001632,r,1.0,0.7456797000486404,,,,,,sub-065,1,stroop_test,59.95512960228432,
,,,,54.0,6.0,4.0,,,,,,,,,,,,,blau,yellow,g,0.0,g,1.0,0.7304783998988569,,,,,,,,,,4.0,6.0,54.0,7.0,242.6910121999681,,,,,,,,,,,,,,,,,242.67648850008845,242.7914136000909,243.5903750001453,243.57515320018865,,,,,,,,,,,,,,,,,,,,,,,,,,,,,,,,,,,243.57703789998777,243.5903750001453,243.5903750001453,244.32645729999055,g,1.0,0.7304783998988569,,,,,,sub-065,1,stroop_test,59.95512960228432,
,,,,55.0,7.0,4.0,,,,,,,,,,,,,blau,blue,b,1.0,b,1.0,0.5264994001481682,,,,,,,,,,4.0,7.0,55.0,6.0,244.340990900062,,,,,,,,,,,,,,,,,244.32667990005572,245.14138200017624,245.9415383001324,245.92502720002085,,,,,,,,,,,,,,,,,,,,,,,,,,,,,,,,,,,245.92532610008493,245.9415383001324,245.9415383001324,246.4765910001006,b,1.0,0.5264994001481682,,,,,,sub-065,1,stroop_test,59.95512960228432,
,,,,56.0,8.0,4.0,,,,,,,,,,,,,gelb,yellow,g,1.0,g,1.0,0.8633765000849962,,,,,,,,,,4.0,8.0,56.0,10.0,246.4923170001712,,,,,,,,,,,,,,,,,246.4768168001901,246.5924043001141,247.39214879996143,247.37624790007249,,,,,,,,,,,,,,,,,,,,,,,,,,,,,,,,,,,247.37898060004227,247.39214879996143,247.39214879996143,248.25997510016896,g,1.0,0.8633765000849962,,,,,,sub-065,1,stroop_test,59.95512960228432,
,,,,57.0,9.0,4.0,,,,,,,,,,,,,rot,blue,b,0.0,b,1.0,0.632065299898386,,,,,,,,,,4.0,9.0,57.0,2.0,248.27527049998756,,,,,,,,,,,,,,,,,248.26020000013523,248.6255203001201,249.425423800014,249.4095734001603,,,,,,,,,,,,,,,,,,,,,,,,,,,,,,,,,,,249.4115019000601,249.425423800014,249.425423800014,250.05999620002692,b,1.0,0.632065299898386,,,,,,sub-065,1,stroop_test,59.95512960228432,
,,,,58.0,10.0,4.0,,,,,,,,,,,,,rot,yellow,g,0.0,g,1.0,0.6448856999631971,,,,,,,,,,4.0,10.0,58.0,3.0,250.0733608000446,,,,,,,,,,,,,,,,,250.06021660007536,250.87627440015785,251.6754752001725,251.65998380002569,,,,,,,,,,,,,,,,,,,,,,,,,,,,,,,,,,,251.66037499997765,251.6754752001725,251.6754752001725,252.3270972000901,g,1.0,0.6448856999631971,,,,,,sub-065,1,stroop_test,59.95512960228432,
,,,,59.0,11.0,4.0,,,,,,,,,,,,,blau,red,r,0.0,r,1.0,0.3316770999226719,,,,,,,,,,4.0,11.0,59.0,4.0,252.34271530015397,,,,,,,,,,,,,,,,,252.32736780005507,253.1422371000517,253.9585037000943,253.9426105001476,,,,,,,,,,,,,,,,,,,,,,,,,,,,,,,,,,,253.9445121001918,253.9585037000943,253.9585037000943,254.29323439998552,r,1.0,0.3316770999226719,,,,,,sub-065,1,stroop_test,59.95512960228432,
,,,,60.0,0.0,5.0,,,,,,,,,,,,,blau,yellow,g,0.0,g,1.0,0.559942299965769,,,,,,,,,,5.0,0.0,60.0,7.0,254.3092116001062,,,,,,,,,,,,,,,,,254.2934576000553,255.508186200168,256.32558339997195,256.3090429001022,,,,,,,,,,,,,,,,,,,,,,,,,,,,,,,,,,,256.3093221001327,256.32558339997195,256.32558339997195,256.8931530001573,g,1.0,0.559942299965769,,,,,,sub-065,1,stroop_test,59.95512960228432,
,,,,61.0,1.0,5.0,,,,,,,,,,,,,gelb,yellow,g,1.0,g,1.0,0.4457421000115573,,,,,,,,,,5.0,1.0,61.0,10.0,256.9089480000548,,,,,,,,,,,,,,,,,256.8933896999806,257.00834000017494,257.80846920004115,257.7925577000715,,,,,,,,,,,,,,,,,,,,,,,,,,,,,,,,,,,257.8014777000062,257.80846920004115,257.80846920004115,258.259755600011,g,1.0,0.4457421000115573,,,,,,sub-065,1,stroop_test,59.95512960228432,
,,,,62.0,2.0,5.0,,,,,,,,,,,,,blau,red,r,0.0,r,1.0,0.3298228001222014,,,,,,,,,,5.0,2.0,62.0,4.0,258.27560860011727,,,,,,,,,,,,,,,,,258.25997820007615,259.4588972001802,260.27371650002897,260.25700540002435,,,,,,,,,,,,,,,,,,,,,,,,,,,,,,,,,,,260.2603726000525,260.27371650002897,260.27371650002897,260.6093976001721,r,1.0,0.3298228001222014,,,,,,sub-065,1,stroop_test,59.95512960228432,
,,,,63.0,3.0,5.0,,,,,,,,,,,,,blau,blue,b,1.0,b,1.0,0.3213729001581669,,,,,,,,,,5.0,3.0,63.0,5.0,260.62340170005336,,,,,,,,,,,,,,,,,260.60966240009293,261.42422340018675,262.22313060006127,262.2084725999739,,,,,,,,,,,,,,,,,,,,,,,,,,,,,,,,,,,262.20881070010364,262.22313060006127,262.22313060006127,262.55861199996434,b,1.0,0.3213729001581669,,,,,,sub-065,1,stroop_test,59.95512960228432,
,,,,64.0,4.0,5.0,,,,,,,,,,,,,rot,blue,b,0.0,b,1.0,0.6128018000163138,,,,,,,,,,5.0,4.0,64.0,2.0,262.57519150013104,,,,,,,,,,,,,,,,,262.5590088001918,263.7744875999633,264.57440260006115,264.5578564000316,,,,,,,,,,,,,,,,,,,,,,,,,,,,,,,,,,,264.5602943999693,264.57440260006115,264.57440260006115,265.1940811001696,b,1.0,0.6128018000163138,,,,,,sub-065,1,stroop_test,59.95512960228432,
,,,,65.0,5.0,5.0,,,,,,,,,,,,,rot,red,r,1.0,r,1.0,0.460751699982211,,,,,,,,,,5.0,5.0,65.0,1.0,265.2069408001844,,,,,,,,,,,,,,,,,265.1944051999599,266.006946900161,266.807744699996,266.791968600126,,,,,,,,,,,,,,,,,,,,,,,,,,,,,,,,,,,266.7923238000367,266.807744699996,266.807744699996,267.27562960004434,r,1.0,0.460751699982211,,,,,,sub-065,1,stroop_test,59.95512960228432,
,,,,66.0,6.0,5.0,,,,,,,,,,,,,gelb,blue,b,0.0,b,1.0,0.4144888999871909,,,,,,,,,,5.0,6.0,66.0,9.0,267.29058860009536,,,,,,,,,,,,,,,,,267.2758908001706,267.3908934001811,268.1901678000577,268.1742636000272,,,,,,,,,,,,,,,,,,,,,,,,,,,,,,,,,,,268.1777135999873,268.1901678000577,268.1901678000577,268.6080164001323,b,1.0,0.4144888999871909,,,,,,sub-065,1,stroop_test,59.95512960228432,
,,,,67.0,7.0,5.0,,,,,,,,,,,,,rot,red,r,1.0,r,1.0,0.4423720000777393,,,,,,,,,,5.0,7.0,67.0,0.0,268.62343870010227,,,,,,,,,,,,,,,,,268.6082438000012,269.4073461000808,270.2074085001368,270.19208690011874,,,,,,,,,,,,,,,,,,,,,,,,,,,,,,,,,,,270.19529299996793,270.2074085001368,270.2074085001368,270.6578598001506,r,1.0,0.4423720000777393,,,,,,sub-065,1,stroop_test,59.95512960228432,
,,,,68.0,8.0,5.0,,,,,,,,,,,,,blau,blue,b,1.0,b,1.0,0.456100899958983,,,,,,,,,,5.0,8.0,68.0,6.0,270.6736312999856,,,,,,,,,,,,,,,,,270.6581147001125,271.47430010000244,272.2739451001398,272.2583716001827,,,,,,,,,,,,,,,,,,,,,,,,,,,,,,,,,,,272.2607820001431,272.2739451001398,272.2739451001398,272.7421065000817,b,1.0,0.456100899958983,,,,,,sub-065,1,stroop_test,59.95512960228432,
,,,,69.0,9.0,5.0,,,,,,,,,,,,,gelb,red,r,0.0,r,1.0,0.4415742000564933,,,,,,,,,,5.0,9.0,69.0,8.0,272.75687519996427,,,,,,,,,,,,,,,,,272.74237570003606,272.8406334000174,273.6406936000567,273.6245238999836,,,,,,,,,,,,,,,,,,,,,,,,,,,,,,,,,,,273.6279959999956,273.6406936000567,273.6406936000567,274.0914515000768,r,1.0,0.4415742000564933,,,,,,sub-065,1,stroop_test,59.95512960228432,
,,,,70.0,10.0,5.0,,,,,,,,,,,,,rot,yellow,g,0.0,g,1.0,0.7212000000290573,,,,,,,,,,5.0,10.0,70.0,3.0,274.1068837000057,,,,,,,,,,,,,,,,,274.0916934001725,274.457078400068,275.2569981999696,275.240272999974,,,,,,,,,,,,,,,,,,,,,,,,,,,,,,,,,,,275.2438240000047,275.2569981999696,275.2569981999696,275.9925167001784,g,1.0,0.7212000000290573,,,,,,sub-065,1,stroop_test,59.95512960228432,
,,,,71.0,11.0,5.0,,,,,,,,,,,,,gelb,yellow,g,1.0,g,1.0,0.5982890001032501,,,,,,,,,,5.0,11.0,71.0,11.0,276.0078168001492,,,,,,,,,,,,,,,,,275.99283810006455,276.3574757000897,277.15716870012693,277.1410487999674,,,,,,,,,,,,,,,,,,,,,,,,,,,,,,,,,,,277.1429341000039,277.15716870012693,277.15716870012693,277.75895210006274,g,1.0,0.5982890001032501,,,,,,sub-065,1,stroop_test,59.95512960228432,
,,,,72.0,0.0,6.0,,,,,,,,,,,,,blau,red,r,0.0,r,1.0,0.6364483998622745,,,,,,,,,,6.0,0.0,72.0,4.0,277.77419909997843,,,,,,,,,,,,,,,,,277.75920230010524,278.5736863000784,279.37657710001804,279.35848739999346,,,,,,,,,,,,,,,,,,,,,,,,,,,,,,,,,,,279.36245870008133,279.37657710001804,279.37657710001804,280.02444960013963,r,1.0,0.6364483998622745,,,,,,sub-065,1,stroop_test,59.95512960228432,
,,,,73.0,1.0,6.0,,,,,,,,,,,,,blau,blue,b,1.0,b,1.0,0.3964797998778522,,,,,,,,,,6.0,1.0,73.0,5.0,280.03997390018776,,,,,,,,,,,,,,,,,280.0246787001379,280.3738216001075,281.17311470001005,281.1572948000394,,,,,,,,,,,,,,,,,,,,,,,,,,,,,,,,,,,281.1575802001171,281.17311470001005,281.17311470001005,281.575130000012,b,1.0,0.3964797998778522,,,,,,sub-065,1,stroop_test,59.95512960228432,
,,,,74.0,2.0,6.0,,,,,,,,,,,,,blau,blue,b,1.0,b,1.0,0.3187834001146257,,,,,,,,,,6.0,2.0,74.0,6.0,281.59026540000923,,,,,,,,,,,,,,,,,281.5753403000999,281.9409884000197,282.75655400007963,282.7411855000537,,,,,,,,,,,,,,,,,,,,,,,,,,,,,,,,,,,282.7415179000236,282.75655400007963,282.75655400007963,283.092206500005,b,1.0,0.3187834001146257,,,,,,sub-065,1,stroop_test,59.95512960228432,
,,,,75.0,3.0,6.0,,,,,,,,,,,,,gelb,yellow,g,1.0,g,1.0,0.4432481999974698,,,,,,,,,,6.0,3.0,75.0,11.0,283.10776310018264,,,,,,,,,,,,,,,,,283.09246950014494,283.4571359001566,284.26018030010164,284.2415803000331,,,,,,,,,,,,,,,,,,,,,,,,,,,,,,,,,,,284.2437831000425,284.26018030010164,284.26018030010164,284.7094970000908,g,1.0,0.4432481999974698,,,,,,sub-065,1,stroop_test,59.95512960228432,
,,,,76.0,4.0,6.0,,,,,,,,,,,,,rot,red,r,1.0,r,1.0,0.3095396999269724,,,,,,,,,,6.0,4.0,76.0,0.0,284.7238200001884,,,,,,,,,,,,,,,,,284.709922300186,285.5236823000014,286.3227528000716,286.30797350010835,,,,,,,,,,,,,,,,,,,,,,,,,,,,,,,,,,,286.3103073001839,286.3227528000716,286.3227528000716,286.6413482001517,r,1.0,0.3095396999269724,,,,,,sub-065,1,stroop_test,59.95512960228432,
,,,,77.0,5.0,6.0,,,,,,,,,,,,,rot,yellow,g,0.0,g,1.0,0.475097400136292,,,,,,,,,,6.0,5.0,77.0,3.0,286.6570329000242,,,,,,,,,,,,,,,,,286.6416085001547,287.8573164001573,288.65659240004607,288.64178399997763,,,,,,,,,,,,,,,,,,,,,,,,,,,,,,,,,,,288.6422715000808,288.65659240004607,288.65659240004607,289.14111279998906,g,1.0,0.475097400136292,,,,,,sub-065,1,stroop_test,59.95512960228432,
,,,,78.0,6.0,6.0,,,,,,,,,,,,,gelb,yellow,g,1.0,g,1.0,0.4681836999952793,,,,,,,,,,6.0,6.0,78.0,10.0,289.1581300999969,,,,,,,,,,,,,,,,,289.1413318000268,290.3406543000601,291.1394464999903,291.12432250007987,,,,,,,,,,,,,,,,,,,,,,,,,,,,,,,,,,,291.1264474999625,291.1394464999903,291.1394464999903,291.62425040011294,g,1.0,0.4681836999952793,,,,,,sub-065,1,stroop_test,59.95512960228432,
,,,,79.0,7.0,6.0,,,,,,,,,,,,,blau,yellow,g,0.0,g,1.0,0.9088737000711262,,,,,,,,,,6.0,7.0,79.0,7.0,291.6407143000979,,,,,,,,,,,,,,,,,291.62449120008387,291.9736981000751,292.7733041001484,292.75706830015406,,,,,,,,,,,,,,,,,,,,,,,,,,,,,,,,,,,292.75935139996,292.7733041001484,292.7733041001484,293.69079350004904,g,1.0,0.9088737000711262,,,,,,sub-065,1,stroop_test,59.95512960228432,
,,,,80.0,8.0,6.0,,,,,,,,,,,,,gelb,blue,b,0.0,b,1.0,0.3984322000760585,,,,,,,,,,6.0,8.0,80.0,9.0,293.70679990015924,,,,,,,,,,,,,,,,,293.6910127000883,293.7899738000706,294.5913868001662,294.5749445001129,,,,,,,,,,,,,,,,,,,,,,,,,,,,,,,,,,,294.57911320007406,294.5913868001662,294.5913868001662,294.9927678001113,b,1.0,0.3984322000760585,,,,,,sub-065,1,stroop_test,59.95512960228432,
,,,,81.0,9.0,6.0,,,,,,,,,,,,,rot,red,r,1.0,r,1.0,0.328911499818787,,,,,,,,,,6.0,9.0,81.0,1.0,295.00645740004256,,,,,,,,,,,,,,,,,294.9929991001263,296.2069819001481,297.00654270011,296.99144200002775,,,,,,,,,,,,,,,,,,,,,,,,,,,,,,,,,,,296.99480960005894,297.00654270011,297.00654270011,297.3419506000355,r,1.0,0.328911499818787,,,,,,sub-065,1,stroop_test,59.95512960228432,
,,,,82.0,10.0,6.0,,,,,,,,,,,,,rot,blue,b,0.0,b,1.0,0.8779078000225127,,,,,,,,,,6.0,10.0,82.0,2.0,297.35659980005585,,,,,,,,,,,,,,,,,297.3422429000493,297.7061469000764,298.5072687000502,298.4910385000985,,,,,,,,,,,,,,,,,,,,,,,,,,,,,,,,,,,298.49143810011446,298.5072687000502,298.5072687000502,299.39192420011386,b,1.0,0.8779078000225127,,,,,,sub-065,1,stroop_test,59.95512960228432,
,,,,83.0,11.0,6.0,,,,,,,,,,,,,gelb,red,r,0.0,r,1.0,0.5713231000117958,,,,,,,,,,6.0,11.0,83.0,8.0,299.40660250000656,,,,,,,,,,,,,,,,,299.3922229001764,300.6066638000775,301.4060738000553,301.39059490012005,,,,,,,,,,,,,,,,,,,,,,,,,,,,,,,,,,,301.3934308001772,301.4060738000553,301.4060738000553,301.99058720003814,r,1.0,0.5713231000117958,,,,,,sub-065,1,stroop_test,59.95512960228432,
,,,,84.0,0.0,7.0,,,,,,,,,,,,,blau,blue,b,1.0,b,1.0,0.7971123999450356,,,,,,,,,,7.0,0.0,84.0,5.0,302.0063748001121,,,,,,,,,,,,,,,,,301.99090169998817,302.35597320017405,303.1560573000461,303.1400069000665,,,,,,,,,,,,,,,,,,,,,,,,,,,,,,,,,,,303.1421420001425,303.1560573000461,303.1560573000461,303.9571100999601,b,1.0,0.7971123999450356,,,,,,sub-065,1,stroop_test,59.95512960228432,
,,,,85.0,1.0,7.0,,,,,,,,,,,,,rot,blue,b,0.0,b,1.0,0.5780434000771493,,,,,,,,,,7.0,1.0,85.0,2.0,303.97346520004794,,,,,,,,,,,,,,,,,303.95735560008325,305.172637199983,305.9753954000771,305.95667300000787,,,,,,,,,,,,,,,,,,,,,,,,,,,,,,,,,,,305.9601106001064,305.9753954000771,305.9753954000771,306.5576148000546,b,1.0,0.5780434000771493,,,,,,sub-065,1,stroop_test,59.95512960228432,
,,,,86.0,2.0,7.0,,,,,,,,,,,,,rot,red,r,1.0,r,1.0,0.8923690998926759,,,,,,,,,,7.0,2.0,86.0,1.0,306.57388050016016,,,,,,,,,,,,,,,,,306.5579888999928,306.6559685000684,307.4558443001006,307.44128190004267,,,,,,,,,,,,,,,,,,,,,,,,,,,,,,,,,,,307.4417179999873,307.4558443001006,307.4558443001006,308.357629199978,r,1.0,0.8923690998926759,,,,,,sub-065,1,stroop_test,59.95512960228432,
,,,,87.0,3.0,7.0,,,,,,,,,,,,,gelb,blue,b,0.0,b,1.0,0.634287899825722,,,,,,,,,,7.0,3.0,87.0,9.0,308.37301630014554,,,,,,,,,,,,,,,,,308.3579345999751,308.72332029999234,309.5235415000934,309.5075412001461,,,,,,,,,,,,,,,,,,,,,,,,,,,,,,,,,,,309.5113988001831,309.5235415000934,309.5235415000934,310.1739606000483,b,1.0,0.634287899825722,,,,,,sub-065,1,stroop_test,59.95512960228432,
,,,,88.0,4.0,7.0,,,,,,,,,,,,,rot,yellow,g,0.0,g,1.0,0.4821410998702049,,,,,,,,,,7.0,4.0,88.0,3.0,310.189482799964,,,,,,,,,,,,,,,,,310.1742202001624,310.97249840013683,311.7734342000913,311.757946500089,,,,,,,,,,,,,,,,,,,,,,,,,,,,,,,,,,,311.7608904000372,311.7734342000913,311.7734342000913,312.25862510013394,g,1.0,0.4821410998702049,,,,,,sub-065,1,stroop_test,59.95512960228432,
,,,,89.0,5.0,7.0,,,,,,,,,,,,,blau,red,r,0.0,r,1.0,0.7236778999213129,,,,,,,,,,7.0,5.0,89.0,4.0,312.27262350008823,,,,,,,,,,,,,,,,,312.2588584001642,313.4726185000036,314.272887500003,314.2584935000632,,,,,,,,,,,,,,,,,,,,,,,,,,,,,,,,,,,314.26075000013225,314.272887500003,314.272887500003,315.0093791000545,r,1.0,0.7236778999213129,,,,,,sub-065,1,stroop_test,59.95512960228432,
,,,,90.0,6.0,7.0,,,,,,,,,,,,,gelb,red,r,0.0,r,1.0,0.4150145000312477,,,,,,,,,,7.0,6.0,90.0,8.0,315.02313670003787,,,,,,,,,,,,,,,,,315.00985480006784,316.2228627000004,317.0237839000765,317.0069870001171,,,,,,,,,,,,,,,,,,,,,,,,,,,,,,,,,,,317.0099406000227,317.0237839000765,317.0237839000765,317.4559785001911,r,1.0,0.4150145000312477,,,,,,sub-065,1,stroop_test,59.95512960228432,
,,,,91.0,7.0,7.0,,,,,,,,,,,,,gelb,yellow,g,1.0,g,1.0,0.7712691000197083,,,,,,,,,,7.0,7.0,91.0,10.0,317.47143030003645,,,,,,,,,,,,,,,,,317.4562067000661,318.2554617000278,319.056399699999,319.0406371001154,,,,,,,,,,,,,,,,,,,,,,,,,,,,,,,,,,,319.04092549998313,319.056399699999,319.056399699999,319.8404692001641,g,1.0,0.7712691000197083,,,,,,sub-065,1,stroop_test,59.95512960228432,
,,,,92.0,8.0,7.0,,,,,,,,,,,,,gelb,yellow,g,1.0,g,1.0,0.5296283001080155,,,,,,,,,,7.0,8.0,92.0,11.0,319.8556840000674,,,,,,,,,,,,,,,,,319.84075770014897,321.05583170009777,321.855951000005,321.8393085000571,,,,,,,,,,,,,,,,,,,,,,,,,,,,,,,,,,,321.8400310999714,321.855951000005,321.855951000005,322.3919556001201,g,1.0,0.5296283001080155,,,,,,sub-065,1,stroop_test,59.95512960228432,
,,,,93.0,9.0,7.0,,,,,,,,,,,,,blau,blue,b,1.0,b,1.0,0.4061187000479549,,,,,,,,,,7.0,9.0,93.0,6.0,322.4059186000377,,,,,,,,,,,,,,,,,322.3928873999976,323.2067642000038,324.0065657000523,323.99104570015334,,,,,,,,,,,,,,,,,,,,,,,,,,,,,,,,,,,323.9942388001364,324.0065657000523,324.0065657000523,324.4242639001459,b,1.0,0.4061187000479549,,,,,,sub-065,1,stroop_test,59.95512960228432,
,,,,94.0,10.0,7.0,,,,,,,,,,,,,rot,red,r,1.0,r,1.0,0.6250011001247913,,,,,,,,,,7.0,10.0,94.0,0.0,324.43953740014695,,,,,,,,,,,,,,,,,324.42463080002926,325.2389824001584,326.0384347999934,326.0222807000391,,,,,,,,,,,,,,,,,,,,,,,,,,,,,,,,,,,326.02488959999755,326.0384347999934,326.0384347999934,326.67391760018654,r,1.0,0.6250011001247913,,,,,,sub-065,1,stroop_test,59.95512960228432,
,,,,95.0,11.0,7.0,,,,,,,,,,,,,blau,yellow,g,0.0,g,1.0,0.5849309000186622,,,,,,,,,,7.0,11.0,95.0,7.0,326.6886483000126,,,,,,,,,,,,,,,,,326.67427380010486,327.0393903001677,327.83896129997447,327.8244340000674,,,,,,,,,,,,,,,,,,,,,,,,,,,,,,,,,,,327.830303600058,327.83896129997447,327.83896129997447,328.44033530005254,g,1.0,0.5849309000186622,,,,,,sub-065,1,stroop_test,59.95512960228432,
,,,,96.0,0.0,8.0,,,,,,,,,,,,,rot,red,r,1.0,r,1.0,0.4817849001847207,,,,,,,,,,8.0,0.0,96.0,0.0,328.45576190017164,,,,,,,,,,,,,,,,,328.4405623001512,329.65664890012704,330.4555566001218,330.4403924001381,,,,,,,,,,,,,,,,,,,,,,,,,,,,,,,,,,,330.44421800016426,330.4555566001218,330.4555566001218,330.9414146000054,r,1.0,0.4817849001847207,,,,,,sub-065,1,stroop_test,59.95512960228432,
,,,,97.0,1.0,8.0,,,,,,,,,,,,,gelb,red,r,0.0,r,1.0,0.4892353001050651,,,,,,,,,,8.0,1.0,97.0,8.0,330.95610030018725,,,,,,,,,,,,,,,,,330.9417346001137,332.15678389999084,332.9554368001409,332.94022039999254,,,,,,,,,,,,,,,,,,,,,,,,,,,,,,,,,,,332.94413019996136,332.9554368001409,332.9554368001409,333.4564231999684,r,1.0,0.4892353001050651,,,,,,sub-065,1,stroop_test,59.95512960228432,
,,,,98.0,2.0,8.0,,,,,,,,,,,,,blau,blue,b,1.0,b,1.0,0.4462429999839514,,,,,,,,,,8.0,2.0,98.0,5.0,333.4714981999714,,,,,,,,,,,,,,,,,333.4566824999638,334.6732709000353,335.4719825000502,335.45690950006247,,,,,,,,,,,,,,,,,,,,,,,,,,,,,,,,,,,335.46057410002686,335.4719825000502,335.4719825000502,335.92452790006064,b,1.0,0.4462429999839514,,,,,,sub-065,1,stroop_test,59.95512960228432,
,,,,99.0,3.0,8.0,,,,,,,,,,,,,rot,yellow,g,0.0,g,1.0,0.5909738000482321,,,,,,,,,,8.0,3.0,99.0,3.0,335.9391758001875,,,,,,,,,,,,,,,,,335.9248139001429,336.2736794000957,337.0892066999804,337.07228459999897,,,,,,,,,,,,,,,,,,,,,,,,,,,,,,,,,,,337.0743336000014,337.0892066999804,337.0892066999804,337.6896548001096,g,1.0,0.5909738000482321,,,,,,sub-065,1,stroop_test,59.95512960228432,
,,,,100.0,4.0,8.0,,,,,,,,,,,,,rot,red,r,1.0,r,1.0,0.3745470000430941,,,,,,,,,,8.0,4.0,100.0,1.0,337.70450990018435,,,,,,,,,,,,,,,,,337.68987140012905,338.88936520018615,339.6892123001162,339.6734398000408,,,,,,,,,,,,,,,,,,,,,,,,,,,,,,,,,,,339.6738186001312,339.6892123001162,339.6892123001162,340.073418200016,r,1.0,0.3745470000430941,,,,,,sub-065,1,stroop_test,59.95512960228432,
,,,,101.0,5.0,8.0,,,,,,,,,,,,,blau,yellow,g,0.0,g,1.0,0.733142500044778,,,,,,,,,,8.0,5.0,101.0,7.0,340.08894280018285,,,,,,,,,,,,,,,,,340.07367120007984,340.42244170000777,341.2221168000251,341.20562630007043,,,,,,,,,,,,,,,,,,,,,,,,,,,,,,,,,,,341.2082634000108,341.2221168000251,341.2221168000251,341.95829510013573,g,1.0,0.733142500044778,,,,,,sub-065,1,stroop_test,59.95512960228432,
,,,,102.0,6.0,8.0,,,,,,,,,,,,,gelb,blue,b,0.0,b,1.0,0.5914638000540435,,,,,,,,,,8.0,6.0,102.0,9.0,341.9723005001433,,,,,,,,,,,,,,,,,341.95857829996385,342.3218414001167,343.1267594001256,343.1071477001533,,,,,,,,,,,,,,,,,,,,,,,,,,,,,,,,,,,343.1114193999674,343.1267594001256,343.1267594001256,343.72501030005515,b,1.0,0.5914638000540435,,,,,,sub-065,1,stroop_test,59.95512960228432,
,,,,103.0,7.0,8.0,,,,,,,,,,,,,gelb,yellow,g,1.0,g,1.0,0.5488501000218093,,,,,,,,,,8.0,7.0,103.0,11.0,343.73866540007293,,,,,,,,,,,,,,,,,343.72542709996924,343.83885020017624,344.6386237000115,344.6230276001152,,,,,,,,,,,,,,,,,,,,,,,,,,,,,,,,,,,344.6234784000553,344.6386237000115,344.6386237000115,345.19034119998105,g,1.0,0.5488501000218093,,,,,,sub-065,1,stroop_test,59.95512960228432,
,,,,104.0,8.0,8.0,,,,,,,,,,,,,blau,blue,b,1.0,b,1.0,0.4859446000773459,,,,,,,,,,8.0,8.0,104.0,6.0,345.2046046999749,,,,,,,,,,,,,,,,,345.19057360012084,346.3889737999998,347.1884508000221,347.17388060013764,,,,,,,,,,,,,,,,,,,,,,,,,,,,,,,,,,,347.17835960001685,347.1884508000221,347.1884508000221,347.69020610000007,b,1.0,0.4859446000773459,,,,,,sub-065,1,stroop_test,59.95512960228432,
,,,,105.0,9.0,8.0,,,,,,,,,,,,,gelb,yellow,g,1.0,r,0.0,0.5512199001386762,,,,,,,,,,8.0,9.0,105.0,10.0,347.7056766001042,,,,,,,,,,,,,,,,,347.6904731001705,348.0561736000236,348.8548372001387,348.8396536000073,,,,,,,,,,,,,,,,,,,,,,,,,,,,,,,,,,,348.84316060016863,348.8548372001387,348.8548372001387,349.4232847001404,r,0.0,0.5512199001386762,,,,,,sub-065,1,stroop_test,59.95512960228432,
,,,,106.0,10.0,8.0,,,,,,,,,,,,,rot,blue,b,0.0,b,1.0,1.6289937999099493,,,,,,,,,,8.0,10.0,106.0,2.0,349.4385091001168,,,,,,,,,,,,,,,,,349.4235372999683,349.5222736999858,350.33566540014,350.3068489001598,,,,,,,,,,,,,,,,,,,,,,,,,,,,,,,,,,,350.3165302001871,350.33566540014,350.33566540014,351.9732353000436,b,1.0,1.6289937999099493,,,,,,sub-065,1,stroop_test,59.95512960228432,
,,,,107.0,11.0,8.0,,,,,,,,,,,,,blau,red,r,0.0,r,1.0,0.6458382999990135,,,,,,,,,,8.0,11.0,107.0,4.0,351.9885118000675,,,,,,,,,,,,,,,,,351.97346650017425,352.08859220007434,352.888034600066,352.8738559000194,,,,,,,,,,,,,,,,,,,,,,,,,,,,,,,,,,,352.87795170000754,352.888034600066,352.888034600066,353.5387295000255,r,1.0,0.6458382999990135,,,,,,sub-065,1,stroop_test,59.95512960228432,
,,,,108.0,0.0,9.0,,,,,,,,,,,,,blau,red,r,0.0,r,1.0,0.4056776999495923,,,,,,,,,,9.0,0.0,108.0,4.0,353.55460850009695,,,,,,,,,,,,,,,,,353.5389570000116,354.7388687001076,355.53880010009743,355.5230031001847,,,,,,,,,,,,,,,,,,,,,,,,,,,,,,,,,,,355.5232947000768,355.53880010009743,355.53880010009743,355.956908200169,r,1.0,0.4056776999495923,,,,,,sub-065,1,stroop_test,59.95512960228432,
,,,,109.0,1.0,9.0,,,,,,,,,,,,,gelb,yellow,g,1.0,g,1.0,0.7930451999418437,,,,,,,,,,9.0,1.0,109.0,11.0,355.9720070001204,,,,,,,,,,,,,,,,,355.9571317001246,356.7720484000165,357.57125909999013,357.5554901000578,,,,,,,,,,,,,,,,,,,,,,,,,,,,,,,,,,,357.5585731000174,357.57125909999013,357.57125909999013,358.3720813000109,g,1.0,0.7930451999418437,,,,,,sub-065,1,stroop_test,59.95512960228432,
,,,,110.0,2.0,9.0,,,,,,,,,,,,,rot,blue,b,0.0,b,1.0,0.3943809000775218,,,,,,,,,,9.0,2.0,110.0,2.0,358.3878699000925,,,,,,,,,,,,,,,,,358.3723222999833,359.1722546000965,359.9725579000078,359.9568773000501,,,,,,,,,,,,,,,,,,,,,,,,,,,,,,,,,,,359.9608674000483,359.9725579000078,359.9725579000078,360.3737292001024,b,1.0,0.3943809000775218,,,,,,sub-065,1,stroop_test,59.95512960228432,
,,,,111.0,3.0,9.0,,,,,,,,,,,,,gelb,yellow,g,1.0,g,1.0,0.6481449999846518,,,,,,,,,,9.0,3.0,111.0,10.0,360.3879985001404,,,,,,,,,,,,,,,,,360.37397710001096,360.4892623999622,361.2893750001677,361.27281019999646,,,,,,,,,,,,,,,,,,,,,,,,,,,,,,,,,,,361.27507720002905,361.2893750001677,361.2893750001677,361.94055259996094,g,1.0,0.6481449999846518,,,,,,sub-065,1,stroop_test,59.95512960228432,
,,,,112.0,4.0,9.0,,,,,,,,,,,,,gelb,red,r,0.0,r,1.0,0.6163419999647886,,,,,,,,,,9.0,4.0,112.0,8.0,361.9547223001719,,,,,,,,,,,,,,,,,361.9407673999667,362.0542405999731,362.85501740011387,362.83874380006455,,,,,,,,,,,,,,,,,,,,,,,,,,,,,,,,,,,362.8391695001628,362.85501740011387,362.85501740011387,363.4736057000701,r,1.0,0.6163419999647886,,,,,,sub-065,1,stroop_test,59.95512960228432,
,,,,113.0,5.0,9.0,,,,,,,,,,,,,blau,blue,b,1.0,b,1.0,0.708384299883619,,,,,,,,,,9.0,5.0,113.0,6.0,363.4883741000667,,,,,,,,,,,,,,,,,363.4738253999967,363.58922250010073,364.3887897999957,364.3732454001438,,,,,,,,,,,,,,,,,,,,,,,,,,,,,,,,,,,364.37626220006496,364.3887897999957,364.3887897999957,365.1059781000949,b,1.0,0.708384299883619,,,,,,sub-065,1,stroop_test,59.95512960228432,
,,,,114.0,6.0,9.0,,,,,,,,,,,,,rot,red,r,1.0,r,1.0,0.6144489001017064,,,,,,,,,,9.0,6.0,114.0,1.0,365.121942800004,,,,,,,,,,,,,,,,,365.1061943001114,365.20473500015214,366.0048485000152,365.9896949999966,,,,,,,,,,,,,,,,,,,,,,,,,,,,,,,,,,,365.9918437001761,366.0048485000152,366.0048485000152,366.6224790001288,r,1.0,0.6144489001017064,,,,,,sub-065,1,stroop_test,59.95512960228432,
,,,,115.0,7.0,9.0,,,,,,,,,,,,,rot,yellow,g,0.0,g,1.0,0.5857802999671549,,,,,,,,,,9.0,7.0,115.0,3.0,366.6387265000958,,,,,,,,,,,,,,,,,366.62270339997485,367.822200700175,368.6375396000221,368.6218583001755,,,,,,,,,,,,,,,,,,,,,,,,,,,,,,,,,,,368.6221986000892,368.6375396000221,368.6375396000221,369.2386008000467,g,1.0,0.5857802999671549,,,,,,sub-065,1,stroop_test,59.95512960228432,
,,,,116.0,8.0,9.0,,,,,,,,,,,,,blau,blue,b,1.0,b,1.0,0.6958332001231611,,,,,,,,,,9.0,8.0,116.0,5.0,369.25441200006753,,,,,,,,,,,,,,,,,369.2388088000007,369.58765360014513,370.3888761000708,370.37345529999584,,,,,,,,,,,,,,,,,,,,,,,,,,,,,,,,,,,370.3753437001724,370.3888761000708,370.3888761000708,371.0902578001842,b,1.0,0.6958332001231611,,,,,,sub-065,1,stroop_test,59.95512960228432,
,,,,117.0,9.0,9.0,,,,,,,,,,,,,blau,yellow,g,0.0,g,1.0,1.4649993998464197,,,,,,,,,,9.0,9.0,117.0,7.0,371.1048173001036,,,,,,,,,,,,,,,,,371.0904849001672,371.2053005001508,372.0053173999768,371.9888361999765,,,,,,,,,,,,,,,,,,,,,,,,,,,,,,,,,,,371.98914610012434,372.0053173999768,372.0053173999768,373.4733696000185,g,1.0,1.4649993998464197,,,,,,sub-065,1,stroop_test,59.95512960228432,
,,,,118.0,10.0,9.0,,,,,,,,,,,,,gelb,blue,b,0.0,b,1.0,0.636818700004369,,,,,,,,,,9.0,10.0,118.0,9.0,373.4893993001897,,,,,,,,,,,,,,,,,373.47362740011886,374.6885651000776,375.4904438001104,375.47277960018255,,,,,,,,,,,,,,,,,,,,,,,,,,,,,,,,,,,375.4760553999804,375.4904438001104,375.4904438001104,376.1399580000434,b,1.0,0.636818700004369,,,,,,sub-065,1,stroop_test,59.95512960228432,
,,,,119.0,11.0,9.0,,,,,,,,,,,,,rot,red,r,1.0,r,1.0,0.5570094001013786,,,,,,,,,,9.0,11.0,119.0,0.0,376.1559272999875,,,,,,,,,,,,,,,,,376.1402386999689,376.50546080013737,377.30421650013886,377.2890784000047,,,,,,,,,,,,,,,,,,,,,,,,,,,,,,,,,,,377.2948313001543,377.30421650013886,377.30421650013886,377.8729318000842,r,1.0,0.5570094001013786,,,,,,sub-065,1,stroop_test,59.95512960228432,
,,,,,,,,,,,,,,,,,,,,,,,,,,,,,,,,,,,,,,,,,,,,,,,,,,,,,,,,,,,,,,,,,,,,,,,,,,,,,,,,,,,,,,,,,,,,,,,,,,,,,,377.87308320007287,377.88841899996623,382.8881477999967,382.8729704001453,sub-065,1,stroop_test,59.95512960228432,
