wordCTK,colorCTK,corrAnsCTK,congruentCTK,thisN,thisTrialN,thisRepN,keyResp_CTK.keys,keyResp_CTK.corr,keyResp_CTK.rt,keyResp_CTK.duration,wordPractice,colorPractice,corrAnsPractice,congruentPractice,respPractice.keys,respPractice.corr,respPractice.rt,respPractice.duration,word,color,corrAns,congruent,keyResp_test_run.keys,keyResp_test_run.corr,keyResp_test_run.rt,keyResp_test_run.duration,trials_CTK.thisRepN,trials_CTK.thisTrialN,trials_CTK.thisN,trials_CTK.thisIndex,trials_practice.thisRepN,trials_practice.thisTrialN,trials_practice.thisN,trials_practice.thisIndex,trials_test.thisRepN,trials_test.thisTrialN,trials_test.thisN,trials_test.thisIndex,thisRow.t,notes,instruction.started,instr_text.started,instr_image.started,instr_resp.started,instruction.stopped,instr_resp.keys,instr_resp.rt,instr_resp.duration,instr_color_to_key.started,instr_ctk.started,resp_ctk.started,instr_color_to_key.stopped,resp_ctk.keys,resp_ctk.rt,resp_ctk.duration,ITI.started,fixcross.started,fixcross.stopped,ITI.stopped,color_to_key_run.started,stimulus_CTK.started,keyResp_CTK.started,color_to_key_run.stopped,trials_CTK.keyResp_CTK.keys,trials_CTK.keyResp_CTK.corr,trials_CTK.keyResp_CTK.rt,trials_CTK.keyResp_CTK.duration,instr_practice.started,instr_practice_text.started,instr_practice_resp.started,instr_practice.stopped,instr_practice_resp.keys,instr_practice_resp.rt,instr_practice_resp.duration,practice_run.started,stimulus_practice.started,respPractice.started,practice_run.stopped,trials_practice.respPractice.keys,trials_practice.respPractice.corr,trials_practice.respPractice.rt,trials_practice.respPractice.duration,feedback.started,textFeedback.started,textFeedback.stopped,feedback.stopped,instr_test.started,instr_test_text.started,instr_test_resp.started,instr_test.stopped,instr_test_resp.keys,instr_test_resp.rt,instr_test_resp.duration,test_run.started,stimulus_test_run.started,keyResp_test_run.started,test_run.stopped,trials_test.keyResp_test_run.keys,trials_test.keyResp_test_run.corr,trials_test.keyResp_test_run.rt,trials_test.keyResp_test_run.duration,goodbye.started,textGoodbye.started,textGoodbye.stopped,goodbye.stopped,participant,session,expName,frameRate,Unnamed: 113
,,,,,,,,,,,,,,,,,,,,,,,,,,,,,,,,,,,,,,,,,0.0148147239960962,0.0408647000003838,0.0408647000003838,0.0408647000003838,0.8576497899994138,space,0.789619950002816,,,,,,,,,,,,,,,,,,,,,,,,,,,,,,,,,,,,,,,,,,,,,,,,,,,,,,,,,,,sub-189,1,stroop_test,80.96644791107066,
,,,,,,,,,,,,,,,,,,,,,,,,,,,,,,,,,,,,,,,,,,,,,,,,,0.8577112700004363,0.8778427349971025,0.8778427349971025,1.6823057959991274,space,0.8006463319979957,,,,,,,,,,,,,,,,,,,,,,,,,,,,,,,,,,,,,,,,,,,,,,,,,,,,sub-189,1,stroop_test,80.96644791107066,
test,yellow,g,1.0,0.0,0.0,0.0,g,1.0,0.5231454739987385,,,,,,,,,,,,,,,,,,0.0,0.0,0.0,1.0,,,,,,,,,1.7133840390015391,,,,,,,,,,,,,,,,,1.6933736779974424,2.8802643719973275,3.6835914219991537,3.670843498999602,3.675901622998936,3.6835914219991537,3.6835914219991537,4.216184291995887,g,1.0,0.5231454739987385,,,,,,,,,,,,,,,,,,,,,,,,,,,,,,,,,,,,,,,,sub-189,1,stroop_test,80.96644791107066,
test,blue,b,1.0,1.0,1.0,0.0,b,1.0,0.3666996960018878,,,,,,,,,,,,,,,,,,0.0,1.0,1.0,2.0,,,,,,,,,4.227732070998172,,,,,,,,,,,,,,,,,4.216570901000523,4.565167515000212,5.361973551000119,5.353730324000935,5.3543358399983845,5.361973551000119,5.361973551000119,5.737928825998097,b,1.0,0.3666996960018878,,,,,,,,,,,,,,,,,,,,,,,,,,,,,,,,,,,,,,,,sub-189,1,stroop_test,80.96644791107066,
test,red,r,1.0,2.0,2.0,0.0,r,1.0,0.4306123740025214,,,,,,,,,,,,,,,,,,0.0,2.0,2.0,0.0,,,,,,,,,5.746580193997943,,,,,,,,,,,,,,,,,5.738227228997857,6.085943808997399,6.87863288999506,6.870537916001922,6.87116450999747,6.87863288999506,6.87863288999506,7.3122555739973905,r,1.0,0.4306123740025214,,,,,,,,,,,,,,,,,,,,,,,,,,,,,,,,,,,,,,,,sub-189,1,stroop_test,80.96644791107066,
test,yellow,g,1.0,3.0,0.0,1.0,g,1.0,0.480682852998143,,,,,,,,,,,,,,,,,,1.0,0.0,3.0,1.0,,,,,,,,,7.323582953998994,,,,,,,,,,,,,,,,,7.31256944299821,7.409720406998531,8.203799003000313,8.19403225199494,8.194648725999286,8.203799003000313,8.203799003000313,8.688173228001688,g,1.0,0.480682852998143,,,,,,,,,,,,,,,,,,,,,,,,,,,,,,,,,,,,,,,,sub-189,1,stroop_test,80.96644791107066,
test,blue,b,1.0,4.0,1.0,1.0,b,1.0,0.5023965090003912,,,,,,,,,,,,,,,,,,1.0,1.0,4.0,2.0,,,,,,,,,8.696883003998664,,,,,,,,,,,,,,,,,8.688474761998805,8.78622779899888,9.578141842997866,9.570342681996408,9.57092782399559,9.578141842997866,9.578141842997866,10.088510370995207,b,1.0,0.5023965090003912,,,,,,,,,,,,,,,,,,,,,,,,,,,,,,,,,,,,,,,,sub-189,1,stroop_test,80.96644791107066,
test,red,r,1.0,5.0,2.0,1.0,r,1.0,0.4935244039952522,,,,,,,,,,,,,,,,,,1.0,2.0,5.0,0.0,,,,,,,,,10.09745089399803,,,,,,,,,,,,,,,,,10.088888430000225,10.186706028995104,10.979408489998605,10.970943551001255,10.971543564999592,10.979408489998605,10.979408489998605,11.479316527002084,r,1.0,0.4935244039952522,,,,,,,,,,,,,,,,,,,,,,,,,,,,,,,,,,,,,,,,sub-189,1,stroop_test,80.96644791107066,
test,blue,b,1.0,6.0,0.0,2.0,b,1.0,0.4635844439981156,,,,,,,,,,,,,,,,,,2.0,0.0,6.0,2.0,,,,,,,,,11.490045820995874,,,,,,,,,,,,,,,,,11.479623606996029,12.676894443000492,13.470712550995811,13.461074145998282,13.461696587000915,13.470712550995811,13.470712550995811,13.9380373219974,b,1.0,0.4635844439981156,,,,,,,,,,,,,,,,,,,,,,,,,,,,,,,,,,,,,,,,sub-189,1,stroop_test,80.96644791107066,
test,red,r,1.0,7.0,1.0,2.0,r,1.0,0.4114022820067475,,,,,,,,,,,,,,,,,,2.0,1.0,7.0,0.0,,,,,,,,,13.947308055998292,,,,,,,,,,,,,,,,,13.93833754499792,14.036701605000417,14.828867972995797,14.820636725999066,14.82123592699645,14.828867972995797,14.828867972995797,15.24668117499823,r,1.0,0.4114022820067475,,,,,,,,,,,,,,,,,,,,,,,,,,,,,,,,,,,,,,,,sub-189,1,stroop_test,80.96644791107066,
test,yellow,g,1.0,8.0,2.0,2.0,g,1.0,0.3386907069943845,,,,,,,,,,,,,,,,,,2.0,2.0,8.0,1.0,,,,,,,,,15.257390020000456,,,,,,,,,,,,,,,,,15.247049830999458,15.343320396001218,16.136753850994864,16.1280890909984,16.128705097995407,16.136753850994864,16.136753850994864,16.47969214600016,g,1.0,0.3386907069943845,,,,,,,,,,,,,,,,,,,,,,,,,,,,,,,,,,,,,,,,sub-189,1,stroop_test,80.96644791107066,
test,yellow,g,1.0,9.0,0.0,3.0,g,1.0,0.6012104819965316,,,,,,,,,,,,,,,,,,3.0,0.0,9.0,1.0,,,,,,,,,16.49006657100108,,,,,,,,,,,,,,,,,16.480018900001596,16.826714167997125,17.620287453995843,17.61053026499576,17.611154280995834,17.620287453995843,17.620287453995843,18.2314425509976,g,1.0,0.6012104819965316,,,,,,,,,,,,,,,,,,,,,,,,,,,,,,,,,,,,,,,,sub-189,1,stroop_test,80.96644791107066,
test,red,r,1.0,10.0,1.0,3.0,r,1.0,0.4351006479992065,,,,,,,,,,,,,,,,,,3.0,1.0,10.0,0.0,,,,,,,,,18.24237322499539,,,,,,,,,,,,,,,,,18.231833248995827,19.026735169994936,19.820774004001574,19.81100636699557,19.811634165002037,19.820774004001574,19.820774004001574,20.263494688995703,r,1.0,0.4351006479992065,,,,,,,,,,,,,,,,,,,,,,,,,,,,,,,,,,,,,,,,sub-189,1,stroop_test,80.96644791107066,
test,blue,b,1.0,11.0,2.0,3.0,b,1.0,0.3171182629957911,,,,,,,,,,,,,,,,,,3.0,2.0,11.0,2.0,,,,,,,,,20.2734083510004,,,,,,,,,,,,,,,,,20.263865234999685,20.60992752399761,21.40362343499873,21.393964492999658,21.394573312994908,21.40362343499873,21.40362343499873,21.729848001996288,b,1.0,0.3171182629957911,,,,,,,,,,,,,,,,,,,,,,,,,,,,,,,,,,,,,,,,sub-189,1,stroop_test,80.96644791107066,
,,,,,,,,,,,,,,,,,,,,,,,,,,,,,,,,,,,,,,,,,,,,,,,,,,,,,,,,,,,,,,,,,,,,21.730019359994916,21.74196145699534,21.74196145699534,23.170896358999016,space,1.4214978129966769,,,,,,,,,,,,,,,,,,,,,,,,,,,,,,,,,sub-189,1,stroop_test,80.96644791107066,
,,,,0.0,0.0,0.0,,,,,rot,red,r,1.0,r,1.0,0.4139074270060519,,,,,,,,,,,,,,0.0,0.0,0.0,1.0,,,,,23.189333661997807,,,,,,,,,,,,,,,,,23.18066685299709,23.969656285000383,24.765821937995497,24.75376231099653,,,,,,,,,,,,,,,,24.75809793699591,24.765821937995497,24.765821937995497,25.1880262650011,r,1.0,0.4139074270060519,,25.19266680399596,25.20296236300055,26.19401781399938,26.18710248899879,,,,,,,,,,,,,,,,,,,,sub-189,1,stroop_test,80.96644791107066,
,,,,1.0,1.0,0.0,,,,,blau,blue,b,1.0,b,1.0,0.473637613999017,,,,,,,,,,,,,,0.0,1.0,1.0,5.0,,,,,26.19401781399938,,,,,,,,,,,,,,,,,26.187516459001927,26.536310946998128,27.33426612399489,27.320212685001025,,,,,,,,,,,,,,,,27.32635114099685,27.33426612399489,27.33426612399489,27.81255855299969,b,1.0,0.473637613999017,,27.813028008997208,27.82329758600099,28.820525433999137,28.81152817900147,,,,,,,,,,,,,,,,,,,,sub-189,1,stroop_test,80.96644791107066,
,,,,2.0,2.0,0.0,,,,,gelb,yellow,g,1.0,g,1.0,0.3329251780014601,,,,,,,,,,,,,,0.0,2.0,2.0,11.0,,,,,28.820525433999137,,,,,,,,,,,,,,,,,28.81205374500132,29.61006472900044,30.406917652995617,30.39411329599534,,,,,,,,,,,,,,,,30.397231294999077,30.406917652995617,30.406917652995617,30.74615636499948,g,1.0,0.3329251780014601,,30.746714861998043,30.757619185002117,31.752806577998854,31.744058906995637,,,,,,,,,,,,,,,,,,,,sub-189,1,stroop_test,80.96644791107066,
,,,,3.0,3.0,0.0,,,,,blau,red,r,0.0,r,1.0,0.6245368620002409,,,,,,,,,,,,,,0.0,3.0,3.0,4.0,,,,,31.752806577998854,,,,,,,,,,,,,,,,,31.744494827995368,31.843051094001567,32.63967327499995,32.627118349999364,,,,,,,,,,,,,,,,32.63091828699544,32.63967327499995,32.63967327499995,33.27259346899518,r,1.0,0.6245368620002409,,33.273137990996474,33.28311297999608,34.277170879999176,34.270434933001525,,,,,,,,,,,,,,,,,,,,sub-189,1,stroop_test,80.96644791107066,
,,,,4.0,4.0,0.0,,,,,rot,blue,b,0.0,b,1.0,0.4661726619960973,,,,,,,,,,,,,,0.0,4.0,4.0,2.0,,,,,34.277170879999176,,,,,,,,,,,,,,,,,34.27083366199804,35.06940168899746,35.86531606099743,35.85350468799879,,,,,,,,,,,,,,,,35.85753374599881,35.86531606099743,35.86531606099743,36.33779966799921,b,1.0,0.4661726619960973,,36.33825705699565,36.34841818199493,37.34340924800199,37.336784790997626,,,,,,,,,,,,,,,,,,,,sub-189,1,stroop_test,80.96644791107066,
,,,,5.0,5.0,0.0,,,,,rot,red,r,1.0,r,1.0,0.4611400319990935,,,,,,,,,,,,,,0.0,5.0,5.0,0.0,,,,,37.34340924800199,,,,,,,,,,,,,,,,,37.33719183699577,37.43613186899893,38.22844636799709,38.21998916099983,,,,,,,,,,,,,,,,38.22058242299681,38.22844636799709,38.22844636799709,38.69687030799832,r,1.0,0.4611400319990935,,38.6973359659969,38.70821487899957,39.70294177799951,39.694267628998205,,,,,,,,,,,,,,,,,,,,sub-189,1,stroop_test,80.96644791107066,
,,,,6.0,6.0,0.0,,,,,rot,yellow,g,0.0,g,1.0,0.7482044329954078,,,,,,,,,,,,,,0.0,6.0,6.0,3.0,,,,,39.70294177799951,,,,,,,,,,,,,,,,,39.69469014999777,39.793454777995066,40.586265382997226,40.57766873899527,,,,,,,,,,,,,,,,40.57825484099885,40.586265382997226,40.586265382997226,41.33903487800126,g,1.0,0.7482044329954078,,41.33957448699948,41.34914993699931,42.34421707400179,42.33710134300054,,,,,,,,,,,,,,,,,,,,sub-189,1,stroop_test,80.96644791107066,
,,,,7.0,7.0,0.0,,,,,gelb,yellow,g,1.0,g,1.0,0.517280337997363,,,,,,,,,,,,,,0.0,7.0,7.0,10.0,,,,,42.34421707400179,,,,,,,,,,,,,,,,,42.33763756400003,43.53590157799772,44.33057543500036,44.32011718500144,,,,,,,,,,,,,,,,44.32312386600097,44.33057543500036,44.33057543500036,44.85409870000149,g,1.0,0.517280337997363,,44.85456809199968,44.8646780919953,45.85953689600137,45.853008999998565,,,,,,,,,,,,,,,,,,,,sub-189,1,stroop_test,80.96644791107066,
,,,,8.0,8.0,0.0,,,,,gelb,red,r,0.0,r,1.0,0.382378107002296,,,,,,,,,,,,,,0.0,8.0,8.0,8.0,,,,,45.85953689600137,,,,,,,,,,,,,,,,,45.85341365500062,47.05237798799499,47.844258728997374,47.83642434099602,,,,,,,,,,,,,,,,47.837024157001,47.844258728997374,47.844258728997374,48.236942033996456,r,1.0,0.382378107002296,,48.23750735700014,48.24637276199792,49.24359691899736,49.23679694400198,,,,,,,,,,,,,,,,,,,,sub-189,1,stroop_test,80.96644791107066,
,,,,9.0,9.0,0.0,,,,,gelb,blue,b,0.0,b,1.0,0.7066760750021785,,,,,,,,,,,,,,0.0,9.0,9.0,9.0,,,,,49.24359691899736,,,,,,,,,,,,,,,,,49.23721309300163,49.335888060995785,50.12820349400136,50.12003857899981,,,,,,,,,,,,,,,,50.12062806099857,50.12820349400136,50.12820349400136,50.839095110000926,b,1.0,0.7066760750021785,,50.83963300399773,50.85077661000105,51.84291888200096,51.83635379599582,,,,,,,,,,,,,,,,,,,,sub-189,1,stroop_test,80.96644791107066,
,,,,10.0,10.0,0.0,,,,,blau,blue,b,1.0,b,1.0,0.5129405689949635,,,,,,,,,,,,,,0.0,10.0,10.0,6.0,,,,,51.84291888200096,,,,,,,,,,,,,,,,,51.83676183500211,52.63559630599775,53.43007512799522,53.41978443099652,,,,,,,,,,,,,,,,53.42280635100178,53.43007512799522,53.43007512799522,53.94685153699538,b,1.0,0.5129405689949635,,53.947392383997794,53.95862563899573,54.952307264997216,54.94316538999556,,,,,,,,,,,,,,,,,,,,sub-189,1,stroop_test,80.96644791107066,
,,,,11.0,11.0,0.0,,,,,blau,yellow,g,0.0,g,1.0,0.5665815729953465,,,,,,,,,,,,,,0.0,11.0,11.0,7.0,,,,,54.952307264997216,,,,,,,,,,,,,,,,,54.94357580899669,56.142316596000455,56.93601292599487,56.92674700800126,,,,,,,,,,,,,,,,56.92739259399968,56.93601292599487,56.93601292599487,57.50467037899944,g,1.0,0.5665815729953465,,57.5053270569988,57.51465363999887,58.50943935599935,58.50298264199955,,,,,,,,,,,,,,,,,,,,sub-189,1,stroop_test,80.96644791107066,
,,,,12.0,0.0,1.0,,,,,blau,red,r,0.0,r,1.0,0.6903166789998068,,,,,,,,,,,,,,1.0,0.0,12.0,4.0,,,,,58.50943935599935,,,,,,,,,,,,,,,,,58.50338297599956,59.30217666499812,60.09465891999571,60.08631523700024,,,,,,,,,,,,,,,,60.08692006199999,60.09465891999571,60.09465891999571,60.787481763996766,r,1.0,0.6903166789998068,,60.7878921570009,60.79743137699552,61.79259226499562,61.78625331499643,,,,,,,,,,,,,,,,,,,,sub-189,1,stroop_test,80.96644791107066,
,,,,13.0,1.0,1.0,,,,,blau,blue,b,1.0,b,1.0,0.6935275779978838,,,,,,,,,,,,,,1.0,1.0,13.0,5.0,,,,,61.79259226499562,,,,,,,,,,,,,,,,,61.78665623699635,61.885505117999855,62.677337235996674,62.66950754600112,,,,,,,,,,,,,,,,62.67010524599755,62.677337235996674,62.677337235996674,63.37826092099567,b,1.0,0.6935275779978838,,63.37873090100038,63.38979805100098,64.38551655999618,64.37627598200197,,,,,,,,,,,,,,,,,,,,sub-189,1,stroop_test,80.96644791107066,
,,,,14.0,2.0,1.0,,,,,rot,red,r,1.0,r,1.0,0.4812518219987396,,,,,,,,,,,,,,1.0,2.0,14.0,0.0,,,,,64.38551655999618,,,,,,,,,,,,,,,,,64.37668847000168,65.17550400600157,65.97250473399617,65.9599214100017,,,,,,,,,,,,,,,,65.96382962099597,65.97250473399617,65.97250473399617,66.46118685299734,r,1.0,0.4812518219987396,,66.46166112499486,66.47295672699693,67.46937022000202,67.4607512779985,,,,,,,,,,,,,,,,,,,,sub-189,1,stroop_test,80.96644791107066,
,,,,15.0,3.0,1.0,,,,,gelb,blue,b,0.0,b,1.0,0.4544000750029227,,,,,,,,,,,,,,1.0,3.0,15.0,9.0,,,,,67.46937022000202,,,,,,,,,,,,,,,,,67.46129798599577,67.55852507199597,68.356282216002,68.34315652000078,,,,,,,,,,,,,,,,68.34661854399747,68.356282216002,68.356282216002,68.82039446999988,b,1.0,0.4544000750029227,,68.82087100899662,68.83113560499623,69.82600716099842,69.81955040100001,,,,,,,,,,,,,,,,,,,,sub-189,1,stroop_test,80.96644791107066,
,,,,16.0,4.0,1.0,,,,,rot,blue,b,0.0,b,1.0,0.5614310769960866,,,,,,,,,,,,,,1.0,4.0,16.0,2.0,,,,,69.82600716099842,,,,,,,,,,,,,,,,,69.81995656200161,70.61855170600029,71.4146593139958,71.40313751099893,,,,,,,,,,,,,,,,71.40699034399586,71.4146593139958,71.4146593139958,71.97826577299566,b,1.0,0.5614310769960866,,71.97894225100026,71.98969547199522,72.98554341999989,72.97686864099524,,,,,,,,,,,,,,,,,,,,sub-189,1,stroop_test,80.96644791107066,
,,,,17.0,5.0,1.0,,,,,gelb,yellow,g,1.0,g,1.0,0.6151480370026547,,,,,,,,,,,,,,1.0,5.0,17.0,10.0,,,,,72.98554341999989,,,,,,,,,,,,,,,,,72.97728500399535,73.32641503999912,74.12303321799845,74.11011663699901,,,,,,,,,,,,,,,,74.11322826299875,74.12303321799845,74.12303321799845,74.74802063399693,g,1.0,0.6151480370026547,,74.74859155900049,74.76058762399771,,75.75249086300028,,,,,,,,,,,,,,,,,,,,sub-189,1,stroop_test,80.96644791107066,
,,,,18.0,6.0,1.0,,,,,blau,yellow,g,0.0,g,1.0,0.631850455996755,,,,,,,,,,,,,,1.0,6.0,18.0,7.0,,,,,75.75954092200118,,,,,,,,,,,,,,,,,75.7529030969963,76.94261658300093,77.73967809799797,77.72725325799547,,,,,,,,,,,,,,,,77.73078276099841,77.73967809799797,77.73967809799797,78.37930952799798,g,1.0,0.631850455996755,,78.37985820700123,78.39083473500068,79.38549569199677,79.37674230599805,,,,,,,,,,,,,,,,,,,,sub-189,1,stroop_test,80.96644791107066,
,,,,19.0,7.0,1.0,,,,,gelb,yellow,g,1.0,g,1.0,0.5442949830030557,,,,,,,,,,,,,,1.0,7.0,19.0,11.0,,,,,79.38549569199677,,,,,,,,,,,,,,,,,79.37711057699926,79.47605372600083,80.27242698000191,80.25996637700155,,,,,,,,,,,,,,,,80.26324485200166,80.27242698000191,80.27242698000191,80.82061190700188,g,1.0,0.5442949830030557,,80.82109137199586,80.83078343099623,81.82546637799533,81.81923033099883,,,,,,,,,,,,,,,,,,,,sub-189,1,stroop_test,80.96644791107066,
,,,,20.0,8.0,1.0,,,,,rot,red,r,1.0,r,1.0,0.4682949310008553,,,,,,,,,,,,,,1.0,8.0,20.0,1.0,,,,,81.82546637799533,,,,,,,,,,,,,,,,,81.81952425299824,82.168608674001,82.96475075299531,82.95289843899809,,,,,,,,,,,,,,,,82.95653318599943,82.96475075299531,82.96475075299531,83.43686319999688,r,1.0,0.4682949310008553,,83.43732815200201,83.44715399800043,84.44242904199928,84.43586110299657,,,,,,,,,,,,,,,,,,,,sub-189,1,stroop_test,80.96644791107066,
,,,,21.0,9.0,1.0,,,,,blau,blue,b,1.0,b,1.0,0.4573783300002105,,,,,,,,,,,,,,1.0,9.0,21.0,6.0,,,,,84.44242904199928,,,,,,,,,,,,,,,,,84.43626221900195,85.2351809669999,86.03110748600011,86.0192641169997,,,,,,,,,,,,,,,,86.02403284100001,86.03110748600011,86.03110748600011,86.4944958529959,b,1.0,0.4573783300002105,,86.4949786770012,86.50612092999654,87.5018468490016,87.49400988499838,,,,,,,,,,,,,,,,,,,,sub-189,1,stroop_test,80.96644791107066,
,,,,22.0,10.0,1.0,,,,,gelb,red,r,0.0,r,1.0,0.5943824040004984,,,,,,,,,,,,,,1.0,10.0,22.0,8.0,,,,,87.5018468490016,,,,,,,,,,,,,,,,,87.49431193299824,87.84210450200044,88.63862551599595,88.62610773900087,,,,,,,,,,,,,,,,88.62966863800102,88.63862551599595,88.63862551599595,89.23678599300183,r,1.0,0.5943824040004984,,89.23724958399544,89.24616574999527,90.24304513899553,90.23615271999734,,,,,,,,,,,,,,,,,,,,sub-189,1,stroop_test,80.96644791107066,
,,,,23.0,11.0,1.0,,,,,rot,yellow,g,0.0,g,1.0,0.533292647000053,,,,,,,,,,,,,,1.0,11.0,23.0,3.0,,,,,90.24304513899553,,,,,,,,,,,,,,,,,90.23666347399558,90.58512878899636,91.37912747800146,91.3691205369978,,,,,,,,,,,,,,,,91.37187944199832,91.37912747800146,91.37912747800146,91.92130236899538,g,1.0,0.533292647000053,,91.92176852499688,91.93127126000036,92.92861459800042,92.919328046999,,,,,,,,,,,,,,,,,,,,sub-189,1,stroop_test,80.96644791107066,
,,,,,,,,,,,,,,,,,,,,,,,,,,,,,,,,,,,,,,,,,,,,,,,,,,,,,,,,,,,,,,,,,,,,,,,,,,,,,,,,,,,,,,,92.91948450500058,92.92861459800042,92.92861459800042,93.71266087299593,space,0.7753109809927992,,,,,,,,,,,,,,sub-189,1,stroop_test,80.96644791107066,
,,,,0.0,0.0,0.0,,,,,,,,,,,,,blau,red,r,0.0,r,1.0,0.6210435940010939,,,,,,,,,,0.0,0.0,0.0,4.0,93.73557567199896,,,,,,,,,,,,,,,,,93.72492339900056,94.90960873299628,95.70641372699902,95.69350857999962,,,,,,,,,,,,,,,,,,,,,,,,,,,,,,,,,,,95.69640034699842,95.70641372699902,95.70641372699902,96.33047837699996,r,1.0,0.6210435940010939,,,,,,sub-189,1,stroop_test,80.96644791107066,
,,,,1.0,1.0,0.0,,,,,,,,,,,,,rot,red,r,1.0,r,1.0,0.5117222840053728,,,,,,,,,,0.0,1.0,1.0,1.0,96.34177980200184,,,,,,,,,,,,,,,,,96.33110821499577,97.52559815900167,98.32258676199854,98.3100381510012,,,,,,,,,,,,,,,,,,,,,,,,,,,,,,,,,,,98.3136487419979,98.32258676199854,98.32258676199854,98.83822344299551,r,1.0,0.5117222840053728,,,,,,sub-189,1,stroop_test,80.96644791107066,
,,,,2.0,2.0,0.0,,,,,,,,,,,,,rot,yellow,g,0.0,g,1.0,0.6803904859989416,,,,,,,,,,0.0,2.0,2.0,3.0,98.84741629799828,,,,,,,,,,,,,,,,,98.83857048799835,99.1855306619982,99.97821540699806,99.96963868499734,,,,,,,,,,,,,,,,,,,,,,,,,,,,,,,,,,,99.97023319499569,99.97821540699806,99.97821540699806,100.66110668699548,g,1.0,0.6803904859989416,,,,,,sub-189,1,stroop_test,80.96644791107066,
,,,,3.0,3.0,0.0,,,,,,,,,,,,,gelb,yellow,g,1.0,g,1.0,0.5484077129949583,,,,,,,,,,0.0,3.0,3.0,10.0,100.671909658995,,,,,,,,,,,,,,,,,100.66152630400028,101.45882235699536,102.25529909099714,102.2427520429992,,,,,,,,,,,,,,,,,,,,,,,,,,,,,,,,,,,102.24675724199916,102.25529909099714,102.25529909099714,102.8116449559966,g,1.0,0.5484077129949583,,,,,,sub-189,1,stroop_test,80.96644791107066,
,,,,4.0,4.0,0.0,,,,,,,,,,,,,gelb,red,r,0.0,r,1.0,0.6528670230036369,,,,,,,,,,0.0,4.0,4.0,8.0,102.82278994799708,,,,,,,,,,,,,,,,,102.81204789999902,103.15858417099662,103.95219509199524,103.94284544699622,,,,,,,,,,,,,,,,,,,,,,,,,,,,,,,,,,,103.94358097999792,103.95219509199524,103.95219509199524,104.61024982100209,r,1.0,0.6528670230036369,,,,,,sub-189,1,stroop_test,80.96644791107066,
,,,,5.0,5.0,0.0,,,,,,,,,,,,,rot,blue,b,0.0,b,1.0,0.5842364340060158,,,,,,,,,,0.0,5.0,5.0,2.0,104.61917786599952,,,,,,,,,,,,,,,,,104.61060706400168,104.70832957200037,105.51763994599604,105.49208502299734,,,,,,,,,,,,,,,,,,,,,,,,,,,,,,,,,,,105.49513841699807,105.51763994599604,105.51763994599604,106.1040375090015,b,1.0,0.5842364340060158,,,,,,sub-189,1,stroop_test,80.96644791107066,
,,,,6.0,6.0,0.0,,,,,,,,,,,,,gelb,blue,b,0.0,b,1.0,0.4124503750063013,,,,,,,,,,0.0,6.0,6.0,9.0,106.11309091599831,,,,,,,,,,,,,,,,,106.1044487379986,106.90151492299628,107.69606695199764,107.68571359499764,,,,,,,,,,,,,,,,,,,,,,,,,,,,,,,,,,,107.68876871999964,107.69606695199764,107.69606695199764,108.11119188900192,b,1.0,0.4124503750063013,,,,,,sub-189,1,stroop_test,80.96644791107066,
,,,,7.0,7.0,0.0,,,,,,,,,,,,,rot,red,r,1.0,r,1.0,0.4638923660022556,,,,,,,,,,0.0,7.0,7.0,0.0,108.1220850690006,,,,,,,,,,,,,,,,,108.11162411300027,108.4583310809976,109.25517029000184,109.24278066999976,,,,,,,,,,,,,,,,,,,,,,,,,,,,,,,,,,,109.24583114199775,109.25517029000184,109.25517029000184,109.72878971799946,r,1.0,0.4638923660022556,,,,,,sub-189,1,stroop_test,80.96644791107066,
,,,,8.0,8.0,0.0,,,,,,,,,,,,,blau,yellow,g,0.0,g,1.0,0.5781614430015907,,,,,,,,,,0.0,8.0,8.0,7.0,109.73940528299865,,,,,,,,,,,,,,,,,109.7292793250017,109.82533800899546,110.62205648999952,110.6099155089978,,,,,,,,,,,,,,,,,,,,,,,,,,,,,,,,,,,110.61323629300024,110.62205648999952,110.62205648999952,111.20382941199932,g,1.0,0.5781614430015907,,,,,,sub-189,1,stroop_test,80.96644791107066,
,,,,9.0,9.0,0.0,,,,,,,,,,,,,gelb,yellow,g,1.0,g,1.0,0.5613091999985045,,,,,,,,,,0.0,9.0,9.0,11.0,111.21264052100014,,,,,,,,,,,,,,,,,111.2042142220016,112.4017759740018,113.1964881669992,113.18561948199932,,,,,,,,,,,,,,,,,,,,,,,,,,,,,,,,,,,113.18883040299988,113.1964881669992,113.1964881669992,113.7618057169966,g,1.0,0.5613091999985045,,,,,,sub-189,1,stroop_test,80.96644791107066,
,,,,10.0,10.0,0.0,,,,,,,,,,,,,blau,blue,b,1.0,b,1.0,0.4909407189988997,,,,,,,,,,0.0,10.0,10.0,6.0,113.77274462799689,,,,,,,,,,,,,,,,,113.76220661599656,114.10884413999884,114.9064525349968,114.89386063299752,,,,,,,,,,,,,,,,,,,,,,,,,,,,,,,,,,,114.897756432998,114.9064525349968,114.9064525349968,115.40311690999806,b,1.0,0.4909407189988997,,,,,,sub-189,1,stroop_test,80.96644791107066,
,,,,11.0,11.0,0.0,,,,,,,,,,,,,blau,blue,b,1.0,b,1.0,0.4392189110003528,,,,,,,,,,0.0,11.0,11.0,5.0,115.41182213499997,,,,,,,,,,,,,,,,,115.403453248,115.75155131700012,116.5439709860002,116.53574626200134,,,,,,,,,,,,,,,,,,,,,,,,,,,,,,,,,,,116.53633537000132,116.5439709860002,116.5439709860002,117.00365866499487,b,1.0,0.4392189110003528,,,,,,sub-189,1,stroop_test,80.96644791107066,
,,,,12.0,0.0,1.0,,,,,,,,,,,,,rot,red,r,1.0,r,1.0,0.5559698600045522,,,,,,,,,,1.0,0.0,12.0,0.0,117.0185230069983,,,,,,,,,,,,,,,,,117.00410733999888,118.20193980699696,118.99706226399576,118.98610533100144,,,,,,,,,,,,,,,,,,,,,,,,,,,,,,,,,,,118.989145749998,118.99706226399576,118.99706226399576,119.56026004999876,r,1.0,0.5559698600045522,,,,,,sub-189,1,stroop_test,80.96644791107066,
,,,,13.0,1.0,1.0,,,,,,,,,,,,,blau,red,r,0.0,r,1.0,0.5469766719979816,,,,,,,,,,1.0,1.0,13.0,4.0,119.56934950199502,,,,,,,,,,,,,,,,,119.56056502900174,120.75844529499592,121.5559130440015,121.54334417000064,,,,,,,,,,,,,,,,,,,,,,,,,,,,,,,,,,,121.54664455099557,121.5559130440015,121.5559130440015,122.11088193199976,r,1.0,0.5469766719979816,,,,,,sub-189,1,stroop_test,80.96644791107066,
,,,,14.0,2.0,1.0,,,,,,,,,,,,,rot,yellow,g,0.0,g,1.0,0.6779333799931919,,,,,,,,,,1.0,2.0,14.0,3.0,122.12205210299726,,,,,,,,,,,,,,,,,122.11122440899636,122.208593147996,123.0051287249953,122.99294038999506,,,,,,,,,,,,,,,,,,,,,,,,,,,,,,,,,,,122.99638105800112,123.0051287249953,123.0051287249953,123.68681945499702,g,1.0,0.6779333799931919,,,,,,sub-189,1,stroop_test,80.96644791107066,
,,,,15.0,3.0,1.0,,,,,,,,,,,,,gelb,red,r,0.0,r,1.0,0.5592630829996779,,,,,,,,,,1.0,3.0,15.0,8.0,123.6961707320006,,,,,,,,,,,,,,,,,123.6871577769998,124.88514900999871,125.67977278999751,125.66900535299646,,,,,,,,,,,,,,,,,,,,,,,,,,,,,,,,,,,125.67208302099608,125.67977278999751,125.67977278999751,126.24792205699488,r,1.0,0.5592630829996779,,,,,,sub-189,1,stroop_test,80.96644791107066,
,,,,16.0,4.0,1.0,,,,,,,,,,,,,gelb,blue,b,0.0,b,1.0,0.4949193469947204,,,,,,,,,,1.0,4.0,16.0,9.0,126.25991168299517,,,,,,,,,,,,,,,,,126.24846829399758,126.59149441599584,127.40067656099563,127.376621661002,,,,,,,,,,,,,,,,,,,,,,,,,,,,,,,,,,,127.37738793699828,127.40067656099563,127.40067656099563,127.9035952539998,b,1.0,0.4949193469947204,,,,,,sub-189,1,stroop_test,80.96644791107066,
,,,,17.0,5.0,1.0,,,,,,,,,,,,,blau,yellow,g,0.0,g,1.0,0.7579888089967426,,,,,,,,,,1.0,5.0,17.0,7.0,127.91275557300104,,,,,,,,,,,,,,,,,127.90393399599998,129.1017528309967,129.89668006699503,129.88596405099815,,,,,,,,,,,,,,,,,,,,,,,,,,,,,,,,,,,129.88902488099848,129.89668006699503,129.89668006699503,130.66167819900147,g,1.0,0.7579888089967426,,,,,,sub-189,1,stroop_test,80.96644791107066,
,,,,18.0,6.0,1.0,,,,,,,,,,,,,rot,blue,b,0.0,b,1.0,0.8127861859975383,,,,,,,,,,1.0,6.0,18.0,2.0,130.67246962599893,,,,,,,,,,,,,,,,,130.6620202549966,131.4585666099956,132.25510162499995,132.2428612750009,,,,,,,,,,,,,,,,,,,,,,,,,,,,,,,,,,,132.2464686519961,132.25510162499995,132.25510162499995,133.07022915299603,b,1.0,0.8127861859975383,,,,,,sub-189,1,stroop_test,80.96644791107066,
,,,,19.0,7.0,1.0,,,,,,,,,,,,,blau,blue,b,1.0,b,1.0,0.4889314760002889,,,,,,,,,,1.0,7.0,19.0,5.0,133.0800793419985,,,,,,,,,,,,,,,,,133.07064009500027,133.1681178919971,133.9625762239957,133.95212640799582,,,,,,,,,,,,,,,,,,,,,,,,,,,,,,,,,,,133.95512010899984,133.9625762239957,133.9625762239957,134.4535591409949,b,1.0,0.4889314760002889,,,,,,sub-189,1,stroop_test,80.96644791107066,
,,,,20.0,8.0,1.0,,,,,,,,,,,,,blau,blue,b,1.0,b,1.0,0.5091440209944267,,,,,,,,,,1.0,8.0,20.0,6.0,134.46247271700122,,,,,,,,,,,,,,,,,134.4539689209996,134.8016733359982,135.59423836800124,135.5857360689988,,,,,,,,,,,,,,,,,,,,,,,,,,,,,,,,,,,135.58634908899694,135.59423836800124,135.59423836800124,136.1204973269996,b,1.0,0.5091440209944267,,,,,,sub-189,1,stroop_test,80.96644791107066,
,,,,21.0,9.0,1.0,,,,,,,,,,,,,gelb,yellow,g,1.0,g,1.0,0.4777265149969025,,,,,,,,,,1.0,9.0,21.0,10.0,136.13610790800158,,,,,,,,,,,,,,,,,136.12096423500043,137.31822218999878,138.11323841600097,138.10239981499765,,,,,,,,,,,,,,,,,,,,,,,,,,,,,,,,,,,138.1054570779961,138.11323841600097,138.11323841600097,138.59502963400155,g,1.0,0.4777265149969025,,,,,,sub-189,1,stroop_test,80.96644791107066,
,,,,22.0,10.0,1.0,,,,,,,,,,,,,rot,red,r,1.0,r,1.0,0.3189168659955612,,,,,,,,,,1.0,10.0,22.0,1.0,138.60603234599694,,,,,,,,,,,,,,,,,138.59537881000142,139.79201406499487,140.58899912299967,140.57597662999615,,,,,,,,,,,,,,,,,,,,,,,,,,,,,,,,,,,140.57941412999935,140.58899912299967,140.58899912299967,140.91144108899607,r,1.0,0.3189168659955612,,,,,,sub-189,1,stroop_test,80.96644791107066,
,,,,23.0,11.0,1.0,,,,,,,,,,,,,gelb,yellow,g,1.0,g,1.0,0.5306046600016998,,,,,,,,,,1.0,11.0,23.0,11.0,140.9226833759967,,,,,,,,,,,,,,,,,140.9117837859958,141.70782377199794,142.50526573899697,142.4927025549987,,,,,,,,,,,,,,,,,,,,,,,,,,,,,,,,,,,142.49654893000115,142.50526573899697,142.50526573899697,143.04620208699637,g,1.0,0.5306046600016998,,,,,,sub-189,1,stroop_test,80.96644791107066,
,,,,24.0,0.0,2.0,,,,,,,,,,,,,gelb,blue,b,0.0,b,1.0,0.6000244809983997,,,,,,,,,,2.0,0.0,24.0,9.0,143.05701316199702,,,,,,,,,,,,,,,,,143.04668695599685,144.2416326370003,145.03477725799894,145.02587993799534,,,,,,,,,,,,,,,,,,,,,,,,,,,,,,,,,,,145.0265490189995,145.03477725799894,145.03477725799894,145.63686246400175,b,1.0,0.6000244809983997,,,,,,sub-189,1,stroop_test,80.96644791107066,
,,,,25.0,1.0,2.0,,,,,,,,,,,,,rot,yellow,g,0.0,g,1.0,0.8389824269979727,,,,,,,,,,2.0,1.0,25.0,3.0,145.64606726499915,,,,,,,,,,,,,,,,,145.6372940489964,146.83450585899843,147.62958670999797,147.61877427400032,,,,,,,,,,,,,,,,,,,,,,,,,,,,,,,,,,,147.62194529499538,147.62958670999797,147.62958670999797,148.47124384799827,g,1.0,0.8389824269979727,,,,,,sub-189,1,stroop_test,80.96644791107066,
,,,,26.0,2.0,2.0,,,,,,,,,,,,,blau,red,r,0.0,r,1.0,0.7075225680018775,,,,,,,,,,2.0,2.0,26.0,4.0,148.48023088999616,,,,,,,,,,,,,,,,,148.47172562599735,149.66791610099608,150.4636937959949,150.45175607899728,,,,,,,,,,,,,,,,,,,,,,,,,,,,,,,,,,,150.45580624199647,150.4636937959949,150.4636937959949,151.1774498359955,r,1.0,0.7075225680018775,,,,,,sub-189,1,stroop_test,80.96644791107066,
,,,,27.0,3.0,2.0,,,,,,,,,,,,,gelb,yellow,g,1.0,g,1.0,0.6266156109995791,,,,,,,,,,2.0,3.0,27.0,10.0,151.1879170280008,,,,,,,,,,,,,,,,,151.17784690099506,152.37445492400002,153.17256801799522,153.15945975299837,,,,,,,,,,,,,,,,,,,,,,,,,,,,,,,,,,,153.16340537899669,153.17256801799522,153.17256801799522,153.8031194829964,g,1.0,0.6266156109995791,,,,,,sub-189,1,stroop_test,80.96644791107066,
,,,,28.0,4.0,2.0,,,,,,,,,,,,,blau,blue,b,1.0,b,1.0,0.628710000004503,,,,,,,,,,2.0,4.0,28.0,5.0,153.81289098200068,,,,,,,,,,,,,,,,,153.8035062409981,154.1512122130007,154.94693120099691,154.93545243900007,,,,,,,,,,,,,,,,,,,,,,,,,,,,,,,,,,,154.93915627599927,154.94693120099691,154.94693120099691,155.5862369469978,b,1.0,0.628710000004503,,,,,,sub-189,1,stroop_test,80.96644791107066,
,,,,29.0,5.0,2.0,,,,,,,,,,,,,gelb,red,r,0.0,r,1.0,0.5919670139992377,,,,,,,,,,2.0,5.0,29.0,8.0,155.5950715689978,,,,,,,,,,,,,,,,,155.58663348999835,155.9342792919997,156.7288337200007,156.718362738,,,,,,,,,,,,,,,,,,,,,,,,,,,,,,,,,,,156.72147257599863,156.7288337200007,156.7288337200007,157.32779354599916,r,1.0,0.5919670139992377,,,,,,sub-189,1,stroop_test,80.96644791107066,
,,,,30.0,6.0,2.0,,,,,,,,,,,,,blau,yellow,g,0.0,g,1.0,0.7780324120030855,,,,,,,,,,2.0,6.0,30.0,7.0,157.33791379499598,,,,,,,,,,,,,,,,,157.32813826300116,157.67468618199928,158.4712596889949,158.45912105099706,,,,,,,,,,,,,,,,,,,,,,,,,,,,,,,,,,,158.4623379379991,158.4712596889949,158.4712596889949,159.25331312599883,g,1.0,0.7780324120030855,,,,,,sub-189,1,stroop_test,80.96644791107066,
,,,,31.0,7.0,2.0,,,,,,,,,,,,,blau,blue,b,1.0,b,1.0,0.7924086010025349,,,,,,,,,,2.0,7.0,31.0,6.0,159.2624302309996,,,,,,,,,,,,,,,,,159.25370947399642,160.05107093900006,160.84346221300075,160.83499628299614,,,,,,,,,,,,,,,,,,,,,,,,,,,,,,,,,,,160.83561105099943,160.84346221300075,160.84346221300075,161.63781085799565,b,1.0,0.7924086010025349,,,,,,sub-189,1,stroop_test,80.96644791107066,
,,,,32.0,8.0,2.0,,,,,,,,,,,,,rot,red,r,1.0,r,1.0,0.4893509539979277,,,,,,,,,,2.0,8.0,32.0,1.0,161.64871469699574,,,,,,,,,,,,,,,,,161.63824105599633,161.98457254999812,162.7791525069988,162.76866785099992,,,,,,,,,,,,,,,,,,,,,,,,,,,,,,,,,,,162.77153416299552,162.7791525069988,162.7791525069988,163.2706685919984,r,1.0,0.4893509539979277,,,,,,sub-189,1,stroop_test,80.96644791107066,
,,,,33.0,9.0,2.0,,,,,,,,,,,,,rot,red,r,1.0,r,1.0,0.473699296999257,,,,,,,,,,2.0,9.0,33.0,0.0,163.2794453949973,,,,,,,,,,,,,,,,,163.27109218700207,163.61796249199688,164.4104644639956,164.40205626999523,,,,,,,,,,,,,,,,,,,,,,,,,,,,,,,,,,,164.40265731199906,164.4104644639956,164.4104644639956,164.89244347899512,r,1.0,0.473699296999257,,,,,,sub-189,1,stroop_test,80.96644791107066,
,,,,34.0,10.0,2.0,,,,,,,,,,,,,rot,blue,b,0.0,b,1.0,0.807285322000098,,,,,,,,,,2.0,10.0,34.0,2.0,164.90277113000047,,,,,,,,,,,,,,,,,164.8928401699959,166.0920722660012,166.900976799996,166.87556008799584,,,,,,,,,,,,,,,,,,,,,,,,,,,,,,,,,,,166.87628303100064,166.900976799996,166.900976799996,167.7103435329991,b,1.0,0.807285322000098,,,,,,sub-189,1,stroop_test,80.96644791107066,
,,,,35.0,11.0,2.0,,,,,,,,,,,,,gelb,yellow,g,1.0,g,1.0,0.4610185729980003,,,,,,,,,,2.0,11.0,35.0,11.0,167.7209606489996,,,,,,,,,,,,,,,,,167.71069490099762,168.05763300800027,168.8555342010004,168.84201085799577,,,,,,,,,,,,,,,,,,,,,,,,,,,,,,,,,,,168.8466495399989,168.8555342010004,168.8555342010004,169.319781305996,g,1.0,0.4610185729980003,,,,,,sub-189,1,stroop_test,80.96644791107066,
,,,,36.0,0.0,3.0,,,,,,,,,,,,,blau,red,r,0.0,r,1.0,1.0070069729990792,,,,,,,,,,3.0,0.0,36.0,4.0,169.3299416029986,,,,,,,,,,,,,,,,,169.32017203600117,170.11739093800134,170.91302092299884,170.90166509700066,,,,,,,,,,,,,,,,,,,,,,,,,,,,,,,,,,,170.9054229389949,170.91302092299884,170.91302092299884,171.92719691200182,r,1.0,1.0070069729990792,,,,,,sub-189,1,stroop_test,80.96644791107066,
,,,,37.0,1.0,3.0,,,,,,,,,,,,,gelb,red,r,0.0,r,1.0,0.7492033210000955,,,,,,,,,,3.0,1.0,37.0,8.0,171.93809360799787,,,,,,,,,,,,,,,,,171.92754068599606,173.12420489700162,173.92175118799787,173.90881469399756,,,,,,,,,,,,,,,,,,,,,,,,,,,,,,,,,,,173.91278813900135,173.92175118799787,173.92175118799787,174.67660915799934,r,1.0,0.7492033210000955,,,,,,sub-189,1,stroop_test,80.96644791107066,
,,,,38.0,2.0,3.0,,,,,,,,,,,,,gelb,yellow,g,1.0,g,1.0,0.5080475629947614,,,,,,,,,,3.0,2.0,38.0,11.0,174.68738151300204,,,,,,,,,,,,,,,,,174.6769536399952,175.87408396099636,176.66773501999705,176.65805488600017,,,,,,,,,,,,,,,,,,,,,,,,,,,,,,,,,,,176.65867178899498,176.66773501999705,176.66773501999705,177.18600847999917,g,1.0,0.5080475629947614,,,,,,sub-189,1,stroop_test,80.96644791107066,
,,,,39.0,3.0,3.0,,,,,,,,,,,,,gelb,blue,b,0.0,b,1.0,0.7262389949974022,,,,,,,,,,3.0,3.0,39.0,9.0,177.1950440129949,,,,,,,,,,,,,,,,,177.18644582200068,177.98416409499623,178.77666747799958,178.76820888600196,,,,,,,,,,,,,,,,,,,,,,,,,,,,,,,,,,,178.76880731599522,178.77666747799958,178.77666747799958,179.51425000599556,b,1.0,0.7262389949974022,,,,,,sub-189,1,stroop_test,80.96644791107066,
,,,,40.0,4.0,3.0,,,,,,,,,,,,,blau,yellow,g,0.0,r,0.0,0.5263546840069466,,,,,,,,,,3.0,4.0,40.0,7.0,179.5267468489983,,,,,,,,,,,,,,,,,179.51478862600197,180.70813241900032,181.5060661519965,181.4925630899961,,,,,,,,,,,,,,,,,,,,,,,,,,,,,,,,,,,181.4967993729952,181.5060661519965,181.5060661519965,182.037676715001,r,0.0,0.5263546840069466,,,,,,sub-189,1,stroop_test,80.96644791107066,
,,,,41.0,5.0,3.0,,,,,,,,,,,,,gelb,yellow,g,1.0,g,1.0,0.5350747330012382,,,,,,,,,,3.0,5.0,41.0,10.0,182.04752294300124,,,,,,,,,,,,,,,,,182.0380189899952,182.83428354100036,183.6289753739984,183.6181895799964,,,,,,,,,,,,,,,,,,,,,,,,,,,,,,,,,,,183.62142245699945,183.6289753739984,183.6289753739984,184.1686645489972,g,1.0,0.5350747330012382,,,,,,sub-189,1,stroop_test,80.96644791107066,
,,,,42.0,6.0,3.0,,,,,,,,,,,,,rot,red,r,1.0,r,1.0,0.5032305790009559,,,,,,,,,,3.0,6.0,42.0,0.0,184.1779804280013,,,,,,,,,,,,,,,,,184.1690018890004,185.367275478995,186.1621707789964,186.15153086899957,,,,,,,,,,,,,,,,,,,,,,,,,,,,,,,,,,,186.15459392299817,186.1621707789964,186.1621707789964,186.66938932299672,r,1.0,0.5032305790009559,,,,,,sub-189,1,stroop_test,80.96644791107066,
,,,,43.0,7.0,3.0,,,,,,,,,,,,,rot,red,r,1.0,g,0.0,0.5463427970025805,,,,,,,,,,3.0,7.0,43.0,1.0,186.67885241899785,,,,,,,,,,,,,,,,,186.66977519799548,187.4671193739996,188.25907042100152,188.25122871500207,,,,,,,,,,,,,,,,,,,,,,,,,,,,,,,,,,,188.25184293699567,188.25907042100152,188.25907042100152,188.80948161800188,g,0.0,0.5463427970025805,,,,,,sub-189,1,stroop_test,80.96644791107066,
,,,,44.0,8.0,3.0,,,,,,,,,,,,,blau,blue,b,1.0,b,1.0,0.5177106569972239,,,,,,,,,,3.0,8.0,44.0,5.0,188.8181393049963,,,,,,,,,,,,,,,,,188.8097820330004,189.15719165199695,189.95496644800005,189.94222089499817,,,,,,,,,,,,,,,,,,,,,,,,,,,,,,,,,,,189.9465232069997,189.95496644800005,189.95496644800005,190.4761759210014,b,1.0,0.5177106569972239,,,,,,sub-189,1,stroop_test,80.96644791107066,
,,,,45.0,9.0,3.0,,,,,,,,,,,,,blau,blue,b,1.0,b,1.0,0.9318525859998772,,,,,,,,,,3.0,9.0,45.0,6.0,190.4999614100016,,,,,,,,,,,,,,,,,190.47651428399692,190.82506693899632,191.61806725100175,191.608789109996,,,,,,,,,,,,,,,,,,,,,,,,,,,,,,,,,,,191.60951583599672,191.61806725100175,191.61806725100175,192.55396020600165,b,1.0,0.9318525859998772,,,,,,sub-189,1,stroop_test,80.96644791107066,
,,,,46.0,10.0,3.0,,,,,,,,,,,,,rot,blue,b,0.0,b,1.0,0.6614291660007439,,,,,,,,,,3.0,10.0,46.0,2.0,192.5664744649985,,,,,,,,,,,,,,,,,192.5542950390009,193.35073305200055,194.1454993369989,194.13487165400147,,,,,,,,,,,,,,,,,,,,,,,,,,,,,,,,,,,194.1378309290012,194.1454993369989,194.1454993369989,194.8093534219952,b,1.0,0.6614291660007439,,,,,,sub-189,1,stroop_test,80.96644791107066,
,,,,47.0,11.0,3.0,,,,,,,,,,,,,rot,yellow,g,0.0,g,1.0,0.5929717229955713,,,,,,,,,,3.0,11.0,47.0,3.0,194.82208877599624,,,,,,,,,,,,,,,,,194.8097541199968,195.1592634769986,195.960401741002,195.9517955039992,,,,,,,,,,,,,,,,,,,,,,,,,,,,,,,,,,,195.95239956199657,195.960401741002,195.960401741002,196.56144873699668,g,1.0,0.5929717229955713,,,,,,sub-189,1,stroop_test,80.96644791107066,
,,,,48.0,0.0,4.0,,,,,,,,,,,,,blau,red,r,0.0,r,1.0,0.6399841099992045,,,,,,,,,,4.0,0.0,48.0,4.0,196.57191839299776,,,,,,,,,,,,,,,,,196.5617516209968,196.65795159399568,197.45426581300129,197.4423009300008,,,,,,,,,,,,,,,,,,,,,,,,,,,,,,,,,,,197.44532725799945,197.45426581300129,197.45426581300129,198.10276934099969,r,1.0,0.6399841099992045,,,,,,sub-189,1,stroop_test,80.96644791107066,
,,,,49.0,1.0,4.0,,,,,,,,,,,,,blau,yellow,g,0.0,g,1.0,0.5522419409971917,,,,,,,,,,4.0,1.0,49.0,7.0,198.11220394599516,,,,,,,,,,,,,,,,,198.103104693997,198.4505567899978,199.24270169899685,199.2346633950001,,,,,,,,,,,,,,,,,,,,,,,,,,,,,,,,,,,199.2352675959992,199.24270169899685,199.24270169899685,199.80287199300076,g,1.0,0.5522419409971917,,,,,,sub-189,1,stroop_test,80.96644791107066,
,,,,50.0,2.0,4.0,,,,,,,,,,,,,rot,red,r,1.0,r,1.0,0.5635002760027419,,,,,,,,,,4.0,2.0,50.0,1.0,199.81270838999623,,,,,,,,,,,,,,,,,199.80326486800183,199.9005720819987,200.69655573699856,200.6850870599956,,,,,,,,,,,,,,,,,,,,,,,,,,,,,,,,,,,200.68870104899543,200.69655573699856,200.69655573699856,201.26884663300007,r,1.0,0.5635002760027419,,,,,,sub-189,1,stroop_test,80.96644791107066,
,,,,51.0,3.0,4.0,,,,,,,,,,,,,gelb,yellow,g,1.0,g,1.0,0.4900792080006795,,,,,,,,,,4.0,3.0,51.0,11.0,201.27709229000172,,,,,,,,,,,,,,,,,201.26918124700023,201.61676510699908,202.41249771099683,202.40138579099585,,,,,,,,,,,,,,,,,,,,,,,,,,,,,,,,,,,202.40513640899732,202.41249771099683,202.41249771099683,202.90958235599828,g,1.0,0.4900792080006795,,,,,,sub-189,1,stroop_test,80.96644791107066,
,,,,52.0,4.0,4.0,,,,,,,,,,,,,gelb,yellow,g,1.0,g,1.0,0.5154014479994657,,,,,,,,,,4.0,4.0,52.0,10.0,202.92076764800004,,,,,,,,,,,,,,,,,202.91006188900064,203.70682377599587,204.5001017780014,204.4909994609989,,,,,,,,,,,,,,,,,,,,,,,,,,,,,,,,,,,204.491504919999,204.5001017780014,204.5001017780014,205.01848895700093,g,1.0,0.5154014479994657,,,,,,sub-189,1,stroop_test,80.96644791107066,
,,,,53.0,5.0,4.0,,,,,,,,,,,,,blau,blue,b,1.0,b,1.0,0.4903040199933457,,,,,,,,,,4.0,5.0,53.0,6.0,205.0270394039981,,,,,,,,,,,,,,,,,205.01884349299507,205.81679613400047,206.61081825099973,206.6007074590016,,,,,,,,,,,,,,,,,,,,,,,,,,,,,,,,,,,206.6037750510004,206.61081825099973,206.61081825099973,207.10911728599604,b,1.0,0.4903040199933457,,,,,,sub-189,1,stroop_test,80.96644791107066,
,,,,54.0,6.0,4.0,,,,,,,,,,,,,rot,red,r,1.0,r,1.0,0.4954366940000909,,,,,,,,,,4.0,6.0,54.0,0.0,207.1179075100008,,,,,,,,,,,,,,,,,207.1094646279962,207.20684300099677,208.0010087999981,207.99046785799877,,,,,,,,,,,,,,,,,,,,,,,,,,,,,,,,,,,207.99369041500177,208.0010087999981,208.0010087999981,208.5014864830009,r,1.0,0.4954366940000909,,,,,,sub-189,1,stroop_test,80.96644791107066,
,,,,55.0,7.0,4.0,,,,,,,,,,,,,blau,blue,b,1.0,b,1.0,0.4638202089990955,,,,,,,,,,4.0,7.0,55.0,5.0,208.5096180499968,,,,,,,,,,,,,,,,,208.5018224390005,209.3000741229989,210.0945344029969,210.0841628799972,,,,,,,,,,,,,,,,,,,,,,,,,,,,,,,,,,,210.08733437499905,210.0945344029969,210.0945344029969,210.56833864899815,b,1.0,0.4638202089990955,,,,,,sub-189,1,stroop_test,80.96644791107066,
,,,,56.0,8.0,4.0,,,,,,,,,,,,,gelb,red,r,0.0,r,1.0,0.4915590759992483,,,,,,,,,,4.0,8.0,56.0,8.0,210.57680692800204,,,,,,,,,,,,,,,,,210.5687411649997,211.76675117899867,212.56063859599817,212.550664811999,,,,,,,,,,,,,,,,,,,,,,,,,,,,,,,,,,,212.55324804599516,212.56063859599817,212.56063859599817,213.0601746719985,r,1.0,0.4915590759992483,,,,,,sub-189,1,stroop_test,80.96644791107066,
,,,,57.0,9.0,4.0,,,,,,,,,,,,,rot,yellow,g,0.0,g,1.0,0.7409148949955124,,,,,,,,,,4.0,9.0,57.0,3.0,213.07110608700168,,,,,,,,,,,,,,,,,213.06056610999804,214.2568370730005,215.0534864529982,215.04133914599515,,,,,,,,,,,,,,,,,,,,,,,,,,,,,,,,,,,215.04423893700005,215.0534864529982,215.0534864529982,215.80248641700015,g,1.0,0.7409148949955124,,,,,,sub-189,1,stroop_test,80.96644791107066,
,,,,58.0,10.0,4.0,,,,,,,,,,,,,gelb,blue,b,0.0,b,1.0,0.5848845099972095,,,,,,,,,,4.0,10.0,58.0,9.0,215.81157390899895,,,,,,,,,,,,,,,,,215.8028705129982,215.900548742,216.6967089999962,216.68490406499768,,,,,,,,,,,,,,,,,,,,,,,,,,,,,,,,,,,216.688664497,216.6967089999962,216.6967089999962,217.2853936419997,b,1.0,0.5848845099972095,,,,,,sub-189,1,stroop_test,80.96644791107066,
,,,,59.0,11.0,4.0,,,,,,,,,,,,,rot,blue,b,0.0,b,1.0,0.7454705709969858,,,,,,,,,,4.0,11.0,59.0,2.0,217.29352545300208,,,,,,,,,,,,,,,,,217.28573433499696,218.08357716599855,218.87794855999527,218.8675636650005,,,,,,,,,,,,,,,,,,,,,,,,,,,,,,,,,,,218.87044138799683,218.87794855999527,218.87794855999527,219.6279981589978,b,1.0,0.7454705709969858,,,,,,sub-189,1,stroop_test,80.96644791107066,
,,,,60.0,0.0,5.0,,,,,,,,,,,,,rot,blue,b,0.0,b,1.0,0.8086524559985264,,,,,,,,,,5.0,0.0,60.0,2.0,219.63869977899597,,,,,,,,,,,,,,,,,219.62835410999836,220.82432001199777,221.61757304099592,221.6087006300004,,,,,,,,,,,,,,,,,,,,,,,,,,,,,,,,,,,221.60930921600084,221.61757304099592,221.61757304099592,222.43541230700063,b,1.0,0.8086524559985264,,,,,,sub-189,1,stroop_test,80.96644791107066,
,,,,61.0,1.0,5.0,,,,,,,,,,,,,rot,red,r,1.0,r,1.0,0.3480468950001523,,,,,,,,,,5.0,1.0,61.0,1.0,222.4443670999972,,,,,,,,,,,,,,,,,222.43580559099792,223.2334968799987,224.02644578599572,224.0177912860017,,,,,,,,,,,,,,,,,,,,,,,,,,,,,,,,,,,224.0185241829968,224.02644578599572,224.02644578599572,224.37692434700148,r,1.0,0.3480468950001523,,,,,,sub-189,1,stroop_test,80.96644791107066,
,,,,62.0,2.0,5.0,,,,,,,,,,,,,gelb,yellow,g,1.0,g,1.0,0.3453923850029241,,,,,,,,,,5.0,2.0,62.0,10.0,224.387844789002,,,,,,,,,,,,,,,,,224.3773367909962,225.1738221089981,225.9705566420016,225.95823813199968,,,,,,,,,,,,,,,,,,,,,,,,,,,,,,,,,,,225.96195220099617,225.9705566420016,225.9705566420016,226.31884739399536,g,1.0,0.3453923850029241,,,,,,sub-189,1,stroop_test,80.96644791107066,
,,,,63.0,3.0,5.0,,,,,,,,,,,,,rot,red,r,1.0,r,1.0,0.4067560530020273,,,,,,,,,,5.0,3.0,63.0,0.0,226.32768488799772,,,,,,,,,,,,,,,,,226.31919729899528,227.5169741220016,228.31071489299936,228.30074732399956,,,,,,,,,,,,,,,,,,,,,,,,,,,,,,,,,,,228.3034600819956,228.31071489299936,228.31071489299936,228.72720784999547,r,1.0,0.4067560530020273,,,,,,sub-189,1,stroop_test,80.96644791107066,
,,,,64.0,4.0,5.0,,,,,,,,,,,,,gelb,blue,b,0.0,b,1.0,0.6278883249979117,,,,,,,,,,5.0,4.0,64.0,9.0,228.73846032499569,,,,,,,,,,,,,,,,,228.7278180689973,228.82386220199987,229.6209873260013,229.6082739880003,,,,,,,,,,,,,,,,,,,,,,,,,,,,,,,,,,,229.61138105199643,229.6209873260013,229.6209873260013,230.251830549998,b,1.0,0.6278883249979117,,,,,,sub-189,1,stroop_test,80.96644791107066,
,,,,65.0,5.0,5.0,,,,,,,,,,,,,blau,red,r,0.0,r,1.0,0.6545117700006813,,,,,,,,,,5.0,5.0,65.0,4.0,230.2612661719977,,,,,,,,,,,,,,,,,230.25216857699704,231.45094375700137,232.2529946020004,232.2407464069984,,,,,,,,,,,,,,,,,,,,,,,,,,,,,,,,,,,232.2438572109968,232.2529946020004,232.2529946020004,232.90966255500095,r,1.0,0.6545117700006813,,,,,,sub-189,1,stroop_test,80.96644791107066,
,,,,66.0,6.0,5.0,,,,,,,,,,,,,blau,blue,b,1.0,b,1.0,0.5678965450060787,,,,,,,,,,5.0,6.0,66.0,5.0,232.92083010199715,,,,,,,,,,,,,,,,,232.9100601979953,233.25662903000196,234.0507029430009,234.04099554599816,,,,,,,,,,,,,,,,,,,,,,,,,,,,,,,,,,,234.0415993130009,234.0507029430009,234.0507029430009,234.62679205899624,b,1.0,0.5678965450060787,,,,,,sub-189,1,stroop_test,80.96644791107066,
,,,,67.0,7.0,5.0,,,,,,,,,,,,,gelb,yellow,g,1.0,g,1.0,0.6304662319962517,,,,,,,,,,5.0,7.0,67.0,11.0,234.63696936499764,,,,,,,,,,,,,,,,,234.6271834509971,234.7242367919971,235.5209097629995,235.50809014900003,,,,,,,,,,,,,,,,,,,,,,,,,,,,,,,,,,,235.51122772999952,235.5209097629995,235.5209097629995,236.16210489100197,g,1.0,0.6304662319962517,,,,,,sub-189,1,stroop_test,80.96644791107066,
,,,,68.0,8.0,5.0,,,,,,,,,,,,,rot,yellow,g,0.0,g,1.0,0.7501552889953018,,,,,,,,,,5.0,8.0,68.0,3.0,236.172590518996,,,,,,,,,,,,,,,,,236.16271157099985,237.35765062699647,238.155028428002,238.14170514299624,,,,,,,,,,,,,,,,,,,,,,,,,,,,,,,,,,,238.14569415400183,238.155028428002,238.155028428002,238.9108255579995,g,1.0,0.7501552889953018,,,,,,sub-189,1,stroop_test,80.96644791107066,
,,,,69.0,9.0,5.0,,,,,,,,,,,,,blau,blue,b,1.0,b,1.0,0.7965517769989674,,,,,,,,,,5.0,9.0,69.0,6.0,238.92094837399785,,,,,,,,,,,,,,,,,238.9111600589968,239.25734713600104,240.0540594490012,240.0417673830016,,,,,,,,,,,,,,,,,,,,,,,,,,,,,,,,,,,240.04529560099763,240.0540594490012,240.0540594490012,240.8528934950009,b,1.0,0.7965517769989674,,,,,,sub-189,1,stroop_test,80.96644791107066,
,,,,70.0,10.0,5.0,,,,,,,,,,,,,blau,yellow,g,0.0,g,1.0,0.5455728179949801,,,,,,,,,,5.0,10.0,70.0,7.0,240.86140152999724,,,,,,,,,,,,,,,,,240.85327184599737,242.04993534499957,242.84247197399964,242.8341984959989,,,,,,,,,,,,,,,,,,,,,,,,,,,,,,,,,,,242.83479714900025,242.84247197399964,242.84247197399964,243.3905473650011,g,1.0,0.5455728179949801,,,,,,sub-189,1,stroop_test,80.96644791107066,
,,,,71.0,11.0,5.0,,,,,,,,,,,,,gelb,red,r,0.0,r,1.0,0.5109129859993118,,,,,,,,,,5.0,11.0,71.0,8.0,243.40120437899893,,,,,,,,,,,,,,,,,243.3909372220005,244.18347282899776,244.9786350130016,244.96749586200167,,,,,,,,,,,,,,,,,,,,,,,,,,,,,,,,,,,244.9709843859964,244.9786350130016,244.9786350130016,245.49312638300037,r,1.0,0.5109129859993118,,,,,,sub-189,1,stroop_test,80.96644791107066,
,,,,72.0,0.0,6.0,,,,,,,,,,,,,gelb,blue,b,0.0,b,1.0,0.4120842449992778,,,,,,,,,,6.0,0.0,72.0,9.0,245.5045388110011,,,,,,,,,,,,,,,,,245.4935197710001,245.84078932600096,246.6339688959997,246.62507925799585,,,,,,,,,,,,,,,,,,,,,,,,,,,,,,,,,,,246.6256784599973,246.6339688959997,246.6339688959997,247.06809250899823,b,1.0,0.4120842449992778,,,,,,sub-189,1,stroop_test,80.96644791107066,
,,,,73.0,1.0,6.0,,,,,,,,,,,,,gelb,yellow,g,1.0,g,1.0,0.5580126389977522,,,,,,,,,,6.0,1.0,73.0,10.0,247.0837682929996,,,,,,,,,,,,,,,,,247.06850302300157,247.8667509890001,248.6596891980007,248.65094698900063,,,,,,,,,,,,,,,,,,,,,,,,,,,,,,,,,,,248.651547745998,248.6596891980007,248.6596891980007,249.2196879830008,g,1.0,0.5580126389977522,,,,,,sub-189,1,stroop_test,80.96644791107066,
,,,,74.0,2.0,6.0,,,,,,,,,,,,,gelb,red,r,0.0,r,1.0,0.4719111439990229,,,,,,,,,,6.0,2.0,74.0,8.0,249.22901896099935,,,,,,,,,,,,,,,,,249.2200789369963,250.0167600249988,250.80917972599852,250.80086726499576,,,,,,,,,,,,,,,,,,,,,,,,,,,,,,,,,,,250.80146530400089,250.80917972599852,250.80917972599852,251.29041092700209,r,1.0,0.4719111439990229,,,,,,sub-189,1,stroop_test,80.96644791107066,
,,,,75.0,3.0,6.0,,,,,,,,,,,,,blau,blue,b,1.0,b,1.0,0.582538046000991,,,,,,,,,,6.0,3.0,75.0,6.0,251.300618811998,,,,,,,,,,,,,,,,,251.2907940160003,251.38515342999744,252.1870049930003,252.1748772139981,,,,,,,,,,,,,,,,,,,,,,,,,,,,,,,,,,,252.1779159209982,252.1870049930003,252.1870049930003,252.7766557099967,b,1.0,0.582538046000991,,,,,,sub-189,1,stroop_test,80.96644791107066,
,,,,76.0,4.0,6.0,,,,,,,,,,,,,blau,yellow,g,0.0,g,1.0,0.8363042990022223,,,,,,,,,,6.0,4.0,76.0,7.0,252.7875910579969,,,,,,,,,,,,,,,,,252.7770441649991,253.12341076199664,253.9173477099976,253.90779374200065,,,,,,,,,,,,,,,,,,,,,,,,,,,,,,,,,,,253.9084164359956,253.9173477099976,253.9173477099976,254.7604943799961,g,1.0,0.8363042990022223,,,,,,sub-189,1,stroop_test,80.96644791107066,
,,,,77.0,5.0,6.0,,,,,,,,,,,,,blau,red,r,0.0,r,1.0,0.5402129009962664,,,,,,,,,,6.0,5.0,77.0,4.0,254.77083113499972,,,,,,,,,,,,,,,,,254.7609070519975,254.85681263999868,255.64981510999496,255.6411132649955,,,,,,,,,,,,,,,,,,,,,,,,,,,,,,,,,,,255.6417411459988,255.64981510999496,255.64981510999496,256.1924273429977,r,1.0,0.5402129009962664,,,,,,sub-189,1,stroop_test,80.96644791107066,
,,,,78.0,6.0,6.0,,,,,,,,,,,,,rot,yellow,g,0.0,g,1.0,0.8519431250024354,,,,,,,,,,6.0,6.0,78.0,3.0,256.2034184899967,,,,,,,,,,,,,,,,,256.192844348996,256.54048211999907,257.33794620799745,257.3245862069962,,,,,,,,,,,,,,,,,,,,,,,,,,,,,,,,,,,257.3284473329986,257.33794620799745,257.33794620799745,258.1926247369993,g,1.0,0.8519431250024354,,,,,,sub-189,1,stroop_test,80.96644791107066,
,,,,79.0,7.0,6.0,,,,,,,,,,,,,rot,blue,b,0.0,b,1.0,0.586732456999016,,,,,,,,,,6.0,7.0,79.0,2.0,258.2041472479977,,,,,,,,,,,,,,,,,258.1930413949958,258.2902616989959,259.08405541200045,259.07434023899987,,,,,,,,,,,,,,,,,,,,,,,,,,,,,,,,,,,259.07495883700176,259.08405541200045,259.08405541200045,259.6760571199993,b,1.0,0.586732456999016,,,,,,sub-189,1,stroop_test,80.96644791107066,
,,,,80.0,8.0,6.0,,,,,,,,,,,,,gelb,yellow,g,1.0,g,1.0,0.8241338990046643,,,,,,,,,,6.0,8.0,80.0,11.0,259.6868039559995,,,,,,,,,,,,,,,,,259.6764514280003,259.773446180996,260.5675734460019,260.5575814679978,,,,,,,,,,,,,,,,,,,,,,,,,,,,,,,,,,,260.55982990699704,260.5675734460019,260.5675734460019,261.4012192000009,g,1.0,0.8241338990046643,,,,,,sub-189,1,stroop_test,80.96644791107066,
,,,,81.0,9.0,6.0,,,,,,,,,,,,,rot,red,r,1.0,r,1.0,0.504660304999561,,,,,,,,,,6.0,9.0,81.0,0.0,261.4099714089971,,,,,,,,,,,,,,,,,261.4016064489988,261.5001759149964,262.2937783699963,262.28360223300115,,,,,,,,,,,,,,,,,,,,,,,,,,,,,,,,,,,262.28661066999484,262.2937783699963,262.2937783699963,262.8012220719975,r,1.0,0.504660304999561,,,,,,sub-189,1,stroop_test,80.96644791107066,
,,,,82.0,10.0,6.0,,,,,,,,,,,,,rot,red,r,1.0,r,1.0,0.545890192996012,,,,,,,,,,6.0,10.0,82.0,1.0,262.80992369700107,,,,,,,,,,,,,,,,,262.80156890799844,262.8992488360018,263.6912216049968,263.6834098199979,,,,,,,,,,,,,,,,,,,,,,,,,,,,,,,,,,,263.68400742099766,263.6912216049968,263.6912216049968,264.24174784799834,r,1.0,0.545890192996012,,,,,,sub-189,1,stroop_test,80.96644791107066,
,,,,83.0,11.0,6.0,,,,,,,,,,,,,blau,blue,b,1.0,b,1.0,0.658436546997109,,,,,,,,,,6.0,11.0,83.0,5.0,264.2653615090021,,,,,,,,,,,,,,,,,264.2420905839972,264.5895530189955,265.3860352269985,265.37397880599747,,,,,,,,,,,,,,,,,,,,,,,,,,,,,,,,,,,265.3775289499972,265.3860352269985,265.3860352269985,266.05159716100025,b,1.0,0.658436546997109,,,,,,sub-189,1,stroop_test,80.96644791107066,
,,,,84.0,0.0,7.0,,,,,,,,,,,,,rot,red,r,1.0,r,1.0,0.6049920580044272,,,,,,,,,,7.0,0.0,84.0,1.0,266.0606165279969,,,,,,,,,,,,,,,,,266.0519846239986,266.84960395300004,267.64436439699784,267.63381385400135,,,,,,,,,,,,,,,,,,,,,,,,,,,,,,,,,,,267.6367600189988,267.64436439699784,267.64436439699784,268.251980301,r,1.0,0.6049920580044272,,,,,,sub-189,1,stroop_test,80.96644791107066,
,,,,85.0,1.0,7.0,,,,,,,,,,,,,blau,red,r,0.0,b,0.0,0.6107645459997002,,,,,,,,,,7.0,1.0,85.0,4.0,268.26127804399584,,,,,,,,,,,,,,,,,268.25239782899735,268.599613143997,269.39381489800144,269.3836919210007,,,,,,,,,,,,,,,,,,,,,,,,,,,,,,,,,,,269.386571654999,269.39381489800144,269.39381489800144,270.0095147309985,b,0.0,0.6107645459997002,,,,,,sub-189,1,stroop_test,80.96644791107066,
,,,,86.0,2.0,7.0,,,,,,,,,,,,,rot,yellow,g,0.0,g,1.0,1.1714725920028286,,,,,,,,,,7.0,2.0,86.0,3.0,270.02046729599533,,,,,,,,,,,,,,,,,270.0098587469984,271.2065085930008,272.0032036529956,271.9912467749964,,,,,,,,,,,,,,,,,,,,,,,,,,,,,,,,,,,271.9945562149951,272.0032036529956,272.0032036529956,273.18444474900025,g,1.0,1.1714725920028286,,,,,,sub-189,1,stroop_test,80.96644791107066,
,,,,87.0,3.0,7.0,,,,,,,,,,,,,blau,blue,b,1.0,b,1.0,1.0197830039978726,,,,,,,,,,7.0,3.0,87.0,5.0,273.1947248479992,,,,,,,,,,,,,,,,,273.1848315719981,273.282672374,274.0773920060019,274.0669509219952,,,,,,,,,,,,,,,,,,,,,,,,,,,,,,,,,,,274.06996758299647,274.0773920060019,274.0773920060019,275.10130477599887,b,1.0,1.0197830039978726,,,,,,sub-189,1,stroop_test,80.96644791107066,
,,,,88.0,4.0,7.0,,,,,,,,,,,,,rot,red,r,1.0,r,1.0,0.5700426419934956,,,,,,,,,,7.0,4.0,88.0,0.0,275.1106573450015,,,,,,,,,,,,,,,,,275.1016401509987,275.44973316699907,276.2456289719994,276.2339474089968,,,,,,,,,,,,,,,,,,,,,,,,,,,,,,,,,,,276.2377809719983,276.2456289719994,276.2456289719994,276.8180953819974,r,1.0,0.5700426419934956,,,,,,sub-189,1,stroop_test,80.96644791107066,
,,,,89.0,5.0,7.0,,,,,,,,,,,,,gelb,red,r,0.0,r,1.0,0.4368363850007881,,,,,,,,,,7.0,5.0,89.0,8.0,276.82705777899537,,,,,,,,,,,,,,,,,276.81849749999674,277.16615997999907,277.9610925550005,277.9502532510014,,,,,,,,,,,,,,,,,,,,,,,,,,,,,,,,,,,277.9534630720009,277.9610925550005,277.9610925550005,278.4016902959993,r,1.0,0.4368363850007881,,,,,,sub-189,1,stroop_test,80.96644791107066,
,,,,90.0,6.0,7.0,,,,,,,,,,,,,blau,yellow,g,0.0,g,1.0,0.569510202993115,,,,,,,,,,7.0,6.0,90.0,7.0,278.41045658799703,,,,,,,,,,,,,,,,,278.40202904599573,279.59957425099856,280.3960261269968,280.3837935650008,,,,,,,,,,,,,,,,,,,,,,,,,,,,,,,,,,,280.3883554269996,280.3960261269968,280.3960261269968,280.96813437200035,g,1.0,0.569510202993115,,,,,,sub-189,1,stroop_test,80.96644791107066,
,,,,91.0,7.0,7.0,,,,,,,,,,,,,rot,blue,b,0.0,b,1.0,0.8448145920046954,,,,,,,,,,7.0,7.0,91.0,2.0,280.97789243399893,,,,,,,,,,,,,,,,,280.9685295090021,281.0660704799957,281.862226213998,281.850427542995,,,,,,,,,,,,,,,,,,,,,,,,,,,,,,,,,,,281.85425051499624,281.862226213998,281.862226213998,282.7094481890017,b,1.0,0.8448145920046954,,,,,,sub-189,1,stroop_test,80.96644791107066,
,,,,92.0,8.0,7.0,,,,,,,,,,,,,gelb,yellow,g,1.0,g,1.0,0.6994732499952079,,,,,,,,,,7.0,8.0,92.0,10.0,282.72030353100126,,,,,,,,,,,,,,,,,282.70984619799856,283.05643721399974,283.853057606997,283.8406088789998,,,,,,,,,,,,,,,,,,,,,,,,,,,,,,,,,,,283.8439804719965,283.853057606997,283.853057606997,284.5600353529953,g,1.0,0.6994732499952079,,,,,,sub-189,1,stroop_test,80.96644791107066,
,,,,93.0,9.0,7.0,,,,,,,,,,,,,gelb,blue,b,0.0,b,1.0,0.5867148510005791,,,,,,,,,,7.0,9.0,93.0,9.0,284.57029732500087,,,,,,,,,,,,,,,,,284.56033644399577,285.35591583800124,286.14950036799564,286.1400248880018,,,,,,,,,,,,,,,,,,,,,,,,,,,,,,,,,,,286.1406298459988,286.14950036799564,286.14950036799564,286.74125843899674,b,1.0,0.5867148510005791,,,,,,sub-189,1,stroop_test,80.96644791107066,
,,,,94.0,10.0,7.0,,,,,,,,,,,,,gelb,yellow,g,1.0,g,1.0,0.5718141830002423,,,,,,,,,,7.0,10.0,94.0,11.0,286.7661066180008,,,,,,,,,,,,,,,,,286.7416178700005,287.53967998299777,288.3336326459976,288.3238308180007,,,,,,,,,,,,,,,,,,,,,,,,,,,,,,,,,,,288.32446000300115,288.3336326459976,288.3336326459976,288.9090691620004,g,1.0,0.5718141830002423,,,,,,sub-189,1,stroop_test,80.96644791107066,
,,,,95.0,11.0,7.0,,,,,,,,,,,,,blau,blue,b,1.0,b,1.0,0.5727948560015648,,,,,,,,,,7.0,11.0,95.0,6.0,288.9204443159979,,,,,,,,,,,,,,,,,288.90940742100065,289.7056849410001,290.5043451140009,290.4912374429987,,,,,,,,,,,,,,,,,,,,,,,,,,,,,,,,,,,290.49547470599646,290.5043451140009,290.5043451140009,291.08532109199587,b,1.0,0.5727948560015648,,,,,,sub-189,1,stroop_test,80.96644791107066,
,,,,96.0,0.0,8.0,,,,,,,,,,,,,gelb,yellow,g,1.0,g,1.0,0.4998322680039564,,,,,,,,,,8.0,0.0,96.0,10.0,291.0949542429953,,,,,,,,,,,,,,,,,291.0857130099976,292.28235522099567,293.0767624799992,293.0664643619966,,,,,,,,,,,,,,,,,,,,,,,,,,,,,,,,,,,293.0695858399995,293.0767624799992,293.0767624799992,293.58367638100026,g,1.0,0.4998322680039564,,,,,,sub-189,1,stroop_test,80.96644791107066,
,,,,97.0,1.0,8.0,,,,,,,,,,,,,blau,blue,b,1.0,b,1.0,0.580513418004557,,,,,,,,,,8.0,1.0,97.0,5.0,293.591948878995,,,,,,,,,,,,,,,,,293.5840096949978,294.382200029002,295.1779231089968,295.1667348599949,,,,,,,,,,,,,,,,,,,,,,,,,,,,,,,,,,,295.17049796499487,295.1779231089968,295.1779231089968,295.76739780700154,b,1.0,0.580513418004557,,,,,,sub-189,1,stroop_test,80.96644791107066,
,,,,98.0,2.0,8.0,,,,,,,,,,,,,rot,red,r,1.0,r,1.0,0.5210424629985937,,,,,,,,,,8.0,2.0,98.0,1.0,295.7761791590019,,,,,,,,,,,,,,,,,295.7677982169989,295.86586800900113,296.6611085819968,296.65015682199737,,,,,,,,,,,,,,,,,,,,,,,,,,,,,,,,,,,296.6536955400006,296.6611085819968,296.6611085819968,297.1852725049976,r,1.0,0.5210424629985937,,,,,,sub-189,1,stroop_test,80.96644791107066,
,,,,99.0,3.0,8.0,,,,,,,,,,,,,gelb,blue,b,0.0,b,1.0,0.733684558996174,,,,,,,,,,8.0,3.0,99.0,9.0,297.1945587549999,,,,,,,,,,,,,,,,,297.1856722090015,297.98256980899896,298.7777315209969,298.7664893179972,,,,,,,,,,,,,,,,,,,,,,,,,,,,,,,,,,,298.76981265899667,298.7777315209969,298.7777315209969,299.51767876699887,b,1.0,0.733684558996174,,,,,,sub-189,1,stroop_test,80.96644791107066,
,,,,100.0,4.0,8.0,,,,,,,,,,,,,rot,blue,b,0.0,b,1.0,0.533575462999579,,,,,,,,,,8.0,4.0,100.0,2.0,299.52722828999686,,,,,,,,,,,,,,,,,299.5180278269981,299.8660174069955,300.6604571880016,300.6499368489968,,,,,,,,,,,,,,,,,,,,,,,,,,,,,,,,,,,300.65295494999737,300.6604571880016,300.6604571880016,301.205171337002,b,1.0,0.533575462999579,,,,,,sub-189,1,stroop_test,80.96644791107066,
,,,,101.0,5.0,8.0,,,,,,,,,,,,,blau,yellow,g,0.0,g,1.0,0.6916322250035591,,,,,,,,,,8.0,5.0,101.0,7.0,301.21714096800133,,,,,,,,,,,,,,,,,301.20564916500007,301.5494795859995,302.3438319170018,302.3334501229984,,,,,,,,,,,,,,,,,,,,,,,,,,,,,,,,,,,302.33625939599733,302.3438319170018,302.3438319170018,303.04319557899726,g,1.0,0.6916322250035591,,,,,,sub-189,1,stroop_test,80.96644791107066,
,,,,102.0,6.0,8.0,,,,,,,,,,,,,gelb,red,r,0.0,r,1.0,0.6666603489939007,,,,,,,,,,8.0,6.0,102.0,8.0,303.0532768150006,,,,,,,,,,,,,,,,,303.0435906470011,303.1396920589977,303.93604379399767,303.9239440070014,,,,,,,,,,,,,,,,,,,,,,,,,,,,,,,,,,,303.9270893899957,303.93604379399767,303.93604379399767,304.60863271499693,r,1.0,0.6666603489939007,,,,,,sub-189,1,stroop_test,80.96644791107066,
,,,,103.0,7.0,8.0,,,,,,,,,,,,,rot,red,r,1.0,r,1.0,0.5288690230008797,,,,,,,,,,8.0,7.0,103.0,0.0,304.61994463299925,,,,,,,,,,,,,,,,,304.6089776939989,305.805932244999,306.60287569199863,306.5903499260021,,,,,,,,,,,,,,,,,,,,,,,,,,,,,,,,,,,306.59396315999766,306.60287569199863,306.60287569199863,307.1339210199949,r,1.0,0.5288690230008797,,,,,,sub-189,1,stroop_test,80.96644791107066,
,,,,104.0,8.0,8.0,,,,,,,,,,,,,blau,red,r,0.0,r,1.0,0.5041484000030323,,,,,,,,,,8.0,8.0,104.0,4.0,307.142533719998,,,,,,,,,,,,,,,,,307.13426503600203,307.48220018999564,308.2770675829961,308.2665526089986,,,,,,,,,,,,,,,,,,,,,,,,,,,,,,,,,,,308.26973888099747,308.2770675829961,308.2770675829961,308.78410230900045,r,1.0,0.5041484000030323,,,,,,sub-189,1,stroop_test,80.96644791107066,
,,,,105.0,9.0,8.0,,,,,,,,,,,,,rot,yellow,g,0.0,g,1.0,0.7155089079969912,,,,,,,,,,8.0,9.0,105.0,3.0,308.79295316500065,,,,,,,,,,,,,,,,,308.784506209995,309.58220923000044,310.37703726299515,310.3662338869981,,,,,,,,,,,,,,,,,,,,,,,,,,,,,,,,,,,310.3698240529993,310.37703726299515,310.37703726299515,311.1006008799959,g,1.0,0.7155089079969912,,,,,,sub-189,1,stroop_test,80.96644791107066,
,,,,106.0,10.0,8.0,,,,,,,,,,,,,blau,blue,b,1.0,b,1.0,0.6445104840022395,,,,,,,,,,8.0,10.0,106.0,6.0,311.1097181799996,,,,,,,,,,,,,,,,,311.10095113799616,311.19920451699727,311.9940863699958,311.98332117099926,,,,,,,,,,,,,,,,,,,,,,,,,,,,,,,,,,,311.98639088100026,311.9940863699958,311.9940863699958,312.6418213619981,b,1.0,0.6445104840022395,,,,,,sub-189,1,stroop_test,80.96644791107066,
,,,,107.0,11.0,8.0,,,,,,,,,,,,,gelb,yellow,g,1.0,g,1.0,0.5166506690002279,,,,,,,,,,8.0,11.0,107.0,11.0,312.6648003559967,,,,,,,,,,,,,,,,,312.64209249199484,312.7394460430005,313.53608664999774,313.5237458260017,,,,,,,,,,,,,,,,,,,,,,,,,,,,,,,,,,,313.5270149209973,313.53608664999774,313.53608664999774,314.05957350199606,g,1.0,0.5166506690002279,,,,,,sub-189,1,stroop_test,80.96644791107066,
,,,,108.0,0.0,9.0,,,,,,,,,,,,,gelb,blue,b,0.0,b,1.0,0.6429147529997863,,,,,,,,,,9.0,0.0,108.0,9.0,314.0693415679998,,,,,,,,,,,,,,,,,314.05997055600164,315.25639052099723,316.0499468380003,316.0403524630019,,,,,,,,,,,,,,,,,,,,,,,,,,,,,,,,,,,316.040863133996,316.0499468380003,316.0499468380003,316.70117945699894,b,1.0,0.6429147529997863,,,,,,sub-189,1,stroop_test,80.96644791107066,
,,,,109.0,1.0,9.0,,,,,,,,,,,,,blau,blue,b,1.0,b,1.0,0.460720252005558,,,,,,,,,,9.0,1.0,109.0,6.0,316.7100334009956,,,,,,,,,,,,,,,,,316.7015139089999,316.7997232709968,317.5943478029949,317.5832956779996,,,,,,,,,,,,,,,,,,,,,,,,,,,,,,,,,,,317.586484913998,317.5943478029949,317.5943478029949,318.0584780049976,b,1.0,0.460720252005558,,,,,,sub-189,1,stroop_test,80.96644791107066,
,,,,110.0,2.0,9.0,,,,,,,,,,,,,blau,blue,b,1.0,b,1.0,0.3389149580034427,,,,,,,,,,9.0,2.0,110.0,5.0,318.0694544559956,,,,,,,,,,,,,,,,,318.0588222379956,318.15611908499704,318.94903432999854,318.94021514499764,,,,,,,,,,,,,,,,,,,,,,,,,,,,,,,,,,,318.9408282250006,318.94903432999854,318.94903432999854,319.2921770559988,b,1.0,0.3389149580034427,,,,,,sub-189,1,stroop_test,80.96644791107066,
,,,,111.0,3.0,9.0,,,,,,,,,,,,,blau,yellow,g,0.0,g,1.0,0.6836250829946948,,,,,,,,,,9.0,3.0,111.0,7.0,319.3023199160016,,,,,,,,,,,,,,,,,319.29252393700153,319.6391800970014,320.43260125199595,320.423324798001,,,,,,,,,,,,,,,,,,,,,,,,,,,,,,,,,,,320.42407813599857,320.43260125199595,320.43260125199595,321.1182100919977,g,1.0,0.6836250829946948,,,,,,sub-189,1,stroop_test,80.96644791107066,
,,,,112.0,4.0,9.0,,,,,,,,,,,,,rot,red,r,1.0,r,1.0,0.5006140780023998,,,,,,,,,,9.0,4.0,112.0,1.0,321.12786689899804,,,,,,,,,,,,,,,,,321.1186203760008,322.3152967549977,323.1097665029956,323.09940238299896,,,,,,,,,,,,,,,,,,,,,,,,,,,,,,,,,,,323.1025318319953,323.1097665029956,323.1097665029956,323.6188246599995,r,1.0,0.5006140780023998,,,,,,sub-189,1,stroop_test,80.96644791107066,
,,,,113.0,5.0,9.0,,,,,,,,,,,,,blau,red,r,0.0,r,1.0,0.8429041100025643,,,,,,,,,,9.0,5.0,113.0,4.0,323.6276976579975,,,,,,,,,,,,,,,,,323.61921976099984,324.81560508799885,325.6100757649983,325.599465886,,,,,,,,,,,,,,,,,,,,,,,,,,,,,,,,,,,325.6025681039973,325.6100757649983,325.6100757649983,326.4589489520004,r,1.0,0.8429041100025643,,,,,,sub-189,1,stroop_test,80.96644791107066,
,,,,114.0,6.0,9.0,,,,,,,,,,,,,rot,red,r,1.0,r,1.0,0.380785413995909,,,,,,,,,,9.0,6.0,114.0,0.0,326.4697931949995,,,,,,,,,,,,,,,,,326.45937923699967,326.8058473829951,327.6024310130015,327.5901945500009,,,,,,,,,,,,,,,,,,,,,,,,,,,,,,,,,,,327.5938334129969,327.6024310130015,327.6024310130015,327.9856211309961,r,1.0,0.380785413995909,,,,,,sub-189,1,stroop_test,80.96644791107066,
,,,,115.0,7.0,9.0,,,,,,,,,,,,,rot,blue,b,0.0,b,1.0,0.4173851059968001,,,,,,,,,,9.0,7.0,115.0,2.0,327.99447900799714,,,,,,,,,,,,,,,,,327.9860240209964,328.08234353299486,328.87439758599794,328.8663394249961,,,,,,,,,,,,,,,,,,,,,,,,,,,,,,,,,,,328.866948087998,328.87439758599794,328.87439758599794,329.3007802169959,b,1.0,0.4173851059968001,,,,,,sub-189,1,stroop_test,80.96644791107066,
,,,,116.0,8.0,9.0,,,,,,,,,,,,,gelb,red,r,0.0,r,1.0,0.6292316990002291,,,,,,,,,,9.0,8.0,116.0,8.0,329.30978988499555,,,,,,,,,,,,,,,,,329.301115454,330.0990200160013,330.89380739699845,330.8830439099984,,,,,,,,,,,,,,,,,,,,,,,,,,,,,,,,,,,330.88606472800166,330.89380739699845,330.89380739699845,331.525270858001,r,1.0,0.6292316990002291,,,,,,sub-189,1,stroop_test,80.96644791107066,
,,,,117.0,9.0,9.0,,,,,,,,,,,,,gelb,yellow,g,1.0,g,1.0,0.5022394829939003,,,,,,,,,,9.0,9.0,117.0,11.0,331.5364073019955,,,,,,,,,,,,,,,,,331.52561543000047,331.87246398099524,332.66917575200205,332.6575321669952,,,,,,,,,,,,,,,,,,,,,,,,,,,,,,,,,,,332.65833808099705,332.66917575200205,332.66917575200205,333.1746792299964,g,1.0,0.5022394829939003,,,,,,sub-189,1,stroop_test,80.96644791107066,
,,,,118.0,10.0,9.0,,,,,,,,,,,,,gelb,yellow,g,1.0,g,1.0,0.5316410300001735,,,,,,,,,,9.0,10.0,118.0,10.0,333.1857965589952,,,,,,,,,,,,,,,,,333.1750212879997,333.5222335439976,334.31542808000086,334.3066530629949,,,,,,,,,,,,,,,,,,,,,,,,,,,,,,,,,,,334.30730593099725,334.31542808000086,334.31542808000086,334.85067996799626,g,1.0,0.5316410300001735,,,,,,sub-189,1,stroop_test,80.96644791107066,
,,,,119.0,11.0,9.0,,,,,,,,,,,,,rot,yellow,g,0.0,g,1.0,0.5913138109972351,,,,,,,,,,9.0,11.0,119.0,3.0,334.85952991499653,,,,,,,,,,,,,,,,,334.8510774269962,335.64886713500164,336.4430985430008,336.4328381449959,,,,,,,,,,,,,,,,,,,,,,,,,,,,,,,,,,,336.4356028589973,336.4430985430008,336.4430985430008,337.04245249399537,g,1.0,0.5913138109972351,,,,,,sub-189,1,stroop_test,80.96644791107066,
,,,,,,,,,,,,,,,,,,,,,,,,,,,,,,,,,,,,,,,,,,,,,,,,,,,,,,,,,,,,,,,,,,,,,,,,,,,,,,,,,,,,,,,,,,,,,,,,,,,,,,337.04265681200195,337.054497486999,342.0559234109969,342.040385387998,sub-189,1,stroop_test,80.96644791107066,
