wordCTK,colorCTK,corrAnsCTK,congruentCTK,wordPractice,colorPractice,corrAnsPractice,congruentPractice,word,color,corrAns,congruent,trials_CTK.thisRepN,trials_CTK.thisTrialN,trials_CTK.thisN,trials_CTK.thisIndex,trials_practice.thisRepN,trials_practice.thisTrialN,trials_practice.thisN,trials_practice.thisIndex,trials_test.thisRepN,trials_test.thisTrialN,trials_test.thisN,trials_test.thisIndex,thisRow.t,notes,instruction.started,instr_text.started,instr_image.started,instr_resp.started,instruction.stopped,instr_resp.keys,instr_resp.rt,instr_resp.duration,instr_color_to_key.started,instr_ctk.started,resp_ctk.started,instr_color_to_key.stopped,resp_ctk.keys,resp_ctk.rt,resp_ctk.duration,ITI.started,fixcross.started,fixcross.stopped,ITI.stopped,color_to_key_run.started,stimulus_CTK.started,keyResp_CTK.started,color_to_key_run.stopped,keyResp_CTK.keys,keyResp_CTK.corr,keyResp_CTK.rt,keyResp_CTK.duration,instr_practice.started,instr_practice_text.started,instr_practice_resp.started,instr_practice.stopped,instr_practice_resp.keys,instr_practice_resp.rt,instr_practice_resp.duration,practice_run.started,stimulus_practice.started,respPractice.started,practice_run.stopped,respPractice.keys,respPractice.corr,respPractice.rt,respPractice.duration,feedback.started,textFeedback.started,textFeedback.stopped,feedback.stopped,instr_test.started,instr_test_text.started,instr_test_resp.started,instr_test.stopped,instr_test_resp.keys,instr_test_resp.rt,instr_test_resp.duration,test_run.started,stimulus_test_run.started,keyResp_test_run.started,test_run.stopped,keyResp_test_run.keys,keyResp_test_run.corr,keyResp_test_run.rt,keyResp_test_run.duration,goodbye.started,textGoodbye.started,textGoodbye.stopped,goodbye.stopped,participant,session,expName,frameRate,Unnamed: 98
,,,,,,,,,,,,,,,,,,,,,,,,,,0.0018257000010635,0.0298342000023694,0.0298342000023694,0.0298342000023694,85.02985400000034,space,84.98860639999839,,,,,,,,,,,,,,,,,,,,,,,,,,,,,,,,,,,,,,,,,,,,,,,,,,,,,,,,,,,sub-053,1.0,stroop_test,59.99257291966453,
,,,,,,,,,,,,,,,,,,,,,,,,,,,,,,,,,,85.0299027000001,85.04531490000227,85.04531490000227,91.7785545000006,space,6.726091000000452,,,,,,,,,,,,,,,,,,,,,,,,,,,,,,,,,,,,,,,,,,,,,,,,,,,,sub-053,1.0,stroop_test,59.99257291966453,
test,red,r,1.0,,,,,,,,,0.0,0.0,0.0,0.0,,,,,,,,,91.83854129999963,,,,,,,,,,,,,,,,,91.83584530000007,92.99395890000233,93.79368070000056,93.77767980000137,93.77770059999966,93.79368070000056,93.79368070000056,99.31069399999978,r,1.0,5.510461400001077,,,,,,,,,,,,,,,,,,,,,,,,,,,,,,,,,,,,,,,,sub-053,1.0,stroop_test,59.99257291966453,
test,yellow,g,1.0,,,,,,,,,0.0,1.0,1.0,1.0,,,,,,,,,99.32659820000116,,,,,,,,,,,,,,,,,99.3117213000005,99.42622800000026,100.22626420000232,100.2102169000027,100.21024360000229,100.22626420000232,100.22626420000232,102.07705200000056,g,1.0,1.841062899999088,,,,,,,,,,,,,,,,,,,,,,,,,,,,,,,,,,,,,,,,sub-053,1.0,stroop_test,59.99257291966453,
test,blue,b,1.0,,,,,,,,,0.0,2.0,2.0,2.0,,,,,,,,,102.09243150000113,,,,,,,,,,,,,,,,,102.07791110000107,102.44255130000238,103.2424616999997,103.2264378,103.22646390000229,103.2424616999997,103.2424616999997,104.3436021000016,b,1.0,1.0998399999989488,,,,,,,,,,,,,,,,,,,,,,,,,,,,,,,,,,,,,,,,sub-053,1.0,stroop_test,59.99257291966453,
test,blue,b,1.0,,,,,,,,,1.0,0.0,3.0,2.0,,,,,,,,,104.3587847000017,,,,,,,,,,,,,,,,,104.34424910000234,104.45866490000115,105.2587581000007,105.24266120000176,105.24268640000082,105.2587581000007,105.2587581000007,106.9927099000015,b,1.0,1.7249942000016745,,,,,,,,,,,,,,,,,,,,,,,,,,,,,,,,,,,,,,,,sub-053,1.0,stroop_test,59.99257291966453,
test,yellow,g,1.0,,,,,,,,,1.0,1.0,4.0,1.0,,,,,,,,,107.00831079999988,,,,,,,,,,,,,,,,,106.993445600001,107.10843830000158,107.90836029999991,107.89210610000008,107.8921205000006,107.90836029999991,107.90836029999991,110.275536000001,g,1.0,2.3546084000008705,,,,,,,,,,,,,,,,,,,,,,,,,,,,,,,,,,,,,,,,sub-053,1.0,stroop_test,59.99257291966453,
test,red,r,1.0,,,,,,,,,1.0,2.0,5.0,0.0,,,,,,,,,110.29120180000244,,,,,,,,,,,,,,,,,110.27625790000091,110.64114440000048,111.44112640000094,111.42501900000208,111.42504080000072,111.44112640000094,111.44112640000094,112.25835910000023,r,1.0,0.8150027000010596,,,,,,,,,,,,,,,,,,,,,,,,,,,,,,,,,,,,,,,,sub-053,1.0,stroop_test,59.99257291966453,
test,blue,b,1.0,,,,,,,,,2.0,0.0,6.0,2.0,,,,,,,,,112.274070200001,,,,,,,,,,,,,,,,,112.25903670000116,112.6241579000016,113.4240501000022,113.40801860000283,113.40804000000207,113.4240501000022,113.4240501000022,114.3254029000018,b,1.0,0.8999909000012849,,,,,,,,,,,,,,,,,,,,,,,,,,,,,,,,,,,,,,,,sub-053,1.0,stroop_test,59.99257291966453,
test,red,r,1.0,,,,,,,,,2.0,1.0,7.0,0.0,,,,,,,,,114.3406348000026,,,,,,,,,,,,,,,,,114.3260450000016,115.14043250000032,115.94040049999968,115.92415990000154,115.92417449999994,115.94040049999968,115.94040049999968,118.37415420000252,r,1.0,2.430172500000481,,,,,,,,,,,,,,,,,,,,,,,,,,,,,,,,,,,,,,,,sub-053,1.0,stroop_test,59.99257291966453,
test,yellow,g,1.0,,,,,,,,,2.0,2.0,8.0,1.0,,,,,,,,,118.38988850000167,,,,,,,,,,,,,,,,,118.37480700000016,119.18986720000248,119.98981210000056,119.97365580000042,119.97368149999966,119.98981210000056,119.98981210000056,120.9071752000018,g,1.0,0.9061877999993158,,,,,,,,,,,,,,,,,,,,,,,,,,,,,,,,,,,,,,,,sub-053,1.0,stroop_test,59.99257291966453,
test,yellow,g,1.0,,,,,,,,,3.0,0.0,9.0,1.0,,,,,,,,,120.9228800000019,,,,,,,,,,,,,,,,,120.90801740000096,122.12271310000142,122.92251220000252,122.9066053000024,122.90663180000048,122.92251220000252,122.92251220000252,123.77372269999978,g,1.0,0.8461768999986816,,,,,,,,,,,,,,,,,,,,,,,,,,,,,,,,,,,,,,,,sub-053,1.0,stroop_test,59.99257291966453,
test,red,r,1.0,,,,,,,,,3.0,1.0,10.0,0.0,,,,,,,,,123.78920410000136,,,,,,,,,,,,,,,,,123.77455860000192,123.88916210000023,124.6887807000021,124.67279540000165,124.67281560000264,124.6887807000021,124.6887807000021,125.82306940000126,r,1.0,1.1217372999999498,,,,,,,,,,,,,,,,,,,,,,,,,,,,,,,,,,,,,,,,sub-053,1.0,stroop_test,59.99257291966453,
test,blue,b,1.0,,,,,,,,,3.0,2.0,11.0,2.0,,,,,,,,,125.83875540000008,,,,,,,,,,,,,,,,,125.82392080000136,126.18877129999964,126.98855019999974,126.97255120000044,126.9725776000014,126.98855019999974,126.98855019999974,128.13913220000177,b,1.0,1.1435910999971384,,,,,,,,,,,,,,,,,,,,,,,,,,,,,,,,,,,,,,,,sub-053,1.0,stroop_test,59.99257291966453,
,,,,,,,,,,,,,,,,,,,,,,,,,,,,,,,,,,,,,,,,,,,,,,,,,,,,,128.13949910000156,128.15494460000264,128.15494460000264,132.8554236000018,space,4.693615399999544,,,,,,,,,,,,,,,,,,,,,,,,,,,,,,,,,sub-053,1.0,stroop_test,59.99257291966453,
,,,,rot,red,r,1.0,,,,,,,,,0.0,0.0,0.0,1.0,,,,,132.87116310000056,,,,,,,,,,,,,,,,,132.86499410000033,133.22085400000287,134.02103980000174,134.00485470000058,,,,,,,,,,,,,,,,134.0048811000015,134.02103980000174,134.02103980000174,136.47177050000028,r,1.0,2.449221900002158,,136.4725021000013,136.48722100000305,137.48689650000233,137.47082420000152,,,,,,,,,,,,,,,,,,,,sub-053,1.0,stroop_test,59.99257291966453,
,,,,gelb,blue,b,0.0,,,,,,,,,0.0,1.0,1.0,9.0,,,,,137.48689650000233,,,,,,,,,,,,,,,,,137.4712623000014,137.58684880000146,138.3866076000013,138.3704996000015,,,,,,,,,,,,,,,,138.37051950000023,138.3866076000013,138.3866076000013,139.3376059000002,g,0.0,0.935093699998106,,139.33815740000136,139.35314720000315,140.3529208,140.33714770000006,,,,,,,,,,,,,,,,,,,,sub-053,1.0,stroop_test,59.99257291966453,
,,,,blau,red,r,0.0,,,,,,,,,0.0,2.0,2.0,4.0,,,,,140.3529208,,,,,,,,,,,,,,,,,140.3375816000007,141.15303850000055,141.95282640000005,141.9368534000023,,,,,,,,,,,,,,,,141.93687930000306,141.95282640000005,141.95282640000005,144.28706210000018,r,1.0,2.322525100000348,,144.28761000000304,144.302418700001,145.3022544000014,145.2863287,,,,,,,,,,,,,,,,,,,,sub-053,1.0,stroop_test,59.99257291966453,
,,,,rot,yellow,g,0.0,,,,,,,,,0.0,3.0,3.0,3.0,,,,,145.3022544000014,,,,,,,,,,,,,,,,,145.2867673000001,146.10210110000116,146.90198290000262,146.88598660000207,,,,,,,,,,,,,,,,146.88602530000207,146.90198290000262,146.90198290000262,148.16937760000292,g,1.0,1.2649949999977252,,148.1698591000022,148.18519450000167,149.18498800000089,149.1689124000004,,,,,,,,,,,,,,,,,,,,sub-053,1.0,stroop_test,59.99257291966453,
,,,,blau,blue,b,1.0,,,,,,,,,0.0,4.0,4.0,5.0,,,,,149.18498800000089,,,,,,,,,,,,,,,,,149.16934630000105,149.53487320000204,150.33472040000197,150.3187641000004,,,,,,,,,,,,,,,,150.31878940000024,150.33472040000197,150.33472040000197,151.5190932000005,b,1.0,1.183011000000988,,151.519455200003,151.53463170000032,152.53439840000283,152.5181459000014,,,,,,,,,,,,,,,,,,,,sub-053,1.0,stroop_test,59.99257291966453,
,,,,rot,red,r,1.0,,,,,,,,,0.0,5.0,5.0,0.0,,,,,152.53439840000283,,,,,,,,,,,,,,,,,152.51840060000177,153.33426080000208,154.13421590000144,154.1181300999997,,,,,,,,,,,,,,,,154.11815690000003,154.13421590000144,154.13421590000144,154.83526880000136,r,1.0,0.6837019999984477,,154.83584880000126,154.85073570000168,155.8506230000021,155.83484390000012,,,,,,,,,,,,,,,,,,,,sub-053,1.0,stroop_test,59.99257291966453,
,,,,gelb,red,r,0.0,,,,,,,,,0.0,6.0,6.0,8.0,,,,,155.8506230000021,,,,,,,,,,,,,,,,,155.83527680000043,157.05041640000127,157.85039900000265,157.83431800000108,,,,,,,,,,,,,,,,157.83435490000193,157.85039900000265,157.85039900000265,158.6508001000002,r,1.0,0.7939107999991393,,158.6511148000027,158.66682950000177,159.6666562999999,159.65037220000158,,,,,,,,,,,,,,,,,,,,sub-053,1.0,stroop_test,59.99257291966453,
,,,,rot,blue,b,0.0,,,,,,,,,0.0,7.0,7.0,2.0,,,,,159.6666562999999,,,,,,,,,,,,,,,,,159.65063990000272,160.86652859999958,161.66626570000153,161.65027499999997,,,,,,,,,,,,,,,,161.65030020000268,161.66626570000153,161.66626570000153,163.75025110000206,b,1.0,2.08053469999868,,163.75060360000134,163.76601980000123,164.76568940000288,164.74976070000048,,,,,,,,,,,,,,,,,,,,sub-053,1.0,stroop_test,59.99257291966453,
,,,,blau,yellow,g,0.0,,,,,,,,,0.0,8.0,8.0,7.0,,,,,164.76568940000288,,,,,,,,,,,,,,,,,164.75012760000027,164.8659114000002,165.66576840000198,165.6495657000014,,,,,,,,,,,,,,,,165.6495919000008,165.66576840000198,165.66576840000198,167.93345030000273,b,0.0,2.266574199999013,,167.93383600000016,167.9488108000005,168.9485190000014,168.93255359999966,,,,,,,,,,,,,,,,,,,,sub-053,1.0,stroop_test,59.99257291966453,
,,,,blau,blue,b,1.0,,,,,,,,,0.0,9.0,9.0,6.0,,,,,168.9485190000014,,,,,,,,,,,,,,,,,168.93300190000082,170.1482754000026,170.94821980000052,170.932228200003,,,,,,,,,,,,,,,,170.93225440000242,170.94821980000052,170.94821980000052,172.9487893000005,b,1.0,1.9846312000008768,,172.94926990000022,172.96455369999967,173.9642163999997,173.94830840000213,,,,,,,,,,,,,,,,,,,,sub-053,1.0,stroop_test,59.99257291966453,
,,,,gelb,yellow,g,1.0,,,,,,,,,0.0,10.0,10.0,10.0,,,,,173.9642163999997,,,,,,,,,,,,,,,,,173.94868960000167,174.76430830000027,175.56417510000028,175.5480849000014,,,,,,,,,,,,,,,,175.54811090000294,175.56417510000028,175.56417510000028,177.7980813000031,g,1.0,2.22134019999794,,177.7985953000025,177.81373710000116,178.8136553000004,178.79755550000118,,,,,,,,,,,,,,,,,,,,sub-053,1.0,stroop_test,59.99257291966453,
,,,,gelb,yellow,g,1.0,,,,,,,,,0.0,11.0,11.0,11.0,,,,,178.8136553000004,,,,,,,,,,,,,,,,,178.7979677000003,180.01355870000043,180.81326580000317,180.7971944000019,,,,,,,,,,,,,,,,180.7972163000013,180.81326580000317,180.81326580000317,181.9640505999996,g,1.0,1.1369597999982943,,181.9645235999997,181.9798385000031,182.9796043000024,182.96363900000145,,,,,,,,,,,,,,,,,,,,sub-053,1.0,stroop_test,59.99257291966453,
,,,,gelb,blue,b,0.0,,,,,,,,,1.0,0.0,12.0,9.0,,,,,182.9796043000024,,,,,,,,,,,,,,,,,182.964010300002,183.3294997000012,184.12953500000003,184.11344640000243,,,,,,,,,,,,,,,,184.1134689000028,184.12953500000003,184.12953500000003,185.5140046000015,b,1.0,1.3828491999993275,,185.5145878000003,185.5292831000006,186.5291083000011,186.51298710000265,,,,,,,,,,,,,,,,,,,,sub-053,1.0,stroop_test,59.99257291966453,
,,,,rot,blue,b,0.0,,,,,,,,,1.0,1.0,13.0,2.0,,,,,186.5291083000011,,,,,,,,,,,,,,,,,186.5135817000009,187.3289317000017,188.1289527000008,188.1127723000027,,,,,,,,,,,,,,,,188.1127986000029,188.1289527000008,188.1289527000008,189.7628478000006,b,1.0,1.6203117000004568,,189.76334920000227,189.77848730000187,190.77840740000104,190.762450000002,,,,,,,,,,,,,,,,,,,,sub-053,1.0,stroop_test,59.99257291966453,
,,,,rot,red,r,1.0,,,,,,,,,1.0,2.0,14.0,1.0,,,,,190.77840740000104,,,,,,,,,,,,,,,,,190.7628810000024,190.8784493000021,191.6782992000008,191.66218660000231,,,,,,,,,,,,,,,,191.66221190000212,191.6782992000008,191.6782992000008,192.66245490000077,r,1.0,0.9784204999996292,,192.66293320000116,192.6780694000008,193.67791080000097,193.66184030000292,,,,,,,,,,,,,,,,,,,,sub-053,1.0,stroop_test,59.99257291966453,
,,,,blau,red,r,0.0,,,,,,,,,1.0,3.0,15.0,4.0,,,,,193.67791080000097,,,,,,,,,,,,,,,,,193.66221829999995,194.4778288000016,195.27779569999984,195.2617449999998,,,,,,,,,,,,,,,,195.2617721000024,195.27779569999984,195.27779569999984,196.2949656000019,b,0.0,1.0041844000006677,,196.2953938000028,196.31079750000208,197.31062680000105,197.29458050000176,,,,,,,,,,,,,,,,,,,,sub-053,1.0,stroop_test,59.99257291966453,
,,,,blau,yellow,g,0.0,,,,,,,,,1.0,4.0,16.0,7.0,,,,,197.31062680000105,,,,,,,,,,,,,,,,,197.29496700000163,197.66047900000197,198.4605412000019,198.44446160000007,,,,,,,,,,,,,,,,198.44448730000292,198.4605412000019,198.4605412000019,200.32821780000089,g,1.0,1.8650984999985667,,200.32877230000304,200.3434855000014,201.34332370000263,201.3273083000022,,,,,,,,,,,,,,,,,,,,sub-053,1.0,stroop_test,59.99257291966453,
,,,,gelb,yellow,g,1.0,,,,,,,,,1.0,5.0,17.0,11.0,,,,,201.34332370000263,,,,,,,,,,,,,,,,,201.32767460000105,202.1430994000002,202.9430812999999,202.92693160000272,,,,,,,,,,,,,,,,202.9269514000007,202.9430812999999,202.9430812999999,205.6769194000008,g,1.0,2.731826999999612,,205.6773396999997,205.69252840000263,206.6923930000012,206.6765674000017,,,,,,,,,,,,,,,,,,,,sub-053,1.0,stroop_test,59.99257291966453,
,,,,gelb,yellow,g,1.0,,,,,,,,,1.0,6.0,18.0,10.0,,,,,206.6923930000012,,,,,,,,,,,,,,,,,206.6770035000009,207.04238660000192,207.8424911000002,207.8263349000008,,,,,,,,,,,,,,,,207.82635970000047,207.8424911000002,207.8424911000002,210.05969010000263,g,1.0,2.2134970000006438,,210.06017200000133,210.07528000000093,211.0750934000025,211.05888360000245,,,,,,,,,,,,,,,,,,,,sub-053,1.0,stroop_test,59.99257291966453,
,,,,blau,blue,b,1.0,,,,,,,,,1.0,7.0,19.0,5.0,,,,,211.0750934000025,,,,,,,,,,,,,,,,,211.05921959999975,211.17515060000005,211.97510070000132,211.9590800000005,,,,,,,,,,,,,,,,211.9591074000018,211.97510070000132,211.97510070000132,214.72536780000155,b,1.0,2.7453894000027503,,214.72579880000197,214.7412061000032,215.741093800003,215.7250672000009,,,,,,,,,,,,,,,,,,,,sub-053,1.0,stroop_test,59.99257291966453,
,,,,blau,blue,b,1.0,,,,,,,,,1.0,8.0,20.0,6.0,,,,,215.741093800003,,,,,,,,,,,,,,,,,215.7254355000005,216.54091950000293,217.34081060000244,217.32464510000136,,,,,,,,,,,,,,,,217.32466730000303,217.34081060000244,217.34081060000244,218.4084382000001,b,1.0,1.0653420000016922,,218.40903560000152,218.423890500002,219.4237772000015,219.4078451000023,,,,,,,,,,,,,,,,,,,,sub-053,1.0,stroop_test,59.99257291966453,
,,,,rot,yellow,g,0.0,,,,,,,,,1.0,9.0,21.0,3.0,,,,,219.4237772000015,,,,,,,,,,,,,,,,,219.40821700000012,219.7737892000005,220.57359590000124,220.55741219999985,,,,,,,,,,,,,,,,220.5574299,220.57359590000124,220.57359590000124,221.7742364000005,g,1.0,1.1893653000006452,,221.7746651000016,221.7899297000004,222.79092090000267,222.77357810000103,,,,,,,,,,,,,,,,,,,,sub-053,1.0,stroop_test,59.99257291966453,
,,,,rot,red,r,1.0,,,,,,,,,1.0,10.0,22.0,0.0,,,,,222.79092090000267,,,,,,,,,,,,,,,,,222.7738505000016,223.13994430000093,223.93984550000096,223.92401430000243,,,,,,,,,,,,,,,,223.92405110000252,223.93984550000096,223.93984550000096,224.80721260000064,r,1.0,0.8503022000004421,,224.80776740000147,224.82323720000204,225.82280580000224,225.80684120000296,,,,,,,,,,,,,,,,,,,,sub-053,1.0,stroop_test,59.99257291966453,
,,,,gelb,red,r,0.0,,,,,,,,,1.0,11.0,23.0,8.0,,,,,225.82280580000224,,,,,,,,,,,,,,,,,225.8072992000016,226.17257600000084,226.9725814000012,226.9563775000024,,,,,,,,,,,,,,,,226.9563971000025,226.9725814000012,226.9725814000012,228.0232864000027,r,1.0,1.0360150999986215,,228.02371480000147,228.03900160000197,229.0390614000025,229.0229386000028,,,,,,,,,,,,,,,,,,,,sub-053,1.0,stroop_test,59.99257291966453,
,,,,,,,,,,,,,,,,,,,,,,,,,,,,,,,,,,,,,,,,,,,,,,,,,,,,,,,,,,,,,,,,,,,,,,,,229.023016500003,229.0390614000025,229.0390614000025,236.27216430000044,space,7.226254599998356,,,,,,,,,,,,,,sub-053,1.0,stroop_test,59.99257291966453,
,,,,,,,,blau,red,r,0.0,,,,,,,,,0.0,0.0,0.0,4.0,236.28745090000305,,,,,,,,,,,,,,,,,236.2777410000017,237.48758670000095,238.2875010000025,238.2711697000013,,,,,,,,,,,,,,,,,,,,,,,,,,,,,,,,,,,238.2711829,238.2875010000025,238.2875010000025,239.60579710000093,r,1.0,1.316665299997112,,,,,,sub-053,1.0,stroop_test,59.99257291966453,
,,,,,,,,gelb,red,r,0.0,,,,,,,,,0.0,1.0,1.0,8.0,239.6207686000016,,,,,,,,,,,,,,,,,239.60740160000205,239.9703544000004,240.77067410000015,240.7539398000008,,,,,,,,,,,,,,,,,,,,,,,,,,,,,,,,,,,240.75396040000123,240.77067410000015,240.77067410000015,241.88803180000104,r,1.0,1.104798899999878,,,,,,sub-053,1.0,stroop_test,59.99257291966453,
,,,,,,,,blau,blue,b,1.0,,,,,,,,,0.0,2.0,2.0,6.0,241.9034184000011,,,,,,,,,,,,,,,,,241.88911569999985,242.25351960000265,243.0534537000021,243.0380510000032,,,,,,,,,,,,,,,,,,,,,,,,,,,,,,,,,,,243.0380718000015,243.0534537000021,243.0534537000021,245.0704590000023,b,1.0,2.0083326999993005,,,,,,sub-053,1.0,stroop_test,59.99257291966453,
,,,,,,,,rot,blue,b,0.0,,,,,,,,,0.0,3.0,3.0,2.0,245.08627720000004,,,,,,,,,,,,,,,,,245.07121110000296,245.18642510000063,245.9862917999999,245.97024919999967,,,,,,,,,,,,,,,,,,,,,,,,,,,,,,,,,,,245.97027570000137,245.9862917999999,245.9862917999999,246.85363900000084,b,1.0,0.8613693000006606,,,,,,sub-053,1.0,stroop_test,59.99257291966453,
,,,,,,,,blau,blue,b,1.0,,,,,,,,,0.0,4.0,4.0,5.0,246.86921930000244,,,,,,,,,,,,,,,,,246.85445020000043,247.2191902000013,248.01907270000083,248.0032796000014,,,,,,,,,,,,,,,,,,,,,,,,,,,,,,,,,,,248.00330200000096,248.01907270000083,248.01907270000083,249.0366012000013,b,1.0,1.0052909999976691,,,,,,sub-053,1.0,stroop_test,59.99257291966453,
,,,,,,,,gelb,yellow,g,1.0,,,,,,,,,0.0,5.0,5.0,10.0,249.05223860000115,,,,,,,,,,,,,,,,,249.03740860000107,249.152385100002,249.95224810000215,249.9360546000025,,,,,,,,,,,,,,,,,,,,,,,,,,,,,,,,,,,249.9360694999996,249.95224810000215,249.95224810000215,251.21932000000012,g,1.0,1.257046500002616,,,,,,sub-053,1.0,stroop_test,59.99257291966453,
,,,,,,,,rot,red,r,1.0,,,,,,,,,0.0,6.0,6.0,0.0,251.23524230000112,,,,,,,,,,,,,,,,,251.21986950000064,252.0353673000027,252.8353551,252.81910580000115,,,,,,,,,,,,,,,,,,,,,,,,,,,,,,,,,,,252.8191358000004,252.8353551,252.8353551,253.65280600000187,r,1.0,0.8129569000011543,,,,,,sub-053,1.0,stroop_test,59.99257291966453,
,,,,,,,,gelb,yellow,g,1.0,,,,,,,,,0.0,7.0,7.0,11.0,253.66827600000036,,,,,,,,,,,,,,,,,253.65362749999983,253.7683685000011,254.5681394000021,254.55201170000143,,,,,,,,,,,,,,,,,,,,,,,,,,,,,,,,,,,254.55203220000112,254.5681394000021,254.5681394000021,255.7023232000029,g,1.0,1.1255810000002384,,,,,,sub-053,1.0,stroop_test,59.99257291966453,
,,,,,,,,rot,red,r,1.0,,,,,,,,,0.0,8.0,8.0,1.0,255.71796050000196,,,,,,,,,,,,,,,,,255.7031405000016,255.81783850000284,256.61783320000177,256.6016930000005,,,,,,,,,,,,,,,,,,,,,,,,,,,,,,,,,,,256.6017124000027,256.61783320000177,256.61783320000177,257.4853750000002,r,1.0,0.8626187999980175,,,,,,sub-053,1.0,stroop_test,59.99257291966453,
,,,,,,,,blau,yellow,g,0.0,,,,,,,,,0.0,9.0,9.0,7.0,257.5009710000013,,,,,,,,,,,,,,,,,257.48631540000133,257.85131510000065,258.65083610000147,258.6348026000014,,,,,,,,,,,,,,,,,,,,,,,,,,,,,,,,,,,258.63482959999965,258.65083610000147,258.65083610000147,259.63507970000137,b,0.0,0.9687980999988212,,,,,,sub-053,1.0,stroop_test,59.99257291966453,
,,,,,,,,rot,yellow,g,0.0,,,,,,,,,0.0,10.0,10.0,3.0,259.65054950000194,,,,,,,,,,,,,,,,,259.6360839000008,260.4505078000002,261.2506831999999,261.2344004000006,,,,,,,,,,,,,,,,,,,,,,,,,,,,,,,,,,,261.2344223,261.2506831999999,261.2506831999999,265.1170464999996,g,1.0,3.860402099999192,,,,,,sub-053,1.0,stroop_test,59.99257291966453,
,,,,,,,,gelb,blue,b,0.0,,,,,,,,,0.0,11.0,11.0,9.0,265.1331481000016,,,,,,,,,,,,,,,,,265.1176106000021,266.3166603000027,267.11603930000274,267.1001090000027,,,,,,,,,,,,,,,,,,,,,,,,,,,,,,,,,,,267.1001362999996,267.11603930000274,267.11603930000274,268.6171011000006,b,1.0,1.4892242999994778,,,,,,sub-053,1.0,stroop_test,59.99257291966453,
,,,,,,,,blau,yellow,g,0.0,,,,,,,,,1.0,0.0,12.0,7.0,268.6324822000024,,,,,,,,,,,,,,,,,268.6180815000007,269.4324693000017,270.23255600000266,270.2164535000011,,,,,,,,,,,,,,,,,,,,,,,,,,,,,,,,,,,270.2164831000009,270.23255600000266,270.23255600000266,273.01645120000103,g,1.0,2.7710201000008965,,,,,,sub-053,1.0,stroop_test,59.99257291966453,
,,,,,,,,rot,red,r,1.0,,,,,,,,,1.0,1.0,13.0,0.0,273.0318240000015,,,,,,,,,,,,,,,,,273.01743160000115,274.23182559999987,275.0314386000028,275.0155494000028,,,,,,,,,,,,,,,,,,,,,,,,,,,,,,,,,,,275.0155758000001,275.0314386000028,275.0314386000028,276.3320827000025,r,1.0,1.293213500001002,,,,,,sub-053,1.0,stroop_test,59.99257291966453,
,,,,,,,,gelb,yellow,g,1.0,,,,,,,,,1.0,2.0,14.0,11.0,276.3480012,,,,,,,,,,,,,,,,,276.3326221999996,277.14789550000205,277.94779460000063,277.93185890000314,,,,,,,,,,,,,,,,,,,,,,,,,,,,,,,,,,,277.9318861000029,277.94779460000063,277.94779460000063,279.13194080000176,g,1.0,1.1703736999988903,,,,,,sub-053,1.0,stroop_test,59.99257291966453,
,,,,,,,,rot,yellow,g,0.0,,,,,,,,,1.0,3.0,15.0,3.0,279.1474002000032,,,,,,,,,,,,,,,,,279.13277310000194,280.34724030000143,281.1472565000004,281.13113870000234,,,,,,,,,,,,,,,,,,,,,,,,,,,,,,,,,,,281.1311573000021,281.1472565000004,281.1472565000004,282.2647176000028,g,1.0,1.1086379999978817,,,,,,sub-053,1.0,stroop_test,59.99257291966453,
,,,,,,,,gelb,blue,b,0.0,,,,,,,,,1.0,4.0,16.0,9.0,282.2805126000021,,,,,,,,,,,,,,,,,282.2654196000003,282.3803181000003,283.18012610000005,283.16426649999994,,,,,,,,,,,,,,,,,,,,,,,,,,,,,,,,,,,283.1642939000012,283.18012610000005,283.18012610000005,284.49771340000007,b,1.0,1.3074534999977914,,,,,,sub-053,1.0,stroop_test,59.99257291966453,
,,,,,,,,gelb,red,r,0.0,,,,,,,,,1.0,5.0,17.0,8.0,284.5134056999996,,,,,,,,,,,,,,,,,284.4986411000027,284.6133654000005,285.4131935000005,285.3972393000004,,,,,,,,,,,,,,,,,,,,,,,,,,,,,,,,,,,285.3972648000017,285.4131935000005,285.4131935000005,286.6638817000021,r,1.0,1.2410706000009668,,,,,,sub-053,1.0,stroop_test,59.99257291966453,
,,,,,,,,blau,blue,b,1.0,,,,,,,,,1.0,6.0,18.0,6.0,286.67965240000194,,,,,,,,,,,,,,,,,286.6646087000008,287.479570800002,288.2794166000021,288.2632810000032,,,,,,,,,,,,,,,,,,,,,,,,,,,,,,,,,,,288.2633009000019,288.2794166000021,288.2794166000021,289.44700840000223,b,1.0,1.1516980999986115,,,,,,sub-053,1.0,stroop_test,59.99257291966453,
,,,,,,,,blau,blue,b,1.0,,,,,,,,,1.0,7.0,19.0,5.0,289.46252260000256,,,,,,,,,,,,,,,,,289.4479953000009,290.6627788000005,291.4623817000029,291.4466508000005,,,,,,,,,,,,,,,,,,,,,,,,,,,,,,,,,,,291.446686700001,291.4623817000029,291.4623817000029,292.34665230000246,b,1.0,0.8795910000008007,,,,,,sub-053,1.0,stroop_test,59.99257291966453,
,,,,,,,,rot,blue,b,0.0,,,,,,,,,1.0,8.0,20.0,2.0,292.3620998000006,,,,,,,,,,,,,,,,,292.34763990000283,292.7119765000025,293.5119474000021,293.4959899000023,,,,,,,,,,,,,,,,,,,,,,,,,,,,,,,,,,,293.4960159000002,293.5119474000021,293.5119474000021,295.09608690000096,b,1.0,1.5715018999981112,,,,,,sub-053,1.0,stroop_test,59.99257291966453,
,,,,,,,,blau,red,r,0.0,,,,,,,,,1.0,9.0,21.0,4.0,295.1116882000024,,,,,,,,,,,,,,,,,295.0970757000032,295.4616720000013,296.26151709999976,296.24544810000225,,,,,,,,,,,,,,,,,,,,,,,,,,,,,,,,,,,296.2454749999997,296.26151709999976,296.26151709999976,297.3125610999996,r,1.0,1.0337650000001304,,,,,,sub-053,1.0,stroop_test,59.99257291966453,
,,,,,,,,rot,red,r,1.0,,,,,,,,,1.0,10.0,22.0,1.0,297.3279892999999,,,,,,,,,,,,,,,,,297.3135566000019,298.5277825000012,299.3276468000004,299.3114358000021,,,,,,,,,,,,,,,,,,,,,,,,,,,,,,,,,,,299.3114564000025,299.3276468000004,299.3276468000004,300.29506030000266,r,1.0,0.9587495999985548,,,,,,sub-053,1.0,stroop_test,59.99257291966453,
,,,,,,,,gelb,yellow,g,1.0,,,,,,,,,1.0,11.0,23.0,10.0,300.3108033000026,,,,,,,,,,,,,,,,,300.2957798999996,301.11076239999966,301.91057560000263,301.8946394000013,,,,,,,,,,,,,,,,,,,,,,,,,,,,,,,,,,,301.8946655,301.91057560000263,301.91057560000263,303.9114201000011,g,1.0,1.987257700002374,,,,,,sub-053,1.0,stroop_test,59.99257291966453,
,,,,,,,,gelb,yellow,g,1.0,,,,,,,,,2.0,0.0,24.0,11.0,303.92680310000287,,,,,,,,,,,,,,,,,303.91241600000285,304.7268805000021,305.52678180000294,305.51081310000154,,,,,,,,,,,,,,,,,,,,,,,,,,,,,,,,,,,305.51084009999977,305.52678180000294,305.52678180000294,306.3941768000004,g,1.0,0.8515652000023692,,,,,,sub-053,1.0,stroop_test,59.99257291966453,
,,,,,,,,gelb,blue,b,0.0,,,,,,,,,2.0,1.0,25.0,9.0,306.40980160000254,,,,,,,,,,,,,,,,,306.3948962000032,307.6096498000006,308.4095597000014,308.3934748000029,,,,,,,,,,,,,,,,,,,,,,,,,,,,,,,,,,,308.39349700000093,308.4095597000014,308.4095597000014,309.593330300002,b,1.0,1.1759812999989665,,,,,,sub-053,1.0,stroop_test,59.99257291966453,
,,,,,,,,blau,blue,b,1.0,,,,,,,,,2.0,2.0,26.0,6.0,309.60941730000195,,,,,,,,,,,,,,,,,309.59387340000103,309.94275010000274,310.74235560000307,310.72650440000143,,,,,,,,,,,,,,,,,,,,,,,,,,,,,,,,,,,310.7265189000027,310.74235560000307,310.74235560000307,311.81050200000027,b,1.0,1.0669759000011254,,,,,,sub-053,1.0,stroop_test,59.99257291966453,
,,,,,,,,rot,yellow,g,0.0,,,,,,,,,2.0,3.0,27.0,3.0,311.825685900003,,,,,,,,,,,,,,,,,311.81104330000016,313.0255412000006,313.8254029000018,313.80925090000164,,,,,,,,,,,,,,,,,,,,,,,,,,,,,,,,,,,313.8092733000012,313.8254029000018,313.8254029000018,314.7762631000005,r,0.0,0.9495783999991544,,,,,,sub-053,1.0,stroop_test,59.99257291966453,
,,,,,,,,blau,red,r,0.0,,,,,,,,,2.0,4.0,28.0,4.0,314.7916983000032,,,,,,,,,,,,,,,,,314.7770805,315.5918318000004,316.3916313000009,316.37625590000243,,,,,,,,,,,,,,,,,,,,,,,,,,,,,,,,,,,316.37629240000024,316.3916313000009,316.3916313000009,318.5920294999996,r,1.0,2.1981733000029635,,,,,,sub-053,1.0,stroop_test,59.99257291966453,
,,,,,,,,rot,red,r,1.0,,,,,,,,,2.0,5.0,29.0,1.0,318.60788070000126,,,,,,,,,,,,,,,,,318.592747900002,318.95787330000167,319.75763430000006,319.7416967999998,,,,,,,,,,,,,,,,,,,,,,,,,,,,,,,,,,,319.74171910000223,319.75763430000006,319.75763430000006,320.7922592000032,r,1.0,1.0264631000027291,,,,,,sub-053,1.0,stroop_test,59.99257291966453,
,,,,,,,,blau,yellow,g,0.0,,,,,,,,,2.0,6.0,30.0,7.0,320.8076063000008,,,,,,,,,,,,,,,,,320.793295200001,321.1574940000028,321.95756430000256,321.94154530000014,,,,,,,,,,,,,,,,,,,,,,,,,,,,,,,,,,,321.941573600001,321.95756430000256,321.95756430000256,323.2914376000008,g,1.0,1.323995200000354,,,,,,sub-053,1.0,stroop_test,59.99257291966453,
,,,,,,,,rot,blue,b,0.0,,,,,,,,,2.0,7.0,31.0,2.0,323.30713670000114,,,,,,,,,,,,,,,,,323.29225320000114,323.40710970000146,324.2070311000025,324.19090490000235,,,,,,,,,,,,,,,,,,,,,,,,,,,,,,,,,,,324.19092880000244,324.2070311000025,324.2070311000025,326.2078130000009,b,1.0,1.9893308999999133,,,,,,sub-053,1.0,stroop_test,59.99257291966453,
,,,,,,,,gelb,red,r,0.0,,,,,,,,,2.0,8.0,32.0,8.0,326.2233335000019,,,,,,,,,,,,,,,,,326.2087949000015,326.5734809000023,327.3732145000031,327.3572478000024,,,,,,,,,,,,,,,,,,,,,,,,,,,,,,,,,,,327.35727490000136,327.3732145000031,327.3732145000031,329.05754770000203,r,1.0,1.6724475000009988,,,,,,sub-053,1.0,stroop_test,59.99257291966453,
,,,,,,,,gelb,yellow,g,1.0,,,,,,,,,2.0,9.0,33.0,10.0,329.0728307999998,,,,,,,,,,,,,,,,,329.0584938000029,330.2728276000016,331.07256960000086,331.0570718000017,,,,,,,,,,,,,,,,,,,,,,,,,,,,,,,,,,,331.0571040000032,331.07256960000086,331.07256960000086,332.1735851000012,g,1.0,1.091037199999846,,,,,,sub-053,1.0,stroop_test,59.99257291966453,
,,,,,,,,rot,red,r,1.0,,,,,,,,,2.0,10.0,34.0,0.0,332.18908870000087,,,,,,,,,,,,,,,,,332.17457769999965,333.3889863000004,334.1889102000023,334.1729610000002,,,,,,,,,,,,,,,,,,,,,,,,,,,,,,,,,,,334.1729891000032,334.1889102000023,334.1889102000023,335.30635670000265,r,1.0,1.1049930999979551,,,,,,sub-053,1.0,stroop_test,59.99257291966453,
,,,,,,,,blau,blue,b,1.0,,,,,,,,,2.0,11.0,35.0,5.0,335.32183989999976,,,,,,,,,,,,,,,,,335.30735130000176,335.4219301000012,336.2218317000006,336.2056279000026,,,,,,,,,,,,,,,,,,,,,,,,,,,,,,,,,,,336.2056479000021,336.2218317000006,336.2218317000006,338.905692700002,b,1.0,2.671887299999071,,,,,,sub-053,1.0,stroop_test,59.99257291966453,
,,,,,,,,blau,blue,b,1.0,,,,,,,,,3.0,0.0,36.0,5.0,338.92120980000254,,,,,,,,,,,,,,,,,338.9066812000019,339.7212537000014,340.5210631000009,340.50496750000093,,,,,,,,,,,,,,,,,,,,,,,,,,,,,,,,,,,340.50498789999983,340.5210631000009,340.5210631000009,341.1383186000021,b,1.0,0.6070669999971869,,,,,,sub-053,1.0,stroop_test,59.99257291966453,
,,,,,,,,blau,yellow,g,0.0,,,,,,,,,3.0,1.0,37.0,7.0,341.1542918000014,,,,,,,,,,,,,,,,,341.13896730000124,341.50429319999967,342.3042574000028,342.2882516000027,,,,,,,,,,,,,,,,,,,,,,,,,,,,,,,,,,,342.2882778000021,342.3042574000028,342.3042574000028,343.6558397000008,g,1.0,1.3499028000005635,,,,,,sub-053,1.0,stroop_test,59.99257291966453,
,,,,,,,,rot,yellow,g,0.0,,,,,,,,,3.0,2.0,38.0,3.0,343.67045390000203,,,,,,,,,,,,,,,,,343.6568025000015,344.8703112000003,345.670188600001,345.6543335000024,,,,,,,,,,,,,,,,,,,,,,,,,,,,,,,,,,,345.65436070000214,345.670188600001,345.670188600001,346.3716928000031,g,1.0,0.6978156999975909,,,,,,sub-053,1.0,stroop_test,59.99257291966453,
,,,,,,,,rot,red,r,1.0,,,,,,,,,3.0,3.0,39.0,1.0,346.38699890000134,,,,,,,,,,,,,,,,,346.3728970000011,346.48700950000057,347.2865724000003,347.2708292000025,,,,,,,,,,,,,,,,,,,,,,,,,,,,,,,,,,,347.2708616000018,347.2865724000003,347.2865724000003,347.971240400002,r,1.0,0.6742344000012963,,,,,,sub-053,1.0,stroop_test,59.99257291966453,
,,,,,,,,gelb,red,r,0.0,,,,,,,,,3.0,4.0,40.0,8.0,347.986637500002,,,,,,,,,,,,,,,,,347.9723942000019,349.1864607999996,349.9864430000016,349.970471800003,,,,,,,,,,,,,,,,,,,,,,,,,,,,,,,,,,,349.97050330000275,349.9864430000016,349.9864430000016,350.80378650000057,r,1.0,0.8012975999990886,,,,,,sub-053,1.0,stroop_test,59.99257291966453,
,,,,,,,,rot,red,r,1.0,,,,,,,,,3.0,5.0,41.0,0.0,350.8193045000007,,,,,,,,,,,,,,,,,350.8047858000027,351.6193325000022,352.4192064000017,352.4031313000014,,,,,,,,,,,,,,,,,,,,,,,,,,,,,,,,,,,352.4031582000025,352.4192064000017,352.4192064000017,353.1698147999996,r,1.0,0.7387715000004391,,,,,,sub-053,1.0,stroop_test,59.99257291966453,
,,,,,,,,gelb,yellow,g,1.0,,,,,,,,,3.0,6.0,42.0,11.0,353.18570610000097,,,,,,,,,,,,,,,,,353.1703589000026,353.53569290000087,354.335704000001,354.3195480000031,,,,,,,,,,,,,,,,,,,,,,,,,,,,,,,,,,,354.3195695000031,354.335704000001,354.335704000001,354.9530991000029,g,1.0,0.6069410999989486,,,,,,sub-053,1.0,stroop_test,59.99257291966453,
,,,,,,,,blau,red,r,0.0,,,,,,,,,3.0,7.0,43.0,4.0,354.96861210000134,,,,,,,,,,,,,,,,,354.9539074000022,355.0685513999997,355.8685863999999,355.85246140000163,,,,,,,,,,,,,,,,,,,,,,,,,,,,,,,,,,,355.8524811999996,355.8685863999999,355.8685863999999,356.8029241000004,r,1.0,0.923860999999306,,,,,,sub-053,1.0,stroop_test,59.99257291966453,
,,,,,,,,gelb,blue,b,0.0,,,,,,,,,3.0,8.0,44.0,9.0,356.81860940000115,,,,,,,,,,,,,,,,,356.8038809000027,356.918492300003,357.7182601000022,357.7021291000019,,,,,,,,,,,,,,,,,,,,,,,,,,,,,,,,,,,357.70214540000234,357.7182601000022,357.7182601000022,358.61928850000186,b,1.0,0.8915727999992669,,,,,,sub-053,1.0,stroop_test,59.99257291966453,
,,,,,,,,blau,blue,b,1.0,,,,,,,,,3.0,9.0,45.0,6.0,358.63490450000245,,,,,,,,,,,,,,,,,358.6203001000031,358.98477240000284,359.78461080000125,359.7686630999997,,,,,,,,,,,,,,,,,,,,,,,,,,,,,,,,,,,359.7686887000018,359.78461080000125,359.78461080000125,360.41897679999965,b,1.0,0.6243322999980592,,,,,,sub-053,1.0,stroop_test,59.99257291966453,
,,,,,,,,gelb,yellow,g,1.0,,,,,,,,,3.0,10.0,46.0,10.0,360.4347825000005,,,,,,,,,,,,,,,,,360.4199028000003,361.2345306999996,362.0343137000018,362.0185151000005,,,,,,,,,,,,,,,,,,,,,,,,,,,,,,,,,,,362.0185454000021,362.0343137000018,362.0343137000018,362.7520648999998,g,1.0,0.7113261000013154,,,,,,sub-053,1.0,stroop_test,59.99257291966453,
,,,,,,,,rot,blue,b,0.0,,,,,,,,,3.0,11.0,47.0,2.0,362.7674098000025,,,,,,,,,,,,,,,,,362.7530626000007,363.9672096000031,364.76731660000223,364.7512764000021,,,,,,,,,,,,,,,,,,,,,,,,,,,,,,,,,,,364.7513032000024,364.76731660000223,364.76731660000223,365.7182433000016,b,1.0,0.9370718999998644,,,,,,sub-053,1.0,stroop_test,59.99257291966453,
,,,,,,,,blau,blue,b,1.0,,,,,,,,,4.0,0.0,48.0,5.0,365.73378460000094,,,,,,,,,,,,,,,,,365.7192518000011,366.0837205000025,366.88358810000136,366.8674494000006,,,,,,,,,,,,,,,,,,,,,,,,,,,,,,,,,,,366.8674709000006,366.88358810000136,366.88358810000136,367.4843432000016,b,1.0,0.597831999999471,,,,,,sub-053,1.0,stroop_test,59.99257291966453,
,,,,,,,,gelb,yellow,g,1.0,,,,,,,,,4.0,1.0,49.0,11.0,367.500016500002,,,,,,,,,,,,,,,,,367.4851476000004,368.6999654000029,369.4997438000028,369.48391470000206,,,,,,,,,,,,,,,,,,,,,,,,,,,,,,,,,,,369.48393990000113,369.4997438000028,369.4997438000028,370.1508907999996,g,1.0,0.6405588000015996,,,,,,sub-053,1.0,stroop_test,59.99257291966453,
,,,,,,,,blau,red,r,0.0,,,,,,,,,4.0,2.0,50.0,4.0,370.1663595000027,,,,,,,,,,,,,,,,,370.1518778999998,371.3663116000025,372.1659903,372.1499753999997,,,,,,,,,,,,,,,,,,,,,,,,,,,,,,,,,,,372.1500038000013,372.1659903,372.1659903,372.8838911000021,r,1.0,0.7107625999997254,,,,,,sub-053,1.0,stroop_test,59.99257291966453,
,,,,,,,,gelb,red,r,0.0,,,,,,,,,4.0,3.0,51.0,8.0,372.8992532000011,,,,,,,,,,,,,,,,,372.88490230000025,373.6991987000001,374.4991571999999,374.48331730000064,,,,,,,,,,,,,,,,,,,,,,,,,,,,,,,,,,,374.4833447000019,374.4991571999999,374.4991571999999,375.56679650000297,r,1.0,1.0526846000029764,,,,,,sub-053,1.0,stroop_test,59.99257291966453,
,,,,,,,,gelb,blue,b,0.0,,,,,,,,,4.0,4.0,52.0,9.0,375.5821584000005,,,,,,,,,,,,,,,,,375.5677922000032,376.7818109,377.5817800000005,377.5659656000025,,,,,,,,,,,,,,,,,,,,,,,,,,,,,,,,,,,377.56599350000033,377.5817800000005,377.5817800000005,378.4663097000012,b,1.0,0.8773016999984975,,,,,,sub-053,1.0,stroop_test,59.99257291966453,
,,,,,,,,blau,blue,b,1.0,,,,,,,,,4.0,5.0,53.0,6.0,378.48183170000266,,,,,,,,,,,,,,,,,378.46734339999966,379.6813863000025,380.4812952000029,380.46525180000026,,,,,,,,,,,,,,,,,,,,,,,,,,,,,,,,,,,380.4652741000027,380.4812952000029,380.4812952000029,380.8992431000006,b,1.0,0.4123021000013978,,,,,,sub-053,1.0,stroop_test,59.99257291966453,
,,,,,,,,blau,yellow,g,0.0,,,,,,,,,4.0,6.0,54.0,7.0,380.91453380000166,,,,,,,,,,,,,,,,,380.9002203000018,381.0146582000016,381.8146539000009,381.7984905000012,,,,,,,,,,,,,,,,,,,,,,,,,,,,,,,,,,,381.7985124000006,381.8146539000009,381.8146539000009,383.265799300003,g,1.0,1.4497338000001037,,,,,,sub-053,1.0,stroop_test,59.99257291966453,
,,,,,,,,gelb,yellow,g,1.0,,,,,,,,,4.0,7.0,55.0,10.0,383.2809328000003,,,,,,,,,,,,,,,,,383.26659380000274,384.48072570000295,385.2807025000002,385.26502400000027,,,,,,,,,,,,,,,,,,,,,,,,,,,,,,,,,,,385.2650528000013,385.2807025000002,385.2807025000002,386.9146643000022,g,1.0,1.6223958000009588,,,,,,sub-053,1.0,stroop_test,59.99257291966453,
,,,,,,,,rot,blue,b,0.0,,,,,,,,,4.0,8.0,56.0,2.0,386.9303909000009,,,,,,,,,,,,,,,,,386.9154855000015,387.0303027000009,387.8300809000029,387.8144333000018,,,,,,,,,,,,,,,,,,,,,,,,,,,,,,,,,,,387.8144611999997,387.8300809000029,387.8300809000029,389.8309884000009,b,1.0,1.9866050999989968,,,,,,sub-053,1.0,stroop_test,59.99257291966453,
,,,,,,,,rot,yellow,g,0.0,,,,,,,,,4.0,9.0,57.0,3.0,389.8464801000009,,,,,,,,,,,,,,,,,389.8319684000016,390.64636729999984,391.4462501000016,391.4301701000004,,,,,,,,,,,,,,,,,,,,,,,,,,,,,,,,,,,391.4301919999998,391.4462501000016,391.4462501000016,392.33034340000086,g,1.0,0.876521900001535,,,,,,sub-053,1.0,stroop_test,59.99257291966453,
,,,,,,,,rot,red,r,1.0,,,,,,,,,4.0,10.0,58.0,0.0,392.34594690000085,,,,,,,,,,,,,,,,,392.3310476000006,393.1459380000015,393.9459301000024,393.9297952000016,,,,,,,,,,,,,,,,,,,,,,,,,,,,,,,,,,,393.9298170000002,393.9459301000024,393.9459301000024,394.73012480000034,r,1.0,0.7784573000026285,,,,,,sub-053,1.0,stroop_test,59.99257291966453,
,,,,,,,,rot,red,r,1.0,,,,,,,,,4.0,11.0,59.0,1.0,394.74568400000135,,,,,,,,,,,,,,,,,394.7309440000026,395.9454566000022,396.74539580000055,396.7294344000002,,,,,,,,,,,,,,,,,,,,,,,,,,,,,,,,,,,396.72945940000136,396.74539580000055,396.74539580000055,397.7959458000005,r,1.0,1.0481097000010775,,,,,,sub-053,1.0,stroop_test,59.99257291966453,
,,,,,,,,blau,red,r,0.0,,,,,,,,,5.0,0.0,60.0,4.0,397.8119602000006,,,,,,,,,,,,,,,,,397.7964802000024,398.1452898999996,398.9450634000023,398.9287753999997,,,,,,,,,,,,,,,,,,,,,,,,,,,,,,,,,,,398.92879190000167,398.9450634000023,398.9450634000023,399.845579300003,r,1.0,0.8980971999990288,,,,,,sub-053,1.0,stroop_test,59.99257291966453,
,,,,,,,,gelb,blue,b,0.0,,,,,,,,,5.0,1.0,61.0,9.0,399.86155979999967,,,,,,,,,,,,,,,,,399.8461149000032,400.2115457,401.0113405000011,400.99548100000175,,,,,,,,,,,,,,,,,,,,,,,,,,,,,,,,,,,400.995508,401.0113405000011,401.0113405000011,401.828598600001,b,1.0,0.8055220999995072,,,,,,sub-053,1.0,stroop_test,59.99257291966453,
,,,,,,,,rot,yellow,g,0.0,,,,,,,,,5.0,2.0,62.0,3.0,401.8446833000016,,,,,,,,,,,,,,,,,401.8290604000031,402.64444110000113,403.44419990000097,403.4283376000021,,,,,,,,,,,,,,,,,,,,,,,,,,,,,,,,,,,403.42836250000255,403.44419990000097,403.44419990000097,404.1784453,r,0.0,0.7263373000023421,,,,,,sub-053,1.0,stroop_test,59.99257291966453,
,,,,,,,,gelb,red,r,0.0,,,,,,,,,5.0,3.0,63.0,8.0,404.1940864999997,,,,,,,,,,,,,,,,,404.1792515000016,404.9941016000012,405.7939932000008,405.7779939000029,,,,,,,,,,,,,,,,,,,,,,,,,,,,,,,,,,,405.7780190000012,405.7939932000008,405.7939932000008,406.9111515000004,r,1.0,1.1010265999975672,,,,,,sub-053,1.0,stroop_test,59.99257291966453,
,,,,,,,,blau,yellow,g,0.0,,,,,,,,,5.0,4.0,64.0,7.0,406.92704720000256,,,,,,,,,,,,,,,,,406.9117006000015,407.27709740000137,408.0769222000017,408.06077580000056,,,,,,,,,,,,,,,,,,,,,,,,,,,,,,,,,,,408.0607952000028,408.0769222000017,408.0769222000017,409.3941803000016,g,1.0,1.3004151999994065,,,,,,sub-053,1.0,stroop_test,59.99257291966453,
,,,,,,,,rot,red,r,1.0,,,,,,,,,5.0,5.0,65.0,1.0,409.41000650000205,,,,,,,,,,,,,,,,,409.3949012000012,410.2099515000009,411.0098433000021,410.9937505000016,,,,,,,,,,,,,,,,,,,,,,,,,,,,,,,,,,,410.9937766000003,411.0098433000021,411.0098433000021,411.8608451,r,1.0,0.8496317000026465,,,,,,sub-053,1.0,stroop_test,59.99257291966453,
,,,,,,,,gelb,yellow,g,1.0,,,,,,,,,5.0,6.0,66.0,11.0,411.8762958000007,,,,,,,,,,,,,,,,,411.8615501000022,412.6761621000005,413.476064100003,413.4602081000012,,,,,,,,,,,,,,,,,,,,,,,,,,,,,,,,,,,413.46023440000135,413.476064100003,413.476064100003,414.3105217000011,g,1.0,0.8192639999979292,,,,,,sub-053,1.0,stroop_test,59.99257291966453,
,,,,,,,,rot,red,r,1.0,,,,,,,,,5.0,7.0,67.0,0.0,414.3260523000026,,,,,,,,,,,,,,,,,414.3114502999997,415.5256913000012,416.3259952000008,416.30992640000113,,,,,,,,,,,,,,,,,,,,,,,,,,,,,,,,,,,416.30996270000105,416.3259952000008,416.3259952000008,417.0267593999997,r,1.0,0.6915754000001471,,,,,,sub-053,1.0,stroop_test,59.99257291966453,
,,,,,,,,gelb,yellow,g,1.0,,,,,,,,,5.0,8.0,68.0,10.0,417.0422607,,,,,,,,,,,,,,,,,417.02774580000187,417.39208119999967,418.19183110000085,418.1756757000003,,,,,,,,,,,,,,,,,,,,,,,,,,,,,,,,,,,418.1756913999998,418.19183110000085,418.19183110000085,419.2257642000004,g,1.0,1.024176200000511,,,,,,sub-053,1.0,stroop_test,59.99257291966453,
,,,,,,,,blau,blue,b,1.0,,,,,,,,,5.0,9.0,69.0,5.0,419.2416814999997,,,,,,,,,,,,,,,,,419.22630670000217,420.4416020999997,421.2414045000005,421.2252425000006,,,,,,,,,,,,,,,,,,,,,,,,,,,,,,,,,,,421.2252576000028,421.2414045000005,421.2414045000005,421.7423599000031,b,1.0,0.4936147999978857,,,,,,sub-053,1.0,stroop_test,59.99257291966453,
,,,,,,,,blau,blue,b,1.0,,,,,,,,,5.0,10.0,70.0,6.0,421.7580021000031,,,,,,,,,,,,,,,,,421.7431654000029,422.9579053000016,423.7576706,423.7416545000015,,,,,,,,,,,,,,,,,,,,,,,,,,,,,,,,,,,423.74167640000087,423.7576706,423.7576706,424.3917833000014,b,1.0,0.6245448999979999,,,,,,sub-053,1.0,stroop_test,59.99257291966453,
,,,,,,,,rot,blue,b,0.0,,,,,,,,,5.0,11.0,71.0,2.0,424.4076065000008,,,,,,,,,,,,,,,,,424.39232360000096,425.2074614000012,426.0074152000016,425.99141390000295,,,,,,,,,,,,,,,,,,,,,,,,,,,,,,,,,,,425.9914387999997,426.0074152000016,426.0074152000016,426.5750211000013,b,1.0,0.5527744999999413,,,,,,sub-053,1.0,stroop_test,59.99257291966453,
,,,,,,,,rot,red,r,1.0,,,,,,,,,6.0,0.0,72.0,0.0,426.5906313000014,,,,,,,,,,,,,,,,,426.5758246000005,427.3904999000006,428.19036419999975,428.1742937000017,,,,,,,,,,,,,,,,,,,,,,,,,,,,,,,,,,,428.17431620000207,428.19036419999975,428.19036419999975,429.5575366000012,r,1.0,1.3557571999990614,,,,,,sub-053,1.0,stroop_test,59.99257291966453,
,,,,,,,,blau,blue,b,1.0,,,,,,,,,6.0,1.0,73.0,5.0,429.5733657000019,,,,,,,,,,,,,,,,,429.5581894999996,429.9235014000005,430.7233675999996,430.7071491000024,,,,,,,,,,,,,,,,,,,,,,,,,,,,,,,,,,,430.70717800000057,430.7233675999996,430.7233675999996,432.1574034000005,b,1.0,1.4241134000003512,,,,,,sub-053,1.0,stroop_test,59.99257291966453,
,,,,,,,,rot,red,r,1.0,,,,,,,,,6.0,2.0,74.0,1.0,432.1729831000012,,,,,,,,,,,,,,,,,432.158387800002,432.9730625000011,433.772840200003,433.756895100003,,,,,,,,,,,,,,,,,,,,,,,,,,,,,,,,,,,433.7569221000013,433.772840200003,433.772840200003,434.8736564000028,r,1.0,1.0921172999987905,,,,,,sub-053,1.0,stroop_test,59.99257291966453,
,,,,,,,,blau,yellow,g,0.0,,,,,,,,,6.0,3.0,75.0,7.0,434.88928470000246,,,,,,,,,,,,,,,,,434.8743716000026,436.0891107000025,436.8889573000015,436.8730514000017,,,,,,,,,,,,,,,,,,,,,,,,,,,,,,,,,,,436.87307820000206,436.8889573000015,436.8889573000015,438.1233135000002,g,1.0,1.2252812999977325,,,,,,sub-053,1.0,stroop_test,59.99257291966453,
,,,,,,,,gelb,red,r,0.0,,,,,,,,,6.0,4.0,76.0,8.0,438.1389192000024,,,,,,,,,,,,,,,,,438.1241249000013,438.4887358000015,439.28861640000105,439.2725329000023,,,,,,,,,,,,,,,,,,,,,,,,,,,,,,,,,,,439.2725525000024,439.28861640000105,439.28861640000105,440.45588880000287,r,1.0,1.164329299997917,,,,,,sub-053,1.0,stroop_test,59.99257291966453,
,,,,,,,,rot,blue,b,0.0,,,,,,,,,6.0,5.0,77.0,2.0,440.4717363000018,,,,,,,,,,,,,,,,,440.4566054000025,441.27164210000046,442.0716689000001,442.05536380000194,,,,,,,,,,,,,,,,,,,,,,,,,,,,,,,,,,,442.055383400002,442.0716689000001,442.0716689000001,443.4389334000007,b,1.0,1.355786400003126,,,,,,sub-053,1.0,stroop_test,59.99257291966453,
,,,,,,,,gelb,yellow,g,1.0,,,,,,,,,6.0,6.0,78.0,10.0,443.45447350000177,,,,,,,,,,,,,,,,,443.439740400001,444.2545123000018,445.0544073000019,445.0381594000028,,,,,,,,,,,,,,,,,,,,,,,,,,,,,,,,,,,445.0381791,445.0544073000019,445.0544073000019,445.8552068000026,g,1.0,0.7846396999993885,,,,,,sub-053,1.0,stroop_test,59.99257291966453,
,,,,,,,,rot,yellow,g,0.0,,,,,,,,,6.0,7.0,79.0,3.0,445.8709593000021,,,,,,,,,,,,,,,,,445.8556901000011,445.9710135000023,446.7708047000015,446.7546285000026,,,,,,,,,,,,,,,,,,,,,,,,,,,,,,,,,,,446.75465410000106,446.7708047000015,446.7708047000015,447.8381412000017,g,1.0,1.0587818999993033,,,,,,sub-053,1.0,stroop_test,59.99257291966453,
,,,,,,,,blau,blue,b,1.0,,,,,,,,,6.0,8.0,80.0,6.0,447.8538843000024,,,,,,,,,,,,,,,,,447.8388666999999,447.9541141000009,448.7538988000015,448.7378136000007,,,,,,,,,,,,,,,,,,,,,,,,,,,,,,,,,,,448.7378392000028,448.7538988000015,448.7538988000015,449.3548798000011,b,1.0,0.5973575999996683,,,,,,sub-053,1.0,stroop_test,59.99257291966453,
,,,,,,,,blau,red,r,0.0,,,,,,,,,6.0,9.0,81.0,4.0,449.3702749000004,,,,,,,,,,,,,,,,,449.3558548000001,449.7202563999999,450.5203656000013,450.5042317000007,,,,,,,,,,,,,,,,,,,,,,,,,,,,,,,,,,,450.5042573000028,450.5203656000013,450.5203656000013,451.1376998000014,r,1.0,0.6031153000003542,,,,,,sub-053,1.0,stroop_test,59.99257291966453,
,,,,,,,,gelb,yellow,g,1.0,,,,,,,,,6.0,10.0,82.0,11.0,451.153213900001,,,,,,,,,,,,,,,,,451.1385083000023,451.2533414000027,452.0531633000028,452.0370644000032,,,,,,,,,,,,,,,,,,,,,,,,,,,,,,,,,,,452.0370865000005,452.0531633000028,452.0531633000028,452.92101120000007,g,1.0,0.8562560000027588,,,,,,sub-053,1.0,stroop_test,59.99257291966453,
,,,,,,,,gelb,blue,b,0.0,,,,,,,,,6.0,11.0,83.0,9.0,452.9363604999999,,,,,,,,,,,,,,,,,452.9220077999999,453.0364612000012,453.8363269000001,453.82023550000304,,,,,,,,,,,,,,,,,,,,,,,,,,,,,,,,,,,453.8202605000006,453.8363269000001,453.8363269000001,454.6372646000018,b,1.0,0.7942516999974032,,,,,,sub-053,1.0,stroop_test,59.99257291966453,
,,,,,,,,gelb,yellow,g,1.0,,,,,,,,,7.0,0.0,84.0,10.0,454.6528525000031,,,,,,,,,,,,,,,,,454.6379866000025,454.7527903000009,455.5525682000007,455.53661280000233,,,,,,,,,,,,,,,,,,,,,,,,,,,,,,,,,,,455.5366385000016,455.5525682000007,455.5525682000007,456.4370512000023,g,1.0,0.8818765000032727,,,,,,sub-053,1.0,stroop_test,59.99257291966453,
,,,,,,,,blau,blue,b,1.0,,,,,,,,,7.0,1.0,85.0,5.0,456.4525899,,,,,,,,,,,,,,,,,456.43803500000286,456.5524965000004,457.3523389000002,457.3364024000002,,,,,,,,,,,,,,,,,,,,,,,,,,,,,,,,,,,457.33642490000057,457.3523389000002,457.3523389000002,457.7868108000002,b,1.0,0.4245148999980301,,,,,,sub-053,1.0,stroop_test,59.99257291966453,
,,,,,,,,blau,red,r,0.0,,,,,,,,,7.0,2.0,86.0,4.0,457.8024143000002,,,,,,,,,,,,,,,,,457.7876314000023,459.00201500000185,459.8019896000005,459.7857957000015,,,,,,,,,,,,,,,,,,,,,,,,,,,,,,,,,,,459.7858159000025,459.8019896000005,459.8019896000005,460.5196967000011,r,1.0,0.7158038999987184,,,,,,sub-053,1.0,stroop_test,59.99257291966453,
,,,,,,,,blau,blue,b,1.0,,,,,,,,,7.0,3.0,87.0,6.0,460.5352243000016,,,,,,,,,,,,,,,,,460.520628000002,461.7350108000028,462.535058700003,462.5188828999999,,,,,,,,,,,,,,,,,,,,,,,,,,,,,,,,,,,462.5189048000029,462.535058700003,462.535058700003,463.1865358000032,b,1.0,0.6498842000000877,,,,,,sub-053,1.0,stroop_test,59.99257291966453,
,,,,,,,,gelb,red,r,0.0,,,,,,,,,7.0,4.0,88.0,8.0,463.20132170000215,,,,,,,,,,,,,,,,,463.1873448000006,464.0012368000025,464.8011284000022,464.7850841,,,,,,,,,,,,,,,,,,,,,,,,,,,,,,,,,,,464.7851064000024,464.8011284000022,464.8011284000022,467.7192300000024,r,1.0,2.916456399998424,,,,,,sub-053,1.0,stroop_test,59.99257291966453,
,,,,,,,,rot,blue,b,0.0,,,,,,,,,7.0,5.0,89.0,2.0,467.7339479000002,,,,,,,,,,,,,,,,,467.72022090000246,468.93379300000015,469.7338751000025,469.7178268000025,,,,,,,,,,,,,,,,,,,,,,,,,,,,,,,,,,,469.7178485000004,469.7338751000025,469.7338751000025,471.2010136000026,b,1.0,1.4618375999998534,,,,,,sub-053,1.0,stroop_test,59.99257291966453,
,,,,,,,,rot,yellow,g,0.0,,,,,,,,,7.0,6.0,90.0,3.0,471.2167932000011,,,,,,,,,,,,,,,,,471.201670800001,471.31675330000144,472.1167025000032,472.1006360000029,,,,,,,,,,,,,,,,,,,,,,,,,,,,,,,,,,,472.1006587000011,472.1167025000032,472.1167025000032,473.0010389000017,g,1.0,0.8703623000001244,,,,,,sub-053,1.0,stroop_test,59.99257291966453,
,,,,,,,,gelb,yellow,g,1.0,,,,,,,,,7.0,7.0,91.0,11.0,473.0166429000019,,,,,,,,,,,,,,,,,473.0020256000025,473.1165710000023,473.9165931999996,473.9004986,,,,,,,,,,,,,,,,,,,,,,,,,,,,,,,,,,,473.9005252000025,473.9165931999996,473.9165931999996,474.4509534000026,g,1.0,0.5194056999971508,,,,,,sub-053,1.0,stroop_test,59.99257291966453,
,,,,,,,,rot,red,r,1.0,,,,,,,,,7.0,8.0,92.0,0.0,474.46650950000185,,,,,,,,,,,,,,,,,474.4519707,475.26610230000006,476.0661035000012,476.0499990000026,,,,,,,,,,,,,,,,,,,,,,,,,,,,,,,,,,,476.05002550000063,476.0661035000012,476.0661035000012,476.63374380000096,r,1.0,0.5615896999988763,,,,,,sub-053,1.0,stroop_test,59.99257291966453,
,,,,,,,,blau,yellow,g,0.0,,,,,,,,,7.0,9.0,93.0,7.0,476.6493412000018,,,,,,,,,,,,,,,,,476.63469370000166,476.7491900000023,477.5491556000016,477.5330942000001,,,,,,,,,,,,,,,,,,,,,,,,,,,,,,,,,,,477.5331204000031,477.5491556000016,477.5491556000016,478.4001814000003,g,1.0,0.8433936000001268,,,,,,sub-053,1.0,stroop_test,59.99257291966453,
,,,,,,,,rot,red,r,1.0,,,,,,,,,7.0,10.0,94.0,1.0,478.41571210000257,,,,,,,,,,,,,,,,,478.40115880000303,478.5158111000019,479.3154543000019,479.2994623000013,,,,,,,,,,,,,,,,,,,,,,,,,,,,,,,,,,,479.29948650000006,479.3154543000019,479.3154543000019,480.1338109000026,r,1.0,0.8168861000012839,,,,,,sub-053,1.0,stroop_test,59.99257291966453,
,,,,,,,,gelb,blue,b,0.0,,,,,,,,,7.0,11.0,95.0,9.0,480.1487438000004,,,,,,,,,,,,,,,,,480.1346341999997,481.3486137,482.14852370000153,482.1324687000015,,,,,,,,,,,,,,,,,,,,,,,,,,,,,,,,,,,482.1324910000003,482.14852370000153,482.14852370000153,482.7992469000019,b,1.0,0.6476421000006667,,,,,,sub-053,1.0,stroop_test,59.99257291966453,
,,,,,,,,blau,blue,b,1.0,,,,,,,,,8.0,0.0,96.0,5.0,482.8149552000032,,,,,,,,,,,,,,,,,482.8001992999998,483.614748400003,484.4147515000004,484.3986702000002,,,,,,,,,,,,,,,,,,,,,,,,,,,,,,,,,,,484.39869230000113,484.4147515000004,484.4147515000004,484.94892860000255,b,1.0,0.5264926000018022,,,,,,sub-053,1.0,stroop_test,59.99257291966453,
,,,,,,,,gelb,red,r,0.0,,,,,,,,,8.0,1.0,97.0,8.0,484.9646589000004,,,,,,,,,,,,,,,,,484.9496583,485.7645271000001,486.564446700002,486.5484971000005,,,,,,,,,,,,,,,,,,,,,,,,,,,,,,,,,,,486.5485196000009,486.564446700002,486.564446700002,487.53192990000025,r,1.0,0.951515599997947,,,,,,sub-053,1.0,stroop_test,59.99257291966453,
,,,,,,,,gelb,yellow,g,1.0,,,,,,,,,8.0,2.0,98.0,10.0,487.5474281999996,,,,,,,,,,,,,,,,,487.5327447000018,487.8975423000011,488.69746010000017,488.6814613000024,,,,,,,,,,,,,,,,,,,,,,,,,,,,,,,,,,,488.68148830000064,488.69746010000017,488.69746010000017,489.34880520000297,g,1.0,0.6500920999969821,,,,,,sub-053,1.0,stroop_test,59.99257291966453,
,,,,,,,,rot,red,r,1.0,,,,,,,,,8.0,3.0,99.0,0.0,489.3640142000004,,,,,,,,,,,,,,,,,489.3495256000024,489.4639948000004,490.264052100003,490.2478537999996,,,,,,,,,,,,,,,,,,,,,,,,,,,,,,,,,,,490.2478793000009,490.264052100003,490.264052100003,490.9480395999999,r,1.0,0.6718642999985605,,,,,,sub-053,1.0,stroop_test,59.99257291966453,
,,,,,,,,blau,blue,b,1.0,,,,,,,,,8.0,4.0,100.0,6.0,490.9636771000005,,,,,,,,,,,,,,,,,490.94896730000255,491.7634577000026,492.5634586000015,492.5474133000025,,,,,,,,,,,,,,,,,,,,,,,,,,,,,,,,,,,492.5474367000024,492.5634586000015,492.5634586000015,492.9644683000006,b,1.0,0.3955758999982208,,,,,,sub-053,1.0,stroop_test,59.99257291966453,
,,,,,,,,rot,red,r,1.0,,,,,,,,,8.0,5.0,101.0,1.0,492.98005980000016,,,,,,,,,,,,,,,,,492.965398700002,493.3300536000024,494.129825400003,494.1137686000002,,,,,,,,,,,,,,,,,,,,,,,,,,,,,,,,,,,494.113788300001,494.129825400003,494.129825400003,494.7475201000016,r,1.0,0.6077460999986215,,,,,,sub-053,1.0,stroop_test,59.99257291966453,
,,,,,,,,rot,blue,b,0.0,,,,,,,,,8.0,6.0,102.0,2.0,494.76324380000005,,,,,,,,,,,,,,,,,494.7484533999996,494.86297560000094,495.6629544999996,495.6468746000028,,,,,,,,,,,,,,,,,,,,,,,,,,,,,,,,,,,495.6469004000028,495.6629544999996,495.6629544999996,497.3637251,b,1.0,1.6897133999991638,,,,,,sub-053,1.0,stroop_test,59.99257291966453,
,,,,,,,,gelb,yellow,g,1.0,,,,,,,,,8.0,7.0,103.0,11.0,497.3792511000029,,,,,,,,,,,,,,,,,497.3646542000024,498.1793055000017,498.9789961000024,498.9628049000021,,,,,,,,,,,,,,,,,,,,,,,,,,,,,,,,,,,498.9628201000014,498.9789961000024,498.9789961000024,499.6308771000004,g,1.0,0.650272999999288,,,,,,sub-053,1.0,stroop_test,59.99257291966453,
,,,,,,,,blau,yellow,g,0.0,,,,,,,,,8.0,8.0,104.0,7.0,499.6455153999996,,,,,,,,,,,,,,,,,499.63181500000064,500.4455592000013,501.2455408000024,501.2295441000024,,,,,,,,,,,,,,,,,,,,,,,,,,,,,,,,,,,501.2295736000015,501.2455408000024,501.2455408000024,503.04585080000106,g,1.0,1.794390300001396,,,,,,sub-053,1.0,stroop_test,59.99257291966453,
,,,,,,,,rot,yellow,g,0.0,,,,,,,,,8.0,9.0,105.0,3.0,503.06167610000193,,,,,,,,,,,,,,,,,503.0463876000031,503.861529400001,504.66139459999977,504.6453806000027,,,,,,,,,,,,,,,,,,,,,,,,,,,,,,,,,,,504.64540580000175,504.66139459999977,504.66139459999977,505.99556460000167,g,1.0,1.3300828999999794,,,,,,sub-053,1.0,stroop_test,59.99257291966453,
,,,,,,,,gelb,blue,b,0.0,,,,,,,,,8.0,10.0,106.0,9.0,506.01131290000194,,,,,,,,,,,,,,,,,505.99615020000056,506.361347500002,507.1609746000031,507.1449085000022,,,,,,,,,,,,,,,,,,,,,,,,,,,,,,,,,,,507.14492430000246,507.1609746000031,507.1609746000031,508.428900400002,b,1.0,1.2664691999998468,,,,,,sub-053,1.0,stroop_test,59.99257291966453,
,,,,,,,,blau,red,r,0.0,,,,,,,,,8.0,11.0,107.0,4.0,508.4441022000028,,,,,,,,,,,,,,,,,508.429721200002,508.7941952000001,509.5941002,509.5780670000022,,,,,,,,,,,,,,,,,,,,,,,,,,,,,,,,,,,509.5780938000025,509.5941002,509.5941002,510.8780131000021,r,1.0,1.2769393000016862,,,,,,sub-053,1.0,stroop_test,59.99257291966453,
,,,,,,,,rot,blue,b,0.0,,,,,,,,,9.0,0.0,108.0,2.0,510.8937982000025,,,,,,,,,,,,,,,,,510.8788209000013,511.6937620999997,512.4936135999997,512.4776509000003,,,,,,,,,,,,,,,,,,,,,,,,,,,,,,,,,,,512.4776775000028,512.4936135999997,512.4936135999997,513.4443584,b,1.0,0.9464829999997164,,,,,,sub-053,1.0,stroop_test,59.99257291966453,
,,,,,,,,blau,blue,b,1.0,,,,,,,,,9.0,1.0,109.0,6.0,513.4599473000017,,,,,,,,,,,,,,,,,513.4450620999996,514.259924500002,515.0597570999998,515.0438489000007,,,,,,,,,,,,,,,,,,,,,,,,,,,,,,,,,,,515.0438754999996,515.0597570999998,515.0597570999998,515.9942666999996,b,1.0,0.9306928000005428,,,,,,sub-053,1.0,stroop_test,59.99257291966453,
,,,,,,,,rot,red,r,1.0,,,,,,,,,9.0,2.0,110.0,1.0,516.0097193000001,,,,,,,,,,,,,,,,,515.9952424000003,516.8095850999998,517.6094273000017,517.5933093000021,,,,,,,,,,,,,,,,,,,,,,,,,,,,,,,,,,,517.5933349000006,517.6094273000017,517.6094273000017,518.3100718000023,r,1.0,0.6987045999994734,,,,,,sub-053,1.0,stroop_test,59.99257291966453,
,,,,,,,,blau,blue,b,1.0,,,,,,,,,9.0,3.0,111.0,5.0,518.3260902000002,,,,,,,,,,,,,,,,,518.3106391000001,518.6760310999998,519.475850400002,519.4597030000004,,,,,,,,,,,,,,,,,,,,,,,,,,,,,,,,,,,519.4597296000029,519.475850400002,519.475850400002,520.3429789000002,b,1.0,0.8626021999989462,,,,,,sub-053,1.0,stroop_test,59.99257291966453,
,,,,,,,,gelb,blue,b,0.0,,,,,,,,,9.0,4.0,112.0,9.0,520.3589621000028,,,,,,,,,,,,,,,,,520.3435215000027,521.1588628999998,521.9587465000004,521.9428447999999,,,,,,,,,,,,,,,,,,,,,,,,,,,,,,,,,,,521.9428700999997,521.9587465000004,521.9587465000004,522.8764255000024,b,1.0,0.9051088000014716,,,,,,sub-053,1.0,stroop_test,59.99257291966453,
,,,,,,,,gelb,yellow,g,1.0,,,,,,,,,9.0,5.0,113.0,10.0,522.8919337000007,,,,,,,,,,,,,,,,,522.8773531000006,524.0917636000013,524.8915126000029,524.8756252000021,,,,,,,,,,,,,,,,,,,,,,,,,,,,,,,,,,,524.8756518000009,524.8915126000029,524.8915126000029,525.6760238999996,g,1.0,0.7778098000017053,,,,,,sub-053,1.0,stroop_test,59.99257291966453,
,,,,,,,,gelb,yellow,g,1.0,,,,,,,,,9.0,6.0,114.0,11.0,525.6914343000026,,,,,,,,,,,,,,,,,525.6770025000005,526.8915690000031,527.691356700001,527.6755171000004,,,,,,,,,,,,,,,,,,,,,,,,,,,,,,,,,,,527.6755523000029,527.691356700001,527.691356700001,528.1758348000003,g,1.0,0.4736860000011802,,,,,,sub-053,1.0,stroop_test,59.99257291966453,
,,,,,,,,rot,red,r,1.0,,,,,,,,,9.0,7.0,115.0,0.0,528.1909468000013,,,,,,,,,,,,,,,,,528.1771243000003,529.3910253000031,530.1908352999999,530.1746335999997,,,,,,,,,,,,,,,,,,,,,,,,,,,,,,,,,,,530.1746530000019,530.1908352999999,530.1908352999999,530.625092000002,r,1.0,0.4189117999994778,,,,,,sub-053,1.0,stroop_test,59.99257291966453,
,,,,,,,,gelb,red,r,0.0,,,,,,,,,9.0,8.0,116.0,8.0,530.640760000002,,,,,,,,,,,,,,,,,530.6259094000015,530.7408304000019,531.5404343000009,531.5242407000005,,,,,,,,,,,,,,,,,,,,,,,,,,,,,,,,,,,531.5242569000002,531.5404343000009,531.5404343000009,532.7079019000012,r,1.0,1.158961500001169,,,,,,sub-053,1.0,stroop_test,59.99257291966453,
,,,,,,,,blau,yellow,g,0.0,,,,,,,,,9.0,9.0,117.0,7.0,532.7235172000001,,,,,,,,,,,,,,,,,532.7086014000015,533.0735447000006,533.8734954000029,533.8579136000008,,,,,,,,,,,,,,,,,,,,,,,,,,,,,,,,,,,533.8579394000008,533.8734954000029,533.8734954000029,535.0244219000015,g,1.0,1.1424454000007245,,,,,,sub-053,1.0,stroop_test,59.99257291966453,
,,,,,,,,rot,yellow,g,0.0,,,,,,,,,9.0,10.0,118.0,3.0,535.0400073000019,,,,,,,,,,,,,,,,,535.0252366000022,535.1399625000013,535.9398299000022,535.9236144000024,,,,,,,,,,,,,,,,,,,,,,,,,,,,,,,,,,,535.9236369999999,535.9398299000022,535.9398299000022,536.7240237000005,g,1.0,0.7705243000018527,,,,,,sub-053,1.0,stroop_test,59.99257291966453,
,,,,,,,,blau,red,r,0.0,,,,,,,,,9.0,11.0,119.0,4.0,536.739693200001,,,,,,,,,,,,,,,,,536.724833100001,537.0896399000012,537.8896309000011,537.8736102000003,,,,,,,,,,,,,,,,,,,,,,,,,,,,,,,,,,,537.8736323000012,537.8896309000011,537.8896309000011,538.9570664000021,r,1.0,1.0525436000025366,,,,,,sub-053,1.0,stroop_test,59.99257291966453,
,,,,,,,,,,,,,,,,,,,,,,,,,,,,,,,,,,,,,,,,,,,,,,,,,,,,,,,,,,,,,,,,,,,,,,,,,,,,,,,,,,,,,,,538.9575025000013,538.9728979000029,543.9719103999996,543.955960700001,sub-053,,,,
