wordCTK,colorCTK,corrAnsCTK,congruentCTK,thisN,thisTrialN,thisRepN,keyResp_CTK.keys,keyResp_CTK.corr,keyResp_CTK.rt,keyResp_CTK.duration,wordPractice,colorPractice,corrAnsPractice,congruentPractice,respPractice.keys,respPractice.corr,respPractice.rt,respPractice.duration,word,color,corrAns,congruent,keyResp_test_run.keys,keyResp_test_run.corr,keyResp_test_run.rt,keyResp_test_run.duration,trials_CTK.thisRepN,trials_CTK.thisTrialN,trials_CTK.thisN,trials_CTK.thisIndex,trials_practice.thisRepN,trials_practice.thisTrialN,trials_practice.thisN,trials_practice.thisIndex,trials_test.thisRepN,trials_test.thisTrialN,trials_test.thisN,trials_test.thisIndex,thisRow.t,notes,instruction.started,instr_text.started,instr_image.started,instr_resp.started,instruction.stopped,instr_resp.keys,instr_resp.rt,instr_resp.duration,instr_color_to_key.started,instr_ctk.started,resp_ctk.started,instr_color_to_key.stopped,resp_ctk.keys,resp_ctk.rt,resp_ctk.duration,ITI.started,fixcross.started,fixcross.stopped,ITI.stopped,color_to_key_run.started,stimulus_CTK.started,keyResp_CTK.started,color_to_key_run.stopped,trials_CTK.keyResp_CTK.keys,trials_CTK.keyResp_CTK.corr,trials_CTK.keyResp_CTK.rt,trials_CTK.keyResp_CTK.duration,instr_practice.started,instr_practice_text.started,instr_practice_resp.started,instr_practice.stopped,instr_practice_resp.keys,instr_practice_resp.rt,instr_practice_resp.duration,practice_run.started,stimulus_practice.started,respPractice.started,practice_run.stopped,trials_practice.respPractice.keys,trials_practice.respPractice.corr,trials_practice.respPractice.rt,trials_practice.respPractice.duration,feedback.started,textFeedback.started,textFeedback.stopped,feedback.stopped,instr_test.started,instr_test_text.started,instr_test_resp.started,instr_test.stopped,instr_test_resp.keys,instr_test_resp.rt,instr_test_resp.duration,test_run.started,stimulus_test_run.started,keyResp_test_run.started,test_run.stopped,trials_test.keyResp_test_run.keys,trials_test.keyResp_test_run.corr,trials_test.keyResp_test_run.rt,trials_test.keyResp_test_run.duration,goodbye.started,textGoodbye.started,textGoodbye.stopped,goodbye.stopped,participant,session,expName,frameRate,Unnamed: 113
,,,,,,,,,,,,,,,,,,,,,,,,,,,,,,,,,,,,,,,,,0.0102313329998651,0.0154888329998357,0.0154888329998357,0.0154888329998357,10.362043624999842,space,10.339629458999752,,,,,,,,,,,,,,,,,,,,,,,,,,,,,,,,,,,,,,,,,,,,,,,,,,,,,,,,,,,sub-023,2,stroop_test,,
,,,,,,,,,,,,,,,,,,,,,,,,,,,,,,,,,,,,,,,,,,,,,,,,,10.362100582999574,10.368950874999882,10.368950874999882,14.30612070799998,space,3.9277692919999936,,,,,,,,,,,,,,,,,,,,,,,,,,,,,,,,,,,,,,,,,,,,,,,,,,,,sub-023,2,stroop_test,,
test,red,r,1.0,0.0,0.0,0.0,r,1.0,1.8803001669998596,,,,,,,,,,,,,,,,,,0.0,0.0,0.0,0.0,,,,,,,,,14.32040120800002,,,,,,,,,,,,,,,,,14.315235415999725,15.503326249999644,16.29524133299992,16.28882195799997,16.29208424999979,16.29524133299992,16.29524133299992,18.17843504099983,r,1.0,1.8803001669998596,,,,,,,,,,,,,,,,,,,,,,,,,,,,,,,,,,,,,,,,sub-023,2,stroop_test,,
test,yellow,g,1.0,1.0,1.0,0.0,g,1.0,1.393934000000172,,,,,,,,,,,,,,,,,,0.0,1.0,1.0,1.0,,,,,,,,,18.18598899999961,,,,,,,,,,,,,,,,,18.178679832999933,18.975954332999663,19.7698940829996,19.761293249999653,19.76156179099962,19.7698940829996,19.7698940829996,21.173048999999992,g,1.0,1.393934000000172,,,,,,,,,,,,,,,,,,,,,,,,,,,,,,,,,,,,,,,,sub-023,2,stroop_test,,
test,blue,b,1.0,2.0,2.0,0.0,b,1.0,2.1942932500001007,,,,,,,,,,,,,,,,,,0.0,2.0,2.0,2.0,,,,,,,,,21.178911125000013,,,,,,,,,,,,,,,,,21.17329829099981,22.37009737499966,23.16025729099965,23.15564124999992,23.155894457999693,23.16025729099965,23.16025729099965,25.356576415999825,b,1.0,2.1942932500001007,,,,,,,,,,,,,,,,,,,,,,,,,,,,,,,,,,,,,,,,sub-023,2,stroop_test,,
test,blue,b,1.0,3.0,0.0,1.0,b,1.0,0.8280112919997009,,,,,,,,,,,,,,,,,,1.0,0.0,3.0,2.0,,,,,,,,,25.36233949999996,,,,,,,,,,,,,,,,,25.356808999999885,26.55357295799968,27.34403633299962,27.339440874999585,27.3396786659996,27.34403633299962,27.34403633299962,28.173340499999995,b,1.0,0.8280112919997009,,,,,,,,,,,,,,,,,,,,,,,,,,,,,,,,,,,,,,,,sub-023,2,stroop_test,,
test,yellow,g,1.0,4.0,1.0,1.0,r,0.0,0.7114780410001913,,,,,,,,,,,,,,,,,,1.0,1.0,4.0,1.0,,,,,,,,,28.17910916599976,,,,,,,,,,,,,,,,,28.17357399999992,28.520337665999705,29.31018941599996,29.30595787499988,29.306201207999948,29.31018941599996,29.31018941599996,30.023001874999864,r,0.0,0.7114780410001913,,,,,,,,,,,,,,,,,,,,,,,,,,,,,,,,,,,,,,,,sub-023,2,stroop_test,,
test,red,r,1.0,5.0,2.0,1.0,r,1.0,0.4785413750000771,,,,,,,,,,,,,,,,,,1.0,2.0,5.0,0.0,,,,,,,,,30.02853620799988,,,,,,,,,,,,,,,,,30.023227165999742,30.82046866599967,31.61063762499998,31.606064999999944,31.606339790999755,31.61063762499998,31.61063762499998,32.09046608299968,r,1.0,0.4785413750000771,,,,,,,,,,,,,,,,,,,,,,,,,,,,,,,,,,,,,,,,sub-023,2,stroop_test,,
test,blue,b,1.0,6.0,0.0,2.0,b,1.0,0.7118448749997697,,,,,,,,,,,,,,,,,,2.0,0.0,6.0,2.0,,,,,,,,,32.09416279099969,,,,,,,,,,,,,,,,,32.09069708299967,32.8871614159998,33.67725679099976,33.67279504099997,33.67303895799978,33.67725679099976,33.67725679099976,34.390479499999856,b,1.0,0.7118448749997697,,,,,,,,,,,,,,,,,,,,,,,,,,,,,,,,,,,,,,,,sub-023,2,stroop_test,,
test,yellow,g,1.0,7.0,1.0,2.0,g,1.0,0.7916633330000877,,,,,,,,,,,,,,,,,,2.0,1.0,7.0,1.0,,,,,,,,,34.39426125,,,,,,,,,,,,,,,,,34.39069437499984,34.73720570799969,35.52733833299999,35.52292566599999,35.523164624999936,35.52733833299999,35.52733833299999,36.323563415999615,g,1.0,0.7916633330000877,,,,,,,,,,,,,,,,,,,,,,,,,,,,,,,,,,,,,,,,sub-023,2,stroop_test,,
test,red,r,1.0,8.0,2.0,2.0,r,1.0,0.4878833749999103,,,,,,,,,,,,,,,,,,2.0,2.0,8.0,0.0,,,,,,,,,36.3273678329997,,,,,,,,,,,,,,,,,36.32380229099999,37.12060370799964,37.91091645799997,37.90641737499982,37.90665862499964,37.91091645799997,37.91091645799997,38.40679741599979,r,1.0,0.4878833749999103,,,,,,,,,,,,,,,,,,,,,,,,,,,,,,,,,,,,,,,,sub-023,2,stroop_test,,
test,red,r,1.0,9.0,0.0,3.0,r,1.0,0.5067017090000263,,,,,,,,,,,,,,,,,,3.0,0.0,9.0,0.0,,,,,,,,,38.41281329100002,,,,,,,,,,,,,,,,,38.40703399999984,38.50400916599983,39.29375833299992,39.289510832999895,39.28970958299988,39.29375833299992,39.29375833299992,39.8071028749996,r,1.0,0.5067017090000263,,,,,,,,,,,,,,,,,,,,,,,,,,,,,,,,,,,,,,,,sub-023,2,stroop_test,,
test,yellow,g,1.0,10.0,1.0,3.0,g,1.0,0.6542464999997719,,,,,,,,,,,,,,,,,,3.0,1.0,10.0,1.0,,,,,,,,,39.81290441599958,,,,,,,,,,,,,,,,,39.80735374999995,39.90406916599977,40.69419299999981,40.68958258299972,40.689839040999686,40.69419299999981,40.69419299999981,41.35660416599967,g,1.0,0.6542464999997719,,,,,,,,,,,,,,,,,,,,,,,,,,,,,,,,,,,,,,,,sub-023,2,stroop_test,,
test,blue,b,1.0,11.0,2.0,3.0,b,1.0,0.6215715829998771,,,,,,,,,,,,,,,,,,3.0,2.0,11.0,2.0,,,,,,,,,41.3617133329999,,,,,,,,,,,,,,,,,41.35681116599972,41.70395637499996,42.494267165999645,42.48975008299976,42.48999195799979,42.494267165999645,42.494267165999645,43.12332179099985,b,1.0,0.6215715829998771,,,,,,,,,,,,,,,,,,,,,,,,,,,,,,,,,,,,,,,,sub-023,2,stroop_test,,
,,,,,,,,,,,,,,,,,,,,,,,,,,,,,,,,,,,,,,,,,,,,,,,,,,,,,,,,,,,,,,,,,,,,43.123418082999706,43.129137291000006,43.129137291000006,49.05716570799996,space,5.922870584000066,,,,,,,,,,,,,,,,,,,,,,,,,,,,,,,,,sub-023,2,stroop_test,,
,,,,0.0,0.0,0.0,,,,,blau,blue,b,1.0,b,1.0,2.609592582999994,,,,,,,,,,,,,,0.0,0.0,0.0,5.0,,,,,49.06992137499992,,,,,,,,,,,,,,,,,49.064974957999766,49.85413787499965,50.64739620799992,50.64030070799981,,,,,,,,,,,,,,,,50.64372899999989,50.64739620799992,50.64739620799992,53.26317112499965,b,1.0,2.609592582999994,,53.2670261659996,53.27362279099998,54.2711546659998,54.26234991599995,,,,,,,,,,,,,,,,,,,,sub-023,2,stroop_test,,
,,,,1.0,1.0,0.0,,,,,gelb,yellow,g,1.0,g,1.0,1.122918333000143,,,,,,,,,,,,,,0.0,1.0,1.0,11.0,,,,,54.2711546659998,,,,,,,,,,,,,,,,,54.26260254099998,54.61062545799996,55.40396966599974,55.39588412499961,,,,,,,,,,,,,,,,55.3976639159996,55.40396966599974,55.40396966599974,56.52989449999996,g,1.0,1.122918333000143,,56.53016149999985,56.537303790999886,57.527596915999766,57.52366108299975,,,,,,,,,,,,,,,,,,,,sub-023,2,stroop_test,,
,,,,2.0,2.0,0.0,,,,,blau,red,r,0.0,r,1.0,4.20025054100006,,,,,,,,,,,,,,0.0,2.0,2.0,4.0,,,,,57.527596915999766,,,,,,,,,,,,,,,,,57.523903957999664,57.62723158299968,58.42070249999961,58.412701124999785,,,,,,,,,,,,,,,,58.414389624999785,58.42070249999961,58.42070249999961,62.624634625,r,1.0,4.20025054100006,,62.6249289579996,62.63121633299989,63.62779724999973,63.623889415999656,,,,,,,,,,,,,,,,,,,,sub-023,2,stroop_test,,
,,,,3.0,3.0,0.0,,,,,blau,yellow,g,0.0,g,1.0,0.8366058329997941,,,,,,,,,,,,,,0.0,3.0,3.0,7.0,,,,,63.62779724999973,,,,,,,,,,,,,,,,,63.62410712499968,63.721607499999664,64.51192674999993,64.50736570799972,,,,,,,,,,,,,,,,64.50764316599998,64.51192674999993,64.51192674999993,65.35805449999998,g,1.0,0.8366058329997941,,65.35831462499982,65.36442916599981,66.36087537499998,66.35723137499963,,,,,,,,,,,,,,,,,,,,sub-023,2,stroop_test,,
,,,,4.0,4.0,0.0,,,,,rot,blue,b,0.0,b,1.0,0.4466962500000591,,,,,,,,,,,,,,0.0,4.0,4.0,2.0,,,,,66.36087537499998,,,,,,,,,,,,,,,,,66.35743733299978,66.45498258299995,67.24681012499968,67.24065012499977,,,,,,,,,,,,,,,,67.24347387499984,67.24681012499968,67.24681012499968,67.69678112499969,b,1.0,0.4466962500000591,,67.69703924999976,67.70435183299969,68.69456341599971,68.69068174999984,,,,,,,,,,,,,,,,,,,,sub-023,2,stroop_test,,
,,,,5.0,5.0,0.0,,,,,rot,red,r,1.0,r,1.0,0.9118571670001074,,,,,,,,,,,,,,0.0,5.0,5.0,1.0,,,,,68.69456341599971,,,,,,,,,,,,,,,,,68.69089583300001,69.89480266599958,70.68857974999992,70.67977504099963,,,,,,,,,,,,,,,,70.6800019579996,70.68857974999992,70.68857974999992,71.60789924999972,r,1.0,0.9118571670001074,,71.60817583299968,71.6145433329998,72.61134541599995,72.60769779099974,,,,,,,,,,,,,,,,,,,,sub-023,2,stroop_test,,
,,,,6.0,6.0,0.0,,,,,rot,red,r,1.0,r,1.0,0.6447466250001526,,,,,,,,,,,,,,0.0,6.0,6.0,0.0,,,,,72.61134541599995,,,,,,,,,,,,,,,,,72.60792641599983,73.80531762499959,74.59535995799979,74.59079037499987,,,,,,,,,,,,,,,,74.591046,74.59535995799979,74.59535995799979,75.24164312499988,r,1.0,0.6447466250001526,,75.24189487499962,75.24784633299987,76.24514041599969,76.24126641599969,,,,,,,,,,,,,,,,,,,,sub-023,2,stroop_test,,
,,,,7.0,7.0,0.0,,,,,blau,blue,b,1.0,b,1.0,0.6159454170001482,,,,,,,,,,,,,,0.0,7.0,7.0,6.0,,,,,76.24514041599969,,,,,,,,,,,,,,,,,76.24148633300001,77.43867641599991,78.23104937499966,78.22460358299986,,,,,,,,,,,,,,,,78.22636583299982,78.23104937499966,78.23104937499966,78.85765316599964,b,1.0,0.6159454170001482,,78.8579475409997,78.86386624999977,79.86151054099992,79.85773899999958,,,,,,,,,,,,,,,,,,,,sub-023,2,stroop_test,,
,,,,8.0,8.0,0.0,,,,,gelb,red,r,0.0,r,1.0,0.6987980420003623,,,,,,,,,,,,,,0.0,8.0,8.0,8.0,,,,,79.86151054099992,,,,,,,,,,,,,,,,,79.85797079099984,81.05505645799985,81.847609208,81.84117179099985,,,,,,,,,,,,,,,,81.84321012499959,81.847609208,81.847609208,82.54772183299974,r,1.0,0.6987980420003623,,82.54797658299958,82.55489091599975,83.54479720799964,83.54119954099997,,,,,,,,,,,,,,,,,,,,sub-023,2,stroop_test,,
,,,,9.0,9.0,0.0,,,,,gelb,yellow,g,1.0,g,1.0,0.6356153750002704,,,,,,,,,,,,,,0.0,9.0,9.0,10.0,,,,,83.54479720799964,,,,,,,,,,,,,,,,,83.54141379099974,84.34498645799977,85.13889512499964,85.13054129099964,,,,,,,,,,,,,,,,85.13080149999996,85.13889512499964,85.13889512499964,85.77582608299963,g,1.0,0.6356153750002704,,85.77608874999987,85.78204420799966,86.77838699999984,86.77451691599981,,,,,,,,,,,,,,,,,,,,sub-023,2,stroop_test,,
,,,,10.0,10.0,0.0,,,,,gelb,blue,b,0.0,b,1.0,0.7993960410003638,,,,,,,,,,,,,,0.0,10.0,10.0,9.0,,,,,86.77838699999984,,,,,,,,,,,,,,,,,86.77477491599984,87.12210904099993,87.91327154099963,87.90833637499964,,,,,,,,,,,,,,,,87.90860270799976,87.91327154099963,87.91327154099963,88.71391095799981,b,1.0,0.7993960410003638,,88.71416308299968,88.7218375829998,89.71182658299995,89.70798491599999,,,,,,,,,,,,,,,,,,,,sub-023,2,stroop_test,,
,,,,11.0,11.0,0.0,,,,,rot,yellow,g,0.0,g,1.0,1.0457147090000944,,,,,,,,,,,,,,0.0,11.0,11.0,3.0,,,,,89.71182658299995,,,,,,,,,,,,,,,,,89.7081992909998,90.51188208299982,91.3054902079998,91.29764229099963,,,,,,,,,,,,,,,,91.29922549999992,91.3054902079998,91.3054902079998,92.35916258299994,g,1.0,1.0457147090000944,,92.35944683299977,92.3657133749998,93.36186566599964,93.35822279099966,,,,,,,,,,,,,,,,,,,,sub-023,2,stroop_test,,
,,,,12.0,0.0,1.0,,,,,blau,yellow,g,0.0,g,1.0,0.8683836669997618,,,,,,,,,,,,,,1.0,0.0,12.0,7.0,,,,,93.36186566599964,,,,,,,,,,,,,,,,,93.358433333,93.70606237499987,94.497767416,94.49147237499984,,,,,,,,,,,,,,,,94.49324116599972,94.497767416,94.497767416,95.37583708299962,g,1.0,0.8683836669997618,,95.37609512499968,95.38251420799998,96.37887675000002,96.3750431659996,,,,,,,,,,,,,,,,,,,,sub-023,2,stroop_test,,
,,,,13.0,1.0,1.0,,,,,gelb,yellow,g,1.0,g,1.0,0.4955165000001216,,,,,,,,,,,,,,1.0,1.0,13.0,10.0,,,,,96.37887675000002,,,,,,,,,,,,,,,,,96.37524879099963,96.72270004099984,97.5148197909998,97.5084139999999,,,,,,,,,,,,,,,,97.51015062499982,97.5148197909998,97.5148197909998,98.01479674999972,g,1.0,0.4955165000001216,,98.0150642499998,98.02208995799992,99.01231283299968,99.0083277499998,,,,,,,,,,,,,,,,,,,,sub-023,2,stroop_test,,
,,,,14.0,2.0,1.0,,,,,rot,blue,b,0.0,b,1.0,0.4025343749999592,,,,,,,,,,,,,,1.0,2.0,14.0,2.0,,,,,99.01231283299968,,,,,,,,,,,,,,,,,99.00855554099962,99.11137174999976,99.90552387499974,99.8977055829996,,,,,,,,,,,,,,,,99.899619541,99.90552387499974,99.90552387499974,100.30940904099998,b,1.0,0.4025343749999592,,100.3096774579999,100.31559420799977,101.31133108299991,101.30787558299971,,,,,,,,,,,,,,,,,,,,sub-023,2,stroop_test,,
,,,,15.0,3.0,1.0,,,,,gelb,yellow,g,1.0,g,1.0,0.514724957999988,,,,,,,,,,,,,,1.0,3.0,15.0,11.0,,,,,101.31133108299991,,,,,,,,,,,,,,,,,101.30804929099986,102.10638779099963,102.89870041599988,102.89209820799988,,,,,,,,,,,,,,,,102.89404941599967,102.89870041599988,102.89870041599988,103.41471049999971,g,1.0,0.514724957999988,,103.4149635409999,103.42232658299964,104.41237166599969,104.40873499999998,,,,,,,,,,,,,,,,,,,,sub-023,2,stroop_test,,
,,,,16.0,4.0,1.0,,,,,gelb,blue,b,0.0,b,1.0,1.1443066659999204,,,,,,,,,,,,,,1.0,4.0,16.0,9.0,,,,,104.41237166599969,,,,,,,,,,,,,,,,,104.40894949999984,104.5228240409997,105.3132728329997,105.30860674999984,,,,,,,,,,,,,,,,105.3088397079996,105.3132728329997,105.3132728329997,106.45904591599992,b,1.0,1.1443066659999204,,106.459275875,106.46553374999984,107.46232962499973,107.4586734579998,,,,,,,,,,,,,,,,,,,,sub-023,2,stroop_test,,
,,,,17.0,5.0,1.0,,,,,blau,blue,b,1.0,b,1.0,0.6445516669996323,,,,,,,,,,,,,,1.0,5.0,17.0,5.0,,,,,107.46232962499973,,,,,,,,,,,,,,,,,107.4588873329999,107.80649454099968,108.59889295799984,108.59229829099968,,,,,,,,,,,,,,,,108.59423733299992,108.59889295799984,108.59889295799984,109.24854349999988,b,1.0,0.6445516669996323,,109.24878608299969,109.25585320799972,110.24587808299977,110.24207066600002,,,,,,,,,,,,,,,,,,,,sub-023,2,stroop_test,,
,,,,18.0,6.0,1.0,,,,,rot,yellow,g,0.0,g,1.0,1.577768999999989,,,,,,,,,,,,,,1.0,6.0,18.0,3.0,,,,,110.24587808299977,,,,,,,,,,,,,,,,,110.24229395799966,110.59606637499974,111.38964762499972,111.38068562499984,,,,,,,,,,,,,,,,111.38241154099978,111.38964762499972,111.38964762499972,112.97618687499973,g,1.0,1.577768999999989,,112.97644799999988,112.98270029099967,113.97971762499992,113.9758042909998,,,,,,,,,,,,,,,,,,,,sub-023,2,stroop_test,,
,,,,19.0,7.0,1.0,,,,,rot,red,r,1.0,r,1.0,0.7452342080000562,,,,,,,,,,,,,,1.0,7.0,19.0,0.0,,,,,113.97971762499992,,,,,,,,,,,,,,,,,113.97606449999968,115.17340191599988,115.96348541599993,115.95893149999984,,,,,,,,,,,,,,,,115.95918879099963,115.96348541599993,115.96348541599993,116.71000770799992,r,1.0,0.7452342080000562,,116.71026379099976,116.71625462499968,117.7128007909996,117.70913654099968,,,,,,,,,,,,,,,,,,,,sub-023,2,stroop_test,,
,,,,20.0,8.0,1.0,,,,,gelb,red,r,0.0,r,1.0,0.7865108330001931,,,,,,,,,,,,,,1.0,8.0,20.0,8.0,,,,,117.7128007909996,,,,,,,,,,,,,,,,,117.70934258299984,118.90689529099971,119.69912033299988,119.6927137079997,,,,,,,,,,,,,,,,119.69455416599976,119.69912033299988,119.69912033299988,120.49338308300004,r,1.0,0.7865108330001931,,120.49365149999994,120.50007612499984,121.4962510409996,121.492633416,,,,,,,,,,,,,,,,,,,,sub-023,2,stroop_test,,
,,,,21.0,9.0,1.0,,,,,blau,red,r,0.0,r,1.0,1.0436286250001103,,,,,,,,,,,,,,1.0,9.0,21.0,4.0,,,,,121.4962510409996,,,,,,,,,,,,,,,,,121.49285216599992,122.6904183329998,123.48222983300002,123.4759514579996,,,,,,,,,,,,,,,,123.47772641599975,123.48222983300002,123.48222983300002,124.5271795409999,r,1.0,1.0436286250001103,,124.52745629099992,124.53349570799992,125.53024220799988,125.52623916599988,,,,,,,,,,,,,,,,,,,,sub-023,2,stroop_test,,
,,,,22.0,10.0,1.0,,,,,rot,red,r,1.0,r,1.0,1.1429713329998776,,,,,,,,,,,,,,1.0,10.0,22.0,1.0,,,,,125.53024220799988,,,,,,,,,,,,,,,,,125.52649037499988,125.87355333300002,126.66590287499956,126.65946399999984,,,,,,,,,,,,,,,,126.6613008749996,126.66590287499956,126.66590287499956,127.81021537499964,r,1.0,1.1429713329998776,,127.8104911659998,127.81644933299958,128.81390079099992,128.80994899999996,,,,,,,,,,,,,,,,,,,,sub-023,2,stroop_test,,
,,,,23.0,11.0,1.0,,,,,blau,blue,b,1.0,b,1.0,1.179804417000014,,,,,,,,,,,,,,1.0,11.0,23.0,6.0,,,,,128.81390079099992,,,,,,,,,,,,,,,,,128.81019887499997,128.90723470799958,129.69946899999968,129.69303549999995,,,,,,,,,,,,,,,,129.6949284579996,129.69946899999968,129.69946899999968,130.8820392499997,b,1.0,1.179804417000014,,130.8822984999997,130.89002141599985,131.88079720799988,131.87612087499974,,,,,,,,,,,,,,,,,,,,sub-023,2,stroop_test,,
,,,,,,,,,,,,,,,,,,,,,,,,,,,,,,,,,,,,,,,,,,,,,,,,,,,,,,,,,,,,,,,,,,,,,,,,,,,,,,,,,,,,,,,131.8762564159997,131.88079720799988,131.88079720799988,142.56104337499983,space,10.673903500000051,,,,,,,,,,,,,,sub-023,2,stroop_test,,
,,,,0.0,0.0,0.0,,,,,,,,,,,,,rot,red,r,1.0,r,1.0,6.069867374999831,,,,,,,,,,0.0,0.0,0.0,0.0,142.5742229159996,,,,,,,,,,,,,,,,,142.56932304099973,142.6573009159997,143.44984391599974,143.44338633299958,,,,,,,,,,,,,,,,,,,,,,,,,,,,,,,,,,,143.445198291,143.44984391599974,143.44984391599974,149.52800099999968,r,1.0,6.069867374999831,,,,,,sub-023,2,stroop_test,,
,,,,1.0,1.0,0.0,,,,,,,,,,,,,gelb,yellow,g,1.0,g,1.0,0.6784234169999763,,,,,,,,,,0.0,1.0,1.0,11.0,149.53400354099995,,,,,,,,,,,,,,,,,149.52828187499972,149.87439887499977,150.66670529099974,150.6602916249999,,,,,,,,,,,,,,,,,,,,,,,,,,,,,,,,,,,150.6621534159999,150.66670529099974,150.66670529099974,151.34895899999992,g,1.0,0.6784234169999763,,,,,,sub-023,2,stroop_test,,
,,,,2.0,2.0,0.0,,,,,,,,,,,,,blau,yellow,g,0.0,b,0.0,0.5825953340004162,,,,,,,,,,0.0,2.0,2.0,7.0,151.35763749999978,,,,,,,,,,,,,,,,,151.34918195799992,151.44623495799988,152.2407794579999,152.23256504099982,,,,,,,,,,,,,,,,,,,,,,,,,,,,,,,,,,,152.23441941599958,152.2407794579999,152.2407794579999,152.82776404099968,b,0.0,0.5825953340004162,,,,,,sub-023,2,stroop_test,,
,,,,3.0,3.0,0.0,,,,,,,,,,,,,blau,red,r,0.0,r,1.0,1.100022041000102,,,,,,,,,,0.0,3.0,3.0,4.0,152.83348804099978,,,,,,,,,,,,,,,,,152.82802508299983,153.6248798749998,154.41504962499994,154.410433,,,,,,,,,,,,,,,,,,,,,,,,,,,,,,,,,,,154.41065941599982,154.41504962499994,154.41504962499994,155.51684420799984,r,1.0,1.100022041000102,,,,,,sub-023,2,stroop_test,,
,,,,4.0,4.0,0.0,,,,,,,,,,,,,gelb,blue,b,0.0,b,1.0,0.8423219999999674,,,,,,,,,,0.0,4.0,4.0,9.0,155.52424274999976,,,,,,,,,,,,,,,,,155.5170866249996,156.7141194579999,157.5076276249997,157.49946829099963,,,,,,,,,,,,,,,,,,,,,,,,,,,,,,,,,,,157.50122674999966,157.5076276249997,157.5076276249997,158.3613726249996,b,1.0,0.8423219999999674,,,,,,sub-023,2,stroop_test,,
,,,,5.0,5.0,0.0,,,,,,,,,,,,,blau,blue,b,1.0,b,1.0,0.5931054170000607,,,,,,,,,,0.0,5.0,5.0,6.0,158.36731058299983,,,,,,,,,,,,,,,,,158.36165612499963,158.7083558329996,159.50059004099967,159.49399274999996,,,,,,,,,,,,,,,,,,,,,,,,,,,,,,,,,,,159.49602933300002,159.50059004099967,159.50059004099967,160.09504391599967,b,1.0,0.5931054170000607,,,,,,sub-023,2,stroop_test,,
,,,,6.0,6.0,0.0,,,,,,,,,,,,,rot,red,r,1.0,r,1.0,0.9295386250000774,,,,,,,,,,0.0,6.0,6.0,1.0,160.09883929099988,,,,,,,,,,,,,,,,,160.09530379099988,160.191755458,160.98382283299998,160.97736874999964,,,,,,,,,,,,,,,,,,,,,,,,,,,,,,,,,,,160.97925229099974,160.98382283299998,160.98382283299998,161.91759149999962,r,1.0,0.9295386250000774,,,,,,sub-023,2,stroop_test,,
,,,,7.0,7.0,0.0,,,,,,,,,,,,,gelb,red,r,0.0,r,1.0,0.9614849579998008,,,,,,,,,,0.0,7.0,7.0,8.0,161.92439641599958,,,,,,,,,,,,,,,,,161.91788824999958,163.114108708,163.9080047499997,163.8996361659997,,,,,,,,,,,,,,,,,,,,,,,,,,,,,,,,,,,163.90151458299988,163.9080047499997,163.9080047499997,164.8775922079999,r,1.0,0.9614849579998008,,,,,,sub-023,2,stroop_test,,
,,,,8.0,8.0,0.0,,,,,,,,,,,,,gelb,yellow,g,1.0,g,1.0,0.6831425000000309,,,,,,,,,,0.0,8.0,8.0,10.0,164.88333795799963,,,,,,,,,,,,,,,,,164.87784033299977,165.6751057499996,166.46539645799976,166.46091899999965,,,,,,,,,,,,,,,,,,,,,,,,,,,,,,,,,,,166.46115608299988,166.46539645799976,166.46539645799976,167.15102824999985,g,1.0,0.6831425000000309,,,,,,sub-023,2,stroop_test,,
,,,,9.0,9.0,0.0,,,,,,,,,,,,,rot,yellow,g,0.0,g,1.0,0.725490875000105,,,,,,,,,,0.0,9.0,9.0,3.0,167.15795545799983,,,,,,,,,,,,,,,,,167.15129395799977,167.94805774999986,168.7412946659997,168.733474958,,,,,,,,,,,,,,,,,,,,,,,,,,,,,,,,,,,168.73537224999973,168.7412946659997,168.7412946659997,169.47830895799962,g,1.0,0.725490875000105,,,,,,sub-023,2,stroop_test,,
,,,,10.0,10.0,0.0,,,,,,,,,,,,,blau,blue,b,1.0,b,1.0,0.5795691250000345,,,,,,,,,,0.0,10.0,10.0,5.0,169.48423179099973,,,,,,,,,,,,,,,,,169.47858287499955,169.82541208299972,170.61776849999978,170.61129487499966,,,,,,,,,,,,,,,,,,,,,,,,,,,,,,,,,,,170.61321358299983,170.61776849999978,170.61776849999978,171.20083133299977,b,1.0,0.5795691250000345,,,,,,sub-023,2,stroop_test,,
,,,,11.0,11.0,0.0,,,,,,,,,,,,,rot,blue,b,0.0,b,1.0,1.0360659999996642,,,,,,,,,,0.0,11.0,11.0,2.0,171.2081606249999,,,,,,,,,,,,,,,,,171.20106820799992,171.99798062499983,172.79146924999986,172.78382945799967,,,,,,,,,,,,,,,,,,,,,,,,,,,,,,,,,,,172.78570220799975,172.79146924999986,172.79146924999986,173.83403283299958,b,1.0,1.0360659999996642,,,,,,sub-023,2,stroop_test,,
,,,,12.0,0.0,1.0,,,,,,,,,,,,,gelb,yellow,g,1.0,g,1.0,0.5882180419998804,,,,,,,,,,1.0,0.0,12.0,11.0,173.84157262500003,,,,,,,,,,,,,,,,,173.83433458299987,174.63178516599964,175.4249354579997,175.41676479099988,,,,,,,,,,,,,,,,,,,,,,,,,,,,,,,,,,,175.41862583299962,175.4249354579997,175.4249354579997,176.01780087499992,g,1.0,0.5882180419998804,,,,,,sub-023,2,stroop_test,,
,,,,13.0,1.0,1.0,,,,,,,,,,,,,rot,red,r,1.0,r,1.0,0.9421629580001536,,,,,,,,,,1.0,1.0,13.0,0.0,176.02489187499987,,,,,,,,,,,,,,,,,176.01810420799984,176.11487524999984,176.90829233299974,176.90003929099976,,,,,,,,,,,,,,,,,,,,,,,,,,,,,,,,,,,176.90170224999974,176.90829233299974,176.90829233299974,177.8517708749996,r,1.0,0.9421629580001536,,,,,,sub-023,2,stroop_test,,
,,,,14.0,2.0,1.0,,,,,,,,,,,,,rot,blue,b,0.0,b,1.0,0.3867921659998501,,,,,,,,,,1.0,2.0,14.0,2.0,177.85834929099974,,,,,,,,,,,,,,,,,177.8520113329996,179.04864837499963,179.842424208,179.83362591599962,,,,,,,,,,,,,,,,,,,,,,,,,,,,,,,,,,,179.8338850829996,179.842424208,179.842424208,180.2345672499996,b,1.0,0.3867921659998501,,,,,,sub-023,2,stroop_test,,
,,,,15.0,3.0,1.0,,,,,,,,,,,,,gelb,yellow,g,1.0,g,1.0,0.4314812500001608,,,,,,,,,,1.0,3.0,15.0,10.0,180.24170291599967,,,,,,,,,,,,,,,,,180.2348045829999,181.43135295799996,182.2251765829997,182.2168668749996,,,,,,,,,,,,,,,,,,,,,,,,,,,,,,,,,,,182.2187379999996,182.2251765829997,182.2251765829997,182.662316125,g,1.0,0.4314812500001608,,,,,,sub-023,2,stroop_test,,
,,,,16.0,4.0,1.0,,,,,,,,,,,,,blau,yellow,g,0.0,g,1.0,0.4949882500000058,,,,,,,,,,1.0,4.0,16.0,7.0,182.66826216599972,,,,,,,,,,,,,,,,,182.6626114999999,183.4592975409996,184.25116391599977,184.2448731659997,,,,,,,,,,,,,,,,,,,,,,,,,,,,,,,,,,,184.24673424999992,184.25116391599977,184.25116391599977,184.7511035829998,g,1.0,0.4949882500000058,,,,,,sub-023,2,stroop_test,,
,,,,17.0,5.0,1.0,,,,,,,,,,,,,blau,red,r,0.0,r,1.0,0.8383096249999653,,,,,,,,,,1.0,5.0,17.0,4.0,184.758602333,,,,,,,,,,,,,,,,,184.7513407499996,184.8484532499997,185.64264966599967,185.63399979099995,,,,,,,,,,,,,,,,,,,,,,,,,,,,,,,,,,,185.63423124999963,185.64264966599967,185.64264966599967,186.4848354579999,r,1.0,0.8383096249999653,,,,,,sub-023,2,stroop_test,,
,,,,18.0,6.0,1.0,,,,,,,,,,,,,rot,red,r,1.0,r,1.0,0.6829875000003085,,,,,,,,,,1.0,6.0,18.0,1.0,186.49198091599965,,,,,,,,,,,,,,,,,186.485119125,187.6825233329996,188.47538095799973,188.46754308299975,,,,,,,,,,,,,,,,,,,,,,,,,,,,,,,,,,,188.46924595799965,188.47538095799973,188.47538095799973,189.1625433329996,r,1.0,0.6829875000003085,,,,,,sub-023,2,stroop_test,,
,,,,19.0,7.0,1.0,,,,,,,,,,,,,gelb,blue,b,0.0,b,1.0,0.6100567500002398,,,,,,,,,,1.0,7.0,19.0,9.0,189.1682981659997,,,,,,,,,,,,,,,,,189.1628408329998,189.2593902079998,190.05182591599987,190.04532970799983,,,,,,,,,,,,,,,,,,,,,,,,,,,,,,,,,,,190.0473508749997,190.05182591599987,190.05182591599987,190.6679909579998,b,1.0,0.6100567500002398,,,,,,sub-023,2,stroop_test,,
,,,,20.0,8.0,1.0,,,,,,,,,,,,,blau,blue,b,1.0,b,1.0,0.5465821669999968,,,,,,,,,,1.0,8.0,20.0,6.0,190.67550349999965,,,,,,,,,,,,,,,,,190.6682284999997,191.01539449999973,191.8088707909997,191.800567583,,,,,,,,,,,,,,,,,,,,,,,,,,,,,,,,,,,191.80228866599964,191.8088707909997,191.8088707909997,192.36240704099964,b,1.0,0.5465821669999968,,,,,,sub-023,2,stroop_test,,
,,,,21.0,9.0,1.0,,,,,,,,,,,,,blau,blue,b,1.0,b,1.0,0.4957360839998728,,,,,,,,,,1.0,9.0,21.0,5.0,192.36839708299976,,,,,,,,,,,,,,,,,192.36268875,192.4594781249998,193.25014375,193.2455229579996,,,,,,,,,,,,,,,,,,,,,,,,,,,,,,,,,,,193.24579883299972,193.25014375,193.25014375,193.75174683299971,b,1.0,0.4957360839998728,,,,,,sub-023,2,stroop_test,,
,,,,22.0,10.0,1.0,,,,,,,,,,,,,rot,yellow,g,0.0,g,1.0,0.529327290999845,,,,,,,,,,1.0,10.0,22.0,3.0,193.758879125,,,,,,,,,,,,,,,,,193.75201683299971,193.8483968329997,194.6422732909996,194.63454291599965,,,,,,,,,,,,,,,,,,,,,,,,,,,,,,,,,,,194.63625558299964,194.6422732909996,194.6422732909996,195.17957824999985,g,1.0,0.529327290999845,,,,,,sub-023,2,stroop_test,,
,,,,23.0,11.0,1.0,,,,,,,,,,,,,gelb,red,r,0.0,r,1.0,0.5428911669996523,,,,,,,,,,1.0,11.0,23.0,8.0,195.1853981659997,,,,,,,,,,,,,,,,,195.1798857079998,196.37635837499965,197.1680221659999,197.16180120799984,,,,,,,,,,,,,,,,,,,,,,,,,,,,,,,,,,,197.163507625,197.1680221659999,197.1680221659999,197.712730708,r,1.0,0.5428911669996523,,,,,,sub-023,2,stroop_test,,
,,,,24.0,0.0,2.0,,,,,,,,,,,,,rot,yellow,g,0.0,g,1.0,0.4369399160000284,,,,,,,,,,2.0,0.0,24.0,3.0,197.71838820799985,,,,,,,,,,,,,,,,,197.71299087499983,197.8097813749996,198.6021334999996,198.59572499999967,,,,,,,,,,,,,,,,,,,,,,,,,,,,,,,,,,,198.5975448329996,198.6021334999996,198.6021334999996,199.0460923749997,g,1.0,0.4369399160000284,,,,,,sub-023,2,stroop_test,,
,,,,25.0,1.0,2.0,,,,,,,,,,,,,blau,yellow,g,0.0,g,1.0,0.4869334590002836,,,,,,,,,,2.0,1.0,25.0,7.0,199.05195641599997,,,,,,,,,,,,,,,,,199.046360416,199.84304962499985,200.6351848749996,200.628847083,,,,,,,,,,,,,,,,,,,,,,,,,,,,,,,,,,,200.63057020799988,200.6351848749996,200.6351848749996,201.12955945799968,g,1.0,0.4869334590002836,,,,,,sub-023,2,stroop_test,,
,,,,26.0,2.0,2.0,,,,,,,,,,,,,gelb,blue,b,0.0,b,1.0,0.826563958999941,,,,,,,,,,2.0,2.0,26.0,9.0,201.13544458299972,,,,,,,,,,,,,,,,,201.1298312079998,201.4764447909997,202.26860662499985,202.26224779099996,,,,,,,,,,,,,,,,,,,,,,,,,,,,,,,,,,,202.26396695799983,202.26860662499985,202.26860662499985,203.10204162499983,b,1.0,0.826563958999941,,,,,,sub-023,2,stroop_test,,
,,,,27.0,3.0,2.0,,,,,,,,,,,,,gelb,yellow,g,1.0,g,1.0,0.504109709000204,,,,,,,,,,2.0,3.0,27.0,11.0,203.10917541599972,,,,,,,,,,,,,,,,,203.1023099159997,203.8992157079997,204.6927935409999,204.6841947079997,,,,,,,,,,,,,,,,,,,,,,,,,,,,,,,,,,,204.68444062499972,204.6927935409999,204.6927935409999,205.2021015829996,g,1.0,0.504109709000204,,,,,,sub-023,2,stroop_test,,
,,,,28.0,4.0,2.0,,,,,,,,,,,,,rot,blue,b,0.0,b,1.0,0.5483437079997202,,,,,,,,,,2.0,4.0,28.0,2.0,205.2092994159998,,,,,,,,,,,,,,,,,205.2023452909998,205.29873729099967,206.09269641599985,206.08454354099968,,,,,,,,,,,,,,,,,,,,,,,,,,,,,,,,,,,206.08621787499987,206.09269641599985,206.09269641599985,206.64657949999992,b,1.0,0.5483437079997202,,,,,,sub-023,2,stroop_test,,
,,,,29.0,5.0,2.0,,,,,,,,,,,,,rot,red,r,1.0,r,1.0,0.7032675840000593,,,,,,,,,,2.0,5.0,29.0,0.0,206.6524562909999,,,,,,,,,,,,,,,,,206.6468541249997,206.9933383749999,207.7838569999999,207.779247166,,,,,,,,,,,,,,,,,,,,,,,,,,,,,,,,,,,207.77948708299985,207.7838569999999,207.7838569999999,208.496636333,r,1.0,0.7032675840000593,,,,,,sub-023,2,stroop_test,,
,,,,30.0,6.0,2.0,,,,,,,,,,,,,rot,red,r,1.0,r,1.0,0.535777957999926,,,,,,,,,,2.0,6.0,30.0,1.0,208.5025563749996,,,,,,,,,,,,,,,,,208.4968987909997,208.8434575829997,209.63371583299977,209.629135958,,,,,,,,,,,,,,,,,,,,,,,,,,,,,,,,,,,209.6293701659997,209.63371583299977,209.63371583299977,210.1799817909996,r,1.0,0.535777957999926,,,,,,sub-023,2,stroop_test,,
,,,,31.0,7.0,2.0,,,,,,,,,,,,,gelb,yellow,g,1.0,g,1.0,0.4465572500002963,,,,,,,,,,2.0,7.0,31.0,10.0,210.18600466599992,,,,,,,,,,,,,,,,,210.180240833,211.376414333,212.16862566600005,212.16247366599964,,,,,,,,,,,,,,,,,,,,,,,,,,,,,,,,,,,212.16420737499996,212.16862566600005,212.16862566600005,212.61880774999963,g,1.0,0.4465572500002963,,,,,,sub-023,2,stroop_test,,
,,,,32.0,8.0,2.0,,,,,,,,,,,,,blau,blue,b,1.0,b,1.0,0.5408805830002166,,,,,,,,,,2.0,8.0,32.0,6.0,212.626277458,,,,,,,,,,,,,,,,,212.61904724999977,212.71557891599969,213.50960199999963,213.501633458,,,,,,,,,,,,,,,,,,,,,,,,,,,,,,,,,,,213.50335504099985,213.50960199999963,213.50960199999963,214.0522938749996,b,1.0,0.5408805830002166,,,,,,sub-023,2,stroop_test,,
,,,,33.0,9.0,2.0,,,,,,,,,,,,,blau,red,r,0.0,r,1.0,0.4387796670002899,,,,,,,,,,2.0,9.0,33.0,4.0,214.05966141599995,,,,,,,,,,,,,,,,,214.05253512499985,214.3994168749996,215.19339358299976,215.18544574999987,,,,,,,,,,,,,,,,,,,,,,,,,,,,,,,,,,,215.185709291,215.19339358299976,215.19339358299976,215.63586808299988,r,1.0,0.4387796670002899,,,,,,sub-023,2,stroop_test,,
,,,,34.0,10.0,2.0,,,,,,,,,,,,,blau,blue,b,1.0,b,1.0,0.3957371669998792,,,,,,,,,,2.0,10.0,34.0,5.0,215.64300087499987,,,,,,,,,,,,,,,,,215.63613175,216.8335506659996,217.6270647079996,217.61810345799995,,,,,,,,,,,,,,,,,,,,,,,,,,,,,,,,,,,217.618335916,217.6270647079996,217.6270647079996,218.030358,b,1.0,0.3957371669998792,,,,,,sub-023,2,stroop_test,,
,,,,35.0,11.0,2.0,,,,,,,,,,,,,gelb,red,r,0.0,r,1.0,0.5926175419999709,,,,,,,,,,2.0,11.0,35.0,8.0,218.03631370799985,,,,,,,,,,,,,,,,,218.030649416,218.1271465,218.91964899999996,218.91304333299968,,,,,,,,,,,,,,,,,,,,,,,,,,,,,,,,,,,218.9149914159998,218.91964899999996,218.91964899999996,219.51357841599972,r,1.0,0.5926175419999709,,,,,,sub-023,2,stroop_test,,
,,,,36.0,0.0,3.0,,,,,,,,,,,,,gelb,yellow,g,1.0,g,1.0,0.4545381249999991,,,,,,,,,,3.0,0.0,36.0,10.0,219.51735074999988,,,,,,,,,,,,,,,,,219.5138190409998,219.86048887499965,220.651200625,220.6465844999998,,,,,,,,,,,,,,,,,,,,,,,,,,,,,,,,,,,220.64685491599997,220.651200625,220.651200625,221.1135331659998,g,1.0,0.4545381249999991,,,,,,sub-023,2,stroop_test,,
,,,,37.0,1.0,3.0,,,,,,,,,,,,,blau,blue,b,1.0,b,1.0,0.4282035839996752,,,,,,,,,,3.0,1.0,37.0,5.0,221.1192348749996,,,,,,,,,,,,,,,,,221.1137704159996,221.91049433299983,222.702618541,222.6962081659999,,,,,,,,,,,,,,,,,,,,,,,,,,,,,,,,,,,222.6979511659997,222.702618541,222.702618541,223.1352566659998,b,1.0,0.4282035839996752,,,,,,sub-023,2,stroop_test,,
,,,,38.0,2.0,3.0,,,,,,,,,,,,,gelb,red,r,0.0,r,1.0,0.5400891250001223,,,,,,,,,,3.0,2.0,38.0,8.0,223.1434447499996,,,,,,,,,,,,,,,,,223.13549299999977,223.48297962499964,224.2767071659996,224.26878524999984,,,,,,,,,,,,,,,,,,,,,,,,,,,,,,,,,,,224.27055779099965,224.2767071659996,224.2767071659996,224.81955416599976,r,1.0,0.5400891250001223,,,,,,sub-023,2,stroop_test,,
,,,,39.0,3.0,3.0,,,,,,,,,,,,,rot,red,r,1.0,r,1.0,0.4185360839996974,,,,,,,,,,3.0,3.0,39.0,1.0,224.8267072499998,,,,,,,,,,,,,,,,,224.81979437499967,225.61658266599989,226.410111916,226.40189937499963,,,,,,,,,,,,,,,,,,,,,,,,,,,,,,,,,,,226.4035749579998,226.410111916,226.410111916,226.83051983299995,r,1.0,0.4185360839996974,,,,,,sub-023,2,stroop_test,,
,,,,40.0,4.0,3.0,,,,,,,,,,,,,blau,yellow,g,0.0,g,1.0,0.6148142500001086,,,,,,,,,,3.0,4.0,40.0,7.0,226.83622987499984,,,,,,,,,,,,,,,,,226.830776666,226.92746879099968,227.7198868749997,227.7134254579996,,,,,,,,,,,,,,,,,,,,,,,,,,,,,,,,,,,227.715237333,227.7198868749997,227.7198868749997,228.3362640829996,g,1.0,0.6148142500001086,,,,,,sub-023,2,stroop_test,,
,,,,41.0,5.0,3.0,,,,,,,,,,,,,rot,blue,b,0.0,b,1.0,0.3806557500001872,,,,,,,,,,3.0,5.0,41.0,2.0,228.3434479579996,,,,,,,,,,,,,,,,,228.3364978749996,228.68345837499965,229.47686937499972,229.46865916599967,,,,,,,,,,,,,,,,,,,,,,,,,,,,,,,,,,,229.47034337499963,229.47686937499972,229.47686937499972,229.86386383299987,b,1.0,0.3806557500001872,,,,,,sub-023,2,stroop_test,,
,,,,42.0,6.0,3.0,,,,,,,,,,,,,rot,yellow,g,0.0,r,0.0,0.7727274580001904,,,,,,,,,,3.0,6.0,42.0,3.0,229.869469708,,,,,,,,,,,,,,,,,229.86409758299988,229.96096229099976,230.7511613749998,230.74662224999972,,,,,,,,,,,,,,,,,,,,,,,,,,,,,,,,,,,230.7468712079999,230.7511613749998,230.7511613749998,231.53066408299992,r,0.0,0.7727274580001904,,,,,,sub-023,2,stroop_test,,
,,,,43.0,7.0,3.0,,,,,,,,,,,,,gelb,yellow,g,1.0,g,1.0,0.6144370839997464,,,,,,,,,,3.0,7.0,43.0,11.0,231.53622870799973,,,,,,,,,,,,,,,,,231.5309044999999,231.87737470799996,232.67004508299988,232.6633117499996,,,,,,,,,,,,,,,,,,,,,,,,,,,,,,,,,,,232.6652963749998,232.67004508299988,232.67004508299988,233.28653158299997,g,1.0,0.6144370839997464,,,,,,sub-023,2,stroop_test,,
,,,,44.0,8.0,3.0,,,,,,,,,,,,,blau,blue,b,1.0,b,1.0,0.8478687090000676,,,,,,,,,,3.0,8.0,44.0,6.0,233.29368020799984,,,,,,,,,,,,,,,,,233.28677062499992,233.38373649999997,234.1770475409999,234.16865179099975,,,,,,,,,,,,,,,,,,,,,,,,,,,,,,,,,,,234.17080399999983,234.1770475409999,234.1770475409999,235.0307429999998,b,1.0,0.8478687090000676,,,,,,sub-023,2,stroop_test,,
,,,,45.0,9.0,3.0,,,,,,,,,,,,,gelb,blue,b,0.0,b,1.0,0.509389709000061,,,,,,,,,,3.0,9.0,45.0,9.0,235.036742583,,,,,,,,,,,,,,,,,235.03101074999995,235.1277638749998,235.9194709999997,235.9132669579999,,,,,,,,,,,,,,,,,,,,,,,,,,,,,,,,,,,235.91495129099985,235.9194709999997,235.9194709999997,236.43096287499972,b,1.0,0.509389709000061,,,,,,sub-023,2,stroop_test,,
,,,,46.0,10.0,3.0,,,,,,,,,,,,,rot,red,r,1.0,r,1.0,0.7133260000000519,,,,,,,,,,3.0,10.0,46.0,0.0,236.43677637499968,,,,,,,,,,,,,,,,,236.431202625,236.52779133299964,237.3197604999996,237.31326949999996,,,,,,,,,,,,,,,,,,,,,,,,,,,,,,,,,,,237.3149498329999,237.3197604999996,237.3197604999996,238.0364123749996,r,1.0,0.7133260000000519,,,,,,sub-023,2,stroop_test,,
,,,,47.0,11.0,3.0,,,,,,,,,,,,,blau,red,r,0.0,r,1.0,0.6211675829999876,,,,,,,,,,3.0,11.0,47.0,4.0,238.04387308299965,,,,,,,,,,,,,,,,,238.03668654099965,239.2341386659996,240.02721816599976,240.0191236659998,,,,,,,,,,,,,,,,,,,,,,,,,,,,,,,,,,,240.020819458,240.02721816599976,240.02721816599976,240.65337841599967,r,1.0,0.6211675829999876,,,,,,sub-023,2,stroop_test,,
,,,,48.0,0.0,4.0,,,,,,,,,,,,,gelb,red,r,0.0,r,1.0,0.6403675000001385,,,,,,,,,,4.0,0.0,48.0,8.0,240.66053399999964,,,,,,,,,,,,,,,,,240.65365566599985,241.45053074999987,242.24396920799973,242.2358262909997,,,,,,,,,,,,,,,,,,,,,,,,,,,,,,,,,,,242.2376946659997,242.24396920799973,242.24396920799973,242.8863172499996,r,1.0,0.6403675000001385,,,,,,sub-023,2,stroop_test,,
,,,,49.0,1.0,4.0,,,,,,,,,,,,,rot,blue,b,0.0,b,1.0,0.6536615420000089,,,,,,,,,,4.0,1.0,49.0,2.0,242.89404962499972,,,,,,,,,,,,,,,,,242.8865993329996,243.23365074999992,244.02736291599967,244.01933729099983,,,,,,,,,,,,,,,,,,,,,,,,,,,,,,,,,,,244.0211661659996,244.02736291599967,244.02736291599967,244.6867753329998,b,1.0,0.6536615420000089,,,,,,sub-023,2,stroop_test,,
,,,,50.0,2.0,4.0,,,,,,,,,,,,,gelb,yellow,g,1.0,g,1.0,0.6691595419997611,,,,,,,,,,4.0,2.0,50.0,10.0,244.6940271249996,,,,,,,,,,,,,,,,,244.6870483749999,245.03408054099964,245.82741870799964,245.819968625,,,,,,,,,,,,,,,,,,,,,,,,,,,,,,,,,,,245.8219047079997,245.82741870799964,245.82741870799964,246.497850666,g,1.0,0.6691595419997611,,,,,,sub-023,2,stroop_test,,
,,,,51.0,3.0,4.0,,,,,,,,,,,,,rot,red,r,1.0,r,1.0,0.433529333000024,,,,,,,,,,4.0,3.0,51.0,1.0,246.50354333299995,,,,,,,,,,,,,,,,,246.4981083749999,247.29496112499965,248.08705191599984,248.080464958,,,,,,,,,,,,,,,,,,,,,,,,,,,,,,,,,,,248.08227070799967,248.08705191599984,248.08705191599984,248.5310459159996,r,1.0,0.433529333000024,,,,,,sub-023,2,stroop_test,,
,,,,52.0,4.0,4.0,,,,,,,,,,,,,blau,blue,b,1.0,b,1.0,0.53979366700014,,,,,,,,,,4.0,4.0,52.0,6.0,248.53664791599977,,,,,,,,,,,,,,,,,248.53127887499977,248.87789291599984,249.6701222499996,249.66368533299965,,,,,,,,,,,,,,,,,,,,,,,,,,,,,,,,,,,249.66553408299976,249.6701222499996,249.6701222499996,250.21458649999977,b,1.0,0.53979366700014,,,,,,sub-023,2,stroop_test,,
,,,,53.0,5.0,4.0,,,,,,,,,,,,,gelb,yellow,g,1.0,g,1.0,0.5708531250002125,,,,,,,,,,4.0,5.0,53.0,11.0,250.2205251659998,,,,,,,,,,,,,,,,,250.21484695799973,250.56161912499965,251.352818416,251.3468544579996,,,,,,,,,,,,,,,,,,,,,,,,,,,,,,,,,,,251.3484962079997,251.352818416,251.352818416,251.93140204099973,g,1.0,0.5708531250002125,,,,,,sub-023,2,stroop_test,,
,,,,54.0,6.0,4.0,,,,,,,,,,,,,gelb,blue,b,0.0,b,1.0,0.5314924999997857,,,,,,,,,,4.0,6.0,54.0,9.0,251.937226,,,,,,,,,,,,,,,,,251.93168608299996,252.02826024999968,252.81861954099983,252.8139323749997,,,,,,,,,,,,,,,,,,,,,,,,,,,,,,,,,,,252.81418158299996,252.81861954099983,252.81861954099983,253.3541560829999,b,1.0,0.5314924999997857,,,,,,sub-023,2,stroop_test,,
,,,,55.0,7.0,4.0,,,,,,,,,,,,,blau,red,r,0.0,r,1.0,0.5682919590003621,,,,,,,,,,4.0,7.0,55.0,4.0,253.36104983299992,,,,,,,,,,,,,,,,,253.35443883299968,253.4517432499997,254.244900958,254.2373521249997,,,,,,,,,,,,,,,,,,,,,,,,,,,,,,,,,,,254.239706333,254.244900958,254.244900958,254.81474974999992,r,1.0,0.5682919590003621,,,,,,sub-023,2,stroop_test,,
,,,,56.0,8.0,4.0,,,,,,,,,,,,,rot,red,r,1.0,r,1.0,0.4875994169997284,,,,,,,,,,4.0,8.0,56.0,0.0,254.82033729099976,,,,,,,,,,,,,,,,,254.81498595799985,255.6117316659997,256.40418524999995,256.3974196659997,,,,,,,,,,,,,,,,,,,,,,,,,,,,,,,,,,,256.399477166,256.40418524999995,256.40418524999995,256.89775133299963,r,1.0,0.4875994169997284,,,,,,sub-023,2,stroop_test,,
,,,,57.0,9.0,4.0,,,,,,,,,,,,,blau,yellow,g,0.0,g,1.0,0.6219645000001037,,,,,,,,,,4.0,9.0,57.0,7.0,256.90371237499994,,,,,,,,,,,,,,,,,256.8979916659996,257.69522849999976,258.4873782079999,258.4808654579997,,,,,,,,,,,,,,,,,,,,,,,,,,,,,,,,,,,258.4827654579999,258.4873782079999,258.4873782079999,259.115324375,g,1.0,0.6219645000001037,,,,,,sub-023,2,stroop_test,,
,,,,58.0,10.0,4.0,,,,,,,,,,,,,blau,blue,b,1.0,b,1.0,0.5447429169998941,,,,,,,,,,4.0,10.0,58.0,5.0,259.1211239999998,,,,,,,,,,,,,,,,,259.11562074999983,260.31196895799985,261.10249133299976,261.0979115,,,,,,,,,,,,,,,,,,,,,,,,,,,,,,,,,,,261.098174708,261.10249133299976,261.10249133299976,261.6485699159998,b,1.0,0.5447429169998941,,,,,,sub-023,2,stroop_test,,
,,,,59.0,11.0,4.0,,,,,,,,,,,,,rot,yellow,g,0.0,g,1.0,0.7359921249999388,,,,,,,,,,4.0,11.0,59.0,3.0,261.65237495799965,,,,,,,,,,,,,,,,,261.648831041,262.4454415,263.23792020799965,263.2313208329997,,,,,,,,,,,,,,,,,,,,,,,,,,,,,,,,,,,263.23304545799965,263.23792020799965,263.23792020799965,263.98180379099995,g,1.0,0.7359921249999388,,,,,,sub-023,2,stroop_test,,
,,,,60.0,0.0,5.0,,,,,,,,,,,,,gelb,red,r,0.0,r,1.0,0.5161540839999361,,,,,,,,,,5.0,0.0,60.0,8.0,263.98765591599977,,,,,,,,,,,,,,,,,263.9820727499996,265.1788073749999,265.971210916,265.9647410829998,,,,,,,,,,,,,,,,,,,,,,,,,,,,,,,,,,,265.9666425829996,265.971210916,265.971210916,266.4987097079997,r,1.0,0.5161540839999361,,,,,,sub-023,2,stroop_test,,
,,,,61.0,1.0,5.0,,,,,,,,,,,,,blau,blue,b,1.0,b,1.0,0.5286330419999103,,,,,,,,,,5.0,1.0,61.0,6.0,266.5051038749998,,,,,,,,,,,,,,,,,266.499003208,267.69562074999976,268.4879075829999,268.4817079579998,,,,,,,,,,,,,,,,,,,,,,,,,,,,,,,,,,,268.4834176659997,268.4879075829999,268.4879075829999,269.0214381659998,b,1.0,0.5286330419999103,,,,,,sub-023,2,stroop_test,,
,,,,62.0,2.0,5.0,,,,,,,,,,,,,blau,yellow,g,0.0,g,1.0,0.5762204580000798,,,,,,,,,,5.0,2.0,62.0,7.0,269.02827691599987,,,,,,,,,,,,,,,,,269.0217239579997,270.2184546249996,271.012431916,271.00393270799987,,,,,,,,,,,,,,,,,,,,,,,,,,,,,,,,,,,271.00418629099977,271.012431916,271.012431916,271.5987623749997,g,1.0,0.5762204580000798,,,,,,sub-023,2,stroop_test,,
,,,,63.0,3.0,5.0,,,,,,,,,,,,,rot,yellow,g,0.0,g,1.0,0.5939629169997716,,,,,,,,,,5.0,3.0,63.0,3.0,271.6044023749996,,,,,,,,,,,,,,,,,271.59900445799985,272.79577574999985,273.5878912909998,273.5815755829999,,,,,,,,,,,,,,,,,,,,,,,,,,,,,,,,,,,273.583254916,273.5878912909998,273.5878912909998,274.1879950409998,g,1.0,0.5939629169997716,,,,,,sub-023,2,stroop_test,,
,,,,64.0,4.0,5.0,,,,,,,,,,,,,rot,blue,b,0.0,b,1.0,0.4942762499999844,,,,,,,,,,5.0,4.0,64.0,2.0,274.195115,,,,,,,,,,,,,,,,,274.18827333299987,274.5351983329997,275.32918004099974,275.32064541599993,,,,,,,,,,,,,,,,,,,,,,,,,,,,,,,,,,,275.32087895799987,275.32918004099974,275.32918004099974,275.8322723749998,b,1.0,0.4942762499999844,,,,,,sub-023,2,stroop_test,,
,,,,65.0,5.0,5.0,,,,,,,,,,,,,blau,red,r,0.0,r,1.0,0.7258489999999256,,,,,,,,,,5.0,5.0,65.0,4.0,275.8380874999998,,,,,,,,,,,,,,,,,275.8325044579997,275.9291910829997,276.72143441599974,276.7147547909999,,,,,,,,,,,,,,,,,,,,,,,,,,,,,,,,,,,276.71666820799965,276.72143441599974,276.72143441599974,277.4486243749998,r,1.0,0.7258489999999256,,,,,,sub-023,2,stroop_test,,
,,,,66.0,6.0,5.0,,,,,,,,,,,,,gelb,yellow,g,1.0,g,1.0,0.442937583999992,,,,,,,,,,5.0,6.0,66.0,10.0,277.45427137499973,,,,,,,,,,,,,,,,,277.44885991599995,278.6459767079996,279.438112416,279.431840791,,,,,,,,,,,,,,,,,,,,,,,,,,,,,,,,,,,279.43363166599966,279.438112416,279.438112416,279.88773116599987,g,1.0,0.442937583999992,,,,,,sub-023,2,stroop_test,,
,,,,67.0,7.0,5.0,,,,,,,,,,,,,rot,red,r,1.0,r,1.0,0.6129512920001616,,,,,,,,,,5.0,7.0,67.0,0.0,279.89533270799984,,,,,,,,,,,,,,,,,279.8879873329997,281.0853039159997,281.87871987499966,281.8709913329999,,,,,,,,,,,,,,,,,,,,,,,,,,,,,,,,,,,281.8726362499997,281.87871987499966,281.87871987499966,282.4992017909999,r,1.0,0.6129512920001616,,,,,,sub-023,2,stroop_test,,
,,,,68.0,8.0,5.0,,,,,,,,,,,,,rot,red,r,1.0,b,0.0,0.4382853339998291,,,,,,,,,,5.0,8.0,68.0,1.0,282.5051129579997,,,,,,,,,,,,,,,,,282.49948904099983,283.29626570799974,284.086376625,284.0817252079996,,,,,,,,,,,,,,,,,,,,,,,,,,,,,,,,,,,284.08198187499966,284.086376625,284.086376625,284.5323115829997,b,0.0,0.4382853339998291,,,,,,sub-023,2,stroop_test,,
,,,,69.0,9.0,5.0,,,,,,,,,,,,,gelb,yellow,g,1.0,g,1.0,0.6432209999998122,,,,,,,,,,5.0,9.0,69.0,11.0,284.53827754099984,,,,,,,,,,,,,,,,,284.53261504099964,284.879193708,285.67220174999966,285.66545879099976,,,,,,,,,,,,,,,,,,,,,,,,,,,,,,,,,,,285.66741587499973,285.67220174999966,285.67220174999966,286.3216112079999,g,1.0,0.6432209999998122,,,,,,sub-023,2,stroop_test,,
,,,,70.0,10.0,5.0,,,,,,,,,,,,,gelb,blue,b,0.0,b,1.0,0.545102333000159,,,,,,,,,,5.0,10.0,70.0,9.0,286.32884691599975,,,,,,,,,,,,,,,,,286.32187799999974,287.5191598749998,288.31301975,288.304511541,,,,,,,,,,,,,,,,,,,,,,,,,,,,,,,,,,,288.3047364579997,288.31301975,288.31301975,288.86591174999967,b,1.0,0.545102333000159,,,,,,sub-023,2,stroop_test,,
,,,,71.0,11.0,5.0,,,,,,,,,,,,,blau,blue,b,1.0,b,1.0,0.648633540999981,,,,,,,,,,5.0,11.0,71.0,5.0,288.8717111249998,,,,,,,,,,,,,,,,,288.8661466659996,288.96252849999973,289.75526916599983,289.7489008749999,,,,,,,,,,,,,,,,,,,,,,,,,,,,,,,,,,,289.750741458,289.75526916599983,289.75526916599983,290.4051960409997,b,1.0,0.648633540999981,,,,,,sub-023,2,stroop_test,,
,,,,72.0,0.0,6.0,,,,,,,,,,,,,rot,blue,b,0.0,b,1.0,0.6291889169997376,,,,,,,,,,6.0,0.0,72.0,2.0,290.4130420409997,,,,,,,,,,,,,,,,,290.40543445799995,290.5023121659997,291.29570691599974,291.2885552079997,,,,,,,,,,,,,,,,,,,,,,,,,,,,,,,,,,,291.2902396249997,291.29570691599974,291.29570691599974,291.932700375,b,1.0,0.6291889169997376,,,,,,sub-023,2,stroop_test,,
,,,,73.0,1.0,6.0,,,,,,,,,,,,,blau,red,r,0.0,r,1.0,0.6357015830003547,,,,,,,,,,6.0,1.0,73.0,4.0,291.93845704099977,,,,,,,,,,,,,,,,,291.93295737499966,292.279840958,293.0722217079997,293.065586791,,,,,,,,,,,,,,,,,,,,,,,,,,,,,,,,,,,293.0675296659997,293.0722217079997,293.0722217079997,293.7159980409997,r,1.0,0.6357015830003547,,,,,,sub-023,2,stroop_test,,
,,,,74.0,2.0,6.0,,,,,,,,,,,,,rot,yellow,g,0.0,g,1.0,0.4470235419998971,,,,,,,,,,6.0,2.0,74.0,3.0,293.72179745799986,,,,,,,,,,,,,,,,,293.71625045799965,293.813189083,294.6054334579999,294.5989997499996,,,,,,,,,,,,,,,,,,,,,,,,,,,,,,,,,,,294.6006639579996,294.6054334579999,294.6054334579999,295.055079666,g,1.0,0.4470235419998971,,,,,,sub-023,2,stroop_test,,
,,,,75.0,3.0,6.0,,,,,,,,,,,,,gelb,red,r,0.0,r,1.0,0.7513712919999307,,,,,,,,,,6.0,3.0,75.0,8.0,295.0625144159999,,,,,,,,,,,,,,,,,295.0553507909999,296.2526435,297.052798791,297.047888958,,,,,,,,,,,,,,,,,,,,,,,,,,,,,,,,,,,297.0490044579997,297.052798791,297.052798791,297.80576379099966,r,1.0,0.7513712919999307,,,,,,sub-023,2,stroop_test,,
,,,,76.0,4.0,6.0,,,,,,,,,,,,,rot,red,r,1.0,r,1.0,0.4999245829999381,,,,,,,,,,6.0,4.0,76.0,0.0,297.8125786249998,,,,,,,,,,,,,,,,,297.80601099999967,298.6023640829999,299.3960257079998,299.38790674999973,,,,,,,,,,,,,,,,,,,,,,,,,,,,,,,,,,,299.3897641249996,299.3960257079998,299.3960257079998,299.89976154099986,r,1.0,0.4999245829999381,,,,,,sub-023,2,stroop_test,,
,,,,77.0,5.0,6.0,,,,,,,,,,,,,gelb,yellow,g,1.0,g,1.0,0.5263382499997533,,,,,,,,,,6.0,5.0,77.0,11.0,299.90548924999985,,,,,,,,,,,,,,,,,299.90000337499987,300.2468144159998,301.038933416,301.03258308299974,,,,,,,,,,,,,,,,,,,,,,,,,,,,,,,,,,,301.0343043329999,301.038933416,301.038933416,301.566637291,g,1.0,0.5263382499997533,,,,,,sub-023,2,stroop_test,,
,,,,78.0,6.0,6.0,,,,,,,,,,,,,blau,blue,b,1.0,b,1.0,0.5190091250001387,,,,,,,,,,6.0,6.0,78.0,6.0,301.57047587499983,,,,,,,,,,,,,,,,,301.5668955829997,301.6633373749996,302.45527220799977,302.4491664579996,,,,,,,,,,,,,,,,,,,,,,,,,,,,,,,,,,,302.4508327499998,302.45527220799977,302.45527220799977,302.9831519999998,b,1.0,0.5190091250001387,,,,,,sub-023,2,stroop_test,,
,,,,79.0,7.0,6.0,,,,,,,,,,,,,rot,red,r,1.0,r,1.0,0.5637424159999682,,,,,,,,,,6.0,7.0,79.0,1.0,302.988727208,,,,,,,,,,,,,,,,,302.98339154099995,303.78030920799984,304.5722814159999,304.5660577909998,,,,,,,,,,,,,,,,,,,,,,,,,,,,,,,,,,,304.5677079999996,304.5722814159999,304.5722814159999,305.1388401659997,r,1.0,0.5637424159999682,,,,,,sub-023,2,stroop_test,,
,,,,80.0,8.0,6.0,,,,,,,,,,,,,gelb,blue,b,0.0,b,1.0,0.5352390409998407,,,,,,,,,,6.0,8.0,80.0,9.0,305.14625820799984,,,,,,,,,,,,,,,,,305.1390759579999,305.9358299999999,306.7299587499997,306.7214141659997,,,,,,,,,,,,,,,,,,,,,,,,,,,,,,,,,,,306.7229909579996,306.7299587499997,306.7299587499997,307.2706001249999,b,1.0,0.5352390409998407,,,,,,sub-023,2,stroop_test,,
,,,,81.0,9.0,6.0,,,,,,,,,,,,,blau,blue,b,1.0,b,1.0,0.535677165999914,,,,,,,,,,6.0,9.0,81.0,5.0,307.27985999999964,,,,,,,,,,,,,,,,,307.270767125,307.3687236249998,308.1630424159998,308.1547891659998,,,,,,,,,,,,,,,,,,,,,,,,,,,,,,,,,,,308.1564468329998,308.1630424159998,308.1630424159998,308.70002720799994,b,1.0,0.535677165999914,,,,,,sub-023,2,stroop_test,,
,,,,82.0,10.0,6.0,,,,,,,,,,,,,gelb,yellow,g,1.0,g,1.0,0.4678135000003749,,,,,,,,,,6.0,10.0,82.0,10.0,308.70371049999994,,,,,,,,,,,,,,,,,308.7002652909996,309.8971064579996,310.6893578749996,310.68280683299963,,,,,,,,,,,,,,,,,,,,,,,,,,,,,,,,,,,310.684715291,310.6893578749996,310.6893578749996,311.1668059999997,g,1.0,0.4678135000003749,,,,,,sub-023,2,stroop_test,,
,,,,83.0,11.0,6.0,,,,,,,,,,,,,blau,yellow,g,0.0,g,1.0,0.5351439170003687,,,,,,,,,,6.0,11.0,83.0,7.0,311.1724298749996,,,,,,,,,,,,,,,,,311.16706154099984,311.9638863749997,312.7560167079996,312.7497065409998,,,,,,,,,,,,,,,,,,,,,,,,,,,,,,,,,,,312.7514340409998,312.7560167079996,312.7560167079996,313.3001401659999,g,1.0,0.5351439170003687,,,,,,sub-023,2,stroop_test,,
,,,,84.0,0.0,7.0,,,,,,,,,,,,,gelb,yellow,g,1.0,g,1.0,0.4425747499999488,,,,,,,,,,7.0,0.0,84.0,10.0,313.305795708,,,,,,,,,,,,,,,,,313.3003735829998,314.09716112499973,314.8891034999997,314.8827267499996,,,,,,,,,,,,,,,,,,,,,,,,,,,,,,,,,,,314.884542416,314.8891034999997,314.8891034999997,315.33346299999994,g,1.0,0.4425747499999488,,,,,,sub-023,2,stroop_test,,
,,,,85.0,1.0,7.0,,,,,,,,,,,,,gelb,yellow,g,1.0,g,1.0,0.4718620000003284,,,,,,,,,,7.0,1.0,85.0,11.0,315.3390357909998,,,,,,,,,,,,,,,,,315.3337002079997,315.6806749999996,316.470869666,316.46630816599964,,,,,,,,,,,,,,,,,,,,,,,,,,,,,,,,,,,316.4665313329997,316.470869666,316.470869666,316.950532458,g,1.0,0.4718620000003284,,,,,,sub-023,2,stroop_test,,
,,,,86.0,2.0,7.0,,,,,,,,,,,,,rot,blue,b,0.0,b,1.0,0.5418622920001326,,,,,,,,,,7.0,2.0,86.0,2.0,316.9561323329999,,,,,,,,,,,,,,,,,316.9507649579996,317.0473358329996,317.8406541249997,317.8334921249998,,,,,,,,,,,,,,,,,,,,,,,,,,,,,,,,,,,317.83572987499974,317.8406541249997,317.8406541249997,318.38377945799994,b,1.0,0.5418622920001326,,,,,,sub-023,2,stroop_test,,
,,,,87.0,3.0,7.0,,,,,,,,,,,,,blau,yellow,g,0.0,g,1.0,0.7204422080003496,,,,,,,,,,7.0,3.0,87.0,7.0,318.3875077499997,,,,,,,,,,,,,,,,,318.3840189159996,318.4807643749996,319.2726173749997,319.2663997079999,,,,,,,,,,,,,,,,,,,,,,,,,,,,,,,,,,,319.2680990829999,319.2726173749997,319.2726173749997,320.0004904999996,g,1.0,0.7204422080003496,,,,,,sub-023,2,stroop_test,,
,,,,88.0,4.0,7.0,,,,,,,,,,,,,blau,blue,b,1.0,b,1.0,0.6322397919998366,,,,,,,,,,7.0,4.0,88.0,6.0,320.00635941599967,,,,,,,,,,,,,,,,,320.000726666,320.79751120799983,321.58777945799966,321.5832680829999,,,,,,,,,,,,,,,,,,,,,,,,,,,,,,,,,,,321.583507416,321.58777945799966,321.58777945799966,322.2231247079999,b,1.0,0.6322397919998366,,,,,,sub-023,2,stroop_test,,
,,,,89.0,5.0,7.0,,,,,,,,,,,,,rot,red,r,1.0,r,1.0,0.4092042500001298,,,,,,,,,,7.0,5.0,89.0,0.0,322.2301155,,,,,,,,,,,,,,,,,322.2233941249997,323.4207107909997,324.222993291,324.216701375,,,,,,,,,,,,,,,,,,,,,,,,,,,,,,,,,,,324.2184130409996,324.222993291,324.222993291,324.6339282079998,r,1.0,0.4092042500001298,,,,,,sub-023,2,stroop_test,,
,,,,90.0,6.0,7.0,,,,,,,,,,,,,blau,red,r,0.0,r,1.0,0.3992013749998477,,,,,,,,,,7.0,6.0,90.0,4.0,324.6377115409996,,,,,,,,,,,,,,,,,324.6341613329996,325.8310123749998,326.6232232909997,326.6169323749996,,,,,,,,,,,,,,,,,,,,,,,,,,,,,,,,,,,326.618647416,326.6232232909997,326.6232232909997,327.02369899999985,r,1.0,0.3992013749998477,,,,,,sub-023,2,stroop_test,,
,,,,91.0,7.0,7.0,,,,,,,,,,,,,blau,blue,b,1.0,b,1.0,0.5276539579999735,,,,,,,,,,7.0,7.0,91.0,5.0,327.0303635409996,,,,,,,,,,,,,,,,,327.02395558299986,327.81882504099985,328.6144544159997,328.605513083,,,,,,,,,,,,,,,,,,,,,,,,,,,,,,,,,,,328.60574337499975,328.6144544159997,328.6144544159997,329.1505224579996,b,1.0,0.5276539579999735,,,,,,sub-023,2,stroop_test,,
,,,,92.0,8.0,7.0,,,,,,,,,,,,,rot,red,r,1.0,r,1.0,0.6196130420003101,,,,,,,,,,7.0,8.0,92.0,1.0,329.15654749999976,,,,,,,,,,,,,,,,,329.1508144159998,329.94783879099987,330.739909291,330.7334953329996,,,,,,,,,,,,,,,,,,,,,,,,,,,,,,,,,,,330.73531862499976,330.739909291,330.739909291,331.3668309159998,r,1.0,0.6196130420003101,,,,,,sub-023,2,stroop_test,,
,,,,93.0,9.0,7.0,,,,,,,,,,,,,rot,yellow,g,0.0,g,1.0,0.5331998339997881,,,,,,,,,,7.0,9.0,93.0,3.0,331.3720038749998,,,,,,,,,,,,,,,,,331.36704775,332.5646234579999,333.35500108299993,333.3503671249996,,,,,,,,,,,,,,,,,,,,,,,,,,,,,,,,,,,333.3506552079998,333.35500108299993,333.35500108299993,333.8894997499997,g,1.0,0.5331998339997881,,,,,,sub-023,2,stroop_test,,
,,,,94.0,10.0,7.0,,,,,,,,,,,,,gelb,red,r,0.0,r,1.0,0.6022177500003636,,,,,,,,,,7.0,10.0,94.0,8.0,333.897365541,,,,,,,,,,,,,,,,,333.8897372499996,335.0871452499996,335.88062729099966,335.87262862499983,,,,,,,,,,,,,,,,,,,,,,,,,,,,,,,,,,,335.8743723329999,335.88062729099966,335.88062729099966,336.48401749999994,r,1.0,0.6022177500003636,,,,,,sub-023,2,stroop_test,,
,,,,95.0,11.0,7.0,,,,,,,,,,,,,gelb,blue,b,0.0,b,1.0,0.529949249999845,,,,,,,,,,7.0,11.0,95.0,9.0,336.48748583299994,,,,,,,,,,,,,,,,,336.484237875,336.83138495799994,337.6211546249997,337.61691241599965,,,,,,,,,,,,,,,,,,,,,,,,,,,,,,,,,,,337.61714783299976,337.6211546249997,337.6211546249997,338.1553107499999,b,1.0,0.529949249999845,,,,,,sub-023,2,stroop_test,,
,,,,96.0,0.0,8.0,,,,,,,,,,,,,gelb,blue,b,0.0,b,1.0,0.4951357920003829,,,,,,,,,,8.0,0.0,96.0,9.0,338.164238416,,,,,,,,,,,,,,,,,338.15547795799966,338.25460799999973,339.0480272909999,339.03966991599964,,,,,,,,,,,,,,,,,,,,,,,,,,,,,,,,,,,339.0398785409998,339.0480272909999,339.0480272909999,339.5512102499997,b,1.0,0.4951357920003829,,,,,,sub-023,2,stroop_test,,
,,,,97.0,1.0,8.0,,,,,,,,,,,,,rot,blue,b,0.0,b,1.0,0.496754165999846,,,,,,,,,,8.0,1.0,97.0,2.0,339.55726983299974,,,,,,,,,,,,,,,,,339.5514852909996,339.89791579099983,340.69008645799977,340.6836297079999,,,,,,,,,,,,,,,,,,,,,,,,,,,,,,,,,,,340.6853106659996,340.69008645799977,340.69008645799977,341.19048699999985,b,1.0,0.496754165999846,,,,,,sub-023,2,stroop_test,,
,,,,98.0,2.0,8.0,,,,,,,,,,,,,gelb,yellow,g,1.0,g,1.0,0.6027012499998818,,,,,,,,,,8.0,2.0,98.0,10.0,341.19750391599973,,,,,,,,,,,,,,,,,341.19072549999964,342.38769054099976,343.1809544159996,343.1731427909999,,,,,,,,,,,,,,,,,,,,,,,,,,,,,,,,,,,343.1749418329996,343.1809544159996,343.1809544159996,343.78493820799986,g,1.0,0.6027012499998818,,,,,,sub-023,2,stroop_test,,
,,,,99.0,3.0,8.0,,,,,,,,,,,,,blau,blue,b,1.0,b,1.0,0.6240401249997376,,,,,,,,,,8.0,3.0,99.0,6.0,343.7905451249999,,,,,,,,,,,,,,,,,343.785185791,344.13119212499987,344.9236515829998,344.9173102499999,,,,,,,,,,,,,,,,,,,,,,,,,,,,,,,,,,,344.919118625,344.9236515829998,344.9236515829998,345.55119225,b,1.0,0.6240401249997376,,,,,,sub-023,2,stroop_test,,
,,,,100.0,4.0,8.0,,,,,,,,,,,,,gelb,red,r,0.0,r,1.0,0.6194445420001102,,,,,,,,,,8.0,4.0,100.0,8.0,345.55487587499965,,,,,,,,,,,,,,,,,345.5514321659998,345.6483654159997,346.4402381249997,346.43397879099984,,,,,,,,,,,,,,,,,,,,,,,,,,,,,,,,,,,346.435663666,346.4402381249997,346.4402381249997,347.06815504099995,r,1.0,0.6194445420001102,,,,,,sub-023,2,stroop_test,,
,,,,101.0,5.0,8.0,,,,,,,,,,,,,blau,yellow,g,0.0,g,1.0,0.5622474159999911,,,,,,,,,,8.0,5.0,101.0,7.0,347.0741656249997,,,,,,,,,,,,,,,,,347.0684266249996,347.8651437909998,348.6574116249999,348.6509747079999,,,,,,,,,,,,,,,,,,,,,,,,,,,,,,,,,,,348.65284645799966,348.6574116249999,348.6574116249999,349.22383975,g,1.0,0.5622474159999911,,,,,,sub-023,2,stroop_test,,
,,,,102.0,6.0,8.0,,,,,,,,,,,,,blau,red,r,0.0,r,1.0,0.6877170839998143,,,,,,,,,,8.0,6.0,102.0,4.0,349.2311669159999,,,,,,,,,,,,,,,,,349.2241154579997,349.32134341599976,350.11519254099994,350.1063179159996,,,,,,,,,,,,,,,,,,,,,,,,,,,,,,,,,,,350.10655629099983,350.11519254099994,350.11519254099994,350.8073599579998,r,1.0,0.6877170839998143,,,,,,sub-023,2,stroop_test,,
,,,,103.0,7.0,8.0,,,,,,,,,,,,,gelb,yellow,g,1.0,g,1.0,0.6460977500000809,,,,,,,,,,8.0,7.0,103.0,11.0,350.8145401659999,,,,,,,,,,,,,,,,,350.8076259999998,351.604517708,352.39791283299974,352.39029479099963,,,,,,,,,,,,,,,,,,,,,,,,,,,,,,,,,,,352.39216399999987,352.39791283299974,352.39791283299974,353.0520554159998,g,1.0,0.6460977500000809,,,,,,sub-023,2,stroop_test,,
,,,,104.0,8.0,8.0,,,,,,,,,,,,,blau,blue,b,1.0,b,1.0,0.4496564159999252,,,,,,,,,,8.0,8.0,104.0,5.0,353.05799016599985,,,,,,,,,,,,,,,,,353.0523383329996,354.248640583,355.04053075,355.03437933299983,,,,,,,,,,,,,,,,,,,,,,,,,,,,,,,,,,,355.0360859999996,355.04053075,355.04053075,355.5019694159996,b,1.0,0.4496564159999252,,,,,,sub-023,2,stroop_test,,
,,,,105.0,9.0,8.0,,,,,,,,,,,,,rot,red,r,1.0,r,1.0,0.552363083000273,,,,,,,,,,8.0,9.0,105.0,1.0,355.5080821659999,,,,,,,,,,,,,,,,,355.502247375,355.8487531659998,356.6407401659999,356.63439383299965,,,,,,,,,,,,,,,,,,,,,,,,,,,,,,,,,,,356.6360539159996,356.6407401659999,356.6407401659999,357.2016726249999,r,1.0,0.552363083000273,,,,,,sub-023,2,stroop_test,,
,,,,106.0,10.0,8.0,,,,,,,,,,,,,rot,yellow,g,0.0,g,1.0,0.4514680000002045,,,,,,,,,,8.0,10.0,106.0,3.0,357.2076374579997,,,,,,,,,,,,,,,,,357.2019103329999,357.5488228749996,358.339091416,358.3345298749996,,,,,,,,,,,,,,,,,,,,,,,,,,,,,,,,,,,358.33477183299965,358.339091416,358.339091416,358.8016249999996,g,1.0,0.4514680000002045,,,,,,sub-023,2,stroop_test,,
,,,,107.0,11.0,8.0,,,,,,,,,,,,,rot,red,r,1.0,r,1.0,0.9779832919998626,,,,,,,,,,8.0,11.0,107.0,0.0,358.8073889159996,,,,,,,,,,,,,,,,,358.80193029099974,359.59874549999995,360.3891250409997,360.3845097909998,,,,,,,,,,,,,,,,,,,,,,,,,,,,,,,,,,,360.3847490409999,360.3891250409997,360.3891250409997,361.3683013749997,r,1.0,0.9779832919998626,,,,,,sub-023,2,stroop_test,,
,,,,108.0,0.0,9.0,,,,,,,,,,,,,blau,yellow,g,0.0,g,1.0,0.6704593340000429,,,,,,,,,,9.0,0.0,108.0,7.0,361.3734746249997,,,,,,,,,,,,,,,,,361.3685302499998,361.71562616599977,362.5079363749997,362.5014057909998,,,,,,,,,,,,,,,,,,,,,,,,,,,,,,,,,,,362.5033193329996,362.5079363749997,362.5079363749997,363.1852568329996,g,1.0,0.6704593340000429,,,,,,sub-023,2,stroop_test,,
,,,,109.0,1.0,9.0,,,,,,,,,,,,,rot,blue,b,0.0,b,1.0,0.4865440829998988,,,,,,,,,,9.0,1.0,109.0,2.0,363.1912466659997,,,,,,,,,,,,,,,,,363.185538666,363.9823803749996,364.7742165,364.7677496249999,,,,,,,,,,,,,,,,,,,,,,,,,,,,,,,,,,,364.7695677499996,364.7742165,364.7742165,365.2686932909997,b,1.0,0.4865440829998988,,,,,,sub-023,2,stroop_test,,
,,,,110.0,2.0,9.0,,,,,,,,,,,,,blau,red,r,0.0,r,1.0,1.2033605410001655,,,,,,,,,,9.0,2.0,110.0,4.0,365.2747494579999,,,,,,,,,,,,,,,,,365.268994,366.0657436249999,366.8578874579998,366.8516586659998,,,,,,,,,,,,,,,,,,,,,,,,,,,,,,,,,,,366.8534023749999,366.8578874579998,366.8578874579998,368.0688502079997,r,1.0,1.2033605410001655,,,,,,sub-023,2,stroop_test,,
,,,,111.0,3.0,9.0,,,,,,,,,,,,,gelb,red,r,0.0,r,1.0,0.5953074169997308,,,,,,,,,,9.0,3.0,111.0,8.0,368.074768083,,,,,,,,,,,,,,,,,368.06913504099975,368.1658044579999,368.95541104099993,368.9505034579997,,,,,,,,,,,,,,,,,,,,,,,,,,,,,,,,,,,368.9516306659998,368.95541104099993,368.95541104099993,369.5521440409998,r,1.0,0.5953074169997308,,,,,,sub-023,2,stroop_test,,
,,,,112.0,4.0,9.0,,,,,,,,,,,,,rot,yellow,g,0.0,g,1.0,0.4624960830001328,,,,,,,,,,9.0,4.0,112.0,3.0,369.5558754159997,,,,,,,,,,,,,,,,,369.5523799999996,370.3492645409997,371.14166420799984,371.13500237499966,,,,,,,,,,,,,,,,,,,,,,,,,,,,,,,,,,,371.13678891599966,371.14166420799984,371.14166420799984,371.607667708,g,1.0,0.4624960830001328,,,,,,sub-023,2,stroop_test,,
,,,,113.0,5.0,9.0,,,,,,,,,,,,,rot,red,r,1.0,r,1.0,0.5089903339999182,,,,,,,,,,9.0,5.0,113.0,0.0,371.6154932909999,,,,,,,,,,,,,,,,,371.6078917079999,372.4053340409996,373.1993365409999,373.1906671249999,,,,,,,,,,,,,,,,,,,,,,,,,,,,,,,,,,,373.1908934999997,373.1993365409999,373.1993365409999,373.718815791,r,1.0,0.5089903339999182,,,,,,sub-023,2,stroop_test,,
,,,,114.0,6.0,9.0,,,,,,,,,,,,,rot,red,r,1.0,r,1.0,0.4947312919998694,,,,,,,,,,9.0,6.0,114.0,1.0,373.7243738749999,,,,,,,,,,,,,,,,,373.719050791,373.8160054159998,374.6060733329996,374.60160929099993,,,,,,,,,,,,,,,,,,,,,,,,,,,,,,,,,,,374.60181133299966,374.6060733329996,374.6060733329996,375.1025225409999,r,1.0,0.4947312919998694,,,,,,sub-023,2,stroop_test,,
,,,,115.0,7.0,9.0,,,,,,,,,,,,,gelb,yellow,g,1.0,g,1.0,0.5132515840000451,,,,,,,,,,9.0,7.0,115.0,10.0,375.1062684579997,,,,,,,,,,,,,,,,,375.1027547909998,375.89914874999977,376.6916015409997,376.685064708,,,,,,,,,,,,,,,,,,,,,,,,,,,,,,,,,,,376.6869900829997,376.6916015409997,376.6916015409997,377.20851804099993,g,1.0,0.5132515840000451,,,,,,sub-023,2,stroop_test,,
,,,,116.0,8.0,9.0,,,,,,,,,,,,,gelb,yellow,g,1.0,g,1.0,0.6738011249999545,,,,,,,,,,9.0,8.0,116.0,11.0,377.2154692909999,,,,,,,,,,,,,,,,,377.2087950409996,377.5551893749998,378.3494973329998,378.3408741659996,,,,,,,,,,,,,,,,,,,,,,,,,,,,,,,,,,,378.34111104099975,378.3494973329998,378.3494973329998,379.025833791,g,1.0,0.6738011249999545,,,,,,sub-023,2,stroop_test,,
,,,,117.0,9.0,9.0,,,,,,,,,,,,,gelb,blue,b,0.0,b,1.0,0.634960584000055,,,,,,,,,,9.0,9.0,117.0,9.0,379.0322240829996,,,,,,,,,,,,,,,,,379.0260744579996,379.372250166,380.1662312079998,380.1577310829998,,,,,,,,,,,,,,,,,,,,,,,,,,,,,,,,,,,380.157984,380.1662312079998,380.1662312079998,380.8026866659998,b,1.0,0.634960584000055,,,,,,sub-023,2,stroop_test,,
,,,,118.0,10.0,9.0,,,,,,,,,,,,,blau,blue,b,1.0,b,1.0,0.609826874999726,,,,,,,,,,9.0,10.0,118.0,6.0,380.8064365,,,,,,,,,,,,,,,,,380.80294125,380.8993022079999,381.69178266599965,381.6852945829996,,,,,,,,,,,,,,,,,,,,,,,,,,,,,,,,,,,381.6871245829998,381.69178266599965,381.69178266599965,382.3029041659997,b,1.0,0.609826874999726,,,,,,sub-023,2,stroop_test,,
,,,,119.0,11.0,9.0,,,,,,,,,,,,,blau,blue,b,1.0,b,1.0,0.394600624999839,,,,,,,,,,9.0,11.0,119.0,5.0,382.306641875,,,,,,,,,,,,,,,,,382.3031455,382.399661041,383.1902622909997,383.1856580829999,,,,,,,,,,,,,,,,,,,,,,,,,,,,,,,,,,,383.1859058329997,383.1902622909997,383.1902622909997,383.5861639159998,b,1.0,0.394600624999839,,,,,,sub-023,2,stroop_test,,
,,,,,,,,,,,,,,,,,,,,,,,,,,,,,,,,,,,,,,,,,,,,,,,,,,,,,,,,,,,,,,,,,,,,,,,,,,,,,,,,,,,,,,,,,,,,,,,,,,,,,,383.5863032499997,383.5924801659999,388.5890459579996,388.58586799999966,sub-023,2,stroop_test,,
