wordCTK,colorCTK,corrAnsCTK,congruentCTK,thisN,thisTrialN,thisRepN,keyResp_CTK.keys,keyResp_CTK.corr,keyResp_CTK.rt,keyResp_CTK.duration,wordPractice,colorPractice,corrAnsPractice,congruentPractice,respPractice.keys,respPractice.corr,respPractice.rt,respPractice.duration,word,color,corrAns,congruent,keyResp_test_run.keys,keyResp_test_run.corr,keyResp_test_run.rt,keyResp_test_run.duration,trials_CTK.thisRepN,trials_CTK.thisTrialN,trials_CTK.thisN,trials_CTK.thisIndex,trials_practice.thisRepN,trials_practice.thisTrialN,trials_practice.thisN,trials_practice.thisIndex,trials_test.thisRepN,trials_test.thisTrialN,trials_test.thisN,trials_test.thisIndex,thisRow.t,notes,instruction.started,instr_text.started,instr_image.started,instr_resp.started,instruction.stopped,instr_resp.keys,instr_resp.rt,instr_resp.duration,instr_color_to_key.started,instr_ctk.started,resp_ctk.started,instr_color_to_key.stopped,resp_ctk.keys,resp_ctk.rt,resp_ctk.duration,ITI.started,fixcross.started,fixcross.stopped,ITI.stopped,color_to_key_run.started,stimulus_CTK.started,keyResp_CTK.started,color_to_key_run.stopped,trials_CTK.keyResp_CTK.keys,trials_CTK.keyResp_CTK.corr,trials_CTK.keyResp_CTK.rt,trials_CTK.keyResp_CTK.duration,instr_practice.started,instr_practice_text.started,instr_practice_resp.started,instr_practice.stopped,instr_practice_resp.keys,instr_practice_resp.rt,instr_practice_resp.duration,practice_run.started,stimulus_practice.started,respPractice.started,practice_run.stopped,trials_practice.respPractice.keys,trials_practice.respPractice.corr,trials_practice.respPractice.rt,trials_practice.respPractice.duration,feedback.started,textFeedback.started,feedback.stopped,textFeedback.stopped,instr_test.started,instr_test_text.started,instr_test_resp.started,instr_test.stopped,instr_test_resp.keys,instr_test_resp.rt,instr_test_resp.duration,test_run.started,stimulus_test_run.started,keyResp_test_run.started,test_run.stopped,trials_test.keyResp_test_run.keys,trials_test.keyResp_test_run.corr,trials_test.keyResp_test_run.rt,trials_test.keyResp_test_run.duration,goodbye.started,textGoodbye.started,goodbye.stopped,participant,session,expName,frameRate,Unnamed: 112
,,,,,,,,,,,,,,,,,,,,,,,,,,,,,,,,,,,,,,,,,0.0130432000005384,0.0507992710008693,0.0507992710008693,0.0507992710008693,62.29768214599972,space,62.188493534999,,,,,,,,,,,,,,,,,,,,,,,,,,,,,,,,,,,,,,,,,,,,,,,,,,,,,,,,,,sub-137,1,stroop_test,64.59579857275995,
,,,,,,,,,,,,,,,,,,,,,,,,,,,,,,,,,,,,,,,,,,,,,,,,,62.29781465799897,62.31567896499837,62.31567896499837,68.2589845879993,space,5.9391591739986325,,,,,,,,,,,,,,,,,,,,,,,,,,,,,,,,,,,,,,,,,,,,,,,,,,,sub-137,1,stroop_test,64.59579857275995,
test,red,r,1.0,0.0,0.0,0.0,r,1.0,3.068107904000499,,,,,,,,,,,,,,,,,,0.0,0.0,0.0,0.0,,,,,,,,,68.30791920100091,,,,,,,,,,,,,,,,,68.29367890600042,69.06709641400084,69.87210194200088,69.85414716299783,69.86080614900129,69.87210194200088,69.87210194200088,72.95402465100051,r,1.0,3.068107904000499,,,,,,,,,,,,,,,,,,,,,,,,,,,,,,,,,,,,,,,sub-137,1,stroop_test,64.59579857275995,
test,yellow,g,1.0,1.0,1.0,0.0,g,1.0,3.2030379220013856,,,,,,,,,,,,,,,,,,0.0,1.0,1.0,1.0,,,,,,,,,72.96496005299923,,,,,,,,,,,,,,,,,72.95447428099942,73.76542495299873,74.58207352699901,74.55866169499859,74.5591142029989,74.58207352699901,74.58207352699901,77.7913454970003,g,1.0,3.2030379220013856,,,,,,,,,,,,,,,,,,,,,,,,,,,,,,,,,,,,,,,sub-137,1,stroop_test,64.59579857275995,
test,blue,b,1.0,2.0,2.0,0.0,b,1.0,0.7302023330012162,,,,,,,,,,,,,,,,,,0.0,2.0,2.0,2.0,,,,,,,,,77.8152837589987,,,,,,,,,,,,,,,,,77.79179044299963,78.58870387299976,79.38917582000067,79.37729812299949,79.37794091699834,79.38917582000067,79.38917582000067,80.13503881200086,b,1.0,0.7302023330012162,,,,,,,,,,,,,,,,,,,,,,,,,,,,,,,,,,,,,,,sub-137,1,stroop_test,64.59579857275995,
test,red,r,1.0,3.0,0.0,1.0,r,1.0,0.7678283349996491,,,,,,,,,,,,,,,,,,1.0,0.0,3.0,0.0,,,,,,,,,80.14391232599883,,,,,,,,,,,,,,,,,80.13534207300108,80.2693629259993,81.07342092500039,81.06146522999916,81.06230299099843,81.07342092500039,81.07342092500039,81.84851373499987,r,1.0,0.7678283349996491,,,,,,,,,,,,,,,,,,,,,,,,,,,,,,,,,,,,,,,sub-137,1,stroop_test,64.59579857275995,
test,blue,b,1.0,4.0,1.0,1.0,b,1.0,1.0543785789996036,,,,,,,,,,,,,,,,,,1.0,1.0,4.0,2.0,,,,,,,,,81.85945252799866,,,,,,,,,,,,,,,,,81.84893557900068,82.6534428470004,83.46095241399962,83.45100234900019,83.45155135099776,83.46095241399962,83.46095241399962,84.52003865599909,b,1.0,1.0543785789996036,,,,,,,,,,,,,,,,,,,,,,,,,,,,,,,,,,,,,,,sub-137,1,stroop_test,64.59579857275995,
test,yellow,g,1.0,5.0,2.0,1.0,g,1.0,1.4696534390022862,,,,,,,,,,,,,,,,,,1.0,2.0,5.0,1.0,,,,,,,,,84.5315730809998,,,,,,,,,,,,,,,,,84.52048130600087,84.61904102399785,85.42454379599803,85.41314589899775,85.41396608200012,85.42454379599803,85.42454379599803,86.90990939499898,g,1.0,1.4696534390022862,,,,,,,,,,,,,,,,,,,,,,,,,,,,,,,,,,,,,,,sub-137,1,stroop_test,64.59579857275995,
test,yellow,g,1.0,6.0,0.0,2.0,g,1.0,0.9265475460015296,,,,,,,,,,,,,,,,,,2.0,0.0,6.0,1.0,,,,,,,,,86.92169720099992,,,,,,,,,,,,,,,,,86.9103309380007,87.70603712299999,88.50892651200047,88.49767413600057,88.49890813399907,88.50892651200047,88.50892651200047,89.4420495609993,g,1.0,0.9265475460015296,,,,,,,,,,,,,,,,,,,,,,,,,,,,,,,,,,,,,,,sub-137,1,stroop_test,64.59579857275995,
test,red,r,1.0,7.0,1.0,2.0,r,1.0,0.9438386110014108,,,,,,,,,,,,,,,,,,2.0,1.0,7.0,0.0,,,,,,,,,89.46517524699811,,,,,,,,,,,,,,,,,89.44234330600011,89.78986888299914,90.59710014099984,90.58620175399848,90.58711259199843,90.59710014099984,90.59710014099984,91.55216225099866,r,1.0,0.9438386110014108,,,,,,,,,,,,,,,,,,,,,,,,,,,,,,,,,,,,,,,sub-137,1,stroop_test,64.59579857275995,
test,blue,b,1.0,8.0,2.0,2.0,b,1.0,1.494545012999879,,,,,,,,,,,,,,,,,,2.0,2.0,8.0,2.0,,,,,,,,,91.56336720800029,,,,,,,,,,,,,,,,,91.55261012899793,91.65186641699984,92.45693422600016,92.4450320859978,92.44591924199996,92.45693422600016,92.45693422600016,93.95722959799969,b,1.0,1.494545012999879,,,,,,,,,,,,,,,,,,,,,,,,,,,,,,,,,,,,,,,sub-137,1,stroop_test,64.59579857275995,
test,blue,b,1.0,9.0,0.0,3.0,b,1.0,0.5200303499987058,,,,,,,,,,,,,,,,,,3.0,0.0,9.0,2.0,,,,,,,,,93.96828195700073,,,,,,,,,,,,,,,,,93.95753549100118,94.7667588660006,95.56688122999913,95.55383285900098,95.55429531399932,95.56688122999913,95.56688122999913,96.1028885989981,b,1.0,0.5200303499987058,,,,,,,,,,,,,,,,,,,,,,,,,,,,,,,,,,,,,,,sub-137,1,stroop_test,64.59579857275995,
test,yellow,g,1.0,10.0,1.0,3.0,g,1.0,1.5960469999990892,,,,,,,,,,,,,,,,,,3.0,1.0,10.0,1.0,,,,,,,,,96.11440216399932,,,,,,,,,,,,,,,,,96.10333048900064,96.90070198800096,97.69523808899976,97.68447532699793,97.68506956900092,97.69523808899976,97.69523808899976,99.30574954799886,g,1.0,1.5960469999990892,,,,,,,,,,,,,,,,,,,,,,,,,,,,,,,,,,,,,,,sub-137,1,stroop_test,64.59579857275995,
test,red,r,1.0,11.0,2.0,3.0,r,1.0,0.8724722650003969,,,,,,,,,,,,,,,,,,3.0,2.0,11.0,0.0,,,,,,,,,99.31940152300012,,,,,,,,,,,,,,,,,99.30605089600068,99.6513196099986,100.45019235699874,100.43707750599788,100.43752874499842,100.45019235699874,100.45019235699874,101.33570452999992,r,1.0,0.8724722650003969,,,,,,,,,,,,,,,,,,,,,,,,,,,,,,,,,,,,,,,sub-137,1,stroop_test,64.59579857275995,
,,,,,,,,,,,,,,,,,,,,,,,,,,,,,,,,,,,,,,,,,,,,,,,,,,,,,,,,,,,,,,,,,,,,101.33584801699908,101.3483707310006,101.3483707310006,108.97472268500132,space,7.622328199999174,,,,,,,,,,,,,,,,,,,,,,,,,,,,,,,,sub-137,1,stroop_test,64.59579857275995,
,,,,0.0,0.0,0.0,,,,,gelb,red,r,0.0,g,0.0,1.2635432130009576,,,,,,,,,,,,,,0.0,0.0,0.0,8.0,,,,,108.99685084199882,,,,,,,,,,,,,,,,,108.98768901400037,109.3247183559979,110.13390352200076,110.11869989600018,,,,,,,,,,,,,,,,110.12378926900055,110.13390352200076,110.13390352200076,111.40201725500084,g,0.0,1.2635432130009576,,111.40955133799798,111.42065584399823,112.40604434499984,,,,,,,,,,,,,,,,,,,,sub-137,1,stroop_test,64.59579857275995,
,,,,1.0,1.0,0.0,,,,,gelb,blue,b,0.0,b,1.0,1.3392236689978745,,,,,,,,,,,,,,0.0,1.0,1.0,9.0,,,,,112.41769639599806,,,,,,,,,,,,,,,,,112.40641730900096,113.60949002100097,114.40874337599962,114.39710688099876,,,,,,,,,,,,,,,,114.39833524200004,114.40874337599962,114.40874337599962,115.75201733699942,b,1.0,1.3392236689978745,,115.75879127100052,115.7712967789994,116.76203790799993,,,,,,,,,,,,,,,,,,,,sub-137,1,stroop_test,64.59579857275995,
,,,,2.0,2.0,0.0,,,,,rot,red,r,1.0,r,1.0,1.9175452920026144,,,,,,,,,,,,,,0.0,2.0,2.0,1.0,,,,,116.77433492400088,,,,,,,,,,,,,,,,,116.76350413399996,116.85428303599838,117.65870695999912,117.64409891499965,,,,,,,,,,,,,,,,117.6490177070009,117.65870695999912,117.65870695999912,119.5827312379988,r,1.0,1.9175452920026144,,119.58321514199996,119.59438624899848,120.57947538200096,120.58934175399918,,,,,,,,,,,,,,,,,,,sub-137,1,stroop_test,64.59579857275995,
,,,,3.0,3.0,0.0,,,,,blau,yellow,g,0.0,g,1.0,2.062715159998333,,,,,,,,,,,,,,0.0,3.0,3.0,7.0,,,,,120.58934175399918,,,,,,,,,,,,,,,,,120.5798281009993,120.69975194699872,121.50448985500044,121.4884222740002,,,,,,,,,,,,,,,,121.49256705899823,121.50448985500044,121.50448985500044,123.57282260400098,g,1.0,2.062715159998333,,123.57339051600138,123.586664481998,124.57314699799826,124.5819111130004,,,,,,,,,,,,,,,,,,,sub-137,1,stroop_test,64.59579857275995,
,,,,4.0,4.0,0.0,,,,,rot,blue,b,0.0,b,1.0,0.8489387259978685,,,,,,,,,,,,,,0.0,4.0,4.0,2.0,,,,,124.5819111130004,,,,,,,,,,,,,,,,,124.5734470489988,125.37511442200048,126.17744800400033,126.163928957998,,,,,,,,,,,,,,,,126.16728795800007,126.17744800400033,126.17744800400033,127.03292439099825,b,1.0,0.8489387259978685,,127.03348218999965,127.0446552659996,128.0313253259992,128.04150012299942,,,,,,,,,,,,,,,,,,,sub-137,1,stroop_test,64.59579857275995,
,,,,5.0,5.0,0.0,,,,,gelb,yellow,g,1.0,g,1.0,0.7714368029992329,,,,,,,,,,,,,,0.0,5.0,5.0,10.0,,,,,128.04150012299942,,,,,,,,,,,,,,,,,128.03226086599898,128.38216544500028,129.1877130110006,129.1736312940011,,,,,,,,,,,,,,,,129.17653907400015,129.1877130110006,129.1877130110006,129.9660880429983,g,1.0,0.7714368029992329,,129.96664972099825,129.9786785010001,130.972189969998,,,,,,,,,,,,,,,,,,,,sub-137,1,stroop_test,64.59579857275995,
,,,,6.0,6.0,0.0,,,,,blau,blue,b,1.0,b,1.0,0.7902877400010766,,,,,,,,,,,,,,0.0,6.0,6.0,6.0,,,,,130.9840346050005,,,,,,,,,,,,,,,,,130.97271392299808,131.76733713499925,132.57627834199957,132.56248537599822,,,,,,,,,,,,,,,,132.56626145100017,132.57627834199957,132.57627834199957,133.37059674099874,b,1.0,0.7902877400010766,,133.37131435599804,133.38377927300098,134.37310315099967,,,,,,,,,,,,,,,,,,,,sub-137,1,stroop_test,64.59579857275995,
,,,,7.0,7.0,0.0,,,,,gelb,yellow,g,1.0,g,1.0,0.7467869669999345,,,,,,,,,,,,,,0.0,7.0,7.0,11.0,,,,,134.3855097630003,,,,,,,,,,,,,,,,,134.37341127200125,134.46706510199874,135.2725035000003,135.2574511950006,,,,,,,,,,,,,,,,135.26059143699968,135.2725035000003,135.2725035000003,136.0268423089983,g,1.0,0.7467869669999345,,136.027569681999,136.04021468000064,137.02766390299803,,,,,,,,,,,,,,,,,,,,sub-137,1,stroop_test,64.59579857275995,
,,,,8.0,8.0,0.0,,,,,rot,red,r,1.0,r,1.0,0.8847453169983055,,,,,,,,,,,,,,0.0,8.0,8.0,0.0,,,,,137.04045574399788,,,,,,,,,,,,,,,,,137.02905520299828,138.2256723440005,139.03038680600002,139.01785838199794,,,,,,,,,,,,,,,,139.02055783000105,139.03038680600002,139.03038680600002,139.92672215199855,r,1.0,0.8847453169983055,,139.92755251400013,139.93971293199866,140.93393887500133,,,,,,,,,,,,,,,,,,,,sub-137,1,stroop_test,64.59579857275995,
,,,,9.0,9.0,0.0,,,,,blau,red,r,0.0,b,0.0,0.983800642999995,,,,,,,,,,,,,,0.0,9.0,9.0,4.0,,,,,140.9429871559987,,,,,,,,,,,,,,,,,140.93438594300096,141.03316158699818,141.83728960699955,141.82291898399853,,,,,,,,,,,,,,,,141.82594787199923,141.83728960699955,141.83728960699955,142.826505437999,b,0.0,0.983800642999995,,142.83141041999988,142.84256490799817,143.83281438999984,,,,,,,,,,,,,,,,,,,,sub-137,1,stroop_test,64.59579857275995,
,,,,10.0,10.0,0.0,,,,,blau,blue,b,1.0,b,1.0,2.9867600530014897,,,,,,,,,,,,,,0.0,10.0,10.0,5.0,,,,,143.84152647500014,,,,,,,,,,,,,,,,,143.8331518499981,143.9294366139984,144.72977363599784,144.71819779900034,,,,,,,,,,,,,,,,144.71914223299973,144.72977363599784,144.72977363599784,147.71981494400097,b,1.0,2.9867600530014897,,147.72334435299854,147.73560241700034,148.7261172369981,,,,,,,,,,,,,,,,,,,,sub-137,1,stroop_test,64.59579857275995,
,,,,11.0,11.0,0.0,,,,,rot,yellow,g,0.0,g,1.0,2.17732046799938,,,,,,,,,,,,,,0.0,11.0,11.0,3.0,,,,,148.73901615999785,,,,,,,,,,,,,,,,,148.72719846199834,148.82238382099968,149.6268957430002,149.61297095099872,,,,,,,,,,,,,,,,149.617021484999,149.6268957430002,149.6268957430002,151.80978944199887,g,1.0,2.17732046799938,,151.8104781639995,151.82549232499878,152.8109440650005,152.8224295910004,,,,,,,,,,,,,,,,,,,sub-137,1,stroop_test,64.59579857275995,
,,,,12.0,0.0,1.0,,,,,blau,blue,b,1.0,b,1.0,1.295727438999165,,,,,,,,,,,,,,1.0,0.0,12.0,5.0,,,,,152.8224295910004,,,,,,,,,,,,,,,,,152.81129744400096,153.16893657699984,153.97063504299877,153.95614601499983,,,,,,,,,,,,,,,,153.9589234410014,153.97063504299877,153.97063504299877,155.28063907400065,b,1.0,1.295727438999165,,155.2812521579981,155.2926486280012,156.28049102599834,156.2902428349989,,,,,,,,,,,,,,,,,,,sub-137,1,stroop_test,64.59579857275995,
,,,,13.0,1.0,1.0,,,,,blau,blue,b,1.0,b,1.0,0.7700908439983323,,,,,,,,,,,,,,1.0,1.0,13.0,6.0,,,,,156.2902428349989,,,,,,,,,,,,,,,,,156.28114743300102,157.0818025160006,157.88533735199962,157.87243021700124,,,,,,,,,,,,,,,,157.87289220199818,157.88533735199962,157.88533735199962,158.66818209700068,b,1.0,0.7700908439983323,,158.66866888499862,158.68046744499952,159.66637097900093,159.67501042799995,,,,,,,,,,,,,,,,,,,sub-137,1,stroop_test,64.59579857275995,
,,,,14.0,2.0,1.0,,,,,rot,red,r,1.0,r,1.0,0.7084269250008219,,,,,,,,,,,,,,1.0,2.0,14.0,0.0,,,,,159.67501042799995,,,,,,,,,,,,,,,,,159.66675659400062,160.0219021499979,160.82598899499862,160.81245500099976,,,,,,,,,,,,,,,,160.81613432999802,160.82598899499862,160.82598899499862,161.54046459600067,r,1.0,0.7084269250008219,,161.5411238939996,161.5548750659982,162.54068250099954,,,,,,,,,,,,,,,,,,,,sub-137,1,stroop_test,64.59579857275995,
,,,,15.0,3.0,1.0,,,,,rot,red,r,1.0,r,1.0,0.6224220000003697,,,,,,,,,,,,,,1.0,3.0,15.0,1.0,,,,,162.54970185699858,,,,,,,,,,,,,,,,,162.54113891999805,163.34574659899954,164.14840062000076,164.13876500399783,,,,,,,,,,,,,,,,164.1392312829994,164.14840062000076,164.14840062000076,164.7746211980011,r,1.0,0.6224220000003697,,164.77535424300004,164.78782316199795,165.77532682799938,,,,,,,,,,,,,,,,,,,,sub-137,1,stroop_test,64.59579857275995,
,,,,16.0,4.0,1.0,,,,,gelb,red,r,0.0,r,1.0,0.5681304710014956,,,,,,,,,,,,,,1.0,4.0,16.0,8.0,,,,,165.78718603499874,,,,,,,,,,,,,,,,,165.77670500800014,165.87779093199788,166.68494104400088,166.6688145879998,,,,,,,,,,,,,,,,166.67147056400063,166.68494104400088,166.68494104400088,167.25783422300083,r,1.0,0.5681304710014956,,167.258573840998,167.2715833029979,168.2619281949992,,,,,,,,,,,,,,,,,,,,sub-137,1,stroop_test,64.59579857275995,
,,,,17.0,5.0,1.0,,,,,gelb,yellow,g,1.0,g,1.0,0.5930334490003588,,,,,,,,,,,,,,1.0,5.0,17.0,11.0,,,,,168.27316757299923,,,,,,,,,,,,,,,,,168.2634078589981,169.45511124599943,170.25490890400033,170.2435050210006,,,,,,,,,,,,,,,,170.24423499600016,170.25490890400033,170.25490890400033,170.85073821200058,g,1.0,0.5930334490003588,,170.85124708999865,170.8627813739986,171.85577372899934,,,,,,,,,,,,,,,,,,,,sub-137,1,stroop_test,64.59579857275995,
,,,,18.0,6.0,1.0,,,,,rot,blue,b,0.0,b,1.0,0.932930088998546,,,,,,,,,,,,,,1.0,6.0,18.0,2.0,,,,,171.86469252299867,,,,,,,,,,,,,,,,,171.85608430399952,173.0565591329978,173.8579634359994,173.84359272000074,,,,,,,,,,,,,,,,173.84805824999785,173.8579634359994,173.8579634359994,174.8074221429997,b,1.0,0.932930088998546,,174.80792719999954,174.83080106700072,175.81650331199853,,,,,,,,,,,,,,,,,,,,sub-137,1,stroop_test,64.59579857275995,
,,,,19.0,7.0,1.0,,,,,gelb,yellow,g,1.0,g,1.0,0.7203561639980762,,,,,,,,,,,,,,1.0,7.0,19.0,10.0,,,,,175.8282433029999,,,,,,,,,,,,,,,,,175.8180152269997,176.16580367999995,176.965805773998,176.95207456999924,,,,,,,,,,,,,,,,176.95536080599777,176.965805773998,176.965805773998,177.69844224600092,g,1.0,0.7203561639980762,,177.69893589599815,177.70973822700034,178.69912553999893,,,,,,,,,,,,,,,,,,,,sub-137,1,stroop_test,64.59579857275995,
,,,,20.0,8.0,1.0,,,,,blau,red,r,0.0,r,1.0,0.5156469390021812,,,,,,,,,,,,,,1.0,8.0,20.0,4.0,,,,,178.71036187500067,,,,,,,,,,,,,,,,,178.7005854759991,179.9157471619983,180.71465532300132,180.7016549459986,,,,,,,,,,,,,,,,180.70473901399964,180.71465532300132,180.71465532300132,181.23470821999945,r,1.0,0.5156469390021812,,181.23518905499805,181.24666171599893,182.23296112699973,182.24147458600052,,,,,,,,,,,,,,,,,,,sub-137,1,stroop_test,64.59579857275995,
,,,,21.0,9.0,1.0,,,,,blau,yellow,g,0.0,g,1.0,0.8559805749973748,,,,,,,,,,,,,,1.0,9.0,21.0,7.0,,,,,182.24147458600052,,,,,,,,,,,,,,,,,182.2332974359997,182.5856782999981,183.39028717399924,183.3781700030013,,,,,,,,,,,,,,,,183.3788168940009,183.39028717399924,183.39028717399924,184.25685936199807,g,1.0,0.8559805749973748,,184.25734037800063,184.2719557579985,185.25963553399924,,,,,,,,,,,,,,,,,,,,sub-137,1,stroop_test,64.59579857275995,
,,,,22.0,10.0,1.0,,,,,rot,yellow,g,0.0,g,1.0,1.121528682000644,,,,,,,,,,,,,,1.0,10.0,22.0,3.0,,,,,185.27255419799985,,,,,,,,,,,,,,,,,185.26115504399783,186.065969340998,186.86135968600135,186.8494258239989,,,,,,,,,,,,,,,,186.85180460699848,186.86135968600135,186.86135968600135,187.98880094999916,g,1.0,1.121528682000644,,187.9893738309984,188.01431995700116,188.9897692609993,,,,,,,,,,,,,,,,,,,,sub-137,1,stroop_test,64.59579857275995,
,,,,23.0,11.0,1.0,,,,,gelb,blue,b,0.0,b,1.0,0.9655483580027068,,,,,,,,,,,,,,1.0,11.0,23.0,9.0,,,,,189.00029727199944,,,,,,,,,,,,,,,,,188.99116508799847,189.3415385090011,190.1445144520003,190.13082116900117,,,,,,,,,,,,,,,,190.1345354269979,190.1445144520003,190.1445144520003,191.12513742100052,b,1.0,0.9655483580027068,,191.1258344939997,191.13992673399844,192.12654297100016,,,,,,,,,,,,,,,,,,,,sub-137,1,stroop_test,64.59579857275995,
,,,,,,,,,,,,,,,,,,,,,,,,,,,,,,,,,,,,,,,,,,,,,,,,,,,,,,,,,,,,,,,,,,,,,,,,,,,,,,,,,,,,,,,192.12743506300103,192.14011265799851,192.14011265799851,198.05587451500105,space,5.901919781001197,,,,,,,,,,,,,sub-137,1,stroop_test,64.59579857275995,
,,,,0.0,0.0,0.0,,,,,,,,,,,,,gelb,yellow,g,1.0,g,1.0,1.1859743749992049,,,,,,,,,,0.0,0.0,0.0,11.0,198.0839766680001,,,,,,,,,,,,,,,,,198.074176307,198.86012309799844,199.6631965460001,199.65049647699925,,,,,,,,,,,,,,,,,,,,,,,,,,,,,,,,,,,199.65315194800127,199.6631965460001,199.6631965460001,200.85783417499988,g,1.0,1.1859743749992049,,,,,sub-137,1,stroop_test,64.59579857275995,
,,,,1.0,1.0,0.0,,,,,,,,,,,,,rot,red,r,1.0,r,1.0,0.5963608189995284,,,,,,,,,,0.0,1.0,1.0,1.0,200.8716551280013,,,,,,,,,,,,,,,,,200.8582452619994,201.2081934659982,202.0122906309989,202.0002006149989,,,,,,,,,,,,,,,,,,,,,,,,,,,,,,,,,,,202.002537589,202.0122906309989,202.0122906309989,202.62060711099912,r,1.0,0.5963608189995284,,,,,sub-137,1,stroop_test,64.59579857275995,
,,,,2.0,2.0,0.0,,,,,,,,,,,,,rot,red,r,1.0,r,1.0,0.6218854940016172,,,,,,,,,,0.0,2.0,2.0,0.0,202.6307636800011,,,,,,,,,,,,,,,,,202.6209447459987,202.72572898,203.5262528159983,203.51666842600025,,,,,,,,,,,,,,,,,,,,,,,,,,,,,,,,,,,203.51711209099813,203.5262528159983,203.5262528159983,204.15650087500035,r,1.0,0.6218854940016172,,,,,sub-137,1,stroop_test,64.59579857275995,
,,,,3.0,3.0,0.0,,,,,,,,,,,,,gelb,red,r,0.0,r,1.0,0.5594643490003364,,,,,,,,,,0.0,3.0,3.0,8.0,204.16689063000013,,,,,,,,,,,,,,,,,204.1568379909986,205.3576026740011,206.16437574999875,206.150922290999,,,,,,,,,,,,,,,,,,,,,,,,,,,,,,,,,,,206.15419996399945,206.16437574999875,206.16437574999875,206.7359701429996,r,1.0,0.5594643490003364,,,,,sub-137,1,stroop_test,64.59579857275995,
,,,,4.0,4.0,0.0,,,,,,,,,,,,,gelb,blue,b,0.0,b,1.0,0.6588459159975173,,,,,,,,,,0.0,4.0,4.0,9.0,206.74650912400105,,,,,,,,,,,,,,,,,206.7363095869987,207.53902422999815,208.33244504699903,208.3224516109985,,,,,,,,,,,,,,,,,,,,,,,,,,,,,,,,,,,208.32290361999912,208.33244504699903,208.33244504699903,208.99461247,b,1.0,0.6588459159975173,,,,,sub-137,1,stroop_test,64.59579857275995,
,,,,5.0,5.0,0.0,,,,,,,,,,,,,blau,red,r,0.0,r,1.0,0.7427259599971876,,,,,,,,,,0.0,5.0,5.0,4.0,209.00644596799972,,,,,,,,,,,,,,,,,208.99548206399777,209.34134290400107,210.1407565570007,210.12694116499915,,,,,,,,,,,,,,,,,,,,,,,,,,,,,,,,,,,210.13102846499896,210.1407565570007,210.1407565570007,210.88819770099872,r,1.0,0.7427259599971876,,,,,sub-137,1,stroop_test,64.59579857275995,
,,,,6.0,6.0,0.0,,,,,,,,,,,,,blau,blue,b,1.0,b,1.0,0.7109930960032216,,,,,,,,,,0.0,6.0,6.0,6.0,210.89865069499865,,,,,,,,,,,,,,,,,210.88862080800027,210.9833240150001,211.78635183299772,211.7742757390006,,,,,,,,,,,,,,,,,,,,,,,,,,,,,,,,,,,211.7747583780001,211.78635183299772,211.78635183299772,212.5012876680012,b,1.0,0.7109930960032216,,,,,sub-137,1,stroop_test,64.59579857275995,
,,,,7.0,7.0,0.0,,,,,,,,,,,,,blau,blue,b,1.0,b,1.0,0.484788010999182,,,,,,,,,,0.0,7.0,7.0,5.0,212.51131757199985,,,,,,,,,,,,,,,,,212.5016191379982,213.69780119200004,214.4958720340001,214.48499021599852,,,,,,,,,,,,,,,,,,,,,,,,,,,,,,,,,,,214.48595962200125,214.4958720340001,214.4958720340001,214.99063580599977,b,1.0,0.484788010999182,,,,,sub-137,1,stroop_test,64.59579857275995,
,,,,8.0,8.0,0.0,,,,,,,,,,,,,blau,yellow,g,0.0,g,1.0,0.93954669699815,,,,,,,,,,0.0,8.0,8.0,7.0,215.00283425100133,,,,,,,,,,,,,,,,,214.99097059599808,215.346682733998,216.1485241160008,216.13501984200047,,,,,,,,,,,,,,,,,,,,,,,,,,,,,,,,,,,216.1355852050001,216.1485241160008,216.1485241160008,217.09390215299936,g,1.0,0.93954669699815,,,,,sub-137,1,stroop_test,64.59579857275995,
,,,,9.0,9.0,0.0,,,,,,,,,,,,,gelb,yellow,g,1.0,g,1.0,0.8940125290027936,,,,,,,,,,0.0,9.0,9.0,10.0,217.1049532879988,,,,,,,,,,,,,,,,,217.094282834998,217.1928512810009,218.0043001869999,217.98957761699785,,,,,,,,,,,,,,,,,,,,,,,,,,,,,,,,,,,217.99279060299887,218.0043001869999,218.0043001869999,218.9047047649983,g,1.0,0.8940125290027936,,,,,sub-137,1,stroop_test,64.59579857275995,
,,,,10.0,10.0,0.0,,,,,,,,,,,,,rot,yellow,g,0.0,g,1.0,0.7361760569983744,,,,,,,,,,0.0,10.0,10.0,3.0,218.91574125099945,,,,,,,,,,,,,,,,,218.90515635399788,219.70445375100095,220.50411112599977,220.48935271799928,,,,,,,,,,,,,,,,,,,,,,,,,,,,,,,,,,,220.4926383220009,220.50411112599977,220.50411112599977,221.24714268299795,g,1.0,0.7361760569983744,,,,,sub-137,1,stroop_test,64.59579857275995,
,,,,11.0,11.0,0.0,,,,,,,,,,,,,rot,blue,b,0.0,b,1.0,0.7110536939981102,,,,,,,,,,0.0,11.0,11.0,2.0,221.25753313400128,,,,,,,,,,,,,,,,,221.247542309,222.44837447900136,223.25589004300127,223.24514762699985,,,,,,,,,,,,,,,,,,,,,,,,,,,,,,,,,,,223.24629741999888,223.25589004300127,223.25589004300127,223.97577344299864,b,1.0,0.7110536939981102,,,,,sub-137,1,stroop_test,64.59579857275995,
,,,,12.0,0.0,1.0,,,,,,,,,,,,,rot,blue,b,0.0,b,1.0,0.6986989719989651,,,,,,,,,,1.0,0.0,12.0,2.0,223.9876466019996,,,,,,,,,,,,,,,,,223.97634719000047,224.77612257899816,225.577089825998,225.56717559499884,,,,,,,,,,,,,,,,,,,,,,,,,,,,,,,,,,,225.5676109749984,225.577089825998,225.577089825998,226.28226259700023,b,1.0,0.6986989719989651,,,,,sub-137,1,stroop_test,64.59579857275995,
,,,,13.0,1.0,1.0,,,,,,,,,,,,,blau,blue,b,1.0,b,1.0,0.518836827002815,,,,,,,,,,1.0,1.0,13.0,5.0,226.29844111000057,,,,,,,,,,,,,,,,,226.28260382499863,227.0818625440006,227.8795121020012,227.86708653999813,,,,,,,,,,,,,,,,,,,,,,,,,,,,,,,,,,,227.8694852740009,227.8795121020012,227.8795121020012,228.40664117399865,b,1.0,0.518836827002815,,,,,sub-137,1,stroop_test,64.59579857275995,
,,,,14.0,2.0,1.0,,,,,,,,,,,,,blau,blue,b,1.0,b,1.0,0.44057230999897,,,,,,,,,,1.0,2.0,14.0,6.0,228.42995743199936,,,,,,,,,,,,,,,,,228.40699062500065,229.6044887200005,230.40889282499847,230.3990411679988,,,,,,,,,,,,,,,,,,,,,,,,,,,,,,,,,,,230.3994739459995,230.40889282499847,230.40889282499847,230.85229790599988,b,1.0,0.44057230999897,,,,,sub-137,1,stroop_test,64.59579857275995,
,,,,15.0,3.0,1.0,,,,,,,,,,,,,gelb,blue,b,0.0,b,1.0,0.5831147630015039,,,,,,,,,,1.0,3.0,15.0,9.0,230.8654953180012,,,,,,,,,,,,,,,,,230.85264217800068,230.94929011400015,231.75429349499973,231.73937490599928,,,,,,,,,,,,,,,,,,,,,,,,,,,,,,,,,,,231.74189019500045,231.75429349499973,231.75429349499973,232.34206017199904,b,1.0,0.5831147630015039,,,,,sub-137,1,stroop_test,64.59579857275995,
,,,,16.0,4.0,1.0,,,,,,,,,,,,,gelb,red,r,0.0,r,1.0,0.6990704630006803,,,,,,,,,,1.0,4.0,16.0,8.0,232.35488561199963,,,,,,,,,,,,,,,,,232.34274828900016,232.6908161210013,233.4885227980012,233.4773076040001,,,,,,,,,,,,,,,,,,,,,,,,,,,,,,,,,,,233.477939761,233.4885227980012,233.4885227980012,234.19140058199991,r,1.0,0.6990704630006803,,,,,sub-137,1,stroop_test,64.59579857275995,
,,,,17.0,5.0,1.0,,,,,,,,,,,,,gelb,yellow,g,1.0,g,1.0,0.7407509500008018,,,,,,,,,,1.0,5.0,17.0,11.0,234.2035827769978,,,,,,,,,,,,,,,,,234.19174390099943,234.2880697670007,235.08998373400027,235.0797728690013,,,,,,,,,,,,,,,,,,,,,,,,,,,,,,,,,,,235.08038911699987,235.08998373400027,235.08998373400027,235.84204430499813,g,1.0,0.7407509500008018,,,,,sub-137,1,stroop_test,64.59579857275995,
,,,,18.0,6.0,1.0,,,,,,,,,,,,,blau,red,r,0.0,r,1.0,0.9539487900001404,,,,,,,,,,1.0,6.0,18.0,4.0,235.8538993869988,,,,,,,,,,,,,,,,,235.8424219519984,236.64218581599928,237.45372784400024,237.43821672500053,,,,,,,,,,,,,,,,,,,,,,,,,,,,,,,,,,,237.44073824699808,237.45372784400024,237.45372784400024,238.41741161000027,r,1.0,0.9539487900001404,,,,,sub-137,1,stroop_test,64.59579857275995,
,,,,19.0,7.0,1.0,,,,,,,,,,,,,rot,red,r,1.0,r,1.0,0.6279092600016156,,,,,,,,,,1.0,7.0,19.0,1.0,238.428429708998,,,,,,,,,,,,,,,,,238.41791595099855,238.77105317599853,239.573367301,239.55954167099844,,,,,,,,,,,,,,,,,,,,,,,,,,,,,,,,,,,239.5638131960004,239.573367301,239.573367301,240.2167831480001,r,1.0,0.6279092600016156,,,,,sub-137,1,stroop_test,64.59579857275995,
,,,,20.0,8.0,1.0,,,,,,,,,,,,,blau,yellow,g,0.0,g,1.0,0.7796728859975701,,,,,,,,,,1.0,8.0,20.0,7.0,240.226208606,,,,,,,,,,,,,,,,,240.21731781500057,240.56789261299852,241.36959623999792,241.35559756300063,,,,,,,,,,,,,,,,,,,,,,,,,,,,,,,,,,,241.3583199550012,241.36959623999792,241.36959623999792,242.1622658899978,g,1.0,0.7796728859975701,,,,,sub-137,1,stroop_test,64.59579857275995,
,,,,21.0,9.0,1.0,,,,,,,,,,,,,gelb,yellow,g,1.0,g,1.0,0.5500461300034658,,,,,,,,,,1.0,9.0,21.0,10.0,242.1738627470004,,,,,,,,,,,,,,,,,242.1627753290013,242.95826894299896,243.75741500100048,243.74355557200036,,,,,,,,,,,,,,,,,,,,,,,,,,,,,,,,,,,243.7477532810008,243.75741500100048,243.75741500100048,244.31933984699936,g,1.0,0.5500461300034658,,,,,sub-137,1,stroop_test,64.59579857275995,
,,,,22.0,10.0,1.0,,,,,,,,,,,,,rot,yellow,g,0.0,g,1.0,2.0359611000021687,,,,,,,,,,1.0,10.0,22.0,3.0,244.3304170160009,,,,,,,,,,,,,,,,,244.31986198099912,245.5312463429982,246.3300177429992,246.31641604499964,,,,,,,,,,,,,,,,,,,,,,,,,,,,,,,,,,,246.3195688880005,246.3300177429992,246.3300177429992,248.376795750999,g,1.0,2.0359611000021687,,,,,sub-137,1,stroop_test,64.59579857275995,
,,,,23.0,11.0,1.0,,,,,,,,,,,,,rot,red,r,1.0,r,1.0,1.915832557999238,,,,,,,,,,1.0,11.0,23.0,0.0,248.3881175210008,,,,,,,,,,,,,,,,,248.377369373,248.73234789100024,249.52575032000092,249.515633185998,,,,,,,,,,,,,,,,,,,,,,,,,,,,,,,,,,,249.51609332600128,249.52575032000092,249.52575032000092,251.449897167,r,1.0,1.915832557999238,,,,,sub-137,1,stroop_test,64.59579857275995,
,,,,24.0,0.0,2.0,,,,,,,,,,,,,blau,blue,b,1.0,b,1.0,0.6516766589993495,,,,,,,,,,2.0,0.0,24.0,5.0,251.45997287700084,,,,,,,,,,,,,,,,,251.45023068799856,251.79975860299965,252.60666408799807,252.59222229100124,,,,,,,,,,,,,,,,,,,,,,,,,,,,,,,,,,,252.59644970099907,252.60666408799807,252.60666408799807,253.2638739619979,b,1.0,0.6516766589993495,,,,,sub-137,1,stroop_test,64.59579857275995,
,,,,25.0,1.0,2.0,,,,,,,,,,,,,blau,blue,b,1.0,b,1.0,0.4914535310017527,,,,,,,,,,2.0,1.0,25.0,6.0,253.27573372700132,,,,,,,,,,,,,,,,,253.2644042360007,253.36512600900096,254.16782116000104,254.15455838900016,,,,,,,,,,,,,,,,,,,,,,,,,,,,,,,,,,,254.155070801,254.16782116000104,254.16782116000104,254.66815065500123,b,1.0,0.4914535310017527,,,,,sub-137,1,stroop_test,64.59579857275995,
,,,,26.0,2.0,2.0,,,,,,,,,,,,,rot,red,r,1.0,r,1.0,0.698657386998093,,,,,,,,,,2.0,2.0,26.0,0.0,254.679060819999,,,,,,,,,,,,,,,,,254.66865314000097,255.87234870300017,256.6740148040008,256.65977252599987,,,,,,,,,,,,,,,,,,,,,,,,,,,,,,,,,,,256.66418363699995,256.6740148040008,256.6740148040008,257.37954588700086,r,1.0,0.698657386998093,,,,,sub-137,1,stroop_test,64.59579857275995,
,,,,27.0,3.0,2.0,,,,,,,,,,,,,blau,yellow,g,0.0,g,1.0,0.7468171760010591,,,,,,,,,,2.0,3.0,27.0,7.0,257.39016216600066,,,,,,,,,,,,,,,,,257.37992754899824,257.73391171099865,258.5375853990008,258.5227446930003,,,,,,,,,,,,,,,,,,,,,,,,,,,,,,,,,,,258.5258807469981,258.5375853990008,258.5375853990008,259.29723605300023,g,1.0,0.7468171760010591,,,,,sub-137,1,stroop_test,64.59579857275995,
,,,,28.0,4.0,2.0,,,,,,,,,,,,,blau,red,r,0.0,r,1.0,0.950174973000685,,,,,,,,,,2.0,4.0,28.0,4.0,259.3075620419986,,,,,,,,,,,,,,,,,259.2975777530009,259.6569164299981,260.4632816550002,260.452613188998,,,,,,,,,,,,,,,,,,,,,,,,,,,,,,,,,,,260.45347690799827,260.4632816550002,260.4632816550002,261.4190885200005,r,1.0,0.950174973000685,,,,,sub-137,1,stroop_test,64.59579857275995,
,,,,29.0,5.0,2.0,,,,,,,,,,,,,gelb,yellow,g,1.0,g,1.0,1.0523160269985965,,,,,,,,,,2.0,5.0,29.0,11.0,261.4304823239981,,,,,,,,,,,,,,,,,261.41959900800066,261.522289687,262.3300671750003,262.3172765199997,,,,,,,,,,,,,,,,,,,,,,,,,,,,,,,,,,,262.320161216001,262.3300671750003,262.3300671750003,263.38546392399803,g,1.0,1.0523160269985965,,,,,sub-137,1,stroop_test,64.59579857275995,
,,,,30.0,6.0,2.0,,,,,,,,,,,,,rot,red,r,1.0,r,1.0,1.3897376820023055,,,,,,,,,,2.0,6.0,30.0,1.0,263.3958891740004,,,,,,,,,,,,,,,,,263.38580134699805,264.58093043999907,265.37947422399884,265.36552817199845,,,,,,,,,,,,,,,,,,,,,,,,,,,,,,,,,,,265.3693578729981,265.37947422399884,265.37947422399884,266.77282157599984,r,1.0,1.3897376820023055,,,,,sub-137,1,stroop_test,64.59579857275995,
,,,,31.0,7.0,2.0,,,,,,,,,,,,,gelb,yellow,g,1.0,g,1.0,1.036187000998325,,,,,,,,,,2.0,7.0,31.0,10.0,266.7865966370009,,,,,,,,,,,,,,,,,266.7733201250012,267.9707958979998,268.7700658419999,268.75428473699867,,,,,,,,,,,,,,,,,,,,,,,,,,,,,,,,,,,268.75703537400113,268.7700658419999,268.7700658419999,269.81544186599785,g,1.0,1.036187000998325,,,,,sub-137,1,stroop_test,64.59579857275995,
,,,,32.0,8.0,2.0,,,,,,,,,,,,,rot,yellow,g,0.0,r,0.0,0.8112106330008828,,,,,,,,,,2.0,8.0,32.0,3.0,269.8311270609993,,,,,,,,,,,,,,,,,269.8160099019988,270.6166298700009,271.41748301799817,271.401436660999,,,,,,,,,,,,,,,,,,,,,,,,,,,,,,,,,,,271.4039076299996,271.41748301799817,271.41748301799817,272.2349467499989,r,0.0,0.8112106330008828,,,,,sub-137,1,stroop_test,64.59579857275995,
,,,,33.0,9.0,2.0,,,,,,,,,,,,,rot,blue,b,0.0,b,1.0,1.2167820230024518,,,,,,,,,,2.0,9.0,33.0,2.0,272.24800558100105,,,,,,,,,,,,,,,,,272.23536464100107,272.3393959130008,273.13725484799943,273.1260632779995,,,,,,,,,,,,,,,,,,,,,,,,,,,,,,,,,,,273.12654068399934,273.13725484799943,273.13725484799943,274.3700213810007,b,1.0,1.2167820230024518,,,,,sub-137,1,stroop_test,64.59579857275995,
,,,,34.0,10.0,2.0,,,,,,,,,,,,,gelb,blue,b,0.0,b,1.0,1.5262031279999064,,,,,,,,,,2.0,10.0,34.0,9.0,274.3794557609981,,,,,,,,,,,,,,,,,274.3704258750004,275.17216667200046,275.9816220690009,275.96740007599874,,,,,,,,,,,,,,,,,,,,,,,,,,,,,,,,,,,275.9707311889979,275.9816220690009,275.9816220690009,277.53184040799897,b,1.0,1.5262031279999064,,,,,sub-137,1,stroop_test,64.59579857275995,
,,,,35.0,11.0,2.0,,,,,,,,,,,,,gelb,red,r,0.0,r,1.0,1.4343609869974898,,,,,,,,,,2.0,11.0,35.0,8.0,277.54745755800104,,,,,,,,,,,,,,,,,277.5322307429997,278.3301095930001,279.1248944639992,279.11515715800124,,,,,,,,,,,,,,,,,,,,,,,,,,,,,,,,,,,279.11566902900086,279.1248944639992,279.1248944639992,280.57131739599936,r,1.0,1.4343609869974898,,,,,sub-137,1,stroop_test,64.59579857275995,
,,,,36.0,0.0,3.0,,,,,,,,,,,,,blau,yellow,g,0.0,g,1.0,0.8494040170007793,,,,,,,,,,3.0,0.0,36.0,7.0,280.5823608299979,,,,,,,,,,,,,,,,,280.5718332619981,280.6736966419994,281.4734712259997,281.4590418209991,,,,,,,,,,,,,,,,,,,,,,,,,,,,,,,,,,,281.4640054789997,281.4734712259997,281.4734712259997,282.3302276030008,g,1.0,0.8494040170007793,,,,,sub-137,1,stroop_test,64.59579857275995,
,,,,37.0,1.0,3.0,,,,,,,,,,,,,rot,red,r,1.0,r,1.0,0.7519914610020351,,,,,,,,,,3.0,1.0,37.0,1.0,282.34060669500104,,,,,,,,,,,,,,,,,282.3305744120007,283.52372142400054,284.3302037579997,284.3175487090012,,,,,,,,,,,,,,,,,,,,,,,,,,,,,,,,,,,284.3200682059978,284.3302037579997,284.3302037579997,285.0868232419998,r,1.0,0.7519914610020351,,,,,sub-137,1,stroop_test,64.59579857275995,
,,,,38.0,2.0,3.0,,,,,,,,,,,,,gelb,red,r,0.0,r,1.0,0.5619729499994719,,,,,,,,,,3.0,2.0,38.0,8.0,285.1000262540001,,,,,,,,,,,,,,,,,285.0871601149993,285.895947514,286.70394094199946,286.6893679200002,,,,,,,,,,,,,,,,,,,,,,,,,,,,,,,,,,,286.6924326640001,286.70394094199946,286.70394094199946,287.27307388199915,r,1.0,0.5619729499994719,,,,,sub-137,1,stroop_test,64.59579857275995,
,,,,39.0,3.0,3.0,,,,,,,,,,,,,blau,blue,b,1.0,b,1.0,0.6104647569991357,,,,,,,,,,3.0,3.0,39.0,6.0,287.2869719209993,,,,,,,,,,,,,,,,,287.273587579999,288.47326446100124,289.2792785870006,289.26516916299806,,,,,,,,,,,,,,,,,,,,,,,,,,,,,,,,,,,289.26899370799947,289.2792785870006,289.2792785870006,289.8994028189991,b,1.0,0.6104647569991357,,,,,sub-137,1,stroop_test,64.59579857275995,
,,,,40.0,4.0,3.0,,,,,,,,,,,,,gelb,blue,b,0.0,b,1.0,0.5820399809999799,,,,,,,,,,3.0,4.0,40.0,9.0,289.909612372001,,,,,,,,,,,,,,,,,289.8997360149988,290.7020188639981,291.50370110699805,291.4883803849989,,,,,,,,,,,,,,,,,,,,,,,,,,,,,,,,,,,291.49210295399826,291.50370110699805,291.50370110699805,292.08918388099846,b,1.0,0.5820399809999799,,,,,sub-137,1,stroop_test,64.59579857275995,
,,,,41.0,5.0,3.0,,,,,,,,,,,,,rot,yellow,g,0.0,g,1.0,0.7363044590019854,,,,,,,,,,3.0,5.0,41.0,3.0,292.1124826619998,,,,,,,,,,,,,,,,,292.0895246049986,293.2976782529986,294.1022331259992,294.0885162470004,,,,,,,,,,,,,,,,,,,,,,,,,,,,,,,,,,,294.0910688650001,294.1022331259992,294.1022331259992,294.8471302440012,g,1.0,0.7363044590019854,,,,,sub-137,1,stroop_test,64.59579857275995,
,,,,42.0,6.0,3.0,,,,,,,,,,,,,gelb,yellow,g,1.0,g,1.0,0.616262364997965,,,,,,,,,,3.0,6.0,42.0,11.0,294.857427248,,,,,,,,,,,,,,,,,294.8474660360007,295.65026919799857,296.4499788350004,296.4347603130009,,,,,,,,,,,,,,,,,,,,,,,,,,,,,,,,,,,296.43739297199863,296.4499788350004,296.4499788350004,297.0748346379987,g,1.0,0.616262364997965,,,,,sub-137,1,stroop_test,64.59579857275995,
,,,,43.0,7.0,3.0,,,,,,,,,,,,,rot,blue,b,0.0,b,1.0,0.643041766998067,,,,,,,,,,3.0,7.0,43.0,2.0,297.0868802320001,,,,,,,,,,,,,,,,,297.07531089199983,297.88066899099795,298.68558709399804,298.67107355199914,,,,,,,,,,,,,,,,,,,,,,,,,,,,,,,,,,,298.673892068,298.68558709399804,298.68558709399804,299.34289051000087,b,1.0,0.643041766998067,,,,,sub-137,1,stroop_test,64.59579857275995,
,,,,44.0,8.0,3.0,,,,,,,,,,,,,gelb,yellow,g,1.0,g,1.0,0.6610037339996779,,,,,,,,,,3.0,8.0,44.0,10.0,299.3528926750005,,,,,,,,,,,,,,,,,299.3432588729993,299.6880070219995,300.4940606809978,300.48062838699843,,,,,,,,,,,,,,,,,,,,,,,,,,,,,,,,,,,300.4837438850009,300.4940606809978,300.4940606809978,301.1682814739979,g,1.0,0.6610037339996779,,,,,sub-137,1,stroop_test,64.59579857275995,
,,,,45.0,9.0,3.0,,,,,,,,,,,,,blau,blue,b,1.0,b,1.0,0.6477320919984777,,,,,,,,,,3.0,9.0,45.0,5.0,301.1794486559993,,,,,,,,,,,,,,,,,301.1687868299996,301.96402999699785,302.7685613290014,302.7546250749984,,,,,,,,,,,,,,,,,,,,,,,,,,,,,,,,,,,302.7577866379979,302.7685613290014,302.7685613290014,303.43208558100014,b,1.0,0.6477320919984777,,,,,sub-137,1,stroop_test,64.59579857275995,
,,,,46.0,10.0,3.0,,,,,,,,,,,,,blau,red,r,0.0,r,1.0,0.7776522139974986,,,,,,,,,,3.0,10.0,46.0,4.0,303.4411053900003,,,,,,,,,,,,,,,,,303.4325516839999,303.5265586659989,304.3268031459993,304.315919632998,,,,,,,,,,,,,,,,,,,,,,,,,,,,,,,,,,,304.3168719109999,304.3268031459993,304.3268031459993,305.1102986529986,r,1.0,0.7776522139974986,,,,,sub-137,1,stroop_test,64.59579857275995,
,,,,47.0,11.0,3.0,,,,,,,,,,,,,rot,red,r,1.0,r,1.0,0.5177010869992955,,,,,,,,,,3.0,11.0,47.0,0.0,305.1223337250012,,,,,,,,,,,,,,,,,305.1111610959997,305.91334698300125,306.71270161899884,306.69901459099856,,,,,,,,,,,,,,,,,,,,,,,,,,,,,,,,,,,306.70243860499977,306.71270161899884,306.71270161899884,307.2333379570009,r,1.0,0.5177010869992955,,,,,sub-137,1,stroop_test,64.59579857275995,
,,,,48.0,0.0,4.0,,,,,,,,,,,,,blau,red,r,0.0,r,1.0,0.4692778720018395,,,,,,,,,,4.0,0.0,48.0,4.0,307.24395299000025,,,,,,,,,,,,,,,,,307.23367770799814,308.0356957000004,308.8438147779998,308.83152849600083,,,,,,,,,,,,,,,,,,,,,,,,,,,,,,,,,,,308.83409498299807,308.8438147779998,308.8438147779998,309.3202092569991,r,1.0,0.4692778720018395,,,,,sub-137,1,stroop_test,64.59579857275995,
,,,,49.0,1.0,4.0,,,,,,,,,,,,,gelb,yellow,g,1.0,g,1.0,0.7510902190006163,,,,,,,,,,4.0,1.0,49.0,10.0,309.331192824,,,,,,,,,,,,,,,,,309.3207176899996,309.6735430150002,310.47944420699787,310.4658608639984,,,,,,,,,,,,,,,,,,,,,,,,,,,,,,,,,,,310.46929145899776,310.47944420699787,310.47944420699787,311.2364272960004,g,1.0,0.7510902190006163,,,,,sub-137,1,stroop_test,64.59579857275995,
,,,,50.0,2.0,4.0,,,,,,,,,,,,,rot,blue,b,0.0,b,1.0,0.7267549399985,,,,,,,,,,4.0,2.0,50.0,2.0,311.2499595400004,,,,,,,,,,,,,,,,,311.23676875800084,311.329432216,312.1367197369982,312.1232652239996,,,,,,,,,,,,,,,,,,,,,,,,,,,,,,,,,,,312.1260497539988,312.1367197369982,312.1367197369982,312.8667276419983,b,1.0,0.7267549399985,,,,,sub-137,1,stroop_test,64.59579857275995,
,,,,51.0,3.0,4.0,,,,,,,,,,,,,blau,blue,b,1.0,b,1.0,0.4635795069989399,,,,,,,,,,4.0,3.0,51.0,5.0,312.8782510710007,,,,,,,,,,,,,,,,,312.86721263399886,313.66350155799955,314.46034322500054,314.4476587620011,,,,,,,,,,,,,,,,,,,,,,,,,,,,,,,,,,,314.45039343199824,314.46034322500054,314.46034322500054,314.93091300800006,b,1.0,0.4635795069989399,,,,,sub-137,1,stroop_test,64.59579857275995,
,,,,52.0,4.0,4.0,,,,,,,,,,,,,gelb,yellow,g,1.0,g,1.0,0.4985019960004138,,,,,,,,,,4.0,4.0,52.0,11.0,314.9469725529998,,,,,,,,,,,,,,,,,314.9312509449992,315.2797316139986,316.0788856100007,316.065833618999,,,,,,,,,,,,,,,,,,,,,,,,,,,,,,,,,,,316.0688695809986,316.0788856100007,316.0788856100007,316.58947309200084,g,1.0,0.4985019960004138,,,,,sub-137,1,stroop_test,64.59579857275995,
,,,,53.0,5.0,4.0,,,,,,,,,,,,,rot,yellow,g,0.0,g,1.0,1.5895595609981683,,,,,,,,,,4.0,5.0,53.0,3.0,316.6019585180002,,,,,,,,,,,,,,,,,316.58980766699824,316.6917183180012,317.493569555998,317.4810819119993,,,,,,,,,,,,,,,,,,,,,,,,,,,,,,,,,,,317.48363745999814,317.493569555998,317.493569555998,319.0972851890001,g,1.0,1.5895595609981683,,,,,sub-137,1,stroop_test,64.59579857275995,
,,,,54.0,6.0,4.0,,,,,,,,,,,,,rot,red,r,1.0,r,1.0,0.6036311339994427,,,,,,,,,,4.0,6.0,54.0,0.0,319.1140587250011,,,,,,,,,,,,,,,,,319.0976400389991,319.4462718750001,320.2419653750003,320.23224783600017,,,,,,,,,,,,,,,,,,,,,,,,,,,,,,,,,,,320.2327138680012,320.2419653750003,320.2419653750003,320.85794606000127,r,1.0,0.6036311339994427,,,,,sub-137,1,stroop_test,64.59579857275995,
,,,,55.0,7.0,4.0,,,,,,,,,,,,,blau,blue,b,1.0,b,1.0,1.3750138610012073,,,,,,,,,,4.0,7.0,55.0,6.0,320.8696807289998,,,,,,,,,,,,,,,,,320.8585011180003,321.6562754799997,322.465944757998,322.45067606999874,,,,,,,,,,,,,,,,,,,,,,,,,,,,,,,,,,,322.4547196729982,322.465944757998,322.465944757998,323.85179340600007,b,1.0,1.3750138610012073,,,,,sub-137,1,stroop_test,64.59579857275995,
,,,,56.0,8.0,4.0,,,,,,,,,,,,,gelb,red,r,0.0,r,1.0,0.686567043998366,,,,,,,,,,4.0,8.0,56.0,8.0,323.86229496300075,,,,,,,,,,,,,,,,,323.85213460399973,324.20343474499896,325.00946131399905,324.99631204400066,,,,,,,,,,,,,,,,,,,,,,,,,,,,,,,,,,,324.9994598999983,325.00946131399905,325.00946131399905,325.7071285860002,r,1.0,0.686567043998366,,,,,sub-137,1,stroop_test,64.59579857275995,
,,,,57.0,9.0,4.0,,,,,,,,,,,,,blau,yellow,g,0.0,g,1.0,0.6021576189996267,,,,,,,,,,4.0,9.0,57.0,7.0,325.7190758760007,,,,,,,,,,,,,,,,,325.7074662490013,326.053488425001,326.8512978079998,326.8370655580002,,,,,,,,,,,,,,,,,,,,,,,,,,,,,,,,,,,326.83986734599966,326.8512978079998,326.8512978079998,327.4674187310011,g,1.0,0.6021576189996267,,,,,sub-137,1,stroop_test,64.59579857275995,
,,,,58.0,10.0,4.0,,,,,,,,,,,,,rot,red,r,1.0,r,1.0,0.6245089510011894,,,,,,,,,,4.0,10.0,58.0,1.0,327.4785940319998,,,,,,,,,,,,,,,,,327.46792767199804,327.8233909039991,328.62786997199873,328.61492766800075,,,,,,,,,,,,,,,,,,,,,,,,,,,,,,,,,,,328.61778131499887,328.62786997199873,328.62786997199873,329.2566040509992,r,1.0,0.6245089510011894,,,,,sub-137,1,stroop_test,64.59579857275995,
,,,,59.0,11.0,4.0,,,,,,,,,,,,,gelb,blue,b,0.0,b,1.0,0.7703530070029956,,,,,,,,,,4.0,11.0,59.0,9.0,329.2698004599988,,,,,,,,,,,,,,,,,329.2569421759981,329.36388175200045,330.159634716998,330.1475649729982,,,,,,,,,,,,,,,,,,,,,,,,,,,,,,,,,,,330.1500157429982,330.159634716998,330.159634716998,330.93264807200103,b,1.0,0.7703530070029956,,,,,sub-137,1,stroop_test,64.59579857275995,
,,,,60.0,0.0,5.0,,,,,,,,,,,,,gelb,red,r,0.0,r,1.0,0.7920750640005281,,,,,,,,,,5.0,0.0,60.0,8.0,330.9427947849981,,,,,,,,,,,,,,,,,330.932988190998,331.73044369299896,332.52791121799964,332.51618984299785,,,,,,,,,,,,,,,,,,,,,,,,,,,,,,,,,,,332.51685685600023,332.52791121799964,332.52791121799964,333.32664033299807,r,1.0,0.7920750640005281,,,,,sub-137,1,stroop_test,64.59579857275995,
,,,,61.0,1.0,5.0,,,,,,,,,,,,,gelb,yellow,g,1.0,g,1.0,0.550756813998305,,,,,,,,,,5.0,1.0,61.0,11.0,333.3379562359987,,,,,,,,,,,,,,,,,333.32783185099834,334.1255502719978,334.93316606299777,334.92002481300005,,,,,,,,,,,,,,,,,,,,,,,,,,,,,,,,,,,334.9206206099989,334.93316606299777,334.93316606299777,335.4951507330006,g,1.0,0.550756813998305,,,,,sub-137,1,stroop_test,64.59579857275995,
,,,,62.0,2.0,5.0,,,,,,,,,,,,,gelb,blue,b,0.0,b,1.0,1.4310741479966964,,,,,,,,,,5.0,2.0,62.0,9.0,335.50536462200034,,,,,,,,,,,,,,,,,335.495486560998,336.2915668429996,337.09744793199934,337.0869084959995,,,,,,,,,,,,,,,,,,,,,,,,,,,,,,,,,,,337.0874504329986,337.09744793199934,337.09744793199934,338.5346394900007,b,1.0,1.4310741479966964,,,,,sub-137,1,stroop_test,64.59579857275995,
,,,,63.0,3.0,5.0,,,,,,,,,,,,,rot,red,r,1.0,r,1.0,0.5889659680033219,,,,,,,,,,5.0,3.0,63.0,0.0,338.54844686900105,,,,,,,,,,,,,,,,,338.5349765809988,339.7307327089984,340.529744225998,340.5151326240011,,,,,,,,,,,,,,,,,,,,,,,,,,,,,,,,,,,340.5188421359999,340.529744225998,340.529744225998,341.12381567099874,r,1.0,0.5889659680033219,,,,,sub-137,1,stroop_test,64.59579857275995,
,,,,64.0,4.0,5.0,,,,,,,,,,,,,blau,yellow,g,0.0,g,1.0,0.643733576998784,,,,,,,,,,5.0,4.0,64.0,7.0,341.1356803480012,,,,,,,,,,,,,,,,,341.1241537780006,341.92879117199845,342.729409380001,342.71533547999934,,,,,,,,,,,,,,,,,,,,,,,,,,,,,,,,,,,342.71888092099834,342.729409380001,342.729409380001,343.38610631399933,g,1.0,0.643733576998784,,,,,sub-137,1,stroop_test,64.59579857275995,
,,,,65.0,5.0,5.0,,,,,,,,,,,,,rot,red,r,1.0,r,1.0,0.7395282189972932,,,,,,,,,,5.0,5.0,65.0,1.0,343.39694300799965,,,,,,,,,,,,,,,,,343.386443004998,344.5870279890005,345.3886670719985,345.3747936369982,,,,,,,,,,,,,,,,,,,,,,,,,,,,,,,,,,,345.3787644039985,345.3886670719985,345.3886670719985,346.14164787999835,r,1.0,0.7395282189972932,,,,,sub-137,1,stroop_test,64.59579857275995,
,,,,66.0,6.0,5.0,,,,,,,,,,,,,blau,blue,b,1.0,b,1.0,0.5837954439994064,,,,,,,,,,5.0,6.0,66.0,5.0,346.1539293659989,,,,,,,,,,,,,,,,,346.14224895299776,346.491836109999,347.2949034179983,347.2811761560006,,,,,,,,,,,,,,,,,,,,,,,,,,,,,,,,,,,347.2847251610001,347.2949034179983,347.2949034179983,347.88410026199927,b,1.0,0.5837954439994064,,,,,sub-137,1,stroop_test,64.59579857275995,
,,,,67.0,7.0,5.0,,,,,,,,,,,,,blau,blue,b,1.0,b,1.0,0.4632263139974384,,,,,,,,,,5.0,7.0,67.0,6.0,347.8946880069998,,,,,,,,,,,,,,,,,347.88453346700044,348.2369012119998,349.045230194999,349.0214645099986,,,,,,,,,,,,,,,,,,,,,,,,,,,,,,,,,,,349.0219090339997,349.045230194999,349.045230194999,349.5230520119985,b,1.0,0.4632263139974384,,,,,sub-137,1,stroop_test,64.59579857275995,
,,,,68.0,8.0,5.0,,,,,,,,,,,,,gelb,yellow,g,1.0,g,1.0,0.6929971130011836,,,,,,,,,,5.0,8.0,68.0,10.0,349.5353973029996,,,,,,,,,,,,,,,,,349.52350351399946,350.32315535499947,351.131676863999,351.1159415020011,,,,,,,,,,,,,,,,,,,,,,,,,,,,,,,,,,,351.1183486230002,351.131676863999,351.131676863999,351.8335991960012,g,1.0,0.6929971130011836,,,,,sub-137,1,stroop_test,64.59579857275995,
,,,,69.0,9.0,5.0,,,,,,,,,,,,,rot,yellow,g,0.0,g,1.0,1.0753151470016746,,,,,,,,,,5.0,9.0,69.0,3.0,351.84411358299985,,,,,,,,,,,,,,,,,351.8339499319991,353.0469136069987,353.85083241100074,353.83667041100125,,,,,,,,,,,,,,,,,,,,,,,,,,,,,,,,,,,353.83934092300115,353.85083241100074,353.85083241100074,354.9468261719994,g,1.0,1.0753151470016746,,,,,sub-137,1,stroop_test,64.59579857275995,
,,,,70.0,10.0,5.0,,,,,,,,,,,,,blau,red,r,0.0,r,1.0,0.6095550479985832,,,,,,,,,,5.0,10.0,70.0,4.0,354.9636567179987,,,,,,,,,,,,,,,,,354.9471621470002,355.7460948509979,356.5422852640004,356.53045669999847,,,,,,,,,,,,,,,,,,,,,,,,,,,,,,,,,,,356.532862819,356.5422852640004,356.5422852640004,357.15869443799966,r,1.0,0.6095550479985832,,,,,sub-137,1,stroop_test,64.59579857275995,
,,,,71.0,11.0,5.0,,,,,,,,,,,,,rot,blue,b,0.0,b,1.0,1.3049013140007446,,,,,,,,,,5.0,11.0,71.0,2.0,357.1709875689994,,,,,,,,,,,,,,,,,357.15921579099813,357.5140595970006,358.3174596780009,358.3040635119978,,,,,,,,,,,,,,,,,,,,,,,,,,,,,,,,,,,358.30643135900027,358.3174596780009,358.3174596780009,359.6301063780011,b,1.0,1.3049013140007446,,,,,sub-137,1,stroop_test,64.59579857275995,
,,,,72.0,0.0,6.0,,,,,,,,,,,,,rot,red,r,1.0,r,1.0,0.984909474998858,,,,,,,,,,6.0,0.0,72.0,1.0,359.64025956099795,,,,,,,,,,,,,,,,,359.6305465160003,360.832699857001,361.62988162499823,361.6165019180007,,,,,,,,,,,,,,,,,,,,,,,,,,,,,,,,,,,361.61695443400095,361.62988162499823,361.62988162499823,362.6222708220012,r,1.0,0.984909474998858,,,,,sub-137,1,stroop_test,64.59579857275995,
,,,,73.0,1.0,6.0,,,,,,,,,,,,,gelb,yellow,g,1.0,g,1.0,0.85853526199935,,,,,,,,,,6.0,1.0,73.0,11.0,362.6352382559999,,,,,,,,,,,,,,,,,362.6227793760008,362.731201057999,363.5366120789986,363.5209526110011,,,,,,,,,,,,,,,,,,,,,,,,,,,,,,,,,,,363.52571858100055,363.5366120789986,363.5366120789986,364.4101068140008,g,1.0,0.85853526199935,,,,,sub-137,1,stroop_test,64.59579857275995,
,,,,74.0,2.0,6.0,,,,,,,,,,,,,rot,yellow,g,0.0,g,1.0,0.8358452140018926,,,,,,,,,,6.0,2.0,74.0,3.0,364.4204041269986,,,,,,,,,,,,,,,,,364.41103722700063,364.513001127998,365.31835116100046,365.30402903399954,,,,,,,,,,,,,,,,,,,,,,,,,,,,,,,,,,,365.3068167450001,365.31835116100046,365.31835116100046,366.1591905569985,g,1.0,0.8358452140018926,,,,,sub-137,1,stroop_test,64.59579857275995,
,,,,75.0,3.0,6.0,,,,,,,,,,,,,blau,blue,b,1.0,b,1.0,0.6539122969988966,,,,,,,,,,6.0,3.0,75.0,6.0,366.171251451,,,,,,,,,,,,,,,,,366.1601396639999,366.26305561299887,367.06735862500136,367.0530189710007,,,,,,,,,,,,,,,,,,,,,,,,,,,,,,,,,,,367.0554639139991,367.06735862500136,367.06735862500136,367.7283870530009,b,1.0,0.6539122969988966,,,,,sub-137,1,stroop_test,64.59579857275995,
,,,,76.0,4.0,6.0,,,,,,,,,,,,,blau,yellow,g,0.0,g,1.0,0.641937633001362,,,,,,,,,,6.0,4.0,76.0,7.0,367.738507656999,,,,,,,,,,,,,,,,,367.7288286209987,368.5315285350007,369.3314451289989,369.32077951799874,,,,,,,,,,,,,,,,,,,,,,,,,,,,,,,,,,,369.321418331001,369.3314451289989,369.3314451289989,369.9819768419984,g,1.0,0.641937633001362,,,,,sub-137,1,stroop_test,64.59579857275995,
,,,,77.0,5.0,6.0,,,,,,,,,,,,,gelb,red,r,0.0,r,1.0,0.7776184680005827,,,,,,,,,,6.0,5.0,77.0,8.0,369.9922840770014,,,,,,,,,,,,,,,,,369.9823617639995,370.0964169889994,370.9112899949978,370.8862945779984,,,,,,,,,,,,,,,,,,,,,,,,,,,,,,,,,,,370.8887535139984,370.9112899949978,370.9112899949978,371.7014113650002,r,1.0,0.7776184680005827,,,,,sub-137,1,stroop_test,64.59579857275995,
,,,,78.0,6.0,6.0,,,,,,,,,,,,,rot,red,r,1.0,r,1.0,1.613740829998278,,,,,,,,,,6.0,6.0,78.0,0.0,371.712024171,,,,,,,,,,,,,,,,,371.7017847579991,372.9000457689981,373.6996256429993,373.6833282810003,,,,,,,,,,,,,,,,,,,,,,,,,,,,,,,,,,,373.6862504130004,373.6996256429993,373.6996256429993,375.31571423700007,r,1.0,1.613740829998278,,,,,sub-137,1,stroop_test,64.59579857275995,
,,,,79.0,7.0,6.0,,,,,,,,,,,,,blau,red,r,0.0,r,1.0,0.7210164659991278,,,,,,,,,,6.0,7.0,79.0,4.0,375.3273635500009,,,,,,,,,,,,,,,,,375.3162314000001,375.6703319230001,376.47405597599936,376.459976659,,,,,,,,,,,,,,,,,,,,,,,,,,,,,,,,,,,376.46374882999953,376.47405597599936,376.47405597599936,377.2006758290008,r,1.0,0.7210164659991278,,,,,sub-137,1,stroop_test,64.59579857275995,
,,,,80.0,8.0,6.0,,,,,,,,,,,,,gelb,blue,b,0.0,b,1.0,0.9392764119984348,,,,,,,,,,6.0,8.0,80.0,9.0,377.2110482280005,,,,,,,,,,,,,,,,,377.2010526919985,378.0025733809998,378.8121110089997,378.7991336859996,,,,,,,,,,,,,,,,,,,,,,,,,,,,,,,,,,,378.80195335700046,378.8121110089997,378.8121110089997,379.75514674900114,b,1.0,0.9392764119984348,,,,,sub-137,1,stroop_test,64.59579857275995,
,,,,81.0,9.0,6.0,,,,,,,,,,,,,gelb,yellow,g,1.0,g,1.0,0.6338236189985764,,,,,,,,,,6.0,9.0,81.0,10.0,379.7675029889979,,,,,,,,,,,,,,,,,379.75565390799966,380.1131052979981,380.91058580000026,380.8989182879996,,,,,,,,,,,,,,,,,,,,,,,,,,,,,,,,,,,380.89973067699975,380.91058580000026,380.91058580000026,381.54731214799904,g,1.0,0.6338236189985764,,,,,sub-137,1,stroop_test,64.59579857275995,
,,,,82.0,10.0,6.0,,,,,,,,,,,,,rot,blue,b,0.0,b,1.0,1.0315633889986202,,,,,,,,,,6.0,10.0,82.0,2.0,381.5585055629999,,,,,,,,,,,,,,,,,381.5476861889984,382.34702954800014,383.1478087260002,383.1318161480012,,,,,,,,,,,,,,,,,,,,,,,,,,,,,,,,,,,383.134626963998,383.1478087260002,383.1478087260002,384.1843364009983,b,1.0,1.0315633889986202,,,,,sub-137,1,stroop_test,64.59579857275995,
,,,,83.0,11.0,6.0,,,,,,,,,,,,,blau,blue,b,1.0,b,1.0,0.9231286759968498,,,,,,,,,,6.0,11.0,83.0,5.0,384.195142239998,,,,,,,,,,,,,,,,,384.1846813960001,384.2888154579996,385.0950977100001,385.0823818930003,,,,,,,,,,,,,,,,,,,,,,,,,,,,,,,,,,,385.084915419,385.0950977100001,385.0950977100001,386.0277381929991,b,1.0,0.9231286759968498,,,,,sub-137,1,stroop_test,64.59579857275995,
,,,,84.0,0.0,7.0,,,,,,,,,,,,,gelb,red,r,0.0,r,1.0,0.7216465739984415,,,,,,,,,,7.0,0.0,84.0,8.0,386.03832009799953,,,,,,,,,,,,,,,,,386.0280781670008,386.828831461,387.64609509399816,387.62850985099794,,,,,,,,,,,,,,,,,,,,,,,,,,,,,,,,,,,387.6312084720012,387.64609509399816,387.64609509399816,388.3839086389999,r,1.0,0.7216465739984415,,,,,sub-137,1,stroop_test,64.59579857275995,
,,,,85.0,1.0,7.0,,,,,,,,,,,,,rot,yellow,g,0.0,g,1.0,0.5534575459969346,,,,,,,,,,7.0,1.0,85.0,3.0,388.3932046310001,,,,,,,,,,,,,,,,,388.3842505299981,388.4827736299994,389.28379342900007,389.2698465969988,,,,,,,,,,,,,,,,,,,,,,,,,,,,,,,,,,,389.2723572709983,389.28379342900007,389.28379342900007,389.8429209079986,g,1.0,0.5534575459969346,,,,,sub-137,1,stroop_test,64.59579857275995,
,,,,86.0,2.0,7.0,,,,,,,,,,,,,rot,red,r,1.0,r,1.0,0.6156525619990134,,,,,,,,,,7.0,2.0,86.0,1.0,389.8539624969999,,,,,,,,,,,,,,,,,389.8438981569998,390.6426290800009,391.4465578300005,391.4326213899985,,,,,,,,,,,,,,,,,,,,,,,,,,,,,,,,,,,391.4330844219985,391.4465578300005,391.4465578300005,392.0658008350001,r,1.0,0.6156525619990134,,,,,sub-137,1,stroop_test,64.59579857275995,
,,,,87.0,3.0,7.0,,,,,,,,,,,,,gelb,yellow,g,1.0,g,1.0,0.6597926350004855,,,,,,,,,,7.0,3.0,87.0,10.0,392.0767626449997,,,,,,,,,,,,,,,,,392.0662768369984,393.2666287739994,394.0697974920004,394.052951564001,,,,,,,,,,,,,,,,,,,,,,,,,,,,,,,,,,,394.0580450540001,394.0697974920004,394.0697974920004,394.7478500770012,g,1.0,0.6597926350004855,,,,,sub-137,1,stroop_test,64.59579857275995,
,,,,88.0,4.0,7.0,,,,,,,,,,,,,blau,blue,b,1.0,b,1.0,0.7991619940003147,,,,,,,,,,7.0,4.0,88.0,6.0,394.7586152900003,,,,,,,,,,,,,,,,,394.7484188009985,395.0902122000007,395.8956273229997,395.88209208699845,,,,,,,,,,,,,,,,,,,,,,,,,,,,,,,,,,,395.8854175989982,395.8956273229997,395.8956273229997,396.7046919220011,b,1.0,0.7991619940003147,,,,,sub-137,1,stroop_test,64.59579857275995,
,,,,89.0,5.0,7.0,,,,,,,,,,,,,blau,blue,b,1.0,b,1.0,0.6681858709998778,,,,,,,,,,7.0,5.0,89.0,5.0,396.7278414559987,,,,,,,,,,,,,,,,,396.70503794199976,397.05661831399993,397.85285165299865,397.8417026509997,,,,,,,,,,,,,,,,,,,,,,,,,,,,,,,,,,,397.8422379049989,397.85285165299865,397.85285165299865,398.5288677749995,b,1.0,0.6681858709998778,,,,,sub-137,1,stroop_test,64.59579857275995,
,,,,90.0,6.0,7.0,,,,,,,,,,,,,blau,yellow,g,0.0,g,1.0,1.7437669709979673,,,,,,,,,,7.0,6.0,90.0,7.0,398.5397908619998,,,,,,,,,,,,,,,,,398.5293754140002,398.8734223399988,399.6792675149991,399.6661769109997,,,,,,,,,,,,,,,,,,,,,,,,,,,,,,,,,,,399.66666163300033,399.6792675149991,399.6792675149991,401.4303574510013,g,1.0,1.7437669709979673,,,,,sub-137,1,stroop_test,64.59579857275995,
,,,,91.0,7.0,7.0,,,,,,,,,,,,,gelb,blue,b,0.0,b,1.0,0.8596799150000152,,,,,,,,,,7.0,7.0,91.0,9.0,401.4406193430005,,,,,,,,,,,,,,,,,401.4307031069984,402.6298913389983,403.4276629150008,403.4135324189992,,,,,,,,,,,,,,,,,,,,,,,,,,,,,,,,,,,403.41765256600047,403.4276629150008,403.4276629150008,404.2995391709992,b,1.0,0.8596799150000152,,,,,sub-137,1,stroop_test,64.59579857275995,
,,,,92.0,8.0,7.0,,,,,,,,,,,,,gelb,yellow,g,1.0,g,1.0,0.751128769999923,,,,,,,,,,7.0,8.0,92.0,11.0,404.31062164099785,,,,,,,,,,,,,,,,,404.2999634010012,404.40485898800034,405.205511305001,405.1939349460008,,,,,,,,,,,,,,,,,,,,,,,,,,,,,,,,,,,405.1953391509997,405.205511305001,405.205511305001,405.9630556949997,g,1.0,0.751128769999923,,,,,sub-137,1,stroop_test,64.59579857275995,
,,,,93.0,9.0,7.0,,,,,,,,,,,,,rot,blue,b,0.0,b,1.0,0.7713989000003494,,,,,,,,,,7.0,9.0,93.0,2.0,405.9739742540005,,,,,,,,,,,,,,,,,405.96347558900015,406.304908402999,407.10981773000094,407.0968715689996,,,,,,,,,,,,,,,,,,,,,,,,,,,,,,,,,,,407.099572881998,407.10981773000094,407.10981773000094,407.8944120349988,b,1.0,0.7713989000003494,,,,,sub-137,1,stroop_test,64.59579857275995,
,,,,94.0,10.0,7.0,,,,,,,,,,,,,rot,red,r,1.0,r,1.0,0.54125494300024,,,,,,,,,,7.0,10.0,94.0,0.0,407.90504608899937,,,,,,,,,,,,,,,,,407.8947497170011,408.2478483220002,409.0514214049981,409.040273876999,,,,,,,,,,,,,,,,,,,,,,,,,,,,,,,,,,,409.040921107,409.0514214049981,409.0514214049981,409.6044293499981,r,1.0,0.54125494300024,,,,,sub-137,1,stroop_test,64.59579857275995,
,,,,95.0,11.0,7.0,,,,,,,,,,,,,blau,red,r,0.0,r,1.0,1.8564217739985909,,,,,,,,,,7.0,11.0,95.0,4.0,409.6183073889988,,,,,,,,,,,,,,,,,409.6047640610013,410.4052972419995,411.21192674800113,411.1982007000006,,,,,,,,,,,,,,,,,,,,,,,,,,,,,,,,,,,411.2014661680005,411.21192674800113,411.21192674800113,413.0826354159981,r,1.0,1.8564217739985909,,,,,sub-137,1,stroop_test,64.59579857275995,
,,,,96.0,0.0,8.0,,,,,,,,,,,,,rot,red,r,1.0,r,1.0,0.6640117999995709,,,,,,,,,,8.0,0.0,96.0,0.0,413.0959611409999,,,,,,,,,,,,,,,,,413.0829747429998,413.8803103860009,414.6888814249978,414.6755364249984,,,,,,,,,,,,,,,,,,,,,,,,,,,,,,,,,,,414.6790805720011,414.6888814249978,414.6888814249978,415.3702677760011,r,1.0,0.6640117999995709,,,,,sub-137,1,stroop_test,64.59579857275995,
,,,,97.0,1.0,8.0,,,,,,,,,,,,,rot,blue,b,0.0,b,1.0,0.7379719960008515,,,,,,,,,,8.0,1.0,97.0,2.0,415.3822386680004,,,,,,,,,,,,,,,,,415.3707763909988,416.1697204320008,416.9755682139985,416.9642981549987,,,,,,,,,,,,,,,,,,,,,,,,,,,,,,,,,,,416.96518971600017,416.9755682139985,416.9755682139985,417.7277109710012,b,1.0,0.7379719960008515,,,,,sub-137,1,stroop_test,64.59579857275995,
,,,,98.0,2.0,8.0,,,,,,,,,,,,,blau,blue,b,1.0,b,1.0,0.6208893429975433,,,,,,,,,,8.0,2.0,98.0,5.0,417.7379075429999,,,,,,,,,,,,,,,,,417.728063145998,417.8347467239983,418.6336694310012,418.6198453739999,,,,,,,,,,,,,,,,,,,,,,,,,,,,,,,,,,,418.62243122699874,418.6336694310012,418.6336694310012,419.2599366100003,b,1.0,0.6208893429975433,,,,,sub-137,1,stroop_test,64.59579857275995,
,,,,99.0,3.0,8.0,,,,,,,,,,,,,rot,red,r,1.0,r,1.0,0.5668278090015519,,,,,,,,,,8.0,3.0,99.0,1.0,419.2708220919994,,,,,,,,,,,,,,,,,419.2603987250004,419.3674010760005,420.1776306350002,420.1524596269992,,,,,,,,,,,,,,,,,,,,,,,,,,,,,,,,,,,420.1548554649999,420.1776306350002,420.1776306350002,420.7508543180011,r,1.0,0.5668278090015519,,,,,sub-137,1,stroop_test,64.59579857275995,
,,,,100.0,4.0,8.0,,,,,,,,,,,,,blau,blue,b,1.0,b,1.0,0.6386365969992767,,,,,,,,,,8.0,4.0,100.0,6.0,420.7646050479998,,,,,,,,,,,,,,,,,420.7512296189998,421.55411365599866,422.3588813259994,422.3453275190004,,,,,,,,,,,,,,,,,,,,,,,,,,,,,,,,,,,422.3485725479986,422.3588813259994,422.3588813259994,423.0039464580004,b,1.0,0.6386365969992767,,,,,sub-137,1,stroop_test,64.59579857275995,
,,,,101.0,5.0,8.0,,,,,,,,,,,,,gelb,blue,b,0.0,b,1.0,0.592661565002345,,,,,,,,,,8.0,5.0,101.0,9.0,423.02707090200056,,,,,,,,,,,,,,,,,423.0042841959985,424.2068899149999,425.0073603349993,424.9941719890012,,,,,,,,,,,,,,,,,,,,,,,,,,,,,,,,,,,424.997598588001,425.0073603349993,425.0073603349993,425.61456915500094,b,1.0,0.592661565002345,,,,,sub-137,1,stroop_test,64.59579857275995,
,,,,102.0,6.0,8.0,,,,,,,,,,,,,rot,yellow,g,0.0,g,1.0,0.7705414920019393,,,,,,,,,,8.0,6.0,102.0,3.0,425.626009536998,,,,,,,,,,,,,,,,,425.6152228059982,426.818210737998,427.621994885998,427.6069713249999,,,,,,,,,,,,,,,,,,,,,,,,,,,,,,,,,,,427.61201082299885,427.621994885998,427.621994885998,428.404172696999,g,1.0,0.7705414920019393,,,,,sub-137,1,stroop_test,64.59579857275995,
,,,,103.0,7.0,8.0,,,,,,,,,,,,,gelb,red,r,0.0,r,1.0,2.0709400239975366,,,,,,,,,,8.0,7.0,103.0,8.0,428.4275996489996,,,,,,,,,,,,,,,,,428.40452485900096,429.201467144001,430.0090511470007,429.9971224090005,,,,,,,,,,,,,,,,,,,,,,,,,,,,,,,,,,,429.9995365149989,430.0090511470007,430.0090511470007,432.08344025100087,r,1.0,2.0709400239975366,,,,,sub-137,1,stroop_test,64.59579857275995,
,,,,104.0,8.0,8.0,,,,,,,,,,,,,blau,yellow,g,0.0,b,0.0,0.6130512330018973,,,,,,,,,,8.0,8.0,104.0,7.0,432.0963231290007,,,,,,,,,,,,,,,,,432.0839388950008,432.4311498469978,433.2391796029988,433.2251638470007,,,,,,,,,,,,,,,,,,,,,,,,,,,,,,,,,,,433.229129004998,433.2391796029988,433.2391796029988,433.8690272800013,b,0.0,0.6130512330018973,,,,,sub-137,1,stroop_test,64.59579857275995,
,,,,105.0,9.0,8.0,,,,,,,,,,,,,blau,red,r,0.0,r,1.0,1.0487104869971515,,,,,,,,,,8.0,9.0,105.0,4.0,433.8781387060008,,,,,,,,,,,,,,,,,433.869397137998,435.066525500999,435.86254108399953,435.85236774299847,,,,,,,,,,,,,,,,,,,,,,,,,,,,,,,,,,,435.8529469269997,435.86254108399953,435.86254108399953,436.91830435500015,r,1.0,1.0487104869971515,,,,,sub-137,1,stroop_test,64.59579857275995,
,,,,106.0,10.0,8.0,,,,,,,,,,,,,gelb,yellow,g,1.0,g,1.0,0.793747390001954,,,,,,,,,,8.0,10.0,106.0,11.0,436.9290023479989,,,,,,,,,,,,,,,,,436.918816682999,437.02527457700126,437.8339026840004,437.8198540410013,,,,,,,,,,,,,,,,,,,,,,,,,,,,,,,,,,,437.8226223999991,437.8339026840004,437.8339026840004,438.6315641239999,g,1.0,0.793747390001954,,,,,sub-137,1,stroop_test,64.59579857275995,
,,,,107.0,11.0,8.0,,,,,,,,,,,,,gelb,yellow,g,1.0,g,1.0,0.715897796999343,,,,,,,,,,8.0,11.0,107.0,10.0,438.6419183219987,,,,,,,,,,,,,,,,,438.6319010309999,438.9867291980008,439.7847747560008,439.7725431660001,,,,,,,,,,,,,,,,,,,,,,,,,,,,,,,,,,,439.7733517749985,439.7847747560008,439.7847747560008,440.5034652350005,g,1.0,0.715897796999343,,,,,sub-137,1,stroop_test,64.59579857275995,
,,,,108.0,0.0,9.0,,,,,,,,,,,,,gelb,yellow,g,1.0,g,1.0,0.5213530360015284,,,,,,,,,,9.0,0.0,108.0,10.0,440.527225089998,,,,,,,,,,,,,,,,,440.5038394340008,440.6059366160007,441.40308262300096,441.3918636890012,,,,,,,,,,,,,,,,,,,,,,,,,,,,,,,,,,,441.39286984000137,441.40308262300096,441.40308262300096,441.92963698400126,g,1.0,0.5213530360015284,,,,,sub-137,1,stroop_test,64.59579857275995,
,,,,109.0,1.0,9.0,,,,,,,,,,,,,rot,red,r,1.0,r,1.0,0.7043938139977399,,,,,,,,,,9.0,1.0,109.0,0.0,441.9409991639986,,,,,,,,,,,,,,,,,441.9301744920013,442.2859808850008,443.0897060999996,443.074976210999,,,,,,,,,,,,,,,,,,,,,,,,,,,,,,,,,,,443.0793052269983,443.0897060999996,443.0897060999996,443.799536352999,r,1.0,0.7043938139977399,,,,,sub-137,1,stroop_test,64.59579857275995,
,,,,110.0,2.0,9.0,,,,,,,,,,,,,gelb,blue,b,0.0,b,1.0,1.100611576999654,,,,,,,,,,9.0,2.0,110.0,9.0,443.8134207799994,,,,,,,,,,,,,,,,,443.7998715440008,443.9014044389987,444.7038763739984,444.6902169780005,,,,,,,,,,,,,,,,,,,,,,,,,,,,,,,,,,,444.6941484140007,444.7038763739984,444.7038763739984,445.82042595299936,b,1.0,1.100611576999654,,,,,sub-137,1,stroop_test,64.59579857275995,
,,,,111.0,3.0,9.0,,,,,,,,,,,,,blau,blue,b,1.0,b,1.0,0.5803588580020005,,,,,,,,,,9.0,3.0,111.0,6.0,445.8442515349998,,,,,,,,,,,,,,,,,445.8209238939999,446.1691026080007,446.9753513079995,446.9618295879991,,,,,,,,,,,,,,,,,,,,,,,,,,,,,,,,,,,446.965191528001,446.9753513079995,446.9753513079995,447.5694606629986,b,1.0,0.5803588580020005,,,,,sub-137,1,stroop_test,64.59579857275995,
,,,,112.0,4.0,9.0,,,,,,,,,,,,,blau,red,r,0.0,r,1.0,0.6400943549997464,,,,,,,,,,9.0,4.0,112.0,4.0,447.5806750800002,,,,,,,,,,,,,,,,,447.56985362900014,447.6612133749986,448.4557201860007,448.4458963119978,,,,,,,,,,,,,,,,,,,,,,,,,,,,,,,,,,,448.4464458139992,448.4557201860007,448.4557201860007,449.1020198799997,r,1.0,0.6400943549997464,,,,,sub-137,1,stroop_test,64.59579857275995,
,,,,113.0,5.0,9.0,,,,,,,,,,,,,blau,yellow,g,0.0,g,1.0,0.5348266450018855,,,,,,,,,,9.0,5.0,113.0,7.0,449.112302229998,,,,,,,,,,,,,,,,,449.1023705469997,449.4500820389985,450.2538096540011,450.2422949219981,,,,,,,,,,,,,,,,,,,,,,,,,,,,,,,,,,,450.24324820200127,450.2538096540011,450.2538096540011,450.7971835649987,g,1.0,0.5348266450018855,,,,,sub-137,1,stroop_test,64.59579857275995,
,,,,114.0,6.0,9.0,,,,,,,,,,,,,rot,blue,b,0.0,r,0.0,0.6101637709980423,,,,,,,,,,9.0,6.0,114.0,2.0,450.8074034569981,,,,,,,,,,,,,,,,,450.79752436099807,450.9048730860013,451.7063647489995,451.6927452630007,,,,,,,,,,,,,,,,,,,,,,,,,,,,,,,,,,,451.69672027900015,451.7063647489995,451.7063647489995,452.32325952500105,r,0.0,0.6101637709980423,,,,,sub-137,1,stroop_test,64.59579857275995,
,,,,115.0,7.0,9.0,,,,,,,,,,,,,blau,blue,b,1.0,b,1.0,0.6157473210005264,,,,,,,,,,9.0,7.0,115.0,5.0,452.3353328379999,,,,,,,,,,,,,,,,,452.3238423619987,452.6740417479996,453.4830379999985,453.4686676019992,,,,,,,,,,,,,,,,,,,,,,,,,,,,,,,,,,,453.47108592899895,453.4830379999985,453.4830379999985,454.1138293469994,b,1.0,0.6157473210005264,,,,,sub-137,1,stroop_test,64.59579857275995,
,,,,116.0,8.0,9.0,,,,,,,,,,,,,rot,yellow,g,0.0,g,1.0,0.7915486070014595,,,,,,,,,,9.0,8.0,116.0,3.0,454.12543922400073,,,,,,,,,,,,,,,,,454.11433042000135,455.3178279780004,456.1211753089992,456.1070757230009,,,,,,,,,,,,,,,,,,,,,,,,,,,,,,,,,,,456.111060367999,456.1211753089992,456.1211753089992,456.9213990460012,g,1.0,0.7915486070014595,,,,,sub-137,1,stroop_test,64.59579857275995,
,,,,117.0,9.0,9.0,,,,,,,,,,,,,gelb,red,r,0.0,r,1.0,0.5743282710027415,,,,,,,,,,9.0,9.0,117.0,8.0,456.9329537980011,,,,,,,,,,,,,,,,,456.92201923500033,457.2724975569981,458.0750516010012,458.0599253469991,,,,,,,,,,,,,,,,,,,,,,,,,,,,,,,,,,,458.0641500919992,458.0750516010012,458.0750516010012,458.66403375200025,r,1.0,0.5743282710027415,,,,,sub-137,1,stroop_test,64.59579857275995,
,,,,118.0,10.0,9.0,,,,,,,,,,,,,rot,red,r,1.0,r,1.0,0.5305265659990255,,,,,,,,,,9.0,10.0,118.0,1.0,458.67541477399936,,,,,,,,,,,,,,,,,458.66455502700046,459.4665345969988,460.2759415090004,460.2626959119989,,,,,,,,,,,,,,,,,,,,,,,,,,,,,,,,,,,460.2660458930004,460.2759415090004,460.2759415090004,460.8122697539984,r,1.0,0.5305265659990255,,,,,sub-137,1,stroop_test,64.59579857275995,
,,,,119.0,11.0,9.0,,,,,,,,,,,,,gelb,yellow,g,1.0,g,1.0,0.6786586430025636,,,,,,,,,,9.0,11.0,119.0,11.0,460.82841289499993,,,,,,,,,,,,,,,,,460.812787507999,460.9150473339978,461.7213506759981,461.7077587159984,,,,,,,,,,,,,,,,,,,,,,,,,,,,,,,,,,,461.7114893319995,461.7213506759981,461.7213506759981,462.40505850499903,g,1.0,0.6786586430025636,,,,,sub-137,1,stroop_test,64.59579857275995,
,,,,,,,,,,,,,,,,,,,,,,,,,,,,,,,,,,,,,,,,,,,,,,,,,,,,,,,,,,,,,,,,,,,,,,,,,,,,,,,,,,,,,,,,,,,,,,,,,,,,,,462.40522411799975,462.4189209120013,467.4089706150007,sub-137,1,stroop_test,64.59579857275995,
