wordCTK,colorCTK,corrAnsCTK,congruentCTK,wordPractice,colorPractice,corrAnsPractice,congruentPractice,word,color,corrAns,congruent,trials_CTK.thisRepN,trials_CTK.thisTrialN,trials_CTK.thisN,trials_CTK.thisIndex,trials_practice.thisRepN,trials_practice.thisTrialN,trials_practice.thisN,trials_practice.thisIndex,trials_test.thisRepN,trials_test.thisTrialN,trials_test.thisN,trials_test.thisIndex,thisRow.t,notes,instruction.started,instr_text.started,instr_image.started,instr_resp.started,instruction.stopped,instr_resp.keys,instr_resp.rt,instr_resp.duration,instr_color_to_key.started,instr_ctk.started,resp_ctk.started,instr_color_to_key.stopped,resp_ctk.keys,resp_ctk.rt,resp_ctk.duration,ITI.started,fixcross.started,fixcross.stopped,ITI.stopped,color_to_key_run.started,stimulus_CTK.started,keyResp_CTK.started,color_to_key_run.stopped,keyResp_CTK.keys,keyResp_CTK.corr,keyResp_CTK.rt,keyResp_CTK.duration,instr_practice.started,instr_practice_text.started,instr_practice_resp.started,instr_practice.stopped,instr_practice_resp.keys,instr_practice_resp.rt,instr_practice_resp.duration,practice_run.started,stimulus_practice.started,respPractice.started,practice_run.stopped,respPractice.keys,respPractice.corr,respPractice.rt,respPractice.duration,feedback.started,textFeedback.started,feedback.stopped,textFeedback.stopped,instr_test.started,instr_test_text.started,instr_test_resp.started,instr_test.stopped,instr_test_resp.keys,instr_test_resp.rt,instr_test_resp.duration,test_run.started,stimulus_test_run.started,keyResp_test_run.started,test_run.stopped,keyResp_test_run.keys,keyResp_test_run.corr,keyResp_test_run.rt,keyResp_test_run.duration,goodbye.started,textGoodbye.started,participant,session,expName,frameRate,Unnamed: 96
,,,,,,,,,,,,,,,,,,,,,,,,,,0.0018102999965776,0.0333892999988165,0.0333892999988165,0.0333892999988165,38.234213399999135,space,38.19635079999716,,,,,,,,,,,,,,,,,,,,,,,,,,,,,,,,,,,,,,,,,,,,,,,,,,,,,,,,,sub-047,1.0,stroop_test,60.01983055278885,
,,,,,,,,,,,,,,,,,,,,,,,,,,,,,,,,,,38.23430859999644,38.24823269999615,38.24823269999615,101.54009339999902,space,63.287051899998914,,,,,,,,,,,,,,,,,,,,,,,,,,,,,,,,,,,,,,,,,,,,,,,,,,sub-047,1.0,stroop_test,60.01983055278885,
test,blue,b,1.0,,,,,,,,,0.0,0.0,0.0,2.0,,,,,,,,,101.56975699999748,,,,,,,,,,,,,,,,,101.56525159999728,102.75476279999566,103.56664819999423,103.53953309999632,103.53961029999482,103.56664819999423,103.56664819999423,105.00706669999636,b,1.0,1.427029099999345,,,,,,,,,,,,,,,,,,,,,,,,,,,,,,,,,,,,,,sub-047,1.0,stroop_test,60.01983055278885,
test,yellow,g,1.0,,,,,,,,,0.0,1.0,1.0,1.0,,,,,,,,,105.02091300000028,,,,,,,,,,,,,,,,,105.0103017999936,106.220871599995,107.0208203000002,107.00604259999818,107.00614559999669,107.0208203000002,107.0208203000002,107.88990689999628,g,1.0,0.8659191999977338,,,,,,,,,,,,,,,,,,,,,,,,,,,,,,,,,,,,,,sub-047,1.0,stroop_test,60.01983055278885,
test,red,r,1.0,,,,,,,,,0.0,2.0,2.0,0.0,,,,,,,,,107.9038944999993,,,,,,,,,,,,,,,,,107.89221299999916,108.70368439999584,109.50341359999584,109.48866879999696,109.4887619999936,109.50341359999584,109.50341359999584,109.99046229999658,r,1.0,0.4840540000004694,,,,,,,,,,,,,,,,,,,,,,,,,,,,,,,,,,,,,,sub-047,1.0,stroop_test,60.01983055278885,
test,blue,b,1.0,,,,,,,,,1.0,0.0,3.0,2.0,,,,,,,,,110.00351039999804,,,,,,,,,,,,,,,,,109.99282469999888,110.10346089999804,110.90324619999592,110.8886779999957,110.88874789999682,110.90324619999592,110.90324619999592,111.33946289999584,b,1.0,0.4306011000007856,,,,,,,,,,,,,,,,,,,,,,,,,,,,,,,,,,,,,,sub-047,1.0,stroop_test,60.01983055278885,
test,yellow,g,1.0,,,,,,,,,1.0,1.0,4.0,1.0,,,,,,,,,111.35333289999836,,,,,,,,,,,,,,,,,111.34196929999598,112.15334520000032,112.95308680000016,112.9377084999942,112.93779549999454,112.95308680000016,112.95308680000016,113.38912770000024,g,1.0,0.4275226999961887,,,,,,,,,,,,,,,,,,,,,,,,,,,,,,,,,,,,,,sub-047,1.0,stroop_test,60.01983055278885,
test,red,r,1.0,,,,,,,,,1.0,2.0,5.0,0.0,,,,,,,,,113.40286719999858,,,,,,,,,,,,,,,,,113.39156599999842,113.75293589999636,114.55264319999696,114.53769629999442,114.537779899998,114.55264319999696,114.55264319999696,115.00543109999852,r,1.0,0.4355328999954508,,,,,,,,,,,,,,,,,,,,,,,,,,,,,,,,,,,,,,sub-047,1.0,stroop_test,60.01983055278885,
test,blue,b,1.0,,,,,,,,,2.0,0.0,6.0,2.0,,,,,,,,,115.01934239999537,,,,,,,,,,,,,,,,,115.00778779999382,115.8193833999976,116.61903339999844,116.60406079999666,116.60412929999438,116.61903339999844,116.61903339999844,117.05500149999716,b,1.0,0.42716179999843,,,,,,,,,,,,,,,,,,,,,,,,,,,,,,,,,,,,,,sub-047,1.0,stroop_test,60.01983055278885,
test,yellow,g,1.0,,,,,,,,,2.0,1.0,7.0,1.0,,,,,,,,,117.06886089999898,,,,,,,,,,,,,,,,,117.05745999999635,118.2686523999946,119.06874930000048,119.05387929999416,119.0539512999967,119.06874930000048,119.06874930000048,119.4381097000005,g,1.0,0.3584330999947269,,,,,,,,,,,,,,,,,,,,,,,,,,,,,,,,,,,,,,sub-047,1.0,stroop_test,60.01983055278885,
test,red,r,1.0,,,,,,,,,2.0,2.0,8.0,0.0,,,,,,,,,119.45191299999716,,,,,,,,,,,,,,,,,119.4404357999956,120.6516432999997,121.4514721999949,121.43664439999702,121.43672559999686,121.4514721999949,121.4514721999949,121.73749959999986,r,1.0,0.2682160999975167,,,,,,,,,,,,,,,,,,,,,,,,,,,,,,,,,,,,,,sub-047,1.0,stroop_test,60.01983055278885,
test,yellow,g,1.0,,,,,,,,,3.0,0.0,9.0,1.0,,,,,,,,,121.75129919999743,,,,,,,,,,,,,,,,,121.73999209999602,122.5514664999937,123.35141129999828,123.33619659999384,123.33629029999427,123.35141129999828,123.35141129999828,124.1539042000004,g,1.0,0.789271399997233,,,,,,,,,,,,,,,,,,,,,,,,,,,,,,,,,,,,,,sub-047,1.0,stroop_test,60.01983055278885,
test,blue,b,1.0,,,,,,,,,3.0,1.0,10.0,2.0,,,,,,,,,124.1679526999942,,,,,,,,,,,,,,,,,124.1562552999967,124.26770559999568,125.06787719999556,125.05260239999916,125.05267379999714,125.06787719999556,125.06787719999556,125.72031529999369,b,1.0,0.6405949000036344,,,,,,,,,,,,,,,,,,,,,,,,,,,,,,,,,,,,,,sub-047,1.0,stroop_test,60.01983055278885,
test,red,r,1.0,,,,,,,,,3.0,2.0,11.0,0.0,,,,,,,,,125.73399839999912,,,,,,,,,,,,,,,,,125.72339159999684,126.53398699999524,127.334102599998,127.3190461999984,127.31911720000062,127.334102599998,127.334102599998,127.83787489999668,r,1.0,0.4996377999996184,,,,,,,,,,,,,,,,,,,,,,,,,,,,,,,,,,,,,,sub-047,1.0,stroop_test,60.01983055278885,
,,,,,,,,,,,,,,,,,,,,,,,,,,,,,,,,,,,,,,,,,,,,,,,,,,,,,127.84013240000058,127.85052229999565,127.85052229999565,129.00321149999945,space,1.1420823000007658,,,,,,,,,,,,,,,,,,,,,,,,,,,,,,,sub-047,1.0,stroop_test,60.01983055278885,
,,,,blau,blue,b,1.0,,,,,,,,,0.0,0.0,0.0,6.0,,,,,129.03473439999652,,,,,,,,,,,,,,,,,129.03062379999756,129.81698279999546,130.6294431999995,130.60168529999646,,,,,,,,,,,,,,,,130.60180509999918,130.6294431999995,130.6294431999995,131.9197713999965,b,1.0,1.2823262000019895,,131.92213159999665,131.95473059999495,132.93365119999362,,,,,,,,,,,,,,,,,,,sub-047,1.0,stroop_test,60.01983055278885,
,,,,rot,yellow,g,0.0,,,,,,,,,0.0,1.0,1.0,3.0,,,,,132.9496463999967,,,,,,,,,,,,,,,,,132.93496699999378,133.7327781999993,134.54027549999591,134.5177218999961,,,,,,,,,,,,,,,,134.51780669999425,134.54027549999591,134.54027549999591,135.71897739999986,g,1.0,1.1751062999974238,,135.72047999999631,135.73256910000055,136.7176674999937,136.73246469999867,,,,,,,,,,,,,,,,,,sub-047,1.0,stroop_test,60.01983055278885,
,,,,gelb,yellow,g,1.0,,,,,,,,,0.0,2.0,2.0,11.0,,,,,136.73246469999867,,,,,,,,,,,,,,,,,136.71881159999612,137.93247379999957,138.73624539999582,138.7171611999947,,,,,,,,,,,,,,,,138.71724019999965,138.73624539999582,138.73624539999582,139.45188029999554,g,1.0,0.7013030999951297,,139.45346140000038,139.46528659999603,140.4504278999957,140.46557480000047,,,,,,,,,,,,,,,,,,sub-047,1.0,stroop_test,60.01983055278885,
,,,,gelb,yellow,g,1.0,,,,,,,,,0.0,3.0,3.0,10.0,,,,,140.46557480000047,,,,,,,,,,,,,,,,,140.45166599999357,140.81519099999423,141.61488489999465,141.59973159999936,,,,,,,,,,,,,,,,141.5998027999958,141.61488489999465,141.61488489999465,142.33437779999804,g,1.0,0.7149665000033565,,142.33592739999585,142.34826729999622,143.33335259999876,143.3480477999983,,,,,,,,,,,,,,,,,,sub-047,1.0,stroop_test,60.01983055278885,
,,,,blau,red,r,0.0,,,,,,,,,0.0,4.0,4.0,4.0,,,,,143.3480477999983,,,,,,,,,,,,,,,,,143.33466549999866,143.69816609999543,144.5005014999988,144.48329340000055,,,,,,,,,,,,,,,,144.483413199996,144.5005014999988,144.5005014999988,145.38345299999492,r,1.0,0.8652087999944342,,145.38475489999837,145.39764060000016,146.3814809999967,146.39729979999538,,,,,,,,,,,,,,,,,,sub-047,1.0,stroop_test,60.01983055278885,
,,,,rot,blue,b,0.0,,,,,,,,,0.0,5.0,5.0,2.0,,,,,146.39729979999538,,,,,,,,,,,,,,,,,146.38221019999764,147.5975657999952,148.3986350999985,148.381893699996,,,,,,,,,,,,,,,,148.3819646999982,148.3986350999985,148.3986350999985,150.1162811999966,b,1.0,1.7001338999980362,,150.1178226999982,150.13034119999793,151.1152673999968,151.13002720000077,,,,,,,,,,,,,,,,,,sub-047,1.0,stroop_test,60.01983055278885,
,,,,rot,red,r,1.0,,,,,,,,,0.0,6.0,6.0,1.0,,,,,151.13002720000077,,,,,,,,,,,,,,,,,151.11643639999966,151.2300738999984,152.02986599999713,152.01507759999367,,,,,,,,,,,,,,,,152.01514949999546,152.02986599999713,152.02986599999713,152.74964099999488,r,1.0,0.7160825999962981,,152.75124149999465,152.7630216999969,153.7481403999991,153.76304929999606,,,,,,,,,,,,,,,,,,sub-047,1.0,stroop_test,60.01983055278885,
,,,,gelb,blue,b,0.0,,,,,,,,,0.0,7.0,7.0,9.0,,,,,153.76304929999606,,,,,,,,,,,,,,,,,153.7494299999962,154.11284629999864,154.9161208000005,154.89823999999498,,,,,,,,,,,,,,,,154.89831839999533,154.9161208000005,154.9161208000005,155.51588529999572,g,0.0,0.5950979999979609,,155.51741039999615,155.5415240999937,156.52953569999954,,,,,,,,,,,,,,,,,,,sub-047,1.0,stroop_test,60.01983055278885,
,,,,blau,yellow,g,0.0,,,,,,,,,0.0,8.0,8.0,7.0,,,,,156.54581179999514,,,,,,,,,,,,,,,,,156.53074869999546,156.62913709999702,157.42886729999736,157.41370679999818,,,,,,,,,,,,,,,,157.4137824999998,157.42886729999736,157.42886729999736,158.4814578000005,g,1.0,1.0347547999990638,,158.4829943999939,158.50207170000067,159.4959474999996,,,,,,,,,,,,,,,,,,,sub-047,1.0,stroop_test,60.01983055278885,
,,,,blau,blue,b,1.0,,,,,,,,,0.0,9.0,9.0,5.0,,,,,159.51228679999622,,,,,,,,,,,,,,,,,159.49727979999443,159.8456886999993,160.64525839999988,160.6303759999937,,,,,,,,,,,,,,,,160.63044689999515,160.64525839999988,160.64525839999988,161.13142389999848,b,1.0,0.4813123999992967,,161.1331871000002,161.14485669999704,162.12997429999814,162.14500319999934,,,,,,,,,,,,,,,,,,sub-047,1.0,stroop_test,60.01983055278885,
,,,,gelb,red,r,0.0,,,,,,,,,0.0,10.0,10.0,8.0,,,,,162.14500319999934,,,,,,,,,,,,,,,,,162.13123089999863,162.94485399999394,163.7492529999945,163.73012639999797,,,,,,,,,,,,,,,,163.7302073999963,163.7492529999945,163.7492529999945,164.3809528999991,r,1.0,0.6197236999942106,,164.3825108999954,164.39464210000006,165.3794756999996,165.39447319999454,,,,,,,,,,,,,,,,,,sub-047,1.0,stroop_test,60.01983055278885,
,,,,rot,red,r,1.0,,,,,,,,,0.0,11.0,11.0,0.0,,,,,165.39447319999454,,,,,,,,,,,,,,,,,165.38061939999898,165.744257499995,166.54793670000072,166.52944419999403,,,,,,,,,,,,,,,,166.52951269999903,166.54793670000072,166.54793670000072,167.1137388999996,r,1.0,0.5598021999976481,,167.11533399999462,167.12763009999617,168.11224049999873,168.127539299996,,,,,,,,,,,,,,,,,,sub-047,1.0,stroop_test,60.01983055278885,
,,,,gelb,yellow,g,1.0,,,,,,,,,1.0,0.0,12.0,11.0,,,,,168.127539299996,,,,,,,,,,,,,,,,,168.113391699997,168.22756369999843,169.03136149999773,169.01220489999832,,,,,,,,,,,,,,,,169.01230699999724,169.03136149999773,169.03136149999773,169.82978580000054,g,1.0,0.792484700003115,,169.8314140999937,169.8436545000004,170.82858909999777,170.84356479999406,,,,,,,,,,,,,,,,,,sub-047,1.0,stroop_test,60.01983055278885,
,,,,rot,yellow,g,0.0,,,,,,,,,1.0,1.0,13.0,3.0,,,,,170.84356479999406,,,,,,,,,,,,,,,,,170.82974999999715,172.04337209999358,172.84639839999727,172.82800629999838,,,,,,,,,,,,,,,,172.8280764999945,172.84639839999727,172.84639839999727,173.81278380000003,g,1.0,0.9488704000032158,,173.8144031999982,173.82652529999905,174.81136349999724,174.82637289999548,,,,,,,,,,,,,,,,,,sub-047,1.0,stroop_test,60.01983055278885,
,,,,blau,yellow,g,0.0,,,,,,,,,1.0,2.0,14.0,7.0,,,,,174.82637289999548,,,,,,,,,,,,,,,,,174.8126029999985,175.62625569999364,176.42868769999768,176.41102889999456,,,,,,,,,,,,,,,,176.41110829999525,176.42868769999768,176.42868769999768,177.51248029999988,g,1.0,1.0757261000035214,,177.5140637000004,177.52577369999926,178.51063900000008,178.525504499994,,,,,,,,,,,,,,,,,,sub-047,1.0,stroop_test,60.01983055278885,
,,,,blau,blue,b,1.0,,,,,,,,,1.0,3.0,15.0,5.0,,,,,178.525504499994,,,,,,,,,,,,,,,,,178.51186649999727,178.62562989999424,179.42560679999588,179.41058549999434,,,,,,,,,,,,,,,,179.41066809999757,179.42560679999588,179.42560679999588,180.16241810000065,b,1.0,0.7338989000054426,,180.16393919999973,180.17555749999883,181.1604892999967,181.1751111999984,,,,,,,,,,,,,,,,,,sub-047,1.0,stroop_test,60.01983055278885,
,,,,blau,red,r,0.0,,,,,,,,,1.0,4.0,16.0,4.0,,,,,181.1751111999984,,,,,,,,,,,,,,,,,181.161838299995,181.5251261999947,182.32507249999617,182.31005379999988,,,,,,,,,,,,,,,,182.3101433999982,182.32507249999617,182.32507249999617,183.4608705999999,r,1.0,1.1199466999969443,,183.46247120000044,183.4748117999989,184.4597785000005,184.47499160000007,,,,,,,,,,,,,,,,,,sub-047,1.0,stroop_test,60.01983055278885,
,,,,rot,red,r,1.0,,,,,,,,,1.0,5.0,17.0,0.0,,,,,184.47499160000007,,,,,,,,,,,,,,,,,184.4609535999989,184.8245536999966,185.62824519999413,185.6095387999958,,,,,,,,,,,,,,,,185.6096171999961,185.62824519999413,185.62824519999413,186.54379789999803,r,1.0,0.9073786000008112,,186.54528659999775,186.5575322000004,187.5427522999962,187.55728819999783,,,,,,,,,,,,,,,,,,sub-047,1.0,stroop_test,60.01983055278885,
,,,,gelb,red,r,0.0,,,,,,,,,1.0,6.0,18.0,8.0,,,,,187.55728819999783,,,,,,,,,,,,,,,,,187.54393929999787,188.3575204000008,189.1611317999996,189.14247809999503,,,,,,,,,,,,,,,,189.14256580000077,189.1611317999996,189.1611317999996,189.89356399999812,r,1.0,0.72334260000207,,189.89509510000065,189.90706499999945,190.89244679999683,190.90703059999944,,,,,,,,,,,,,,,,,,sub-047,1.0,stroop_test,60.01983055278885,
,,,,rot,red,r,1.0,,,,,,,,,1.0,7.0,19.0,1.0,,,,,190.90703059999944,,,,,,,,,,,,,,,,,190.89364789999672,191.7068822000001,192.51017529999808,192.4920364999998,,,,,,,,,,,,,,,,192.4921082999936,192.51017529999808,192.51017529999808,193.0595897999956,r,1.0,0.5310094000014942,,193.0611261999948,193.0734339999981,194.05840679999528,194.07301809999623,,,,,,,,,,,,,,,,,,sub-047,1.0,stroop_test,60.01983055278885,
,,,,gelb,blue,b,0.0,,,,,,,,,1.0,8.0,20.0,9.0,,,,,194.07301809999623,,,,,,,,,,,,,,,,,194.05965789999755,195.27295729999605,196.0761050000001,196.05780709999817,,,,,,,,,,,,,,,,196.0578777999981,196.0761050000001,196.0761050000001,196.5922795000006,b,1.0,0.4998436999958358,,196.59399029999625,196.60627739999472,197.59117909999625,197.60599309999816,,,,,,,,,,,,,,,,,,sub-047,1.0,stroop_test,60.01983055278885,
,,,,blau,blue,b,1.0,,,,,,,,,1.0,9.0,21.0,6.0,,,,,197.60599309999816,,,,,,,,,,,,,,,,,197.5924283999993,198.4055909999952,199.2080812999993,199.19099309999729,,,,,,,,,,,,,,,,199.19107229999645,199.2080812999993,199.2080812999993,199.725248799994,b,1.0,0.4996920999983558,,199.72680609999952,199.7390760999988,200.7241216999973,200.73885289999453,,,,,,,,,,,,,,,,,,sub-047,1.0,stroop_test,60.01983055278885,
,,,,rot,blue,b,0.0,,,,,,,,,1.0,10.0,22.0,2.0,,,,,200.73885289999453,,,,,,,,,,,,,,,,,200.7253578999953,200.83874569999895,201.6451699999961,201.62373189999929,,,,,,,,,,,,,,,,201.62381069999535,201.6451699999961,201.6451699999961,202.69111809999595,b,1.0,1.028166500000225,,202.6927434999961,202.70486659999733,203.68990029999983,203.7046474999952,,,,,,,,,,,,,,,,,,sub-047,1.0,stroop_test,60.01983055278885,
,,,,gelb,yellow,g,1.0,,,,,,,,,1.0,11.0,23.0,10.0,,,,,203.7046474999952,,,,,,,,,,,,,,,,,203.6910566000006,204.9045427999954,205.70539029999784,205.68884439999965,,,,,,,,,,,,,,,,205.688905899995,205.70539029999784,205.70539029999784,206.30765399999652,g,1.0,0.5912134999962291,,206.3091570999968,206.3210332999952,207.30616399999417,207.3210273999939,,,,,,,,,,,,,,,,,,sub-047,1.0,stroop_test,60.01983055278885,
,,,,,,,,,,,,,,,,,,,,,,,,,,,,,,,,,,,,,,,,,,,,,,,,,,,,,,,,,,,,,,,,,,,,,,,,207.3063930999997,207.3210273999939,207.3210273999939,208.4571456999984,space,1.123925899999449,,,,,,,,,,,,sub-047,1.0,stroop_test,60.01983055278885,
,,,,,,,,gelb,yellow,g,1.0,,,,,,,,,0.0,0.0,0.0,10.0,208.4903998999944,,,,,,,,,,,,,,,,,208.4854192999992,209.67063000000053,210.4740726999953,210.45569389999585,,,,,,,,,,,,,,,,,,,,,,,,,,,,,,,,,,,210.45578569999637,210.4740726999953,210.4740726999953,211.24002529999416,g,1.0,0.7571621000024606,,,,sub-047,1.0,stroop_test,60.01983055278885,
,,,,,,,,blau,blue,b,1.0,,,,,,,,,0.0,1.0,1.0,6.0,211.25363719999584,,,,,,,,,,,,,,,,,211.2440729999944,211.6036826999989,212.40495259999443,212.38858149999575,,,,,,,,,,,,,,,,,,,,,,,,,,,,,,,,,,,212.3886538999941,212.40495259999443,212.40495259999443,213.25620929999425,b,1.0,0.8364385000022594,,,,sub-047,1.0,stroop_test,60.01983055278885,
,,,,,,,,gelb,red,r,0.0,,,,,,,,,0.0,2.0,2.0,8.0,213.27005509999435,,,,,,,,,,,,,,,,,213.2588872999986,213.62003459999687,214.4229401999983,214.4049956999952,,,,,,,,,,,,,,,,,,,,,,,,,,,,,,,,,,,214.4050661000001,214.4229401999983,214.4229401999983,215.03911809999408,r,1.0,0.603731200004404,,,,sub-047,1.0,stroop_test,60.01983055278885,
,,,,,,,,blau,red,r,0.0,,,,,,,,,0.0,3.0,3.0,4.0,215.05327140000009,,,,,,,,,,,,,,,,,215.04176809999623,215.15315239999472,215.9550409999938,215.93814209999985,,,,,,,,,,,,,,,,,,,,,,,,,,,,,,,,,,,215.9382110000006,215.9550409999938,215.9550409999938,216.47253729999647,r,1.0,0.5051434999986668,,,,sub-047,1.0,stroop_test,60.01983055278885,
,,,,,,,,rot,red,r,1.0,,,,,,,,,0.0,4.0,4.0,0.0,216.486430099998,,,,,,,,,,,,,,,,,216.4753303999969,217.2861558999939,218.0907305000001,218.0708505999937,,,,,,,,,,,,,,,,,,,,,,,,,,,,,,,,,,,218.070933899995,218.0907305000001,218.0907305000001,218.55507389999548,r,1.0,0.4530247000002418,,,,sub-047,1.0,stroop_test,60.01983055278885,
,,,,,,,,blau,blue,b,1.0,,,,,,,,,0.0,5.0,5.0,5.0,218.56921509999663,,,,,,,,,,,,,,,,,218.5578023999988,219.76891129999424,220.5706682999953,220.55418039999492,,,,,,,,,,,,,,,,,,,,,,,,,,,,,,,,,,,220.5542503999968,220.5706682999953,220.5706682999953,221.2562082999939,b,1.0,0.6820287000009557,,,,sub-047,1.0,stroop_test,60.01983055278885,
,,,,,,,,gelb,yellow,g,1.0,,,,,,,,,0.0,6.0,6.0,11.0,221.26857279999967,,,,,,,,,,,,,,,,,221.25880969999707,222.06871229999524,222.87188199999943,222.85380109999824,,,,,,,,,,,,,,,,,,,,,,,,,,,,,,,,,,,222.8538816,222.87188199999943,222.87188199999943,223.42113619999876,g,1.0,0.5390054000017699,,,,sub-047,1.0,stroop_test,60.01983055278885,
,,,,,,,,rot,red,r,1.0,,,,,,,,,0.0,7.0,7.0,1.0,223.43488049999723,,,,,,,,,,,,,,,,,223.423744199994,223.7849695999976,224.58905629999936,224.56983429999676,,,,,,,,,,,,,,,,,,,,,,,,,,,,,,,,,,,224.56991419999397,224.58905629999936,224.58905629999936,225.3541985999982,r,1.0,0.7483369000037783,,,,sub-047,1.0,stroop_test,60.01983055278885,
,,,,,,,,blau,yellow,g,0.0,,,,,,,,,0.0,8.0,8.0,7.0,225.36774769999465,,,,,,,,,,,,,,,,,225.35682479999377,226.56779539999843,227.37001749999763,227.35312079999855,,,,,,,,,,,,,,,,,,,,,,,,,,,,,,,,,,,227.3532405000005,227.37001749999763,227.37001749999763,228.22074939999584,b,0.0,0.8421088999966742,,,,sub-047,1.0,stroop_test,60.01983055278885,
,,,,,,,,rot,yellow,g,0.0,,,,,,,,,0.0,9.0,9.0,3.0,228.2342731999961,,,,,,,,,,,,,,,,,228.22335679999375,229.43411719999855,230.23742979999952,230.21911949999776,,,,,,,,,,,,,,,,,,,,,,,,,,,,,,,,,,,230.2192192999937,230.23742979999952,230.23742979999952,231.58672079999812,g,1.0,1.3423745999971288,,,,sub-047,1.0,stroop_test,60.01983055278885,
,,,,,,,,rot,blue,b,0.0,,,,,,,,,0.0,10.0,10.0,2.0,231.60032939999653,,,,,,,,,,,,,,,,,231.58936809999432,232.80029629999623,233.60002859999804,233.58506019999916,,,,,,,,,,,,,,,,,,,,,,,,,,,,,,,,,,,233.5851391999968,233.60002859999804,233.60002859999804,234.7693478000001,b,1.0,1.1536917999983416,,,,sub-047,1.0,stroop_test,60.01983055278885,
,,,,,,,,gelb,blue,b,0.0,,,,,,,,,0.0,11.0,11.0,9.0,234.7833488999968,,,,,,,,,,,,,,,,,234.77195909999864,235.58328319999416,236.38824689999456,236.3683808999995,,,,,,,,,,,,,,,,,,,,,,,,,,,,,,,,,,,236.36847159999888,236.38824689999456,236.38824689999456,237.16875759999675,b,1.0,0.7675527999963379,,,,sub-047,1.0,stroop_test,60.01983055278885,
,,,,,,,,blau,blue,b,1.0,,,,,,,,,1.0,0.0,12.0,5.0,237.18259009999747,,,,,,,,,,,,,,,,,237.1714135000002,237.2827450999976,238.08369949999903,238.06760129999748,,,,,,,,,,,,,,,,,,,,,,,,,,,,,,,,,,,238.0676708999963,238.08369949999903,238.08369949999903,238.585779999994,b,1.0,0.4988758999970741,,,,sub-047,1.0,stroop_test,60.01983055278885,
,,,,,,,,gelb,blue,b,0.0,,,,,,,,,1.0,1.0,13.0,9.0,238.59923580000032,,,,,,,,,,,,,,,,,238.5884328999964,238.9491684999957,239.75291540000035,239.7343985999978,,,,,,,,,,,,,,,,,,,,,,,,,,,,,,,,,,,239.7344680999959,239.75291540000035,239.75291540000035,240.6347781000004,b,1.0,0.869554099997913,,,,sub-047,1.0,stroop_test,60.01983055278885,
,,,,,,,,gelb,yellow,g,1.0,,,,,,,,,1.0,2.0,14.0,10.0,240.6487128000008,,,,,,,,,,,,,,,,,240.6373697999952,240.99900479999636,241.79880169999524,241.78355969999396,,,,,,,,,,,,,,,,,,,,,,,,,,,,,,,,,,,241.78362959999504,241.79880169999524,241.79880169999524,242.6016301999989,g,1.0,0.7952549000037834,,,,sub-047,1.0,stroop_test,60.01983055278885,
,,,,,,,,gelb,red,r,0.0,,,,,,,,,1.0,3.0,15.0,8.0,242.61516689999556,,,,,,,,,,,,,,,,,242.6042815999972,243.415276199994,244.21500769999693,244.2003843999992,,,,,,,,,,,,,,,,,,,,,,,,,,,,,,,,,,,244.20048249999672,244.21500769999693,244.21500769999693,244.70091309999407,r,1.0,0.4698344999997061,,,,sub-047,1.0,stroop_test,60.01983055278885,
,,,,,,,,blau,red,r,0.0,,,,,,,,,1.0,4.0,16.0,4.0,244.7147199999963,,,,,,,,,,,,,,,,,244.70355389999892,245.06469739999736,245.8661875999969,245.8496853999968,,,,,,,,,,,,,,,,,,,,,,,,,,,,,,,,,,,245.84976659999663,245.8661875999969,245.8661875999969,246.88405860000057,r,1.0,1.005427900003269,,,,sub-047,1.0,stroop_test,60.01983055278885,
,,,,,,,,gelb,yellow,g,1.0,,,,,,,,,1.0,5.0,17.0,11.0,246.8978552999979,,,,,,,,,,,,,,,,,246.8868199999997,247.2477940999961,248.05227079999892,248.0328490999964,,,,,,,,,,,,,,,,,,,,,,,,,,,,,,,,,,,248.03291739999983,248.05227079999892,248.05227079999892,248.8835485999953,g,1.0,0.827577799995197,,,,sub-047,1.0,stroop_test,60.01983055278885,
,,,,,,,,rot,blue,b,0.0,,,,,,,,,1.0,6.0,18.0,2.0,248.8976246999955,,,,,,,,,,,,,,,,,248.88616869999527,249.69731169999432,250.5018147999945,250.48231409999423,,,,,,,,,,,,,,,,,,,,,,,,,,,,,,,,,,,250.48238379999384,250.5018147999945,250.5018147999945,251.33330019999997,b,1.0,0.8208713999993051,,,,sub-047,1.0,stroop_test,60.01983055278885,
,,,,,,,,rot,red,r,1.0,,,,,,,,,1.0,7.0,19.0,1.0,251.34723569999915,,,,,,,,,,,,,,,,,251.3359421999994,251.44709619999776,252.24704949999432,252.23215150000036,,,,,,,,,,,,,,,,,,,,,,,,,,,,,,,,,,,252.2322226999968,252.24704949999432,252.24704949999432,252.96616259999428,r,1.0,0.706978700000036,,,,sub-047,1.0,stroop_test,60.01983055278885,
,,,,,,,,rot,red,r,1.0,,,,,,,,,1.0,8.0,20.0,0.0,252.9800843999983,,,,,,,,,,,,,,,,,252.9688985999965,254.17990439999997,254.9798698999948,254.96539639999537,,,,,,,,,,,,,,,,,,,,,,,,,,,,,,,,,,,254.9654747999957,254.9798698999948,254.9798698999948,255.6160818999997,r,1.0,0.632635100002517,,,,sub-047,1.0,stroop_test,60.01983055278885,
,,,,,,,,rot,yellow,g,0.0,,,,,,,,,1.0,9.0,21.0,3.0,255.62997919999907,,,,,,,,,,,,,,,,,255.6186718999961,256.4299852999975,257.2292804999961,257.2147479999985,,,,,,,,,,,,,,,,,,,,,,,,,,,,,,,,,,,257.2148190000007,257.2292804999961,257.2292804999961,258.0821555000002,g,1.0,0.8349063999994542,,,,sub-047,1.0,stroop_test,60.01983055278885,
,,,,,,,,blau,blue,b,1.0,,,,,,,,,1.0,10.0,22.0,6.0,258.09588289999374,,,,,,,,,,,,,,,,,258.0847919999942,258.19600089999585,258.99762769999506,258.9810679000002,,,,,,,,,,,,,,,,,,,,,,,,,,,,,,,,,,,258.9811467999971,258.99762769999506,258.99762769999506,259.69863389999955,b,1.0,0.6832895000043209,,,,sub-047,1.0,stroop_test,60.01983055278885,
,,,,,,,,blau,yellow,g,0.0,,,,,,,,,1.0,11.0,23.0,7.0,259.7124177000005,,,,,,,,,,,,,,,,,259.7013280999963,260.0627523000003,260.8621966999999,260.84747069999867,,,,,,,,,,,,,,,,,,,,,,,,,,,,,,,,,,,260.8475522000008,260.8621966999999,260.8621966999999,262.048212099995,g,1.0,1.1808428000003914,,,,sub-047,1.0,stroop_test,60.01983055278885,
,,,,,,,,gelb,yellow,g,1.0,,,,,,,,,2.0,0.0,24.0,11.0,262.0621112000008,,,,,,,,,,,,,,,,,262.0509538999977,263.2618408999988,264.06580229999963,264.0471208999952,,,,,,,,,,,,,,,,,,,,,,,,,,,,,,,,,,,264.0471907999963,264.06580229999963,264.06580229999963,264.7310743999988,g,1.0,0.6495891999948071,,,,sub-047,1.0,stroop_test,60.01983055278885,
,,,,,,,,blau,blue,b,1.0,,,,,,,,,2.0,1.0,25.0,6.0,264.74499159999687,,,,,,,,,,,,,,,,,264.7337602999978,265.94451869999466,266.7441061999998,266.7287051999956,,,,,,,,,,,,,,,,,,,,,,,,,,,,,,,,,,,266.7287597999966,266.7441061999998,266.7441061999998,267.5141491999966,b,1.0,0.7574391000016476,,,,sub-047,1.0,stroop_test,60.01983055278885,
,,,,,,,,blau,yellow,g,0.0,,,,,,,,,2.0,2.0,26.0,7.0,267.52792919999774,,,,,,,,,,,,,,,,,267.5167609999989,267.6278517999963,268.42798899999616,268.4124821000005,,,,,,,,,,,,,,,,,,,,,,,,,,,,,,,,,,,268.41255299999466,268.42798899999616,268.42798899999616,269.51353439999366,g,1.0,1.0717922000039837,,,,sub-047,1.0,stroop_test,60.01983055278885,
,,,,,,,,gelb,blue,b,0.0,,,,,,,,,2.0,3.0,27.0,9.0,269.5273465999999,,,,,,,,,,,,,,,,,269.516269199994,270.7273512999964,271.53064599999925,271.512475699994,,,,,,,,,,,,,,,,,,,,,,,,,,,,,,,,,,,271.5125463999939,271.53064599999925,271.53064599999925,272.2636127000005,b,1.0,0.7234065999946324,,,,sub-047,1.0,stroop_test,60.01983055278885,
,,,,,,,,rot,red,r,1.0,,,,,,,,,2.0,4.0,28.0,0.0,272.2770750999989,,,,,,,,,,,,,,,,,272.2662401999987,272.6270631999941,273.430887399998,273.412279199998,,,,,,,,,,,,,,,,,,,,,,,,,,,,,,,,,,,273.41236039999785,273.430887399998,273.430887399998,275.53007599999546,r,1.0,2.096050200001628,,,,sub-047,1.0,stroop_test,60.01983055278885,
,,,,,,,,blau,red,r,0.0,,,,,,,,,2.0,5.0,29.0,4.0,275.5431245,,,,,,,,,,,,,,,,,275.53265769999416,275.8932033999954,276.6958102999997,276.67802429999574,,,,,,,,,,,,,,,,,,,,,,,,,,,,,,,,,,,276.67811169999914,276.6958102999997,276.6958102999997,277.3956204999995,r,1.0,0.6841142999983276,,,,sub-047,1.0,stroop_test,60.01983055278885,
,,,,,,,,blau,blue,b,1.0,,,,,,,,,2.0,6.0,30.0,5.0,277.4094416000007,,,,,,,,,,,,,,,,,277.3982309999992,278.20964979999553,279.00927599999704,278.9941917999968,,,,,,,,,,,,,,,,,,,,,,,,,,,,,,,,,,,278.99426129999483,279.00927599999704,279.00927599999704,279.6124065999975,b,1.0,0.5940550999948755,,,,sub-047,1.0,stroop_test,60.01983055278885,
,,,,,,,,gelb,yellow,g,1.0,,,,,,,,,2.0,7.0,31.0,10.0,279.62590759999875,,,,,,,,,,,,,,,,,279.6151213999983,280.42581249999785,281.22909889999573,281.2107512999937,,,,,,,,,,,,,,,,,,,,,,,,,,,,,,,,,,,281.2108528999961,281.22909889999573,281.22909889999573,281.86159419999603,g,1.0,0.6145479999977397,,,,sub-047,1.0,stroop_test,60.01983055278885,
,,,,,,,,rot,yellow,g,0.0,,,,,,,,,2.0,8.0,32.0,3.0,281.8756149999972,,,,,,,,,,,,,,,,,281.8642031999989,282.2254176999995,283.02946909999446,283.01034139999683,,,,,,,,,,,,,,,,,,,,,,,,,,,,,,,,,,,283.0104121999975,283.02946909999446,283.02946909999446,283.56119000000035,g,1.0,0.5201333999939379,,,,sub-047,1.0,stroop_test,60.01983055278885,
,,,,,,,,rot,red,r,1.0,,,,,,,,,2.0,9.0,33.0,1.0,283.57536369999434,,,,,,,,,,,,,,,,,283.5640357999946,284.7749003999997,285.57475169999816,285.56015359999583,,,,,,,,,,,,,,,,,,,,,,,,,,,,,,,,,,,285.5602319999962,285.57475169999816,285.57475169999816,286.21152569999686,r,1.0,0.6337404000005336,,,,sub-047,1.0,stroop_test,60.01983055278885,
,,,,,,,,rot,blue,b,0.0,,,,,,,,,2.0,10.0,34.0,2.0,286.2249242999969,,,,,,,,,,,,,,,,,286.21411709999666,286.5747033000007,287.3748115999988,287.3601236999966,,,,,,,,,,,,,,,,,,,,,,,,,,,,,,,,,,,287.36020469999494,287.3748115999988,287.3748115999988,288.1774540999977,b,1.0,0.7990267999994103,,,,sub-047,1.0,stroop_test,60.01983055278885,
,,,,,,,,gelb,red,r,0.0,,,,,,,,,2.0,11.0,35.0,8.0,288.1910867999977,,,,,,,,,,,,,,,,,288.1801947999993,289.3908539999975,290.1949642999971,290.1760623999944,,,,,,,,,,,,,,,,,,,,,,,,,,,,,,,,,,,290.1761422999989,290.1949642999971,290.1949642999971,292.2767309999981,r,1.0,2.074731000000611,,,,sub-047,1.0,stroop_test,60.01983055278885,
,,,,,,,,rot,blue,b,0.0,,,,,,,,,3.0,0.0,36.0,2.0,292.29065609999816,,,,,,,,,,,,,,,,,292.279357499996,293.4902316000007,294.29403649999585,294.2755245000008,,,,,,,,,,,,,,,,,,,,,,,,,,,,,,,,,,,294.275605099996,294.29403649999585,294.29403649999585,295.0763092999987,b,1.0,0.7695211999962339,,,,sub-047,1.0,stroop_test,60.01983055278885,
,,,,,,,,blau,blue,b,1.0,,,,,,,,,3.0,1.0,37.0,6.0,295.0899177999964,,,,,,,,,,,,,,,,,295.0789622999946,295.1902795999995,295.99334459999955,295.97544659999403,,,,,,,,,,,,,,,,,,,,,,,,,,,,,,,,,,,295.9755251999959,295.99334459999955,295.99334459999955,296.59254549999605,b,1.0,0.5899246000044513,,,,sub-047,1.0,stroop_test,60.01983055278885,
,,,,,,,,blau,blue,b,1.0,,,,,,,,,3.0,2.0,38.0,5.0,296.60646799999813,,,,,,,,,,,,,,,,,296.59520269999484,297.8061840999944,298.6061231999993,298.5915820999944,,,,,,,,,,,,,,,,,,,,,,,,,,,,,,,,,,,298.5916604999948,298.6061231999993,298.6061231999993,299.1598190000004,b,1.0,0.5484593000001041,,,,sub-047,1.0,stroop_test,60.01983055278885,
,,,,,,,,blau,yellow,g,0.0,,,,,,,,,3.0,3.0,39.0,7.0,299.17298429999937,,,,,,,,,,,,,,,,,299.1625462999946,300.37278389999847,301.1724696999954,301.1571780999948,,,,,,,,,,,,,,,,,,,,,,,,,,,,,,,,,,,301.15724809999665,301.1724696999954,301.1724696999954,302.374865699996,g,1.0,1.1938388999988092,,,,sub-047,1.0,stroop_test,60.01983055278885,
,,,,,,,,rot,red,r,1.0,,,,,,,,,3.0,4.0,40.0,1.0,302.3889067999989,,,,,,,,,,,,,,,,,302.37746329999936,302.48878979999427,303.2927408999967,303.2740590999965,,,,,,,,,,,,,,,,,,,,,,,,,,,,,,,,,,,303.2741567999983,303.2927408999967,303.2927408999967,304.5078397999969,r,1.0,1.2027127999972436,,,,sub-047,1.0,stroop_test,60.01983055278885,
,,,,,,,,gelb,blue,b,0.0,,,,,,,,,3.0,5.0,41.0,9.0,304.5219199999992,,,,,,,,,,,,,,,,,304.5104677999989,304.62193449999904,305.4257149999976,305.40703219999705,,,,,,,,,,,,,,,,,,,,,,,,,,,,,,,,,,,305.40711319999536,305.4257149999976,305.4257149999976,305.97550860000047,b,1.0,0.5467453999954159,,,,sub-047,1.0,stroop_test,60.01983055278885,
,,,,,,,,rot,yellow,g,0.0,,,,,,,,,3.0,6.0,42.0,3.0,305.98805719999655,,,,,,,,,,,,,,,,,305.9781587999969,307.1883106999958,307.9913682999977,307.9729087999949,,,,,,,,,,,,,,,,,,,,,,,,,,,,,,,,,,,307.9729791999998,307.9913682999977,307.9913682999977,309.073745099995,g,1.0,1.0643109000011464,,,,sub-047,1.0,stroop_test,60.01983055278885,
,,,,,,,,gelb,red,r,0.0,,,,,,,,,3.0,7.0,43.0,8.0,309.0877146999992,,,,,,,,,,,,,,,,,309.0762274000008,310.2875120999961,311.0929665000004,311.0730218999961,,,,,,,,,,,,,,,,,,,,,,,,,,,,,,,,,,,311.07310189999407,311.0929665000004,311.0929665000004,312.12359489999653,r,1.0,1.0255351000014343,,,,sub-047,1.0,stroop_test,60.01983055278885,
,,,,,,,,rot,red,r,1.0,,,,,,,,,3.0,8.0,44.0,0.0,312.13733809999394,,,,,,,,,,,,,,,,,312.1262052999955,312.93706749999546,313.7418860999969,313.72214579999854,,,,,,,,,,,,,,,,,,,,,,,,,,,,,,,,,,,313.722227899998,313.7418860999969,313.7418860999969,314.2733073999989,r,1.0,0.5184626999980537,,,,sub-047,1.0,stroop_test,60.01983055278885,
,,,,,,,,blau,red,r,0.0,,,,,,,,,3.0,9.0,45.0,4.0,314.2866947000002,,,,,,,,,,,,,,,,,314.2758929999982,315.48673179999605,316.28880319999735,316.2721887999942,,,,,,,,,,,,,,,,,,,,,,,,,,,,,,,,,,,316.2722577999957,316.28880319999735,316.28880319999735,316.9227632999973,r,1.0,0.6277946999980486,,,,sub-047,1.0,stroop_test,60.01983055278885,
,,,,,,,,gelb,yellow,g,1.0,,,,,,,,,3.0,10.0,46.0,11.0,316.93654550000065,,,,,,,,,,,,,,,,,316.9253630999956,318.1363987000004,318.94078149999405,318.9215766999987,,,,,,,,,,,,,,,,,,,,,,,,,,,,,,,,,,,318.92165899999964,318.94078149999405,318.94078149999405,319.5224654999984,g,1.0,0.5635143999970751,,,,sub-047,1.0,stroop_test,60.01983055278885,
,,,,,,,,gelb,yellow,g,1.0,,,,,,,,,3.0,11.0,47.0,10.0,319.53603329999896,,,,,,,,,,,,,,,,,319.525098099999,320.7361596999981,321.53567069999553,321.52090069999394,,,,,,,,,,,,,,,,,,,,,,,,,,,,,,,,,,,321.52100000000064,321.53567069999553,321.53567069999553,322.022894099995,g,1.0,0.4840124999973341,,,,sub-047,1.0,stroop_test,60.01983055278885,
,,,,,,,,blau,red,r,0.0,,,,,,,,,4.0,0.0,48.0,4.0,322.03554719999374,,,,,,,,,,,,,,,,,322.02563639999426,322.38588080000045,323.1874424999987,323.17062499999884,,,,,,,,,,,,,,,,,,,,,,,,,,,,,,,,,,,323.17070269999385,323.1874424999987,323.1874424999987,324.17169029999786,r,1.0,0.9786074000003282,,,,sub-047,1.0,stroop_test,60.01983055278885,
,,,,,,,,rot,red,r,1.0,,,,,,,,,4.0,1.0,49.0,1.0,324.1850714999964,,,,,,,,,,,,,,,,,324.1743343999988,324.9854032999938,325.78882009999506,325.7699614999947,,,,,,,,,,,,,,,,,,,,,,,,,,,,,,,,,,,325.7700413999992,325.78882009999506,325.78882009999506,326.3549444999953,r,1.0,0.5617635999951744,,,,sub-047,1.0,stroop_test,60.01983055278885,
,,,,,,,,gelb,blue,b,0.0,,,,,,,,,4.0,2.0,50.0,9.0,326.3685256999961,,,,,,,,,,,,,,,,,326.3576327999981,326.71821569999884,327.5191384999998,327.50276389999635,,,,,,,,,,,,,,,,,,,,,,,,,,,,,,,,,,,327.502825399999,327.5191384999998,327.5191384999998,328.1042864999981,b,1.0,0.5752358999961871,,,,sub-047,1.0,stroop_test,60.01983055278885,
,,,,,,,,rot,blue,b,0.0,,,,,,,,,4.0,3.0,51.0,2.0,328.11762279999675,,,,,,,,,,,,,,,,,328.1066348999957,328.217833799994,329.0197754999972,329.0025284999938,,,,,,,,,,,,,,,,,,,,,,,,,,,,,,,,,,,329.0025892999984,329.0197754999972,329.0197754999972,329.48694079999404,b,1.0,0.4609072000021115,,,,sub-047,1.0,stroop_test,60.01983055278885,
,,,,,,,,blau,yellow,g,0.0,,,,,,,,,4.0,4.0,52.0,7.0,329.5011703999989,,,,,,,,,,,,,,,,,329.4891850999993,330.70095279999805,331.50265959999524,331.48612209999555,,,,,,,,,,,,,,,,,,,,,,,,,,,,,,,,,,,331.4862001999936,331.50265959999524,331.50265959999524,331.9035320999974,g,1.0,0.3903337000010651,,,,sub-047,1.0,stroop_test,60.01983055278885,
,,,,,,,,gelb,red,r,0.0,,,,,,,,,4.0,5.0,53.0,8.0,331.91756399999576,,,,,,,,,,,,,,,,,331.90612499999406,332.71710479999456,333.52136679999967,333.50256969999464,,,,,,,,,,,,,,,,,,,,,,,,,,,,,,,,,,,333.5026479999942,333.52136679999967,333.52136679999967,333.96986769999785,r,1.0,0.4437309999993886,,,,sub-047,1.0,stroop_test,60.01983055278885,
,,,,,,,,gelb,yellow,g,1.0,,,,,,,,,4.0,6.0,54.0,11.0,333.98373799999536,,,,,,,,,,,,,,,,,333.9726019999944,334.0836072999955,334.88376149999385,334.8684429999994,,,,,,,,,,,,,,,,,,,,,,,,,,,,,,,,,,,334.8685123999967,334.88376149999385,334.88376149999385,335.486421499998,g,1.0,0.5926553000026615,,,,sub-047,1.0,stroop_test,60.01983055278885,
,,,,,,,,blau,blue,b,1.0,,,,,,,,,4.0,7.0,55.0,6.0,335.5001166000002,,,,,,,,,,,,,,,,,335.4891901999945,336.2997816999996,337.10183459999826,337.0851803999976,,,,,,,,,,,,,,,,,,,,,,,,,,,,,,,,,,,337.0852614999967,337.10183459999826,337.10183459999826,337.6692633999992,b,1.0,0.5505477999977302,,,,sub-047,1.0,stroop_test,60.01983055278885,
,,,,,,,,rot,red,r,1.0,,,,,,,,,4.0,8.0,56.0,0.0,337.68293399999675,,,,,,,,,,,,,,,,,337.671898099994,338.4829142999952,339.2873957999982,339.26811969999835,,,,,,,,,,,,,,,,,,,,,,,,,,,,,,,,,,,339.2681936999943,339.2873957999982,339.2873957999982,339.8693271999946,g,0.0,0.5689707000055932,,,,sub-047,1.0,stroop_test,60.01983055278885,
,,,,,,,,blau,blue,b,1.0,,,,,,,,,4.0,9.0,57.0,5.0,339.88274499999534,,,,,,,,,,,,,,,,,339.8720667999951,339.9829389000006,340.78555989999586,340.76802060000045,,,,,,,,,,,,,,,,,,,,,,,,,,,,,,,,,,,340.76811169999564,340.78555989999586,340.78555989999586,341.685836699995,b,1.0,0.8909779999958118,,,,sub-047,1.0,stroop_test,60.01983055278885,
,,,,,,,,gelb,yellow,g,1.0,,,,,,,,,4.0,10.0,58.0,10.0,341.6990258000005,,,,,,,,,,,,,,,,,341.6885173999981,342.49899449999793,343.3040015000006,343.2843565000003,,,,,,,,,,,,,,,,,,,,,,,,,,,,,,,,,,,343.28443629999674,343.3040015000006,343.3040015000006,344.11840479999955,g,1.0,0.8038667000000714,,,,sub-047,1.0,stroop_test,60.01983055278885,
,,,,,,,,rot,yellow,g,0.0,,,,,,,,,4.0,11.0,59.0,3.0,344.13224739999714,,,,,,,,,,,,,,,,,344.12117139999464,344.9318706999984,345.7352141999945,345.71646229999897,,,,,,,,,,,,,,,,,,,,,,,,,,,,,,,,,,,345.7165322000001,345.7352141999945,345.7352141999945,346.88464869999734,g,1.0,1.1422190000012051,,,,sub-047,1.0,stroop_test,60.01983055278885,
,,,,,,,,gelb,yellow,g,1.0,,,,,,,,,5.0,0.0,60.0,11.0,346.8984416999956,,,,,,,,,,,,,,,,,346.8872989999945,346.99864199999865,347.8030291999967,347.7834548999963,,,,,,,,,,,,,,,,,,,,,,,,,,,,,,,,,,,347.7835339999947,347.8030291999967,347.8030291999967,348.51763039999787,g,1.0,0.6975872999973944,,,,sub-047,1.0,stroop_test,60.01983055278885,
,,,,,,,,blau,blue,b,1.0,,,,,,,,,5.0,1.0,61.0,6.0,348.531144099994,,,,,,,,,,,,,,,,,348.52032419999887,348.6314290999944,349.4331783999951,349.4165214999957,,,,,,,,,,,,,,,,,,,,,,,,,,,,,,,,,,,349.41661960000056,349.4331783999951,349.4331783999951,350.1504025999966,b,1.0,0.7107069999983651,,,,sub-047,1.0,stroop_test,60.01983055278885,
,,,,,,,,blau,yellow,g,0.0,,,,,,,,,5.0,2.0,62.0,7.0,350.16428529999394,,,,,,,,,,,,,,,,,350.15303929999936,351.3646205999976,352.16433099999995,352.1495852999942,,,,,,,,,,,,,,,,,,,,,,,,,,,,,,,,,,,352.1496616999939,352.16433099999995,352.16433099999995,353.7001683999988,g,1.0,1.5221043999990798,,,,sub-047,1.0,stroop_test,60.01983055278885,
,,,,,,,,blau,blue,b,1.0,,,,,,,,,5.0,3.0,63.0,5.0,353.71374419999484,,,,,,,,,,,,,,,,,353.70289670000057,354.0640190999984,354.86387589999504,354.84900599999673,,,,,,,,,,,,,,,,,,,,,,,,,,,,,,,,,,,354.8490859999947,354.86387589999504,354.86387589999504,355.53313029999845,b,1.0,0.6630022999961511,,,,sub-047,1.0,stroop_test,60.01983055278885,
,,,,,,,,rot,red,r,1.0,,,,,,,,,5.0,4.0,64.0,0.0,355.54706639999495,,,,,,,,,,,,,,,,,355.535884799996,355.89716969999427,356.7005375000008,356.6819911999992,,,,,,,,,,,,,,,,,,,,,,,,,,,,,,,,,,,356.6820605999965,356.7005375000008,356.7005375000008,357.3162789999988,r,1.0,0.5974352000048384,,,,sub-047,1.0,stroop_test,60.01983055278885,
,,,,,,,,gelb,blue,b,0.0,,,,,,,,,5.0,5.0,65.0,9.0,357.3297257999948,,,,,,,,,,,,,,,,,357.3189433000007,357.43015139999625,358.23472319999564,358.21517359999416,,,,,,,,,,,,,,,,,,,,,,,,,,,,,,,,,,,358.21525379999366,358.23472319999564,358.23472319999564,359.2993695999976,b,1.0,1.059453299996676,,,,sub-047,1.0,stroop_test,60.01983055278885,
,,,,,,,,gelb,yellow,g,1.0,,,,,,,,,5.0,6.0,66.0,10.0,359.31317589999526,,,,,,,,,,,,,,,,,359.30197079999925,360.5126697999949,361.3127173999965,361.29778099999385,,,,,,,,,,,,,,,,,,,,,,,,,,,,,,,,,,,361.29789479999454,361.3127173999965,361.3127173999965,362.165119199999,g,1.0,0.8392880999963381,,,,sub-047,1.0,stroop_test,60.01983055278885,
,,,,,,,,blau,red,r,0.0,,,,,,,,,5.0,7.0,67.0,4.0,362.1791627999992,,,,,,,,,,,,,,,,,362.1677796999938,363.3791137000008,364.1806582999998,364.1637629999968,,,,,,,,,,,,,,,,,,,,,,,,,,,,,,,,,,,364.1638697999952,364.1806582999998,364.1806582999998,365.2647700999951,r,1.0,1.0704296999974758,,,,sub-047,1.0,stroop_test,60.01983055278885,
,,,,,,,,rot,red,r,1.0,,,,,,,,,5.0,8.0,68.0,1.0,365.27848809999705,,,,,,,,,,,,,,,,,365.2674570999952,366.4785166999936,367.2827801999956,367.2635741999984,,,,,,,,,,,,,,,,,,,,,,,,,,,,,,,,,,,367.2636532999968,367.2827801999956,367.2827801999956,367.7645463000008,r,1.0,0.470057699996687,,,,sub-047,1.0,stroop_test,60.01983055278885,
,,,,,,,,rot,blue,b,0.0,,,,,,,,,5.0,9.0,69.0,2.0,367.7781509999986,,,,,,,,,,,,,,,,,367.7671454999945,368.9779491999943,369.7777905999974,369.7632186999981,,,,,,,,,,,,,,,,,,,,,,,,,,,,,,,,,,,369.76330159999634,369.7777905999974,369.7777905999974,370.39764179999474,b,1.0,0.6098842999999761,,,,sub-047,1.0,stroop_test,60.01983055278885,
,,,,,,,,gelb,red,r,0.0,,,,,,,,,5.0,10.0,70.0,8.0,370.4111159999957,,,,,,,,,,,,,,,,,370.4002290999997,371.6112978999954,372.4147690999962,372.395990099998,,,,,,,,,,,,,,,,,,,,,,,,,,,,,,,,,,,372.3960892999967,372.4147690999962,372.4147690999962,373.7134374999951,r,1.0,1.2836133999953745,,,,sub-047,1.0,stroop_test,60.01983055278885,
,,,,,,,,rot,yellow,g,0.0,,,,,,,,,5.0,11.0,71.0,3.0,373.72724509999534,,,,,,,,,,,,,,,,,373.7160727999944,374.5272364999983,375.3310035999966,375.3120837999959,,,,,,,,,,,,,,,,,,,,,,,,,,,,,,,,,,,375.3121938999975,375.3310035999966,375.3310035999966,376.3129240999988,g,1.0,0.9752435000045808,,,,sub-047,1.0,stroop_test,60.01983055278885,
,,,,,,,,gelb,yellow,g,1.0,,,,,,,,,6.0,0.0,72.0,10.0,376.3268648999947,,,,,,,,,,,,,,,,,376.31568239999615,377.5267640999955,378.3332030999954,378.3115541000007,,,,,,,,,,,,,,,,,,,,,,,,,,,,,,,,,,,378.3116238999937,378.3332030999954,378.3332030999954,379.32917689999886,g,1.0,0.9874873000007938,,,,sub-047,1.0,stroop_test,60.01983055278885,
,,,,,,,,gelb,yellow,g,1.0,,,,,,,,,6.0,1.0,73.0,11.0,379.3429264000006,,,,,,,,,,,,,,,,,379.3318142999997,380.1429060999944,380.9429367999983,380.92821519999416,,,,,,,,,,,,,,,,,,,,,,,,,,,,,,,,,,,380.9282953000002,380.9429367999983,380.9429367999983,381.4291405999975,g,1.0,0.4828354999990552,,,,sub-047,1.0,stroop_test,60.01983055278885,
,,,,,,,,rot,red,r,1.0,,,,,,,,,6.0,2.0,74.0,0.0,381.442464599997,,,,,,,,,,,,,,,,,381.43182229999366,381.79250150000007,382.5956851999945,382.5775403000007,,,,,,,,,,,,,,,,,,,,,,,,,,,,,,,,,,,382.5776091999942,382.5956851999945,382.5956851999945,383.61192599999777,r,1.0,1.010449300003529,,,,sub-047,1.0,stroop_test,60.01983055278885,
,,,,,,,,blau,blue,b,1.0,,,,,,,,,6.0,3.0,75.0,5.0,383.6258374999961,,,,,,,,,,,,,,,,,383.61477079999895,383.7257185999988,384.5279109999974,384.5107862999939,,,,,,,,,,,,,,,,,,,,,,,,,,,,,,,,,,,384.5108657999954,384.5279109999974,384.5279109999974,385.1282963999984,b,1.0,0.5840423999979976,,,,sub-047,1.0,stroop_test,60.01983055278885,
,,,,,,,,gelb,red,r,0.0,,,,,,,,,6.0,4.0,76.0,8.0,385.1419727999965,,,,,,,,,,,,,,,,,385.13098499999614,385.4919964999936,386.2959536999988,386.2771636999969,,,,,,,,,,,,,,,,,,,,,,,,,,,,,,,,,,,386.27727369999775,386.2959536999988,386.2959536999988,387.6582514999973,r,1.0,1.3562715000007302,,,,sub-047,1.0,stroop_test,60.01983055278885,
,,,,,,,,gelb,blue,b,0.0,,,,,,,,,6.0,5.0,77.0,9.0,387.674468899997,,,,,,,,,,,,,,,,,387.658803899998,388.0080977999969,388.8078588999997,388.79256489999534,,,,,,,,,,,,,,,,,,,,,,,,,,,,,,,,,,,388.79261789999873,388.8078588999997,388.8078588999997,389.26012959999935,b,1.0,0.4371656000002986,,,,sub-047,1.0,stroop_test,60.01983055278885,
,,,,,,,,blau,yellow,g,0.0,,,,,,,,,6.0,6.0,78.0,7.0,389.2744276999947,,,,,,,,,,,,,,,,,389.262161599996,390.4745253000001,391.2766871999993,391.25988619999407,,,,,,,,,,,,,,,,,,,,,,,,,,,,,,,,,,,391.2599606999938,391.2766871999993,391.2766871999993,392.727089,g,1.0,1.4365227999951458,,,,sub-047,1.0,stroop_test,60.01983055278885,
,,,,,,,,blau,red,r,0.0,,,,,,,,,6.0,7.0,79.0,4.0,392.7406630999976,,,,,,,,,,,,,,,,,392.7297824999987,392.840979099994,393.6407934999952,393.6260215999937,,,,,,,,,,,,,,,,,,,,,,,,,,,,,,,,,,,393.62610159999895,393.6407934999952,393.6407934999952,394.4771270999991,r,1.0,0.8226894000035827,,,,sub-047,1.0,stroop_test,60.01983055278885,
,,,,,,,,rot,blue,b,0.0,,,,,,,,,6.0,8.0,80.0,2.0,394.49051289999625,,,,,,,,,,,,,,,,,394.4797191999969,395.2902711999996,396.0941638999939,396.075551199996,,,,,,,,,,,,,,,,,,,,,,,,,,,,,,,,,,,396.07562179999513,396.0941638999939,396.0941638999939,397.2927819999968,b,1.0,1.1941271999967285,,,,sub-047,1.0,stroop_test,60.01983055278885,
,,,,,,,,blau,blue,b,1.0,,,,,,,,,6.0,9.0,81.0,6.0,397.30665020000015,,,,,,,,,,,,,,,,,397.2953756999996,397.6566434999986,398.4597746,398.4416762999972,,,,,,,,,,,,,,,,,,,,,,,,,,,,,,,,,,,398.4417853999985,398.4597746,398.4597746,398.9763139999996,b,1.0,0.5016599000009592,,,,sub-047,1.0,stroop_test,60.01983055278885,
,,,,,,,,rot,red,r,1.0,,,,,,,,,6.0,10.0,82.0,1.0,398.9899384999953,,,,,,,,,,,,,,,,,398.9789283999999,399.7899899999975,400.5931529999944,400.57472949999647,,,,,,,,,,,,,,,,,,,,,,,,,,,,,,,,,,,400.57481359999656,400.5931529999944,400.5931529999944,401.3088567999948,r,1.0,0.7053075000003446,,,,sub-047,1.0,stroop_test,60.01983055278885,
,,,,,,,,rot,yellow,g,0.0,,,,,,,,,6.0,11.0,83.0,3.0,401.3229766000004,,,,,,,,,,,,,,,,,401.3114120999962,402.522601699995,403.3228476000004,403.3077692999941,,,,,,,,,,,,,,,,,,,,,,,,,,,,,,,,,,,403.3078402999963,403.3228476000004,403.3228476000004,403.99185659999785,g,1.0,0.6592109999983222,,,,sub-047,1.0,stroop_test,60.01983055278885,
,,,,,,,,gelb,blue,b,0.0,,,,,,,,,7.0,0.0,84.0,9.0,404.0059026999952,,,,,,,,,,,,,,,,,403.9944727999973,404.8057015999948,405.6098662000004,405.5906446000008,,,,,,,,,,,,,,,,,,,,,,,,,,,,,,,,,,,405.5907529999968,405.6098662000004,405.6098662000004,406.1084476999968,b,1.0,0.4814364999983809,,,,sub-047,1.0,stroop_test,60.01983055278885,
,,,,,,,,blau,yellow,g,0.0,,,,,,,,,7.0,1.0,85.0,7.0,406.1220658999955,,,,,,,,,,,,,,,,,406.1110681999999,406.9222595999963,407.7238709999947,407.7068163999938,,,,,,,,,,,,,,,,,,,,,,,,,,,,,,,,,,,407.7069110999946,407.7238709999947,407.7238709999947,408.7916674999942,g,1.0,1.0642722999982652,,,,sub-047,1.0,stroop_test,60.01983055278885,
,,,,,,,,blau,blue,b,1.0,,,,,,,,,7.0,2.0,86.0,6.0,408.80475339999975,,,,,,,,,,,,,,,,,408.7943434999979,409.60486949999904,410.4045737999986,410.3897632000008,,,,,,,,,,,,,,,,,,,,,,,,,,,,,,,,,,,410.38984369999525,410.4045737999986,410.4045737999986,411.04094110000005,b,1.0,0.6297234000012395,,,,sub-047,1.0,stroop_test,60.01983055278885,
,,,,,,,,gelb,yellow,g,1.0,,,,,,,,,7.0,3.0,87.0,10.0,411.05463799999416,,,,,,,,,,,,,,,,,411.043554099997,411.40476909999416,412.2085650999943,412.1897233999989,,,,,,,,,,,,,,,,,,,,,,,,,,,,,,,,,,,412.18979269999545,412.2085650999943,412.2085650999943,412.8571592000008,g,1.0,0.6319531000044663,,,,sub-047,1.0,stroop_test,60.01983055278885,
,,,,,,,,blau,red,r,0.0,,,,,,,,,7.0,4.0,88.0,4.0,412.8709258999952,,,,,,,,,,,,,,,,,412.8597803999946,413.6706832999989,414.4728035999942,414.4558273999937,,,,,,,,,,,,,,,,,,,,,,,,,,,,,,,,,,,414.4558982999952,414.4728035999942,414.4728035999942,415.1737781999982,r,1.0,0.6859826999934739,,,,sub-047,1.0,stroop_test,60.01983055278885,
,,,,,,,,gelb,red,r,0.0,,,,,,,,,7.0,5.0,89.0,8.0,415.1873223000002,,,,,,,,,,,,,,,,,415.1763400999989,415.5373171999963,416.3418818999999,416.32208589999937,,,,,,,,,,,,,,,,,,,,,,,,,,,,,,,,,,,416.3221559999947,416.3418818999999,416.3418818999999,416.7731174000001,r,1.0,0.4256867000003694,,,,sub-047,1.0,stroop_test,60.01983055278885,
,,,,,,,,rot,yellow,g,0.0,,,,,,,,,7.0,6.0,90.0,3.0,416.7869697999995,,,,,,,,,,,,,,,,,416.7758496999959,417.1367469999968,417.9409178999995,417.9216117999968,,,,,,,,,,,,,,,,,,,,,,,,,,,,,,,,,,,417.9216837999993,417.9409178999995,417.9409178999995,419.3895415999941,g,1.0,1.4435106000019005,,,,sub-047,1.0,stroop_test,60.01983055278885,
,,,,,,,,rot,red,r,1.0,,,,,,,,,7.0,7.0,91.0,1.0,419.4031237999952,,,,,,,,,,,,,,,,,419.392116899995,420.6026509999938,421.4025750999936,421.3878729999997,,,,,,,,,,,,,,,,,,,,,,,,,,,,,,,,,,,421.3879538999972,421.4025750999936,421.4025750999936,422.2053075999938,r,1.0,0.7923553000000538,,,,sub-047,1.0,stroop_test,60.01983055278885,
,,,,,,,,gelb,yellow,g,1.0,,,,,,,,,7.0,8.0,92.0,11.0,422.21957819999807,,,,,,,,,,,,,,,,,422.2079500999971,423.4195669999972,424.2234435999999,424.2040632999997,,,,,,,,,,,,,,,,,,,,,,,,,,,,,,,,,,,424.2041701999988,424.2234435999999,424.2234435999999,425.6049856999962,g,1.0,1.3700269000037224,,,,sub-047,1.0,stroop_test,60.01983055278885,
,,,,,,,,rot,blue,b,0.0,,,,,,,,,7.0,9.0,93.0,2.0,425.6184607999967,,,,,,,,,,,,,,,,,425.6077164999952,425.7186392000003,426.5233586999966,426.5043480999957,,,,,,,,,,,,,,,,,,,,,,,,,,,,,,,,,,,426.5044258999988,426.5233586999966,426.5233586999966,427.5212946999964,b,1.0,0.9842696999985492,,,,sub-047,1.0,stroop_test,60.01983055278885,
,,,,,,,,blau,blue,b,1.0,,,,,,,,,7.0,10.0,94.0,5.0,427.5351276999936,,,,,,,,,,,,,,,,,427.5240233999939,427.88523449999775,428.6875330999974,428.6701197000002,,,,,,,,,,,,,,,,,,,,,,,,,,,,,,,,,,,428.6701902999994,428.6875330999974,428.6875330999974,429.1047510999997,b,1.0,0.4116695000047912,,,,sub-047,1.0,stroop_test,60.01983055278885,
,,,,,,,,rot,red,r,1.0,,,,,,,,,7.0,11.0,95.0,0.0,429.118418399994,,,,,,,,,,,,,,,,,429.1073307999977,429.91840099999536,430.72196819999954,430.7029901999995,,,,,,,,,,,,,,,,,,,,,,,,,,,,,,,,,,,430.7030615999975,430.72196819999954,430.72196819999954,431.720633799996,r,1.0,0.987309500000265,,,,sub-047,1.0,stroop_test,60.01983055278885,
,,,,,,,,gelb,red,r,0.0,,,,,,,,,8.0,0.0,96.0,8.0,431.7346561999948,,,,,,,,,,,,,,,,,431.7232363000003,432.0846500999978,432.8904544999969,432.8698472999968,,,,,,,,,,,,,,,,,,,,,,,,,,,,,,,,,,,432.8699254999956,432.8904544999969,432.8904544999969,433.6538039999941,r,1.0,0.7473014999995939,,,,sub-047,1.0,stroop_test,60.01983055278885,
,,,,,,,,gelb,blue,b,0.0,,,,,,,,,8.0,1.0,97.0,9.0,433.6674394999936,,,,,,,,,,,,,,,,,433.6564947999941,433.7674977999996,434.5673366999981,434.5527708999944,,,,,,,,,,,,,,,,,,,,,,,,,,,,,,,,,,,434.5528489999997,434.5673366999981,434.5673366999981,435.0702583999955,b,1.0,0.4874487999986741,,,,sub-047,1.0,stroop_test,60.01983055278885,
,,,,,,,,blau,blue,b,1.0,,,,,,,,,8.0,2.0,98.0,5.0,435.0841100999969,,,,,,,,,,,,,,,,,435.0728813999958,435.8839927000008,436.68591829999787,436.6689000999977,,,,,,,,,,,,,,,,,,,,,,,,,,,,,,,,,,,436.6689716999972,436.68591829999787,436.68591829999787,437.3533534999952,b,1.0,0.6641316000022925,,,,sub-047,1.0,stroop_test,60.01983055278885,
,,,,,,,,blau,red,r,0.0,,,,,,,,,8.0,3.0,99.0,4.0,437.3668667999955,,,,,,,,,,,,,,,,,437.3559927999959,438.5671186999971,439.3669483999984,439.35225720000017,,,,,,,,,,,,,,,,,,,,,,,,,,,,,,,,,,,439.3523385000008,439.3669483999984,439.3669483999984,439.8865631999943,r,1.0,0.5126032999978634,,,,sub-047,1.0,stroop_test,60.01983055278885,
,,,,,,,,rot,red,r,1.0,,,,,,,,,8.0,4.0,100.0,1.0,439.9000132000001,,,,,,,,,,,,,,,,,439.88913739999407,441.09976439999446,441.903736799999,441.88479849999567,,,,,,,,,,,,,,,,,,,,,,,,,,,,,,,,,,,441.8848777999956,441.903736799999,441.903736799999,442.2530435999943,r,1.0,0.3454351000036695,,,,sub-047,1.0,stroop_test,60.01983055278885,
,,,,,,,,rot,red,r,1.0,,,,,,,,,8.0,5.0,101.0,0.0,442.2662036999973,,,,,,,,,,,,,,,,,442.2557766999962,442.3661044999972,443.1661862999972,443.1515249000004,,,,,,,,,,,,,,,,,,,,,,,,,,,,,,,,,,,443.15163209999446,443.1661862999972,443.1661862999972,443.6025405999972,r,1.0,0.4316015000003972,,,,sub-047,1.0,stroop_test,60.01983055278885,
,,,,,,,,gelb,yellow,g,1.0,,,,,,,,,8.0,6.0,102.0,10.0,443.6159161999967,,,,,,,,,,,,,,,,,443.6051936999938,443.9661743999968,444.76972620000015,444.7506986000008,,,,,,,,,,,,,,,,,,,,,,,,,,,,,,,,,,,444.7507709999991,444.76972620000015,444.76972620000015,445.3683804999964,g,1.0,0.5829878000004101,,,,sub-047,1.0,stroop_test,60.01983055278885,
,,,,,,,,gelb,yellow,g,1.0,,,,,,,,,8.0,7.0,103.0,11.0,445.3824158999996,,,,,,,,,,,,,,,,,445.370977999999,445.4824249999947,446.2822640999948,446.2672812999954,,,,,,,,,,,,,,,,,,,,,,,,,,,,,,,,,,,446.2673579999973,446.2822640999948,446.2822640999948,446.7349566999983,g,1.0,0.4373454000015044,,,,sub-047,1.0,stroop_test,60.01983055278885,
,,,,,,,,rot,blue,b,0.0,,,,,,,,,8.0,8.0,104.0,2.0,446.7485985999956,,,,,,,,,,,,,,,,,446.73772109999845,447.09875029999967,447.9019945999971,447.8834569999962,,,,,,,,,,,,,,,,,,,,,,,,,,,,,,,,,,,447.8835278999977,447.9019945999971,447.9019945999971,449.6166712999984,b,1.0,1.6996848000053433,,,,sub-047,1.0,stroop_test,60.01983055278885,
,,,,,,,,rot,yellow,g,0.0,,,,,,,,,8.0,9.0,105.0,3.0,449.6313073999991,,,,,,,,,,,,,,,,,449.6186481999976,449.9817766999986,450.7813182999962,450.7668998999943,,,,,,,,,,,,,,,,,,,,,,,,,,,,,,,,,,,450.76697879999847,450.7813182999962,450.7813182999962,451.7672806999981,g,1.0,0.9679550000000744,,,,sub-047,1.0,stroop_test,60.01983055278885,
,,,,,,,,blau,blue,b,1.0,,,,,,,,,8.0,10.0,106.0,6.0,451.7812225999951,,,,,,,,,,,,,,,,,451.7698543999941,452.1314375000002,452.9338379999972,452.9160544999977,,,,,,,,,,,,,,,,,,,,,,,,,,,,,,,,,,,452.916132499995,452.9338379999972,452.9338379999972,453.61738499999774,b,1.0,0.6800610999998753,,,,sub-047,1.0,stroop_test,60.01983055278885,
,,,,,,,,blau,yellow,g,0.0,,,,,,,,,8.0,11.0,107.0,7.0,453.6307445999992,,,,,,,,,,,,,,,,,453.6199701000005,454.8310199999978,455.6308384999938,455.61581920000026,,,,,,,,,,,,,,,,,,,,,,,,,,,,,,,,,,,455.6158909000005,455.6308384999938,455.6308384999938,456.7998617999983,g,1.0,1.1637322999958997,,,,sub-047,1.0,stroop_test,60.01983055278885,
,,,,,,,,blau,blue,b,1.0,,,,,,,,,9.0,0.0,108.0,5.0,456.8135691999996,,,,,,,,,,,,,,,,,456.8025360999964,457.1638973999943,457.96364360000007,457.9480188999951,,,,,,,,,,,,,,,,,,,,,,,,,,,,,,,,,,,457.948089599995,457.96364360000007,457.96364360000007,458.6830868999969,b,1.0,0.7079576999967685,,,,sub-047,1.0,stroop_test,60.01983055278885,
,,,,,,,,blau,blue,b,1.0,,,,,,,,,9.0,1.0,109.0,6.0,458.6969217000005,,,,,,,,,,,,,,,,,458.6857142000008,459.0468189999956,459.8466078999991,459.8319405999937,,,,,,,,,,,,,,,,,,,,,,,,,,,,,,,,,,,459.83206439999776,459.8466078999991,459.8466078999991,460.2827502,b,1.0,0.4293455000006361,,,,sub-047,1.0,stroop_test,60.01983055278885,
,,,,,,,,gelb,yellow,g,1.0,,,,,,,,,9.0,2.0,110.0,11.0,460.29641640000045,,,,,,,,,,,,,,,,,460.2854838999992,460.3964123999976,461.1995217999938,461.1814247999937,,,,,,,,,,,,,,,,,,,,,,,,,,,,,,,,,,,461.1815115999998,461.1995217999938,461.1995217999938,461.7327185999966,g,1.0,0.5199357999954373,,,,sub-047,1.0,stroop_test,60.01983055278885,
,,,,,,,,gelb,red,r,0.0,,,,,,,,,9.0,3.0,111.0,8.0,461.7463308000006,,,,,,,,,,,,,,,,,461.7353010999941,462.0961912999992,462.8958619999976,462.8816050999958,,,,,,,,,,,,,,,,,,,,,,,,,,,,,,,,,,,462.8816822999943,462.8958619999976,462.8958619999976,464.0658929999991,r,1.0,1.1660480000064126,,,,sub-047,1.0,stroop_test,60.01983055278885,
,,,,,,,,gelb,yellow,g,1.0,,,,,,,,,9.0,4.0,112.0,10.0,464.079490899996,,,,,,,,,,,,,,,,,464.0684293999948,465.2791782999993,466.078898199994,466.0641914000007,,,,,,,,,,,,,,,,,,,,,,,,,,,,,,,,,,,466.0642730999971,466.078898199994,466.078898199994,467.2485488999955,g,1.0,1.153069100000721,,,,sub-047,1.0,stroop_test,60.01983055278885,
,,,,,,,,rot,red,r,1.0,,,,,,,,,9.0,5.0,113.0,0.0,467.26231969999935,,,,,,,,,,,,,,,,,467.2512104999987,468.4620005999968,469.2666404999982,469.2470226000005,,,,,,,,,,,,,,,,,,,,,,,,,,,,,,,,,,,469.24710319999576,469.2666404999982,469.2666404999982,469.9143819999954,r,1.0,0.6352932000008877,,,,sub-047,1.0,stroop_test,60.01983055278885,
,,,,,,,,gelb,blue,b,0.0,,,,,,,,,9.0,6.0,114.0,9.0,469.9283193999945,,,,,,,,,,,,,,,,,469.91702709999663,470.2780697999988,471.0820959999983,471.0633680999963,,,,,,,,,,,,,,,,,,,,,,,,,,,,,,,,,,,471.0634480000008,471.0820959999983,471.0820959999983,471.664340299998,b,1.0,0.5734326999954646,,,,sub-047,1.0,stroop_test,60.01983055278885,
,,,,,,,,blau,red,r,0.0,,,,,,,,,9.0,7.0,115.0,4.0,471.6779352999947,,,,,,,,,,,,,,,,,471.6669645000002,472.0283190999981,472.8290736999989,472.81281979999767,,,,,,,,,,,,,,,,,,,,,,,,,,,,,,,,,,,472.81289869999455,472.8290736999989,472.8290736999989,473.79723949999607,r,1.0,0.9509113000021898,,,,sub-047,1.0,stroop_test,60.01983055278885,
,,,,,,,,blau,yellow,g,0.0,,,,,,,,,9.0,8.0,116.0,7.0,473.8108817999964,,,,,,,,,,,,,,,,,473.7999989999953,474.6110731999943,475.4107382999937,475.3958965999991,,,,,,,,,,,,,,,,,,,,,,,,,,,,,,,,,,,475.3959684000001,475.4107382999937,475.4107382999937,476.1300141999964,g,1.0,0.7129063999964274,,,,sub-047,1.0,stroop_test,60.01983055278885,
,,,,,,,,rot,red,r,1.0,,,,,,,,,9.0,9.0,117.0,1.0,476.144026199996,,,,,,,,,,,,,,,,,476.1327907999949,476.493876499997,477.2965198999955,477.278679199997,,,,,,,,,,,,,,,,,,,,,,,,,,,,,,,,,,,477.27875059999496,477.2965198999955,477.2965198999955,477.9132406999997,r,1.0,0.6132144000002882,,,,sub-047,1.0,stroop_test,60.01983055278885,
,,,,,,,,rot,yellow,g,0.0,,,,,,,,,9.0,10.0,118.0,3.0,477.9271102999992,,,,,,,,,,,,,,,,,477.9158488999965,478.727032099996,479.5270001999961,479.511638099997,,,,,,,,,,,,,,,,,,,,,,,,,,,,,,,,,,,479.5117257999955,479.5270001999961,479.5270001999961,480.4292283999967,g,1.0,0.8923586000018986,,,,sub-047,1.0,stroop_test,60.01983055278885,
,,,,,,,,rot,blue,b,0.0,,,,,,,,,9.0,11.0,119.0,2.0,480.44315889999416,,,,,,,,,,,,,,,,,480.4318505999981,481.6429877999981,482.4431923999946,482.4277600999994,,,,,,,,,,,,,,,,,,,,,,,,,,,,,,,,,,,482.4278284999964,482.4431923999946,482.4431923999946,483.97902199999953,b,1.0,1.5306143999987398,,,,sub-047,1.0,stroop_test,60.01983055278885,
,,,,,,,,,,,,,,,,,,,,,,,,,,,,,,,,,,,,,,,,,,,,,,,,,,,,,,,,,,,,,,,,,,,,,,,,,,,,,,,,,,,,,,,483.9809700999977,483.9928101999976,sub-047,,,,
