wordCTK,colorCTK,corrAnsCTK,congruentCTK,thisN,thisTrialN,thisRepN,keyResp_CTK.keys,keyResp_CTK.corr,keyResp_CTK.rt,keyResp_CTK.duration,wordPractice,colorPractice,corrAnsPractice,congruentPractice,respPractice.keys,respPractice.corr,respPractice.rt,respPractice.duration,word,color,corrAns,congruent,keyResp_test_run.keys,keyResp_test_run.corr,keyResp_test_run.rt,keyResp_test_run.duration,trials_CTK.thisRepN,trials_CTK.thisTrialN,trials_CTK.thisN,trials_CTK.thisIndex,trials_practice.thisRepN,trials_practice.thisTrialN,trials_practice.thisN,trials_practice.thisIndex,trials_test.thisRepN,trials_test.thisTrialN,trials_test.thisN,trials_test.thisIndex,thisRow.t,notes,instruction.started,instr_text.started,instr_image.started,instr_resp.started,instruction.stopped,instr_resp.keys,instr_resp.rt,instr_resp.duration,instr_color_to_key.started,instr_ctk.started,resp_ctk.started,instr_color_to_key.stopped,resp_ctk.keys,resp_ctk.rt,resp_ctk.duration,ITI.started,fixcross.started,fixcross.stopped,ITI.stopped,color_to_key_run.started,stimulus_CTK.started,keyResp_CTK.started,color_to_key_run.stopped,trials_CTK.keyResp_CTK.keys,trials_CTK.keyResp_CTK.corr,trials_CTK.keyResp_CTK.rt,trials_CTK.keyResp_CTK.duration,instr_practice.started,instr_practice_text.started,instr_practice_resp.started,instr_practice.stopped,instr_practice_resp.keys,instr_practice_resp.rt,instr_practice_resp.duration,practice_run.started,stimulus_practice.started,respPractice.started,practice_run.stopped,trials_practice.respPractice.keys,trials_practice.respPractice.corr,trials_practice.respPractice.rt,trials_practice.respPractice.duration,feedback.started,textFeedback.started,feedback.stopped,textFeedback.stopped,instr_test.started,instr_test_text.started,instr_test_resp.started,instr_test.stopped,instr_test_resp.keys,instr_test_resp.rt,instr_test_resp.duration,test_run.started,stimulus_test_run.started,keyResp_test_run.started,test_run.stopped,trials_test.keyResp_test_run.keys,trials_test.keyResp_test_run.corr,trials_test.keyResp_test_run.rt,trials_test.keyResp_test_run.duration,goodbye.started,textGoodbye.started,textGoodbye.stopped,goodbye.stopped,participant,session,expName,frameRate,Unnamed: 113
,,,,,,,,,,,,,,,,,,,,,,,,,,,,,,,,,,,,,,,,,0.0070760149974375,0.0294415759999537,0.0294415759999537,0.0294415759999537,41.92720564099727,space,41.87097823099976,,,,,,,,,,,,,,,,,,,,,,,,,,,,,,,,,,,,,,,,,,,,,,,,,,,,,,,,,,,sub-019,1,stroop_test,59.97842276219814,
,,,,,,,,,,,,,,,,,,,,,,,,,,,,,,,,,,,,,,,,,,,,,,,,,41.92726301099901,41.93990676399699,41.93990676399699,49.70637403599903,space,7.762458735000109,,,,,,,,,,,,,,,,,,,,,,,,,,,,,,,,,,,,,,,,,,,,,,,,,,,,sub-019,1,stroop_test,59.97842276219814,
test,yellow,g,1.0,0.0,0.0,0.0,g,1.0,2.738874331997067,,,,,,,,,,,,,,,,,,0.0,0.0,0.0,1.0,,,,,,,,,49.73089477599933,,,,,,,,,,,,,,,,,49.72355272499772,50.07057752299807,50.8703941269996,50.85464587599927,50.86063769399698,50.8703941269996,50.8703941269996,53.62297558099817,g,1.0,2.738874331997067,,,,,,,,,,,,,,,,,,,,,,,,,,,,,,,,,,,,,,,,sub-019,1,stroop_test,59.97842276219814,
test,blue,b,1.0,1.0,1.0,0.0,b,1.0,0.992852753999614,,,,,,,,,,,,,,,,,,0.0,1.0,1.0,2.0,,,,,,,,,53.63723485599985,,,,,,,,,,,,,,,,,53.6234574959999,54.83775955099918,55.6372745669978,55.621410604999255,55.62189407599726,55.6372745669978,55.6372745669978,56.63972092199765,b,1.0,0.992852753999614,,,,,,,,,,,,,,,,,,,,,,,,,,,,,,,,,,,,,,,,sub-019,1,stroop_test,59.97842276219814,
test,red,r,1.0,2.0,2.0,0.0,r,1.0,0.7250678099990182,,,,,,,,,,,,,,,,,,0.0,2.0,2.0,0.0,,,,,,,,,56.65407000399864,,,,,,,,,,,,,,,,,56.64001539599849,57.45429123699796,58.25466265999785,58.238573959999485,58.23902528799954,58.25466265999785,58.25466265999785,58.98921171799884,r,1.0,0.7250678099990182,,,,,,,,,,,,,,,,,,,,,,,,,,,,,,,,,,,,,,,,sub-019,1,stroop_test,59.97842276219814,
test,red,r,1.0,3.0,0.0,1.0,r,1.0,0.7008008640004846,,,,,,,,,,,,,,,,,,1.0,0.0,3.0,0.0,,,,,,,,,59.00470958999722,,,,,,,,,,,,,,,,,58.989498357997945,59.08813577199908,59.8883090149975,59.87170249100018,59.87215416399704,59.8883090149975,59.8883090149975,60.60667674199794,r,1.0,0.7008008640004846,,,,,,,,,,,,,,,,,,,,,,,,,,,,,,,,,,,,,,,,sub-019,1,stroop_test,59.97842276219814,
test,yellow,g,1.0,4.0,1.0,1.0,g,1.0,0.7987380380000104,,,,,,,,,,,,,,,,,,1.0,1.0,4.0,1.0,,,,,,,,,60.621645606999664,,,,,,,,,,,,,,,,,60.60698499499995,60.72169913899779,61.521489236998605,61.50554680799905,61.50598076299866,61.521489236998605,61.521489236998605,62.32424405499842,g,1.0,0.7987380380000104,,,,,,,,,,,,,,,,,,,,,,,,,,,,,,,,,,,,,,,,sub-019,1,stroop_test,59.97842276219814,
test,blue,b,1.0,5.0,2.0,1.0,b,1.0,1.0339908330024628,,,,,,,,,,,,,,,,,,1.0,2.0,5.0,2.0,,,,,,,,,62.337898882000445,,,,,,,,,,,,,,,,,62.32454836399848,62.68797244599773,63.48866520999945,63.47251445499933,63.47294284399686,63.48866520999945,63.48866520999945,64.54056559799938,b,1.0,1.0339908330024628,,,,,,,,,,,,,,,,,,,,,,,,,,,,,,,,,,,,,,,,sub-019,1,stroop_test,59.97842276219814,
test,red,r,1.0,6.0,0.0,2.0,r,1.0,0.95505008499822,,,,,,,,,,,,,,,,,,2.0,0.0,6.0,0.0,,,,,,,,,64.55526546799956,,,,,,,,,,,,,,,,,64.54093292799735,64.65515543499714,65.454699979,65.43848275900018,65.43894760699914,65.454699979,65.454699979,66.42364919799729,r,1.0,0.95505008499822,,,,,,,,,,,,,,,,,,,,,,,,,,,,,,,,,,,,,,,,sub-019,1,stroop_test,59.97842276219814,
test,yellow,g,1.0,7.0,1.0,2.0,g,1.0,1.4600686820012925,,,,,,,,,,,,,,,,,,2.0,1.0,7.0,1.0,,,,,,,,,66.438815229998,,,,,,,,,,,,,,,,,66.42393467199872,66.53827340699718,67.3382189949989,67.3226602399991,67.32323474799705,67.3382189949989,67.3382189949989,68.80720292299884,g,1.0,1.4600686820012925,,,,,,,,,,,,,,,,,,,,,,,,,,,,,,,,,,,,,,,,sub-019,1,stroop_test,59.97842276219814,
test,blue,b,1.0,8.0,2.0,2.0,b,1.0,0.8146206260025792,,,,,,,,,,,,,,,,,,2.0,2.0,8.0,2.0,,,,,,,,,68.82199584099726,,,,,,,,,,,,,,,,,68.80749389199991,69.17230061900045,69.97189242099921,69.95606130399756,69.95654991300034,69.97189242099921,69.97189242099921,70.79162184099914,b,1.0,0.8146206260025792,,,,,,,,,,,,,,,,,,,,,,,,,,,,,,,,,,,,,,,,sub-019,1,stroop_test,59.97842276219814,
test,blue,b,1.0,9.0,0.0,3.0,b,1.0,0.6027614800004812,,,,,,,,,,,,,,,,,,3.0,0.0,9.0,2.0,,,,,,,,,70.80555907899907,,,,,,,,,,,,,,,,,70.79197868199844,71.6058107889985,72.40550401399742,72.38974609700017,72.39028184400013,72.40550401399742,72.40550401399742,73.02364033599952,b,1.0,0.6027614800004812,,,,,,,,,,,,,,,,,,,,,,,,,,,,,,,,,,,,,,,,sub-019,1,stroop_test,59.97842276219814,
test,red,r,1.0,10.0,1.0,3.0,r,1.0,1.0974666549991523,,,,,,,,,,,,,,,,,,3.0,1.0,10.0,0.0,,,,,,,,,73.03891923899937,,,,,,,,,,,,,,,,,73.0239328539974,74.23921308399804,75.03916781099906,75.02338930699989,75.02396655399934,75.03916781099906,75.03916781099906,76.14231012599703,r,1.0,1.0974666549991523,,,,,,,,,,,,,,,,,,,,,,,,,,,,,,,,,,,,,,,,sub-019,1,stroop_test,59.97842276219814,
test,yellow,g,1.0,11.0,2.0,3.0,g,1.0,0.826681649999955,,,,,,,,,,,,,,,,,,3.0,2.0,11.0,1.0,,,,,,,,,76.15579988899844,,,,,,,,,,,,,,,,,76.14261543999964,76.5053266089999,77.30546440299804,77.29006977999961,77.29061272499894,77.30546440299804,77.30546440299804,78.14147761099957,g,1.0,0.826681649999955,,,,,,,,,,,,,,,,,,,,,,,,,,,,,,,,,,,,,,,,sub-019,1,stroop_test,59.97842276219814,
,,,,,,,,,,,,,,,,,,,,,,,,,,,,,,,,,,,,,,,,,,,,,,,,,,,,,,,,,,,,,,,,,,,,78.14163171499968,78.15583473899824,78.15583473899824,84.87441907699758,space,6.70403578100013,,,,,,,,,,,,,,,,,,,,,,,,,,,,,,,,,sub-019,1,stroop_test,59.97842276219814,
,,,,0.0,0.0,0.0,,,,,rot,yellow,g,0.0,g,1.0,1.8860797669985916,,,,,,,,,,,,,,0.0,0.0,0.0,3.0,,,,,84.89334107499963,,,,,,,,,,,,,,,,,84.88579101099822,86.09022003299833,86.89027924399852,86.87365436699838,,,,,,,,,,,,,,,,86.8805743519988,86.89027924399852,86.89027924399852,88.79202441499729,g,1.0,1.8860797669985916,,88.79801095999937,88.80795881299855,89.80719645899808,,,,,,,,,,,,,,,,,,,,,sub-019,1,stroop_test,59.97842276219814,
,,,,1.0,1.0,0.0,,,,,gelb,red,r,0.0,r,1.0,1.7337944509999943,,,,,,,,,,,,,,0.0,1.0,1.0,8.0,,,,,89.82348950300002,,,,,,,,,,,,,,,,,89.8075590389999,89.90664003399797,90.70666480399814,90.69093671999872,,,,,,,,,,,,,,,,90.6950229369977,90.70666480399814,90.70666480399814,92.4446042419986,r,1.0,1.7337944509999943,,92.44508511299864,92.45670441699986,93.44132664599964,93.45718805899742,,,,,,,,,,,,,,,,,,,,sub-019,1,stroop_test,59.97842276219814,
,,,,2.0,2.0,0.0,,,,,gelb,blue,b,0.0,b,1.0,0.9971459999978832,,,,,,,,,,,,,,0.0,2.0,2.0,9.0,,,,,93.45718805899742,,,,,,,,,,,,,,,,,93.44171275899862,93.8070690450004,94.60734492999836,94.591262422,,,,,,,,,,,,,,,,94.59181241899933,94.60734492999836,94.60734492999836,95.60959785599698,b,1.0,0.9971459999978832,,95.61034920999737,95.62357549899752,96.60814990200016,96.62385289200029,,,,,,,,,,,,,,,,,,,,sub-019,1,stroop_test,59.97842276219814,
,,,,3.0,3.0,0.0,,,,,gelb,yellow,g,1.0,g,1.0,0.7304257270006929,,,,,,,,,,,,,,0.0,3.0,3.0,11.0,,,,,96.62385289200029,,,,,,,,,,,,,,,,,96.60850816899983,97.42418056699898,98.22440434300006,98.20819120699888,,,,,,,,,,,,,,,,98.20875132699804,98.22440434300006,98.22440434300006,98.95985796399692,g,1.0,0.7304257270006929,,98.96033293599976,98.9740174619983,99.95835939799872,99.9744223919988,,,,,,,,,,,,,,,,,,,,sub-019,1,stroop_test,59.97842276219814,
,,,,4.0,4.0,0.0,,,,,gelb,yellow,g,1.0,g,1.0,0.4575397700027679,,,,,,,,,,,,,,0.0,4.0,4.0,10.0,,,,,99.9744223919988,,,,,,,,,,,,,,,,,99.95863671299958,100.77444118600032,101.57443008299742,101.55831550499715,,,,,,,,,,,,,,,,101.55884655599948,101.57443008299742,101.57443008299742,102.04218423199929,g,1.0,0.4575397700027679,,102.04268441199748,102.05730040799972,103.04172674799702,103.05753963499956,,,,,,,,,,,,,,,,,,,,sub-019,1,stroop_test,59.97842276219814,
,,,,5.0,5.0,0.0,,,,,rot,red,r,1.0,r,1.0,0.7679215989992372,,,,,,,,,,,,,,0.0,5.0,5.0,1.0,,,,,103.05753963499956,,,,,,,,,,,,,,,,,103.0420908729975,104.25804353299829,105.0574837239983,105.04188285599956,,,,,,,,,,,,,,,,105.04440803899706,105.0574837239983,105.0574837239983,105.84240617799878,r,1.0,0.7679215989992372,,105.84295777799709,105.85791062399947,106.84198775599724,106.85800518399992,,,,,,,,,,,,,,,,,,,,sub-019,1,stroop_test,59.97842276219814,
,,,,6.0,6.0,0.0,,,,,blau,blue,b,1.0,b,1.0,0.3584029420017032,,,,,,,,,,,,,,0.0,6.0,6.0,5.0,,,,,106.85800518399992,,,,,,,,,,,,,,,,,106.842318084,108.04150130499691,108.84119767899756,108.82547541099848,,,,,,,,,,,,,,,,108.83039243500023,108.84119767899756,108.84119767899756,109.2094752439989,b,1.0,0.3584029420017032,,109.20994321099715,109.2248243699978,110.20894385599968,110.22506831399733,,,,,,,,,,,,,,,,,,,,sub-019,1,stroop_test,59.97842276219814,
,,,,7.0,7.0,0.0,,,,,rot,blue,b,0.0,r,0.0,0.9719664660005948,,,,,,,,,,,,,,0.0,7.0,7.0,2.0,,,,,110.22506831399733,,,,,,,,,,,,,,,,,110.2092916909969,111.0251391549973,111.8245791599984,111.80892515499728,,,,,,,,,,,,,,,,111.81152072399708,111.8245791599984,111.8245791599984,112.810373291999,r,0.0,0.9719664660005948,,112.81428024999695,112.82490975399924,113.80879580100007,113.8254347869988,,,,,,,,,,,,,,,,,,,,sub-019,1,stroop_test,59.97842276219814,
,,,,8.0,8.0,0.0,,,,,blau,yellow,g,0.0,g,1.0,1.2836186360000283,,,,,,,,,,,,,,0.0,8.0,8.0,7.0,,,,,113.8254347869988,,,,,,,,,,,,,,,,,113.80908120399909,114.62528146499972,115.4254076319994,115.41010345199902,,,,,,,,,,,,,,,,115.412639244998,115.4254076319994,115.4254076319994,116.71218540399786,g,1.0,1.2836186360000283,,116.71516824100036,116.725489147997,117.70940364299896,117.72536482899886,,,,,,,,,,,,,,,,,,,,sub-019,1,stroop_test,59.97842276219814,
,,,,9.0,9.0,0.0,,,,,blau,red,r,0.0,r,1.0,0.7185932380016311,,,,,,,,,,,,,,0.0,9.0,9.0,4.0,,,,,117.72536482899886,,,,,,,,,,,,,,,,,117.70976544499716,118.07561546299983,118.87549033299727,118.85970396300036,,,,,,,,,,,,,,,,118.86020368999743,118.87549033299727,118.87549033299727,119.61082024499774,r,1.0,0.7185932380016311,,119.61137027899896,119.62535900799776,120.60948369199832,120.62551635199998,,,,,,,,,,,,,,,,,,,,sub-019,1,stroop_test,59.97842276219814,
,,,,10.0,10.0,0.0,,,,,blau,blue,b,1.0,b,1.0,0.5990510819974588,,,,,,,,,,,,,,0.0,10.0,10.0,6.0,,,,,120.62551635199998,,,,,,,,,,,,,,,,,120.60975809499725,121.4255868049986,122.225918660999,122.20968054100013,,,,,,,,,,,,,,,,122.21019553299992,122.225918660999,122.225918660999,122.8286344879998,b,1.0,0.5990510819974588,,122.82913390799877,122.8428020020001,123.82651148699732,123.84244991899686,,,,,,,,,,,,,,,,,,,,sub-019,1,stroop_test,59.97842276219814,
,,,,11.0,11.0,0.0,,,,,rot,red,r,1.0,r,1.0,1.1707854629967187,,,,,,,,,,,,,,0.0,11.0,11.0,0.0,,,,,123.84244991899686,,,,,,,,,,,,,,,,,123.8269785989978,123.94254531699698,124.74265115399976,124.72618182799852,,,,,,,,,,,,,,,,124.72864751099767,124.74265115399976,124.74265115399976,125.92735296699902,r,1.0,1.1707854629967187,,125.92783027399857,125.9422453139996,126.92733380499703,126.94271976099844,,,,,,,,,,,,,,,,,,,,sub-019,1,stroop_test,59.97842276219814,
,,,,12.0,0.0,1.0,,,,,blau,blue,b,1.0,b,1.0,0.7763539129991841,,,,,,,,,,,,,,1.0,0.0,12.0,6.0,,,,,126.94271976099844,,,,,,,,,,,,,,,,,126.92762583999864,127.29276245599976,128.09280116099762,128.076982822,,,,,,,,,,,,,,,,128.08038206799756,128.09280116099762,128.09280116099762,128.8784588189992,b,1.0,0.7763539129991841,,128.87920905599822,128.89254082899788,129.87708237199695,129.89269943999898,,,,,,,,,,,,,,,,,,,,sub-019,1,stroop_test,59.97842276219814,
,,,,13.0,1.0,1.0,,,,,blau,yellow,g,0.0,b,0.0,2.347788518000016,,,,,,,,,,,,,,1.0,1.0,13.0,7.0,,,,,129.89269943999898,,,,,,,,,,,,,,,,,129.87742202899972,130.69306761499683,131.49264340099762,131.47705764499915,,,,,,,,,,,,,,,,131.47758854999847,131.49264340099762,131.49264340099762,133.84598661499697,b,0.0,2.347788518000016,,133.84932878600011,133.8592194619996,134.8440039599991,134.859981308,,,,,,,,,,,,,,,,,,,,sub-019,1,stroop_test,59.97842276219814,
,,,,14.0,2.0,1.0,,,,,rot,red,r,1.0,r,1.0,1.4078269519995956,,,,,,,,,,,,,,1.0,2.0,14.0,1.0,,,,,134.859981308,,,,,,,,,,,,,,,,,134.8443615489996,134.95993556800022,135.75999377999688,135.7442420999978,,,,,,,,,,,,,,,,135.74706338800024,135.75999377999688,135.75999377999688,137.1780384099984,r,1.0,1.4078269519995956,,137.1808893189991,137.19283478799844,138.17726447099994,138.1937177109976,,,,,,,,,,,,,,,,,,,,sub-019,1,stroop_test,59.97842276219814,
,,,,15.0,3.0,1.0,,,,,rot,blue,b,0.0,b,1.0,0.8878219570033252,,,,,,,,,,,,,,1.0,3.0,15.0,2.0,,,,,138.1937177109976,,,,,,,,,,,,,,,,,138.17754093099938,138.5432594060003,139.34372449500006,139.32698107099714,,,,,,,,,,,,,,,,139.32740540899977,139.34372449500006,139.34372449500006,140.24489972199808,b,1.0,0.8878219570033252,,140.245381550998,140.2600363239981,141.24462445300014,141.26042177199997,,,,,,,,,,,,,,,,,,,,sub-019,1,stroop_test,59.97842276219814,
,,,,16.0,4.0,1.0,,,,,gelb,red,r,0.0,r,1.0,1.7382036589988274,,,,,,,,,,,,,,1.0,4.0,16.0,8.0,,,,,141.26042177199997,,,,,,,,,,,,,,,,,141.24496967899904,142.0440291339983,142.8435872800001,142.82757034599854,,,,,,,,,,,,,,,,142.83012320499984,142.8435872800001,142.8435872800001,144.5953277209992,r,1.0,1.7382036589988274,,144.5957967989998,144.6104007899994,145.5947923120002,145.61078004799856,,,,,,,,,,,,,,,,,,,,sub-019,1,stroop_test,59.97842276219814,
,,,,17.0,5.0,1.0,,,,,rot,yellow,g,0.0,r,0.0,1.0862466389990004,,,,,,,,,,,,,,1.0,5.0,17.0,3.0,,,,,145.61078004799856,,,,,,,,,,,,,,,,,145.59506818499722,146.81062628699874,147.61044957400009,147.5949585870003,,,,,,,,,,,,,,,,147.59763497399763,147.61044957400009,147.61044957400009,148.71284604599714,r,0.0,1.0862466389990004,,148.71755667300022,148.72753535499942,149.71166398999776,149.72748439499992,,,,,,,,,,,,,,,,,,,,sub-019,1,stroop_test,59.97842276219814,
,,,,18.0,6.0,1.0,,,,,gelb,yellow,g,1.0,g,1.0,0.9047095269997952,,,,,,,,,,,,,,1.0,6.0,18.0,10.0,,,,,149.72748439499992,,,,,,,,,,,,,,,,,149.71194996199847,150.07766677699692,150.87771950399838,150.8618070809971,,,,,,,,,,,,,,,,150.8650108740003,150.87771950399838,150.87771950399838,151.7964257450003,g,1.0,0.9047095269997952,,151.799284040997,151.8106475099994,152.79511915699914,152.81142811999962,,,,,,,,,,,,,,,,,,,,sub-019,1,stroop_test,59.97842276219814,
,,,,19.0,7.0,1.0,,,,,gelb,yellow,g,1.0,g,1.0,0.5596285860010539,,,,,,,,,,,,,,1.0,7.0,19.0,11.0,,,,,152.81142811999962,,,,,,,,,,,,,,,,,152.7954544719978,153.16124639699774,153.961174611999,153.94543510999938,,,,,,,,,,,,,,,,153.94605043699994,153.961174611999,153.961174611999,154.5293844259977,g,1.0,0.5596285860010539,,154.52985300399814,154.54430327999944,155.52837392799847,155.54436772199915,,,,,,,,,,,,,,,,,,,,sub-019,1,stroop_test,59.97842276219814,
,,,,20.0,8.0,1.0,,,,,rot,red,r,1.0,r,1.0,1.2597792399974423,,,,,,,,,,,,,,1.0,8.0,20.0,0.0,,,,,155.54436772199915,,,,,,,,,,,,,,,,,155.52865228899827,156.3448578059979,157.14467825199972,157.12905419299932,,,,,,,,,,,,,,,,157.13184188599917,157.14467825199972,157.14467825199972,158.41299892099778,r,1.0,1.2597792399974423,,158.41347115199824,158.42802260799726,159.4119047669992,159.428522375998,,,,,,,,,,,,,,,,,,,,sub-019,1,stroop_test,59.97842276219814,
,,,,21.0,9.0,1.0,,,,,gelb,blue,b,0.0,b,1.0,0.8716905460023554,,,,,,,,,,,,,,1.0,9.0,21.0,9.0,,,,,159.428522375998,,,,,,,,,,,,,,,,,159.4122003079974,160.62836449099996,161.42836484999862,161.41245634099687,,,,,,,,,,,,,,,,161.41499430899785,161.42836484999862,161.42836484999862,162.31303116599884,b,1.0,0.8716905460023554,,162.3134965279969,162.32827644499775,163.31240399099988,163.3286453159999,,,,,,,,,,,,,,,,,,,,sub-019,1,stroop_test,59.97842276219814,
,,,,22.0,10.0,1.0,,,,,blau,blue,b,1.0,b,1.0,1.1010260270013532,,,,,,,,,,,,,,1.0,10.0,22.0,5.0,,,,,163.3286453159999,,,,,,,,,,,,,,,,,163.31268492199888,164.11210315599965,164.91191065899693,164.8961815469993,,,,,,,,,,,,,,,,164.89892288199917,164.91191065899693,164.91191065899693,166.03040572199825,b,1.0,1.1010260270013532,,166.03093192499728,166.0451081680003,167.02915499299706,167.04544697500023,,,,,,,,,,,,,,,,,,,,sub-019,1,stroop_test,59.97842276219814,
,,,,23.0,11.0,1.0,,,,,blau,red,r,0.0,r,1.0,1.704406040997128,,,,,,,,,,,,,,1.0,11.0,23.0,4.0,,,,,167.04544697500023,,,,,,,,,,,,,,,,,167.02943370399953,167.84569119200023,168.6457087389972,168.62987658199927,,,,,,,,,,,,,,,,168.63042371199845,168.6457087389972,168.6457087389972,170.36382224699992,r,1.0,1.704406040997128,,170.3642901029998,170.3789355129993,171.36297035499956,171.3791595069997,,,,,,,,,,,,,,,,,,,,sub-019,1,stroop_test,59.97842276219814,
,,,,,,,,,,,,,,,,,,,,,,,,,,,,,,,,,,,,,,,,,,,,,,,,,,,,,,,,,,,,,,,,,,,,,,,,,,,,,,,,,,,,,,,171.36313616199914,171.3791595069997,171.3791595069997,175.09903304999898,space,3.716890993000561,,,,,,,,,,,,,,sub-019,1,stroop_test,59.97842276219814,
,,,,0.0,0.0,0.0,,,,,,,,,,,,,gelb,blue,b,0.0,b,1.0,1.3789550149995191,,,,,,,,,,0.0,0.0,0.0,9.0,175.12081540899817,,,,,,,,,,,,,,,,,175.113402191997,175.2127519679998,176.01247122399946,175.99684035599785,,,,,,,,,,,,,,,,,,,,,,,,,,,,,,,,,,,175.99951134799994,176.01247122399946,176.01247122399946,177.39853604000018,b,1.0,1.3789550149995191,,,,,,sub-019,1,stroop_test,59.97842276219814,
,,,,1.0,1.0,0.0,,,,,,,,,,,,,blau,red,r,0.0,r,1.0,1.1815518270013854,,,,,,,,,,0.0,1.0,1.0,4.0,177.41280577100042,,,,,,,,,,,,,,,,,177.39887658799853,177.51326006399904,178.312989930997,178.29702881399862,,,,,,,,,,,,,,,,,,,,,,,,,,,,,,,,,,,178.2997819079974,178.312989930997,178.312989930997,179.49861651799802,r,1.0,1.1815518270013854,,,,,,sub-019,1,stroop_test,59.97842276219814,
,,,,2.0,2.0,0.0,,,,,,,,,,,,,blau,blue,b,1.0,b,1.0,0.8399997029991937,,,,,,,,,,0.0,2.0,2.0,6.0,179.51300886699755,,,,,,,,,,,,,,,,,179.49896187899867,180.71286022999996,181.5128393679988,181.49698750499735,,,,,,,,,,,,,,,,,,,,,,,,,,,,,,,,,,,181.49742764099935,181.5128393679988,181.5128393679988,182.3649062379991,b,1.0,0.8399997029991937,,,,,,sub-019,1,stroop_test,59.97842276219814,
,,,,3.0,3.0,0.0,,,,,,,,,,,,,gelb,red,r,0.0,r,1.0,0.8758281320006063,,,,,,,,,,0.0,3.0,3.0,8.0,182.37965791199892,,,,,,,,,,,,,,,,,182.36535254699996,182.4802314039989,183.2796854799999,183.2640917289973,,,,,,,,,,,,,,,,,,,,,,,,,,,,,,,,,,,183.2666262299972,183.2796854799999,183.2796854799999,184.1656039949994,r,1.0,0.8758281320006063,,,,,,sub-019,1,stroop_test,59.97842276219814,
,,,,4.0,4.0,0.0,,,,,,,,,,,,,gelb,yellow,g,1.0,g,1.0,0.7734992299992882,,,,,,,,,,0.0,4.0,4.0,10.0,184.1797379519994,,,,,,,,,,,,,,,,,184.1661473139975,184.279916149997,185.08012488999884,185.0641296969989,,,,,,,,,,,,,,,,,,,,,,,,,,,,,,,,,,,185.0646550349993,185.08012488999884,185.08012488999884,185.8652118059981,g,1.0,0.7734992299992882,,,,,,sub-019,1,stroop_test,59.97842276219814,
,,,,5.0,5.0,0.0,,,,,,,,,,,,,gelb,yellow,g,1.0,g,1.0,0.5639959330001147,,,,,,,,,,0.0,5.0,5.0,11.0,185.8799288299997,,,,,,,,,,,,,,,,,185.86555218699868,186.68055226700017,187.48027958999955,187.46443549499963,,,,,,,,,,,,,,,,,,,,,,,,,,,,,,,,,,,187.4649629479973,187.48027958999955,187.48027958999955,188.04924500799825,g,1.0,0.5639959330001147,,,,,,sub-019,1,stroop_test,59.97842276219814,
,,,,6.0,6.0,0.0,,,,,,,,,,,,,rot,blue,b,0.0,b,1.0,0.8557253899998614,,,,,,,,,,0.0,6.0,6.0,2.0,188.06373494499712,,,,,,,,,,,,,,,,,188.04957590299816,188.163409711,188.96348709499944,188.9479682279998,,,,,,,,,,,,,,,,,,,,,,,,,,,,,,,,,,,188.95078560599725,188.96348709499944,188.96348709499944,189.83161451999692,b,1.0,0.8557253899998614,,,,,,sub-019,1,stroop_test,59.97842276219814,
,,,,7.0,7.0,0.0,,,,,,,,,,,,,blau,blue,b,1.0,b,1.0,0.7047720669979753,,,,,,,,,,0.0,7.0,7.0,5.0,189.8469916679969,,,,,,,,,,,,,,,,,189.8319420339976,190.19726422799795,190.99723579499917,190.98124498999823,,,,,,,,,,,,,,,,,,,,,,,,,,,,,,,,,,,190.98405176399683,190.99723579499917,190.99723579499917,191.71553655699967,b,1.0,0.7047720669979753,,,,,,sub-019,1,stroop_test,59.97842276219814,
,,,,8.0,8.0,0.0,,,,,,,,,,,,,rot,red,r,1.0,r,1.0,0.6948718420026125,,,,,,,,,,0.0,8.0,8.0,1.0,191.73029499199765,,,,,,,,,,,,,,,,,191.71587222999733,192.93039878799755,193.73042775199792,193.7147778269973,,,,,,,,,,,,,,,,,,,,,,,,,,,,,,,,,,,193.71738416699736,193.73042775199792,193.73042775199792,194.43275752299812,r,1.0,0.6948718420026125,,,,,,sub-019,1,stroop_test,59.97842276219814,
,,,,9.0,9.0,0.0,,,,,,,,,,,,,blau,yellow,g,0.0,g,1.0,1.0403507619994343,,,,,,,,,,0.0,9.0,9.0,7.0,194.44692838599804,,,,,,,,,,,,,,,,,194.4332829269988,195.2475073459973,196.04734420199748,196.0314223339992,,,,,,,,,,,,,,,,,,,,,,,,,,,,,,,,,,,196.03453595799877,196.04734420199748,196.04734420199748,197.09899576599852,g,1.0,1.0403507619994343,,,,,,sub-019,1,stroop_test,59.97842276219814,
,,,,10.0,10.0,0.0,,,,,,,,,,,,,rot,red,r,1.0,r,1.0,1.0691485070019553,,,,,,,,,,0.0,10.0,10.0,0.0,197.1142909429982,,,,,,,,,,,,,,,,,197.0993201429992,198.31432129699897,199.1143660839989,199.09838893399865,,,,,,,,,,,,,,,,,,,,,,,,,,,,,,,,,,,199.10114498300027,199.1143660839989,199.1143660839989,200.19903878999685,r,1.0,1.0691485070019553,,,,,,sub-019,1,stroop_test,59.97842276219814,
,,,,11.0,11.0,0.0,,,,,,,,,,,,,rot,yellow,g,0.0,b,0.0,1.2655821230000583,,,,,,,,,,0.0,11.0,11.0,3.0,200.21446844899765,,,,,,,,,,,,,,,,,200.1993821489996,200.31465058199683,201.1144747439976,201.0987998789969,,,,,,,,,,,,,,,,,,,,,,,,,,,,,,,,,,,201.099327478998,201.1144747439976,201.1144747439976,202.3842024789992,b,0.0,1.2655821230000583,,,,,,sub-019,1,stroop_test,59.97842276219814,
,,,,12.0,0.0,1.0,,,,,,,,,,,,,gelb,red,r,0.0,r,1.0,1.6399355780013138,,,,,,,,,,1.0,0.0,12.0,8.0,202.39773746900028,,,,,,,,,,,,,,,,,202.38462432499728,203.59805545400013,204.39827359699848,204.38175315099943,,,,,,,,,,,,,,,,,,,,,,,,,,,,,,,,,,,204.3842578259973,204.39827359699848,204.39827359699848,206.0495233929978,r,1.0,1.6399355780013138,,,,,,sub-019,1,stroop_test,59.97842276219814,
,,,,13.0,1.0,1.0,,,,,,,,,,,,,gelb,blue,b,0.0,b,1.0,1.0760356099999626,,,,,,,,,,1.0,1.0,13.0,9.0,206.0647911919987,,,,,,,,,,,,,,,,,206.04985264599964,207.2653492149984,208.0650755619972,208.0486273819988,,,,,,,,,,,,,,,,,,,,,,,,,,,,,,,,,,,208.04905494899867,208.0650755619972,208.0650755619972,209.14979157999915,b,1.0,1.0760356099999626,,,,,,sub-019,1,stroop_test,59.97842276219814,
,,,,14.0,2.0,1.0,,,,,,,,,,,,,gelb,yellow,g,1.0,g,1.0,2.4014334500025143,,,,,,,,,,1.0,2.0,14.0,11.0,209.16441172399936,,,,,,,,,,,,,,,,,209.15011543299988,209.5149523509972,210.31515755099824,210.2989666789981,,,,,,,,,,,,,,,,,,,,,,,,,,,,,,,,,,,210.29939673899932,210.31515755099824,210.31515755099824,212.7333512039986,g,1.0,2.4014334500025143,,,,,,sub-019,1,stroop_test,59.97842276219814,
,,,,15.0,3.0,1.0,,,,,,,,,,,,,blau,yellow,g,0.0,r,0.0,1.716511883001658,,,,,,,,,,1.0,3.0,15.0,7.0,212.7486363779972,,,,,,,,,,,,,,,,,212.73370258199796,213.94861666499853,214.74873029599985,214.7327782430002,,,,,,,,,,,,,,,,,,,,,,,,,,,,,,,,,,,214.7353347190001,214.74873029599985,214.74873029599985,216.469453548998,r,0.0,1.716511883001658,,,,,,sub-019,1,stroop_test,59.97842276219814,
,,,,16.0,4.0,1.0,,,,,,,,,,,,,blau,blue,b,1.0,b,1.0,0.822270077002031,,,,,,,,,,1.0,4.0,16.0,6.0,216.48174723699776,,,,,,,,,,,,,,,,,216.46980642199924,216.83242325099852,217.63236130199948,217.6163160010001,,,,,,,,,,,,,,,,,,,,,,,,,,,,,,,,,,,217.61676099599936,217.63236130199948,217.63236130199948,218.46668683199823,b,1.0,0.822270077002031,,,,,,sub-019,1,stroop_test,59.97842276219814,
,,,,17.0,5.0,1.0,,,,,,,,,,,,,rot,red,r,1.0,r,1.0,1.3034745559998555,,,,,,,,,,1.0,5.0,17.0,1.0,218.48241097599748,,,,,,,,,,,,,,,,,218.4670155040003,219.26570170599732,220.06521566399897,220.05025509199916,,,,,,,,,,,,,,,,,,,,,,,,,,,,,,,,,,,220.05296410699884,220.06521566399897,220.06521566399897,221.3846762639987,r,1.0,1.3034745559998555,,,,,,sub-019,1,stroop_test,59.97842276219814,
,,,,18.0,6.0,1.0,,,,,,,,,,,,,blau,blue,b,1.0,b,1.0,1.2020077240013052,,,,,,,,,,1.0,6.0,18.0,5.0,221.39944504999949,,,,,,,,,,,,,,,,,221.3850128319973,222.5994465299991,223.39894429899869,223.3833025499989,,,,,,,,,,,,,,,,,,,,,,,,,,,,,,,,,,,223.38583692099928,223.39894429899869,223.39894429899869,224.617933153997,b,1.0,1.2020077240013052,,,,,,sub-019,1,stroop_test,59.97842276219814,
,,,,19.0,7.0,1.0,,,,,,,,,,,,,gelb,yellow,g,1.0,g,1.0,0.9646102779988724,,,,,,,,,,1.0,7.0,19.0,10.0,224.63267909799836,,,,,,,,,,,,,,,,,224.6182928809976,225.83258089899755,226.6330122099971,226.61706281299848,,,,,,,,,,,,,,,,,,,,,,,,,,,,,,,,,,,226.62035774299875,226.6330122099971,226.6330122099971,227.6017432339977,g,1.0,0.9646102779988724,,,,,,sub-019,1,stroop_test,59.97842276219814,
,,,,20.0,8.0,1.0,,,,,,,,,,,,,rot,yellow,g,0.0,r,0.0,1.271704568000132,,,,,,,,,,1.0,8.0,20.0,3.0,227.61625392199855,,,,,,,,,,,,,,,,,227.6021882569985,227.9663002729976,228.76628079500009,228.7506577699969,,,,,,,,,,,,,,,,,,,,,,,,,,,,,,,,,,,228.75347017699823,228.76628079500009,228.76628079500009,230.0517632179981,r,0.0,1.271704568000132,,,,,,sub-019,1,stroop_test,59.97842276219814,
,,,,21.0,9.0,1.0,,,,,,,,,,,,,blau,red,r,0.0,r,1.0,2.00825399400128,,,,,,,,,,1.0,9.0,21.0,4.0,230.0665759139993,,,,,,,,,,,,,,,,,230.05210430700023,230.16678950399728,230.96656195099783,230.95019019999745,,,,,,,,,,,,,,,,,,,,,,,,,,,,,,,,,,,230.95270689699828,230.96656195099783,230.96656195099783,232.9853940009998,r,1.0,2.00825399400128,,,,,,sub-019,1,stroop_test,59.97842276219814,
,,,,22.0,10.0,1.0,,,,,,,,,,,,,rot,red,r,1.0,r,1.0,1.0601471230002062,,,,,,,,,,1.0,10.0,22.0,0.0,232.9996964029997,,,,,,,,,,,,,,,,,232.98592899699725,234.2001108689983,234.9999409359989,234.9841146309991,,,,,,,,,,,,,,,,,,,,,,,,,,,,,,,,,,,234.9866567600002,234.9999409359989,234.9999409359989,236.0685538409998,r,1.0,1.0601471230002062,,,,,,sub-019,1,stroop_test,59.97842276219814,
,,,,23.0,11.0,1.0,,,,,,,,,,,,,rot,blue,b,0.0,b,1.0,1.055676127998595,,,,,,,,,,1.0,11.0,23.0,2.0,236.08354093199887,,,,,,,,,,,,,,,,,236.06887867099795,236.4340577740004,237.23346844499972,237.2175077529973,,,,,,,,,,,,,,,,,,,,,,,,,,,,,,,,,,,237.2179323849996,237.23346844499972,237.23346844499972,238.30218535099996,b,1.0,1.055676127998595,,,,,,sub-019,1,stroop_test,59.97842276219814,
,,,,24.0,0.0,2.0,,,,,,,,,,,,,gelb,blue,b,0.0,g,0.0,1.1684095450000314,,,,,,,,,,2.0,0.0,24.0,9.0,238.31725072399783,,,,,,,,,,,,,,,,,238.30266782800027,239.5169208939988,240.31698426399817,240.3011210299992,,,,,,,,,,,,,,,,,,,,,,,,,,,,,,,,,,,240.30365568399796,240.31698426399817,240.31698426399817,241.50271047799836,g,0.0,1.1684095450000314,,,,,,sub-019,1,stroop_test,59.97842276219814,
,,,,25.0,1.0,2.0,,,,,,,,,,,,,gelb,red,r,0.0,r,1.0,1.7345776180009125,,,,,,,,,,2.0,1.0,25.0,8.0,241.5175115719976,,,,,,,,,,,,,,,,,241.50314801999772,242.3173057219974,243.1171083499976,243.10103915999932,,,,,,,,,,,,,,,,,,,,,,,,,,,,,,,,,,,243.10148396399745,243.1171083499976,243.1171083499976,244.86840263900007,r,1.0,1.7345776180009125,,,,,,sub-019,1,stroop_test,59.97842276219814,
,,,,26.0,2.0,2.0,,,,,,,,,,,,,blau,red,r,0.0,b,0.0,1.3428043669991894,,,,,,,,,,2.0,2.0,26.0,4.0,244.88446763799948,,,,,,,,,,,,,,,,,244.86885130899827,245.23476372499863,246.0341279409986,246.01812542399784,,,,,,,,,,,,,,,,,,,,,,,,,,,,,,,,,,,246.02064623499973,246.0341279409986,246.0341279409986,247.38601842099888,b,0.0,1.3428043669991894,,,,,,sub-019,1,stroop_test,59.97842276219814,
,,,,27.0,3.0,2.0,,,,,,,,,,,,,rot,blue,b,0.0,b,1.0,3.121876118999353,,,,,,,,,,2.0,3.0,27.0,2.0,247.40079378799783,,,,,,,,,,,,,,,,,247.3863617919997,247.5010469129993,248.30129900399697,248.2853028479985,,,,,,,,,,,,,,,,,,,,,,,,,,,,,,,,,,,248.28887209899767,248.30129900399697,248.30129900399697,251.43592084099876,b,1.0,3.121876118999353,,,,,,sub-019,1,stroop_test,59.97842276219814,
,,,,28.0,4.0,2.0,,,,,,,,,,,,,rot,red,r,1.0,r,1.0,2.728273905999231,,,,,,,,,,2.0,4.0,28.0,0.0,251.451201994998,,,,,,,,,,,,,,,,,251.43626392299848,252.2515757209985,253.05115626399856,253.0352257269988,,,,,,,,,,,,,,,,,,,,,,,,,,,,,,,,,,,253.03568306200032,253.05115626399856,253.05115626399856,255.78734970599908,r,1.0,2.728273905999231,,,,,,sub-019,1,stroop_test,59.97842276219814,
,,,,29.0,5.0,2.0,,,,,,,,,,,,,rot,red,r,1.0,r,1.0,0.9525892229976308,,,,,,,,,,2.0,5.0,29.0,1.0,255.80176095999923,,,,,,,,,,,,,,,,,255.7877358959995,256.6017632229996,257.40183565199914,257.3856958819997,,,,,,,,,,,,,,,,,,,,,,,,,,,,,,,,,,,257.3862369939998,257.40183565199914,257.40183565199914,258.37031652099904,r,1.0,0.9525892229976308,,,,,,sub-019,1,stroop_test,59.97842276219814,
,,,,30.0,6.0,2.0,,,,,,,,,,,,,blau,blue,b,1.0,b,1.0,1.6448693979982636,,,,,,,,,,2.0,6.0,30.0,6.0,258.38498550999793,,,,,,,,,,,,,,,,,258.3706620599987,259.18518511799994,259.98526472999947,259.969357406997,,,,,,,,,,,,,,,,,,,,,,,,,,,,,,,,,,,259.9719347789978,259.98526472999947,259.98526472999947,261.6419126410001,b,1.0,1.6448693979982636,,,,,,sub-019,1,stroop_test,59.97842276219814,
,,,,31.0,7.0,2.0,,,,,,,,,,,,,gelb,yellow,g,1.0,g,1.0,1.890219472999888,,,,,,,,,,2.0,7.0,31.0,11.0,261.65174621999904,,,,,,,,,,,,,,,,,261.64239330099736,262.00208672999725,262.80227564300003,262.786133415997,,,,,,,,,,,,,,,,,,,,,,,,,,,,,,,,,,,262.7886073359987,262.80227564300003,262.80227564300003,264.70404546499776,g,1.0,1.890219472999888,,,,,,sub-019,1,stroop_test,59.97842276219814,
,,,,32.0,8.0,2.0,,,,,,,,,,,,,gelb,yellow,g,1.0,g,1.0,0.7119174639992707,,,,,,,,,,2.0,8.0,32.0,10.0,264.718640133,,,,,,,,,,,,,,,,,264.7044609009972,265.51897271800044,266.31906624899784,266.3027519529969,,,,,,,,,,,,,,,,,,,,,,,,,,,,,,,,,,,266.3031981539971,266.31906624899784,266.31906624899784,267.03805865699906,g,1.0,0.7119174639992707,,,,,,sub-019,1,stroop_test,59.97842276219814,
,,,,33.0,9.0,2.0,,,,,,,,,,,,,blau,yellow,g,0.0,g,1.0,1.4536529790020722,,,,,,,,,,2.0,9.0,33.0,7.0,267.0525754349983,,,,,,,,,,,,,,,,,267.03844175599806,268.25267074899966,269.0524556169985,269.0366136109988,,,,,,,,,,,,,,,,,,,,,,,,,,,,,,,,,,,269.03917807999824,269.0524556169985,269.0524556169985,270.52036667799985,g,1.0,1.4536529790020722,,,,,,sub-019,1,stroop_test,59.97842276219814,
,,,,34.0,10.0,2.0,,,,,,,,,,,,,blau,blue,b,1.0,b,1.0,1.28808787899834,,,,,,,,,,2.0,10.0,34.0,5.0,270.5361591059991,,,,,,,,,,,,,,,,,270.5206871399969,271.71937943899684,272.5195715819973,272.5032405739985,,,,,,,,,,,,,,,,,,,,,,,,,,,,,,,,,,,272.5036992329988,272.5195715819973,272.5195715819973,273.82181855399904,b,1.0,1.28808787899834,,,,,,sub-019,1,stroop_test,59.97842276219814,
,,,,35.0,11.0,2.0,,,,,,,,,,,,,rot,yellow,g,0.0,g,1.0,1.5682930640032282,,,,,,,,,,2.0,11.0,35.0,3.0,273.836284134999,,,,,,,,,,,,,,,,,273.8223461029993,273.9360305959999,274.7360990849993,274.7199613399971,,,,,,,,,,,,,,,,,,,,,,,,,,,,,,,,,,,274.722467951,274.7360990849993,274.7360990849993,276.3208077099989,g,1.0,1.5682930640032282,,,,,,sub-019,1,stroop_test,59.97842276219814,
,,,,36.0,0.0,3.0,,,,,,,,,,,,,blau,red,r,0.0,r,1.0,0.9093913420001628,,,,,,,,,,3.0,0.0,36.0,4.0,276.33620241300014,,,,,,,,,,,,,,,,,276.32127463699726,276.4363757449973,277.23651016700023,277.2204343679987,,,,,,,,,,,,,,,,,,,,,,,,,,,,,,,,,,,277.22307166099927,277.23651016700023,277.23651016700023,278.15461270899686,r,1.0,0.9093913420001628,,,,,,sub-019,1,stroop_test,59.97842276219814,
,,,,37.0,1.0,3.0,,,,,,,,,,,,,gelb,yellow,g,1.0,g,1.0,0.7673727559995314,,,,,,,,,,3.0,1.0,37.0,11.0,278.16993488200023,,,,,,,,,,,,,,,,,278.1549378589989,278.2698657969995,279.069940819998,279.0537478160004,,,,,,,,,,,,,,,,,,,,,,,,,,,,,,,,,,,279.0571253889975,279.069940819998,279.069940819998,279.85381965299894,g,1.0,0.7673727559995314,,,,,,sub-019,1,stroop_test,59.97842276219814,
,,,,38.0,2.0,3.0,,,,,,,,,,,,,blau,yellow,g,0.0,g,1.0,1.2148806459990735,,,,,,,,,,3.0,2.0,38.0,7.0,279.8702195859987,,,,,,,,,,,,,,,,,279.85414713299906,280.6531915790001,281.45331898099903,281.4374436549988,,,,,,,,,,,,,,,,,,,,,,,,,,,,,,,,,,,281.440098840998,281.45331898099903,281.45331898099903,282.67190301699884,g,1.0,1.2148806459990735,,,,,,sub-019,1,stroop_test,59.97842276219814,
,,,,39.0,3.0,3.0,,,,,,,,,,,,,rot,red,r,1.0,r,1.0,0.7885673929995392,,,,,,,,,,3.0,3.0,39.0,1.0,282.6866525160003,,,,,,,,,,,,,,,,,282.6724107150003,283.0365366730002,283.8365913909984,283.82092914599707,,,,,,,,,,,,,,,,,,,,,,,,,,,,,,,,,,,283.8234277499978,283.8365913909984,283.8365913909984,284.6383406779969,r,1.0,0.7885673929995392,,,,,,sub-019,1,stroop_test,59.97842276219814,
,,,,40.0,4.0,3.0,,,,,,,,,,,,,gelb,blue,b,0.0,b,1.0,0.6404196850016888,,,,,,,,,,3.0,4.0,40.0,9.0,284.65325210899755,,,,,,,,,,,,,,,,,284.63871062999897,285.45367474999875,286.25369676899936,286.23770525099826,,,,,,,,,,,,,,,,,,,,,,,,,,,,,,,,,,,286.24037331100044,286.25369676899936,286.25369676899936,286.90500729999985,b,1.0,0.6404196850016888,,,,,,sub-019,1,stroop_test,59.97842276219814,
,,,,41.0,5.0,3.0,,,,,,,,,,,,,rot,yellow,g,0.0,g,1.0,1.5086170670001593,,,,,,,,,,3.0,5.0,41.0,3.0,286.92031298099755,,,,,,,,,,,,,,,,,286.9053308729999,287.0201422959981,287.8206683139979,287.80470188899926,,,,,,,,,,,,,,,,,,,,,,,,,,,,,,,,,,,287.8073202939995,287.8206683139979,287.8206683139979,289.33824383200044,g,1.0,1.5086170670001593,,,,,,sub-019,1,stroop_test,59.97842276219814,
,,,,42.0,6.0,3.0,,,,,,,,,,,,,blau,blue,b,1.0,b,1.0,0.7507207199996628,,,,,,,,,,3.0,6.0,42.0,5.0,289.35409294099736,,,,,,,,,,,,,,,,,289.3385672730001,290.137098985997,290.93702545799897,290.9215826849977,,,,,,,,,,,,,,,,,,,,,,,,,,,,,,,,,,,290.9243433929987,290.93702545799897,290.93702545799897,291.69056309699954,b,1.0,0.7507207199996628,,,,,,sub-019,1,stroop_test,59.97842276219814,
,,,,43.0,7.0,3.0,,,,,,,,,,,,,rot,blue,b,0.0,b,1.0,1.3100828019996698,,,,,,,,,,3.0,7.0,43.0,2.0,291.7039407029988,,,,,,,,,,,,,,,,,291.69091659900005,292.90410875499947,293.70382433899795,293.68828301399844,,,,,,,,,,,,,,,,,,,,,,,,,,,,,,,,,,,293.69078209500003,293.70382433899795,293.70382433899795,295.0234637499998,b,1.0,1.3100828019996698,,,,,,sub-019,1,stroop_test,59.97842276219814,
,,,,44.0,8.0,3.0,,,,,,,,,,,,,rot,red,r,1.0,r,1.0,1.3223216539990972,,,,,,,,,,3.0,8.0,44.0,0.0,295.0377202719974,,,,,,,,,,,,,,,,,295.0239535949986,295.3875533089995,296.18740429099853,296.17163263899783,,,,,,,,,,,,,,,,,,,,,,,,,,,,,,,,,,,296.17206094599896,296.18740429099853,296.18740429099853,297.5224398129976,r,1.0,1.3223216539990972,,,,,,sub-019,1,stroop_test,59.97842276219814,
,,,,45.0,9.0,3.0,,,,,,,,,,,,,gelb,yellow,g,1.0,g,1.0,0.4821572900000319,,,,,,,,,,3.0,9.0,45.0,10.0,297.5378799249993,,,,,,,,,,,,,,,,,297.52276006899774,298.73802713799887,299.5374796529977,299.52221558999736,,,,,,,,,,,,,,,,,,,,,,,,,,,,,,,,,,,299.52563525299774,299.5374796529977,299.5374796529977,300.0236704709969,g,1.0,0.4821572900000319,,,,,,sub-019,1,stroop_test,59.97842276219814,
,,,,46.0,10.0,3.0,,,,,,,,,,,,,blau,blue,b,1.0,b,1.0,0.6691563280000992,,,,,,,,,,3.0,10.0,46.0,6.0,300.0380231099989,,,,,,,,,,,,,,,,,300.02400615499937,300.83799107499726,301.6379074439974,301.62231520599744,,,,,,,,,,,,,,,,,,,,,,,,,,,,,,,,,,,301.6250774660002,301.6379074439974,301.6379074439974,302.32387834600013,b,1.0,0.6691563280000992,,,,,,sub-019,1,stroop_test,59.97842276219814,
,,,,47.0,11.0,3.0,,,,,,,,,,,,,gelb,red,r,0.0,r,1.0,1.226733093000803,,,,,,,,,,3.0,11.0,47.0,8.0,302.33813565499804,,,,,,,,,,,,,,,,,302.32427109799755,303.53824795299806,304.3380864779974,304.32205194499693,,,,,,,,,,,,,,,,,,,,,,,,,,,,,,,,,,,304.3246109069987,304.3380864779974,304.3380864779974,305.57376197600024,r,1.0,1.226733093000803,,,,,,sub-019,1,stroop_test,59.97842276219814,
,,,,48.0,0.0,4.0,,,,,,,,,,,,,gelb,yellow,g,1.0,g,1.0,1.3565557500005525,,,,,,,,,,4.0,0.0,48.0,11.0,305.5879231519976,,,,,,,,,,,,,,,,,305.57417782799894,306.7886488059994,307.5886436789988,307.57243163199746,,,,,,,,,,,,,,,,,,,,,,,,,,,,,,,,,,,307.57297435599685,307.5886436789988,307.5886436789988,308.95633175299736,g,1.0,1.3565557500005525,,,,,,sub-019,1,stroop_test,59.97842276219814,
,,,,49.0,1.0,4.0,,,,,,,,,,,,,blau,yellow,g,0.0,g,1.0,1.085266103000322,,,,,,,,,,4.0,1.0,49.0,7.0,308.9719390789978,,,,,,,,,,,,,,,,,308.9566630239969,309.07146991699847,309.87161797799854,309.8559213249973,,,,,,,,,,,,,,,,,,,,,,,,,,,,,,,,,,,309.8585820329972,309.87161797799854,309.87161797799854,310.9724721149978,g,1.0,1.085266103000322,,,,,,sub-019,1,stroop_test,59.97842276219814,
,,,,50.0,2.0,4.0,,,,,,,,,,,,,blau,blue,b,1.0,b,1.0,1.0677743829983228,,,,,,,,,,4.0,2.0,50.0,5.0,310.9885647899973,,,,,,,,,,,,,,,,,310.9727920240002,312.17227198699766,312.9720674579985,312.9562705829994,,,,,,,,,,,,,,,,,,,,,,,,,,,,,,,,,,,312.9568164919983,312.9720674579985,312.9720674579985,314.05781325299904,b,1.0,1.0677743829983228,,,,,,sub-019,1,stroop_test,59.97842276219814,
,,,,51.0,3.0,4.0,,,,,,,,,,,,,rot,blue,b,0.0,b,1.0,1.047596013002476,,,,,,,,,,4.0,3.0,51.0,2.0,314.0721785850001,,,,,,,,,,,,,,,,,314.0583417489979,314.4220958730002,315.22213418499814,315.2062044960003,,,,,,,,,,,,,,,,,,,,,,,,,,,,,,,,,,,315.208678985,315.22213418499814,315.22213418499814,316.27497767800014,b,1.0,1.047596013002476,,,,,,sub-019,1,stroop_test,59.97842276219814,
,,,,52.0,4.0,4.0,,,,,,,,,,,,,blau,red,r,0.0,r,1.0,1.880610602998786,,,,,,,,,,4.0,4.0,52.0,4.0,316.2886532329976,,,,,,,,,,,,,,,,,316.275331132998,317.488750059998,318.28914282999904,318.27332055799707,,,,,,,,,,,,,,,,,,,,,,,,,,,,,,,,,,,318.2764816559975,318.28914282999904,318.28914282999904,320.17499599799703,r,1.0,1.880610602998786,,,,,,sub-019,1,stroop_test,59.97842276219814,
,,,,53.0,5.0,4.0,,,,,,,,,,,,,gelb,blue,b,0.0,b,1.0,1.4026639299991075,,,,,,,,,,4.0,5.0,53.0,9.0,320.18894277899744,,,,,,,,,,,,,,,,,320.1753552379996,320.28937517599843,321.0894311429984,321.0732936489985,,,,,,,,,,,,,,,,,,,,,,,,,,,,,,,,,,,321.07643967499826,321.0894311429984,321.0894311429984,322.5083483149974,b,1.0,1.4026639299991075,,,,,,sub-019,1,stroop_test,59.97842276219814,
,,,,54.0,6.0,4.0,,,,,,,,,,,,,rot,red,r,1.0,r,1.0,1.417844524999964,,,,,,,,,,4.0,6.0,54.0,0.0,322.5225649759996,,,,,,,,,,,,,,,,,322.5086981040004,323.723000922997,324.52296173099967,324.50706720099697,,,,,,,,,,,,,,,,,,,,,,,,,,,,,,,,,,,324.50993958099934,324.52296173099967,324.52296173099967,325.958120416999,r,1.0,1.417844524999964,,,,,,sub-019,1,stroop_test,59.97842276219814,
,,,,55.0,7.0,4.0,,,,,,,,,,,,,rot,red,r,1.0,r,1.0,1.3345499969982484,,,,,,,,,,4.0,7.0,55.0,1.0,325.9731443210003,,,,,,,,,,,,,,,,,325.95852589199785,327.1733192149986,327.9736111139973,327.9574090249989,,,,,,,,,,,,,,,,,,,,,,,,,,,,,,,,,,,327.9579302139973,327.9736111139973,327.9736111139973,329.32475053399685,r,1.0,1.3345499969982484,,,,,,sub-019,1,stroop_test,59.97842276219814,
,,,,56.0,8.0,4.0,,,,,,,,,,,,,gelb,yellow,g,1.0,g,1.0,0.9100821639985952,,,,,,,,,,4.0,8.0,56.0,10.0,329.3404339039989,,,,,,,,,,,,,,,,,329.3250690899986,330.1402525550002,330.9401343049976,330.92409163299817,,,,,,,,,,,,,,,,,,,,,,,,,,,,,,,,,,,330.92669994699827,330.9401343049976,330.9401343049976,331.8588502879975,g,1.0,0.9100821639985952,,,,,,sub-019,1,stroop_test,59.97842276219814,
,,,,57.0,9.0,4.0,,,,,,,,,,,,,rot,yellow,g,0.0,g,1.0,0.7019044320004468,,,,,,,,,,4.0,9.0,57.0,3.0,331.87329602599857,,,,,,,,,,,,,,,,,331.85917946599875,333.0734974219995,333.87346453499777,333.8577301160003,,,,,,,,,,,,,,,,,,,,,,,,,,,,,,,,,,,333.8618942639987,333.87346453499777,333.87346453499777,334.59249006999744,g,1.0,0.7019044320004468,,,,,,sub-019,1,stroop_test,59.97842276219814,
,,,,58.0,10.0,4.0,,,,,,,,,,,,,gelb,red,r,0.0,r,1.0,0.7674637799973425,,,,,,,,,,4.0,10.0,58.0,8.0,334.60707813000045,,,,,,,,,,,,,,,,,334.59285394999824,335.8067842139972,336.6072378909994,336.591187400998,,,,,,,,,,,,,,,,,,,,,,,,,,,,,,,,,,,336.5938193949987,336.6072378909994,336.6072378909994,337.39102802399793,r,1.0,0.7674637799973425,,,,,,sub-019,1,stroop_test,59.97842276219814,
,,,,59.0,11.0,4.0,,,,,,,,,,,,,blau,blue,b,1.0,b,1.0,0.7950140920002013,,,,,,,,,,4.0,11.0,59.0,6.0,337.407286878999,,,,,,,,,,,,,,,,,337.3913553279999,337.7408682360001,338.5404475059986,338.5248623009975,,,,,,,,,,,,,,,,,,,,,,,,,,,,,,,,,,,338.5276177489977,338.5404475059986,338.5404475059986,339.34270817299694,b,1.0,0.7950140920002013,,,,,,sub-019,1,stroop_test,59.97842276219814,
,,,,60.0,0.0,5.0,,,,,,,,,,,,,rot,red,r,1.0,r,1.0,1.917786858000909,,,,,,,,,,5.0,0.0,60.0,1.0,339.3573753439996,,,,,,,,,,,,,,,,,339.34303930999886,340.15755275099946,340.95760202199745,340.941946592,,,,,,,,,,,,,,,,,,,,,,,,,,,,,,,,,,,340.9448595039976,340.95760202199745,340.95760202199745,342.891867716,r,1.0,1.917786858000909,,,,,,sub-019,1,stroop_test,59.97842276219814,
,,,,61.0,1.0,5.0,,,,,,,,,,,,,blau,blue,b,1.0,b,1.0,0.9182659479993164,,,,,,,,,,5.0,1.0,61.0,5.0,342.90756666499874,,,,,,,,,,,,,,,,,342.89233414099726,343.24110063899934,344.04066773999875,344.02505791399744,,,,,,,,,,,,,,,,,,,,,,,,,,,,,,,,,,,344.02936250399944,344.04066773999875,344.04066773999875,344.97566376899704,b,1.0,0.9182659479993164,,,,,,sub-019,1,stroop_test,59.97842276219814,
,,,,62.0,2.0,5.0,,,,,,,,,,,,,rot,yellow,g,0.0,g,1.0,0.8615181940003822,,,,,,,,,,5.0,2.0,62.0,3.0,344.9908881699994,,,,,,,,,,,,,,,,,344.9760591939994,345.79091290999713,346.5910241719976,346.57527707400004,,,,,,,,,,,,,,,,,,,,,,,,,,,,,,,,,,,346.5778150659972,346.5910241719976,346.5910241719976,347.45993739500045,g,1.0,0.8615181940003822,,,,,,sub-019,1,stroop_test,59.97842276219814,
,,,,63.0,3.0,5.0,,,,,,,,,,,,,gelb,red,r,0.0,r,1.0,1.4193047459993977,,,,,,,,,,5.0,3.0,63.0,8.0,347.47471730199686,,,,,,,,,,,,,,,,,347.46027801200034,347.5742717510002,348.3743823149998,348.358805519998,,,,,,,,,,,,,,,,,,,,,,,,,,,,,,,,,,,348.36148266399687,348.3743823149998,348.3743823149998,349.8103718629973,r,1.0,1.4193047459993977,,,,,,sub-019,1,stroop_test,59.97842276219814,
,,,,64.0,4.0,5.0,,,,,,,,,,,,,gelb,yellow,g,1.0,r,0.0,2.485532098999101,,,,,,,,,,5.0,4.0,64.0,10.0,349.82458554799814,,,,,,,,,,,,,,,,,349.81076861999827,350.1746584829998,350.974631285997,350.95876816300006,,,,,,,,,,,,,,,,,,,,,,,,,,,,,,,,,,,350.9593206119971,350.974631285997,350.974631285997,353.47695501899943,r,0.0,2.485532098999101,,,,,,sub-019,1,stroop_test,59.97842276219814,
,,,,65.0,5.0,5.0,,,,,,,,,,,,,blau,blue,b,1.0,b,1.0,0.6889904579984432,,,,,,,,,,5.0,5.0,65.0,6.0,353.49190188099965,,,,,,,,,,,,,,,,,353.47727912999835,354.291889199998,355.09143545599727,355.0757660529998,,,,,,,,,,,,,,,,,,,,,,,,,,,,,,,,,,,355.0783667529977,355.09143545599727,355.09143545599727,355.7939841189982,b,1.0,0.6889904579984432,,,,,,sub-019,1,stroop_test,59.97842276219814,
,,,,66.0,6.0,5.0,,,,,,,,,,,,,blau,yellow,g,0.0,g,1.0,1.3627569550008047,,,,,,,,,,5.0,6.0,66.0,7.0,355.8083386469989,,,,,,,,,,,,,,,,,355.7943919529971,356.6086176129975,357.4088686139985,357.39270026099985,,,,,,,,,,,,,,,,,,,,,,,,,,,,,,,,,,,357.3932358489983,357.4088686139985,357.4088686139985,358.77711303199976,g,1.0,1.3627569550008047,,,,,,sub-019,1,stroop_test,59.97842276219814,
,,,,67.0,7.0,5.0,,,,,,,,,,,,,rot,red,r,1.0,r,1.0,1.687241609000921,,,,,,,,,,5.0,7.0,67.0,0.0,358.7920175369982,,,,,,,,,,,,,,,,,358.7774397009998,359.14204416199937,359.9418921079996,359.92602344699844,,,,,,,,,,,,,,,,,,,,,,,,,,,,,,,,,,,359.9285423250003,359.9418921079996,359.9418921079996,361.6441473849991,r,1.0,1.687241609000921,,,,,,sub-019,1,stroop_test,59.97842276219814,
,,,,68.0,8.0,5.0,,,,,,,,,,,,,blau,red,r,0.0,r,1.0,1.5673383279972768,,,,,,,,,,5.0,8.0,68.0,4.0,361.65903191399775,,,,,,,,,,,,,,,,,361.6444836939991,362.85856298499857,363.6586779129975,363.6429898039969,,,,,,,,,,,,,,,,,,,,,,,,,,,,,,,,,,,363.645557429998,363.6586779129975,363.6586779129975,365.2293474179969,r,1.0,1.5673383279972768,,,,,,sub-019,1,stroop_test,59.97842276219814,
,,,,69.0,9.0,5.0,,,,,,,,,,,,,gelb,yellow,g,1.0,g,1.0,1.0815207599989662,,,,,,,,,,5.0,9.0,69.0,11.0,365.2423400669977,,,,,,,,,,,,,,,,,365.2296920189983,365.5926489539997,366.39278458699846,366.376833989998,,,,,,,,,,,,,,,,,,,,,,,,,,,,,,,,,,,366.3801787329976,366.39278458699846,366.39278458699846,367.47867030699854,g,1.0,1.0815207599989662,,,,,,sub-019,1,stroop_test,59.97842276219814,
,,,,70.0,10.0,5.0,,,,,,,,,,,,,rot,blue,b,0.0,b,1.0,1.318798467000306,,,,,,,,,,5.0,10.0,70.0,2.0,367.4925543819991,,,,,,,,,,,,,,,,,367.4791057000002,368.69207917099993,369.49241752599846,369.47589428799984,,,,,,,,,,,,,,,,,,,,,,,,,,,,,,,,,,,369.47868048399687,369.49241752599846,369.49241752599846,370.8277597870001,b,1.0,1.318798467000306,,,,,,sub-019,1,stroop_test,59.97842276219814,
,,,,71.0,11.0,5.0,,,,,,,,,,,,,gelb,blue,b,0.0,b,1.0,1.5120303429976047,,,,,,,,,,5.0,11.0,71.0,9.0,370.84246713299945,,,,,,,,,,,,,,,,,370.8282150470004,370.94233463099954,371.7423461699982,371.7263012059993,,,,,,,,,,,,,,,,,,,,,,,,,,,,,,,,,,,371.7289409379992,371.7423461699982,371.7423461699982,373.26218713199705,b,1.0,1.5120303429976047,,,,,,sub-019,1,stroop_test,59.97842276219814,
,,,,72.0,0.0,6.0,,,,,,,,,,,,,rot,blue,b,0.0,r,0.0,1.0382909500003734,,,,,,,,,,6.0,0.0,72.0,2.0,373.2763503959977,,,,,,,,,,,,,,,,,373.26252542399743,374.4766268610001,375.2764170759983,375.26038921899817,,,,,,,,,,,,,,,,,,,,,,,,,,,,,,,,,,,375.2628692629987,375.2764170759983,375.2764170759983,376.3284716999988,r,0.0,1.0382909500003734,,,,,,sub-019,1,stroop_test,59.97842276219814,
,,,,73.0,1.0,6.0,,,,,,,,,,,,,blau,red,r,0.0,r,1.0,1.3735469589992135,,,,,,,,,,6.0,1.0,73.0,4.0,376.3430122669997,,,,,,,,,,,,,,,,,376.3288155739974,376.693069828998,377.4933591259978,377.4777033009996,,,,,,,,,,,,,,,,,,,,,,,,,,,,,,,,,,,377.481083765997,377.4933591259978,377.4933591259978,378.8785296999995,r,1.0,1.3735469589992135,,,,,,sub-019,1,stroop_test,59.97842276219814,
,,,,74.0,2.0,6.0,,,,,,,,,,,,,rot,yellow,g,0.0,g,1.0,0.5880438610001875,,,,,,,,,,6.0,2.0,74.0,3.0,378.8934291689984,,,,,,,,,,,,,,,,,378.8788261720001,379.6937407209989,380.493554026998,380.4774667899983,,,,,,,,,,,,,,,,,,,,,,,,,,,,,,,,,,,380.4800093309968,380.493554026998,380.493554026998,381.0957336879983,g,1.0,0.5880438610001875,,,,,,sub-019,1,stroop_test,59.97842276219814,
,,,,75.0,3.0,6.0,,,,,,,,,,,,,blau,blue,b,1.0,b,1.0,0.8301873169984901,,,,,,,,,,6.0,3.0,75.0,6.0,381.1103167099973,,,,,,,,,,,,,,,,,381.0960761649985,382.3104463069976,383.11009181699774,383.09440399899904,,,,,,,,,,,,,,,,,,,,,,,,,,,,,,,,,,,383.0971947519975,383.11009181699774,383.11009181699774,383.9460020279985,b,1.0,0.8301873169984901,,,,,,sub-019,1,stroop_test,59.97842276219814,
,,,,76.0,4.0,6.0,,,,,,,,,,,,,rot,red,r,1.0,r,1.0,0.931946437998704,,,,,,,,,,6.0,4.0,76.0,1.0,383.9603743369989,,,,,,,,,,,,,,,,,383.9463306079997,384.31044527999984,385.11018633599815,385.0941866149988,,,,,,,,,,,,,,,,,,,,,,,,,,,,,,,,,,,385.0973737669992,385.11018633599815,385.11018633599815,386.0464716629977,r,1.0,0.931946437998704,,,,,,sub-019,1,stroop_test,59.97842276219814,
,,,,77.0,5.0,6.0,,,,,,,,,,,,,gelb,blue,b,0.0,b,1.0,1.3352636420022463,,,,,,,,,,6.0,5.0,77.0,9.0,386.0602188119992,,,,,,,,,,,,,,,,,386.0468083499982,386.8604704539976,387.6606155699992,387.6447608679992,,,,,,,,,,,,,,,,,,,,,,,,,,,,,,,,,,,387.64731109799686,387.6606155699992,387.6606155699992,389.01271942699896,b,1.0,1.3352636420022463,,,,,,sub-019,1,stroop_test,59.97842276219814,
,,,,78.0,6.0,6.0,,,,,,,,,,,,,blau,blue,b,1.0,b,1.0,0.7219542040002125,,,,,,,,,,6.0,6.0,78.0,5.0,389.0275327909985,,,,,,,,,,,,,,,,,389.01304108899785,389.8274586560001,390.6275529300001,390.6116661509986,,,,,,,,,,,,,,,,,,,,,,,,,,,,,,,,,,,390.6143367349978,390.6275529300001,390.6275529300001,391.3635068429976,b,1.0,0.7219542040002125,,,,,,sub-019,1,stroop_test,59.97842276219814,
,,,,79.0,7.0,6.0,,,,,,,,,,,,,blau,yellow,g,0.0,g,1.0,1.0681947209995997,,,,,,,,,,6.0,7.0,79.0,7.0,391.37752809299855,,,,,,,,,,,,,,,,,391.3638799509972,392.57783673799713,393.37772174899874,393.3619690710002,,,,,,,,,,,,,,,,,,,,,,,,,,,,,,,,,,,393.36250141100027,393.37772174899874,393.37772174899874,394.4487409309986,g,1.0,1.0681947209995997,,,,,,sub-019,1,stroop_test,59.97842276219814,
,,,,80.0,8.0,6.0,,,,,,,,,,,,,gelb,yellow,g,1.0,g,1.0,0.8557060559978709,,,,,,,,,,6.0,8.0,80.0,10.0,394.46084729,,,,,,,,,,,,,,,,,394.4491877269975,395.2614549789978,396.06106119099786,396.0455856109984,,,,,,,,,,,,,,,,,,,,,,,,,,,,,,,,,,,396.0484079249982,396.06106119099786,396.06106119099786,396.9302563309975,g,1.0,0.8557060559978709,,,,,,sub-019,1,stroop_test,59.97842276219814,
,,,,81.0,9.0,6.0,,,,,,,,,,,,,rot,red,r,1.0,r,1.0,1.0503403670008993,,,,,,,,,,6.0,9.0,81.0,0.0,396.94454758499705,,,,,,,,,,,,,,,,,396.930625705998,398.14477410499967,398.9446589539984,398.928912039999,,,,,,,,,,,,,,,,,,,,,,,,,,,,,,,,,,,398.9314166279983,398.9446589539984,398.9446589539984,399.9980909379992,r,1.0,1.0503403670008993,,,,,,sub-019,1,stroop_test,59.97842276219814,
,,,,82.0,10.0,6.0,,,,,,,,,,,,,gelb,yellow,g,1.0,g,1.0,0.8145107390009798,,,,,,,,,,6.0,10.0,82.0,11.0,400.01109620699935,,,,,,,,,,,,,,,,,399.9984268169974,400.3614229269988,401.161081299997,401.1455729839981,,,,,,,,,,,,,,,,,,,,,,,,,,,,,,,,,,,401.1481425059974,401.161081299997,401.161081299997,401.98077480199936,g,1.0,0.8145107390009798,,,,,,sub-019,1,stroop_test,59.97842276219814,
,,,,83.0,11.0,6.0,,,,,,,,,,,,,gelb,red,r,0.0,r,1.0,1.1448822380007186,,,,,,,,,,6.0,11.0,83.0,8.0,401.9947831149984,,,,,,,,,,,,,,,,,401.9811164099992,402.345090306997,403.1450570479974,403.12935433299936,,,,,,,,,,,,,,,,,,,,,,,,,,,,,,,,,,,403.1298902279996,403.1450570479974,403.1450570479974,404.297287423,r,1.0,1.1448822380007186,,,,,,sub-019,1,stroop_test,59.97842276219814,
,,,,84.0,0.0,7.0,,,,,,,,,,,,,rot,red,r,1.0,r,1.0,0.7877413850001176,,,,,,,,,,7.0,0.0,84.0,1.0,404.3114722699975,,,,,,,,,,,,,,,,,404.297617172997,404.6620736000005,405.4622216779972,405.4462661679973,,,,,,,,,,,,,,,,,,,,,,,,,,,,,,,,,,,405.449721121,405.4622216779972,405.4622216779972,406.2645020409982,r,1.0,0.7877413850001176,,,,,,sub-019,1,stroop_test,59.97842276219814,
,,,,85.0,1.0,7.0,,,,,,,,,,,,,gelb,red,r,0.0,r,1.0,1.1048781190002046,,,,,,,,,,7.0,1.0,85.0,8.0,406.2788971379996,,,,,,,,,,,,,,,,,406.2648354140001,407.4786882349981,408.2787695379993,408.262702363998,,,,,,,,,,,,,,,,,,,,,,,,,,,,,,,,,,,408.2652061409972,408.2787695379993,408.2787695379993,409.3977218879991,r,1.0,1.1048781190002046,,,,,,sub-019,1,stroop_test,59.97842276219814,
,,,,86.0,2.0,7.0,,,,,,,,,,,,,blau,yellow,g,0.0,g,1.0,1.0218895399993926,,,,,,,,,,7.0,2.0,86.0,7.0,409.4119941079989,,,,,,,,,,,,,,,,,409.3980462420004,409.5125888789989,410.3123500179972,410.29634142899886,,,,,,,,,,,,,,,,,,,,,,,,,,,,,,,,,,,410.2989371879994,410.3123500179972,410.3123500179972,411.3483257890002,g,1.0,1.0218895399993926,,,,,,sub-019,1,stroop_test,59.97842276219814,
,,,,87.0,3.0,7.0,,,,,,,,,,,,,blau,blue,b,1.0,b,1.0,0.8672623940001358,,,,,,,,,,7.0,3.0,87.0,5.0,411.3624068459976,,,,,,,,,,,,,,,,,411.3486493370001,412.1624525320003,412.9625002389985,412.94671899899913,,,,,,,,,,,,,,,,,,,,,,,,,,,,,,,,,,,412.947281888999,412.9625002389985,412.9625002389985,413.8324517259971,b,1.0,0.8672623940001358,,,,,,sub-019,1,stroop_test,59.97842276219814,
,,,,88.0,4.0,7.0,,,,,,,,,,,,,rot,red,r,1.0,r,1.0,1.2528746829993906,,,,,,,,,,7.0,4.0,88.0,0.0,413.8456109709987,,,,,,,,,,,,,,,,,413.8327760909997,415.04556270600006,415.845480699998,415.8298545289981,,,,,,,,,,,,,,,,,,,,,,,,,,,,,,,,,,,415.8325156639985,415.845480699998,415.845480699998,417.1148178219992,r,1.0,1.2528746829993906,,,,,,sub-019,1,stroop_test,59.97842276219814,
,,,,89.0,5.0,7.0,,,,,,,,,,,,,gelb,yellow,g,1.0,g,1.0,0.7321345720010868,,,,,,,,,,7.0,5.0,89.0,10.0,417.1292281089991,,,,,,,,,,,,,,,,,417.1152265149976,418.329254131997,419.1295313349983,419.11368926700015,,,,,,,,,,,,,,,,,,,,,,,,,,,,,,,,,,,419.1163982609978,419.1295313349983,419.1295313349983,419.8659933719973,g,1.0,0.7321345720010868,,,,,,sub-019,1,stroop_test,59.97842276219814,
,,,,90.0,6.0,7.0,,,,,,,,,,,,,gelb,yellow,g,1.0,g,1.0,1.1147703999995429,,,,,,,,,,7.0,6.0,90.0,11.0,419.8791855759992,,,,,,,,,,,,,,,,,419.8663402940001,420.2298205169973,421.0295086749975,421.0133962969994,,,,,,,,,,,,,,,,,,,,,,,,,,,,,,,,,,,421.0138521259978,421.0295086749975,421.0295086749975,422.1485477249989,g,1.0,1.1147703999995429,,,,,,sub-019,1,stroop_test,59.97842276219814,
,,,,91.0,7.0,7.0,,,,,,,,,,,,,rot,yellow,g,0.0,g,1.0,2.074431617998925,,,,,,,,,,7.0,7.0,91.0,3.0,422.1631111930001,,,,,,,,,,,,,,,,,422.148897903,422.963462640997,423.7629949989969,423.74697584599926,,,,,,,,,,,,,,,,,,,,,,,,,,,,,,,,,,,423.7507721449984,423.7629949989969,423.7629949989969,425.8517406609972,g,1.0,2.074431617998925,,,,,,sub-019,1,stroop_test,59.97842276219814,
,,,,92.0,8.0,7.0,,,,,,,,,,,,,gelb,blue,b,0.0,b,1.0,1.4545588369983309,,,,,,,,,,7.0,8.0,92.0,9.0,425.8637757619981,,,,,,,,,,,,,,,,,425.8522126049975,425.9633591219972,426.76362754799993,426.7475458259978,,,,,,,,,,,,,,,,,,,,,,,,,,,,,,,,,,,426.751000813998,426.76362754799993,426.76362754799993,428.2319480639999,b,1.0,1.4545588369983309,,,,,,sub-019,1,stroop_test,59.97842276219814,
,,,,93.0,9.0,7.0,,,,,,,,,,,,,blau,blue,b,1.0,b,1.0,0.7177667010000732,,,,,,,,,,7.0,9.0,93.0,6.0,428.24645049899846,,,,,,,,,,,,,,,,,428.2324475009991,429.4469467559975,430.24711519099947,430.23108017199775,,,,,,,,,,,,,,,,,,,,,,,,,,,,,,,,,,,430.2338587649974,430.24711519099947,430.24711519099947,430.9824322839995,b,1.0,0.7177667010000732,,,,,,sub-019,1,stroop_test,59.97842276219814,
,,,,94.0,10.0,7.0,,,,,,,,,,,,,rot,blue,b,0.0,b,1.0,0.9175090999997336,,,,,,,,,,7.0,10.0,94.0,2.0,430.9970634869969,,,,,,,,,,,,,,,,,430.98282815199855,431.3471047639978,432.147078785998,432.1311955559977,,,,,,,,,,,,,,,,,,,,,,,,,,,,,,,,,,,432.1338796029995,432.147078785998,432.147078785998,433.067674826998,b,1.0,0.9175090999997336,,,,,,sub-019,1,stroop_test,59.97842276219814,
,,,,95.0,11.0,7.0,,,,,,,,,,,,,blau,red,r,0.0,r,1.0,1.7814514050005528,,,,,,,,,,7.0,11.0,95.0,4.0,433.0805837609987,,,,,,,,,,,,,,,,,433.0682049629977,433.430393134,434.2306861500001,434.2149088199985,,,,,,,,,,,,,,,,,,,,,,,,,,,,,,,,,,,434.2178687060005,434.2306861500001,434.2306861500001,436.0161207329984,r,1.0,1.7814514050005528,,,,,,sub-019,1,stroop_test,59.97842276219814,
,,,,96.0,0.0,8.0,,,,,,,,,,,,,blau,red,r,0.0,r,1.0,1.9564173360013228,,,,,,,,,,8.0,0.0,96.0,4.0,436.03073382399816,,,,,,,,,,,,,,,,,436.0166689260004,436.1308268499997,436.93053074699856,436.9146203809978,,,,,,,,,,,,,,,,,,,,,,,,,,,,,,,,,,,436.91509084599966,436.93053074699856,436.93053074699856,438.8992484959999,r,1.0,1.9564173360013228,,,,,,sub-019,1,stroop_test,59.97842276219814,
,,,,97.0,1.0,8.0,,,,,,,,,,,,,blau,blue,b,1.0,b,1.0,0.7721344490018964,,,,,,,,,,8.0,1.0,97.0,5.0,438.91423786499945,,,,,,,,,,,,,,,,,438.89958262099753,439.7146473419998,440.5142226609969,440.49848240199935,,,,,,,,,,,,,,,,,,,,,,,,,,,,,,,,,,,440.4989798399984,440.5142226609969,440.5142226609969,441.2990296789976,b,1.0,0.7721344490018964,,,,,,sub-019,1,stroop_test,59.97842276219814,
,,,,98.0,2.0,8.0,,,,,,,,,,,,,blau,blue,b,1.0,b,1.0,0.533831459000794,,,,,,,,,,8.0,2.0,98.0,6.0,441.3148557200002,,,,,,,,,,,,,,,,,441.2993584629985,442.5143249699977,443.314632415997,443.29865225499816,,,,,,,,,,,,,,,,,,,,,,,,,,,,,,,,,,,443.2992087499988,443.314632415997,443.314632415997,443.8508202109988,b,1.0,0.533831459000794,,,,,,sub-019,1,stroop_test,59.97842276219814,
,,,,99.0,3.0,8.0,,,,,,,,,,,,,gelb,red,r,0.0,r,1.0,1.218043264998414,,,,,,,,,,8.0,3.0,99.0,8.0,443.8644208629994,,,,,,,,,,,,,,,,,443.8513251369986,444.6646134559997,445.4643099239984,445.4486930879975,,,,,,,,,,,,,,,,,,,,,,,,,,,,,,,,,,,445.45124928899895,445.4643099239984,445.4643099239984,446.69900349999807,r,1.0,1.218043264998414,,,,,,sub-019,1,stroop_test,59.97842276219814,
,,,,100.0,4.0,8.0,,,,,,,,,,,,,rot,red,r,1.0,r,1.0,0.721260890000849,,,,,,,,,,8.0,4.0,100.0,1.0,446.7149030639994,,,,,,,,,,,,,,,,,446.699339879,447.0482184489993,447.8483052429983,447.832192586,,,,,,,,,,,,,,,,,,,,,,,,,,,,,,,,,,,447.8348006039996,447.8483052429983,447.8483052429983,448.5835898459991,r,1.0,0.721260890000849,,,,,,sub-019,1,stroop_test,59.97842276219814,
,,,,101.0,5.0,8.0,,,,,,,,,,,,,blau,yellow,g,0.0,g,1.0,0.6581446999989566,,,,,,,,,,8.0,5.0,101.0,7.0,448.5981306569993,,,,,,,,,,,,,,,,,448.5841106539992,449.7983982919977,450.5985491159991,450.58231218400033,,,,,,,,,,,,,,,,,,,,,,,,,,,,,,,,,,,450.5854750439976,450.5985491159991,450.5985491159991,451.2661046180001,g,1.0,0.6581446999989566,,,,,,sub-019,1,stroop_test,59.97842276219814,
,,,,102.0,6.0,8.0,,,,,,,,,,,,,rot,yellow,g,0.0,r,0.0,1.2380534039984925,,,,,,,,,,8.0,6.0,102.0,3.0,451.2817654409992,,,,,,,,,,,,,,,,,451.26642061099847,452.08197693499824,452.88177985199945,452.865760965,,,,,,,,,,,,,,,,,,,,,,,,,,,,,,,,,,,452.8684328649979,452.88177985199945,452.88177985199945,454.1336923689996,r,0.0,1.2380534039984925,,,,,,sub-019,1,stroop_test,59.97842276219814,
,,,,103.0,7.0,8.0,,,,,,,,,,,,,gelb,yellow,g,1.0,g,1.0,0.8801788569981,,,,,,,,,,8.0,7.0,103.0,10.0,454.1482517739969,,,,,,,,,,,,,,,,,454.1340868059997,455.3483210939994,456.14844622300006,456.1324907629969,,,,,,,,,,,,,,,,,,,,,,,,,,,,,,,,,,,456.1350360069992,456.14844622300006,456.14844622300006,457.0341008139985,g,1.0,0.8801788569981,,,,,,sub-019,1,stroop_test,59.97842276219814,
,,,,104.0,8.0,8.0,,,,,,,,,,,,,gelb,blue,b,0.0,b,1.0,1.2521325099987737,,,,,,,,,,8.0,8.0,104.0,9.0,457.0487393330004,,,,,,,,,,,,,,,,,457.034450616,457.3987680379978,458.1987141219979,458.1826125329972,,,,,,,,,,,,,,,,,,,,,,,,,,,,,,,,,,,458.1830409739996,458.1987141219979,458.1987141219979,459.4676393609989,b,1.0,1.2521325099987737,,,,,,sub-019,1,stroop_test,59.97842276219814,
,,,,105.0,9.0,8.0,,,,,,,,,,,,,rot,red,r,1.0,r,1.0,1.5177855549991364,,,,,,,,,,8.0,9.0,105.0,0.0,459.4823775029981,,,,,,,,,,,,,,,,,459.4680384109997,460.6823842949998,461.4824354089978,461.4669070879973,,,,,,,,,,,,,,,,,,,,,,,,,,,,,,,,,,,461.4698041279989,461.4824354089978,461.4824354089978,463.0165523769974,r,1.0,1.5177855549991364,,,,,,sub-019,1,stroop_test,59.97842276219814,
,,,,106.0,10.0,8.0,,,,,,,,,,,,,rot,blue,b,0.0,b,1.0,1.1609905520017492,,,,,,,,,,8.0,10.0,106.0,2.0,463.0326732729991,,,,,,,,,,,,,,,,,463.0168806989968,464.2157982139979,465.0160767329981,465.0001875329981,,,,,,,,,,,,,,,,,,,,,,,,,,,,,,,,,,,465.0007398639973,465.0160767329981,465.0160767329981,466.1853451399984,b,1.0,1.1609905520017492,,,,,,sub-019,1,stroop_test,59.97842276219814,
,,,,107.0,11.0,8.0,,,,,,,,,,,,,gelb,yellow,g,1.0,g,1.0,1.718997240997851,,,,,,,,,,8.0,11.0,107.0,11.0,466.1995243799975,,,,,,,,,,,,,,,,,466.1856977659991,467.39992481199806,468.1992613029979,468.18374029999904,,,,,,,,,,,,,,,,,,,,,,,,,,,,,,,,,,,468.1862544869982,468.1992613029979,468.1992613029979,469.93519016199934,g,1.0,1.718997240997851,,,,,,sub-019,1,stroop_test,59.97842276219814,
,,,,108.0,0.0,9.0,,,,,,,,,,,,,rot,yellow,g,0.0,g,1.0,0.958308600998862,,,,,,,,,,9.0,0.0,108.0,3.0,469.9498077919998,,,,,,,,,,,,,,,,,469.9355878989991,470.2996529739976,471.0995799589982,471.08380722199945,,,,,,,,,,,,,,,,,,,,,,,,,,,,,,,,,,,471.0863361209995,471.0995799589982,471.0995799589982,472.0682439039993,g,1.0,0.958308600998862,,,,,,sub-019,1,stroop_test,59.97842276219814,
,,,,109.0,1.0,9.0,,,,,,,,,,,,,rot,blue,b,0.0,b,1.0,1.7444378569998662,,,,,,,,,,9.0,1.0,109.0,2.0,472.083003017,,,,,,,,,,,,,,,,,472.0687425789984,472.4333730369981,473.2331785770002,473.217415242998,,,,,,,,,,,,,,,,,,,,,,,,,,,,,,,,,,,473.2178726749989,473.2331785770002,473.2331785770002,474.9849047009993,b,1.0,1.7444378569998662,,,,,,sub-019,1,stroop_test,59.97842276219814,
,,,,110.0,2.0,9.0,,,,,,,,,,,,,rot,red,r,1.0,r,1.0,1.0808770680014277,,,,,,,,,,9.0,2.0,110.0,0.0,475.0000964169994,,,,,,,,,,,,,,,,,474.9852262530003,475.8000595599988,476.6001130629993,476.5843378030004,,,,,,,,,,,,,,,,,,,,,,,,,,,,,,,,,,,476.5849274779976,476.6001130629993,476.6001130629993,477.6859971979975,r,1.0,1.0808770680014277,,,,,,sub-019,1,stroop_test,59.97842276219814,
,,,,111.0,3.0,9.0,,,,,,,,,,,,,blau,yellow,g,0.0,g,1.0,0.9487751950000528,,,,,,,,,,9.0,3.0,111.0,7.0,477.6999069829981,,,,,,,,,,,,,,,,,477.6863228449984,478.0502711829977,478.8503411879974,478.834035394997,,,,,,,,,,,,,,,,,,,,,,,,,,,,,,,,,,,478.83717883699865,478.8503411879974,478.8503411879974,479.8030876529992,g,1.0,0.9487751950000528,,,,,,sub-019,1,stroop_test,59.97842276219814,
,,,,112.0,4.0,9.0,,,,,,,,,,,,,gelb,yellow,g,1.0,g,1.0,0.5502682629994524,,,,,,,,,,9.0,4.0,112.0,11.0,479.8167782849996,,,,,,,,,,,,,,,,,479.80342172699966,479.91750096099713,480.7170009379988,480.7014045889992,,,,,,,,,,,,,,,,,,,,,,,,,,,,,,,,,,,480.70428380599697,480.7170009379988,480.7170009379988,481.2700808569971,g,1.0,0.5502682629994524,,,,,,sub-019,1,stroop_test,59.97842276219814,
,,,,113.0,5.0,9.0,,,,,,,,,,,,,gelb,blue,b,0.0,b,1.0,0.5521567630021309,,,,,,,,,,9.0,5.0,113.0,9.0,481.2840523279992,,,,,,,,,,,,,,,,,481.270466916998,482.083871371,482.8843814929969,482.8682313879981,,,,,,,,,,,,,,,,,,,,,,,,,,,,,,,,,,,482.8687490989978,482.8843814929969,482.8843814929969,483.4409408760002,b,1.0,0.5521567630021309,,,,,,sub-019,1,stroop_test,59.97842276219814,
,,,,114.0,6.0,9.0,,,,,,,,,,,,,blau,blue,b,1.0,b,1.0,0.5714384290004091,,,,,,,,,,9.0,6.0,114.0,6.0,483.4513381359975,,,,,,,,,,,,,,,,,483.4414975330001,483.800734561999,484.6007171519996,484.58489364699926,,,,,,,,,,,,,,,,,,,,,,,,,,,,,,,,,,,484.5876371209997,484.6007171519996,484.6007171519996,485.1857602780001,b,1.0,0.5714384290004091,,,,,,sub-019,1,stroop_test,59.97842276219814,
,,,,115.0,7.0,9.0,,,,,,,,,,,,,blau,red,r,0.0,r,1.0,0.6346721789996081,,,,,,,,,,9.0,7.0,115.0,4.0,485.2008049569995,,,,,,,,,,,,,,,,,485.18624240299687,486.40091479699913,487.2007149279998,487.18488795699886,,,,,,,,,,,,,,,,,,,,,,,,,,,,,,,,,,,487.1854286669986,487.2007149279998,487.2007149279998,487.8514811249988,r,1.0,0.6346721789996081,,,,,,sub-019,1,stroop_test,59.97842276219814,
,,,,116.0,8.0,9.0,,,,,,,,,,,,,gelb,red,r,0.0,r,1.0,0.5808747890005179,,,,,,,,,,9.0,8.0,116.0,8.0,487.8675934089988,,,,,,,,,,,,,,,,,487.8518028049984,488.6510202169993,489.4509576549972,489.4349532979977,,,,,,,,,,,,,,,,,,,,,,,,,,,,,,,,,,,489.4374999549982,489.4509576549972,489.4509576549972,490.03627808300007,r,1.0,0.5808747890005179,,,,,,sub-019,1,stroop_test,59.97842276219814,
,,,,117.0,9.0,9.0,,,,,,,,,,,,,blau,blue,b,1.0,b,1.0,0.5365495639998699,,,,,,,,,,9.0,9.0,117.0,5.0,490.0508861669987,,,,,,,,,,,,,,,,,490.036787740999,490.1511312820003,490.95102784499977,490.9353488279994,,,,,,,,,,,,,,,,,,,,,,,,,,,,,,,,,,,490.9380819219987,490.95102784499977,490.95102784499977,491.5025195599992,b,1.0,0.5365495639998699,,,,,,sub-019,1,stroop_test,59.97842276219814,
,,,,118.0,10.0,9.0,,,,,,,,,,,,,rot,red,r,1.0,r,1.0,0.5382988379969902,,,,,,,,,,9.0,10.0,118.0,1.0,491.5177541229969,,,,,,,,,,,,,,,,,491.502844380997,491.6180160719996,492.41802655799984,492.4022130579978,,,,,,,,,,,,,,,,,,,,,,,,,,,,,,,,,,,492.4049476179971,492.41802655799984,492.41802655799984,492.96934684299777,r,1.0,0.5382988379969902,,,,,,sub-019,1,stroop_test,59.97842276219814,
,,,,119.0,11.0,9.0,,,,,,,,,,,,,gelb,yellow,g,1.0,g,1.0,0.6378148449985019,,,,,,,,,,9.0,11.0,119.0,10.0,492.9845184219994,,,,,,,,,,,,,,,,,492.9696791219976,494.18467794000026,494.9848694979992,494.9688981500003,,,,,,,,,,,,,,,,,,,,,,,,,,,,,,,,,,,494.9723163009985,494.9848694979992,494.9848694979992,495.6360180999982,g,1.0,0.6378148449985019,,,,,,sub-019,1,stroop_test,59.97842276219814,
,,,,,,,,,,,,,,,,,,,,,,,,,,,,,,,,,,,,,,,,,,,,,,,,,,,,,,,,,,,,,,,,,,,,,,,,,,,,,,,,,,,,,,,,,,,,,,,,,,,,,,495.6361823159969,495.6512403279994,500.6521079359991,500.6358744789977,sub-019,1,stroop_test,59.97842276219814,
