wordCTK,colorCTK,corrAnsCTK,congruentCTK,thisN,thisTrialN,thisRepN,keyResp_CTK.keys,keyResp_CTK.corr,keyResp_CTK.rt,keyResp_CTK.duration,wordPractice,colorPractice,corrAnsPractice,congruentPractice,respPractice.keys,respPractice.corr,respPractice.rt,respPractice.duration,word,color,corrAns,congruent,keyResp_test_run.keys,keyResp_test_run.corr,keyResp_test_run.rt,keyResp_test_run.duration,trials_CTK.thisRepN,trials_CTK.thisTrialN,trials_CTK.thisN,trials_CTK.thisIndex,trials_practice.thisRepN,trials_practice.thisTrialN,trials_practice.thisN,trials_practice.thisIndex,trials_test.thisRepN,trials_test.thisTrialN,trials_test.thisN,trials_test.thisIndex,thisRow.t,notes,instruction.started,instr_text.started,instr_image.started,instr_resp.started,instruction.stopped,instr_resp.keys,instr_resp.rt,instr_resp.duration,instr_color_to_key.started,instr_ctk.started,resp_ctk.started,instr_color_to_key.stopped,resp_ctk.keys,resp_ctk.rt,resp_ctk.duration,ITI.started,fixcross.started,fixcross.stopped,ITI.stopped,color_to_key_run.started,stimulus_CTK.started,keyResp_CTK.started,color_to_key_run.stopped,trials_CTK.keyResp_CTK.keys,trials_CTK.keyResp_CTK.corr,trials_CTK.keyResp_CTK.rt,trials_CTK.keyResp_CTK.duration,instr_practice.started,instr_practice_text.started,instr_practice_resp.started,instr_practice.stopped,instr_practice_resp.keys,instr_practice_resp.rt,instr_practice_resp.duration,practice_run.started,stimulus_practice.started,respPractice.started,practice_run.stopped,trials_practice.respPractice.keys,trials_practice.respPractice.corr,trials_practice.respPractice.rt,trials_practice.respPractice.duration,feedback.started,textFeedback.started,feedback.stopped,textFeedback.stopped,instr_test.started,instr_test_text.started,instr_test_resp.started,instr_test.stopped,instr_test_resp.keys,instr_test_resp.rt,instr_test_resp.duration,test_run.started,stimulus_test_run.started,keyResp_test_run.started,test_run.stopped,trials_test.keyResp_test_run.keys,trials_test.keyResp_test_run.corr,trials_test.keyResp_test_run.rt,trials_test.keyResp_test_run.duration,goodbye.started,textGoodbye.started,textGoodbye.stopped,goodbye.stopped,participant,session,expName,frameRate,Unnamed: 113
,,,,,,,,,,,,,,,,,,,,,,,,,,,,,,,,,,,,,,,,,0.0072998749965336,0.0148049169947626,0.0148049169947626,0.0148049169947626,47.18248824999319,space,47.032441332994495,,,,,,,,,,,,,,,,,,,,,,,,,,,,,,,,,,,,,,,,,,,,,,,,,,,,,,,,,,,sub-080,1,stroop_test,120.58065566266212,
,,,,,,,,,,,,,,,,,,,,,,,,,,,,,,,,,,,,,,,,,,,,,,,,,47.18253049999476,47.205275458996766,47.205275458996766,51.06905637499585,space,3.8600355420057895,,,,,,,,,,,,,,,,,,,,,,,,,,,,,,,,,,,,,,,,,,,,,,,,,,,,sub-080,1,stroop_test,120.58065566266212,
test,red,r,1.0,0.0,0.0,0.0,r,1.0,2.538887083006557,,,,,,,,,,,,,,,,,,0.0,0.0,0.0,0.0,,,,,,,,,51.10853604199656,,,,,,,,,,,,,,,,,51.08983174999594,51.42887091700686,52.22851479200472,52.21217712499492,52.22130062499491,52.22851479200472,52.22851479200472,54.77995087500312,r,1.0,2.538887083006557,,,,,,,,,,,,,,,,,,,,,,,,,,,,,,,,,,,,,,,,sub-080,1,stroop_test,120.58065566266212,
test,yellow,g,1.0,1.0,1.0,0.0,g,1.0,1.230111748998752,,,,,,,,,,,,,,,,,,0.0,1.0,1.0,1.0,,,,,,,,,54.78967145900242,,,,,,,,,,,,,,,,,54.78052391699748,55.57825129199773,56.3703149590001,56.362175874994136,56.36296187499829,56.3703149590001,56.3703149590001,57.61191824999696,g,1.0,1.230111748998752,,,,,,,,,,,,,,,,,,,,,,,,,,,,,,,,,,,,,,,,sub-080,1,stroop_test,120.58065566266212,
test,blue,b,1.0,2.0,2.0,0.0,b,1.0,0.3861178329971153,,,,,,,,,,,,,,,,,,0.0,2.0,2.0,2.0,,,,,,,,,57.62127795899869,,,,,,,,,,,,,,,,,57.61243129200011,57.70298654200451,58.504335167002864,58.49562766699819,58.49641579200397,58.504335167002864,58.504335167002864,58.89699687500252,b,1.0,0.3861178329971153,,,,,,,,,,,,,,,,,,,,,,,,,,,,,,,,,,,,,,,,sub-080,1,stroop_test,120.58065566266212,
test,blue,b,1.0,3.0,0.0,1.0,b,1.0,0.570067166001536,,,,,,,,,,,,,,,,,,1.0,0.0,3.0,2.0,,,,,,,,,58.907763541996246,,,,,,,,,,,,,,,,,58.89768558400101,60.09508549999737,60.886369083993486,60.87861287500709,60.87940941700072,60.886369083993486,60.886369083993486,61.46355825000501,b,1.0,0.570067166001536,,,,,,,,,,,,,,,,,,,,,,,,,,,,,,,,,,,,,,,,sub-080,1,stroop_test,120.58065566266212,
test,red,r,1.0,4.0,1.0,1.0,r,1.0,0.4776287080021575,,,,,,,,,,,,,,,,,,1.0,1.0,4.0,0.0,,,,,,,,,61.47372237499803,,,,,,,,,,,,,,,,,61.46419924999645,61.56179537500429,62.35383575000742,62.34564645899809,62.346447000003536,62.35383575000742,62.35383575000742,62.83621066699561,r,1.0,0.4776287080021575,,,,,,,,,,,,,,,,,,,,,,,,,,,,,,,,,,,,,,,,sub-080,1,stroop_test,120.58065566266212,
test,yellow,g,1.0,5.0,2.0,1.0,g,1.0,0.7819453749980312,,,,,,,,,,,,,,,,,,1.0,2.0,5.0,1.0,,,,,,,,,62.84550762499566,,,,,,,,,,,,,,,,,62.836784833998536,63.63646358400001,64.4375272920006,64.42914254199422,64.4299799589935,64.4375272920006,64.4375272920006,65.23018866700295,g,1.0,0.7819453749980312,,,,,,,,,,,,,,,,,,,,,,,,,,,,,,,,,,,,,,,,sub-080,1,stroop_test,120.58065566266212,
test,yellow,g,1.0,6.0,0.0,2.0,g,1.0,0.6927670409932034,,,,,,,,,,,,,,,,,,2.0,0.0,6.0,1.0,,,,,,,,,65.24046629200166,,,,,,,,,,,,,,,,,65.23078612500103,65.57855424999434,66.37163020900334,66.36240512499353,66.36333870899398,66.37163020900334,66.37163020900334,67.0696179170045,g,1.0,0.6927670409932034,,,,,,,,,,,,,,,,,,,,,,,,,,,,,,,,,,,,,,,,sub-080,1,stroop_test,120.58065566266212,
test,red,r,1.0,7.0,1.0,2.0,r,1.0,0.4006582079891814,,,,,,,,,,,,,,,,,,2.0,1.0,7.0,0.0,,,,,,,,,67.07915179200063,,,,,,,,,,,,,,,,,67.07016204200045,68.27014799999597,69.07085062499391,69.06261525000446,69.0633820840012,69.07085062499391,69.07085062499391,69.48084612500679,r,1.0,0.4006582079891814,,,,,,,,,,,,,,,,,,,,,,,,,,,,,,,,,,,,,,,,sub-080,1,stroop_test,120.58065566266212,
test,blue,b,1.0,8.0,2.0,2.0,b,1.0,0.3060642499913228,,,,,,,,,,,,,,,,,,2.0,2.0,8.0,2.0,,,,,,,,,69.4905032920069,,,,,,,,,,,,,,,,,69.48142016699421,69.82876716699684,70.62150125000335,70.61277837499802,70.61374041700037,70.62150125000335,70.62150125000335,70.9303787920071,b,1.0,0.3060642499913228,,,,,,,,,,,,,,,,,,,,,,,,,,,,,,,,,,,,,,,,sub-080,1,stroop_test,120.58065566266212,
test,red,r,1.0,9.0,0.0,3.0,r,1.0,0.4915180410025641,,,,,,,,,,,,,,,,,,3.0,0.0,9.0,0.0,,,,,,,,,70.94103312499647,,,,,,,,,,,,,,,,,70.93095525000535,72.12860341700434,72.9210036250006,72.91266825000639,72.91347162499733,72.9210036250006,72.9210036250006,73.41973925000639,r,1.0,0.4915180410025641,,,,,,,,,,,,,,,,,,,,,,,,,,,,,,,,,,,,,,,,sub-080,1,stroop_test,120.58065566266212,
test,yellow,g,1.0,10.0,1.0,3.0,g,1.0,0.5293852079921635,,,,,,,,,,,,,,,,,,3.0,1.0,10.0,1.0,,,,,,,,,73.42832483400707,,,,,,,,,,,,,,,,,73.42021237500012,74.21918029199878,75.01223300000129,75.00225849999697,75.00320112500049,75.01223300000129,75.01223300000129,75.54709370899945,g,1.0,0.5293852079921635,,,,,,,,,,,,,,,,,,,,,,,,,,,,,,,,,,,,,,,,sub-080,1,stroop_test,120.58065566266212,
test,blue,b,1.0,11.0,2.0,3.0,b,1.0,1.0302472910116194,,,,,,,,,,,,,,,,,,3.0,2.0,11.0,2.0,,,,,,,,,75.55664554200484,,,,,,,,,,,,,,,,,75.54765991700697,75.6367315420066,76.4383595840045,76.42948887500097,76.43043745899922,76.4383595840045,76.4383595840045,77.4704337919975,b,1.0,1.0302472910116194,,,,,,,,,,,,,,,,,,,,,,,,,,,,,,,,,,,,,,,,sub-080,1,stroop_test,120.58065566266212,
,,,,,,,,,,,,,,,,,,,,,,,,,,,,,,,,,,,,,,,,,,,,,,,,,,,,,,,,,,,,,,,,,,,,77.47069129199372,77.48138174999622,77.48138174999622,81.58060641700285,space,4.094563249003841,,,,,,,,,,,,,,,,,,,,,,,,,,,,,,,,,sub-080,1,stroop_test,120.58065566266212,
,,,,0.0,0.0,0.0,,,,,blau,red,r,0.0,r,1.0,4.922418457994354,,,,,,,,,,,,,,0.0,0.0,0.0,4.0,,,,,81.60368679200474,,,,,,,,,,,,,,,,,81.59565187500266,82.37914225000713,83.17806366700097,83.16293229200528,,,,,,,,,,,,,,,,83.170789374999,83.17806366700097,83.17806366700097,88.10356550000142,r,1.0,4.922418457994354,,88.11165533399617,88.12177108399919,89.113003749997,,,,,,,,,,,,,,,,,,,,,sub-080,1,stroop_test,120.58065566266212,
,,,,1.0,1.0,0.0,,,,,rot,red,r,1.0,r,1.0,1.510990499009495,,,,,,,,,,,,,,0.0,1.0,1.0,1.0,,,,,89.11905891700007,,,,,,,,,,,,,,,,,89.11363358399831,90.30392704199768,91.11128554200695,91.09666704200208,,,,,,,,,,,,,,,,91.10369658400305,91.11128554200695,91.11128554200695,92.63131312500629,r,1.0,1.510990499009495,,92.63212666699836,92.6435921670054,93.62988941700314,93.63576104199456,,,,,,,,,,,,,,,,,,,,sub-080,1,stroop_test,120.58065566266212,
,,,,2.0,2.0,0.0,,,,,blau,blue,b,1.0,b,1.0,1.0181640420050826,,,,,,,,,,,,,,0.0,2.0,2.0,6.0,,,,,93.63576104199456,,,,,,,,,,,,,,,,,93.63045270899602,93.98004295899592,94.77528054200228,94.763411042004,,,,,,,,,,,,,,,,94.76782024999557,94.77528054200228,94.77528054200228,95.79819104200578,b,1.0,1.0181640420050826,,95.79916104199948,95.81083945899444,96.79687666699463,96.80275070900096,,,,,,,,,,,,,,,,,,,,sub-080,1,stroop_test,120.58065566266212,
,,,,3.0,3.0,0.0,,,,,gelb,blue,b,0.0,b,1.0,1.082872333005071,,,,,,,,,,,,,,0.0,3.0,3.0,9.0,,,,,96.80275070900096,,,,,,,,,,,,,,,,,96.7974416250072,96.89632329200684,97.69251245900524,97.68019408399414,,,,,,,,,,,,,,,,97.6852350840054,97.69251245900524,97.69251245900524,98.78160941699753,b,1.0,1.082872333005071,,98.78246604200103,98.79185845899336,99.78018800000427,99.78627545900235,,,,,,,,,,,,,,,,,,,,sub-080,1,stroop_test,120.58065566266212,
,,,,4.0,4.0,0.0,,,,,rot,yellow,g,0.0,g,1.0,0.8040257909888169,,,,,,,,,,,,,,0.0,4.0,4.0,3.0,,,,,99.78627545900235,,,,,,,,,,,,,,,,,99.78079925000202,100.12963399999715,100.9253962090006,100.91343937499914,,,,,,,,,,,,,,,,100.91836058399348,100.9253962090006,100.9253962090006,101.73157129199537,g,1.0,0.8040257909888169,,101.73239320900755,101.743295459004,102.73040045899688,102.73600087499652,,,,,,,,,,,,,,,,,,,,sub-080,1,stroop_test,120.58065566266212,
,,,,5.0,5.0,0.0,,,,,gelb,yellow,g,1.0,g,1.0,1.48855475000164,,,,,,,,,,,,,,0.0,5.0,5.0,11.0,,,,,102.73600087499652,,,,,,,,,,,,,,,,,102.73099091699989,102.82979550000164,103.62678954200236,103.61363016700489,,,,,,,,,,,,,,,,103.61967070899846,103.62678954200236,103.62678954200236,105.12149433400192,g,1.0,1.48855475000164,,105.1221796250029,105.13218808399688,106.11939704199904,106.13008283400268,,,,,,,,,,,,,,,,,,,,sub-080,1,stroop_test,120.58065566266212,
,,,,6.0,6.0,0.0,,,,,blau,blue,b,1.0,b,1.0,0.5689759170054458,,,,,,,,,,,,,,0.0,6.0,6.0,5.0,,,,,106.13008283400268,,,,,,,,,,,,,,,,,106.12000504200114,107.32139429199742,108.1265240000066,108.11395533400356,,,,,,,,,,,,,,,,108.11896979200536,108.1265240000066,108.1265240000066,108.69815275000292,b,1.0,0.5689759170054458,,108.69896545899974,108.70976070899631,109.69716770900412,109.70312208399992,,,,,,,,,,,,,,,,,,,,sub-080,1,stroop_test,120.58065566266212,
,,,,7.0,7.0,0.0,,,,,gelb,red,r,0.0,r,1.0,0.562875207993784,,,,,,,,,,,,,,0.0,7.0,7.0,8.0,,,,,109.70312208399992,,,,,,,,,,,,,,,,,109.69776158400056,110.49680504199932,111.2925640839967,111.28065058399808,,,,,,,,,,,,,,,,111.28492929200002,111.2925640839967,111.2925640839967,111.8652471670066,r,1.0,0.562875207993784,,111.86607925000136,111.87675924999348,112.86391662500682,112.86998412500544,,,,,,,,,,,,,,,,,,,,sub-080,1,stroop_test,120.58065566266212,
,,,,8.0,8.0,0.0,,,,,rot,blue,b,0.0,b,1.0,0.6674421670031734,,,,,,,,,,,,,,0.0,8.0,8.0,2.0,,,,,112.86998412500544,,,,,,,,,,,,,,,,,112.86449979200552,113.21339466700738,114.00913954200225,113.99726029200248,,,,,,,,,,,,,,,,114.00162408400502,114.00913954200225,114.00913954200225,114.68176383399988,b,1.0,0.6674421670031734,,114.6826193339948,114.69353266700637,115.68057016699458,115.68649495899444,,,,,,,,,,,,,,,,,,,,sub-080,1,stroop_test,120.58065566266212,
,,,,9.0,9.0,0.0,,,,,blau,yellow,g,0.0,g,1.0,0.9378746669972317,,,,,,,,,,,,,,0.0,9.0,9.0,7.0,,,,,115.68649495899444,,,,,,,,,,,,,,,,,115.68113020900635,116.88024233399484,117.67661291699916,117.66387420899991,,,,,,,,,,,,,,,,117.66897120900104,117.67661291699916,117.67661291699916,118.6211849590036,g,1.0,0.9378746669972317,,118.62195812500433,118.632660999996,119.62056741700508,119.63028529200528,,,,,,,,,,,,,,,,,,,,sub-080,1,stroop_test,120.58065566266212,
,,,,10.0,10.0,0.0,,,,,rot,red,r,1.0,r,1.0,0.601290374994278,,,,,,,,,,,,,,0.0,10.0,10.0,0.0,,,,,119.63028529200528,,,,,,,,,,,,,,,,,119.62117524999483,120.82037579199825,121.61628820899932,121.60400529199978,,,,,,,,,,,,,,,,121.6083194590028,121.61628820899932,121.61628820899932,122.22124929199344,r,1.0,0.601290374994278,,122.22192441699735,122.23237895900093,123.22057791700354,123.23039974999848,,,,,,,,,,,,,,,,,,,,sub-080,1,stroop_test,120.58065566266212,
,,,,11.0,11.0,0.0,,,,,gelb,yellow,g,1.0,g,1.0,0.5624939580011414,,,,,,,,,,,,,,0.0,11.0,11.0,10.0,,,,,123.23039974999848,,,,,,,,,,,,,,,,,123.2211574170069,123.32144787500148,124.12801499999478,124.1144773749984,,,,,,,,,,,,,,,,124.12058666700614,124.12801499999478,124.12801499999478,124.69899062499462,g,1.0,0.5624939580011414,,124.69979316700484,124.71104158399976,125.69771199999376,125.70391195900449,,,,,,,,,,,,,,,,,,,,sub-080,1,stroop_test,120.58065566266212,
,,,,12.0,0.0,1.0,,,,,blau,yellow,g,0.0,g,1.0,0.4950209990056464,,,,,,,,,,,,,,1.0,0.0,12.0,7.0,,,,,125.70391195900449,,,,,,,,,,,,,,,,,125.69834620899928,126.49762220900448,127.29353133399854,127.28118150000228,,,,,,,,,,,,,,,,127.28628699999535,127.29353133399854,127.29353133399854,127.7990948749939,g,1.0,0.4950209990056464,,127.79989733399998,127.81056699999316,128.79757854199852,128.8034510419966,,,,,,,,,,,,,,,,,,,,sub-080,1,stroop_test,120.58065566266212,
,,,,13.0,1.0,1.0,,,,,blau,blue,b,1.0,b,1.0,0.3577170829958049,,,,,,,,,,,,,,1.0,1.0,13.0,5.0,,,,,128.8034510419966,,,,,,,,,,,,,,,,,128.79813704200205,129.99760229200183,130.78985295900202,130.78122012500535,,,,,,,,,,,,,,,,130.78217674999905,130.78985295900202,130.78985295900202,131.15521562499634,b,1.0,0.3577170829958049,,131.15607700000692,131.16876933400636,132.15437358399504,132.16402825000114,,,,,,,,,,,,,,,,,,,,sub-080,1,stroop_test,120.58065566266212,
,,,,14.0,2.0,1.0,,,,,blau,blue,b,1.0,b,1.0,0.557768082988332,,,,,,,,,,,,,,1.0,2.0,14.0,6.0,,,,,132.16402825000114,,,,,,,,,,,,,,,,,132.1549409589934,132.505533500007,133.30683616700117,133.2981823339942,,,,,,,,,,,,,,,,133.2991127090063,133.30683616700117,133.30683616700117,133.8719957919966,b,1.0,0.557768082988332,,133.87284033400647,133.8853142500011,134.8701929999952,134.88108195899986,,,,,,,,,,,,,,,,,,,,sub-080,1,stroop_test,120.58065566266212,
,,,,15.0,3.0,1.0,,,,,gelb,yellow,g,1.0,g,1.0,0.5854165829950944,,,,,,,,,,,,,,1.0,3.0,15.0,10.0,,,,,134.88108195899986,,,,,,,,,,,,,,,,,134.87069404199428,135.67093033400306,136.46618079200562,136.4536449169973,,,,,,,,,,,,,,,,136.45863900000404,136.46618079200562,136.46618079200562,137.0545535840065,g,1.0,0.5854165829950944,,137.0554317089991,137.06644558400149,138.0542687499983,138.06442679199972,,,,,,,,,,,,,,,,,,,,sub-080,1,stroop_test,120.58065566266212,
,,,,16.0,4.0,1.0,,,,,rot,red,r,1.0,r,1.0,0.5628812909999397,,,,,,,,,,,,,,1.0,4.0,16.0,0.0,,,,,138.06442679199972,,,,,,,,,,,,,,,,,138.05476320900198,138.15440412500175,138.94987016699451,138.9371450000035,,,,,,,,,,,,,,,,138.94146129199362,138.94987016699451,138.94987016699451,139.51586929199402,r,1.0,0.5628812909999397,,139.51686000000336,139.52822029200615,140.51488433399936,140.5207983339933,,,,,,,,,,,,,,,,,,,,sub-080,1,stroop_test,120.58065566266212,
,,,,17.0,5.0,1.0,,,,,gelb,blue,b,0.0,b,1.0,0.8867194580088835,,,,,,,,,,,,,,1.0,5.0,17.0,9.0,,,,,140.5207983339933,,,,,,,,,,,,,,,,,140.51543629200023,141.71437341699493,142.5109633749962,142.49815758400655,,,,,,,,,,,,,,,,142.50323450000724,142.5109633749962,142.5109633749962,143.39905100000033,b,1.0,0.8867194580088835,,143.40002975000243,143.41028625000035,144.3983640420047,144.40398437500698,,,,,,,,,,,,,,,,,,,,sub-080,1,stroop_test,120.58065566266212,
,,,,18.0,6.0,1.0,,,,,rot,blue,b,0.0,b,1.0,0.9831897080002818,,,,,,,,,,,,,,1.0,6.0,18.0,2.0,,,,,144.40398437500698,,,,,,,,,,,,,,,,,144.3989431670052,145.18896037500235,145.99354420900636,145.981453417,,,,,,,,,,,,,,,,145.9856980839977,145.99354420900636,145.99354420900636,146.98295533399505,b,1.0,0.9831897080002818,,146.98379520900198,146.99475195900595,147.9817760839942,147.9879644169996,,,,,,,,,,,,,,,,,,,,sub-080,1,stroop_test,120.58065566266212,
,,,,19.0,7.0,1.0,,,,,rot,red,r,1.0,r,1.0,0.7065445000043837,,,,,,,,,,,,,,1.0,7.0,19.0,1.0,,,,,147.9879644169996,,,,,,,,,,,,,,,,,147.9824359589984,148.3313165839936,149.12330725000356,149.11512820899952,,,,,,,,,,,,,,,,149.1159167500009,149.12330725000356,149.12330725000356,149.8329247090005,r,1.0,0.7065445000043837,,149.83379116699507,149.84430416699615,150.83184758400603,150.8377263339935,,,,,,,,,,,,,,,,,,,,sub-080,1,stroop_test,120.58065566266212,
,,,,20.0,8.0,1.0,,,,,gelb,yellow,g,1.0,g,1.0,0.5959600000060163,,,,,,,,,,,,,,1.0,8.0,20.0,11.0,,,,,150.8377263339935,,,,,,,,,,,,,,,,,150.8323969589983,150.93127379199723,151.7288930000068,151.71503766700334,,,,,,,,,,,,,,,,151.72178670900755,151.7288930000068,151.7288930000068,152.3332112920034,g,1.0,0.5959600000060163,,152.33401179200155,152.34430312500626,153.33194970899785,153.33783358399523,,,,,,,,,,,,,,,,,,,,sub-080,1,stroop_test,120.58065566266212,
,,,,21.0,9.0,1.0,,,,,rot,yellow,g,0.0,g,1.0,0.992508541996358,,,,,,,,,,,,,,1.0,9.0,21.0,3.0,,,,,153.33783358399523,,,,,,,,,,,,,,,,,153.33251379200374,154.53160479200596,155.32832412500284,155.3152498749987,,,,,,,,,,,,,,,,155.32031987499795,155.32832412500284,155.32832412500284,156.323099250003,g,1.0,0.992508541996358,,156.32392445900769,156.33589366699744,157.32148966699606,157.33151524999994,,,,,,,,,,,,,,,,,,,,sub-080,1,stroop_test,120.58065566266212,
,,,,22.0,10.0,1.0,,,,,gelb,red,r,0.0,r,1.0,0.6660324580007,,,,,,,,,,,,,,1.0,10.0,22.0,8.0,,,,,157.33151524999994,,,,,,,,,,,,,,,,,157.32205145900662,158.52296750000096,159.32778612499533,159.31542662500578,,,,,,,,,,,,,,,,159.32033674999548,159.32778612499533,159.32778612499533,160.00007516700134,r,1.0,0.6660324580007,,160.00090158400417,160.01152237500355,160.99859970899706,161.0037161250075,,,,,,,,,,,,,,,,,,,,sub-080,1,stroop_test,120.58065566266212,
,,,,23.0,11.0,1.0,,,,,blau,red,r,0.0,r,1.0,0.7931541659927461,,,,,,,,,,,,,,1.0,11.0,23.0,4.0,,,,,161.0037161250075,,,,,,,,,,,,,,,,,160.99908808400505,162.19822345899593,162.99478962499416,162.98200887499843,,,,,,,,,,,,,,,,162.98720937500184,162.99478962499416,162.99478962499416,163.80029462500534,r,1.0,0.7931541659927461,,163.80124841700308,163.81289095900138,164.7987735420029,164.80767366700456,,,,,,,,,,,,,,,,,,,,sub-080,1,stroop_test,120.58065566266212,
,,,,,,,,,,,,,,,,,,,,,,,,,,,,,,,,,,,,,,,,,,,,,,,,,,,,,,,,,,,,,,,,,,,,,,,,,,,,,,,,,,,,,,,164.79905020899605,164.80767366700456,164.80767366700456,169.3001298750023,space,4.489814499000204,,,,,,,,,,,,,,sub-080,1,stroop_test,120.58065566266212,
,,,,0.0,0.0,0.0,,,,,,,,,,,,,rot,blue,b,0.0,b,1.0,0.9718849159980892,,,,,,,,,,0.0,0.0,0.0,2.0,169.32512508399668,,,,,,,,,,,,,,,,,169.31720487499842,170.49862687500718,171.29428529199504,171.28241983399494,,,,,,,,,,,,,,,,,,,,,,,,,,,,,,,,,,,171.28673666699615,171.29428529199504,171.29428529199504,172.2736635839974,b,1.0,0.9718849159980892,,,,,,sub-080,1,stroop_test,120.58065566266212,
,,,,1.0,1.0,0.0,,,,,,,,,,,,,blau,red,r,0.0,r,1.0,1.025209999002982,,,,,,,,,,0.0,1.0,1.0,4.0,172.2845323340007,,,,,,,,,,,,,,,,,172.27434020899818,173.07344116699824,173.87802212500537,173.8659156250069,,,,,,,,,,,,,,,,,,,,,,,,,,,,,,,,,,,173.87069725000765,173.87802212500537,173.87802212500537,174.9064729590027,r,1.0,1.025209999002982,,,,,,sub-080,1,stroop_test,120.58065566266212,
,,,,2.0,2.0,0.0,,,,,,,,,,,,,gelb,yellow,g,1.0,g,1.0,0.7899293329974171,,,,,,,,,,0.0,2.0,2.0,10.0,174.91606945899548,,,,,,,,,,,,,,,,,174.90707495900278,175.70535862499673,176.51123291699332,176.49941579200097,,,,,,,,,,,,,,,,,,,,,,,,,,,,,,,,,,,176.50380987499375,176.51123291699332,176.51123291699332,177.306963791998,g,1.0,0.7899293329974171,,,,,,sub-080,1,stroop_test,120.58065566266212,
,,,,3.0,3.0,0.0,,,,,,,,,,,,,rot,red,r,1.0,r,1.0,0.5196496249991469,,,,,,,,,,0.0,3.0,3.0,0.0,177.31765333400108,,,,,,,,,,,,,,,,,177.30764133400226,178.10696233400083,178.91064812500554,178.89889870899788,,,,,,,,,,,,,,,,,,,,,,,,,,,,,,,,,,,178.90318416700757,178.91064812500554,178.91064812500554,179.4338466670015,r,1.0,0.5196496249991469,,,,,,sub-080,1,stroop_test,120.58065566266212,
,,,,4.0,4.0,0.0,,,,,,,,,,,,,gelb,blue,b,0.0,b,1.0,1.0206993330066323,,,,,,,,,,0.0,4.0,4.0,9.0,179.44376500000362,,,,,,,,,,,,,,,,,179.43451916699996,179.78227816699655,180.57755416700093,180.5658632919949,,,,,,,,,,,,,,,,,,,,,,,,,,,,,,,,,,,180.5702484590001,180.57755416700093,180.57755416700093,181.6002958750032,b,1.0,1.0206993330066323,,,,,,sub-080,1,stroop_test,120.58065566266212,
,,,,5.0,5.0,0.0,,,,,,,,,,,,,rot,red,r,1.0,r,1.0,0.5034559579944471,,,,,,,,,,0.0,5.0,5.0,1.0,181.6107267500047,,,,,,,,,,,,,,,,,181.60091912500505,182.7905726250028,183.5947769589984,183.5828534169996,,,,,,,,,,,,,,,,,,,,,,,,,,,,,,,,,,,183.5870704590052,183.5947769589984,183.5947769589984,184.1006152089976,r,1.0,0.5034559579944471,,,,,,sub-080,1,stroop_test,120.58065566266212,
,,,,6.0,6.0,0.0,,,,,,,,,,,,,gelb,yellow,g,1.0,g,1.0,0.6694473740062676,,,,,,,,,,0.0,6.0,6.0,11.0,184.1110192920023,,,,,,,,,,,,,,,,,184.10122287500417,184.1989791249944,184.9948368750047,184.98266574999437,,,,,,,,,,,,,,,,,,,,,,,,,,,,,,,,,,,184.9871023339947,184.9948368750047,184.9948368750047,185.6671932089957,g,1.0,0.6694473740062676,,,,,,sub-080,1,stroop_test,120.58065566266212,
,,,,7.0,7.0,0.0,,,,,,,,,,,,,blau,blue,b,1.0,b,1.0,0.3814586250082357,,,,,,,,,,0.0,7.0,7.0,5.0,185.67701329200645,,,,,,,,,,,,,,,,,185.66780279199884,185.7654836669972,186.5617887090048,186.54960437500267,,,,,,,,,,,,,,,,,,,,,,,,,,,,,,,,,,,186.5544415420009,186.5617887090048,186.5617887090048,186.9509910839988,b,1.0,0.3814586250082357,,,,,,sub-080,1,stroop_test,120.58065566266212,
,,,,8.0,8.0,0.0,,,,,,,,,,,,,rot,yellow,g,0.0,g,1.0,0.9495726250024744,,,,,,,,,,0.0,8.0,8.0,3.0,186.96071808399572,,,,,,,,,,,,,,,,,186.95164237500285,187.04904429199811,187.845789125,187.83292995899683,,,,,,,,,,,,,,,,,,,,,,,,,,,,,,,,,,,187.8383996670018,187.845789125,187.845789125,188.80109208400245,g,1.0,0.9495726250024744,,,,,,sub-080,1,stroop_test,120.58065566266212,
,,,,9.0,9.0,0.0,,,,,,,,,,,,,blau,yellow,g,0.0,g,1.0,0.6662865409889491,,,,,,,,,,0.0,9.0,9.0,7.0,188.8127733339934,,,,,,,,,,,,,,,,,188.80186200000756,189.99954320900724,190.794012792001,190.78311025000585,,,,,,,,,,,,,,,,,,,,,,,,,,,,,,,,,,,190.78737624999485,190.794012792001,190.794012792001,191.4676500420028,g,1.0,0.6662865409889491,,,,,,sub-080,1,stroop_test,120.58065566266212,
,,,,10.0,10.0,0.0,,,,,,,,,,,,,gelb,red,r,0.0,r,1.0,0.5635254579974571,,,,,,,,,,0.0,10.0,10.0,8.0,191.47844029200496,,,,,,,,,,,,,,,,,191.46842691699567,191.81625116699436,192.6128055419977,192.5996738749964,,,,,,,,,,,,,,,,,,,,,,,,,,,,,,,,,,,192.604973124995,192.6128055419977,192.6128055419977,193.18448683399765,r,1.0,0.5635254579974571,,,,,,sub-080,1,stroop_test,120.58065566266212,
,,,,11.0,11.0,0.0,,,,,,,,,,,,,blau,blue,b,1.0,b,1.0,0.587218667002162,,,,,,,,,,0.0,11.0,11.0,6.0,193.19441479200032,,,,,,,,,,,,,,,,,193.18511679199585,193.28281408399928,194.0790323340043,194.06626487500037,,,,,,,,,,,,,,,,,,,,,,,,,,,,,,,,,,,194.07159945899912,194.0790323340043,194.0790323340043,194.66765741699783,b,1.0,0.587218667002162,,,,,,sub-080,1,stroop_test,120.58065566266212,
,,,,12.0,0.0,1.0,,,,,,,,,,,,,rot,red,r,1.0,r,1.0,0.7583365829923423,,,,,,,,,,1.0,0.0,12.0,1.0,194.6741469590052,,,,,,,,,,,,,,,,,194.6683102090028,195.0159236670006,195.81185829199967,195.7999000840064,,,,,,,,,,,,,,,,,,,,,,,,,,,,,,,,,,,195.80401704199903,195.81185829199967,195.81185829199967,196.5741450839996,r,1.0,0.7583365829923423,,,,,,sub-080,1,stroop_test,120.58065566266212,
,,,,13.0,1.0,1.0,,,,,,,,,,,,,gelb,blue,b,0.0,b,1.0,0.5646260830108076,,,,,,,,,,1.0,1.0,13.0,9.0,196.58205391699448,,,,,,,,,,,,,,,,,196.57468337500177,197.3742205419985,198.17873025000156,198.16665508400183,,,,,,,,,,,,,,,,,,,,,,,,,,,,,,,,,,,198.17100120900432,198.17873025000156,198.17873025000156,198.7516415840073,b,1.0,0.5646260830108076,,,,,,sub-080,1,stroop_test,120.58065566266212,
,,,,14.0,2.0,1.0,,,,,,,,,,,,,blau,blue,b,1.0,b,1.0,0.4970311249926453,,,,,,,,,,1.0,2.0,14.0,5.0,198.76251041700016,,,,,,,,,,,,,,,,,198.75241654200363,199.09938908400363,199.89630166700223,199.88323929200124,,,,,,,,,,,,,,,,,,,,,,,,,,,,,,,,,,,199.88854441700096,199.89630166700223,199.89630166700223,200.40138716700312,b,1.0,0.4970311249926453,,,,,,sub-080,1,stroop_test,120.58065566266212,
,,,,15.0,3.0,1.0,,,,,,,,,,,,,gelb,red,r,0.0,r,1.0,0.6080259580048732,,,,,,,,,,1.0,3.0,15.0,8.0,200.41196125000715,,,,,,,,,,,,,,,,,200.40205254200555,200.74981312500316,201.54629012499936,201.5332902920054,,,,,,,,,,,,,,,,,,,,,,,,,,,,,,,,,,,201.5386728339945,201.54629012499936,201.54629012499936,202.1575100839982,r,1.0,0.6080259580048732,,,,,,sub-080,1,stroop_test,120.58065566266212,
,,,,16.0,4.0,1.0,,,,,,,,,,,,,blau,blue,b,1.0,b,1.0,0.5650632080069045,,,,,,,,,,1.0,4.0,16.0,6.0,202.1829327919986,,,,,,,,,,,,,,,,,202.15811320900684,203.3566490420053,204.16223987500416,204.1501555839932,,,,,,,,,,,,,,,,,,,,,,,,,,,,,,,,,,,204.15452979199472,204.16223987500416,204.16223987500416,204.73466837500743,b,1.0,0.5650632080069045,,,,,,sub-080,1,stroop_test,120.58065566266212,
,,,,17.0,5.0,1.0,,,,,,,,,,,,,gelb,yellow,g,1.0,g,1.0,0.9860762080061248,,,,,,,,,,1.0,5.0,17.0,11.0,204.7442731670017,,,,,,,,,,,,,,,,,204.7353231250017,205.93309033400143,206.72930308399373,206.71695108400309,,,,,,,,,,,,,,,,,,,,,,,,,,,,,,,,,,,206.72192766700755,206.72930308399373,206.72930308399373,207.7179360000009,g,1.0,0.9860762080061248,,,,,,sub-080,1,stroop_test,120.58065566266212,
,,,,18.0,6.0,1.0,,,,,,,,,,,,,rot,blue,b,0.0,b,1.0,0.8679708330018912,,,,,,,,,,1.0,6.0,18.0,2.0,207.72846920900335,,,,,,,,,,,,,,,,,207.71858499999507,208.516637875,209.31249487500463,209.3003658749949,,,,,,,,,,,,,,,,,,,,,,,,,,,,,,,,,,,209.3046305839962,209.31249487500463,209.31249487500463,210.18464375000624,b,1.0,0.8679708330018912,,,,,,sub-080,1,stroop_test,120.58065566266212,
,,,,19.0,7.0,1.0,,,,,,,,,,,,,blau,red,r,0.0,r,1.0,0.6054868330102181,,,,,,,,,,1.0,7.0,19.0,4.0,210.1957115419937,,,,,,,,,,,,,,,,,210.1852770840051,210.28352666700084,211.07879837500516,211.0671183749946,,,,,,,,,,,,,,,,,,,,,,,,,,,,,,,,,,,211.07155616700769,211.07879837500516,211.07879837500516,211.69086324999807,r,1.0,0.6054868330102181,,,,,,sub-080,1,stroop_test,120.58065566266212,
,,,,20.0,8.0,1.0,,,,,,,,,,,,,gelb,yellow,g,1.0,g,1.0,0.4519157909962814,,,,,,,,,,1.0,8.0,20.0,10.0,211.69967962500232,,,,,,,,,,,,,,,,,211.69142958399607,212.4909482920048,213.2955220419972,213.2836928339966,,,,,,,,,,,,,,,,,,,,,,,,,,,,,,,,,,,213.28796033399703,213.2955220419972,213.2955220419972,213.7514038340014,g,1.0,0.4519157909962814,,,,,,sub-080,1,stroop_test,120.58065566266212,
,,,,21.0,9.0,1.0,,,,,,,,,,,,,rot,red,r,1.0,r,1.0,0.5607797920092707,,,,,,,,,,1.0,9.0,21.0,0.0,213.7614157920034,,,,,,,,,,,,,,,,,213.75202124999487,214.09983279199517,214.89580191699497,214.883912624995,,,,,,,,,,,,,,,,,,,,,,,,,,,,,,,,,,,214.88813504199788,214.89580191699497,214.89580191699497,215.4685576250049,r,1.0,0.5607797920092707,,,,,,sub-080,1,stroop_test,120.58065566266212,
,,,,22.0,10.0,1.0,,,,,,,,,,,,,blau,yellow,g,0.0,g,1.0,0.6542790000094101,,,,,,,,,,1.0,10.0,22.0,7.0,215.47924324999624,,,,,,,,,,,,,,,,,215.46920191700335,216.6665725420025,217.46402483400016,217.45045412500625,,,,,,,,,,,,,,,,,,,,,,,,,,,,,,,,,,,217.45629375000132,217.46402483400016,217.46402483400016,218.12432366699795,g,1.0,0.6542790000094101,,,,,,sub-080,1,stroop_test,120.58065566266212,
,,,,23.0,11.0,1.0,,,,,,,,,,,,,rot,yellow,g,0.0,g,1.0,0.6021342080057366,,,,,,,,,,1.0,11.0,23.0,3.0,218.13299149999511,,,,,,,,,,,,,,,,,218.1249063340074,219.32491204199323,220.12933641699783,220.11715370899765,,,,,,,,,,,,,,,,,,,,,,,,,,,,,,,,,,,220.12140575000376,220.12933641699783,220.12933641699783,220.73497350000247,g,1.0,0.6021342080057366,,,,,,sub-080,1,stroop_test,120.58065566266212,
,,,,24.0,0.0,2.0,,,,,,,,,,,,,gelb,yellow,g,1.0,g,1.0,0.4783515829913085,,,,,,,,,,2.0,0.0,24.0,10.0,220.74526291700025,,,,,,,,,,,,,,,,,220.73563429199567,221.933519416998,222.72910437500104,222.7172340840043,,,,,,,,,,,,,,,,,,,,,,,,,,,,,,,,,,,222.72192033400643,222.72910437500104,222.72910437500104,223.218610291995,g,1.0,0.4783515829913085,,,,,,sub-080,1,stroop_test,120.58065566266212,
,,,,25.0,1.0,2.0,,,,,,,,,,,,,blau,yellow,g,0.0,g,1.0,0.5649907490005717,,,,,,,,,,2.0,1.0,25.0,7.0,223.22813437500736,,,,,,,,,,,,,,,,,223.21922804199855,223.31708320899637,224.1134809590003,224.1005446670024,,,,,,,,,,,,,,,,,,,,,,,,,,,,,,,,,,,224.1058087499987,224.1134809590003,224.1134809590003,224.6851383339963,g,1.0,0.5649907490005717,,,,,,sub-080,1,stroop_test,120.58065566266212,
,,,,26.0,2.0,2.0,,,,,,,,,,,,,blau,red,r,0.0,r,1.0,0.6647557919932296,,,,,,,,,,2.0,2.0,26.0,4.0,224.69594608400075,,,,,,,,,,,,,,,,,224.68593545899785,225.0335324589978,225.8257695420034,225.81741608399895,,,,,,,,,,,,,,,,,,,,,,,,,,,,,,,,,,,225.81817841700104,225.8257695420034,225.8257695420034,226.5022117920016,r,1.0,0.6647557919932296,,,,,,sub-080,1,stroop_test,120.58065566266212,
,,,,27.0,3.0,2.0,,,,,,,,,,,,,gelb,blue,b,0.0,b,1.0,0.5483939990081126,,,,,,,,,,2.0,3.0,27.0,9.0,226.5124325420038,,,,,,,,,,,,,,,,,226.5029855419998,226.6002724169957,227.39710129199372,227.3841242500057,,,,,,,,,,,,,,,,,,,,,,,,,,,,,,,,,,,227.38914212500092,227.39710129199372,227.39710129199372,227.95259595899552,b,1.0,0.5483939990081126,,,,,,sub-080,1,stroop_test,120.58065566266212,
,,,,28.0,4.0,2.0,,,,,,,,,,,,,blau,blue,b,1.0,b,1.0,0.4215198749880073,,,,,,,,,,2.0,4.0,28.0,5.0,227.96303749999788,,,,,,,,,,,,,,,,,227.9532985419937,228.05061233400195,228.84599966699895,228.83410433400425,,,,,,,,,,,,,,,,,,,,,,,,,,,,,,,,,,,228.83853220900343,228.84599966699895,228.84599966699895,229.27434062499376,b,1.0,0.4215198749880073,,,,,,sub-080,1,stroop_test,120.58065566266212,
,,,,29.0,5.0,2.0,,,,,,,,,,,,,rot,blue,b,0.0,b,1.0,0.59722995798802,,,,,,,,,,2.0,5.0,29.0,2.0,229.28346020900065,,,,,,,,,,,,,,,,,229.2750148750056,230.07413104199804,230.8693219590059,230.85733062500367,,,,,,,,,,,,,,,,,,,,,,,,,,,,,,,,,,,230.8618271669984,230.8693219590059,230.8693219590059,231.46878945900244,b,1.0,0.59722995798802,,,,,,sub-080,1,stroop_test,120.58065566266212,
,,,,30.0,6.0,2.0,,,,,,,,,,,,,rot,yellow,g,0.0,g,1.0,0.7376704170019366,,,,,,,,,,2.0,6.0,30.0,3.0,231.47900525000296,,,,,,,,,,,,,,,,,231.4694130840071,231.81688233399476,232.6099942089932,232.60099350000385,,,,,,,,,,,,,,,,,,,,,,,,,,,,,,,,,,,232.60193254200567,232.6099942089932,232.6099942089932,233.35243520900255,g,1.0,0.7376704170019366,,,,,,sub-080,1,stroop_test,120.58065566266212,
,,,,31.0,7.0,2.0,,,,,,,,,,,,,rot,red,r,1.0,r,1.0,0.5090820000041276,,,,,,,,,,2.0,7.0,31.0,0.0,233.3632041670062,,,,,,,,,,,,,,,,,233.35319645900745,233.7005099590024,234.49336195900105,234.4844528340036,,,,,,,,,,,,,,,,,,,,,,,,,,,,,,,,,,,234.48545141700012,234.49336195900105,234.49336195900105,235.0086647499993,r,1.0,0.5090820000041276,,,,,,sub-080,1,stroop_test,120.58065566266212,
,,,,32.0,8.0,2.0,,,,,,,,,,,,,rot,red,r,1.0,r,1.0,0.3576041250053094,,,,,,,,,,2.0,8.0,32.0,1.0,235.019569666998,,,,,,,,,,,,,,,,,235.00942591700004,235.10749554200447,235.91079120899667,235.90118637500564,,,,,,,,,,,,,,,,,,,,,,,,,,,,,,,,,,,235.9029284999997,235.91079120899667,235.91079120899667,236.27477320900653,r,1.0,0.3576041250053094,,,,,,sub-080,1,stroop_test,120.58065566266212,
,,,,33.0,9.0,2.0,,,,,,,,,,,,,blau,blue,b,1.0,b,1.0,0.6356218330038246,,,,,,,,,,2.0,9.0,33.0,6.0,236.28463691700017,,,,,,,,,,,,,,,,,236.2753409169964,236.62498166700243,237.43005104199983,237.41783387500615,,,,,,,,,,,,,,,,,,,,,,,,,,,,,,,,,,,237.42229112499624,237.43005104199983,237.43005104199983,238.0689412089996,b,1.0,0.6356218330038246,,,,,,sub-080,1,stroop_test,120.58065566266212,
,,,,34.0,10.0,2.0,,,,,,,,,,,,,gelb,red,r,0.0,r,1.0,0.5868437079916475,,,,,,,,,,2.0,10.0,34.0,8.0,238.07873420900432,,,,,,,,,,,,,,,,,238.0695684999955,238.8673057499982,239.6637663339934,239.6510311250022,,,,,,,,,,,,,,,,,,,,,,,,,,,,,,,,,,,239.65613324999867,239.6637663339934,239.6637663339934,240.252396166994,r,1.0,0.5868437079916475,,,,,,sub-080,1,stroop_test,120.58065566266212,
,,,,35.0,11.0,2.0,,,,,,,,,,,,,gelb,yellow,g,1.0,g,1.0,0.5068580829974962,,,,,,,,,,2.0,11.0,35.0,11.0,240.25922100000025,,,,,,,,,,,,,,,,,240.25315345899435,241.05107387500172,241.84372608400008,241.8344390419952,,,,,,,,,,,,,,,,,,,,,,,,,,,,,,,,,,,241.8354127920029,241.84372608400008,241.84372608400008,242.352463874995,g,1.0,0.5068580829974962,,,,,,sub-080,1,stroop_test,120.58065566266212,
,,,,36.0,0.0,3.0,,,,,,,,,,,,,rot,red,r,1.0,r,1.0,0.6717970409954432,,,,,,,,,,3.0,0.0,36.0,0.0,242.35908695899707,,,,,,,,,,,,,,,,,242.35314333399583,242.70057520900448,243.49670683400475,243.48459916700085,,,,,,,,,,,,,,,,,,,,,,,,,,,,,,,,,,,243.4893630000006,243.49670683400475,243.49670683400475,244.1755344169942,r,1.0,0.6717970409954432,,,,,,sub-080,1,stroop_test,120.58065566266212,
,,,,37.0,1.0,3.0,,,,,,,,,,,,,gelb,yellow,g,1.0,g,1.0,3.2172177489992464,,,,,,,,,,3.0,1.0,37.0,10.0,244.1864519590017,,,,,,,,,,,,,,,,,244.1761722920055,245.37552783399587,246.18035016700745,246.16820683400147,,,,,,,,,,,,,,,,,,,,,,,,,,,,,,,,,,,246.17317383400223,246.18035016700745,246.18035016700745,249.40246654200016,g,1.0,3.2172177489992464,,,,,,sub-080,1,stroop_test,120.58065566266212,
,,,,38.0,2.0,3.0,,,,,,,,,,,,,blau,red,r,0.0,r,1.0,0.6216031249932712,,,,,,,,,,3.0,2.0,38.0,4.0,249.41294629199547,,,,,,,,,,,,,,,,,249.40313133399468,250.6010013750056,251.39701754199632,251.38490087499667,,,,,,,,,,,,,,,,,,,,,,,,,,,,,,,,,,,251.38925566700345,251.39701754199632,251.39701754199632,252.02604279200025,r,1.0,0.6216031249932712,,,,,,sub-080,1,stroop_test,120.58065566266212,
,,,,39.0,3.0,3.0,,,,,,,,,,,,,blau,blue,b,1.0,b,1.0,0.5175338330009254,,,,,,,,,,3.0,3.0,39.0,5.0,252.0511097919953,,,,,,,,,,,,,,,,,252.0266885000019,253.2257266670058,254.02707908400043,254.01866383399465,,,,,,,,,,,,,,,,,,,,,,,,,,,,,,,,,,,254.01943491700516,254.02707908400043,254.02707908400043,254.55311866699776,b,1.0,0.5175338330009254,,,,,,sub-080,1,stroop_test,120.58065566266212,
,,,,40.0,4.0,3.0,,,,,,,,,,,,,gelb,red,r,0.0,r,1.0,0.6358760420116596,,,,,,,,,,3.0,4.0,40.0,8.0,254.56373433400583,,,,,,,,,,,,,,,,,254.55389020900475,255.35105520900103,256.1477850420051,256.1352380839962,,,,,,,,,,,,,,,,,,,,,,,,,,,,,,,,,,,256.1401078339986,256.1477850420051,256.1477850420051,256.7860999169934,r,1.0,0.6358760420116596,,,,,,sub-080,1,stroop_test,120.58065566266212,
,,,,41.0,5.0,3.0,,,,,,,,,,,,,gelb,blue,b,0.0,b,1.0,2.0729765410069376,,,,,,,,,,3.0,5.0,41.0,9.0,256.796230167005,,,,,,,,,,,,,,,,,256.7867462090071,257.58475925000675,258.37677741699736,258.36839533399325,,,,,,,,,,,,,,,,,,,,,,,,,,,,,,,,,,,258.3691794589977,258.37677741699736,258.37677741699736,260.4528272089956,b,1.0,2.0729765410069376,,,,,,sub-080,1,stroop_test,120.58065566266212,
,,,,42.0,6.0,3.0,,,,,,,,,,,,,blau,yellow,g,0.0,g,1.0,0.6159386660001474,,,,,,,,,,3.0,6.0,42.0,7.0,260.4634031250025,,,,,,,,,,,,,,,,,260.45345899999666,261.25136783400376,262.04778337500466,262.03531437499623,,,,,,,,,,,,,,,,,,,,,,,,,,,,,,,,,,,262.04080058399995,262.04778337500466,262.04778337500466,262.66999004200625,g,1.0,0.6159386660001474,,,,,,sub-080,1,stroop_test,120.58065566266212,
,,,,43.0,7.0,3.0,,,,,,,,,,,,,blau,blue,b,1.0,b,1.0,0.5714706250000745,,,,,,,,,,3.0,7.0,43.0,6.0,262.6809867090051,,,,,,,,,,,,,,,,,262.6707073340076,263.868034375002,264.66026099999726,264.65191237500403,,,,,,,,,,,,,,,,,,,,,,,,,,,,,,,,,,,264.65269600000465,264.66026099999726,264.66026099999726,265.2364895000064,b,1.0,0.5714706250000745,,,,,,sub-080,1,stroop_test,120.58065566266212,
,,,,44.0,8.0,3.0,,,,,,,,,,,,,gelb,yellow,g,1.0,g,1.0,0.8504577909916406,,,,,,,,,,3.0,8.0,44.0,11.0,265.24680941700353,,,,,,,,,,,,,,,,,265.2372438750026,265.3350972920016,266.1312562920066,266.118477875003,,,,,,,,,,,,,,,,,,,,,,,,,,,,,,,,,,,266.1239250840008,266.1312562920066,266.1312562920066,266.98640854199766,g,1.0,0.8504577909916406,,,,,,sub-080,1,stroop_test,120.58065566266212,
,,,,45.0,9.0,3.0,,,,,,,,,,,,,rot,red,r,1.0,r,1.0,0.5029714580014115,,,,,,,,,,3.0,9.0,45.0,1.0,266.9972207090032,,,,,,,,,,,,,,,,,266.98705058399355,267.0849280840048,267.88176070900226,267.8689036249998,,,,,,,,,,,,,,,,,,,,,,,,,,,,,,,,,,,267.8739703339961,267.88176070900226,267.88176070900226,268.3862156249961,r,1.0,0.5029714580014115,,,,,,sub-080,1,stroop_test,120.58065566266212,
,,,,46.0,10.0,3.0,,,,,,,,,,,,,rot,blue,b,0.0,b,1.0,0.6095660410064738,,,,,,,,,,3.0,10.0,46.0,2.0,268.3925219590019,,,,,,,,,,,,,,,,,268.386825374997,268.7348235840036,269.52706704199954,269.5188461670041,,,,,,,,,,,,,,,,,,,,,,,,,,,,,,,,,,,269.5196301249962,269.52706704199954,269.52706704199954,270.1426142499986,b,1.0,0.6095660410064738,,,,,,sub-080,1,stroop_test,120.58065566266212,
,,,,47.0,11.0,3.0,,,,,,,,,,,,,rot,yellow,g,0.0,g,1.0,0.6248923739913153,,,,,,,,,,3.0,11.0,47.0,3.0,270.151237166996,,,,,,,,,,,,,,,,,270.1433079999988,270.9416532920004,271.73474658399937,271.7250464590033,,,,,,,,,,,,,,,,,,,,,,,,,,,,,,,,,,,271.72586845900514,271.73474658399937,271.73474658399937,272.3704727089935,g,1.0,0.6248923739913153,,,,,,sub-080,1,stroop_test,120.58065566266212,
,,,,48.0,0.0,4.0,,,,,,,,,,,,,blau,blue,b,1.0,b,1.0,0.5032577499951003,,,,,,,,,,4.0,0.0,48.0,6.0,272.3810149170022,,,,,,,,,,,,,,,,,272.3711769590009,273.1684293750004,273.964530458994,273.9520274170063,,,,,,,,,,,,,,,,,,,,,,,,,,,,,,,,,,,273.956531459,273.964530458994,273.964530458994,274.4700120839989,b,1.0,0.5032577499951003,,,,,,sub-080,1,stroop_test,120.58065566266212,
,,,,49.0,1.0,4.0,,,,,,,,,,,,,gelb,red,r,0.0,r,1.0,0.4094911240099463,,,,,,,,,,4.0,1.0,49.0,8.0,274.48025779200543,,,,,,,,,,,,,,,,,274.4706360840064,275.668892917005,276.4642880839965,276.4521628749935,,,,,,,,,,,,,,,,,,,,,,,,,,,,,,,,,,,276.4570801670052,276.4642880839965,276.4642880839965,276.8762844169978,r,1.0,0.4094911240099463,,,,,,sub-080,1,stroop_test,120.58065566266212,
,,,,50.0,2.0,4.0,,,,,,,,,,,,,rot,yellow,g,0.0,g,1.0,0.5932762910088059,,,,,,,,,,4.0,2.0,50.0,3.0,276.90183754199825,,,,,,,,,,,,,,,,,276.8768831250054,276.9754077090038,277.7814816669997,277.76910762500484,,,,,,,,,,,,,,,,,,,,,,,,,,,,,,,,,,,277.77365825000743,277.7814816669997,277.7814816669997,278.3870179170044,g,1.0,0.5932762910088059,,,,,,sub-080,1,stroop_test,120.58065566266212,
,,,,51.0,3.0,4.0,,,,,,,,,,,,,blau,red,r,0.0,r,1.0,0.8515780830057338,,,,,,,,,,4.0,3.0,51.0,4.0,278.3972375000012,,,,,,,,,,,,,,,,,278.3876522920036,279.58505537500605,280.3822658749996,280.36912725,,,,,,,,,,,,,,,,,,,,,,,,,,,,,,,,,,,280.37502766700345,280.3822658749996,280.3822658749996,281.2368874590029,r,1.0,0.8515780830057338,,,,,,sub-080,1,stroop_test,120.58065566266212,
,,,,52.0,4.0,4.0,,,,,,,,,,,,,gelb,blue,b,0.0,b,1.0,0.5469868749933084,,,,,,,,,,4.0,4.0,52.0,9.0,281.2476900000038,,,,,,,,,,,,,,,,,281.2375150839944,282.435266667002,283.23078458399686,283.21912787499605,,,,,,,,,,,,,,,,,,,,,,,,,,,,,,,,,,,283.22366466700623,283.23078458399686,283.23078458399686,283.78715087499586,b,1.0,0.5469868749933084,,,,,,sub-080,1,stroop_test,120.58065566266212,
,,,,53.0,5.0,4.0,,,,,,,,,,,,,blau,blue,b,1.0,b,1.0,0.6208387080114335,,,,,,,,,,4.0,5.0,53.0,5.0,283.7964789999969,,,,,,,,,,,,,,,,,283.78771333399345,284.98576412499824,285.7810562920058,285.76917241699994,,,,,,,,,,,,,,,,,,,,,,,,,,,,,,,,,,,285.77339483400283,285.7810562920058,285.7810562920058,286.4040672499977,b,1.0,0.6208387080114335,,,,,,sub-080,1,stroop_test,120.58065566266212,
,,,,54.0,6.0,4.0,,,,,,,,,,,,,blau,yellow,g,0.0,g,1.0,0.6136527489870787,,,,,,,,,,4.0,6.0,54.0,7.0,286.4150173340022,,,,,,,,,,,,,,,,,286.4047898340068,286.50194145900605,287.29499958400265,287.2859255000076,,,,,,,,,,,,,,,,,,,,,,,,,,,,,,,,,,,287.2868619590008,287.29499958400265,287.29499958400265,287.9199504999997,g,1.0,0.6136527489870787,,,,,,sub-080,1,stroop_test,120.58065566266212,
,,,,55.0,7.0,4.0,,,,,,,,,,,,,rot,red,r,1.0,r,1.0,0.5160234580107499,,,,,,,,,,4.0,7.0,55.0,0.0,287.9281827090017,,,,,,,,,,,,,,,,,287.92057795899746,289.1102456670051,289.9148206249956,289.90275191700493,,,,,,,,,,,,,,,,,,,,,,,,,,,,,,,,,,,289.906957625004,289.9148206249956,289.9148206249956,290.4374822499958,r,1.0,0.5160234580107499,,,,,,sub-080,1,stroop_test,120.58065566266212,
,,,,56.0,8.0,4.0,,,,,,,,,,,,,rot,red,r,1.0,r,1.0,0.387433666997822,,,,,,,,,,4.0,8.0,56.0,1.0,290.448410166995,,,,,,,,,,,,,,,,,290.438134875003,290.5357933750056,291.32851333399594,291.3196644169948,,,,,,,,,,,,,,,,,,,,,,,,,,,,,,,,,,,291.3206096250069,291.32851333399594,291.32851333399594,291.7208384999976,r,1.0,0.387433666997822,,,,,,sub-080,1,stroop_test,120.58065566266212,
,,,,57.0,9.0,4.0,,,,,,,,,,,,,gelb,yellow,g,1.0,g,1.0,0.5454889999964507,,,,,,,,,,4.0,9.0,57.0,10.0,291.7315361670044,,,,,,,,,,,,,,,,,291.7215752500051,291.81936612499703,292.6142712919973,292.602579458995,,,,,,,,,,,,,,,,,,,,,,,,,,,,,,,,,,,292.60703329200624,292.6142712919973,292.6142712919973,293.1707859169983,g,1.0,0.5454889999964507,,,,,,sub-080,1,stroop_test,120.58065566266212,
,,,,58.0,10.0,4.0,,,,,,,,,,,,,gelb,yellow,g,1.0,g,1.0,0.5117004580097273,,,,,,,,,,4.0,10.0,58.0,11.0,293.1808969590056,,,,,,,,,,,,,,,,,293.17138450000493,293.9690042500006,294.76108654199925,294.7528640840028,,,,,,,,,,,,,,,,,,,,,,,,,,,,,,,,,,,294.7536257920001,294.76108654199925,294.76108654199925,295.27626100000634,g,1.0,0.5117004580097273,,,,,,sub-080,1,stroop_test,120.58065566266212,
,,,,59.0,11.0,4.0,,,,,,,,,,,,,rot,blue,b,0.0,r,0.0,0.6434093330026371,,,,,,,,,,4.0,11.0,59.0,2.0,295.2853892090061,,,,,,,,,,,,,,,,,295.2767835419945,295.3770198340062,296.1814982500073,296.1696625839977,,,,,,,,,,,,,,,,,,,,,,,,,,,,,,,,,,,296.173709374998,296.1814982500073,296.1814982500073,296.8273398339952,r,0.0,0.6434093330026371,,,,,,sub-080,1,stroop_test,120.58065566266212,
,,,,60.0,0.0,5.0,,,,,,,,,,,,,blau,yellow,g,0.0,g,1.0,0.9638777500076684,,,,,,,,,,5.0,0.0,60.0,7.0,296.83813204200123,,,,,,,,,,,,,,,,,296.8279177499935,298.0269135419949,298.8340398339933,298.81975358400086,,,,,,,,,,,,,,,,,,,,,,,,,,,,,,,,,,,298.8266695839993,298.8340398339933,298.8340398339933,299.8046850840037,g,1.0,0.9638777500076684,,,,,,sub-080,1,stroop_test,120.58065566266212,
,,,,61.0,1.0,5.0,,,,,,,,,,,,,gelb,blue,b,0.0,b,1.0,0.8333589999965625,,,,,,,,,,5.0,1.0,61.0,9.0,299.8154855419998,,,,,,,,,,,,,,,,,299.80545025000174,299.9027992920019,300.6985147920059,300.6864330840035,,,,,,,,,,,,,,,,,,,,,,,,,,,,,,,,,,,300.6911376670032,300.6985147920059,300.6985147920059,301.53726941700734,b,1.0,0.8333589999965625,,,,,,sub-080,1,stroop_test,120.58065566266212,
,,,,62.0,2.0,5.0,,,,,,,,,,,,,rot,red,r,1.0,r,1.0,0.619684542005416,,,,,,,,,,5.0,2.0,62.0,1.0,301.54819770899485,,,,,,,,,,,,,,,,,301.53790170900174,302.73585358400305,303.53226004200405,303.51992108400736,,,,,,,,,,,,,,,,,,,,,,,,,,,,,,,,,,,303.5248627090041,303.53226004200405,303.53226004200405,304.1544827089965,r,1.0,0.619684542005416,,,,,,sub-080,1,stroop_test,120.58065566266212,
,,,,63.0,3.0,5.0,,,,,,,,,,,,,blau,blue,b,1.0,b,1.0,0.6815387910028221,,,,,,,,,,5.0,3.0,63.0,6.0,304.1651960839954,,,,,,,,,,,,,,,,,304.15525908400014,305.35263029200723,306.14934041700326,306.13669958400715,,,,,,,,,,,,,,,,,,,,,,,,,,,,,,,,,,,306.1416098750051,306.14934041700326,306.14934041700326,306.8377655840013,b,1.0,0.6815387910028221,,,,,,sub-080,1,stroop_test,120.58065566266212,
,,,,64.0,4.0,5.0,,,,,,,,,,,,,rot,red,r,1.0,r,1.0,0.4651383750024251,,,,,,,,,,5.0,4.0,64.0,0.0,306.8482313749992,,,,,,,,,,,,,,,,,306.83839937500306,307.18581379200623,307.98282695900707,307.9698547089938,,,,,,,,,,,,,,,,,,,,,,,,,,,,,,,,,,,307.9749008749932,307.98282695900707,307.98282695900707,308.4545335839939,r,1.0,0.4651383750024251,,,,,,sub-080,1,stroop_test,120.58065566266212,
,,,,65.0,5.0,5.0,,,,,,,,,,,,,rot,blue,b,0.0,b,1.0,0.7589877499995055,,,,,,,,,,5.0,5.0,65.0,2.0,308.46446833400114,,,,,,,,,,,,,,,,,308.45515920899925,309.2528834169934,310.0458434169996,310.0367407089944,,,,,,,,,,,,,,,,,,,,,,,,,,,,,,,,,,,310.03769883399946,310.0458434169996,310.0458434169996,310.8110316670063,b,1.0,0.7589877499995055,,,,,,sub-080,1,stroop_test,120.58065566266212,
,,,,66.0,6.0,5.0,,,,,,,,,,,,,blau,red,r,0.0,r,1.0,0.4872034580039326,,,,,,,,,,5.0,6.0,66.0,4.0,310.82178316700447,,,,,,,,,,,,,,,,,310.8116261249961,310.90972379200684,311.7157575000019,311.7033702089975,,,,,,,,,,,,,,,,,,,,,,,,,,,,,,,,,,,311.70846241699473,311.7157575000019,311.7157575000019,312.20478287500737,r,1.0,0.4872034580039326,,,,,,sub-080,1,stroop_test,120.58065566266212,
,,,,67.0,7.0,5.0,,,,,,,,,,,,,gelb,yellow,g,1.0,g,1.0,0.674741916009225,,,,,,,,,,5.0,7.0,67.0,10.0,312.21151237499726,,,,,,,,,,,,,,,,,312.2055034170044,312.55309154199495,313.3482587500039,313.3364700420061,,,,,,,,,,,,,,,,,,,,,,,,,,,,,,,,,,,313.34092512499774,313.3482587500039,313.3482587500039,314.0272866250016,g,1.0,0.674741916009225,,,,,,sub-080,1,stroop_test,120.58065566266212,
,,,,68.0,8.0,5.0,,,,,,,,,,,,,gelb,yellow,g,1.0,g,1.0,0.3601579579990357,,,,,,,,,,5.0,8.0,68.0,11.0,314.0529457090015,,,,,,,,,,,,,,,,,314.0279017499997,314.8264377500018,315.62875350000104,315.62030716700247,,,,,,,,,,,,,,,,,,,,,,,,,,,,,,,,,,,315.6211110419972,315.62875350000104,315.62875350000104,315.9943150420004,g,1.0,0.3601579579990357,,,,,,sub-080,1,stroop_test,120.58065566266212,
,,,,69.0,9.0,5.0,,,,,,,,,,,,,gelb,red,r,0.0,r,1.0,0.4468741669988958,,,,,,,,,,5.0,9.0,69.0,8.0,316.0196520419995,,,,,,,,,,,,,,,,,315.9949698749988,316.34447370900307,317.1460751249979,317.1368893339968,,,,,,,,,,,,,,,,,,,,,,,,,,,,,,,,,,,317.1376674170024,317.1460751249979,317.1460751249979,317.6051977919997,r,1.0,0.4468741669988958,,,,,,sub-080,1,stroop_test,120.58065566266212,
,,,,70.0,10.0,5.0,,,,,,,,,,,,,rot,yellow,g,0.0,g,1.0,0.9249814990034791,,,,,,,,,,5.0,10.0,70.0,3.0,317.61621729200124,,,,,,,,,,,,,,,,,317.6059649170056,317.7033262920013,318.49902466700587,318.4869062090001,,,,,,,,,,,,,,,,,,,,,,,,,,,,,,,,,,,318.4911155000009,318.49902466700587,318.49902466700587,319.4276741250069,g,1.0,0.9249814990034791,,,,,,sub-080,1,stroop_test,120.58065566266212,
,,,,71.0,11.0,5.0,,,,,,,,,,,,,blau,blue,b,1.0,b,1.0,0.9180028330010828,,,,,,,,,,5.0,11.0,71.0,5.0,319.43866874999367,,,,,,,,,,,,,,,,,319.4282732090069,320.6277450839989,321.4320555839949,321.42033041699324,,,,,,,,,,,,,,,,,,,,,,,,,,,,,,,,,,,321.42467258400575,321.4320555839949,321.4320555839949,322.3546988339949,b,1.0,0.9180028330010828,,,,,,sub-080,1,stroop_test,120.58065566266212,
,,,,72.0,0.0,6.0,,,,,,,,,,,,,gelb,yellow,g,1.0,g,1.0,0.640221499998006,,,,,,,,,,6.0,0.0,72.0,10.0,322.36495020899747,,,,,,,,,,,,,,,,,322.3553094999952,323.1533082090027,323.94978320899827,323.93714708399784,,,,,,,,,,,,,,,,,,,,,,,,,,,,,,,,,,,323.9418811670039,323.94978320899827,323.94978320899827,324.5945728340012,g,1.0,0.640221499998006,,,,,,sub-080,1,stroop_test,120.58065566266212,
,,,,73.0,1.0,6.0,,,,,,,,,,,,,rot,red,r,1.0,r,1.0,0.5319144999957643,,,,,,,,,,6.0,1.0,73.0,0.0,324.60508070900687,,,,,,,,,,,,,,,,,324.59522787500464,325.793966792,326.59902266699646,326.5871567090071,,,,,,,,,,,,,,,,,,,,,,,,,,,,,,,,,,,326.59151425000164,326.59902266699646,326.59902266699646,327.13841058399703,r,1.0,0.5319144999957643,,,,,,sub-080,1,stroop_test,120.58065566266212,
,,,,74.0,2.0,6.0,,,,,,,,,,,,,rot,yellow,g,0.0,g,1.0,0.5598791660013376,,,,,,,,,,6.0,2.0,74.0,3.0,327.1480095000006,,,,,,,,,,,,,,,,,327.13903541699983,328.3371602919942,329.12903854199976,329.12061433399504,,,,,,,,,,,,,,,,,,,,,,,,,,,,,,,,,,,329.12140862499655,329.12903854199976,329.12903854199976,329.6943055419979,g,1.0,0.5598791660013376,,,,,,sub-080,1,stroop_test,120.58065566266212,
,,,,75.0,3.0,6.0,,,,,,,,,,,,,blau,blue,b,1.0,b,1.0,0.4780737909895833,,,,,,,,,,6.0,3.0,75.0,6.0,329.7039149170014,,,,,,,,,,,,,,,,,329.6948954999971,329.794726209002,330.5988685420016,330.58707766700536,,,,,,,,,,,,,,,,,,,,,,,,,,,,,,,,,,,330.5914204169967,330.5988685420016,330.5988685420016,331.0884351249988,b,1.0,0.4780737909895833,,,,,,sub-080,1,stroop_test,120.58065566266212,
,,,,76.0,4.0,6.0,,,,,,,,,,,,,blau,blue,b,1.0,b,1.0,0.6695202919945586,,,,,,,,,,6.0,4.0,76.0,5.0,331.0985307920055,,,,,,,,,,,,,,,,,331.0890533339989,331.8870572089945,332.67948070900457,332.67052749999857,,,,,,,,,,,,,,,,,,,,,,,,,,,,,,,,,,,332.67151029199886,332.67948070900457,332.67948070900457,333.3556442090048,b,1.0,0.6695202919945586,,,,,,sub-080,1,stroop_test,120.58065566266212,
,,,,77.0,5.0,6.0,,,,,,,,,,,,,gelb,red,r,0.0,r,1.0,0.5780067909945501,,,,,,,,,,6.0,5.0,77.0,8.0,333.36574187499355,,,,,,,,,,,,,,,,,333.35635095900216,333.70341258400003,334.49904395900376,334.4871753750049,,,,,,,,,,,,,,,,,,,,,,,,,,,,,,,,,,,334.4919132500072,334.49904395900376,334.49904395900376,335.0887024590047,r,1.0,0.5780067909945501,,,,,,sub-080,1,stroop_test,120.58065566266212,
,,,,78.0,6.0,6.0,,,,,,,,,,,,,blau,red,r,0.0,r,1.0,0.4299325000029057,,,,,,,,,,6.0,6.0,78.0,4.0,335.0980067500059,,,,,,,,,,,,,,,,,335.0893725420028,335.8869076669944,336.6850727090059,336.67095962500025,,,,,,,,,,,,,,,,,,,,,,,,,,,,,,,,,,,336.6774947090016,336.6850727090059,336.6850727090059,337.12203558400506,r,1.0,0.4299325000029057,,,,,,sub-080,1,stroop_test,120.58065566266212,
,,,,79.0,7.0,6.0,,,,,,,,,,,,,rot,blue,b,0.0,b,1.0,0.6073879579926142,,,,,,,,,,6.0,7.0,79.0,2.0,337.1322246250056,,,,,,,,,,,,,,,,,337.12273495900445,337.47057750000386,338.26670033400296,338.25406900000235,,,,,,,,,,,,,,,,,,,,,,,,,,,,,,,,,,,338.258844875003,338.26670033400296,338.26670033400296,338.8781420419982,b,1.0,0.6073879579926142,,,,,,sub-080,1,stroop_test,120.58065566266212,
,,,,80.0,8.0,6.0,,,,,,,,,,,,,blau,yellow,g,0.0,g,1.0,0.5332691249932395,,,,,,,,,,6.0,8.0,80.0,7.0,338.90364166699874,,,,,,,,,,,,,,,,,338.8787548340042,339.2285019999981,340.03375595899706,340.0207545000012,,,,,,,,,,,,,,,,,,,,,,,,,,,,,,,,,,,340.0263132919936,340.03375595899706,340.03375595899706,340.5720168340049,g,1.0,0.5332691249932395,,,,,,sub-080,1,stroop_test,120.58065566266212,
,,,,81.0,9.0,6.0,,,,,,,,,,,,,rot,red,r,1.0,r,1.0,1.3038454159977846,,,,,,,,,,6.0,9.0,81.0,1.0,340.58252358400205,,,,,,,,,,,,,,,,,340.5727452919964,341.37047433400585,342.1672255000012,342.1544275000051,,,,,,,,,,,,,,,,,,,,,,,,,,,,,,,,,,,342.15948841700447,342.1672255000012,342.1672255000012,343.4782470420032,r,1.0,1.3038454159977846,,,,,,sub-080,1,stroop_test,120.58065566266212,
,,,,82.0,10.0,6.0,,,,,,,,,,,,,gelb,blue,b,0.0,b,1.0,0.7153559990110807,,,,,,,,,,6.0,10.0,82.0,9.0,343.488914667003,,,,,,,,,,,,,,,,,343.4788872920035,344.2784483340074,345.08379212500586,345.0708943339996,,,,,,,,,,,,,,,,,,,,,,,,,,,,,,,,,,,345.0762053340004,345.08379212500586,345.08379212500586,345.8056347499951,b,1.0,0.7153559990110807,,,,,,sub-080,1,stroop_test,120.58065566266212,
,,,,83.0,11.0,6.0,,,,,,,,,,,,,gelb,yellow,g,1.0,g,1.0,0.6938879160006763,,,,,,,,,,6.0,11.0,83.0,11.0,345.81625324999914,,,,,,,,,,,,,,,,,345.8063822090044,346.1536856669991,346.94707574999484,346.9379116670025,,,,,,,,,,,,,,,,,,,,,,,,,,,,,,,,,,,346.9388581670064,346.94707574999484,346.94707574999484,347.64419337500294,g,1.0,0.6938879160006763,,,,,,sub-080,1,stroop_test,120.58065566266212,
,,,,84.0,0.0,7.0,,,,,,,,,,,,,blau,red,r,0.0,r,1.0,0.5305399169883458,,,,,,,,,,7.0,0.0,84.0,4.0,347.65329104200646,,,,,,,,,,,,,,,,,347.6447130419984,348.44401616700634,349.2395856249932,349.2267249169963,,,,,,,,,,,,,,,,,,,,,,,,,,,,,,,,,,,349.23151129200414,349.2395856249932,349.2395856249932,349.7722238749993,r,1.0,0.5305399169883458,,,,,,sub-080,1,stroop_test,120.58065566266212,
,,,,85.0,1.0,7.0,,,,,,,,,,,,,blau,yellow,g,0.0,g,1.0,0.4192729160131421,,,,,,,,,,7.0,1.0,85.0,7.0,349.781967834002,,,,,,,,,,,,,,,,,349.772847166998,350.57058770900767,351.37079279200407,351.3583760420006,,,,,,,,,,,,,,,,,,,,,,,,,,,,,,,,,,,351.3588466250076,351.37079279200407,351.37079279200407,351.7954537920013,g,1.0,0.4192729160131421,,,,,,sub-080,1,stroop_test,120.58065566266212,
,,,,86.0,2.0,7.0,,,,,,,,,,,,,blau,blue,b,1.0,b,1.0,0.3469895000016549,,,,,,,,,,7.0,2.0,86.0,6.0,351.8063343340036,,,,,,,,,,,,,,,,,351.7962501250004,352.99436325000715,353.787128750002,353.77717895900423,,,,,,,,,,,,,,,,,,,,,,,,,,,,,,,,,,,353.77800787500746,353.787128750002,353.787128750002,354.1391415420076,b,1.0,0.3469895000016549,,,,,,sub-080,1,stroop_test,120.58065566266212,
,,,,87.0,3.0,7.0,,,,,,,,,,,,,rot,blue,b,0.0,b,1.0,0.7823506660060957,,,,,,,,,,7.0,3.0,87.0,2.0,354.15049924999767,,,,,,,,,,,,,,,,,354.1399032089976,354.2378388750076,355.0348245000059,355.02131454199844,,,,,,,,,,,,,,,,,,,,,,,,,,,,,,,,,,,355.0275607920048,355.0348245000059,355.0348245000059,355.82241195900133,b,1.0,0.7823506660060957,,,,,,sub-080,1,stroop_test,120.58065566266212,
,,,,88.0,4.0,7.0,,,,,,,,,,,,,gelb,red,r,0.0,r,1.0,0.4963496249984018,,,,,,,,,,7.0,4.0,88.0,8.0,355.83399183400616,,,,,,,,,,,,,,,,,355.82316170900594,357.0207987920003,357.81674758400186,357.8044935420039,,,,,,,,,,,,,,,,,,,,,,,,,,,,,,,,,,,357.80955266700767,357.81674758400186,357.81674758400186,358.3231550420023,r,1.0,0.4963496249984018,,,,,,sub-080,1,stroop_test,120.58065566266212,
,,,,89.0,5.0,7.0,,,,,,,,,,,,,rot,yellow,g,0.0,g,1.0,0.5633167079940904,,,,,,,,,,7.0,5.0,89.0,3.0,358.33423079199565,,,,,,,,,,,,,,,,,358.32388858399645,359.1208727089979,359.9167638749932,359.90479812500416,,,,,,,,,,,,,,,,,,,,,,,,,,,,,,,,,,,359.9090180420026,359.9167638749932,359.9167638749932,360.4894898750063,g,1.0,0.5633167079940904,,,,,,sub-080,1,stroop_test,120.58065566266212,
,,,,90.0,6.0,7.0,,,,,,,,,,,,,rot,red,r,1.0,r,1.0,0.5863113749946933,,,,,,,,,,7.0,6.0,90.0,0.0,360.4996863340057,,,,,,,,,,,,,,,,,360.4901312919974,360.8376097500004,361.6278326669999,361.621151875006,,,,,,,,,,,,,,,,,,,,,,,,,,,,,,,,,,,361.62182029199903,361.6278326669999,361.6278326669999,362.22280716699606,r,1.0,0.5863113749946933,,,,,,sub-080,1,stroop_test,120.58065566266212,
,,,,91.0,7.0,7.0,,,,,,,,,,,,,gelb,yellow,g,1.0,g,1.0,0.6040981669939356,,,,,,,,,,7.0,7.0,91.0,11.0,362.2313388750045,,,,,,,,,,,,,,,,,362.2233384590072,363.02129745899583,363.8169912500016,363.8049213339982,,,,,,,,,,,,,,,,,,,,,,,,,,,,,,,,,,,363.809456959003,363.8169912500016,363.8169912500016,364.4228781249985,g,1.0,0.6040981669939356,,,,,,sub-080,1,stroop_test,120.58065566266212,
,,,,92.0,8.0,7.0,,,,,,,,,,,,,gelb,yellow,g,1.0,g,1.0,0.5254874159872998,,,,,,,,,,7.0,8.0,92.0,10.0,364.4290978750069,,,,,,,,,,,,,,,,,364.4236449589953,364.7713644169999,365.56353479200334,365.55479858399485,,,,,,,,,,,,,,,,,,,,,,,,,,,,,,,,,,,365.55573350000486,365.56353479200334,365.56353479200334,366.0953691670002,g,1.0,0.5254874159872998,,,,,,sub-080,1,stroop_test,120.58065566266212,
,,,,93.0,9.0,7.0,,,,,,,,,,,,,rot,red,r,1.0,r,1.0,0.4850605829997221,,,,,,,,,,7.0,9.0,93.0,1.0,366.1049904999964,,,,,,,,,,,,,,,,,366.095933042001,366.44445541700406,367.2400770420063,367.2275936670048,,,,,,,,,,,,,,,,,,,,,,,,,,,,,,,,,,,367.23183533399424,367.2400770420063,367.2400770420063,367.7286605840054,r,1.0,0.4850605829997221,,,,,,sub-080,1,stroop_test,120.58065566266212,
,,,,94.0,10.0,7.0,,,,,,,,,,,,,gelb,blue,b,0.0,b,1.0,0.7699367079912918,,,,,,,,,,7.0,10.0,94.0,9.0,367.7374035840039,,,,,,,,,,,,,,,,,367.7292668750015,368.92922095900576,369.7342797919992,369.7216594589991,,,,,,,,,,,,,,,,,,,,,,,,,,,,,,,,,,,369.7266922090057,369.7342797919992,369.7342797919992,370.5062027499953,b,1.0,0.7699367079912918,,,,,,sub-080,1,stroop_test,120.58065566266212,
,,,,95.0,11.0,7.0,,,,,,,,,,,,,blau,blue,b,1.0,b,1.0,0.3940759990073275,,,,,,,,,,7.0,11.0,95.0,5.0,370.51748341700295,,,,,,,,,,,,,,,,,370.50684779199946,371.7047590000002,372.50199941699975,372.4884406670026,,,,,,,,,,,,,,,,,,,,,,,,,,,,,,,,,,,372.4947551249934,372.50199941699975,372.50199941699975,372.9064871250012,b,1.0,0.3940759990073275,,,,,,sub-080,1,stroop_test,120.58065566266212,
,,,,96.0,0.0,8.0,,,,,,,,,,,,,blau,blue,b,1.0,b,1.0,0.4070467920100782,,,,,,,,,,8.0,0.0,96.0,5.0,372.91725445899647,,,,,,,,,,,,,,,,,372.907104124999,374.1046055839979,374.8962652920018,374.8882976250025,,,,,,,,,,,,,,,,,,,,,,,,,,,,,,,,,,,374.8889606669982,374.8962652920018,374.8962652920018,375.3063383749977,b,1.0,0.4070467920100782,,,,,,sub-080,1,stroop_test,120.58065566266212,
,,,,97.0,1.0,8.0,,,,,,,,,,,,,blau,yellow,g,0.0,g,1.0,0.6329024169972399,,,,,,,,,,8.0,1.0,97.0,7.0,375.3164792500029,,,,,,,,,,,,,,,,,375.3069490420021,376.1047504169983,376.8971474590071,376.8886444170057,,,,,,,,,,,,,,,,,,,,,,,,,,,,,,,,,,,376.8894681249949,376.8971474590071,376.8971474590071,377.540007292002,g,1.0,0.6329024169972399,,,,,,sub-080,1,stroop_test,120.58065566266212,
,,,,98.0,2.0,8.0,,,,,,,,,,,,,gelb,yellow,g,1.0,g,1.0,0.3950700410059653,,,,,,,,,,8.0,2.0,98.0,11.0,377.5507240000006,,,,,,,,,,,,,,,,,377.54066412500106,377.6381746249972,378.43503137500375,378.42193112500536,,,,,,,,,,,,,,,,,,,,,,,,,,,,,,,,,,,378.4271141250065,378.43503137500375,378.43503137500375,378.83995279199735,g,1.0,0.3950700410059653,,,,,,sub-080,1,stroop_test,120.58065566266212,
,,,,99.0,3.0,8.0,,,,,,,,,,,,,gelb,blue,b,0.0,b,1.0,0.5330890000041109,,,,,,,,,,8.0,3.0,99.0,9.0,378.8506701250008,,,,,,,,,,,,,,,,,378.8405835000012,379.6383218749979,380.4309582090064,380.4219024170016,,,,,,,,,,,,,,,,,,,,,,,,,,,,,,,,,,,380.4228723749984,380.4309582090064,380.4309582090064,380.97318470900063,b,1.0,0.5330890000041109,,,,,,sub-080,1,stroop_test,120.58065566266212,
,,,,100.0,4.0,8.0,,,,,,,,,,,,,gelb,red,r,0.0,r,1.0,0.8830660829989938,,,,,,,,,,8.0,4.0,100.0,8.0,380.9834971249948,,,,,,,,,,,,,,,,,380.97385004200623,381.7712945420062,382.564042375001,382.5553732090048,,,,,,,,,,,,,,,,,,,,,,,,,,,,,,,,,,,382.5561947499955,382.564042375001,382.564042375001,383.4564229170064,r,1.0,0.8830660829989938,,,,,,sub-080,1,stroop_test,120.58065566266212,
,,,,101.0,5.0,8.0,,,,,,,,,,,,,rot,red,r,1.0,r,1.0,0.4981463330041151,,,,,,,,,,8.0,5.0,101.0,1.0,383.46647087500605,,,,,,,,,,,,,,,,,383.4570643339976,383.80496104199847,384.60108004200447,384.5888000840059,,,,,,,,,,,,,,,,,,,,,,,,,,,,,,,,,,,384.5931215419987,384.60108004200447,384.60108004200447,385.1066725419951,r,1.0,0.4981463330041151,,,,,,sub-080,1,stroop_test,120.58065566266212,
,,,,102.0,6.0,8.0,,,,,,,,,,,,,blau,blue,b,1.0,b,1.0,0.6381324999965727,,,,,,,,,,8.0,6.0,102.0,6.0,385.1159867090028,,,,,,,,,,,,,,,,,385.10732095899584,385.204839500002,386.0010373749974,385.9888961249962,,,,,,,,,,,,,,,,,,,,,,,,,,,,,,,,,,,385.9936687500012,386.0010373749974,386.0010373749974,386.6461477090052,b,1.0,0.6381324999965727,,,,,,sub-080,1,stroop_test,120.58065566266212,
,,,,103.0,7.0,8.0,,,,,,,,,,,,,blau,red,r,0.0,r,1.0,1.1020811659982428,,,,,,,,,,8.0,7.0,103.0,4.0,386.6554222499981,,,,,,,,,,,,,,,,,386.6467843749997,386.99455812500673,387.7880417090055,387.77807124999526,,,,,,,,,,,,,,,,,,,,,,,,,,,,,,,,,,,387.7787720839988,387.7880417090055,387.7880417090055,388.8961955840059,r,1.0,1.1020811659982428,,,,,,sub-080,1,stroop_test,120.58065566266212,
,,,,104.0,8.0,8.0,,,,,,,,,,,,,rot,red,r,1.0,r,1.0,0.3916251659975387,,,,,,,,,,8.0,8.0,104.0,0.0,388.9054367500066,,,,,,,,,,,,,,,,,388.8968381669984,389.695133250003,390.4905835420068,390.4784875839978,,,,,,,,,,,,,,,,,,,,,,,,,,,,,,,,,,,390.4827547500026,390.4905835420068,390.4905835420068,390.8902289999969,r,1.0,0.3916251659975387,,,,,,sub-080,1,stroop_test,120.58065566266212,
,,,,105.0,9.0,8.0,,,,,,,,,,,,,gelb,yellow,g,1.0,g,1.0,0.522465292000561,,,,,,,,,,8.0,9.0,105.0,10.0,390.8996867920068,,,,,,,,,,,,,,,,,390.8909327919973,391.23835779199726,392.0368152500014,392.0224457500008,,,,,,,,,,,,,,,,,,,,,,,,,,,,,,,,,,,392.0292382500047,392.0368152500014,392.0368152500014,392.5629644169967,g,1.0,0.522465292000561,,,,,,sub-080,1,stroop_test,120.58065566266212,
,,,,106.0,10.0,8.0,,,,,,,,,,,,,rot,blue,b,0.0,b,1.0,0.5887281239993172,,,,,,,,,,8.0,10.0,106.0,2.0,392.5724619170069,,,,,,,,,,,,,,,,,392.563556167006,393.3628866250074,394.16745974999503,394.15565324999625,,,,,,,,,,,,,,,,,,,,,,,,,,,,,,,,,,,394.15980399999535,394.16745974999503,394.16745974999503,394.76322091699694,b,1.0,0.5887281239993172,,,,,,sub-080,1,stroop_test,120.58065566266212,
,,,,107.0,11.0,8.0,,,,,,,,,,,,,rot,yellow,g,0.0,g,1.0,1.0081803329958348,,,,,,,,,,8.0,11.0,107.0,3.0,394.7724827089987,,,,,,,,,,,,,,,,,394.7637861249968,394.86619320900354,395.6640782500035,395.6555787499965,,,,,,,,,,,,,,,,,,,,,,,,,,,,,,,,,,,395.6563511249988,395.6640782500035,395.6640782500035,396.67397533399344,g,1.0,1.0081803329958348,,,,,,sub-080,1,stroop_test,120.58065566266212,
,,,,108.0,0.0,9.0,,,,,,,,,,,,,blau,blue,b,1.0,b,1.0,0.4762298749992624,,,,,,,,,,9.0,0.0,108.0,6.0,396.6805124590028,,,,,,,,,,,,,,,,,396.6746472920058,397.02204424999945,397.8180900000007,397.8058656670037,,,,,,,,,,,,,,,,,,,,,,,,,,,,,,,,,,,397.8104277920065,397.8180900000007,397.8180900000007,398.2966092090064,b,1.0,0.4762298749992624,,,,,,sub-080,1,stroop_test,120.58065566266212,
,,,,109.0,1.0,9.0,,,,,,,,,,,,,rot,blue,b,0.0,b,1.0,0.3849762079917127,,,,,,,,,,9.0,1.0,109.0,2.0,398.3060278750054,,,,,,,,,,,,,,,,,398.29715491700335,398.39527670899406,399.2051772919949,399.1786842500005,,,,,,,,,,,,,,,,,,,,,,,,,,,,,,,,,,,399.1825712919963,399.2051772919949,399.2051772919949,399.5964957919932,b,1.0,0.3849762079917127,,,,,,sub-080,1,stroop_test,120.58065566266212,
,,,,110.0,2.0,9.0,,,,,,,,,,,,,gelb,blue,b,0.0,b,1.0,0.2922352080058772,,,,,,,,,,9.0,2.0,110.0,9.0,399.6222572919942,,,,,,,,,,,,,,,,,399.5971200420026,399.6957677089959,400.5010816249997,400.4891805420048,,,,,,,,,,,,,,,,,,,,,,,,,,,,,,,,,,,400.4933495839941,400.5010816249997,400.5010816249997,400.796689291994,b,1.0,0.2922352080058772,,,,,,sub-080,1,stroop_test,120.58065566266212,
,,,,111.0,3.0,9.0,,,,,,,,,,,,,gelb,yellow,g,1.0,g,1.0,0.7021292499994161,,,,,,,,,,9.0,3.0,111.0,10.0,400.8077865840023,,,,,,,,,,,,,,,,,400.7972697499936,401.9964431249973,402.7980559169955,402.7892400840065,,,,,,,,,,,,,,,,,,,,,,,,,,,,,,,,,,,402.7902029590041,402.7980559169955,402.7980559169955,403.5067981250031,g,1.0,0.7021292499994161,,,,,,sub-080,1,stroop_test,120.58065566266212,
,,,,112.0,4.0,9.0,,,,,,,,,,,,,rot,red,r,1.0,r,1.0,0.4132403749972582,,,,,,,,,,9.0,4.0,112.0,0.0,403.5157003339991,,,,,,,,,,,,,,,,,403.5073699170025,404.6969709169935,405.50200829199457,405.48925195900665,,,,,,,,,,,,,,,,,,,,,,,,,,,,,,,,,,,405.4939211669989,405.50200829199457,405.50200829199457,405.9244311670045,r,1.0,0.4132403749972582,,,,,,sub-080,1,stroop_test,120.58065566266212,
,,,,113.0,5.0,9.0,,,,,,,,,,,,,gelb,red,r,0.0,r,1.0,1.0621819160005543,,,,,,,,,,9.0,5.0,113.0,8.0,405.9345204999991,,,,,,,,,,,,,,,,,405.92515700000513,406.0221316670068,406.82010570900457,406.8059389590053,,,,,,,,,,,,,,,,,,,,,,,,,,,,,,,,,,,406.8129763750039,406.82010570900457,406.82010570900457,407.8906300420058,r,1.0,1.0621819160005543,,,,,,sub-080,1,stroop_test,120.58065566266212,
,,,,114.0,6.0,9.0,,,,,,,,,,,,,blau,red,r,0.0,r,1.0,0.6147342490003211,,,,,,,,,,9.0,6.0,114.0,4.0,407.8992529170064,,,,,,,,,,,,,,,,,407.89114916700055,409.0890491250029,409.8854878340062,409.8729425000056,,,,,,,,,,,,,,,,,,,,,,,,,,,,,,,,,,,409.8776590420021,409.8854878340062,409.8854878340062,410.5073039169947,r,1.0,0.6147342490003211,,,,,,sub-080,1,stroop_test,120.58065566266212,
,,,,115.0,7.0,9.0,,,,,,,,,,,,,blau,yellow,g,0.0,g,1.0,0.6862876250088448,,,,,,,,,,9.0,7.0,115.0,7.0,410.5172071249981,,,,,,,,,,,,,,,,,410.5079590420064,411.7056652500032,412.49806220899336,412.4896005000046,,,,,,,,,,,,,,,,,,,,,,,,,,,,,,,,,,,412.4903940840013,412.49806220899336,412.49806220899336,413.1909651669994,g,1.0,0.6862876250088448,,,,,,sub-080,1,stroop_test,120.58065566266212,
,,,,116.0,8.0,9.0,,,,,,,,,,,,,rot,red,r,1.0,r,1.0,0.4443857080041198,,,,,,,,,,9.0,8.0,116.0,1.0,413.2005240839935,,,,,,,,,,,,,,,,,413.1916217090038,413.539348374994,414.3357733339944,414.322901749998,,,,,,,,,,,,,,,,,,,,,,,,,,,,,,,,,,,414.32794337499945,414.3357733339944,414.3357733339944,414.79095662500185,r,1.0,0.4443857080041198,,,,,,sub-080,1,stroop_test,120.58065566266212,
,,,,117.0,9.0,9.0,,,,,,,,,,,,,blau,blue,b,1.0,b,1.0,0.3243224170000758,,,,,,,,,,9.0,9.0,117.0,5.0,414.8005258750054,,,,,,,,,,,,,,,,,414.79161166699487,415.1391635000036,415.9350130420062,415.9229070839938,,,,,,,,,,,,,,,,,,,,,,,,,,,,,,,,,,,415.9278490419965,415.9350130420062,415.9350130420062,416.263836625003,b,1.0,0.3243224170000758,,,,,,sub-080,1,stroop_test,120.58065566266212,
,,,,118.0,10.0,9.0,,,,,,,,,,,,,rot,yellow,g,0.0,g,1.0,0.368615832994692,,,,,,,,,,9.0,10.0,118.0,3.0,416.27486099999805,,,,,,,,,,,,,,,,,416.2645011249988,417.46398070899886,418.2687412920058,418.2564315000054,,,,,,,,,,,,,,,,,,,,,,,,,,,,,,,,,,,418.2612322500063,418.2687412920058,418.2687412920058,418.6411180839932,g,1.0,0.368615832994692,,,,,,sub-080,1,stroop_test,120.58065566266212,
,,,,119.0,11.0,9.0,,,,,,,,,,,,,gelb,yellow,g,1.0,g,1.0,0.5849447079963284,,,,,,,,,,9.0,11.0,119.0,11.0,418.6514510840061,,,,,,,,,,,,,,,,,418.6418293339957,418.9892962500016,419.7854851250013,419.7731798339955,,,,,,,,,,,,,,,,,,,,,,,,,,,,,,,,,,,419.7779885420023,419.7854851250013,419.7854851250013,420.374189167007,g,1.0,0.5849447079963284,,,,,,sub-080,1,stroop_test,120.58065566266212,
,,,,,,,,,,,,,,,,,,,,,,,,,,,,,,,,,,,,,,,,,,,,,,,,,,,,,,,,,,,,,,,,,,,,,,,,,,,,,,,,,,,,,,,,,,,,,,,,,,,,,,420.3745009999984,420.3858672089991,425.3783266670071,425.3734291669971,sub-080,1,stroop_test,120.58065566266212,
