"id","trial","direction","condition","corrAns","resp","corr","rt"
"sub-001",1,"right","speed","right","right",1,49.8312330000044
"sub-001",2,"left","speed","left","left",1,49.617169899997
"sub-001",3,"right","speed","right","right",1,49.3120258000126
"sub-001",4,"left","speed","left","left",1,49.5754870000092
"sub-001",5,"right","speed","right","right",1,50.5860735000024
"sub-001",6,"left","speed","left","left",1,49.5581247000082
"sub-001",7,"right","speed","right","left",0,51.8954813000018
"sub-001",8,"left","speed","left","left",1,56.5457336999971
"sub-001",9,"right","speed","right","left",0,53.3412977000116
"sub-001",10,"left","speed","left","right",0,49.6770546000043
"sub-001",11,"left","speed","left","right",0,54.3236560000078
"sub-001",12,"right","speed","right","left",0,54.2448074000131
"sub-001",13,"left","speed","left","right",0,55.6887622000067
"sub-001",14,"right","speed","right","right",1,50.7326577000058
"sub-001",15,"right","speed","right","left",0,52.021890700009
"sub-001",16,"left","speed","left","right",0,50.243520700009
"sub-001",17,"left","speed","left","left",1,53.9756994000054
"sub-001",18,"right","speed","right","right",1,51.0723937000148
"sub-001",19,"right","speed","right","right",1,49.8023222000047
"sub-001",20,"left","speed","left","left",1,50.0523631999968
"sub-001",21,"left","speed","left","left",1,49.9616354000027
"sub-001",22,"right","speed","right","right",1,52.4099779000098
"sub-001",23,"right","speed","right","left",0,52.1927943000046
"sub-001",24,"left","speed","left","right",0,51.5868382000044
"sub-001",25,"right","speed","right","right",1,51.3656576000067
"sub-001",26,"left","speed","left","left",1,49.5576910000091
"sub-001",27,"left","speed","left","left",1,50.0705553000153
"sub-001",28,"right","speed","right","right",1,52.3790108000103
"sub-001",29,"right","speed","right","right",1,50.1006395000149
"sub-001",30,"left","speed","left","left",1,49.6084483000013
"sub-001",31,"right","speed","right","right",1,51.0676007000147
"sub-001",32,"left","speed","left","left",1,49.6870997000078
"sub-001",33,"right","speed","right","right",1,49.788329700008
"sub-001",34,"left","speed","left","left",1,51.0597057000123
"sub-001",35,"left","speed","left","left",1,49.3758947000024
"sub-001",36,"right","speed","right","right",1,50.149373600012
"sub-001",37,"left","speed","left","left",1,54.2357545000123
"sub-001",38,"right","speed","right","right",1,50.0278987000056
"sub-001",39,"left","speed","left","left",1,50.0004768000072
"sub-001",40,"right","speed","right","right",1,50.8769584999973
"sub-001",41,"left","speed","left","left",1,50.6054756000085
"sub-001",42,"right","speed","right","right",1,51.2060171000048
"sub-001",43,"right","speed","right","right",1,54.0063636000123
"sub-001",44,"left","speed","left","right",0,51.2543517000013
"sub-001",45,"right","speed","right","left",0,49.8028751999955
"sub-001",46,"left","speed","left","left",1,49.5945527000003
"sub-001",47,"left","speed","left","left",1,49.5064695000037
"sub-001",48,"right","speed","right","right",1,50.5780978999974
"sub-001",49,"right","speed","right","left",0,50.5124603000004
"sub-001",50,"left","speed","left","left",1,50.548209200002
"sub-001",51,"right","speed","right","left",0,50.0382032000198
"sub-001",52,"left","speed","left","right",0,54.1708483999973
"sub-001",53,"left","speed","left","left",1,49.7902577000059
"sub-001",54,"right","speed","right","right",1,50.6464240000059
"sub-001",55,"left","speed","left","left",1,52.153538700004
"sub-001",56,"right","speed","right","right",1,49.5424652000074
"sub-001",57,"left","speed","left","left",1,49.7842864000122
"sub-001",58,"right","speed","right","right",1,49.5273903000052
"sub-001",59,"left","speed","left","left",1,49.4904382999957
"sub-001",60,"right","speed","right","right",1,49.3136476000072
"sub-001",1,"left","accuracy","left","left",1,49.5578948000039
"sub-001",2,"right","accuracy","right","right",1,49.2495916000044
"sub-001",3,"right","accuracy","right","right",1,49.9034988000058
"sub-001",4,"left","accuracy","left","left",1,49.6597406000074
"sub-001",5,"right","accuracy","right","right",1,49.8958393000066
"sub-001",6,"left","accuracy","left","left",1,49.3015711000044
"sub-001",7,"left","accuracy","left","left",1,49.4432135000097
"sub-001",8,"right","accuracy","right","right",1,49.3376102000038
"sub-001",9,"right","accuracy","right","right",1,49.3198355000059
"sub-001",10,"left","accuracy","left","left",1,49.2438298000052
"sub-001",11,"left","accuracy","left","left",1,50.1479651000118
"sub-001",12,"right","accuracy","right","right",1,49.2130712000071
"sub-001",13,"left","accuracy","left","left",1,49.5428512000071
"sub-001",14,"right","accuracy","right","right",1,49.1356954000075
"sub-001",15,"right","accuracy","right","left",0,51.5464487000136
"sub-001",16,"left","accuracy","left","left",1,53.1060320000106
"sub-001",17,"left","accuracy","left","left",1,49.5324415000068
"sub-001",18,"right","accuracy","right","right",1,49.6498524000053
"sub-001",19,"left","accuracy","left","left",1,50.3691935000097
"sub-001",20,"right","accuracy","right","left",0,50.2277552000014
"sub-001",21,"right","accuracy","right","right",1,51.2399049000087
"sub-001",22,"left","accuracy","left","left",1,51.806490100018
"sub-001",23,"right","accuracy","right","right",1,49.6075949000078
"sub-001",24,"left","accuracy","left","right",0,49.4626318999944
"sub-001",25,"left","accuracy","left","left",1,49.5856131000037
"sub-001",26,"right","accuracy","right","right",1,54.5261329000059
"sub-001",27,"left","accuracy","left","left",1,49.3607578999945
"sub-001",28,"right","accuracy","right","right",1,50.5936970000184
"sub-001",29,"right","accuracy","right","right",1,51.9970381000021
"sub-001",30,"left","accuracy","left","left",1,49.9572774000117
"sub-001",31,"left","accuracy","left","left",1,51.2826161000121
"sub-001",32,"right","accuracy","right","right",1,50.0510740000027
"sub-001",33,"left","accuracy","left","left",1,49.2044154000032
"sub-001",34,"right","accuracy","right","left",0,51.270714400016
"sub-001",35,"left","accuracy","left","left",1,49.4443223000126
"sub-001",36,"right","accuracy","right","left",0,51.0260470000067
"sub-001",37,"right","accuracy","right","right",1,50.1693374000024
"sub-001",38,"left","accuracy","left","left",1,50.3593309999997
"sub-001",39,"right","accuracy","right","right",1,51.6113435000007
"sub-001",40,"left","accuracy","left","left",1,52.3951144000021
"sub-001",41,"left","accuracy","left","left",1,54.0337506000069
"sub-001",42,"right","accuracy","right","right",1,50.6650911000033
"sub-001",43,"right","accuracy","right","left",0,53.9707474000024
"sub-001",44,"left","accuracy","left","left",1,50.4851755999989
"sub-001",45,"right","accuracy","right","right",1,49.5005771000142
"sub-001",46,"left","accuracy","left","left",1,49.6512646000047
"sub-001",47,"right","accuracy","right","right",1,49.639584900011
"sub-001",48,"left","accuracy","left","left",1,49.4760122000007
"sub-001",49,"right","accuracy","right","right",1,49.4356888000038
"sub-001",50,"left","accuracy","left","left",1,52.9045482000074
"sub-001",51,"right","accuracy","right","right",1,49.4588456000056
"sub-001",52,"left","accuracy","left","left",1,49.4385047000105
"sub-001",53,"left","accuracy","left","right",0,49.2172165000084
"sub-001",54,"right","accuracy","right","right",1,52.2043447000178
"sub-001",55,"left","accuracy","left","left",1,49.3822152000066
"sub-001",56,"right","accuracy","right","right",1,50.9899136000022
"sub-001",57,"left","accuracy","left","left",1,49.4796735000127
"sub-001",58,"right","accuracy","right","right",1,49.6509832000156
"sub-001",59,"left","accuracy","left","left",1,49.4186286000186
"sub-001",60,"right","accuracy","right","right",1,49.2157589999988
"sub-002",1,"right","speed","right","right",1,30.5037664999982
"sub-002",2,"left","speed","left","left",1,31.0350145999982
"sub-002",3,"left","speed","left","right",0,32.7022453999962
"sub-002",4,"right","speed","right","left",0,30.5004253000079
"sub-002",5,"right","speed","right","right",1,32.8654415000055
"sub-002",6,"left","speed","left","left",1,29.8762180000049
"sub-002",7,"left","speed","left","right",0,29.2750335000019
"sub-002",8,"right","speed","right","right",1,31.6034059000085
"sub-002",9,"left","speed","left","right",0,33.6370338999986
"sub-002",10,"right","speed","right","right",1,29.2912890000007
"sub-002",11,"right","speed","right","right",1,28.5664450000186
"sub-002",12,"left","speed","left","left",1,29.074010500015
"sub-002",13,"left","speed","left","left",1,28.9317403000023
"sub-002",14,"right","speed","right","right",1,29.0725346000108
"sub-002",15,"left","speed","left","left",1,28.6684099000122
"sub-002",16,"right","speed","right","right",1,28.9071046000026
"sub-002",17,"right","speed","right","left",0,29.4887162999948
"sub-002",18,"left","speed","left","left",1,28.9078734000068
"sub-002",19,"right","speed","right","right",1,28.8290480000142
"sub-002",20,"left","speed","left","left",1,29.9590308000043
"sub-002",21,"right","speed","right","right",1,30.5213988000032
"sub-002",22,"left","speed","left","left",1,29.9955199000105
"sub-002",23,"left","speed","left","left",1,30.135274500004
"sub-002",24,"right","speed","right","right",1,28.9633020000038
"sub-002",25,"right","speed","right","right",1,29.8894342000131
"sub-002",26,"left","speed","left","left",1,30.4343064999994
"sub-002",27,"left","speed","left","left",1,28.9181623000186
"sub-002",28,"right","speed","right","right",1,28.7117937000148
"sub-002",29,"left","speed","left","left",1,28.9014094000013
"sub-002",30,"right","speed","right","right",1,29.0295063000085
"sub-002",31,"right","speed","right","right",1,30.6441898000048
"sub-002",32,"left","speed","left","left",1,29.1724703000073
"sub-002",33,"right","speed","right","right",1,29.6074807999976
"sub-002",34,"left","speed","left","left",1,29.3927989000076
"sub-002",35,"left","speed","left","right",0,28.9626905000041
"sub-002",36,"right","speed","right","right",1,29.1069780000107
"sub-002",37,"right","speed","right","right",1,28.8946959000023
"sub-002",38,"left","speed","left","left",1,29.1931298000127
"sub-002",39,"left","speed","left","right",0,29.2158430000127
"sub-002",40,"right","speed","right","right",1,28.7556534000032
"sub-002",41,"right","speed","right","right",1,33.3440513000096
"sub-002",42,"left","speed","left","left",1,28.9343355000019
"sub-002",43,"right","speed","right","left",0,29.4131433000002
"sub-002",44,"left","speed","left","left",1,29.4245381000073
"sub-002",45,"right","speed","right","right",1,28.5768719000043
"sub-002",46,"left","speed","left","left",1,29.8907502000075
"sub-002",47,"right","speed","right","right",1,31.5951783000055
"sub-002",48,"left","speed","left","left",1,29.7513954000024
"sub-002",49,"right","speed","right","right",1,33.4922662000026
"sub-002",50,"left","speed","left","left",1,28.9005300000135
"sub-002",51,"right","speed","right","right",1,28.5449061999971
"sub-002",52,"left","speed","left","right",0,28.6928228000033
"sub-002",53,"right","speed","right","right",1,31.7284964000137
"sub-002",54,"left","speed","left","left",1,28.9560390999977
"sub-002",55,"left","speed","left","right",0,29.4136902000173
"sub-002",56,"right","speed","right","right",1,28.7379849000135
"sub-002",57,"right","speed","right","right",1,28.6719884000049
"sub-002",58,"left","speed","left","left",1,29.1129562999995
"sub-002",59,"right","speed","right","left",0,33.1847717000055
"sub-002",60,"left","speed","left","right",0,28.762573400003
"sub-002",1,"right","accuracy","right","right",1,28.8177770000038
"sub-002",2,"left","accuracy","left","left",1,29.0003255000047
"sub-002",3,"right","accuracy","right","right",1,28.6943241000117
"sub-002",4,"left","accuracy","left","left",1,28.5843756999966
"sub-002",5,"left","accuracy","left","left",1,29.8775469000102
"sub-002",6,"right","accuracy","right","right",1,28.9536281000037
"sub-002",7,"right","accuracy","right","right",1,28.6214505000098
"sub-002",8,"left","accuracy","left","left",1,29.3220015000115
"sub-002",9,"left","accuracy","left","left",1,30.8731698000047
"sub-002",10,"right","accuracy","right","right",1,28.7928447000158
"sub-002",11,"right","accuracy","right","right",1,32.9781229000073
"sub-002",12,"left","accuracy","left","left",1,30.2022863000166
"sub-002",13,"right","accuracy","right","right",1,29.0396759000141
"sub-002",14,"left","accuracy","left","left",1,29.655233100013
"sub-002",15,"right","accuracy","right","right",1,29.8124091000063
"sub-002",16,"left","accuracy","left","left",1,28.9773442000151
"sub-002",17,"right","accuracy","right","right",1,29.1328842999937
"sub-002",18,"left","accuracy","left","left",1,31.0730321000156
"sub-002",19,"left","accuracy","left","right",0,32.4653595000127
"sub-002",20,"right","accuracy","right","right",1,32.6751658000139
"sub-002",21,"left","accuracy","left","left",1,29.646026300019
"sub-002",22,"right","accuracy","right","right",1,29.2087946000102
"sub-002",23,"left","accuracy","left","left",1,29.3470329999982
"sub-002",24,"right","accuracy","right","right",1,29.3121809000149
"sub-002",25,"right","accuracy","right","right",1,30.4780014999997
"sub-002",26,"left","accuracy","left","left",1,28.5263929000066
"sub-002",27,"left","accuracy","left","left",1,28.657386100007
"sub-002",28,"right","accuracy","right","right",1,28.6237963000021
"sub-002",29,"left","accuracy","left","left",1,28.5981009000097
"sub-002",30,"right","accuracy","right","right",1,29.1707656000071
"sub-002",31,"left","accuracy","left","left",1,28.8053065000131
"sub-002",32,"right","accuracy","right","right",1,28.6317222000071
"sub-002",33,"right","accuracy","right","right",1,28.6473745999974
"sub-002",34,"left","accuracy","left","left",1,28.7690119000181
"sub-002",35,"left","accuracy","left","right",0,29.8140897000121
"sub-002",36,"right","accuracy","right","right",1,29.009080600008
"sub-002",37,"left","accuracy","left","left",1,30.2897601000004
"sub-002",38,"right","accuracy","right","right",1,29.6104564000125
"sub-002",39,"right","accuracy","right","left",0,31.2236809000024
"sub-002",40,"left","accuracy","left","left",1,31.2171918000095
"sub-002",41,"left","accuracy","left","left",1,31.1234108000062
"sub-002",42,"right","accuracy","right","right",1,30.553049500013
"sub-002",43,"left","accuracy","left","right",0,33.3553255000152
"sub-002",44,"right","accuracy","right","right",1,28.9787683000031
"sub-002",45,"right","accuracy","right","left",0,28.7405745000142
"sub-002",46,"left","accuracy","left","left",1,29.1352694000088
"sub-002",47,"left","accuracy","left","left",1,28.9283857999981
"sub-002",48,"right","accuracy","right","right",1,28.5705391000083
"sub-002",49,"left","accuracy","left","left",1,29.5690506000101
"sub-002",50,"right","accuracy","right","right",1,28.9956611999951
"sub-002",51,"left","accuracy","left","left",1,29.714088800014
"sub-002",52,"right","accuracy","right","right",1,31.1963730000134
"sub-002",53,"right","accuracy","right","left",0,30.9402454000083
"sub-002",54,"left","accuracy","left","left",1,30.8771465000027
"sub-002",55,"left","accuracy","left","right",0,29.0034283000132
"sub-002",56,"right","accuracy","right","right",1,28.8305715000024
"sub-002",57,"left","accuracy","left","left",1,28.8514900000009
"sub-002",58,"right","accuracy","right","right",1,28.9095399000071
"sub-002",59,"left","accuracy","left","left",1,28.8704451000085
"sub-002",60,"right","accuracy","right","right",1,31.1916403000068
"sub-003",1,"right","speed","right","right",1,34.9154181000195
"sub-003",2,"left","speed","left","left",1,35.3007589000044
"sub-003",3,"right","speed","right","left",0,34.5093877000181
"sub-003",4,"left","speed","left","left",1,34.4861478000093
"sub-003",5,"left","speed","left","right",0,34.2713946000149
"sub-003",6,"right","speed","right","left",0,34.7567630000121
"sub-003",7,"right","speed","right","right",1,34.6394940000027
"sub-003",8,"left","speed","left","left",1,34.6223711000202
"sub-003",9,"right","speed","right","left",0,34.5278381000098
"sub-003",10,"left","speed","left","right",0,34.5335529000149
"sub-003",11,"left","speed","left","left",1,34.5297192000144
"sub-003",12,"right","speed","right","right",1,34.019666600012
"sub-003",13,"left","speed","left","left",1,34.1094149000128
"sub-003",14,"right","speed","right","left",0,34.718354200013
"sub-003",15,"right","speed","right","right",1,34.9571630999999
"sub-003",16,"left","speed","left","right",0,34.3509221000131
"sub-003",17,"right","speed","right","left",0,34.6948905000172
"sub-003",18,"left","speed","left","left",1,34.6600323000166
"sub-003",19,"left","speed","left","right",0,34.7209652000165
"sub-003",20,"right","speed","right","left",0,34.506415300013
"sub-003",21,"left","speed","left","right",0,34.5600504000176
"sub-003",22,"right","speed","right","right",1,34.2835295999976
"sub-003",23,"right","speed","right","left",0,34.2727536000166
"sub-003",24,"left","speed","left","right",0,34.5820988000196
"sub-003",25,"right","speed","right","left",0,34.7506459000142
"sub-003",26,"left","speed","left","left",1,35.7014444000088
"sub-003",27,"left","speed","left","right",0,34.4507876000134
"sub-003",28,"right","speed","right","left",0,34.9852293000149
"sub-003",29,"right","speed","right","right",1,35.7262436000165
"sub-003",30,"left","speed","left","left",1,34.7589541000198
"sub-003",31,"left","speed","left","left",1,35.9905133000138
"sub-003",32,"right","speed","right","right",1,34.670672200009
"sub-003",33,"right","speed","right","left",0,35.6107033000153
"sub-003",34,"left","speed","left","right",0,35.8339401000121
"sub-003",35,"right","speed","right","right",1,35.4007148000092
"sub-003",36,"left","speed","left","left",1,36.0647499000042
"sub-003",37,"right","speed","right","right",1,35.6515299000166
"sub-003",38,"left","speed","left","left",1,34.628024900012
"sub-003",39,"left","speed","left","left",1,37.1513384000136
"sub-003",40,"right","speed","right","right",1,35.516424100002
"sub-003",41,"left","speed","left","left",1,34.974217400013
"sub-003",42,"right","speed","right","right",1,34.7985565000126
"sub-003",43,"right","speed","right","left",0,35.2394284000038
"sub-003",44,"left","speed","left","right",0,35.8595437000185
"sub-003",45,"right","speed","right","left",0,36.5204237000144
"sub-003",46,"left","speed","left","right",0,37.1231780000089
"sub-003",47,"left","speed","left","left",1,35.4347029000055
"sub-003",48,"right","speed","right","left",0,36.0835993000219
"sub-003",49,"right","speed","right","right",1,35.8837725000049
"sub-003",50,"left","speed","left","left",1,36.2780970000167
"sub-003",51,"left","speed","left","right",0,35.316270700001
"sub-003",52,"right","speed","right","left",0,36.568078500015
"sub-003",53,"left","speed","left","left",1,35.8345450000197
"sub-003",54,"right","speed","right","right",1,35.7532435000176
"sub-003",55,"left","speed","left","right",0,36.1886864000116
"sub-003",56,"right","speed","right","left",0,34.3706501000124
"sub-003",57,"right","speed","right","right",1,35.8171887000062
"sub-003",58,"left","speed","left","left",1,36.04201070001
"sub-003",59,"right","speed","right","left",0,34.2854626000044
"sub-003",60,"left","speed","left","right",0,34.4309932000033
"sub-003",1,"right","accuracy","right","right",1,38.7494113000139
"sub-003",2,"left","accuracy","left","left",1,37.290143700011
"sub-003",3,"left","accuracy","left","right",0,37.264568100014
"sub-003",4,"right","accuracy","right","left",0,35.9481294000143
"sub-003",5,"right","accuracy","right","right",1,34.9963712000026
"sub-003",6,"left","accuracy","left","left",1,35.4553648000146
"sub-003",7,"left","accuracy","left","right",0,35.417792799999
"sub-003",8,"right","accuracy","right","right",1,35.4810918000148
"sub-003",9,"left","accuracy","left","left",1,34.7807735000242
"sub-003",10,"right","accuracy","right","right",1,35.3498473000218
"sub-003",11,"right","accuracy","right","left",0,34.6038493000087
"sub-003",12,"left","accuracy","left","left",1,34.3668669000035
"sub-003",13,"right","accuracy","right","right",1,34.3216580000153
"sub-003",14,"left","accuracy","left","left",1,34.7318987000035
"sub-003",15,"left","accuracy","left","right",0,34.5587166000041
"sub-003",16,"right","accuracy","right","right",1,34.3695547000098
"sub-003",17,"right","accuracy","right","left",0,34.9795338000113
"sub-003",18,"left","accuracy","left","left",1,35.8019820000191
"sub-003",19,"left","accuracy","left","right",0,35.3811797000235
"sub-003",20,"right","accuracy","right","right",1,34.641253800015
"sub-003",21,"right","accuracy","right","left",0,35.8302211000118
"sub-003",22,"left","accuracy","left","right",0,34.6221800000058
"sub-003",23,"left","accuracy","left","right",0,34.7905963000085
"sub-003",24,"right","accuracy","right","left",0,35.2546852000232
"sub-003",25,"left","accuracy","left","left",1,35.7784143000172
"sub-003",26,"right","accuracy","right","left",0,35.7730514000141
"sub-003",27,"right","accuracy","right","left",0,35.5917956000048
"sub-003",28,"left","accuracy","left","left",1,35.9417243000062
"sub-003",29,"right","accuracy","right","right",1,35.0287670000107
"sub-003",30,"left","accuracy","left","left",1,34.9013594000135
"sub-003",31,"right","accuracy","right","right",1,34.7457633000158
"sub-003",32,"left","accuracy","left","left",1,35.1730219000165
"sub-003",33,"right","accuracy","right","right",1,34.4333960000076
"sub-003",34,"left","accuracy","left","left",1,35.0834529000131
"sub-003",35,"left","accuracy","left","right",0,35.125385700012
"sub-003",36,"right","accuracy","right","right",1,35.9399514000106
"sub-003",37,"right","accuracy","right","right",1,35.8781183000101
"sub-003",38,"left","accuracy","left","left",1,34.2174200000154
"sub-003",39,"left","accuracy","left","right",0,34.4066846000205
"sub-003",40,"right","accuracy","right","right",1,34.3803021000058
"sub-003",41,"right","accuracy","right","right",1,34.7763009000046
"sub-003",42,"left","accuracy","left","left",1,34.3852960000077
"sub-003",43,"left","accuracy","left","left",1,34.7934675000142
"sub-003",44,"right","accuracy","right","right",1,34.5226374000049
"sub-003",45,"left","accuracy","left","left",1,34.3915590000106
"sub-003",46,"right","accuracy","right","right",1,34.3475877000164
"sub-003",47,"right","accuracy","right","right",1,34.1810554000112
"sub-003",48,"left","accuracy","left","left",1,34.1573024000245
"sub-003",49,"left","accuracy","left","left",1,35.389516900017
"sub-003",50,"right","accuracy","right","right",1,34.486001000012
"sub-003",51,"left","accuracy","left","right",0,34.4201459000178
"sub-003",52,"right","accuracy","right","right",1,34.7552384000155
"sub-003",53,"left","accuracy","left","left",1,34.5277009000129
"sub-003",54,"right","accuracy","right","right",1,35.3522087000019
"sub-003",55,"left","accuracy","left","left",1,35.1188490000204
"sub-003",56,"right","accuracy","right","right",1,34.3427513000206
"sub-003",57,"left","accuracy","left","left",1,34.3103233000147
"sub-003",58,"right","accuracy","right","right",1,35.0873584000074
"sub-003",59,"left","accuracy","left","right",0,34.8266824000166
"sub-003",60,"right","accuracy","right","left",0,35.0959761999984
"sub-004",1,"left","speed","left","left",1,23.746771599981
"sub-004",2,"right","speed","right","right",1,24.285517900018
"sub-004",3,"right","speed","right","right",1,26.4976613000035
"sub-004",4,"left","speed","left","left",1,24.0464769999962
"sub-004",5,"right","speed","right","right",1,25.0591998000164
"sub-004",6,"left","speed","left","left",1,26.2008035999606
"sub-004",7,"right","speed","right","right",1,23.9399875000236
"sub-004",8,"left","speed","left","left",1,23.9299322000006
"sub-004",9,"left","speed","left","left",1,23.6404073000303
"sub-004",10,"right","speed","right","right",1,24.5439354000264
"sub-004",11,"left","speed","left","left",1,24.7422498000087
"sub-004",12,"right","speed","right","left",0,23.8519910999457
"sub-004",13,"right","speed","right","right",1,25.2446602000273
"sub-004",14,"left","speed","left","left",1,25.5910067000077
"sub-004",15,"left","speed","left","left",1,24.2448518999736
"sub-004",16,"right","speed","right","left",0,28.682905099995
"sub-004",17,"right","speed","right","right",1,26.7964838999906
"sub-004",18,"left","speed","left","left",1,23.5969714999665
"sub-004",19,"left","speed","left","left",1,24.3448602000135
"sub-004",20,"right","speed","right","right",1,24.4444668000215
"sub-004",21,"left","speed","left","left",1,24.4709985000081
"sub-004",22,"right","speed","right","right",1,28.234398200002
"sub-004",23,"right","speed","right","left",0,24.6717690000078
"sub-004",24,"left","speed","left","left",1,23.8270806000219
"sub-004",25,"left","speed","left","left",1,23.6697107999935
"sub-004",26,"right","speed","right","left",0,25.007000099984
"sub-004",27,"left","speed","left","left",1,23.6045841000159
"sub-004",28,"right","speed","right","left",0,24.388381900033
"sub-004",29,"left","speed","left","left",1,24.202158900036
"sub-004",30,"right","speed","right","left",0,24.8557653999887
"sub-004",31,"left","speed","left","left",1,24.2367041000398
"sub-004",32,"right","speed","right","left",0,25.1941458999645
"sub-004",33,"right","speed","right","right",1,26.2040092999814
"sub-004",34,"left","speed","left","left",1,23.5751329000341
"sub-004",35,"left","speed","left","left",1,23.6304976000101
"sub-004",36,"right","speed","right","right",1,25.1569630999584
"sub-004",37,"left","speed","left","left",1,23.6229331000359
"sub-004",38,"right","speed","right","left",0,24.8979106000042
"sub-004",39,"right","speed","right","left",0,24.4873764999793
"sub-004",40,"left","speed","left","left",1,24.2745012000087
"sub-004",41,"right","speed","right","right",1,24.6727905999869
"sub-004",42,"left","speed","left","left",1,25.7642395999865
"sub-004",43,"left","speed","left","left",1,23.7558174000005
"sub-004",44,"right","speed","right","right",1,27.068408399995
"sub-004",45,"left","speed","left","left",1,23.6885920999921
"sub-004",46,"right","speed","right","left",0,25.1497904999997
"sub-004",47,"left","speed","left","left",1,23.5385083000292
"sub-004",48,"right","speed","right","right",1,28.2284445999539
"sub-004",49,"left","speed","left","left",1,23.8701817999827
"sub-004",50,"right","speed","right","right",1,24.613890299981
"sub-004",51,"right","speed","right","left",0,23.8190229000174
"sub-004",52,"left","speed","left","left",1,23.5708012999967
"sub-004",53,"right","speed","right","right",1,25.4605823999736
"sub-004",54,"left","speed","left","left",1,23.9254168000189
"sub-004",55,"left","speed","left","left",1,24.0386258999933
"sub-004",56,"right","speed","right","right",1,25.1741872000275
"sub-004",57,"right","speed","right","right",1,24.8916128000128
"sub-004",58,"left","speed","left","right",0,27.4694282999844
"sub-004",59,"left","speed","left","right",0,25.9383784999955
"sub-004",60,"right","speed","right","left",0,26.126247499953
"sub-004",1,"left","accuracy","left","left",1,28.2332973999437
"sub-004",2,"right","accuracy","right","left",0,28.1979011999792
"sub-004",3,"left","accuracy","left","right",0,28.589136799972
"sub-004",4,"right","accuracy","right","right",1,28.3557108999812
"sub-004",5,"right","accuracy","right","right",1,28.2636134999921
"sub-004",6,"left","accuracy","left","left",1,25.5582528999657
"sub-004",7,"right","accuracy","right","right",1,25.5013070999994
"sub-004",8,"left","accuracy","left","left",1,23.8194592000218
"sub-004",9,"right","accuracy","right","left",0,28.6023758000229
"sub-004",10,"left","accuracy","left","left",1,27.9953914000071
"sub-004",11,"right","accuracy","right","left",0,28.3445484999684
"sub-004",12,"left","accuracy","left","left",1,23.7863823999651
"sub-004",13,"right","accuracy","right","left",0,25.071462199965
"sub-004",14,"left","accuracy","left","left",1,23.977799299988
"sub-004",15,"left","accuracy","left","left",1,24.3020225999644
"sub-004",16,"right","accuracy","right","right",1,28.1332903999719
"sub-004",17,"right","accuracy","right","right",1,24.3725894000381
"sub-004",18,"left","accuracy","left","left",1,25.1753316999529
"sub-004",19,"left","accuracy","left","left",1,27.0564218999934
"sub-004",20,"right","accuracy","right","right",1,25.1922468999983
"sub-004",21,"right","accuracy","right","right",1,25.9008652999764
"sub-004",22,"left","accuracy","left","left",1,24.8952471999801
"sub-004",23,"right","accuracy","right","right",1,28.1273822999792
"sub-004",24,"left","accuracy","left","left",1,23.6671941999812
"sub-004",25,"left","accuracy","left","left",1,23.4766966000316
"sub-004",26,"right","accuracy","right","right",1,25.0529416000354
"sub-004",27,"right","accuracy","right","right",1,23.7954054999864
"sub-004",28,"left","accuracy","left","left",1,24.895680400019
"sub-004",29,"right","accuracy","right","right",1,25.4181028999737
"sub-004",30,"left","accuracy","left","left",1,24.7616629000404
"sub-004",31,"right","accuracy","right","right",1,24.1508635000209
"sub-004",32,"left","accuracy","left","left",1,24.5135174999596
"sub-004",33,"right","accuracy","right","right",1,24.8248458000016
"sub-004",34,"left","accuracy","left","left",1,23.5207647000207
"sub-004",35,"right","accuracy","right","right",1,23.5943827999872
"sub-004",36,"left","accuracy","left","left",1,23.7462026999565
"sub-004",37,"right","accuracy","right","right",1,23.6919268000056
"sub-004",38,"left","accuracy","left","left",1,23.5155430000159
"sub-004",39,"left","accuracy","left","left",1,23.693834100035
"sub-004",40,"right","accuracy","right","right",1,26.2750763000222
"sub-004",41,"right","accuracy","right","right",1,29.8841910999618
"sub-004",42,"left","accuracy","left","left",1,23.6176144000492
"sub-004",43,"right","accuracy","right","right",1,26.4661359999445
"sub-004",44,"left","accuracy","left","left",1,23.7068809000193
"sub-004",45,"left","accuracy","left","left",1,23.5374477000441
"sub-004",46,"right","accuracy","right","left",0,24.089201499999
"sub-004",47,"left","accuracy","left","left",1,24.0577801999752
"sub-004",48,"right","accuracy","right","right",1,24.2104351999587
"sub-004",49,"right","accuracy","right","right",1,29.1224185999599
"sub-004",50,"left","accuracy","left","left",1,23.7287920999806
"sub-004",51,"left","accuracy","left","left",1,24.5614652999793
"sub-004",52,"right","accuracy","right","right",1,27.0734334000153
"sub-004",53,"right","accuracy","right","right",1,28.209340100002
"sub-004",54,"left","accuracy","left","left",1,23.8154044999974
"sub-004",55,"right","accuracy","right","left",0,24.2205596999847
"sub-004",56,"left","accuracy","left","left",1,23.8202662999975
"sub-004",57,"right","accuracy","right","right",1,27.1494934000075
"sub-004",58,"left","accuracy","left","left",1,24.1717025999678
"sub-004",59,"left","accuracy","left","left",1,24.7740327999927
"sub-004",60,"right","accuracy","right","right",1,24.9312429000274
"sub-005",1,"left","speed","left","right",0,19.0623085000552
"sub-005",2,"right","speed","right","left",0,20.4854936001357
"sub-005",3,"right","speed","right","right",1,21.9379346000496
"sub-005",4,"left","speed","left","left",1,21.7965644000797
"sub-005",5,"right","speed","right","right",1,21.3400778999785
"sub-005",6,"left","speed","left","left",1,21.4953271000413
"sub-005",7,"right","speed","right","right",1,21.9157302001258
"sub-005",8,"left","speed","left","left",1,19.3890648001106
"sub-005",9,"left","speed","left","left",1,18.8731630000984
"sub-005",10,"right","speed","right","right",1,18.3983253999613
"sub-005",11,"left","speed","left","left",1,18.4718085001223
"sub-005",12,"right","speed","right","right",1,19.0502368001034
"sub-005",13,"right","speed","right","left",0,20.3165332000935
"sub-005",14,"left","speed","left","left",1,20.9633242001291
"sub-005",15,"left","speed","left","right",0,20.1006756999996
"sub-005",16,"right","speed","right","left",0,19.8225466000149
"sub-005",17,"left","speed","left","right",0,18.4356875000522
"sub-005",18,"right","speed","right","left",0,20.9310870000627
"sub-005",19,"left","speed","left","left",1,21.2615129001206
"sub-005",20,"right","speed","right","right",1,17.6763503000839
"sub-005",21,"left","speed","left","left",1,20.9994882001774
"sub-005",22,"right","speed","right","right",1,19.3938783000922
"sub-005",23,"left","speed","left","left",1,20.8226088000229
"sub-005",24,"right","speed","right","right",1,18.3768448000774
"sub-005",25,"left","speed","left","left",1,23.4681546001229
"sub-005",26,"right","speed","right","right",1,21.1762044000207
"sub-005",27,"right","speed","right","right",1,16.9186555000488
"sub-005",28,"left","speed","left","right",0,17.5316551000578
"sub-005",29,"left","speed","left","left",1,17.4643736000871
"sub-005",30,"right","speed","right","right",1,19.9828834001673
"sub-005",31,"left","speed","left","left",1,17.5482277000556
"sub-005",32,"right","speed","right","right",1,18.446202000021
"sub-005",33,"left","speed","left","right",0,19.6358839001041
"sub-005",34,"right","speed","right","right",1,19.8158440000843
"sub-005",35,"right","speed","right","left",0,17.2043677000329
"sub-005",36,"left","speed","left","left",1,17.7471739000175
"sub-005",37,"right","speed","right","right",1,16.8988754000748
"sub-005",38,"left","speed","left","left",1,18.1918174000457
"sub-005",39,"right","speed","right","left",0,18.031025000033
"sub-005",40,"left","speed","left","left",1,18.2192966000875
"sub-005",41,"right","speed","right","right",1,19.3603843000019
"sub-005",42,"left","speed","left","right",0,16.7262076999759
"sub-005",43,"right","speed","right","left",0,17.3805770999752
"sub-005",44,"left","speed","left","right",0,18.2255213999888
"sub-005",45,"left","speed","left","left",1,17.4128795000724
"sub-005",46,"right","speed","right","right",1,17.4015982000856
"sub-005",47,"right","speed","right","right",1,20.1696476001525
"sub-005",48,"left","speed","left","right",0,18.2875777001027
"sub-005",49,"left","speed","left","left",1,17.3814276001649
"sub-005",50,"right","speed","right","right",1,17.3786835001083
"sub-005",51,"left","speed","left","left",1,17.809578500106
"sub-005",52,"right","speed","right","right",1,18.9752718000673
"sub-005",53,"right","speed","right","left",0,19.6021585999988
"sub-005",54,"left","speed","left","left",1,16.6801601001061
"sub-005",55,"left","speed","left","left",1,16.538080300088
"sub-005",56,"right","speed","right","left",0,17.0488824000349
"sub-005",57,"right","speed","right","right",1,16.7717908000341
"sub-005",58,"left","speed","left","left",1,17.2420826001326
"sub-005",59,"left","speed","left","left",1,16.8342881001299
"sub-005",60,"right","speed","right","right",1,16.3871285001514
"sub-005",1,"right","accuracy","right","right",1,16.9564118001144
"sub-005",2,"left","accuracy","left","left",1,18.3385201001074
"sub-005",3,"left","accuracy","left","left",1,18.4651700000977
"sub-005",4,"right","accuracy","right","right",1,18.098060999997
"sub-005",5,"left","accuracy","left","right",0,19.4541523000225
"sub-005",6,"right","accuracy","right","left",0,19.2943768000696
"sub-005",7,"left","accuracy","left","left",1,18.81149620004
"sub-005",8,"right","accuracy","right","right",1,21.0779748000205
"sub-005",9,"right","accuracy","right","left",0,23.1530222999863
"sub-005",10,"left","accuracy","left","left",1,21.0367606001673
"sub-005",11,"left","accuracy","left","right",0,22.0972310000798
"sub-005",12,"right","accuracy","right","left",0,19.1487441001227
"sub-005",13,"left","accuracy","left","right",0,18.9935092000524
"sub-005",14,"right","accuracy","right","right",1,17.0103809001157
"sub-005",15,"right","accuracy","right","left",0,17.890310900053
"sub-005",16,"left","accuracy","left","left",1,17.03296280012
"sub-005",17,"left","accuracy","left","left",1,16.5042203000048
"sub-005",18,"right","accuracy","right","right",1,19.673041800037
"sub-005",19,"left","accuracy","left","right",0,17.6129335000878
"sub-005",20,"right","accuracy","right","left",0,19.9562098000897
"sub-005",21,"right","accuracy","right","right",1,20.1162383001065
"sub-005",22,"left","accuracy","left","left",1,16.6169393000891
"sub-005",23,"right","accuracy","right","right",1,18.7874149001436
"sub-005",24,"left","accuracy","left","left",1,18.0545742000686
"sub-005",25,"left","accuracy","left","left",1,17.5492469000164
"sub-005",26,"right","accuracy","right","right",1,17.7265350000234
"sub-005",27,"left","accuracy","left","left",1,16.7244465000695
"sub-005",28,"right","accuracy","right","left",0,17.8017732001608
"sub-005",29,"right","accuracy","right","left",0,17.0680733000627
"sub-005",30,"left","accuracy","left","left",1,17.4163821000839
"sub-005",31,"left","accuracy","left","left",1,17.7817991999909
"sub-005",32,"right","accuracy","right","right",1,18.0735209000995
"sub-005",33,"right","accuracy","right","left",0,21.1427094000392
"sub-005",34,"left","accuracy","left","right",0,21.1406054000836
"sub-005",35,"left","accuracy","left","left",1,16.6577175999992
"sub-005",36,"right","accuracy","right","right",1,16.6616863000672
"sub-005",37,"left","accuracy","left","left",1,16.3546051001176
"sub-005",38,"right","accuracy","right","left",0,18.3635734000709
"sub-005",39,"left","accuracy","left","right",0,18.7108096000738
"sub-005",40,"right","accuracy","right","left",0,18.2744375001639
"sub-005",41,"right","accuracy","right","left",0,16.9731319000712
"sub-005",42,"left","accuracy","left","left",1,16.6251009000698
"sub-005",43,"left","accuracy","left","right",0,17.2131933000637
"sub-005",44,"right","accuracy","right","left",0,16.1713516000891
"sub-005",45,"left","accuracy","left","right",0,15.9234670000151
"sub-005",46,"right","accuracy","right","left",0,15.9048722001025
"sub-005",47,"right","accuracy","right","right",1,15.8378981001442
"sub-005",48,"left","accuracy","left","left",1,16.232860899996
"sub-005",49,"right","accuracy","right","right",1,16.4048404000932
"sub-005",50,"left","accuracy","left","left",1,16.1600791000528
"sub-005",51,"left","accuracy","left","right",0,17.3293741000816
"sub-005",52,"right","accuracy","right","left",0,16.1751959001413
"sub-005",53,"right","accuracy","right","right",1,16.6106079000747
"sub-005",54,"left","accuracy","left","left",1,16.149419000023
"sub-005",55,"right","accuracy","right","right",1,16.1548627000302
"sub-005",56,"left","accuracy","left","left",1,15.7683906999882
"sub-005",57,"right","accuracy","right","right",1,16.103608500096
"sub-005",58,"left","accuracy","left","left",1,16.0269393001217
"sub-005",59,"left","accuracy","left","right",0,16.3616375001147
"sub-005",60,"right","accuracy","right","right",1,16.4717386000557
"sub-006",1,"left","accuracy","left","left",1,18.9263559000101
"sub-006",2,"right","accuracy","right","right",1,15.0959765000734
"sub-006",3,"left","accuracy","left","left",1,18.2895074000116
"sub-006",4,"right","accuracy","right","right",1,14.9901606000494
"sub-006",5,"left","accuracy","left","left",1,16.7918112000916
"sub-006",6,"right","accuracy","right","right",1,15.6555938001256
"sub-006",7,"left","accuracy","left","left",1,15.4343779000919
"sub-006",8,"right","accuracy","right","right",1,15.0164285000646
"sub-006",9,"right","accuracy","right","right",1,19.1912312001223
"sub-006",10,"left","accuracy","left","left",1,15.2793134000385
"sub-006",11,"left","accuracy","left","left",1,20.17270500015
"sub-006",12,"right","accuracy","right","right",1,19.2847411000403
"sub-006",13,"left","accuracy","left","left",1,14.7591124001192
"sub-006",14,"right","accuracy","right","right",1,14.6861282000318
"sub-006",15,"right","accuracy","right","right",1,18.365906800027
"sub-006",16,"left","accuracy","left","left",1,14.5097854001215
"sub-006",17,"right","accuracy","right","right",1,14.5659881000174
"sub-006",18,"left","accuracy","left","left",1,19.3823352999752
"sub-006",19,"left","accuracy","left","left",1,17.5421435000608
"sub-006",20,"right","accuracy","right","right",1,14.473909500055
"sub-006",21,"left","accuracy","left","right",0,19.0855392001104
"sub-006",22,"right","accuracy","right","right",1,14.7616344001144
"sub-006",23,"left","accuracy","left","left",1,15.4962756000459
"sub-006",24,"right","accuracy","right","right",1,14.4348910000408
"sub-006",25,"left","accuracy","left","left",1,14.3605921000708
"sub-006",26,"right","accuracy","right","right",1,14.7472314999904
"sub-006",27,"right","accuracy","right","right",1,14.9886940000579
"sub-006",28,"left","accuracy","left","left",1,14.5005120000569
"sub-006",29,"right","accuracy","right","right",1,19.5655078000855
"sub-006",30,"left","accuracy","left","left",1,14.3510945000453
"sub-006",31,"left","accuracy","left","left",1,14.8271542000584
"sub-006",32,"right","accuracy","right","right",1,15.7017984000267
"sub-006",33,"right","accuracy","right","right",1,18.1516801000107
"sub-006",34,"left","accuracy","left","left",1,14.8983876000857
"sub-006",35,"left","accuracy","left","left",1,15.7582676999737
"sub-006",36,"right","accuracy","right","right",1,14.8990510000149
"sub-006",37,"left","accuracy","left","left",1,15.4202696001157
"sub-006",38,"right","accuracy","right","right",1,14.5539223001106
"sub-006",39,"right","accuracy","right","right",1,16.7534330000635
"sub-006",40,"left","accuracy","left","left",1,14.5052140001208
"sub-006",41,"left","accuracy","left","left",1,15.03391070012
"sub-006",42,"right","accuracy","right","right",1,17.4617918001022
"sub-006",43,"left","accuracy","left","left",1,15.1425109000411
"sub-006",44,"right","accuracy","right","right",1,16.8461562000448
"sub-006",45,"right","accuracy","right","left",0,16.0299828001298
"sub-006",46,"left","accuracy","left","left",1,15.0499272000743
"sub-006",47,"right","accuracy","right","right",1,17.9555873000063
"sub-006",48,"left","accuracy","left","left",1,14.4485502000898
"sub-006",49,"right","accuracy","right","right",1,17.7912672001403
"sub-006",50,"left","accuracy","left","left",1,14.426401700126
"sub-006",51,"right","accuracy","right","right",1,15.3336904000025
"sub-006",52,"left","accuracy","left","left",1,14.5072287999792
"sub-006",53,"right","accuracy","right","right",1,18.2619828999741
"sub-006",54,"left","accuracy","left","left",1,14.4576917000813
"sub-006",55,"left","accuracy","left","left",1,14.2877414000686
"sub-006",56,"right","accuracy","right","right",1,14.9770159000764
"sub-006",57,"right","accuracy","right","right",1,18.6873978000367
"sub-006",58,"left","accuracy","left","left",1,14.7123558000894
"sub-006",59,"right","accuracy","right","right",1,14.868102800101
"sub-006",60,"left","accuracy","left","left",1,14.5277977000223
"sub-006",1,"right","speed","right","right",1,14.6184089001035
"sub-006",2,"left","speed","left","left",1,14.1367215000791
"sub-006",3,"left","speed","left","left",1,14.3703426000429
"sub-006",4,"right","speed","right","left",0,14.9203733999748
"sub-006",5,"left","speed","left","left",1,14.3391744000837
"sub-006",6,"right","speed","right","right",1,14.5073667000979
"sub-006",7,"left","speed","left","left",1,14.3404048001394
"sub-006",8,"right","speed","right","right",1,14.5880016001174
"sub-006",9,"right","speed","right","left",0,14.8428767999867
"sub-006",10,"left","speed","left","left",1,14.499905899982
"sub-006",11,"right","speed","right","right",1,14.3044436001219
"sub-006",12,"left","speed","left","left",1,14.2358362000668
"sub-006",13,"right","speed","right","right",1,14.9995991000906
"sub-006",14,"left","speed","left","left",1,14.2448413000675
"sub-006",15,"right","speed","right","right",1,15.3102800000925
"sub-006",16,"left","speed","left","left",1,14.4210564000532
"sub-006",17,"right","speed","right","right",1,14.350464600022
"sub-006",18,"left","speed","left","left",1,14.2669167000568
"sub-006",19,"right","speed","right","right",1,14.2375360999722
"sub-006",20,"left","speed","left","left",1,14.0687491000863
"sub-006",21,"left","speed","left","right",0,14.0771774000023
"sub-006",22,"right","speed","right","right",1,14.2626287000021
"sub-006",23,"right","speed","right","right",1,14.3238200000487
"sub-006",24,"left","speed","left","left",1,14.2408323000418
"sub-006",25,"right","speed","right","right",1,14.5934902000008
"sub-006",26,"left","speed","left","left",1,14.239097300102
"sub-006",27,"left","speed","left","right",0,14.8247971000383
"sub-006",28,"right","speed","right","left",0,14.2656082999893
"sub-006",29,"left","speed","left","left",1,14.2733266999712
"sub-006",30,"right","speed","right","right",1,14.2726273000007
"sub-006",31,"left","speed","left","left",1,14.2143570000771
"sub-006",32,"right","speed","right","right",1,14.3128288000589
"sub-006",33,"left","speed","left","left",1,14.3035028000595
"sub-006",34,"right","speed","right","right",1,14.8426453000866
"sub-006",35,"right","speed","right","left",0,14.4160564000485
"sub-006",36,"left","speed","left","left",1,14.8138175000204
"sub-006",37,"right","speed","right","right",1,14.3112866000738
"sub-006",38,"left","speed","left","left",1,14.2927138999803
"sub-006",39,"left","speed","left","left",1,15.9267657001037
"sub-006",40,"right","speed","right","right",1,14.2815696001053
"sub-006",41,"right","speed","right","right",1,14.3791978000663
"sub-006",42,"left","speed","left","left",1,14.1458240000065
"sub-006",43,"left","speed","left","left",1,14.2658799000783
"sub-006",44,"right","speed","right","right",1,15.7115584000712
"sub-006",45,"left","speed","left","right",0,14.9841050000396
"sub-006",46,"right","speed","right","right",1,14.4649524000706
"sub-006",47,"left","speed","left","left",1,14.2184122001054
"sub-006",48,"right","speed","right","right",1,15.0257785001304
"sub-006",49,"right","speed","right","left",0,15.0079475000966
"sub-006",50,"left","speed","left","left",1,14.3106667000102
"sub-006",51,"left","speed","left","left",1,14.3104569001589
"sub-006",52,"right","speed","right","left",0,14.2790617999854
"sub-006",53,"right","speed","right","right",1,14.2833818000508
"sub-006",54,"left","speed","left","left",1,14.4303922000108
"sub-006",55,"right","speed","right","right",1,14.364249400096
"sub-006",56,"left","speed","left","left",1,14.4484755001031
"sub-006",57,"right","speed","right","right",1,15.0436601000838
"sub-006",58,"left","speed","left","left",1,14.2902221000986
"sub-006",59,"left","speed","left","left",1,14.2636624000734
"sub-006",60,"right","speed","right","right",1,14.1955341000576
"sub-007",1,"right","speed","right","right",1,0.653702184004942
"sub-007",2,"left","speed","left","right",0,0.582185796985868
"sub-007",3,"left","speed","left","left",1,1.38683706297888
"sub-007",4,"right","speed","right","right",1,0.955037053994602
"sub-007",5,"left","speed","left","right",0,0.499012704996858
"sub-007",6,"right","speed","right","left",0,0.692695937003009
"sub-007",7,"left","speed","left","left",1,1.49113630902139
"sub-007",8,"right","speed","right","right",1,1.04961009102408
"sub-007",9,"left","speed","left","right",0,0.690777653013356
"sub-007",10,"right","speed","right","left",0,0.793062126002042
"sub-007",11,"right","speed","right","left",0,0.826860981993377
"sub-007",12,"left","speed","left","left",1,0.645988468982978
"sub-007",13,"right","speed","right","right",1,0.633164692000719
"sub-007",14,"left","speed","left","left",1,2.01240973698441
"sub-007",15,"right","speed","right","right",1,1.5446416180057
"sub-007",16,"left","speed","left","left",1,0.66791764300433
"sub-007",17,"left","speed","left","right",0,0.49759398799506
"sub-007",18,"right","speed","right","left",0,0.651215924997814
"sub-007",19,"left","speed","left","left",1,0.54309178199037
"sub-007",20,"right","speed","right","right",1,0.556620155985001
"sub-007",21,"left","speed","left","left",1,0.482719046995044
"sub-007",22,"right","speed","right","left",0,0.866801256983308
"sub-007",23,"right","speed","right","right",1,0.734800724982051
"sub-007",24,"left","speed","left","left",1,0.981428858009167
"sub-007",25,"right","speed","right","left",0,3.01500572101213
"sub-007",26,"left","speed","left","right",0,0.5192105419992
"sub-007",27,"left","speed","left","left",1,0.684477825998329
"sub-007",28,"right","speed","right","right",1,0.592772817995865
"sub-007",29,"left","speed","left","left",1,0.540998706012033
"sub-007",30,"right","speed","right","right",1,1.14444608500344
"sub-007",31,"left","speed","left","right",0,1.1182322090026
"sub-007",32,"right","speed","right","right",1,1.25441913600662
"sub-007",33,"right","speed","right","right",1,1.00140825900598
"sub-007",34,"left","speed","left","left",1,0.597766877006507
"sub-007",35,"right","speed","right","right",1,2.47431287300424
"sub-007",36,"left","speed","left","left",1,0.642220592009835
"sub-007",37,"left","speed","left","left",1,0.921200895012589
"sub-007",38,"right","speed","right","right",1,0.727403121010866
"sub-007",39,"left","speed","left","left",1,0.811052367003867
"sub-007",40,"right","speed","right","right",1,1.22109574198839
"sub-007",41,"right","speed","right","left",0,2.2658919460082
"sub-007",42,"left","speed","left","right",0,0.868154410010902
"sub-007",43,"left","speed","left","right",0,0.808670188009273
"sub-007",44,"right","speed","right","right",1,1.11031086900039
"sub-007",45,"left","speed","left","left",1,0.531891815015115
"sub-007",46,"right","speed","right","left",0,0.699613907985622
"sub-007",47,"left","speed","left","right",0,0.614715497998986
"sub-007",48,"right","speed","right","right",1,0.805975010007387
"sub-007",49,"right","speed","right","left",0,0.533303417993011
"sub-007",50,"left","speed","left","left",1,0.713745629996993
"sub-007",51,"left","speed","left","left",1,1.37226241998724
"sub-007",52,"right","speed","right","left",0,1.08692457800498
"sub-007",53,"left","speed","left","right",0,0.723483267996926
"sub-007",54,"right","speed","right","right",1,1.45105308300117
"sub-007",55,"left","speed","left","left",1,0.678455851011677
"sub-007",56,"right","speed","right","right",1,0.847352090000641
"sub-007",57,"left","speed","left","left",1,0.727591281989589
"sub-007",58,"right","speed","right","right",1,0.669435082003474
"sub-007",59,"left","speed","left","left",1,0.700507939007366
"sub-007",60,"right","speed","right","right",1,1.62527110398514
"sub-007",1,"left","accuracy","left","left",1,3.20253832699382
"sub-007",2,"right","accuracy","right","right",1,2.42907254400779
"sub-007",3,"left","accuracy","left","left",1,2.3741522480268
"sub-007",4,"right","accuracy","right","right",1,0.903776857012417
"sub-007",5,"left","accuracy","left","left",1,1.60178874499979
"sub-007",6,"right","accuracy","right","right",1,1.05315075500403
"sub-007",7,"right","accuracy","right","right",1,0.59169536299305
"sub-007",8,"left","accuracy","left","right",0,0.688827202015091
"sub-007",9,"left","accuracy","left","right",0,1.11094832100207
"sub-007",10,"right","accuracy","right","left",0,2.46708198799752
"sub-007",11,"left","accuracy","left","left",1,1.12236899699201
"sub-007",12,"right","accuracy","right","right",1,2.17497823099256
"sub-007",13,"left","accuracy","left","left",1,0.760700985003496
"sub-007",14,"right","accuracy","right","right",1,0.464549559022998
"sub-007",15,"right","accuracy","right","left",0,0.528865086991573
"sub-007",16,"left","accuracy","left","right",0,0.745174764015246
"sub-007",17,"left","accuracy","left","right",0,0.80906327298726
"sub-007",18,"right","accuracy","right","right",1,0.783103879977716
"sub-007",19,"left","accuracy","left","left",1,0.828258284978801
"sub-007",20,"right","accuracy","right","right",1,1.16931571799796
"sub-007",21,"right","accuracy","right","right",1,0.778790004987968
"sub-007",22,"left","accuracy","left","left",1,0.635593277023872
"sub-007",23,"right","accuracy","right","left",0,0.778476703009801
"sub-007",24,"left","accuracy","left","right",0,0.752165522018913
"sub-007",25,"right","accuracy","right","right",1,1.08179215699784
"sub-007",26,"left","accuracy","left","left",1,0.728927620017203
"sub-007",27,"left","accuracy","left","right",0,0.641003390977858
"sub-007",28,"right","accuracy","right","right",1,1.388255672995
"sub-007",29,"right","accuracy","right","right",1,2.89718109698151
"sub-007",30,"left","accuracy","left","left",1,0.72191637699143
"sub-007",31,"left","accuracy","left","left",1,1.93180503000622
"sub-007",32,"right","accuracy","right","right",1,0.760115130018676
"sub-007",33,"right","accuracy","right","right",1,1.11376074401778
"sub-007",34,"left","accuracy","left","left",1,0.998034304997418
"sub-007",35,"left","accuracy","left","left",1,1.0802933749801
"sub-007",36,"right","accuracy","right","left",0,0.665120858990122
"sub-007",37,"right","accuracy","right","left",0,0.918276794982376
"sub-007",38,"left","accuracy","left","right",0,0.736897949012928
"sub-007",39,"right","accuracy","right","left",0,0.660746515000938
"sub-007",40,"left","accuracy","left","left",1,0.77087768597994
"sub-007",41,"right","accuracy","right","right",1,0.644622527994215
"sub-007",42,"left","accuracy","left","left",1,0.698425273993053
"sub-007",43,"right","accuracy","right","left",0,1.26995168300346
"sub-007",44,"left","accuracy","left","left",1,0.754795821994776
"sub-007",45,"right","accuracy","right","right",1,0.814657156006433
"sub-007",46,"left","accuracy","left","left",1,0.7368469699868
"sub-007",47,"right","accuracy","right","right",1,0.691123775002779
"sub-007",48,"left","accuracy","left","left",1,1.50093916399055
"sub-007",49,"left","accuracy","left","left",1,1.39507090800907
"sub-007",50,"right","accuracy","right","left",0,0.931093757011695
"sub-007",51,"right","accuracy","right","right",1,1.28802526497748
"sub-007",52,"left","accuracy","left","right",0,1.81951521898736
"sub-007",53,"left","accuracy","left","right",0,1.44935832801275
"sub-007",54,"right","accuracy","right","left",0,1.43031167201116
"sub-007",55,"right","accuracy","right","right",1,3.6393063889991
"sub-007",56,"left","accuracy","left","left",1,1.34494954900583
"sub-007",57,"left","accuracy","left","left",1,1.15890724898782
"sub-007",58,"right","accuracy","right","right",1,0.988665112003218
"sub-007",59,"right","accuracy","right","left",0,3.96716987699619
"sub-007",60,"left","accuracy","left","left",1,1.55518705901341
"sub-008",1,"right","accuracy","right","right",1,19.0970256
"sub-008",2,"left","accuracy","left","left",1,17.7740137999936
"sub-008",3,"left","accuracy","left","right",0,18.6525839999958
"sub-008",4,"right","accuracy","right","right",1,18.3237261999966
"sub-008",5,"right","accuracy","right","right",1,18.5502680999925
"sub-008",6,"left","accuracy","left","left",1,17.6059211999964
"sub-008",7,"left","accuracy","left","left",1,18.8061517999959
"sub-008",8,"right","accuracy","right","right",1,18.8764341999922
"sub-008",9,"left","accuracy","left","left",1,18.0135684999987
"sub-008",10,"right","accuracy","right","left",0,19.2216317999919
"sub-008",11,"right","accuracy","right","left",0,18.9008446999942
"sub-008",12,"left","accuracy","left","left",1,17.7013130999912
"sub-008",13,"right","accuracy","right","right",1,20.1312547999914
"sub-008",14,"left","accuracy","left","left",1,18.4093497999929
"sub-008",15,"left","accuracy","left","left",1,19.7064049999972
"sub-008",16,"right","accuracy","right","right",1,18.2772220999977
"sub-008",17,"right","accuracy","right","right",1,18.6300316999987
"sub-008",18,"left","accuracy","left","left",1,17.9790425999963
"sub-008",19,"right","accuracy","right","left",0,19.5690578999929
"sub-008",20,"left","accuracy","left","left",1,18.0960201999987
"sub-008",21,"left","accuracy","left","left",1,18.5292582999973
"sub-008",22,"right","accuracy","right","right",1,18.6864989999958
"sub-008",23,"left","accuracy","left","left",1,19.4807326000009
"sub-008",24,"right","accuracy","right","right",1,18.1120178999918
"sub-008",25,"left","accuracy","left","left",1,19.0662789999988
"sub-008",26,"right","accuracy","right","right",1,17.9447089999958
"sub-008",27,"left","accuracy","left","left",1,18.3489877999891
"sub-008",28,"right","accuracy","right","right",1,18.0086697999941
"sub-008",29,"right","accuracy","right","left",0,18.5526940999989
"sub-008",30,"left","accuracy","left","left",1,18.7206488999946
"sub-008",31,"left","accuracy","left","left",1,18.0305910999959
"sub-008",32,"right","accuracy","right","right",1,17.8790919999956
"sub-008",33,"left","accuracy","left","right",0,19.884567299996
"sub-008",34,"right","accuracy","right","right",1,18.1974937999985
"sub-008",35,"right","accuracy","right","right",1,17.9605757999961
"sub-008",36,"left","accuracy","left","left",1,17.9210278999963
"sub-008",37,"right","accuracy","right","right",1,18.1691720999952
"sub-008",38,"left","accuracy","left","left",1,19.7139363999959
"sub-008",39,"left","accuracy","left","left",1,19.1105685000002
"sub-008",40,"right","accuracy","right","right",1,18.889148000002
"sub-008",41,"left","accuracy","left","left",1,18.3508079999956
"sub-008",42,"right","accuracy","right","right",1,18.6191010999901
"sub-008",43,"right","accuracy","right","left",0,19.515754299995
"sub-008",44,"left","accuracy","left","left",1,18.0589497999972
"sub-008",45,"left","accuracy","left","right",0,19.1246593999967
"sub-008",46,"right","accuracy","right","right",1,18.5820416999995
"sub-008",47,"left","accuracy","left","left",1,18.0977629999907
"sub-008",48,"right","accuracy","right","right",1,18.2356296999933
"sub-008",49,"left","accuracy","left","left",1,18.3293361999968
"sub-008",50,"right","accuracy","right","right",1,18.9044189999986
"sub-008",51,"right","accuracy","right","left",0,18.928639400001
"sub-008",52,"left","accuracy","left","left",1,19.0739178999938
"sub-008",53,"right","accuracy","right","right",1,17.6999011000007
"sub-008",54,"left","accuracy","left","left",1,18.2422055999996
"sub-008",55,"left","accuracy","left","left",1,18.457464799998
"sub-008",56,"right","accuracy","right","right",1,18.4436815999943
"sub-008",57,"left","accuracy","left","left",1,18.4545224999965
"sub-008",58,"right","accuracy","right","right",1,18.929764499997
"sub-008",59,"right","accuracy","right","right",1,18.4778535000005
"sub-008",60,"left","accuracy","left","left",1,18.0553554999933
"sub-008",1,"left","speed","left","left",1,17.7023392999981
"sub-008",2,"right","speed","right","right",1,17.5978161999956
"sub-008",3,"right","speed","right","left",0,17.7106726999991
"sub-008",4,"left","speed","left","left",1,17.8090363999945
"sub-008",5,"left","speed","left","left",1,17.8557861000008
"sub-008",6,"right","speed","right","right",1,17.4566464999953
"sub-008",7,"left","speed","left","left",1,18.2186939999956
"sub-008",8,"right","speed","right","right",1,17.8886104999983
"sub-008",9,"right","speed","right","right",1,18.0129166999905
"sub-008",10,"left","speed","left","left",1,18.0519530999954
"sub-008",11,"right","speed","right","right",1,17.5430144999991
"sub-008",12,"left","speed","left","left",1,17.5569685000009
"sub-008",13,"right","speed","right","right",1,17.4324573999984
"sub-008",14,"left","speed","left","left",1,17.7170207999952
"sub-008",15,"left","speed","left","right",0,17.5419787999926
"sub-008",16,"right","speed","right","right",1,17.6453580999951
"sub-008",17,"left","speed","left","left",1,17.6664366999976
"sub-008",18,"right","speed","right","right",1,17.6155352999922
"sub-008",19,"left","speed","left","left",1,17.6708730999962
"sub-008",20,"right","speed","right","right",1,17.4821057999943
"sub-008",21,"left","speed","left","left",1,17.9290588000003
"sub-008",22,"right","speed","right","right",1,17.5199932999967
"sub-008",23,"right","speed","right","right",1,18.0786670999951
"sub-008",24,"left","speed","left","left",1,17.7098577999932
"sub-008",25,"left","speed","left","left",1,17.8639519999924
"sub-008",26,"right","speed","right","right",1,17.8479575999954
"sub-008",27,"left","speed","left","left",1,18.1641941999915
"sub-008",28,"right","speed","right","right",1,17.855272899993
"sub-008",29,"left","speed","left","left",1,17.7308861999991
"sub-008",30,"right","speed","right","right",1,17.6408487999943
"sub-008",31,"left","speed","left","left",1,17.7078052999932
"sub-008",32,"right","speed","right","right",1,17.7000459999981
"sub-008",33,"left","speed","left","left",1,17.8010024999967
"sub-008",34,"right","speed","right","right",1,17.6892791999999
"sub-008",35,"left","speed","left","left",1,17.6054025999983
"sub-008",36,"right","speed","right","right",1,17.707115899997
"sub-008",37,"right","speed","right","right",1,17.6918549999973
"sub-008",38,"left","speed","left","left",1,17.7109480999934
"sub-008",39,"left","speed","left","right",0,17.6041307999985
"sub-008",40,"right","speed","right","right",1,17.840043199998
"sub-008",41,"right","speed","right","right",1,17.6918706999932
"sub-008",42,"left","speed","left","left",1,17.6414721999972
"sub-008",43,"right","speed","right","right",1,17.6380970999962
"sub-008",44,"left","speed","left","left",1,17.7859832999966
"sub-008",45,"right","speed","right","right",1,17.6016842999961
"sub-008",46,"left","speed","left","right",0,17.8349298999892
"sub-008",47,"left","speed","left","right",0,18.0106190999941
"sub-008",48,"right","speed","right","right",1,18.2048037999994
"sub-008",49,"right","speed","right","right",1,19.697484999997
"sub-008",50,"left","speed","left","left",1,17.8410663999966
"sub-008",51,"left","speed","left","left",1,18.2663155999981
"sub-008",52,"right","speed","right","right",1,17.8201813999985
"sub-008",53,"right","speed","right","left",0,17.8678816999964
"sub-008",54,"left","speed","left","left",1,18.3261721999952
"sub-008",55,"left","speed","left","left",1,18.3837681000004
"sub-008",56,"right","speed","right","right",1,18.0493713999967
"sub-008",57,"right","speed","right","right",1,18.5952972000014
"sub-008",58,"left","speed","left","left",1,18.0504694999981
"sub-008",59,"left","speed","left","left",1,18.399316499992
"sub-008",60,"right","speed","right","right",1,18.0634124999997
"sub-009",1,"right","speed","right","right",1,31.6185923
"sub-009",2,"left","speed","left","left",1,31.3574971
"sub-009",3,"right","speed","right","left",0,32.6591981
"sub-009",4,"left","speed","left","right",0,31.7737111
"sub-009",5,"right","speed","right","left",0,31.2596039
"sub-009",6,"left","speed","left","right",0,33.0998423
"sub-009",7,"left","speed","left","left",1,31.6460545
"sub-009",8,"right","speed","right","right",1,33.1726862
"sub-009",9,"left","speed","left","right",0,31.659594
"sub-009",10,"right","speed","right","left",0,31.3813719
"sub-009",11,"left","speed","left","left",1,32.2858873
"sub-009",12,"right","speed","right","right",1,31.1258901
"sub-009",13,"right","speed","right","right",1,31.2864575
"sub-009",14,"left","speed","left","left",1,32.2015109
"sub-009",15,"left","speed","left","right",0,33.259709
"sub-009",16,"right","speed","right","left",0,31.3077535
"sub-009",17,"right","speed","right","right",1,31.4643864
"sub-009",18,"left","speed","left","left",1,31.8313701
"sub-009",19,"right","speed","right","right",1,31.1716213
"sub-009",20,"left","speed","left","left",1,31.2303466
"sub-009",21,"right","speed","right","right",1,31.1987388
"sub-009",22,"left","speed","left","right",0,31.1423098
"sub-009",23,"left","speed","left","left",1,31.1815947
"sub-009",24,"right","speed","right","left",0,31.9361099
"sub-009",25,"right","speed","right","right",1,32.2515441
"sub-009",26,"left","speed","left","right",0,31.745916
"sub-009",27,"right","speed","right","left",0,32.3461385
"sub-009",28,"left","speed","left","left",1,32.1464956
"sub-009",29,"left","speed","left","right",0,31.6022307
"sub-009",30,"right","speed","right","left",0,33.4630037
"sub-009",31,"left","speed","left","right",0,31.7923302
"sub-009",32,"right","speed","right","left",0,31.2965211
"sub-009",33,"left","speed","left","right",0,32.7012265
"sub-009",34,"right","speed","right","right",1,31.2646156
"sub-009",35,"right","speed","right","left",0,32.0015168
"sub-009",36,"left","speed","left","right",0,32.1790549
"sub-009",37,"left","speed","left","left",1,32.0569951
"sub-009",38,"right","speed","right","right",1,32.0751239
"sub-009",39,"left","speed","left","right",0,31.5625331
"sub-009",40,"right","speed","right","left",0,32.1241853
"sub-009",41,"right","speed","right","right",1,32.0569083
"sub-009",42,"left","speed","left","right",0,33.4046075
"sub-009",43,"right","speed","right","left",0,32.1041619
"sub-009",44,"left","speed","left","right",0,32.1075857
"sub-009",45,"left","speed","left","left",1,31.7070939
"sub-009",46,"right","speed","right","right",1,33.1529738
"sub-009",47,"left","speed","left","right",0,31.4216538
"sub-009",48,"right","speed","right","left",0,31.7470743
"sub-009",49,"right","speed","right","right",1,32.9121267
"sub-009",50,"left","speed","left","right",0,32.4633571
"sub-009",51,"left","speed","left","left",1,31.9913614
"sub-009",52,"right","speed","right","left",0,32.177327
"sub-009",53,"left","speed","left","right",0,32.8588598
"sub-009",54,"right","speed","right","right",1,32.6299731
"sub-009",55,"left","speed","left","right",0,32.7375902
"sub-009",56,"right","speed","right","left",0,32.596984
"sub-009",57,"right","speed","right","right",1,32.0119591
"sub-009",58,"left","speed","left","left",1,32.7996605
"sub-009",59,"right","speed","right","left",0,33.3068148
"sub-009",60,"left","speed","left","right",0,31.213805
"sub-009",1,"right","accuracy","right","right",1,31.3064996
"sub-009",2,"left","accuracy","left","left",1,32.6498249
"sub-009",3,"right","accuracy","right","right",1,33.1915194
"sub-009",4,"left","accuracy","left","right",0,32.8244271
"sub-009",5,"right","accuracy","right","left",0,34.690806
"sub-009",6,"left","accuracy","left","left",1,34.0578026
"sub-009",7,"right","accuracy","right","right",1,32.4209918
"sub-009",8,"left","accuracy","left","left",1,32.3080966
"sub-009",9,"right","accuracy","right","right",1,32.6473295
"sub-009",10,"left","accuracy","left","left",1,33.2479309
"sub-009",11,"left","accuracy","left","right",0,31.4457155
"sub-009",12,"right","accuracy","right","right",1,32.2126915
"sub-009",13,"right","accuracy","right","left",0,32.7303638
"sub-009",14,"left","accuracy","left","right",0,31.9200523
"sub-009",15,"left","accuracy","left","left",1,32.4023116
"sub-009",16,"right","accuracy","right","right",1,31.770632
"sub-009",17,"right","accuracy","right","left",0,31.7580384
"sub-009",18,"left","accuracy","left","left",1,31.1872255
"sub-009",19,"right","accuracy","right","right",1,31.3626958
"sub-009",20,"left","accuracy","left","left",1,31.3984595
"sub-009",21,"left","accuracy","left","left",1,31.6627598
"sub-009",22,"right","accuracy","right","right",1,31.4494539
"sub-009",23,"right","accuracy","right","left",0,32.0522353
"sub-009",24,"left","accuracy","left","right",0,32.1720176
"sub-009",25,"right","accuracy","right","left",0,32.0716139
"sub-009",26,"left","accuracy","left","right",0,31.6129683
"sub-009",27,"right","accuracy","right","right",1,32.4575592
"sub-009",28,"left","accuracy","left","left",1,31.390256
"sub-009",29,"right","accuracy","right","left",0,31.3066923
"sub-009",30,"left","accuracy","left","left",1,31.6266071
"sub-009",31,"right","accuracy","right","right",1,31.4476145
"sub-009",32,"left","accuracy","left","right",0,31.5257646
"sub-009",33,"left","accuracy","left","left",1,31.7819768
"sub-009",34,"right","accuracy","right","right",1,31.8575085
"sub-009",35,"right","accuracy","right","left",0,31.2556829
"sub-009",36,"left","accuracy","left","right",0,32.3700334
"sub-009",37,"left","accuracy","left","left",1,31.2124326
"sub-009",38,"right","accuracy","right","right",1,31.2798809
"sub-009",39,"left","accuracy","left","left",1,30.8516874
"sub-009",40,"right","accuracy","right","right",1,31.1029916
"sub-009",41,"right","accuracy","right","left",0,31.465942
"sub-009",42,"left","accuracy","left","left",1,31.4368086
"sub-009",43,"right","accuracy","right","right",1,31.1337773
"sub-009",44,"left","accuracy","left","left",1,31.2300358
"sub-009",45,"left","accuracy","left","right",0,32.3351989
"sub-009",46,"right","accuracy","right","left",0,31.3406752
"sub-009",47,"right","accuracy","right","right",1,31.6701567
"sub-009",48,"left","accuracy","left","left",1,31.2009561
"sub-009",49,"left","accuracy","left","right",0,31.5037287
"sub-009",50,"right","accuracy","right","left",0,31.2510933
"sub-009",51,"left","accuracy","left","left",1,31.2340591
"sub-009",52,"right","accuracy","right","right",1,31.1018746
"sub-009",53,"right","accuracy","right","right",1,31.3407834
"sub-009",54,"left","accuracy","left","left",1,31.1491966
"sub-009",55,"left","accuracy","left","left",1,31.1531882
"sub-009",56,"right","accuracy","right","right",1,31.540949
"sub-009",57,"left","accuracy","left","left",1,31.2261527
"sub-009",58,"right","accuracy","right","right",1,33.0031438
"sub-009",59,"left","accuracy","left","left",1,31.3146531
"sub-009",60,"right","accuracy","right","right",1,30.8237838
"sub-010",1,"left","accuracy","left","left",1,1.15697604099842
"sub-010",2,"right","accuracy","right","right",1,0.577911207998113
"sub-010",3,"right","accuracy","right","right",1,0.75199249999423
"sub-010",4,"left","accuracy","left","left",1,0.623700000003737
"sub-010",5,"left","accuracy","left","left",1,1.14161991699802
"sub-010",6,"right","accuracy","right","right",1,0.577419416993507
"sub-010",7,"right","accuracy","right","right",1,2.61629312500008
"sub-010",8,"left","accuracy","left","left",1,0.687952249994851
"sub-010",9,"right","accuracy","right","right",1,0.658871125000587
"sub-010",10,"left","accuracy","left","left",1,0.646577666004305
"sub-010",11,"left","accuracy","left","left",1,1.85639645800256
"sub-010",12,"right","accuracy","right","right",1,0.667708084001788
"sub-010",13,"right","accuracy","right","right",1,1.35109195800032
"sub-010",14,"left","accuracy","left","left",1,1.41691333299968
"sub-010",15,"left","accuracy","left","left",1,1.04523137499928
"sub-010",16,"right","accuracy","right","right",1,0.684013457997935
"sub-010",17,"right","accuracy","right","right",1,1.56391870899824
"sub-010",18,"left","accuracy","left","left",1,0.695726291000028
"sub-010",19,"right","accuracy","right","right",1,1.57907429100305
"sub-010",20,"left","accuracy","left","left",1,0.715864541998599
"sub-010",21,"right","accuracy","right","right",1,1.53490845899796
"sub-010",22,"left","accuracy","left","left",1,0.816695041998173
"sub-010",23,"left","accuracy","left","left",1,0.71694587499951
"sub-010",24,"right","accuracy","right","right",1,1.04080683299981
"sub-010",25,"right","accuracy","right","right",1,1.61053350000293
"sub-010",26,"left","accuracy","left","left",1,0.685439749999205
"sub-010",27,"left","accuracy","left","left",1,1.64150120900013
"sub-010",28,"right","accuracy","right","right",1,0.667966333006916
"sub-010",29,"left","accuracy","left","left",1,0.775783334000153
"sub-010",30,"right","accuracy","right","right",1,0.709403166001721
"sub-010",31,"right","accuracy","right","right",1,1.09159758299938
"sub-010",32,"left","accuracy","left","left",1,0.601010749996931
"sub-010",33,"right","accuracy","right","right",1,0.666351167004905
"sub-010",34,"left","accuracy","left","left",1,0.699671334004961
"sub-010",35,"right","accuracy","right","right",1,1.33515629199974
"sub-010",36,"left","accuracy","left","left",1,0.620285584001977
"sub-010",37,"right","accuracy","right","right",1,0.720052208002016
"sub-010",38,"left","accuracy","left","left",1,0.729678625000815
"sub-010",39,"left","accuracy","left","left",1,1.76673412499804
"sub-010",40,"right","accuracy","right","right",1,1.4146093330055
"sub-010",41,"left","accuracy","left","left",1,1.14310645800288
"sub-010",42,"right","accuracy","right","right",1,0.806194832999608
"sub-010",43,"right","accuracy","right","right",1,1.50698795900098
"sub-010",44,"left","accuracy","left","left",1,0.857460708000872
"sub-010",45,"right","accuracy","right","right",1,0.815706916000636
"sub-010",46,"left","accuracy","left","left",1,0.690279082999041
"sub-010",47,"right","accuracy","right","right",1,1.16713887500373
"sub-010",48,"left","accuracy","left","left",1,0.691325583000435
"sub-010",49,"right","accuracy","right","right",1,1.41488775000471
"sub-010",50,"left","accuracy","left","left",1,0.869585292006377
"sub-010",51,"right","accuracy","right","right",1,1.3163062080057
"sub-010",52,"left","accuracy","left","left",1,0.580214249996061
"sub-010",53,"left","accuracy","left","left",1,0.778588041001058
"sub-010",54,"right","accuracy","right","right",1,0.770810624999285
"sub-010",55,"left","accuracy","left","left",1,1.19083420899551
"sub-010",56,"right","accuracy","right","right",1,0.71735500000068
"sub-010",57,"right","accuracy","right","right",1,1.33307804099604
"sub-010",58,"left","accuracy","left","left",1,1.16128929200204
"sub-010",59,"right","accuracy","right","right",1,1.00313358400308
"sub-010",60,"left","accuracy","left","left",1,1.08353841699864
"sub-010",1,"left","speed","left","left",1,0.648995374998776
"sub-010",2,"right","speed","right","right",1,0.573302458004036
"sub-010",3,"left","speed","left","left",1,0.58302654200088
"sub-010",4,"right","speed","right","right",1,0.616665165995073
"sub-010",5,"left","speed","left","left",1,0.658454749995144
"sub-010",6,"right","speed","right","right",1,0.559519832997466
"sub-010",7,"left","speed","left","left",1,0.513173958002881
"sub-010",8,"right","speed","right","right",1,0.809916332997091
"sub-010",9,"left","speed","left","left",1,0.545942749995447
"sub-010",10,"right","speed","right","right",1,0.608565665999777
"sub-010",11,"left","speed","left","left",1,0.623576457997842
"sub-010",12,"right","speed","right","right",1,0.646297833001881
"sub-010",13,"right","speed","right","right",1,0.72472379199462
"sub-010",14,"left","speed","left","left",1,0.567857750000258
"sub-010",15,"right","speed","right","right",1,0.72375791700324
"sub-010",16,"left","speed","left","left",1,0.807846458003041
"sub-010",17,"left","speed","left","left",1,0.497307290999743
"sub-010",18,"right","speed","right","right",1,0.568700165997143
"sub-010",19,"left","speed","left","left",1,0.606313875003252
"sub-010",20,"right","speed","right","right",1,0.767054167001334
"sub-010",21,"left","speed","left","left",1,0.499691541001084
"sub-010",22,"right","speed","right","right",1,0.588943458002177
"sub-010",23,"left","speed","left","left",1,0.466874625002674
"sub-010",24,"right","speed","right","right",1,0.852563832995656
"sub-010",25,"right","speed","right","right",1,0.617034167000384
"sub-010",26,"left","speed","left","left",1,0.482602291005605
"sub-010",27,"right","speed","right","right",1,0.536699457996292
"sub-010",28,"left","speed","left","left",1,0.420480249995307
"sub-010",29,"right","speed","right","right",1,0.601165834006679
"sub-010",30,"left","speed","left","left",1,0.612523582996801
"sub-010",31,"left","speed","left","left",1,0.657188791999943
"sub-010",32,"right","speed","right","right",1,0.772390125006496
"sub-010",33,"right","speed","right","right",1,0.811103625004762
"sub-010",34,"left","speed","left","left",1,0.507055834001221
"sub-010",35,"left","speed","left","left",1,0.6172059169985
"sub-010",36,"right","speed","right","right",1,1.00401237500046
"sub-010",37,"left","speed","left","left",1,0.774426333999145
"sub-010",38,"right","speed","right","right",1,0.573630665996461
"sub-010",39,"left","speed","left","left",1,1.07431395899766
"sub-010",40,"right","speed","right","right",1,0.623920874997566
"sub-010",41,"left","speed","left","left",1,0.593138416996226
"sub-010",42,"right","speed","right","right",1,0.61329066700273
"sub-010",43,"left","speed","left","left",1,0.499979375003022
"sub-010",44,"right","speed","right","right",1,0.916171290999046
"sub-010",45,"right","speed","right","right",1,0.647794541997428
"sub-010",46,"left","speed","left","left",1,0.565873209001438
"sub-010",47,"left","speed","left","left",1,0.925501708006777
"sub-010",48,"right","speed","right","right",1,0.473701750001055
"sub-010",49,"right","speed","right","right",1,0.573351166000066
"sub-010",50,"left","speed","left","left",1,0.506489457999123
"sub-010",51,"right","speed","right","right",1,0.642087958003685
"sub-010",52,"left","speed","left","left",1,0.470533250001608
"sub-010",53,"right","speed","right","right",1,0.626295957998082
"sub-010",54,"left","speed","left","left",1,0.533165958993777
"sub-010",55,"left","speed","left","left",1,0.580652374999772
"sub-010",56,"right","speed","right","right",1,0.696102624999185
"sub-010",57,"right","speed","right","right",1,0.742802708999079
"sub-010",58,"left","speed","left","left",1,0.538593333003519
"sub-010",59,"right","speed","right","right",1,0.662001958000474
"sub-010",60,"left","speed","left","left",1,0.635729374997027
"sub-011",1,"right","accuracy","right","right",1,1.3711006659978
"sub-011",2,"left","accuracy","left","left",1,2.65922583299835
"sub-011",3,"right","accuracy","right","right",1,2.53305954100142
"sub-011",4,"left","accuracy","left","left",1,0.43567987500137
"sub-011",5,"left","accuracy","left","right",0,3.79218750000291
"sub-011",6,"right","accuracy","right","left",0,2.97114808400147
"sub-011",7,"right","accuracy","right","right",1,1.04203004200099
"sub-011",8,"left","accuracy","left","left",1,0.826878542000486
"sub-011",9,"right","accuracy","right","right",1,0.692102542001521
"sub-011",10,"left","accuracy","left","left",1,0.576209584000026
"sub-011",11,"left","accuracy","left","right",0,2.90719854199779
"sub-011",12,"right","accuracy","right","right",1,1.73504366699854
"sub-011",13,"left","accuracy","left","left",1,0.611740500000451
"sub-011",14,"right","accuracy","right","right",1,0.740314165999735
"sub-011",15,"left","accuracy","left","left",1,0.64394404199993
"sub-011",16,"right","accuracy","right","right",1,0.610294707999856
"sub-011",17,"left","accuracy","left","left",1,0.623682833000203
"sub-011",18,"right","accuracy","right","right",1,0.545311334000871
"sub-011",19,"left","accuracy","left","left",1,0.475175999999919
"sub-011",20,"right","accuracy","right","right",1,0.479390832999343
"sub-011",21,"right","accuracy","right","right",1,0.534500999998272
"sub-011",22,"left","accuracy","left","left",1,0.472077791000629
"sub-011",23,"left","accuracy","left","left",1,0.640542917000857
"sub-011",24,"right","accuracy","right","right",1,0.757618332998391
"sub-011",25,"right","accuracy","right","right",1,2.15178779100097
"sub-011",26,"left","accuracy","left","left",1,0.541575082999771
"sub-011",27,"right","accuracy","right","right",1,0.582432166000217
"sub-011",28,"left","accuracy","left","left",1,0.462194499999896
"sub-011",29,"right","accuracy","right","right",1,0.500882917000126
"sub-011",30,"left","accuracy","left","right",0,2.88795779200154
"sub-011",31,"right","accuracy","right","right",1,1.37019566599702
"sub-011",32,"left","accuracy","left","left",1,0.457152041999507
"sub-011",33,"left","accuracy","left","left",1,1.27537187500275
"sub-011",34,"right","accuracy","right","right",1,2.21373333300289
"sub-011",35,"right","accuracy","right","right",1,2.16906645800191
"sub-011",36,"left","accuracy","left","left",1,1.8140035840006
"sub-011",37,"right","accuracy","right","right",1,0.877717667000979
"sub-011",38,"left","accuracy","left","left",1,1.21732308300125
"sub-011",39,"left","accuracy","left","right",0,2.90205662500011
"sub-011",40,"right","accuracy","right","right",1,1.99452945799931
"sub-011",41,"left","accuracy","left","left",1,1.46132524999848
"sub-011",42,"right","accuracy","right","right",1,0.907547291997616
"sub-011",43,"right","accuracy","right","right",1,0.918657707999955
"sub-011",44,"left","accuracy","left","left",1,0.781932709000102
"sub-011",45,"right","accuracy","right","right",1,0.880730959001085
"sub-011",46,"left","accuracy","left","left",1,0.789697708001768
"sub-011",47,"right","accuracy","right","right",1,0.786338624999189
"sub-011",48,"left","accuracy","left","left",1,0.784676415998547
"sub-011",49,"left","accuracy","left","left",1,2.02975333300128
"sub-011",50,"right","accuracy","right","right",1,2.44093995900039
"sub-011",51,"left","accuracy","left","left",1,0.751202082999953
"sub-011",52,"right","accuracy","right","right",1,0.860062165997078
"sub-011",53,"left","accuracy","left","left",1,0.938051165998331
"sub-011",54,"right","accuracy","right","right",1,0.705323124999268
"sub-011",55,"right","accuracy","right","right",1,1.75756683300278
"sub-011",56,"left","accuracy","left","left",1,0.91901295900243
"sub-011",57,"right","accuracy","right","right",1,1.38995500000237
"sub-011",58,"left","accuracy","left","left",1,1.42441233300269
"sub-011",59,"right","accuracy","right","right",1,2.95081645800019
"sub-011",60,"left","accuracy","left","left",1,1.20246070800204
"sub-011",1,"right","speed","right","right",1,0.469695916999626
"sub-011",2,"left","speed","left","left",1,0.352859875001741
"sub-011",3,"left","speed","left","left",1,0.528550458002428
"sub-011",4,"right","speed","right","right",1,0.50824854199891
"sub-011",5,"right","speed","right","left",0,0.624127750001207
"sub-011",6,"left","speed","left","left",1,0.491351792003115
"sub-011",7,"right","speed","right","right",1,0.501433749999705
"sub-011",8,"left","speed","left","left",1,0.459383708999667
"sub-011",9,"right","speed","right","right",1,0.490387708003254
"sub-011",10,"left","speed","left","left",1,0.434907750001003
"sub-011",11,"left","speed","left","right",0,0.30804579100004
"sub-011",12,"right","speed","right","right",1,0.435533750001923
"sub-011",13,"right","speed","right","right",1,0.527454582999781
"sub-011",14,"left","speed","left","left",1,0.413426208000601
"sub-011",15,"left","speed","left","left",1,0.376371708000079
"sub-011",16,"right","speed","right","right",1,0.463100667002436
"sub-011",17,"left","speed","left","left",1,0.418734915998357
"sub-011",18,"right","speed","right","right",1,0.420779916999891
"sub-011",19,"left","speed","left","left",1,0.494152374998521
"sub-011",20,"right","speed","right","right",1,0.793473916997755
"sub-011",21,"left","speed","left","left",1,0.919515665998915
"sub-011",22,"right","speed","right","right",1,0.505284417002258
"sub-011",23,"right","speed","right","right",1,1.22181116600041
"sub-011",24,"left","speed","left","right",0,0.532894416002819
"sub-011",25,"left","speed","left","left",1,0.449628125003073
"sub-011",26,"right","speed","right","right",1,0.537039209000795
"sub-011",27,"left","speed","left","left",1,0.767150958999991
"sub-011",28,"right","speed","right","right",1,0.440080000000307
"sub-011",29,"left","speed","left","right",0,0.873698750001495
"sub-011",30,"right","speed","right","right",1,0.582375207999576
"sub-011",31,"left","speed","left","left",1,0.562505334000889
"sub-011",32,"right","speed","right","right",1,0.559898625000642
"sub-011",33,"left","speed","left","left",1,0.456136250002601
"sub-011",34,"right","speed","right","right",1,0.392129791998741
"sub-011",35,"right","speed","right","right",1,0.475797708997561
"sub-011",36,"left","speed","left","left",1,1.6142034580007
"sub-011",37,"left","speed","left","left",1,0.882355333000305
"sub-011",38,"right","speed","right","right",1,0.528686665998976
"sub-011",39,"left","speed","left","left",1,0.301848625000275
"sub-011",40,"right","speed","right","right",1,0.416106542001216
"sub-011",41,"right","speed","right","right",1,0.607003500001156
"sub-011",42,"left","speed","left","left",1,0.452395834003255
"sub-011",43,"right","speed","right","right",1,0.410857333001331
"sub-011",44,"left","speed","left","left",1,0.405848291000439
"sub-011",45,"right","speed","right","right",1,0.508302166999783
"sub-011",46,"left","speed","left","left",1,0.428649959001632
"sub-011",47,"left","speed","left","left",1,0.51502920799976
"sub-011",48,"right","speed","right","right",1,0.523523708001449
"sub-011",49,"left","speed","left","left",1,0.390188875000604
"sub-011",50,"right","speed","right","right",1,0.40590924999924
"sub-011",51,"left","speed","left","left",1,0.395109207998757
"sub-011",52,"right","speed","right","right",1,0.43990174999999
"sub-011",53,"right","speed","right","right",1,0.406401083000674
"sub-011",54,"left","speed","left","left",1,0.346774666999409
"sub-011",55,"right","speed","right","right",1,0.442779790999339
"sub-011",56,"left","speed","left","right",0,0.983944041003269
"sub-011",57,"right","speed","right","left",0,0.348160083998664
"sub-011",58,"left","speed","left","left",1,0.609213167001144
"sub-011",59,"left","speed","left","left",1,0.535109708998789
"sub-011",60,"right","speed","right","right",1,0.411681292000139
"sub-012",1,"right","speed","right","right",1,1.48891645800904
"sub-012",2,"left","speed","left","left",1,0.532754750005552
"sub-012",3,"left","speed","left","left",1,0.659380249999231
"sub-012",4,"right","speed","right","right",1,1.14081395800167
"sub-012",5,"left","speed","left","left",1,1.11800149999908
"sub-012",6,"right","speed","right","left",0,0.941995791989029
"sub-012",7,"right","speed","right","right",1,1.10224395799742
"sub-012",8,"left","speed","left","left",1,0.607289457999286
"sub-012",9,"right","speed","right","right",1,0.654044875002
"sub-012",10,"left","speed","left","left",1,0.846845416992437
"sub-012",11,"right","speed","right","right",1,0.722966666013235
"sub-012",12,"left","speed","left","left",1,0.499533459005761
"sub-012",13,"right","speed","right","right",1,0.512025582997012
"sub-012",14,"left","speed","left","left",1,0.54635629200493
"sub-012",15,"right","speed","right","right",1,0.500116292008897
"sub-012",16,"left","speed","left","left",1,0.539065290999133
"sub-012",17,"right","speed","right","right",1,0.42884433400468
"sub-012",18,"left","speed","left","left",1,0.506799208000302
"sub-012",19,"right","speed","right","right",1,0.590747666996322
"sub-012",20,"left","speed","left","left",1,0.530163667004672
"sub-012",21,"right","speed","right","right",1,0.735343708001892
"sub-012",22,"left","speed","left","left",1,0.431121708999854
"sub-012",23,"left","speed","left","left",1,0.540321583001059
"sub-012",24,"right","speed","right","right",1,0.383370541996555
"sub-012",25,"right","speed","right","right",1,0.755783250002423
"sub-012",26,"left","speed","left","left",1,0.390238292005961
"sub-012",27,"right","speed","right","right",1,0.466916207995382
"sub-012",28,"left","speed","left","left",1,0.366247375000967
"sub-012",29,"right","speed","right","right",1,0.409555790989543
"sub-012",30,"left","speed","left","left",1,0.484815666000941
"sub-012",31,"left","speed","left","left",1,0.67293441700167
"sub-012",32,"right","speed","right","right",1,0.372156583005562
"sub-012",33,"right","speed","right","right",1,0.796263417010778
"sub-012",34,"left","speed","left","left",1,0.406928875003359
"sub-012",35,"left","speed","left","left",1,0.890164333002758
"sub-012",36,"right","speed","right","right",1,0.52633095899364
"sub-012",37,"right","speed","right","right",1,0.489448874999653
"sub-012",38,"left","speed","left","left",1,0.399846750005963
"sub-012",39,"right","speed","right","right",1,0.564988833008101
"sub-012",40,"left","speed","left","left",1,0.56846266699722
"sub-012",41,"right","speed","right","right",1,0.629196916997898
"sub-012",42,"left","speed","left","left",1,0.388631750000059
"sub-012",43,"left","speed","left","left",1,0.830662166001275
"sub-012",44,"right","speed","right","right",1,0.767260084001464
"sub-012",45,"right","speed","right","right",1,0.725176040999941
"sub-012",46,"left","speed","left","left",1,0.464643416999024
"sub-012",47,"right","speed","right","right",1,0.486711290999665
"sub-012",48,"left","speed","left","left",1,0.856056499993429
"sub-012",49,"left","speed","left","left",1,0.973316457995679
"sub-012",50,"right","speed","right","right",1,1.62767254200298
"sub-012",51,"right","speed","right","right",1,1.86757858400233
"sub-012",52,"left","speed","left","left",1,0.46069529200031
"sub-012",53,"right","speed","right","right",1,0.51240287499968
"sub-012",54,"left","speed","left","left",1,0.513235291000456
"sub-012",55,"right","speed","right","right",1,0.453127208995284
"sub-012",56,"left","speed","left","left",1,0.489347499998985
"sub-012",57,"right","speed","right","right",1,0.490987040990149
"sub-012",58,"left","speed","left","left",1,0.478575540997554
"sub-012",59,"right","speed","right","right",1,0.482856125003309
"sub-012",60,"left","speed","left","left",1,0.398133750000852
"sub-012",1,"left","accuracy","left","left",1,2.44092533299408
"sub-012",2,"right","accuracy","right","right",1,0.492642167009762
"sub-012",3,"right","accuracy","right","left",0,0.467672083002981
"sub-012",4,"left","accuracy","left","left",1,0.530018083998584
"sub-012",5,"right","accuracy","right","right",1,0.516217750002397
"sub-012",6,"left","accuracy","left","left",1,0.570182541006943
"sub-012",7,"right","accuracy","right","right",1,1.12248308300332
"sub-012",8,"left","accuracy","left","left",1,0.601853375002975
"sub-012",9,"left","accuracy","left","left",1,2.78092283399019
"sub-012",10,"right","accuracy","right","right",1,1.25331200000073
"sub-012",11,"left","accuracy","left","left",1,0.69474729099602
"sub-012",12,"right","accuracy","right","right",1,0.630777292011771
"sub-012",13,"right","accuracy","right","right",1,0.869937916999334
"sub-012",14,"left","accuracy","left","left",1,0.505743625006289
"sub-012",15,"right","accuracy","right","right",1,0.533233082998777
"sub-012",16,"left","accuracy","left","left",1,0.506317916995613
"sub-012",17,"right","accuracy","right","right",1,0.945105083999806
"sub-012",18,"left","accuracy","left","left",1,0.418069332998129
"sub-012",19,"right","accuracy","right","right",1,0.683054334003828
"sub-012",20,"left","accuracy","left","left",1,0.418213875003857
"sub-012",21,"right","accuracy","right","right",1,0.437172208010452
"sub-012",22,"left","accuracy","left","left",1,0.483062790997792
"sub-012",23,"right","accuracy","right","right",1,0.53466250000929
"sub-012",24,"left","accuracy","left","left",1,0.284110458000214
"sub-012",25,"left","accuracy","left","left",1,0.722251249986584
"sub-012",26,"right","accuracy","right","right",1,0.406963625006028
"sub-012",27,"left","accuracy","left","left",1,0.672647917002905
"sub-012",28,"right","accuracy","right","right",1,0.398695166994003
"sub-012",29,"left","accuracy","left","left",1,0.45890800000052
"sub-012",30,"right","accuracy","right","right",1,0.35759779199725
"sub-012",31,"right","accuracy","right","right",1,0.692360333006945
"sub-012",32,"left","accuracy","left","left",1,0.400639542000135
"sub-012",33,"right","accuracy","right","right",1,0.296022250011447
"sub-012",34,"left","accuracy","left","left",1,0.519193291998818
"sub-012",35,"left","accuracy","left","left",1,0.556451041993569
"sub-012",36,"right","accuracy","right","right",1,0.3497424590023
"sub-012",37,"right","accuracy","right","right",1,0.83116895800049
"sub-012",38,"left","accuracy","left","left",1,0.460850834002485
"sub-012",39,"left","accuracy","left","right",0,0.437622957993881
"sub-012",40,"right","accuracy","right","right",1,0.669069042007322
"sub-012",41,"right","accuracy","right","right",1,0.711620417001541
"sub-012",42,"left","accuracy","left","left",1,0.716113000002224
"sub-012",43,"right","accuracy","right","right",1,0.526903374993708
"sub-012",44,"left","accuracy","left","left",1,0.434175791990128
"sub-012",45,"left","accuracy","left","left",1,0.446191374998307
"sub-012",46,"right","accuracy","right","right",1,0.506535541993799
"sub-012",47,"right","accuracy","right","right",1,0.490749249991495
"sub-012",48,"left","accuracy","left","left",1,0.333935457994812
"sub-012",49,"right","accuracy","right","right",1,0.48711495900352
"sub-012",50,"left","accuracy","left","left",1,0.534739291993901
"sub-012",51,"right","accuracy","right","right",1,0.329828750007437
"sub-012",52,"left","accuracy","left","left",1,0.511800499996752
"sub-012",53,"left","accuracy","left","left",1,0.495169292000355
"sub-012",54,"right","accuracy","right","right",1,0.340651374994195
"sub-012",55,"right","accuracy","right","right",1,0.597471332992427
"sub-012",56,"left","accuracy","left","left",1,0.393336749999435
"sub-012",57,"right","accuracy","right","right",1,0.37621712499822
"sub-012",58,"left","accuracy","left","left",1,0.433943374999217
"sub-012",59,"right","accuracy","right","right",1,0.541981458009104
"sub-012",60,"left","accuracy","left","left",1,0.494441457994981
"sub-013",1,"right","accuracy","right","right",1,25.4220589
"sub-013",2,"left","accuracy","left","left",1,25.3969967
"sub-013",3,"left","accuracy","left","right",0,24.8517393
"sub-013",4,"right","accuracy","right","left",0,24.9219567
"sub-013",5,"right","accuracy","right","right",1,26.9889268
"sub-013",6,"left","accuracy","left","right",0,25.2923851
"sub-013",7,"left","accuracy","left","right",0,25.3924585
"sub-013",8,"right","accuracy","right","left",0,24.6775704
"sub-013",9,"right","accuracy","right","right",1,22.1562143
"sub-013",10,"left","accuracy","left","left",1,22.9915888
"sub-013",11,"right","accuracy","right","right",1,22.8126377
"sub-013",12,"left","accuracy","left","left",1,25.0610318
"sub-013",13,"left","accuracy","left","right",0,24.6734595
"sub-013",14,"right","accuracy","right","left",0,25.7731484
"sub-013",15,"right","accuracy","right","right",1,25.6017421
"sub-013",16,"left","accuracy","left","left",1,24.9723551
"sub-013",17,"left","accuracy","left","right",0,25.3654481
"sub-013",18,"right","accuracy","right","right",1,24.6030687
"sub-013",19,"left","accuracy","left","right",0,24.6224936
"sub-013",20,"right","accuracy","right","left",0,25.095921
"sub-013",21,"right","accuracy","right","left",0,25.0148378
"sub-013",22,"left","accuracy","left","right",0,24.9570755
"sub-013",23,"left","accuracy","left","left",1,24.8445864
"sub-013",24,"right","accuracy","right","right",1,22.5400155
"sub-013",25,"right","accuracy","right","right",1,25.4023856
"sub-013",26,"left","accuracy","left","left",1,20.7515017
"sub-013",27,"left","accuracy","left","left",1,24.2293527
"sub-013",28,"right","accuracy","right","right",1,20.220108
"sub-013",29,"left","accuracy","left","left",1,21.827075
"sub-013",30,"right","accuracy","right","right",1,23.6451107
"sub-013",31,"right","accuracy","right","left",0,21.3044101
"sub-013",32,"left","accuracy","left","right",0,21.1938975
"sub-013",33,"right","accuracy","right","right",1,20.0754499
"sub-013",34,"left","accuracy","left","left",1,20.3482401
"sub-013",35,"left","accuracy","left","left",1,20.0131367
"sub-013",36,"right","accuracy","right","right",1,19.8300308
"sub-013",37,"left","accuracy","left","left",1,19.6858675
"sub-013",38,"right","accuracy","right","right",1,19.7073092
"sub-013",39,"left","accuracy","left","left",1,19.5942977
"sub-013",40,"right","accuracy","right","right",1,19.8905667
"sub-013",41,"right","accuracy","right","right",1,19.6349786
"sub-013",42,"left","accuracy","left","left",1,20.290663
"sub-013",43,"left","accuracy","left","left",1,19.8563588
"sub-013",44,"right","accuracy","right","right",1,19.9032776
"sub-013",45,"left","accuracy","left","left",1,19.6762005
"sub-013",46,"right","accuracy","right","right",1,19.7769993
"sub-013",47,"right","accuracy","right","right",1,19.7894768
"sub-013",48,"left","accuracy","left","left",1,19.8593693
"sub-013",49,"right","accuracy","right","right",1,19.5883799
"sub-013",50,"left","accuracy","left","left",1,19.9820491
"sub-013",51,"right","accuracy","right","right",1,19.690416
"sub-013",52,"left","accuracy","left","left",1,19.5857214
"sub-013",53,"left","accuracy","left","left",1,20.8097988
"sub-013",54,"right","accuracy","right","right",1,19.8695482
"sub-013",55,"right","accuracy","right","right",1,19.7372081
"sub-013",56,"left","accuracy","left","left",1,22.0005745
"sub-013",57,"left","accuracy","left","left",1,19.8810813
"sub-013",58,"right","accuracy","right","right",1,19.7906446
"sub-013",59,"right","accuracy","right","right",1,19.7058906
"sub-013",60,"left","accuracy","left","left",1,20.4057463
"sub-013",1,"left","speed","left","right",0,19.3061179
"sub-013",2,"right","speed","right","right",1,20.206882
"sub-013",3,"left","speed","left","left",1,19.6596612
"sub-013",4,"right","speed","right","right",1,19.8317133
"sub-013",5,"right","speed","right","right",1,21.4534047
"sub-013",6,"left","speed","left","right",0,22.6080858
"sub-013",7,"left","speed","left","left",1,19.9568345
"sub-013",8,"right","speed","right","right",1,19.8132811
"sub-013",9,"right","speed","right","right",1,21.6385176
"sub-013",10,"left","speed","left","left",1,19.9050808
"sub-013",11,"left","speed","left","left",1,19.7279955
"sub-013",12,"right","speed","right","right",1,19.9408391
"sub-013",13,"right","speed","right","right",1,21.4578218
"sub-013",14,"left","speed","left","left",1,22.9011562
"sub-013",15,"left","speed","left","right",0,22.2897681
"sub-013",16,"right","speed","right","right",1,20.969772
"sub-013",17,"left","speed","left","left",1,20.5739199
"sub-013",18,"right","speed","right","right",1,19.9767359
"sub-013",19,"left","speed","left","left",1,23.5595842
"sub-013",20,"right","speed","right","right",1,20.1857299
"sub-013",21,"right","speed","right","right",1,24.8342523
"sub-013",22,"left","speed","left","left",1,24.7900985
"sub-013",23,"left","speed","left","right",0,24.6485638
"sub-013",24,"right","speed","right","right",1,20.1587793
"sub-013",25,"right","speed","right","right",1,19.7949539
"sub-013",26,"left","speed","left","left",1,23.5384776
"sub-013",27,"right","speed","right","right",1,21.4028428
"sub-013",28,"left","speed","left","left",1,21.4005949
"sub-013",29,"left","speed","left","right",0,24.3564805
"sub-013",30,"right","speed","right","right",1,21.9817475
"sub-013",31,"left","speed","left","right",0,24.5027903
"sub-013",32,"right","speed","right","right",1,20.2442148
"sub-013",33,"right","speed","right","right",1,19.6889012
"sub-013",34,"left","speed","left","left",1,24.5177283
"sub-013",35,"left","speed","left","left",1,20.4975411
"sub-013",36,"right","speed","right","right",1,21.5759668
"sub-013",37,"right","speed","right","right",1,24.4956425
"sub-013",38,"left","speed","left","right",0,24.3020884
"sub-013",39,"right","speed","right","right",1,20.2587075
"sub-013",40,"left","speed","left","right",0,24.3763338
"sub-013",41,"left","speed","left","left",1,20.6638575
"sub-013",42,"right","speed","right","right",1,21.6807319
"sub-013",43,"left","speed","left","left",1,20.0229297
"sub-013",44,"right","speed","right","right",1,22.9449168
"sub-013",45,"right","speed","right","right",1,22.6506185
"sub-013",46,"left","speed","left","right",0,20.1350978
"sub-013",47,"left","speed","left","left",1,24.5401785
"sub-013",48,"right","speed","right","right",1,19.9317909
"sub-013",49,"left","speed","left","right",0,22.3505384
"sub-013",50,"right","speed","right","right",1,19.7284444
"sub-013",51,"left","speed","left","left",1,24.7493236
"sub-013",52,"right","speed","right","right",1,20.0895672
"sub-013",53,"right","speed","right","right",1,19.9232372
"sub-013",54,"left","speed","left","right",0,25.0801415
"sub-013",55,"right","speed","right","right",1,20.1213036
"sub-013",56,"left","speed","left","left",1,22.1617259
"sub-013",57,"right","speed","right","right",1,20.0398585
"sub-013",58,"left","speed","left","left",1,19.9815637
"sub-013",59,"right","speed","right","right",1,21.3712602
"sub-013",60,"left","speed","left","right",0,19.8494261
"sub-014",1,"left","speed","left","right",0,4.82044593800674
"sub-014",2,"right","speed","right","left",0,1.6149329040054
"sub-014",3,"right","speed","right","left",0,1.55076728499262
"sub-014",4,"left","speed","left","right",0,2.67147873599606
"sub-014",5,"right","speed","right","left",0,2.86513158999151
"sub-014",6,"left","speed","left","right",0,2.83208424199256
"sub-014",7,"right","speed","right","right",1,6.73323438799707
"sub-014",8,"left","speed","left","left",1,4.37791248600115
"sub-014",9,"left","speed","left","right",0,1.22417330399912
"sub-014",10,"right","speed","right","left",0,1.98051727199345
"sub-014",11,"right","speed","right","right",1,2.00955269200495
"sub-014",12,"left","speed","left","left",1,1.42258713000047
"sub-014",13,"right","speed","right","right",1,2.62331069099309
"sub-014",14,"left","speed","left","left",1,1.03201282199007
"sub-014",15,"left","speed","left","left",1,4.63134604299557
"sub-014",16,"right","speed","right","right",1,2.59627556600026
"sub-014",17,"right","speed","right","left",0,1.11869604499952
"sub-014",18,"left","speed","left","right",0,1.7035341069859
"sub-014",19,"right","speed","right","left",0,1.59726989000046
"sub-014",20,"left","speed","left","left",1,1.60303475799446
"sub-014",21,"right","speed","right","left",0,3.57619511798839
"sub-014",22,"left","speed","left","right",0,3.1380897850031
"sub-014",23,"right","speed","right","left",0,8.04217742900073
"sub-014",24,"left","speed","left","right",0,3.15285735799989
"sub-014",25,"left","speed","left","left",1,1.04576644800545
