"id","trial","word","color","congruent","condition","resp","corr","rt"
"sub-001",1,"blau","blue",1,"congruent","b",1,0.578418799996143
"sub-001",2,"blau","yellow",0,"incongruent","g",1,0.549999599999865
"sub-001",3,"blau","blue",1,"congruent","b",1,0.505155999999261
"sub-001",4,"rot","red",1,"congruent","r",1,0.458586599997943
"sub-001",5,"gelb","red",0,"incongruent","r",1,0.500887199988938
"sub-001",6,"rot","red",1,"congruent","r",1,0.350879499994335
"sub-001",7,"gelb","yellow",1,"congruent","g",1,0.394683899998199
"sub-001",8,"rot","yellow",0,"incongruent","r",0,0.706246000001556
"sub-001",9,"rot","blue",0,"incongruent","b",1,0.65336730000854
"sub-001",10,"blau","red",0,"incongruent","r",1,0.791197800004738
"sub-001",11,"gelb","yellow",1,"congruent","g",1,0.550844000012148
"sub-001",12,"gelb","blue",0,"incongruent","b",1,0.329110400009085
"sub-001",13,"blau","yellow",0,"incongruent","g",1,0.517154600005597
"sub-001",14,"blau","blue",1,"congruent","b",1,0.567738800004008
"sub-001",15,"rot","red",1,"congruent","r",1,0.436171699999249
"sub-001",16,"gelb","yellow",1,"congruent","g",1,0.499038299996755
"sub-001",17,"rot","red",1,"congruent","r",1,0.424301399994874
"sub-001",18,"blau","blue",1,"congruent","b",1,0.367809899995336
"sub-001",19,"gelb","blue",0,"incongruent","b",1,0.506531799997902
"sub-001",20,"rot","yellow",0,"incongruent","g",1,0.711746500004665
"sub-001",21,"gelb","red",0,"incongruent","r",1,0.518550499997218
"sub-001",22,"blau","red",0,"incongruent","r",1,0.551179699992645
"sub-001",23,"rot","blue",0,"incongruent","b",1,0.508683399995789
"sub-001",24,"gelb","yellow",1,"congruent","g",1,0.447900699989987
"sub-001",25,"blau","blue",1,"congruent","b",1,0.52969719999237
"sub-001",26,"gelb","red",0,"incongruent","r",1,0.784242599998834
"sub-001",27,"gelb","yellow",1,"congruent","g",1,0.476323599999887
"sub-001",28,"rot","red",1,"congruent","r",1,0.36225760000525
"sub-001",29,"blau","yellow",0,"incongruent","g",1,0.790538800007198
"sub-001",30,"gelb","yellow",1,"congruent","g",1,0.466253200007486
"sub-001",31,"blau","blue",1,"congruent","b",1,0.465220900005079
"sub-001",32,"rot","red",1,"congruent","r",1,0.403334900009213
"sub-001",33,"gelb","blue",0,"incongruent","b",1,0.394358299992746
"sub-001",34,"blau","red",0,"incongruent","r",1,0.384349599989946
"sub-001",35,"rot","yellow",0,"incongruent","g",1,0.357766000000993
"sub-001",36,"rot","blue",0,"incongruent","b",1,0.362730499997269
"sub-001",37,"blau","red",0,"incongruent","g",0,0.440156800003024
"sub-001",38,"blau","blue",1,"congruent","b",1,0.503045000004931
"sub-001",39,"gelb","yellow",1,"congruent","g",1,0.563927199997124
"sub-001",40,"blau","yellow",0,"incongruent","g",1,0.476774599999771
"sub-001",41,"rot","red",1,"congruent","r",1,0.405146799996146
"sub-001",42,"gelb","yellow",1,"congruent","r",0,0.310361800002283
"sub-001",43,"gelb","blue",0,"incongruent","b",1,1.14558349999425
"sub-001",44,"rot","yellow",0,"incongruent","g",1,1.46930070000235
"sub-001",45,"blau","blue",1,"congruent","b",1,0.515486500007682
"sub-001",46,"rot","red",1,"congruent","r",1,0.474530600011349
"sub-001",47,"rot","blue",0,"incongruent","b",1,0.741991400005645
"sub-001",48,"gelb","red",0,"incongruent","r",1,0.531762500002515
"sub-001",49,"rot","blue",0,"incongruent","b",1,0.64938699999766
"sub-001",50,"gelb","blue",0,"incongruent","b",1,0.437473899990437
"sub-001",51,"gelb","yellow",1,"congruent","g",1,1.16468549999991
"sub-001",52,"rot","red",1,"congruent","r",1,0.438388900001883
"sub-001",53,"rot","yellow",0,"incongruent","r",0,0.446618000001763
"sub-001",54,"rot","red",1,"congruent","r",1,0.561830599996028
"sub-001",55,"gelb","yellow",1,"congruent","g",1,0.490198600004078
"sub-001",56,"blau","blue",1,"congruent","b",1,0.487295699989772
"sub-001",57,"blau","red",0,"incongruent","r",1,0.976142600004096
"sub-001",58,"blau","yellow",0,"incongruent","g",1,0.814997099994798
"sub-001",59,"gelb","red",0,"incongruent","r",1,1.1501125000068
"sub-001",60,"blau","blue",1,"congruent","b",1,0.701663799991366
"sub-001",61,"gelb","yellow",1,"congruent","g",1,0.519791600003373
"sub-001",62,"gelb","red",0,"incongruent","r",1,0.790999000004376
"sub-001",63,"blau","blue",1,"congruent","b",1,0.528417299996363
"sub-001",64,"rot","blue",0,"incongruent","b",1,0.412438500003191
"sub-001",65,"rot","yellow",0,"incongruent","g",1,1.19192520000797
"sub-001",66,"blau","yellow",0,"incongruent","g",1,0.368988100002753
"sub-001",67,"blau","red",0,"incongruent","r",1,0.772480700004962
"sub-001",68,"rot","red",1,"congruent","r",1,0.429094000006444
"sub-001",69,"rot","red",1,"congruent","r",1,0.331681299998308
"sub-001",70,"gelb","blue",0,"incongruent","g",0,0.697795499989297
"sub-001",71,"gelb","yellow",1,"congruent","g",1,0.523457999996026
"sub-001",72,"blau","blue",1,"congruent","b",1,0.502217100001872
"sub-001",73,"rot","red",1,"congruent","g",0,0.481377500007511
"sub-001",74,"blau","red",0,"incongruent","r",1,0.570181199989747
"sub-001",75,"blau","blue",1,"congruent","b",1,0.600158700006432
"sub-001",76,"gelb","yellow",1,"congruent","g",1,0.574987299987697
"sub-001",77,"blau","blue",1,"congruent","b",1,0.50236899999436
"sub-001",78,"gelb","red",0,"incongruent","r",1,0.884701000002678
"sub-001",79,"blau","yellow",0,"incongruent","g",1,0.618655199999921
"sub-001",80,"gelb","blue",0,"incongruent","b",1,0.782956399998511
"sub-001",81,"rot","red",1,"congruent","r",1,0.454233699987526
"sub-001",82,"rot","blue",0,"incongruent","b",1,0.657292600008077
"sub-001",83,"gelb","yellow",1,"congruent","r",0,0.510005100004491
"sub-001",84,"rot","yellow",0,"incongruent","g",1,0.79136990000552
"sub-001",85,"gelb","yellow",1,"congruent","g",1,0.381519400005345
"sub-001",86,"blau","blue",1,"congruent","b",1,0.459951900003944
"sub-001",87,"rot","blue",0,"incongruent","b",1,0.475937700000941
"sub-001",88,"rot","red",1,"congruent","r",1,0.589009500006796
"sub-001",89,"blau","yellow",0,"incongruent","g",1,0.410776700009592
"sub-001",90,"rot","yellow",0,"incongruent","g",1,0.340403299996979
"sub-001",91,"gelb","blue",0,"incongruent","b",1,0.610770800005412
"sub-001",92,"gelb","yellow",1,"congruent","g",1,0.449097799995798
"sub-001",93,"blau","blue",1,"congruent","b",1,0.445625799999107
"sub-001",94,"blau","red",0,"incongruent","r",1,0.486478899998474
"sub-001",95,"rot","red",1,"congruent","r",1,0.446021199997631
"sub-001",96,"gelb","red",0,"incongruent","r",1,0.382785299996613
"sub-001",97,"rot","yellow",0,"incongruent","g",1,0.55829509999603
"sub-001",98,"rot","red",1,"congruent","r",1,0.432981799996924
"sub-001",99,"blau","red",0,"incongruent","r",1,0.433404200011864
"sub-001",100,"gelb","yellow",1,"congruent","g",1,0.593849500000942
"sub-001",101,"gelb","blue",0,"incongruent","b",1,0.499756600009277
"sub-001",102,"blau","yellow",0,"incongruent","r",0,0.499279800002114
"sub-001",103,"rot","red",1,"congruent","r",1,0.541316199989524
"sub-001",104,"gelb","yellow",1,"congruent","g",1,0.495862099996884
"sub-001",105,"rot","blue",0,"incongruent","b",1,0.520256199990399
"sub-001",106,"gelb","red",0,"incongruent","r",1,0.662165200003074
"sub-001",107,"blau","blue",1,"congruent","b",1,0.526433399994858
"sub-001",108,"blau","blue",1,"congruent","b",1,0.468104800005676
"sub-001",109,"rot","red",1,"congruent","r",1,0.481606400004239
"sub-001",110,"blau","red",0,"incongruent","r",1,0.319874400011031
"sub-001",111,"gelb","blue",0,"incongruent","b",1,0.537565899998299
"sub-001",112,"rot","blue",0,"incongruent","b",1,0.413009700001567
"sub-001",113,"gelb","red",0,"incongruent","r",1,0.555007600007229
"sub-001",114,"gelb","yellow",1,"congruent","g",1,0.486180100007914
"sub-001",115,"rot","yellow",0,"incongruent","g",1,0.377446600003168
"sub-001",116,"blau","yellow",0,"incongruent","g",1,0.311811100007617
"sub-001",117,"blau","blue",1,"congruent","b",1,0.496413400003803
"sub-001",118,"rot","red",1,"congruent","r",1,0.564306699990993
"sub-001",119,"gelb","yellow",1,"congruent","r",0,0.403612999987672
"sub-001",120,"blau","blue",1,"congruent","b",1,0.545067500002915
"sub-002",1,"rot","red",1,"congruent","r",1,0.735631200004718
"sub-002",2,"gelb","yellow",1,"congruent","g",1,0.6175774000003
"sub-002",3,"gelb","red",0,"incongruent","r",1,0.764222400001017
"sub-002",4,"rot","yellow",0,"incongruent","g",1,0.709653900004923
"sub-002",5,"rot","blue",0,"incongruent","b",1,0.609202399995411
"sub-002",6,"blau","yellow",0,"incongruent","g",1,0.525750500004506
"sub-002",7,"blau","blue",1,"congruent","b",1,0.698657500004629
"sub-002",8,"gelb","blue",0,"incongruent","b",1,0.601689300005091
"sub-002",9,"blau","blue",1,"congruent","b",1,0.548339899993152
"sub-002",10,"gelb","yellow",1,"congruent","g",1,0.54301989999658
"sub-002",11,"blau","red",0,"incongruent","r",1,0.679837000003317
"sub-002",12,"rot","red",1,"congruent","r",1,0.610739900002955
"sub-002",13,"gelb","blue",0,"incongruent","b",1,0.54796530000749
"sub-002",14,"rot","red",1,"congruent","r",1,0.52999809999892
"sub-002",15,"blau","yellow",0,"incongruent","g",1,0.774667099991348
"sub-002",16,"gelb","red",0,"incongruent","r",1,0.711432399999467
"sub-002",17,"rot","yellow",0,"incongruent","g",1,1.35957980000239
"sub-002",18,"gelb","yellow",1,"congruent","g",1,0.547612700000172
"sub-002",19,"rot","red",1,"congruent","r",1,0.719366599994828
"sub-002",20,"gelb","yellow",1,"congruent","g",1,0.842415399994934
"sub-002",21,"rot","blue",0,"incongruent","b",1,1.09297779999906
"sub-002",22,"blau","red",0,"incongruent","r",1,0.62161569998716
"sub-002",23,"blau","blue",1,"congruent","b",1,0.523459899995942
"sub-002",24,"blau","blue",1,"congruent","b",1,0.594663700001547
"sub-002",25,"rot","blue",0,"incongruent","b",1,0.844266899992363
"sub-002",26,"blau","blue",1,"congruent","b",1,0.536934899995686
"sub-002",27,"gelb","red",0,"incongruent","r",1,1.27033470000606
"sub-002",28,"blau","blue",1,"congruent","b",1,0.523905499998364
"sub-002",29,"rot","yellow",0,"incongruent","g",1,0.421838599999319
"sub-002",30,"blau","yellow",0,"incongruent","g",1,0.576207900012378
"sub-002",31,"gelb","yellow",1,"congruent","g",1,0.475168300006771
"sub-002",32,"rot","red",1,"congruent","r",1,0.496189500001492
"sub-002",33,"gelb","yellow",1,"congruent","g",1,0.977959499999997
"sub-002",34,"rot","red",1,"congruent","r",1,0.51343399999314
"sub-002",35,"gelb","blue",0,"incongruent","b",1,0.606529500000761
"sub-002",36,"blau","red",0,"incongruent","r",1,0.44345059999614
"sub-002",37,"gelb","yellow",1,"congruent","g",1,0.595115799995256
"sub-002",38,"gelb","red",0,"incongruent","r",1,0.867158799999743
"sub-002",39,"blau","yellow",0,"incongruent","g",1,0.910671999998158
"sub-002",40,"blau","blue",1,"congruent","b",1,0.542973000003258
"sub-002",41,"rot","red",1,"congruent","r",1,0.512597499997355
"sub-002",42,"rot","red",1,"congruent","r",1,0.534359700002824
"sub-002",43,"rot","blue",0,"incongruent","b",1,0.570516499996302
"sub-002",44,"blau","red",0,"incongruent","r",1,0.856726199999684
"sub-002",45,"gelb","yellow",1,"congruent","g",1,0.473737500011339
"sub-002",46,"gelb","blue",0,"incongruent","b",1,0.323686199990334
"sub-002",47,"rot","yellow",0,"incongruent","r",0,0.516410600001109
"sub-002",48,"blau","blue",1,"congruent","b",1,0.568704200006323
"sub-002",49,"blau","red",0,"incongruent","r",1,0.582824600001913
"sub-002",50,"gelb","red",0,"incongruent","r",1,1.5119485000032
"sub-002",51,"rot","blue",0,"incongruent","b",1,0.661210599995684
"sub-002",52,"blau","blue",1,"congruent","b",1,0.501845100006904
"sub-002",53,"rot","red",1,"congruent","r",1,0.643116699997336
"sub-002",54,"blau","yellow",0,"incongruent","g",1,0.441729600002873
"sub-002",55,"gelb","yellow",1,"congruent","g",1,0.474690399991232
"sub-002",56,"blau","blue",1,"congruent","b",1,0.547989200000302
"sub-002",57,"gelb","yellow",1,"congruent","g",1,0.678828300005989
"sub-002",58,"gelb","blue",0,"incongruent","b",1,0.533490299989353
"sub-002",59,"rot","yellow",0,"incongruent","g",1,0.515500900000916
"sub-002",60,"rot","red",1,"congruent","r",1,0.482178699996439
"sub-002",61,"blau","blue",1,"congruent","b",1,0.473204199995962
"sub-002",62,"rot","red",1,"congruent","r",1,0.571921199996723
"sub-002",63,"blau","yellow",0,"incongruent","g",1,0.811888700001873
"sub-002",64,"rot","yellow",0,"incongruent","g",1,0.658512000009068
"sub-002",65,"gelb","yellow",1,"congruent","g",1,0.691274099997827
"sub-002",66,"rot","red",1,"congruent","r",1,0.483192200001213
"sub-002",67,"blau","blue",1,"congruent","b",1,0.402447300002677
"sub-002",68,"gelb","red",0,"incongruent","g",0,0.658300600000075
"sub-002",69,"rot","blue",0,"incongruent","b",1,1.53969679999864
"sub-002",70,"gelb","yellow",1,"congruent","g",1,0.496400499992887
"sub-002",71,"gelb","blue",0,"incongruent","b",1,0.554097799991723
"sub-002",72,"blau","red",0,"incongruent","r",1,0.636370000007446
"sub-002",73,"gelb","yellow",1,"congruent","g",1,0.60845960000006
"sub-002",74,"gelb","yellow",1,"congruent","g",1,0.573973499995191
"sub-002",75,"blau","yellow",0,"incongruent","g",1,0.650737699994352
"sub-002",76,"rot","blue",0,"incongruent","b",1,0.523246900003869
"sub-002",77,"blau","blue",1,"congruent","b",1,0.479869800008601
"sub-002",78,"blau","blue",1,"congruent","b",1,0.680491000006441
"sub-002",79,"rot","yellow",0,"incongruent","g",1,1.07281139999395
"sub-002",80,"rot","red",1,"congruent","r",1,0.564561599996523
"sub-002",81,"rot","red",1,"congruent","r",1,0.706635000009555
"sub-002",82,"gelb","blue",0,"incongruent","b",1,0.51809399999911
"sub-002",83,"gelb","red",0,"incongruent","r",1,0.517992400011281
"sub-002",84,"blau","red",0,"incongruent","r",1,0.47570780001115
"sub-002",85,"rot","red",1,"congruent","r",1,0.468020400003297
"sub-002",86,"gelb","red",0,"incongruent","r",1,0.533370599994669
"sub-002",87,"gelb","yellow",1,"congruent","g",1,1.1037534000061
"sub-002",88,"blau","red",0,"incongruent","r",1,0.526241800005664
"sub-002",89,"gelb","blue",0,"incongruent","g",0,0.771085400003358
"sub-002",90,"rot","yellow",0,"incongruent","r",0,0.622733700001845
"sub-002",91,"blau","blue",1,"congruent","b",1,0.977285600005416
"sub-002",92,"rot","red",1,"congruent","r",1,0.481330199996591
"sub-002",93,"gelb","yellow",1,"congruent","g",1,0.424264800007222
"sub-002",94,"blau","yellow",0,"incongruent","b",0,0.617229099996621
"sub-002",95,"blau","blue",1,"congruent","b",1,0.719692599988775
"sub-002",96,"rot","blue",0,"incongruent","b",1,0.58513339998899
"sub-002",97,"gelb","yellow",1,"congruent","g",1,0.361639800001285
"sub-002",98,"rot","red",1,"congruent","r",1,0.523993000009796
"sub-002",99,"rot","blue",0,"incongruent","g",0,0.98703220000607
"sub-002",100,"blau","red",0,"incongruent","r",1,1.34784420000506
"sub-002",101,"blau","blue",1,"congruent","b",1,0.962514900005772
"sub-002",102,"gelb","red",0,"incongruent","r",1,0.767078699995182
"sub-002",103,"blau","blue",1,"congruent","b",1,0.54333499999484
"sub-002",104,"rot","red",1,"congruent","r",1,0.561668300011661
"sub-002",105,"blau","yellow",0,"incongruent","g",1,0.337637000004179
"sub-002",106,"gelb","blue",0,"incongruent","b",1,0.388479499990353
"sub-002",107,"rot","yellow",0,"incongruent","g",1,0.591358099991339
"sub-002",108,"gelb","yellow",1,"congruent","g",1,0.5649623000063
"sub-002",109,"rot","blue",0,"incongruent","b",1,0.398259199995664
"sub-002",110,"rot","yellow",0,"incongruent","g",1,1.03450320000411
"sub-002",111,"blau","blue",1,"congruent","b",1,0.485085299995262
"sub-002",112,"rot","red",1,"congruent","r",1,0.33277100000123
"sub-002",113,"gelb","yellow",1,"congruent","g",1,0.544512799999211
"sub-002",114,"blau","blue",1,"congruent","b",1,0.460143200005405
"sub-002",115,"blau","yellow",0,"incongruent","g",1,0.441418200003682
"sub-002",116,"gelb","blue",0,"incongruent","b",1,0.870693899996695
"sub-002",117,"blau","red",0,"incongruent","r",1,0.413133399997605
"sub-002",118,"rot","red",1,"congruent","r",1,0.623724199991557
"sub-002",119,"gelb","yellow",1,"congruent","g",1,0.462648500004434
"sub-002",120,"gelb","red",0,"incongruent","r",1,0.640898700003163
"sub-003",1,"rot","red",1,"congruent","r",1,0.894253399994341
"sub-003",2,"gelb","yellow",1,"congruent","g",1,0.750540299995919
"sub-003",3,"blau","yellow",0,"incongruent","g",1,0.901173299993388
"sub-003",4,"blau","red",0,"incongruent","r",1,0.66504160000477
"sub-003",5,"gelb","red",0,"incongruent","r",1,0.656518999996479
"sub-003",6,"blau","blue",1,"congruent","b",1,1.04950230001123
"sub-003",7,"rot","red",1,"congruent","r",1,0.712221900001168
"sub-003",8,"gelb","blue",0,"incongruent","b",1,0.706688099991879
"sub-003",9,"gelb","yellow",1,"congruent","g",1,0.451595999998972
"sub-003",10,"blau","blue",1,"congruent","b",1,0.833670899999561
"sub-003",11,"rot","blue",0,"incongruent","b",1,1.0764177999954
"sub-003",12,"rot","yellow",0,"incongruent","g",1,0.746448200006853
"sub-003",13,"gelb","yellow",1,"congruent","g",1,0.880910399995628
"sub-003",14,"blau","yellow",0,"incongruent","g",1,0.581477699990501
"sub-003",15,"blau","red",0,"incongruent","r",1,0.78324469999643
"sub-003",16,"blau","blue",1,"congruent","b",1,0.862914099998306
"sub-003",17,"rot","yellow",0,"incongruent","g",1,0.596035800001118
"sub-003",18,"gelb","blue",0,"incongruent","b",1,0.823353900006623
"sub-003",19,"gelb","red",0,"incongruent","r",1,0.663282399997115
"sub-003",20,"gelb","yellow",1,"congruent","g",1,0.651433499995619
"sub-003",21,"blau","blue",1,"congruent","b",1,0.497110299998894
"sub-003",22,"rot","blue",0,"incongruent","b",1,0.595198499999242
"sub-003",23,"rot","red",1,"congruent","r",1,0.596182499997667
"sub-003",24,"rot","red",1,"congruent","r",1,0.60739370000374
"sub-003",25,"gelb","yellow",1,"congruent","g",1,0.969050699990476
"sub-003",26,"rot","red",1,"congruent","r",1,0.553393199996208
"sub-003",27,"gelb","yellow",1,"congruent","g",1,0.754567800002405
"sub-003",28,"blau","red",0,"incongruent","r",1,0.713089600001695
"sub-003",29,"gelb","red",0,"incongruent","r",1,0.644503999996232
"sub-003",30,"rot","red",1,"congruent","r",1,0.888924399987445
"sub-003",31,"blau","blue",1,"congruent","b",1,0.807914500008337
"sub-003",32,"gelb","blue",0,"incongruent","b",1,0.672281499995734
"sub-003",33,"blau","blue",1,"congruent","b",1,0.598279700003332
"sub-003",34,"blau","yellow",0,"incongruent","g",1,0.729511700003059
"sub-003",35,"rot","yellow",0,"incongruent","g",1,0.884132999999565
"sub-003",36,"rot","blue",0,"incongruent","b",1,0.612638999999035
"sub-003",37,"blau","blue",1,"congruent","b",1,0.508572100006859
"sub-003",38,"rot","red",1,"congruent","r",1,0.578713499999139
"sub-003",39,"rot","blue",0,"incongruent","b",1,0.835534400001052
"sub-003",40,"gelb","blue",0,"incongruent","b",1,0.589117399998941
"sub-003",41,"gelb","yellow",1,"congruent","g",1,0.731677999996464
"sub-003",42,"blau","red",0,"incongruent","r",1,0.642714199988404
"sub-003",43,"blau","yellow",0,"incongruent","g",1,0.89485210001294
"sub-003",44,"gelb","yellow",1,"congruent","g",1,0.731101899989881
"sub-003",45,"gelb","red",0,"incongruent","r",1,0.765757000001031
"sub-003",46,"rot","red",1,"congruent","r",1,0.5973590999929
"sub-003",47,"blau","blue",1,"congruent","b",1,0.554002200005925
"sub-003",48,"rot","yellow",0,"incongruent","g",1,0.853019200003473
"sub-003",49,"rot","yellow",0,"incongruent","g",1,0.546167100008461
"sub-003",50,"gelb","yellow",1,"congruent","g",1,0.551279999999679
"sub-003",51,"gelb","yellow",1,"congruent","g",1,0.60392700000375
"sub-003",52,"gelb","blue",0,"incongruent","b",1,0.693080699988059
"sub-003",53,"blau","yellow",0,"incongruent","g",1,0.789586800005054
"sub-003",54,"gelb","red",0,"incongruent","r",1,0.702410500001861
"sub-003",55,"rot","red",1,"congruent","r",1,0.709590900005423
"sub-003",56,"rot","blue",0,"incongruent","b",1,0.613993999999366
"sub-003",57,"blau","red",0,"incongruent","r",1,0.500870000003488
"sub-003",58,"blau","blue",1,"congruent","b",1,0.810356399990269
"sub-003",59,"rot","red",1,"congruent","r",1,0.812165600000299
"sub-003",60,"blau","blue",1,"congruent","b",1,0.699224299998605
"sub-003",61,"blau","blue",1,"congruent","b",1,1.062156400003
"sub-003",62,"blau","blue",1,"congruent","b",1,0.688473600006546
"sub-003",63,"gelb","red",0,"incongruent","r",1,0.696028699996532
"sub-003",64,"blau","red",0,"incongruent","r",1,0.728785200000857
"sub-003",65,"blau","yellow",0,"incongruent","g",1,0.53742369999236
"sub-003",66,"rot","red",1,"congruent","r",1,0.727874700009124
"sub-003",67,"rot","yellow",0,"incongruent","g",1,0.733519700006582
"sub-003",68,"gelb","blue",0,"incongruent","b",1,0.580394000004162
"sub-003",69,"rot","red",1,"congruent","r",1,0.696621399998548
"sub-003",70,"rot","blue",0,"incongruent","b",1,0.717154099998879
"sub-003",71,"gelb","yellow",1,"congruent","g",1,0.754376699987915
"sub-003",72,"gelb","yellow",1,"congruent","g",1,0.646837799999048
"sub-003",73,"blau","yellow",0,"incongruent","g",1,0.609991899997112
"sub-003",74,"gelb","blue",0,"incongruent","b",1,0.627751200008788
"sub-003",75,"gelb","yellow",1,"congruent","g",1,0.762879200003226
"sub-003",76,"blau","blue",1,"congruent","b",1,0.79542219999712
"sub-003",77,"rot","blue",0,"incongruent","b",1,0.607163200009381
"sub-003",78,"rot","yellow",0,"incongruent","g",1,1.02652410000155
"sub-003",79,"rot","red",1,"congruent","r",1,0.606504800001858
"sub-003",80,"blau","blue",1,"congruent","b",1,0.671403100001044
"sub-003",81,"gelb","red",0,"incongruent","g",0,0.532644300008542
"sub-003",82,"gelb","yellow",1,"congruent","g",1,0.659571099997265
"sub-003",83,"blau","red",0,"incongruent","r",1,0.680563599991729
"sub-003",84,"rot","red",1,"congruent","r",1,0.649468600007822
"sub-003",85,"blau","red",0,"incongruent","r",1,1.36648379999679
"sub-003",86,"rot","yellow",0,"incongruent","g",1,0.682720000011614
"sub-003",87,"blau","blue",1,"congruent","b",1,0.522712000005413
"sub-003",88,"gelb","yellow",1,"congruent","g",1,0.607396599996719
"sub-003",89,"blau","yellow",0,"incongruent","g",1,0.594564900005935
"sub-003",90,"gelb","yellow",1,"congruent","g",1,0.608561500004726
"sub-003",91,"rot","red",1,"congruent","r",1,0.62731630000053
"sub-003",92,"rot","blue",0,"incongruent","b",1,0.602195999992546
"sub-003",93,"gelb","blue",0,"incongruent","b",1,0.708941200005938
"sub-003",94,"blau","blue",1,"congruent","b",1,0.651533299998846
"sub-003",95,"rot","red",1,"congruent","r",1,0.622569400002249
"sub-003",96,"gelb","red",0,"incongruent","r",1,0.725052299996605
"sub-003",97,"rot","red",1,"congruent","r",1,0.71120879999944
"sub-003",98,"rot","yellow",0,"incongruent","g",1,0.964822499998263
"sub-003",99,"blau","red",0,"incongruent","r",1,0.651784200003021
"sub-003",100,"gelb","red",0,"incongruent","r",1,0.860579999993206
"sub-003",101,"rot","blue",0,"incongruent","b",1,0.875197200002731
"sub-003",102,"rot","red",1,"congruent","r",1,0.673578799993265
"sub-003",103,"blau","yellow",0,"incongruent","g",1,0.587943000005907
"sub-003",104,"gelb","yellow",1,"congruent","g",1,0.850427400000626
"sub-003",105,"blau","blue",1,"congruent","r",0,0.790844500006642
"sub-003",106,"gelb","yellow",1,"congruent","g",1,0.799653200010653
"sub-003",107,"gelb","blue",0,"incongruent","b",1,0.736734099991736
"sub-003",108,"blau","blue",1,"congruent","b",1,0.66919470000721
"sub-003",109,"blau","blue",1,"congruent","b",1,0.516938300002948
"sub-003",110,"blau","yellow",0,"incongruent","g",1,1.24708380000084
"sub-003",111,"gelb","red",0,"incongruent","r",1,1.12476859999879
"sub-003",112,"blau","blue",1,"congruent","b",1,0.915194200002588
"sub-003",113,"gelb","yellow",1,"congruent","g",1,0.747621700007585
"sub-003",114,"blau","red",0,"incongruent","r",1,0.966822999995202
"sub-003",115,"gelb","yellow",1,"congruent","g",1,0.826089800000773
"sub-003",116,"gelb","blue",0,"incongruent","b",1,0.713974099999177
"sub-003",117,"rot","red",1,"congruent","r",1,1.09129510000639
"sub-003",118,"rot","red",1,"congruent","r",1,0.739592099998845
"sub-003",119,"rot","blue",0,"incongruent","b",1,0.873223699993105
"sub-003",120,"rot","yellow",0,"incongruent","g",1,0.785657800006447
"sub-004",1,"blau","blue",1,"congruent","b",1,0.954619600030128
"sub-004",2,"rot","yellow",0,"incongruent","r",0,0.49051169998711
"sub-004",3,"blau","blue",1,"congruent","b",1,0.62588720000349
"sub-004",4,"rot","red",1,"congruent","r",1,0.672411600011401
"sub-004",5,"gelb","yellow",1,"congruent","g",1,0.382496599981096
"sub-004",6,"gelb","blue",0,"incongruent","b",1,1.03969970002072
"sub-004",7,"blau","yellow",0,"incongruent","r",0,1.01372330001323
"sub-004",8,"rot","red",1,"congruent","r",1,0.468287099967711
"sub-004",9,"rot","blue",0,"incongruent","b",1,1.66854169999715
"sub-004",10,"gelb","red",0,"incongruent","r",1,1.38082389999181
"sub-004",11,"gelb","yellow",1,"congruent","g",1,0.642591400013771
"sub-004",12,"blau","red",0,"incongruent","b",0,0.493162099970505
"sub-004",13,"blau","blue",1,"congruent","b",1,0.832365900045261
"sub-004",14,"blau","blue",1,"congruent","b",1,0.652320399996825
"sub-004",15,"gelb","blue",0,"incongruent","b",1,0.682667200046126
"sub-004",16,"gelb","yellow",1,"congruent","g",1,0.673934000020381
"sub-004",17,"blau","yellow",0,"incongruent","g",1,0.845971599977929
"sub-004",18,"rot","red",1,"congruent","r",1,0.66799569997238
"sub-004",19,"rot","red",1,"congruent","r",1,0.568410100007895
"sub-004",20,"blau","red",0,"incongruent","r",1,0.66472189995693
"sub-004",21,"rot","yellow",0,"incongruent","g",1,2.00066359998891
"sub-004",22,"gelb","red",0,"incongruent","r",1,0.753478600003291
"sub-004",23,"rot","blue",0,"incongruent","b",1,0.801562000007834
"sub-004",24,"gelb","yellow",1,"congruent","g",1,0.82439909997629
"sub-004",25,"rot","red",1,"congruent","r",1,0.821922700037248
"sub-004",26,"gelb","yellow",1,"congruent","g",1,0.609628600010183
"sub-004",27,"rot","blue",0,"incongruent","b",1,0.855646299954969
"sub-004",28,"gelb","red",0,"incongruent","r",1,0.795546100009233
"sub-004",29,"gelb","blue",0,"incongruent","b",1,0.886550800001714
"sub-004",30,"blau","blue",1,"congruent","b",1,0.601569099992048
"sub-004",31,"rot","red",1,"congruent","r",1,0.448031200037804
"sub-004",32,"blau","red",0,"incongruent","b",0,0.532573900010902
"sub-004",33,"gelb","yellow",1,"congruent","g",1,0.6377727999934
"sub-004",34,"blau","yellow",0,"incongruent","b",0,0.574317699996755
"sub-004",35,"rot","yellow",0,"incongruent","g",1,1.03212280001026
"sub-004",36,"blau","blue",1,"congruent","b",1,0.541943200048991
"sub-004",37,"gelb","blue",0,"incongruent","b",1,0.783110299962573
"sub-004",38,"rot","red",1,"congruent","r",1,0.617712899984326
"sub-004",39,"rot","blue",0,"incongruent","b",1,1.07982779998565
"sub-004",40,"blau","blue",1,"congruent","b",1,0.63293080002768
"sub-004",41,"gelb","yellow",1,"congruent","g",1,0.894465699966531
"sub-004",42,"blau","blue",1,"congruent","b",1,0.493762900005095
"sub-004",43,"gelb","yellow",1,"congruent","g",1,0.690124200016726
"sub-004",44,"blau","yellow",0,"incongruent","b",0,0.618600599991623
"sub-004",45,"rot","red",1,"congruent","r",1,0.623883299995214
"sub-004",46,"blau","red",0,"incongruent","r",1,0.657424900040496
"sub-004",47,"gelb","red",0,"incongruent","r",1,0.534813699952792
"sub-004",48,"rot","yellow",0,"incongruent","g",1,0.888194600003771
"sub-004",49,"gelb","yellow",1,"congruent","g",1,0.527329000004102
"sub-004",50,"blau","blue",1,"congruent","b",1,0.628004099999089
"sub-004",51,"blau","blue",1,"congruent","b",1,0.550595599983353
"sub-004",52,"blau","red",0,"incongruent","r",1,1.04514839994954
"sub-004",53,"gelb","red",0,"incongruent","r",1,0.673229599953629
"sub-004",54,"rot","blue",0,"incongruent","b",1,1.00722639996093
"sub-004",55,"blau","yellow",0,"incongruent","g",1,0.7385021999944
"sub-004",56,"rot","yellow",0,"incongruent","g",1,0.457583799958229
"sub-004",57,"gelb","blue",0,"incongruent","b",1,0.433247899985872
"sub-004",58,"rot","red",1,"congruent","r",1,0.532650400011335
"sub-004",59,"rot","red",1,"congruent","r",1,0.453360199986491
"sub-004",60,"gelb","yellow",1,"congruent","g",1,0.650039900036063
"sub-004",61,"gelb","blue",0,"incongruent","b",1,0.720579300017562
"sub-004",62,"blau","blue",1,"congruent","b",1,0.526785699999891
"sub-004",63,"gelb","red",0,"incongruent","g",0,0.556022999982815
"sub-004",64,"rot","red",1,"congruent","r",1,0.529394500015769
"sub-004",65,"rot","blue",0,"incongruent","b",1,0.773082600033376
"sub-004",66,"blau","blue",1,"congruent","b",1,0.850755699968431
"sub-004",67,"blau","red",0,"incongruent","r",1,1.78866280004149
"sub-004",68,"gelb","yellow",1,"congruent","g",1,0.510814899986144
"sub-004",69,"gelb","yellow",1,"congruent","g",1,0.461372999998275
"sub-004",70,"rot","yellow",0,"incongruent","g",1,0.358055300021078
"sub-004",71,"blau","yellow",0,"incongruent","g",1,0.528144899988547
"sub-004",72,"rot","red",1,"congruent","r",1,0.545185700000729
"sub-004",73,"gelb","blue",0,"incongruent","b",1,0.30809369997587
"sub-004",74,"blau","red",0,"incongruent","r",1,0.351778700016439
"sub-004",75,"rot","yellow",0,"incongruent","g",1,0.698461099993438
"sub-004",76,"gelb","yellow",1,"congruent","g",1,0.456848500005435
"sub-004",77,"rot","blue",0,"incongruent","b",1,0.974745700019412
"sub-004",78,"blau","yellow",0,"incongruent","g",1,0.801057500008028
"sub-004",79,"rot","red",1,"congruent","r",1,0.469272900023498
"sub-004",80,"gelb","red",0,"incongruent","r",1,0.481928499997593
"sub-004",81,"blau","blue",1,"congruent","b",1,0.744480599998496
"sub-004",82,"rot","red",1,"congruent","r",1,0.51810350001324
"sub-004",83,"gelb","yellow",1,"congruent","g",1,0.535178199992515
"sub-004",84,"blau","blue",1,"congruent","b",1,0.542258900008164
"sub-004",85,"rot","blue",0,"incongruent","r",0,0.553165499994066
"sub-004",86,"gelb","yellow",1,"congruent","g",1,0.645960900001228
"sub-004",87,"blau","yellow",0,"incongruent","g",1,1.04419719998259
"sub-004",88,"rot","red",1,"congruent","r",1,0.417202199983876
"sub-004",89,"rot","yellow",0,"incongruent","g",1,0.828952700016089
"sub-004",90,"rot","red",1,"congruent","r",1,0.490280700032599
"sub-004",91,"blau","red",0,"incongruent","r",1,0.758663199958391
"sub-004",92,"blau","blue",1,"congruent","b",1,0.610597899998538
"sub-004",93,"gelb","blue",0,"incongruent","b",1,0.505965100019239
"sub-004",94,"gelb","red",0,"incongruent","g",0,0.731752299994696
"sub-004",95,"blau","blue",1,"congruent","b",1,0.594722000008915
"sub-004",96,"gelb","yellow",1,"congruent","g",1,0.86626109998906
"sub-004",97,"blau","blue",1,"congruent","b",1,0.404631699959282
"sub-004",98,"rot","yellow",0,"incongruent","g",1,1.04213339998387
"sub-004",99,"blau","blue",1,"congruent","b",1,0.618827800033614
"sub-004",100,"rot","blue",0,"incongruent","b",1,1.21455129998503
"sub-004",101,"gelb","yellow",1,"congruent","g",1,1.03824999998324
"sub-004",102,"blau","red",0,"incongruent","b",0,0.65704859996913
"sub-004",103,"gelb","blue",0,"incongruent","g",0,0.6083432000014
"sub-004",104,"rot","red",1,"congruent","r",1,0.776004099985585
"sub-004",105,"gelb","red",0,"incongruent","r",1,0.825450300006196
"sub-004",106,"gelb","yellow",1,"congruent","g",1,0.889742599974852
"sub-004",107,"blau","yellow",0,"incongruent","g",1,1.65497829997912
"sub-004",108,"rot","red",1,"congruent","r",1,0.512159099976998
"sub-004",109,"rot","red",1,"congruent","r",1,0.449766999983694
"sub-004",110,"gelb","yellow",1,"congruent","g",1,0.547628299973439
"sub-004",111,"blau","blue",1,"congruent","b",1,0.796278399997391
"sub-004",112,"gelb","yellow",1,"congruent","g",1,0.584425500012003
"sub-004",113,"rot","red",1,"congruent","r",1,0.588551900000311
"sub-004",114,"rot","yellow",0,"incongruent","g",1,0.923103700042702
"sub-004",115,"rot","blue",0,"incongruent","b",1,1.21726039994974
"sub-004",116,"blau","yellow",0,"incongruent","g",1,1.58822400000645
"sub-004",117,"gelb","red",0,"incongruent","r",1,1.11782009998569
"sub-004",118,"blau","red",0,"incongruent","r",1,0.405179399996996
"sub-004",119,"gelb","blue",0,"incongruent","b",1,0.786391899979208
"sub-004",120,"blau","blue",1,"congruent","b",1,0.770649100013543
"sub-005",1,"rot","yellow",0,"incongruent","g",1,1.13545800000429
"sub-005",2,"gelb","yellow",1,"congruent","g",1,0.674420500057749
"sub-005",3,"gelb","blue",0,"incongruent","b",1,0.831664499943145
"sub-005",4,"blau","red",0,"incongruent","r",1,1.30933790002018
"sub-005",5,"blau","blue",1,"congruent","b",1,1.03718290000688
"sub-005",6,"rot","blue",0,"incongruent","b",1,0.859862899989821
"sub-005",7,"blau","blue",1,"congruent","b",1,0.642538600019179
"sub-005",8,"blau","yellow",0,"incongruent","g",1,0.955570599995554
"sub-005",9,"rot","red",1,"congruent","r",1,0.639847900019959
"sub-005",10,"gelb","red",0,"incongruent","r",1,0.821349499979988
"sub-005",11,"rot","red",1,"congruent","r",1,0.564905699924566
"sub-005",12,"gelb","yellow",1,"congruent","g",1,0.618462999933399
"sub-005",13,"rot","blue",0,"incongruent","b",1,0.927149800001644
"sub-005",14,"gelb","yellow",1,"congruent","g",1,0.676461099996231
"sub-005",15,"blau","blue",1,"congruent","b",1,0.563204900012352
"sub-005",16,"rot","yellow",0,"incongruent","g",1,0.749507399974391
"sub-005",17,"blau","yellow",0,"incongruent","g",1,0.88726270000916
"sub-005",18,"blau","blue",1,"congruent","b",1,0.735075100092217
"sub-005",19,"gelb","red",0,"incongruent","r",1,0.754663800005801
"sub-005",20,"rot","red",1,"congruent","r",1,0.56804819998797
"sub-005",21,"rot","red",1,"congruent","r",1,0.394599399995059
"sub-005",22,"gelb","blue",0,"incongruent","b",1,2.11624080000911
"sub-005",23,"blau","red",0,"incongruent","r",1,1.48473260004539
"sub-005",24,"gelb","yellow",1,"congruent","g",1,0.654004100011662
"sub-005",25,"blau","red",0,"incongruent","r",1,0.915945400018245
"sub-005",26,"gelb","yellow",1,"congruent","g",1,0.590483300038613
"sub-005",27,"rot","red",1,"congruent","r",1,0.492642799974419
"sub-005",28,"rot","red",1,"congruent","r",1,0.464050299953669
"sub-005",29,"rot","blue",0,"incongruent","b",1,0.812040899996646
"sub-005",30,"gelb","yellow",1,"congruent","g",1,0.436948699993081
"sub-005",31,"gelb","red",0,"incongruent","g",0,0.389826499973424
"sub-005",32,"blau","blue",1,"congruent","b",1,0.715220000012778
"sub-005",33,"rot","yellow",0,"incongruent","g",1,1.05457260005642
"sub-005",34,"blau","yellow",0,"incongruent","g",1,1.06418200000189
"sub-005",35,"blau","blue",1,"congruent","b",1,0.556298400042579
"sub-005",36,"gelb","blue",0,"incongruent","b",1,1.41277880000416
"sub-005",37,"rot","blue",0,"incongruent","b",1,0.881709099980071
"sub-005",38,"gelb","yellow",1,"congruent","g",1,0.884980199974962
"sub-005",39,"rot","red",1,"congruent","r",1,0.373074300005101
"sub-005",40,"blau","blue",1,"congruent","b",1,0.529681399930269
"sub-005",41,"rot","yellow",0,"incongruent","g",1,0.874697500024922
"sub-005",42,"gelb","yellow",1,"congruent","g",1,0.709739100071602
"sub-005",43,"blau","red",0,"incongruent","r",1,0.553065999993123
"sub-005",44,"gelb","red",0,"incongruent","r",1,0.450484899920411
"sub-005",45,"blau","blue",1,"congruent","b",1,0.613684499985538
"sub-005",46,"blau","yellow",0,"incongruent","g",1,0.967536399955861
"sub-005",47,"rot","red",1,"congruent","r",1,0.610190599923953
"sub-005",48,"gelb","blue",0,"incongruent","g",0,0.750499999965541
"sub-005",49,"gelb","red",0,"incongruent","g",0,0.543810000061058
"sub-005",50,"rot","red",1,"congruent","r",1,0.611323699937202
"sub-005",51,"rot","yellow",0,"incongruent","r",0,0.682724799960852
"sub-005",52,"rot","blue",0,"incongruent","r",0,0.883560299989767
"sub-005",53,"gelb","blue",0,"incongruent","g",0,0.514547600061633
"sub-005",54,"blau","yellow",0,"incongruent","g",1,1.0682850999292
"sub-005",55,"blau","blue",1,"congruent","b",1,0.659927799948491
"sub-005",56,"blau","blue",1,"congruent","b",1,0.537034600041807
"sub-005",57,"rot","red",1,"congruent","r",1,0.479571099975146
"sub-005",58,"gelb","yellow",1,"congruent","g",1,0.582751099951565
"sub-005",59,"blau","red",0,"incongruent","r",1,0.858511399943382
"sub-005",60,"gelb","yellow",1,"congruent","g",1,0.605046499986202
"sub-005",61,"rot","red",1,"congruent","r",1,0.575213000061922
"sub-005",62,"blau","yellow",0,"incongruent","g",1,1.18389200000092
"sub-005",63,"gelb","yellow",1,"congruent","g",1,0.512137399986386
"sub-005",64,"gelb","red",0,"incongruent","r",1,0.789477800019085
"sub-005",65,"rot","red",1,"congruent","r",1,0.707923899986781
"sub-005",66,"blau","blue",1,"congruent","b",1,0.527818999951705
"sub-005",67,"rot","yellow",0,"incongruent","g",1,0.795256200013682
"sub-005",68,"blau","red",0,"incongruent","b",0,0.594169200048782
"sub-005",69,"gelb","blue",0,"incongruent","b",1,1.70647340000141
"sub-005",70,"blau","blue",1,"congruent","b",1,0.701790099963546
"sub-005",71,"rot","blue",0,"incongruent","b",1,1.51789939997252
"sub-005",72,"gelb","yellow",1,"congruent","g",1,0.818475099978969
"sub-005",73,"gelb","red",0,"incongruent","r",1,0.803869899944402
"sub-005",74,"blau","red",0,"incongruent","b",0,0.766188799985684
"sub-005",75,"gelb","yellow",1,"congruent","g",1,0.631213499931619
"sub-005",76,"rot","yellow",0,"incongruent","g",1,1.36605810001493
"sub-005",77,"blau","blue",1,"congruent","b",1,0.43120800005272
"sub-005",78,"gelb","blue",0,"incongruent","b",1,5.28643849992659
"sub-005",79,"rot","red",1,"congruent","r",1,0.598066000035033
"sub-005",80,"rot","red",1,"congruent","r",1,0.496739999973215
"sub-005",81,"blau","blue",1,"congruent","b",1,0.536549099953845
"sub-005",82,"blau","yellow",0,"incongruent","g",1,1.01369089994114
"sub-005",83,"gelb","yellow",1,"congruent","g",1,0.420354899950325
"sub-005",84,"rot","blue",0,"incongruent","b",1,0.872065000003204
"sub-005",85,"blau","blue",1,"congruent","b",1,0.519911500043236
"sub-005",86,"rot","red",1,"congruent","r",1,0.636785199982114
"sub-005",87,"blau","red",0,"incongruent","b",0,0.620759900077246
"sub-005",88,"gelb","yellow",1,"congruent","g",1,1.1367409999948
"sub-005",89,"gelb","red",0,"incongruent","b",0,0.86680710001383
"sub-005",90,"gelb","blue",0,"incongruent","g",0,0.537327300058678
"sub-005",91,"rot","red",1,"congruent","g",0,1.046670599957
"sub-005",92,"rot","blue",0,"incongruent","r",0,0.740332499961369
"sub-005",93,"blau","blue",1,"congruent","b",1,0.54868429992348
"sub-005",94,"gelb","yellow",1,"congruent","g",1,0.665336299920455
"sub-005",95,"rot","yellow",0,"incongruent","r",0,0.605068100034259
"sub-005",96,"blau","yellow",0,"incongruent","b",0,0.604775000014342
"sub-005",97,"blau","red",0,"incongruent","b",0,0.820732900057919
"sub-005",98,"blau","blue",1,"congruent","b",1,0.640717200003564
"sub-005",99,"rot","yellow",0,"incongruent","r",0,0.681042400072329
"sub-005",100,"gelb","blue",0,"incongruent","g",0,2.47115450003184
"sub-005",101,"rot","blue",0,"incongruent","r",0,1.39064870006405
"sub-005",102,"rot","red",1,"congruent","r",1,1.01506030000746
"sub-005",103,"blau","blue",1,"congruent","b",1,0.864333000034094
"sub-005",104,"gelb","red",0,"incongruent","g",0,3.3617822000524
"sub-005",105,"blau","yellow",0,"incongruent","b",0,1.7456904000137
"sub-005",106,"gelb","yellow",1,"congruent","b",0,1.68220849998761
"sub-005",107,"gelb","yellow",1,"congruent","g",1,2.18815169995651
"sub-005",108,"rot","red",1,"congruent","r",1,0.85297799995169
"sub-005",109,"gelb","red",0,"incongruent","g",0,1.31209640007
"sub-005",110,"rot","red",1,"congruent","r",1,0.594186100061052
"sub-005",111,"blau","blue",1,"congruent","b",1,0.345151200075634
"sub-005",112,"rot","yellow",0,"incongruent","r",0,0.527089299983345
"sub-005",113,"gelb","yellow",1,"congruent","g",1,0.635848100064322
"sub-005",114,"rot","blue",0,"incongruent","r",0,0.632323099998757
"sub-005",115,"rot","red",1,"congruent","r",1,0.645391999976709
"sub-005",116,"blau","yellow",0,"incongruent","b",0,0.777965900022537
"sub-005",117,"gelb","blue",0,"incongruent","g",0,0.648487000027671
"sub-005",118,"blau","red",0,"incongruent","r",1,1.10065530007705
"sub-005",119,"gelb","yellow",1,"congruent","g",1,0.939455699990504
"sub-005",120,"blau","blue",1,"congruent","b",1,0.72097390005365
"sub-006",1,"gelb","yellow",1,"congruent","g",1,0.633178899995983
"sub-006",2,"blau","yellow",0,"incongruent","g",1,0.530966099933721
"sub-006",3,"gelb","red",0,"incongruent","r",1,0.585848500020802
"sub-006",4,"gelb","yellow",1,"congruent","g",1,0.731888400041498
"sub-006",5,"blau","blue",1,"congruent","b",1,0.604417500086129
"sub-006",6,"rot","red",1,"congruent","r",1,0.518622800009325
"sub-006",7,"rot","yellow",0,"incongruent","g",1,0.768744500004686
"sub-006",8,"rot","red",1,"congruent","r",1,0.673778500058688
"sub-006",9,"blau","red",0,"incongruent","r",1,0.658609800040722
"sub-006",10,"rot","blue",0,"incongruent","b",1,0.804970599943772
"sub-006",11,"gelb","blue",0,"incongruent","b",1,1.41774549998809
"sub-006",12,"blau","blue",1,"congruent","b",1,0.625496899941936
"sub-006",13,"gelb","yellow",1,"congruent","g",1,0.474963700049557
"sub-006",14,"gelb","yellow",1,"congruent","g",1,0.647196999983862
"sub-006",15,"rot","yellow",0,"incongruent","g",1,0.97394160006661
"sub-006",16,"blau","red",0,"incongruent","r",1,1.88865999993868
"sub-006",17,"gelb","blue",0,"incongruent","b",1,0.739232499967329
"sub-006",18,"blau","yellow",0,"incongruent","g",1,1.14402250002604
"sub-006",19,"rot","blue",0,"incongruent","b",1,1.84347530000377
"sub-006",20,"blau","blue",1,"congruent","b",1,1.10431999992579
"sub-006",21,"gelb","red",0,"incongruent","r",1,0.664018200011924
"sub-006",22,"blau","blue",1,"congruent","b",1,1.65157210000325
"sub-006",23,"rot","red",1,"congruent","g",0,0.730693100020289
"sub-006",24,"rot","red",1,"congruent","r",1,0.918358299997635
"sub-006",25,"blau","yellow",0,"incongruent","g",1,0.928754499997012
"sub-006",26,"gelb","blue",0,"incongruent","b",1,0.593313799938187
"sub-006",27,"blau","red",0,"incongruent","r",1,0.676560100051574
"sub-006",28,"blau","blue",1,"congruent","b",1,0.765935100032948
"sub-006",29,"gelb","red",0,"incongruent","r",1,2.14470930001698
"sub-006",30,"rot","red",1,"congruent","r",1,1.14742369996384
"sub-006",31,"gelb","yellow",1,"congruent","g",1,0.594769100076519
"sub-006",32,"rot","yellow",0,"incongruent","g",1,0.978292999905534
"sub-006",33,"rot","red",1,"congruent","r",1,0.691159400041215
"sub-006",34,"blau","blue",1,"congruent","b",1,0.487871199962683
"sub-006",35,"rot","blue",0,"incongruent","b",1,1.13237400003709
"sub-006",36,"gelb","yellow",1,"congruent","g",1,0.828194499947131
"sub-006",37,"gelb","red",0,"incongruent","r",1,0.502887499984354
"sub-006",38,"rot","red",1,"congruent","r",1,0.726295000058599
"sub-006",39,"rot","red",1,"congruent","r",1,2.08037129999138
"sub-006",40,"blau","yellow",0,"incongruent","g",1,0.947844699956477
"sub-006",41,"gelb","yellow",1,"congruent","g",1,0.703277200111188
"sub-006",42,"blau","blue",1,"congruent","b",1,0.647420600056648
"sub-006",43,"blau","blue",1,"congruent","b",1,0.597052099998109
"sub-006",44,"gelb","yellow",1,"congruent","g",1,0.634621499921195
"sub-006",45,"rot","yellow",0,"incongruent","g",1,0.789886499987915
"sub-006",46,"rot","blue",0,"incongruent","b",1,0.795298799988814
"sub-006",47,"blau","red",0,"incongruent","r",1,1.03881779999938
"sub-006",48,"gelb","blue",0,"incongruent","b",1,0.986745000001974
"sub-006",49,"rot","red",1,"congruent","r",1,0.555279899970628
"sub-006",50,"blau","blue",1,"congruent","b",1,0.637502999976277
"sub-006",51,"gelb","blue",0,"incongruent","b",1,1.2616911000805
"sub-006",52,"blau","blue",1,"congruent","b",1,0.465033299988136
"sub-006",53,"gelb","yellow",1,"congruent","g",1,0.611342500080355
"sub-006",54,"blau","yellow",0,"incongruent","g",1,0.724461199948564
"sub-006",55,"gelb","yellow",1,"congruent","g",1,0.556662200018764
"sub-006",56,"rot","red",1,"congruent","r",1,0.424629700020887
"sub-006",57,"blau","red",0,"incongruent","r",1,0.615197199978866
"sub-006",58,"gelb","red",0,"incongruent","r",1,0.767189800040796
"sub-006",59,"rot","blue",0,"incongruent","b",1,0.924271100084297
"sub-006",60,"rot","yellow",0,"incongruent","g",1,0.818620400037616
"sub-006",61,"gelb","yellow",1,"congruent","g",1,0.585511799901724
"sub-006",62,"blau","blue",1,"congruent","b",1,0.672766300034709
"sub-006",63,"blau","yellow",0,"incongruent","g",1,0.745694200042635
"sub-006",64,"rot","yellow",0,"incongruent","g",1,0.444277300033718
"sub-006",65,"gelb","red",0,"incongruent","r",1,0.657907199929468
"sub-006",66,"blau","red",0,"incongruent","r",1,0.602076499955729
"sub-006",67,"blau","blue",1,"congruent","b",1,1.02599810005631
"sub-006",68,"gelb","blue",0,"incongruent","b",1,1.28946130000986
"sub-006",69,"rot","blue",0,"incongruent","b",1,0.842709199991077
"sub-006",70,"gelb","yellow",1,"congruent","g",1,0.525763900019228
"sub-006",71,"rot","red",1,"congruent","r",1,0.502994799986482
"sub-006",72,"rot","red",1,"congruent","r",1,0.438869800069369
"sub-006",73,"rot","red",1,"congruent","r",1,0.423647099989466
"sub-006",74,"rot","yellow",0,"incongruent","g",1,0.601642000023276
"sub-006",75,"blau","blue",1,"congruent","b",1,0.391482600010931
"sub-006",76,"rot","blue",0,"incongruent","b",1,0.977949899970554
"sub-006",77,"gelb","yellow",1,"congruent","g",1,0.580814699991606
"sub-006",78,"blau","blue",1,"congruent","b",1,0.619475800078362
"sub-006",79,"gelb","yellow",1,"congruent","g",1,0.694162300089374
"sub-006",80,"blau","red",0,"incongruent","r",1,1.50510790001135
"sub-006",81,"rot","red",1,"congruent","r",1,0.415642300038598
"sub-006",82,"blau","yellow",0,"incongruent","g",1,0.85502770007588
"sub-006",83,"gelb","red",0,"incongruent","r",1,0.837787900003605
"sub-006",84,"gelb","blue",0,"incongruent","b",1,0.651215699966997
"sub-006",85,"gelb","yellow",1,"congruent","g",1,0.60808909998741
"sub-006",86,"blau","blue",1,"congruent","b",1,0.864737799973227
"sub-006",87,"blau","blue",1,"congruent","b",1,0.917966599925421
"sub-006",88,"rot","blue",0,"incongruent","b",1,0.899544200045057
"sub-006",89,"rot","red",1,"congruent","r",1,0.514909300021827
"sub-006",90,"rot","red",1,"congruent","r",1,0.492178300046362
"sub-006",91,"blau","yellow",0,"incongruent","g",1,0.870684699970298
"sub-006",92,"blau","red",0,"incongruent","r",1,0.951553700026125
"sub-006",93,"rot","yellow",0,"incongruent","g",1,1.23155689996202
"sub-006",94,"gelb","red",0,"incongruent","r",1,0.820381699944846
"sub-006",95,"gelb","blue",0,"incongruent","b",1,0.710281700012274
"sub-006",96,"gelb","yellow",1,"congruent","g",1,0.57340390002355
"sub-006",97,"rot","red",1,"congruent","r",1,0.681086700060405
"sub-006",98,"blau","blue",1,"congruent","b",1,0.639151800074615
"sub-006",99,"gelb","blue",0,"incongruent","b",1,0.602867499925196
"sub-006",100,"gelb","yellow",1,"congruent","g",1,0.504563799942844
"sub-006",101,"gelb","yellow",1,"congruent","g",1,0.877478200010955
"sub-006",102,"blau","blue",1,"congruent","b",1,0.640933299902827
"sub-006",103,"blau","yellow",0,"incongruent","g",1,0.880273099988699
"sub-006",104,"blau","red",0,"incongruent","r",1,0.612275299965404
"sub-006",105,"rot","red",1,"congruent","r",1,0.561128700035624
"sub-006",106,"rot","yellow",0,"incongruent","g",1,0.656968499999493
"sub-006",107,"rot","blue",0,"incongruent","b",1,0.78960320004262
"sub-006",108,"gelb","red",0,"incongruent","r",1,0.769365099957213
"sub-006",109,"gelb","yellow",1,"congruent","g",1,0.429718700004741
"sub-006",110,"rot","yellow",0,"incongruent","g",1,0.633262099931017
"sub-006",111,"blau","blue",1,"congruent","b",1,0.48783680004999
"sub-006",112,"blau","blue",1,"congruent","b",1,0.837209299905226
"sub-006",113,"gelb","red",0,"incongruent","r",1,0.960626600077376
"sub-006",114,"gelb","blue",0,"incongruent","b",1,0.985747399972752
"sub-006",115,"gelb","yellow",1,"congruent","g",1,0.430408200016245
"sub-006",116,"blau","yellow",0,"incongruent","g",1,0.39153050002642
"sub-006",117,"rot","red",1,"congruent","r",1,0.504580299952067
"sub-006",118,"rot","red",1,"congruent","r",1,0.439070599968545
"sub-006",119,"blau","red",0,"incongruent","r",1,0.451756300055422
"sub-006",120,"rot","blue",0,"incongruent","b",1,0.896535299951211
"sub-007",1,"rot","yellow",0,"incongruent","g",1,0.600176903004467
"sub-007",2,"blau","red",0,"incongruent","r",1,0.364101440995
"sub-007",3,"rot","blue",0,"incongruent","b",1,0.343248963996302
"sub-007",4,"gelb","blue",0,"incongruent","b",1,0.379333365002822
"sub-007",5,"blau","yellow",0,"incongruent","g",1,0.683972129998438
"sub-007",6,"blau","blue",1,"congruent","b",1,0.468111408998084
"sub-007",7,"gelb","yellow",1,"congruent","g",1,0.340583782999602
"sub-007",8,"gelb","red",0,"incongruent","r",1,0.329455740997219
"sub-007",9,"gelb","yellow",1,"congruent","g",1,0.340410206001252
"sub-007",10,"rot","red",1,"congruent","r",1,0.425536537004518
"sub-007",11,"blau","blue",1,"congruent","b",1,0.48342280399811
"sub-007",12,"rot","red",1,"congruent","r",1,0.494557054997131
"sub-007",13,"blau","blue",1,"congruent","b",1,0.44688848000078
"sub-007",14,"gelb","yellow",1,"congruent","g",1,0.40082059300039
"sub-007",15,"blau","red",0,"incongruent","r",1,0.313031327998033
"sub-007",16,"rot","red",1,"congruent","r",1,0.369897768003284
"sub-007",17,"blau","yellow",0,"incongruent","g",1,0.540465940997819
"sub-007",18,"blau","blue",1,"congruent","b",1,0.432945977001509
"sub-007",19,"gelb","blue",0,"incongruent","b",1,0.413417992000177
"sub-007",20,"gelb","yellow",1,"congruent","g",1,0.383615897000709
"sub-007",21,"rot","blue",0,"incongruent","b",1,0.489098294005089
"sub-007",22,"rot","red",1,"congruent","r",1,0.317034861000138
"sub-007",23,"rot","yellow",0,"incongruent","g",1,0.449554455000907
"sub-007",24,"gelb","red",0,"incongruent","r",1,0.342266063002171
"sub-007",25,"blau","red",0,"incongruent","r",1,0.532364671998948
"sub-007",26,"gelb","yellow",1,"congruent","g",1,0.660368729004404
"sub-007",27,"gelb","blue",0,"incongruent","b",1,0.348399970003811
"sub-007",28,"rot","blue",0,"incongruent","b",1,0.621288420996279
"sub-007",29,"blau","blue",1,"congruent","b",1,0.368907195996144
"sub-007",30,"rot","yellow",0,"incongruent","g",1,0.540641736995894
"sub-007",31,"rot","red",1,"congruent","r",1,0.326663933999953
"sub-007",32,"blau","blue",1,"congruent","b",1,0.437106359997415
"sub-007",33,"gelb","yellow",1,"congruent","b",0,0.537676603998989
"sub-007",34,"blau","yellow",0,"incongruent","g",1,0.608154165005544
"sub-007",35,"rot","red",1,"congruent","r",1,0.654656104001333
"sub-007",36,"gelb","red",0,"incongruent","r",1,0.451365280998289
"sub-007",37,"blau","yellow",0,"incongruent","g",1,0.485554200000479
"sub-007",38,"gelb","blue",0,"incongruent","b",1,0.342132498997671
"sub-007",39,"rot","red",1,"congruent","r",1,0.349156477001088
"sub-007",40,"blau","blue",1,"congruent","b",1,0.53167130699876
"sub-007",41,"rot","yellow",0,"incongruent","g",1,0.364926262998779
"sub-007",42,"blau","blue",1,"congruent","b",1,0.423794479000208
"sub-007",43,"gelb","red",0,"incongruent","r",1,0.370732221002981
"sub-007",44,"gelb","yellow",1,"congruent","g",1,0.313562946001184
"sub-007",45,"gelb","yellow",1,"congruent","g",1,0.416971540995291
"sub-007",46,"blau","red",0,"incongruent","r",1,0.361093231003906
"sub-007",47,"rot","red",1,"congruent","g",0,0.404997421996086
"sub-007",48,"rot","blue",0,"incongruent","b",1,1.26581108800019
"sub-007",49,"rot","blue",0,"incongruent","b",1,0.425817363000533
"sub-007",50,"blau","blue",1,"congruent","b",1,0.446658651999314
"sub-007",51,"rot","red",1,"congruent","r",1,0.339175515000534
"sub-007",52,"gelb","yellow",1,"congruent","g",1,0.374973076999595
"sub-007",53,"gelb","yellow",1,"congruent","g",1,0.358247203002975
"sub-007",54,"blau","red",0,"incongruent","r",1,0.407373074005591
"sub-007",55,"gelb","blue",0,"incongruent","b",1,0.443662892997963
"sub-007",56,"rot","red",1,"congruent","r",1,0.508647745999042
"sub-007",57,"gelb","red",0,"incongruent","r",1,0.422774307997315
"sub-007",58,"rot","yellow",0,"incongruent","g",1,0.466881649997958
"sub-007",59,"blau","yellow",0,"incongruent","g",1,0.469677795997995
"sub-007",60,"blau","blue",1,"congruent","b",1,0.436235362001753
"sub-007",61,"blau","blue",1,"congruent","b",1,0.708243114000652
"sub-007",62,"gelb","yellow",1,"congruent","g",1,0.568144386998028
"sub-007",63,"blau","red",0,"incongruent","r",1,0.732050638005603
"sub-007",64,"rot","blue",0,"incongruent","b",1,0.499414163998154
"sub-007",65,"rot","red",1,"congruent","r",1,0.368779087002622
"sub-007",66,"gelb","red",0,"incongruent","r",1,0.716561200002616
"sub-007",67,"gelb","blue",0,"incongruent","b",1,0.526547354005743
"sub-007",68,"blau","yellow",0,"incongruent","g",1,0.413104742001451
"sub-007",69,"gelb","yellow",1,"congruent","g",1,0.313070174001041
"sub-007",70,"rot","red",1,"congruent","r",1,0.466752072999952
"sub-007",71,"blau","blue",1,"congruent","b",1,0.374750326001958
"sub-007",72,"rot","yellow",0,"incongruent","g",1,0.297230217001925
"sub-007",73,"blau","yellow",0,"incongruent","g",1,0.417748846994073
"sub-007",74,"rot","red",1,"congruent","r",1,0.297866057997453
"sub-007",75,"blau","blue",1,"congruent","b",1,0.366809010003635
"sub-007",76,"gelb","red",0,"incongruent","r",1,0.360713140995358
"sub-007",77,"gelb","yellow",1,"congruent","g",1,0.560773537996283
"sub-007",78,"gelb","yellow",1,"congruent","b",0,0.354108847001044
"sub-007",79,"blau","red",0,"incongruent","r",1,0.535998998995638
"sub-007",80,"rot","red",1,"congruent","r",1,0.457968706999964
"sub-007",81,"gelb","blue",0,"incongruent","b",1,0.612137604002783
"sub-007",82,"blau","blue",1,"congruent","b",1,0.375346257998899
"sub-007",83,"rot","yellow",0,"incongruent","g",1,0.766497203003382
"sub-007",84,"rot","blue",0,"incongruent","b",1,0.908896987006301
"sub-007",85,"rot","blue",0,"incongruent","b",1,0.426707655999053
"sub-007",86,"gelb","yellow",1,"congruent","g",1,0.456926138002018
"sub-007",87,"blau","blue",1,"congruent","b",1,0.481610135997471
"sub-007",88,"rot","red",1,"congruent","r",1,0.444085009999981
"sub-007",89,"blau","blue",1,"congruent","b",1,0.507522856998548
"sub-007",90,"gelb","red",0,"incongruent","r",1,0.381229510996491
"sub-007",91,"rot","yellow",0,"incongruent","g",1,0.371051989997795
"sub-007",92,"blau","yellow",0,"incongruent","g",1,0.486745033005718
"sub-007",93,"rot","red",1,"congruent","r",1,0.483608773000014
"sub-007",94,"gelb","yellow",1,"congruent","g",1,0.468386551001458
"sub-007",95,"gelb","blue",0,"incongruent","b",1,0.459503109996149
"sub-007",96,"blau","red",0,"incongruent","r",1,0.32448657900386
"sub-007",97,"blau","red",0,"incongruent","r",1,0.408638635999523
"sub-007",98,"blau","blue",1,"congruent","b",1,0.495277503003308
"sub-007",99,"gelb","red",0,"incongruent","r",1,0.449294878999353
"sub-007",100,"blau","yellow",0,"incongruent","g",1,0.620997087004071
"sub-007",101,"rot","blue",0,"incongruent","b",1,0.454800643005001
"sub-007",102,"rot","yellow",0,"incongruent","g",1,0.710198826003761
"sub-007",103,"gelb","blue",0,"incongruent","b",1,0.465494919997582
"sub-007",104,"blau","blue",1,"congruent","b",1,0.449704211001517
"sub-007",105,"gelb","yellow",1,"congruent","g",1,0.453624890003994
"sub-007",106,"gelb","yellow",1,"congruent","g",1,0.420434685001965
"sub-007",107,"rot","red",1,"congruent","r",1,0.351105093002843
"sub-007",108,"rot","red",1,"congruent","r",1,0.416653186002804
"sub-007",109,"blau","red",0,"incongruent","r",1,0.27390167699923
"sub-007",110,"rot","yellow",0,"incongruent","g",1,0.417619783998816
"sub-007",111,"rot","red",1,"congruent","r",1,0.366902953996032
"sub-007",112,"gelb","yellow",1,"congruent","g",1,0.433098161003727
"sub-007",113,"gelb","blue",0,"incongruent","b",1,0.362842640002782
"sub-007",114,"blau","blue",1,"congruent","b",1,0.422826734000409
"sub-007",115,"gelb","red",0,"incongruent","r",1,0.358634397001879
"sub-007",116,"rot","blue",0,"incongruent","b",1,0.523641304003831
"sub-007",117,"gelb","yellow",1,"congruent","g",1,0.473169169999892
"sub-007",118,"blau","yellow",0,"incongruent","g",1,0.380827947999933
"sub-007",119,"blau","blue",1,"congruent","b",1,0.500541765999515
"sub-007",120,"rot","red",1,"congruent","r",1,0.392269194999244
"sub-008",1,"gelb","yellow",1,"congruent","g",1,1.40102249999472
"sub-008",2,"rot","yellow",0,"incongruent","g",1,0.643217600001663
"sub-008",3,"rot","blue",0,"incongruent","b",1,0.768383199996606
"sub-008",4,"gelb","yellow",1,"congruent","g",1,1.69873089999601
"sub-008",5,"blau","blue",1,"congruent","b",1,0.460521099994367
"sub-008",6,"blau","red",0,"incongruent","r",1,0.290736100003414
"sub-008",7,"blau","blue",1,"congruent","b",1,0.674416499998188
"sub-008",8,"rot","red",1,"congruent","r",1,0.525974600001064
"sub-008",9,"rot","red",1,"congruent","r",1,0.461727699999756
"sub-008",10,"blau","yellow",0,"incongruent","g",1,0.677368700002262
"sub-008",11,"gelb","blue",0,"incongruent","b",1,0.656883699994069
"sub-008",12,"gelb","red",0,"incongruent","r",1,0.567707000001974
"sub-008",13,"blau","blue",1,"congruent","b",1,0.555708699997922
"sub-008",14,"rot","yellow",0,"incongruent","g",1,0.338710500000161
"sub-008",15,"blau","blue",1,"congruent","b",1,0.465141799999401
"sub-008",16,"gelb","blue",0,"incongruent","b",1,0.557153100002324
"sub-008",17,"blau","red",0,"incongruent","r",1,0.588197299999592
"sub-008",18,"gelb","red",0,"incongruent","r",1,0.560179300002346
"sub-008",19,"rot","red",1,"congruent","r",1,0.429752099997131
"sub-008",20,"blau","yellow",0,"incongruent","b",0,0.43272060000163
"sub-008",21,"rot","red",1,"congruent","r",1,0.439360999997007
"sub-008",22,"gelb","yellow",1,"congruent","g",1,1.05976499999815
"sub-008",23,"rot","blue",0,"incongruent","b",1,0.894121899997117
"sub-008",24,"gelb","yellow",1,"congruent","g",1,0.874803999999131
"sub-008",25,"blau","red",0,"incongruent","r",1,0.389141999999992
"sub-008",26,"gelb","blue",0,"incongruent","b",1,0.323653300001752
"sub-008",27,"gelb","yellow",1,"congruent","g",1,0.566812400000344
"sub-008",28,"gelb","red",0,"incongruent","r",1,0.572462399999495
"sub-008",29,"blau","yellow",0,"incongruent","g",1,0.577089400001569
"sub-008",30,"rot","red",1,"congruent","r",1,0.441672599998128
"sub-008",31,"gelb","yellow",1,"congruent","g",1,0.4410482999956
"sub-008",32,"rot","blue",0,"incongruent","b",1,1.59451170000102
"sub-008",33,"rot","yellow",0,"incongruent","g",1,1.92261249999865
"sub-008",34,"rot","red",1,"congruent","r",1,0.595668100002513
"sub-008",35,"blau","blue",1,"congruent","b",1,0.923112800002855
"sub-008",36,"blau","blue",1,"congruent","b",1,0.557823899995128
"sub-008",37,"blau","blue",1,"congruent","b",1,0.383648300005007
"sub-008",38,"gelb","yellow",1,"congruent","g",1,0.843735100002959
"sub-008",39,"blau","blue",1,"congruent","b",1,0.839857200000552
"sub-008",40,"blau","yellow",0,"incongruent","g",1,1.05972250000195
"sub-008",41,"gelb","blue",0,"incongruent","b",1,0.899010099994484
"sub-008",42,"rot","blue",0,"incongruent","b",1,0.762187399996037
"sub-008",43,"rot","red",1,"congruent","r",1,0.517731300002197
"sub-008",44,"gelb","red",0,"incongruent","r",1,0.74085699999705
"sub-008",45,"gelb","yellow",1,"congruent","g",1,0.566832199998316
"sub-008",46,"rot","red",1,"congruent","r",1,1.47093350000068
"sub-008",47,"blau","red",0,"incongruent","r",1,1.87365689999569
"sub-008",48,"rot","yellow",0,"incongruent","g",1,0.884168500000669
"sub-008",49,"rot","red",1,"congruent","r",1,0.431365399999777
"sub-008",50,"gelb","yellow",1,"congruent","g",1,2.67037350000464
"sub-008",51,"blau","red",0,"incongruent","r",1,0.952074900000298
"sub-008",52,"blau","blue",1,"congruent","b",1,1.03140639999765
"sub-008",53,"blau","yellow",0,"incongruent","g",1,0.580086499998288
"sub-008",54,"gelb","red",0,"incongruent","r",1,0.406317299995862
"sub-008",55,"rot","yellow",0,"incongruent","g",1,2.1425206999993
"sub-008",56,"gelb","blue",0,"incongruent","b",1,0.415683700004592
"sub-008",57,"gelb","yellow",1,"congruent","g",1,0.733205999997153
"sub-008",58,"rot","red",1,"congruent","r",1,0.54501750000054
"sub-008",59,"rot","blue",0,"incongruent","b",1,0.701402200000302
"sub-008",60,"blau","blue",1,"congruent","b",1,0.589372900001763
"sub-008",61,"blau","blue",1,"congruent","b",1,0.426538799998525
"sub-008",62,"gelb","yellow",1,"congruent","g",1,0.681844999999157
"sub-008",63,"rot","red",1,"congruent","r",1,0.439404400000058
"sub-008",64,"blau","blue",1,"congruent","b",1,0.529641100001754
"sub-008",65,"rot","red",1,"congruent","r",1,0.486805399996229
"sub-008",66,"gelb","red",0,"incongruent","r",1,0.622171799994248
"sub-008",67,"blau","yellow",0,"incongruent","g",1,0.890495400002692
"sub-008",68,"blau","red",0,"incongruent","r",1,0.507276700001967
"sub-008",69,"gelb","blue",0,"incongruent","b",1,0.62052119999862
"sub-008",70,"gelb","yellow",1,"congruent","g",1,0.581713900006434
"sub-008",71,"rot","yellow",0,"incongruent","g",1,0.598033800000849
"sub-008",72,"rot","blue",0,"incongruent","b",1,0.510796300004586
"sub-008",73,"rot","red",1,"congruent","r",1,0.513832299999194
"sub-008",74,"blau","blue",1,"congruent","b",1,0.892280200001551
"sub-008",75,"blau","yellow",0,"incongruent","g",1,0.464112800000294
"sub-008",76,"gelb","yellow",1,"congruent","g",1,0.469829999994545
"sub-008",77,"gelb","yellow",1,"congruent","g",1,0.549737199995434
"sub-008",78,"gelb","blue",0,"incongruent","b",1,0.355849100000341
"sub-008",79,"blau","red",0,"incongruent","r",1,0.367994699998235
"sub-008",80,"gelb","red",0,"incongruent","r",1,0.505372300001909
"sub-008",81,"rot","yellow",0,"incongruent","g",1,0.484715300000971
"sub-008",82,"blau","blue",1,"congruent","b",1,0.339600699997391
"sub-008",83,"rot","blue",0,"incongruent","b",1,0.70978009999817
"sub-008",84,"rot","red",1,"congruent","r",1,0.500518300003023
"sub-008",85,"rot","blue",0,"incongruent","b",1,0.542953700001817
"sub-008",86,"blau","blue",1,"congruent","b",1,0.454759899999772
"sub-008",87,"gelb","yellow",1,"congruent","g",1,0.571839600001113
"sub-008",88,"gelb","blue",0,"incongruent","b",1,0.51842089999991
"sub-008",89,"gelb","red",0,"incongruent","r",1,0.563834000000497
"sub-008",90,"blau","yellow",0,"incongruent","g",1,0.442029300000286
"sub-008",91,"rot","red",1,"congruent","r",1,0.315444700005173
"sub-008",92,"blau","red",0,"incongruent","r",1,0.323600799994892
"sub-008",93,"rot","red",1,"congruent","r",1,0.397107799995865
"sub-008",94,"gelb","yellow",1,"congruent","g",1,0.488215599994874
"sub-008",95,"blau","blue",1,"congruent","b",1,0.541345999998157
"sub-008",96,"rot","yellow",0,"incongruent","g",1,0.760858200002986
"sub-008",97,"gelb","red",0,"incongruent","r",1,0.363133200000448
"sub-008",98,"blau","blue",1,"congruent","g",0,0.413994399998046
"sub-008",99,"rot","red",1,"congruent","r",1,0.627627699999721
"sub-008",100,"blau","red",0,"incongruent","r",1,0.401078000002599
"sub-008",101,"gelb","yellow",1,"congruent","g",1,0.962409699997806
"sub-008",102,"rot","yellow",0,"incongruent","g",1,0.875015999998141
"sub-008",103,"gelb","yellow",1,"congruent","g",1,0.485439500000211
"sub-008",104,"rot","blue",0,"incongruent","b",1,0.950918999995338
"sub-008",105,"gelb","blue",0,"incongruent","b",1,0.581550499999139
"sub-008",106,"blau","blue",1,"congruent","b",1,0.387421700004779
"sub-008",107,"rot","red",1,"congruent","r",1,0.44125989999884
"sub-008",108,"blau","yellow",0,"incongruent","g",1,0.747561900003348
"sub-008",109,"blau","blue",1,"congruent","b",1,1.28784009999799
"sub-008",110,"rot","red",1,"congruent","r",1,0.427433599994401
"sub-008",111,"rot","blue",0,"incongruent","b",1,0.522072799998568
"sub-008",112,"blau","red",0,"incongruent","r",1,1.39770359999966
"sub-008",113,"rot","yellow",0,"incongruent","g",1,1.06928350000089
"sub-008",114,"gelb","yellow",1,"congruent","g",1,0.731869400005962
"sub-008",115,"rot","red",1,"congruent","r",1,0.576397500000894
"sub-008",116,"gelb","yellow",1,"congruent","g",1,1.69245209999644
"sub-008",117,"gelb","blue",0,"incongruent","b",1,0.375073700000939
"sub-008",118,"gelb","red",0,"incongruent","r",1,0.586867999998503
"sub-008",119,"blau","yellow",0,"incongruent","g",1,2.10820870000316
"sub-008",120,"blau","blue",1,"congruent","b",1,0.545160299996496
"sub-009",1,"gelb","yellow",1,"congruent","g",1,1.7153798
"sub-009",2,"rot","red",1,"congruent","g",0,2.2522547
"sub-009",3,"blau","blue",1,"congruent","b",1,1.7859569
"sub-009",4,"blau","blue",1,"congruent","b",1,0.8191838
"sub-009",5,"blau","yellow",0,"incongruent","g",1,2.5303364
"sub-009",6,"gelb","yellow",1,"congruent","g",1,3.1871723
"sub-009",7,"rot","yellow",0,"incongruent","r",0,2.954144
"sub-009",8,"gelb","red",0,"incongruent","g",0,1.2279604
"sub-009",9,"rot","blue",0,"incongruent","b",1,2.2788662
"sub-009",10,"gelb","blue",0,"incongruent","b",1,1.1884499
"sub-009",11,"rot","red",1,"congruent","r",1,1.9584484
"sub-009",12,"blau","red",0,"incongruent","b",0,2.4162733
"sub-009",13,"blau","blue",1,"congruent","b",1,1.0318392
"sub-009",14,"rot","red",1,"congruent","r",1,1.3226837
"sub-009",15,"rot","red",1,"congruent","r",1,0.6992833
"sub-009",16,"gelb","yellow",1,"congruent","g",1,1.2467595
"sub-009",17,"gelb","yellow",1,"congruent","g",1,0.7296269
"sub-009",18,"blau","red",0,"incongruent","b",0,1.8139295
"sub-009",19,"rot","blue",0,"incongruent","r",0,1.8352489
"sub-009",20,"rot","yellow",0,"incongruent","r",0,0.7597121
"sub-009",21,"gelb","red",0,"incongruent","g",0,1.7145183
"sub-009",22,"blau","blue",1,"congruent","b",1,0.7228191
"sub-009",23,"gelb","blue",0,"incongruent","g",0,1.2866311
"sub-009",24,"blau","yellow",0,"incongruent","g",1,1.0196538
"sub-009",25,"rot","yellow",0,"incongruent","r",0,2.0420859
"sub-009",26,"blau","blue",1,"congruent","b",1,3.2943708
"sub-009",27,"gelb","yellow",1,"congruent","g",1,2.0795082
"sub-009",28,"rot","red",1,"congruent","r",1,1.7781206
"sub-009",29,"blau","red",0,"incongruent","b",0,1.5119445
"sub-009",30,"blau","blue",1,"congruent","b",1,0.7980097
"sub-009",31,"gelb","red",0,"incongruent","g",0,4.5278277
"sub-009",32,"gelb","blue",0,"incongruent","g",0,0.8757262
"sub-009",33,"rot","blue",0,"incongruent","r",0,1.5381556
"sub-009",34,"blau","yellow",0,"incongruent","b",0,0.9713648
"sub-009",35,"rot","red",1,"congruent","r",1,0.9997178
"sub-009",36,"gelb","yellow",1,"congruent","g",1,0.9297389
"sub-009",37,"blau","red",0,"incongruent","b",0,1.1733979
"sub-009",38,"gelb","red",0,"incongruent","g",0,2.2407093
"sub-009",39,"rot","blue",0,"incongruent","r",0,3.4031416
"sub-009",40,"rot","red",1,"congruent","r",1,0.7690154
"sub-009",41,"gelb","yellow",1,"congruent","g",1,1.0129195
"sub-009",42,"blau","yellow",0,"incongruent","b",0,2.5646051
"sub-009",43,"rot","yellow",0,"incongruent","r",0,1.8095857
"sub-009",44,"rot","red",1,"congruent","r",1,0.8150383
"sub-009",45,"blau","blue",1,"congruent","b",1,1.1904958
"sub-009",46,"gelb","blue",0,"incongruent","g",0,1.5902889
"sub-009",47,"gelb","yellow",1,"congruent","g",1,1.7116106
"sub-009",48,"blau","blue",1,"congruent","b",1,1.4227849
"sub-009",49,"blau","yellow",0,"incongruent","b",0,2.3146461
"sub-009",50,"gelb","yellow",1,"congruent","g",1,1.2671843
"sub-009",51,"blau","blue",1,"congruent","b",1,0.8806837
"sub-009",52,"blau","blue",1,"congruent","b",1,0.8614567
"sub-009",53,"blau","red",0,"incongruent","b",0,1.6541449
"sub-009",54,"rot","red",1,"congruent","r",1,2.8176517
"sub-009",55,"gelb","yellow",1,"congruent","g",1,0.9695036
"sub-009",56,"rot","red",1,"congruent","r",1,0.6796185
"sub-009",57,"rot","yellow",0,"incongruent","r",0,1.0746441
"sub-009",58,"gelb","blue",0,"incongruent","g",0,1.3480913
"sub-009",59,"rot","blue",0,"incongruent","r",0,2.5840221
"sub-009",60,"gelb","red",0,"incongruent","g",0,1.4134802
"sub-009",61,"rot","red",1,"congruent","r",1,0.8086352
"sub-009",62,"rot","red",1,"congruent","r",1,0.768373
"sub-009",63,"rot","blue",0,"incongruent","r",0,1.2594987
"sub-009",64,"rot","yellow",0,"incongruent","r",0,0.9896907
"sub-009",65,"blau","red",0,"incongruent","b",0,1.799808
"sub-009",66,"blau","blue",1,"congruent","b",1,0.7016266
"sub-009",67,"gelb","yellow",1,"congruent","g",1,1.0850921
"sub-009",68,"blau","blue",1,"congruent","b",1,1.2455751
"sub-009",69,"gelb","yellow",1,"congruent","g",1,0.7438739
"sub-009",70,"gelb","blue",0,"incongruent","g",0,1.1339742
"sub-009",71,"blau","yellow",0,"incongruent","b",0,2.4802017
"sub-009",72,"gelb","red",0,"incongruent","g",0,1.7419203
"sub-009",73,"gelb","blue",0,"incongruent","g",0,0.6494497
"sub-009",74,"rot","red",1,"congruent","r",1,0.9208596
"sub-009",75,"gelb","yellow",1,"congruent","g",1,1.1136759
"sub-009",76,"rot","red",1,"congruent","r",1,0.6584517
"sub-009",77,"blau","blue",1,"congruent","b",1,1.233535
"sub-009",78,"rot","yellow",0,"incongruent","r",0,1.2266794
"sub-009",79,"rot","blue",0,"incongruent","r",0,0.749414
"sub-009",80,"blau","yellow",0,"incongruent","b",0,1.0027501
"sub-009",81,"blau","red",0,"incongruent","b",0,0.721211
"sub-009",82,"gelb","yellow",1,"congruent","g",1,3.4378608
"sub-009",83,"gelb","red",0,"incongruent","g",0,0.5986349
"sub-009",84,"blau","blue",1,"congruent","b",1,0.6290418
"sub-009",85,"gelb","yellow",1,"congruent","g",1,1.0338246
"sub-009",86,"gelb","yellow",1,"congruent","g",1,0.5583264
"sub-009",87,"blau","blue",1,"congruent","b",1,0.9659686
"sub-009",88,"blau","red",0,"incongruent","b",0,0.9240258
"sub-009",89,"rot","yellow",0,"incongruent","r",0,0.7362154
"sub-009",90,"rot","red",1,"congruent","r",1,0.4145001
"sub-009",91,"blau","yellow",0,"incongruent","b",0,0.8532894
"sub-009",92,"rot","blue",0,"incongruent","r",0,0.7786851
"sub-009",93,"gelb","blue",0,"incongruent","g",0,1.2421018
"sub-009",94,"rot","red",1,"congruent","r",1,0.8884404
"sub-009",95,"gelb","red",0,"incongruent","g",0,1.3792839
"sub-009",96,"blau","blue",1,"congruent","b",1,1.3773148
"sub-009",97,"blau","blue",1,"congruent","b",1,0.7094583
"sub-009",98,"gelb","blue",0,"incongruent","g",0,0.9037528
"sub-009",99,"gelb","yellow",1,"congruent","g",1,0.4350905
"sub-009",100,"gelb","yellow",1,"congruent","g",1,0.5133155
"sub-009",101,"rot","red",1,"congruent","r",1,0.5548282
"sub-009",102,"blau","red",0,"incongruent","b",0,0.7255985
"sub-009",103,"blau","yellow",0,"incongruent","b",0,0.7041036
"sub-009",104,"gelb","red",0,"incongruent","g",0,0.8029936
"sub-009",105,"rot","red",1,"congruent","r",1,0.445246
"sub-009",106,"rot","yellow",0,"incongruent","r",0,0.5602157
"sub-009",107,"rot","blue",0,"incongruent","r",0,0.6163661
"sub-009",108,"blau","blue",1,"congruent","g",0,0.5659199
"sub-009",109,"gelb","yellow",1,"congruent","r",0,1.5181896
"sub-009",110,"rot","yellow",0,"incongruent","r",0,2.7022285
"sub-009",111,"gelb","red",0,"incongruent","g",0,1.136626
"sub-009",112,"blau","blue",1,"congruent","b",1,0.7103091
"sub-009",113,"gelb","yellow",1,"congruent","g",1,1.09889
"sub-009",114,"rot","red",1,"congruent","r",1,2.2048507
"sub-009",115,"blau","yellow",0,"incongruent","b",0,2.9819236
"sub-009",116,"rot","red",1,"congruent","r",1,0.8116379
"sub-009",117,"gelb","blue",0,"incongruent","g",0,1.136129
"sub-009",118,"blau","blue",1,"congruent","b",1,1.348672
"sub-009",119,"rot","blue",0,"incongruent","r",0,0.7310992
"sub-009",120,"blau","red",0,"incongruent","b",0,2.823185
"sub-010",1,"blau","blue",1,"congruent","b",1,0.6325612
"sub-010",2,"gelb","red",0,"incongruent","g",0,1.2853636
"sub-010",3,"blau","blue",1,"congruent","b",1,0.6470552
"sub-010",4,"rot","red",1,"congruent","r",1,0.3787776
"sub-010",5,"gelb","yellow",1,"congruent","g",1,0.406185
"sub-010",6,"blau","yellow",0,"incongruent","g",1,0.7539476
"sub-010",7,"gelb","yellow",1,"congruent","g",1,0.5985656
"sub-010",8,"gelb","blue",0,"incongruent","b",1,0.6346923
"sub-010",9,"rot","blue",0,"incongruent","g",0,0.5470079
"sub-010",10,"blau","red",0,"incongruent","r",1,0.6292565
"sub-010",11,"rot","yellow",0,"incongruent","g",1,0.4074899
"sub-010",12,"rot","red",1,"congruent","g",0,0.5112232
"sub-010",13,"rot","blue",0,"incongruent","g",0,0.9663675
"sub-010",14,"blau","blue",1,"congruent","b",1,0.7540187
"sub-010",15,"blau","yellow",0,"incongruent","g",1,0.843137
"sub-010",16,"rot","red",1,"congruent","r",1,0.5183846
"sub-010",17,"gelb","blue",0,"incongruent","b",1,2.4041826
"sub-010",18,"blau","red",0,"incongruent","r",1,1.5916419
"sub-010",19,"rot","red",1,"congruent","r",1,0.5401076
"sub-010",20,"blau","blue",1,"congruent","b",1,0.5559914
"sub-010",21,"gelb","yellow",1,"congruent","g",1,4.1850419
"sub-010",22,"gelb","red",0,"incongruent","r",1,1.3249661
"sub-010",23,"rot","yellow",0,"incongruent","g",1,2.4432056
"sub-010",24,"gelb","yellow",1,"congruent","g",1,0.796645
"sub-010",25,"blau","yellow",0,"incongruent","g",1,0.6144707
"sub-010",26,"gelb","red",0,"incongruent","r",1,0.5884658
"sub-010",27,"rot","red",1,"congruent","r",1,0.5768964
"sub-010",28,"blau","blue",1,"congruent","b",1,0.7458126
"sub-010",29,"blau","red",0,"incongruent","b",0,2.3528409
"sub-010",30,"rot","blue",0,"incongruent","b",1,1.6716693
"sub-010",31,"rot","red",1,"congruent","r",1,0.487463
"sub-010",32,"gelb","yellow",1,"congruent","g",1,0.6828687
"sub-010",33,"rot","yellow",0,"incongruent","g",1,0.8846616
"sub-010",34,"gelb","blue",0,"incongruent","b",1,0.7704432
"sub-010",35,"gelb","yellow",1,"congruent","g",1,0.561095
"sub-010",36,"blau","blue",1,"congruent","b",1,0.8099827
"sub-010",37,"blau","blue",1,"congruent","b",1,0.4817367
"sub-010",38,"gelb","red",0,"incongruent","r",1,0.6801328
"sub-010",39,"blau","yellow",0,"incongruent","g",1,0.880803
"sub-010",40,"blau","blue",1,"congruent","b",1,0.6666536
"sub-010",41,"blau","red",0,"incongruent","r",1,0.6909745
"sub-010",42,"rot","yellow",0,"incongruent","g",1,0.6795606
"sub-010",43,"gelb","blue",0,"incongruent","b",1,2.6646799
"sub-010",44,"rot","red",1,"congruent","r",1,0.4449478
"sub-010",45,"rot","red",1,"congruent","r",1,0.5223939
"sub-010",46,"gelb","yellow",1,"congruent","g",1,1.518097
"sub-010",47,"gelb","yellow",1,"congruent","g",1,0.6012641
"sub-010",48,"rot","blue",0,"incongruent","b",1,1.7541097
"sub-010",49,"rot","yellow",0,"incongruent","g",1,1.1205491
"sub-010",50,"blau","blue",1,"congruent","b",1,0.8837419
"sub-010",51,"blau","yellow",0,"incongruent","g",1,0.8524178
"sub-010",52,"blau","red",0,"incongruent","r",1,0.7245322
"sub-010",53,"rot","blue",0,"incongruent","b",1,1.0523388
"sub-010",54,"rot","red",1,"congruent","r",1,0.7324183
"sub-010",55,"gelb","red",0,"incongruent","r",1,1.3098675
"sub-010",56,"gelb","blue",0,"incongruent","b",1,2.1623358
"sub-010",57,"rot","red",1,"congruent","r",1,0.5685304
"sub-010",58,"gelb","yellow",1,"congruent","g",1,0.407171
"sub-010",59,"blau","blue",1,"congruent","b",1,0.3972697
"sub-010",60,"gelb","yellow",1,"congruent","g",1,1.0040781
"sub-010",61,"blau","blue",1,"congruent","b",1,0.8412663
"sub-010",62,"blau","red",0,"incongruent","r",1,0.9004245
"sub-010",63,"gelb","yellow",1,"congruent","g",1,0.4365241
"sub-010",64,"blau","blue",1,"congruent","b",1,0.5180128
"sub-010",65,"rot","red",1,"congruent","r",1,0.3890267
"sub-010",66,"gelb","red",0,"incongruent","r",1,0.5860357
"sub-010",67,"rot","yellow",0,"incongruent","g",1,0.5435559
"sub-010",68,"gelb","blue",0,"incongruent","b",1,0.4006778
"sub-010",69,"rot","red",1,"congruent","r",1,0.5465638
"sub-010",70,"rot","blue",0,"incongruent","b",1,0.8559564
"sub-010",71,"blau","yellow",0,"incongruent","g",1,0.6925866
"sub-010",72,"gelb","yellow",1,"congruent","g",1,0.7655174
"sub-010",73,"rot","red",1,"congruent","r",1,0.526614
"sub-010",74,"blau","yellow",0,"incongruent","g",1,0.4763642
"sub-010",75,"gelb","yellow",1,"congruent","g",1,0.7256589
"sub-010",76,"rot","red",1,"congruent","r",1,0.529705
"sub-010",77,"rot","blue",0,"incongruent","b",1,0.5926408
"sub-010",78,"blau","blue",1,"congruent","b",1,0.7015057
"sub-010",79,"blau","red",0,"incongruent","r",1,0.4450752
"sub-010",80,"blau","blue",1,"congruent","b",1,0.394055
"sub-010",81,"rot","yellow",0,"incongruent","g",1,0.3919131
"sub-010",82,"gelb","yellow",1,"congruent","g",1,0.5958564
"sub-010",83,"gelb","red",0,"incongruent","r",1,0.6418165
"sub-010",84,"gelb","blue",0,"incongruent","b",1,0.8392497
"sub-010",85,"blau","blue",1,"congruent","b",1,0.8863955
"sub-010",86,"rot","yellow",0,"incongruent","g",1,2.3785147
"sub-010",87,"gelb","yellow",1,"congruent","g",1,1.0273213
"sub-010",88,"gelb","blue",0,"incongruent","b",1,0.9417782
"sub-010",89,"blau","blue",1,"congruent","b",1,0.8168535
"sub-010",90,"rot","red",1,"congruent","r",1,1.248684
"sub-010",91,"blau","yellow",0,"incongruent","g",1,1.1498762
"sub-010",92,"rot","blue",0,"incongruent","b",1,0.6705834
"sub-010",93,"rot","red",1,"congruent","r",1,0.5082652
"sub-010",94,"gelb","red",0,"incongruent","r",1,0.651356
"sub-010",95,"blau","red",0,"incongruent","r",1,0.58431
"sub-010",96,"gelb","yellow",1,"congruent","g",1,0.3705981
"sub-010",97,"blau","blue",1,"congruent","b",1,0.4945917
"sub-010",98,"blau","blue",1,"congruent","b",1,0.4423827
"sub-010",99,"rot","red",1,"congruent","r",1,0.4833197
"sub-010",100,"rot","blue",0,"incongruent","b",1,0.4519364
"sub-010",101,"gelb","blue",0,"incongruent","b",1,0.7036112
"sub-010",102,"blau","yellow",0,"incongruent","g",1,0.4042804
"sub-010",103,"rot","red",1,"congruent","r",1,0.3958206
"sub-010",104,"gelb","red",0,"incongruent","g",0,0.4039109
"sub-010",105,"blau","red",0,"incongruent","r",1,0.3942521
"sub-010",106,"gelb","yellow",1,"congruent","b",0,0.0503085
"sub-010",107,"rot","yellow",0,"incongruent","g",1,0.6069688
"sub-010",108,"gelb","yellow",1,"congruent","g",1,0.4702994
"sub-010",109,"blau","yellow",0,"incongruent","g",1,0.4696167
"sub-010",110,"blau","blue",1,"congruent","b",1,0.6343816
"sub-010",111,"blau","blue",1,"congruent","b",1,1.2951679
"sub-010",112,"rot","red",1,"congruent","r",1,0.3993911
"sub-010",113,"gelb","blue",0,"incongruent","g",0,0.4017558
"sub-010",114,"gelb","yellow",1,"congruent","g",1,0.8447063
"sub-010",115,"gelb","red",0,"incongruent","r",1,0.4673853
"sub-010",116,"rot","blue",0,"incongruent","b",1,0.4743946
"sub-010",117,"blau","red",0,"incongruent","b",0,0.1019708
"sub-010",118,"gelb","yellow",1,"congruent","g",1,0.5958399
"sub-010",119,"rot","yellow",0,"incongruent","g",1,0.5935854
"sub-010",120,"rot","red",1,"congruent","r",1,0.4509762
"sub-011",1,"rot","yellow",0,"incongruent","g",1,1.56605282900273
"sub-011",2,"blau","blue",1,"congruent","b",1,1.02085651399102
"sub-011",3,"rot","red",1,"congruent","r",1,1.96272339198913
"sub-011",4,"gelb","red",0,"incongruent","r",1,1.00897632399574
"sub-011",5,"rot","red",1,"congruent","r",1,0.517155916997581
"sub-011",6,"gelb","yellow",1,"congruent","g",1,0.397021832992323
"sub-011",7,"blau","blue",1,"congruent","b",1,0.785271229993668
"sub-011",8,"rot","blue",0,"incongruent","b",1,0.803449529004865
"sub-011",9,"blau","yellow",0,"incongruent","g",1,1.42103947600117
"sub-011",10,"gelb","blue",0,"incongruent","b",1,0.816764937000698
"sub-011",11,"blau","red",0,"incongruent","r",1,2.4274452690006
"sub-011",12,"gelb","yellow",1,"congruent","g",1,0.759636521994253
"sub-011",13,"blau","blue",1,"congruent","b",1,0.948223019004217
"sub-011",14,"gelb","yellow",1,"congruent","g",1,0.701170563988853
"sub-011",15,"blau","red",0,"incongruent","r",1,1.36440491100075
"sub-011",16,"gelb","red",0,"incongruent","r",1,0.707647456991253
"sub-011",17,"rot","yellow",0,"incongruent","g",1,1.38992171599239
"sub-011",18,"gelb","blue",0,"incongruent","b",1,1.08638475800399
"sub-011",19,"gelb","yellow",1,"congruent","g",1,1.13576445000945
"sub-011",20,"rot","red",1,"congruent","r",1,0.744385582991526
"sub-011",21,"rot","blue",0,"incongruent","b",1,0.664776350997272
"sub-011",22,"rot","red",1,"congruent","r",1,0.865265375003219
"sub-011",23,"blau","yellow",0,"incongruent","g",1,0.567681471002288
"sub-011",24,"blau","blue",1,"congruent","b",1,0.754962738996255
"sub-011",25,"blau","red",0,"incongruent","r",1,0.984884339995915
"sub-011",26,"gelb","yellow",1,"congruent","g",1,0.485022808992653
"sub-011",27,"blau","blue",1,"congruent","b",1,0.770690798002761
"sub-011",28,"rot","red",1,"congruent","r",1,0.716483657990466
"sub-011",29,"blau","yellow",0,"incongruent","g",1,1.0483042410051
"sub-011",30,"gelb","blue",0,"incongruent","b",1,0.544523629010655
"sub-011",31,"gelb","red",0,"incongruent","r",1,0.896993973001372
"sub-011",32,"rot","yellow",0,"incongruent","g",1,1.31645462500455
"sub-011",33,"blau","blue",1,"congruent","b",1,1.48949465001351
"sub-011",34,"rot","blue",0,"incongruent","b",1,1.96524133000639
"sub-011",35,"gelb","yellow",1,"congruent","g",1,0.984981200002949
"sub-011",36,"rot","red",1,"congruent","r",1,0.518630670005223
"sub-011",37,"rot","yellow",0,"incongruent","g",1,0.477552405995084
"sub-011",38,"gelb","yellow",1,"congruent","g",1,0.677195244003087
"sub-011",39,"blau","red",0,"incongruent","r",1,2.19948923999618
"sub-011",40,"rot","red",1,"congruent","r",1,0.761925957005587
"sub-011",41,"blau","yellow",0,"incongruent","g",1,1.363522079002
"sub-011",42,"rot","blue",0,"incongruent","b",1,0.803041605991893
"sub-011",43,"blau","blue",1,"congruent","b",1,0.816416629997548
"sub-011",44,"rot","red",1,"congruent","r",1,1.00529735299642
"sub-011",45,"gelb","red",0,"incongruent","r",1,1.33662120300869
"sub-011",46,"gelb","blue",0,"incongruent","b",1,0.669686547989841
"sub-011",47,"blau","blue",1,"congruent","b",1,0.723558412995772
"sub-011",48,"gelb","yellow",1,"congruent","g",1,0.683984531002352
"sub-011",49,"rot","red",1,"congruent","r",1,0.657747409000876
"sub-011",50,"gelb","yellow",1,"congruent","g",1,0.652549843987799
"sub-011",51,"rot","blue",0,"incongruent","b",1,0.514612168990425
"sub-011",52,"rot","yellow",0,"incongruent","g",1,1.06598296000448
"sub-011",53,"blau","blue",1,"congruent","b",1,0.701783828000771
"sub-011",54,"gelb","red",0,"incongruent","r",1,1.01053760900686
"sub-011",55,"gelb","blue",0,"incongruent","b",1,0.788644997999654
"sub-011",56,"blau","yellow",0,"incongruent","g",1,0.773398170000291
"sub-011",57,"gelb","yellow",1,"congruent","b",0,0.502621877996717
"sub-011",58,"rot","red",1,"congruent","r",1,1.06737783900462
"sub-011",59,"blau","red",0,"incongruent","r",1,1.20480308200058
"sub-011",60,"blau","blue",1,"congruent","b",1,0.51573122300033
"sub-011",61,"rot","yellow",0,"incongruent","g",1,1.15995435899822
"sub-011",62,"blau","yellow",0,"incongruent","g",1,0.647271573005128
"sub-011",63,"gelb","red",0,"incongruent","r",1,0.90532694698777
"sub-011",64,"gelb","yellow",1,"congruent","g",1,0.849541625997517
"sub-011",65,"rot","red",1,"congruent","r",1,0.687288319997606
"sub-011",66,"rot","blue",0,"incongruent","b",1,0.502310402996955
"sub-011",67,"blau","blue",1,"congruent","b",1,0.726973365992308
"sub-011",68,"gelb","blue",0,"incongruent","b",1,0.756236251007067
"sub-011",69,"rot","red",1,"congruent","r",1,0.661025911002071
"sub-011",70,"gelb","yellow",1,"congruent","g",1,0.43384289999085
"sub-011",71,"blau","red",0,"incongruent","r",1,1.48851211099827
"sub-011",72,"blau","blue",1,"congruent","b",1,0.742374079010915
"sub-011",73,"blau","red",0,"incongruent","r",1,0.879274630002328
"sub-011",74,"rot","yellow",0,"incongruent","g",1,1.10907512799895
"sub-011",75,"blau","yellow",0,"incongruent","g",1,0.701525687996764
"sub-011",76,"gelb","blue",0,"incongruent","b",1,1.05256285300129
"sub-011",77,"rot","red",1,"congruent","r",1,0.455892975005554
"sub-011",78,"rot","blue",0,"incongruent","r",0,0.845407208005781
"sub-011",79,"gelb","red",0,"incongruent","r",1,1.6597836180008
"sub-011",80,"rot","red",1,"congruent","r",1,0.738898944997345
"sub-011",81,"gelb","yellow",1,"congruent","g",1,1.16837799499626
"sub-011",82,"blau","blue",1,"congruent","b",1,0.69117709499551
"sub-011",83,"gelb","yellow",1,"congruent","g",1,1.29937296199205
"sub-011",84,"blau","blue",1,"congruent","b",1,0.701831622005557
"sub-011",85,"rot","yellow",0,"incongruent","g",1,1.29001735200291
"sub-011",86,"rot","red",1,"congruent","r",1,0.72064433900232
"sub-011",87,"blau","yellow",0,"incongruent","b",0,1.15352128700761
"sub-011",88,"gelb","yellow",1,"congruent","g",1,0.865941199997906
"sub-011",89,"rot","red",1,"congruent","r",1,1.00333877099911
"sub-011",90,"blau","blue",1,"congruent","b",1,0.778248295988305
"sub-011",91,"gelb","blue",0,"incongruent","b",1,0.74045185300929
"sub-011",92,"gelb","yellow",1,"congruent","g",1,0.974182192003354
"sub-011",93,"rot","blue",0,"incongruent","b",1,1.14231733301131
"sub-011",94,"blau","red",0,"incongruent","r",1,1.70089721000113
"sub-011",95,"blau","blue",1,"congruent","b",1,0.847931361000519
"sub-011",96,"gelb","red",0,"incongruent","r",1,1.23775813599059
"sub-011",97,"blau","yellow",0,"incongruent","g",1,0.976370857009897
"sub-011",98,"gelb","yellow",1,"congruent","g",1,0.764447230001679
"sub-011",99,"gelb","red",0,"incongruent","r",1,0.870046109994291
"sub-011",100,"rot","yellow",0,"incongruent","g",1,1.36178499099333
"sub-011",101,"gelb","yellow",1,"congruent","g",1,0.775232812011382
"sub-011",102,"blau","red",0,"incongruent","r",1,1.28971490998811
"sub-011",103,"rot","red",1,"congruent","r",1,0.852111990010599
"sub-011",104,"blau","blue",1,"congruent","b",1,0.635980613995343
"sub-011",105,"blau","blue",1,"congruent","b",1,0.47766489899368
"sub-011",106,"rot","blue",0,"incongruent","b",1,1.10999305399309
"sub-011",107,"gelb","blue",0,"incongruent","b",1,1.18207783300022
"sub-011",108,"rot","red",1,"congruent","r",1,1.82410424100817
"sub-011",109,"blau","red",0,"incongruent","r",1,1.33606425099424
"sub-011",110,"rot","blue",0,"incongruent","b",1,1.11605285201222
"sub-011",111,"gelb","blue",0,"incongruent","b",1,0.640374020003946
"sub-011",112,"rot","red",1,"congruent","r",1,0.736461812994094
"sub-011",113,"rot","yellow",0,"incongruent","g",1,1.05945796100423
"sub-011",114,"blau","blue",1,"congruent","b",1,0.516127519993461
"sub-011",115,"gelb","red",0,"incongruent","g",0,0.806170865995227
"sub-011",116,"blau","blue",1,"congruent","b",1,1.27569827200205
"sub-011",117,"blau","yellow",0,"incongruent","g",1,1.67645427200478
"sub-011",118,"rot","red",1,"congruent","r",1,0.782944725986454
"sub-011",119,"gelb","yellow",1,"congruent","g",1,0.795583761995658
"sub-011",120,"gelb","yellow",1,"congruent","g",1,0.70403022300161
"sub-012",1,"blau","red",0,"incongruent","r",1,1.15328099200269
"sub-012",2,"gelb","yellow",1,"congruent","g",1,0.498527115996694
"sub-012",3,"gelb","yellow",1,"congruent","g",1,0.508555356005672
"sub-012",4,"gelb","red",0,"incongruent","r",1,0.620694726007059
"sub-012",5,"rot","red",1,"congruent","r",1,0.59047790299519
"sub-012",6,"rot","yellow",0,"incongruent","g",1,0.654287685989402
"sub-012",7,"rot","red",1,"congruent","r",1,0.570663610997144
"sub-012",8,"blau","blue",1,"congruent","b",1,0.384584084997186
"sub-012",9,"blau","blue",1,"congruent","b",1,0.469187801994849
"sub-012",10,"gelb","blue",0,"incongruent","b",1,0.678048131987453
"sub-012",11,"blau","yellow",0,"incongruent","g",1,0.622366245981539
"sub-012",12,"rot","blue",0,"incongruent","b",1,0.555009353003697
"sub-012",13,"gelb","yellow",1,"congruent","g",1,0.513595472002635
"sub-012",14,"blau","blue",1,"congruent","b",1,0.496187229990028
"sub-012",15,"rot","red",1,"congruent","r",1,0.401092170999618
"sub-012",16,"rot","yellow",0,"incongruent","g",1,0.67539234700962
"sub-012",17,"blau","yellow",0,"incongruent","g",1,0.360310563992243
"sub-012",18,"gelb","yellow",1,"congruent","g",1,0.520183668995742
"sub-012",19,"rot","blue",0,"incongruent","b",1,0.824658794997958
"sub-012",20,"blau","red",0,"incongruent","r",1,0.551114809000865
"sub-012",21,"gelb","blue",0,"incongruent","b",1,0.630466807982884
"sub-012",22,"blau","blue",1,"congruent","b",1,0.36247712597833
"sub-012",23,"gelb","red",0,"incongruent","r",1,0.441299127996899
"sub-012",24,"rot","red",1,"congruent","r",1,0.361686785996426
"sub-012",25,"gelb","yellow",1,"congruent","g",1,0.391462839004816
"sub-012",26,"gelb","red",0,"incongruent","g",0,0.606607944995631
"sub-012",27,"gelb","blue",0,"incongruent","b",1,1.04960231800214
"sub-012",28,"rot","red",1,"congruent","r",1,0.51233589000185
"sub-012",29,"rot","blue",0,"incongruent","b",1,0.65549422299955
"sub-012",30,"rot","yellow",0,"incongruent","r",0,0.470144750986947
"sub-012",31,"blau","yellow",0,"incongruent","g",1,0.651755266997498
"sub-012",32,"blau","blue",1,"congruent","b",1,0.618067592004081
"sub-012",33,"gelb","yellow",1,"congruent","g",1,0.80372689399519
"sub-012",34,"blau","blue",1,"congruent","b",1,0.588769097987097
"sub-012",35,"rot","red",1,"congruent","r",1,0.634043896978255
"sub-012",36,"blau","red",0,"incongruent","r",1,1.94374496702221
"sub-012",37,"blau","yellow",0,"incongruent","g",1,0.734183012013091
"sub-012",38,"gelb","yellow",1,"congruent","g",1,0.495712793985149
"sub-012",39,"rot","red",1,"congruent","r",1,0.550221309997141
"sub-012",40,"blau","blue",1,"congruent","b",1,0.700646783981938
"sub-012",41,"gelb","yellow",1,"congruent","g",1,0.955309368000599
"sub-012",42,"gelb","red",0,"incongruent","r",1,0.699648882000474
"sub-012",43,"blau","red",0,"incongruent","r",1,1.0314113679924
"sub-012",44,"blau","blue",1,"congruent","b",1,0.757241095998324
"sub-012",45,"gelb","blue",0,"incongruent","b",1,1.24356707799598
"sub-012",46,"rot","red",1,"congruent","r",1,0.648590080003487
"sub-012",47,"rot","yellow",0,"incongruent","g",1,0.671502793993568
"sub-012",48,"rot","blue",0,"incongruent","b",1,0.764446055982262
"sub-012",49,"blau","red",0,"incongruent","r",1,0.864802660013083
"sub-012",50,"gelb","yellow",1,"congruent","g",1,0.711708042013925
"sub-012",51,"gelb","blue",0,"incongruent","b",1,0.516582509008003
"sub-012",52,"blau","blue",1,"congruent","b",1,0.440468435990624
"sub-012",53,"rot","blue",0,"incongruent","b",1,0.443276441976195
"sub-012",54,"gelb","red",0,"incongruent","r",1,0.729783696995582
"sub-012",55,"gelb","yellow",1,"congruent","g",1,0.448793966002995
"sub-012",56,"blau","yellow",0,"incongruent","g",1,0.518691598001169
"sub-012",57,"blau","blue",1,"congruent","b",1,0.493841852003243
"sub-012",58,"rot","red",1,"congruent","r",1,0.504344466986367
"sub-012",59,"rot","red",1,"congruent","r",1,0.586370580014773
"sub-012",60,"rot","yellow",0,"incongruent","g",1,0.60131851900951
"sub-012",61,"rot","yellow",0,"incongruent","g",1,0.398260429006768
"sub-012",62,"rot","red",1,"congruent","r",1,0.720299339998746
"sub-012",63,"blau","blue",1,"congruent","b",1,0.351676505000796
"sub-012",64,"gelb","blue",0,"incongruent","b",1,0.420745291979983
"sub-012",65,"blau","blue",1,"congruent","b",1,0.434963558014715
"sub-012",66,"rot","red",1,"congruent","r",1,0.567926304007415
"sub-012",67,"gelb","yellow",1,"congruent","g",1,0.392711169988615
"sub-012",68,"gelb","red",0,"incongruent","r",1,0.348011057008989
"sub-012",69,"rot","blue",0,"incongruent","b",1,0.456267443019897
"sub-012",70,"blau","yellow",0,"incongruent","g",1,1.32634722601506
"sub-012",71,"gelb","yellow",1,"congruent","g",1,0.450819975987542
"sub-012",72,"blau","red",0,"incongruent","r",1,0.338539035001304
"sub-012",73,"gelb","yellow",1,"congruent","g",1,0.496690575004322
"sub-012",74,"gelb","yellow",1,"congruent","g",1,0.375944277999224
"sub-012",75,"rot","blue",0,"incongruent","b",1,0.68912771900068
"sub-012",76,"rot","red",1,"congruent","r",1,0.579113521002
"sub-012",77,"rot","yellow",0,"incongruent","g",1,0.926455243985402
"sub-012",78,"blau","blue",1,"congruent","b",1,0.548069954995299
"sub-012",79,"gelb","red",0,"incongruent","r",1,0.637708235008176
"sub-012",80,"rot","red",1,"congruent","r",1,0.48441222900874
"sub-012",81,"gelb","blue",0,"incongruent","b",1,0.477180980989942
"sub-012",82,"blau","blue",1,"congruent","b",1,0.5685876699863
"sub-012",83,"blau","red",0,"incongruent","r",1,0.58471439499408
"sub-012",84,"blau","yellow",0,"incongruent","g",1,0.397938128997339
"sub-012",85,"gelb","yellow",1,"congruent","g",1,0.356444862001808
"sub-012",86,"rot","red",1,"congruent","r",1,0.559317587001715
"sub-012",87,"blau","red",0,"incongruent","r",1,0.639758327015443
"sub-012",88,"rot","yellow",0,"incongruent","g",1,0.614457738003694
"sub-012",89,"rot","red",1,"congruent","r",1,0.41932103401632
"sub-012",90,"blau","blue",1,"congruent","b",1,0.605062552000163
"sub-012",91,"gelb","red",0,"incongruent","r",1,0.624200752994511
"sub-012",92,"blau","yellow",0,"incongruent","g",1,0.384455871011596
"sub-012",93,"gelb","yellow",1,"congruent","g",1,0.312755963008385
"sub-012",94,"gelb","blue",0,"incongruent","b",1,0.891688058996806
"sub-012",95,"rot","blue",0,"incongruent","b",1,0.358016687008785
"sub-012",96,"blau","blue",1,"congruent","b",1,0.435172795987455
"sub-012",97,"gelb","yellow",1,"congruent","r",0,0.403821312997025
"sub-012",98,"rot","red",1,"congruent","r",1,0.739971103001153
"sub-012",99,"blau","blue",1,"congruent","b",1,0.669416168006137
"sub-012",100,"rot","blue",0,"incongruent","b",1,0.866670905001229
"sub-012",101,"blau","red",0,"incongruent","r",1,1.75387866102392
"sub-012",102,"gelb","blue",0,"incongruent","b",1,0.724977998004761
"sub-012",103,"blau","yellow",0,"incongruent","g",1,0.510320409986889
"sub-012",104,"gelb","yellow",1,"congruent","g",1,0.342666115000611
"sub-012",105,"rot","red",1,"congruent","r",1,0.536078398989048
"sub-012",106,"gelb","red",0,"incongruent","r",1,1.68313078201027
"sub-012",107,"blau","blue",1,"congruent","b",1,0.566195955994772
"sub-012",108,"rot","yellow",0,"incongruent","g",1,0.920587406988488
"sub-012",109,"gelb","blue",0,"incongruent","b",1,0.755937618989265
"sub-012",110,"rot","yellow",0,"incongruent","g",1,1.05093734199181
"sub-012",111,"blau","red",0,"incongruent","r",1,0.617378371011
"sub-012",112,"blau","blue",1,"congruent","b",1,0.488196588994469
"sub-012",113,"gelb","red",0,"incongruent","r",1,1.30496480301372
"sub-012",114,"rot","blue",0,"incongruent","b",1,0.5821723669942
"sub-012",115,"gelb","yellow",1,"congruent","g",1,0.478937417996349
"sub-012",116,"blau","yellow",0,"incongruent","g",1,0.373495365987765
"sub-012",117,"rot","red",1,"congruent","r",1,0.589842246001353
"sub-012",118,"gelb","yellow",1,"congruent","g",1,0.408988182985922
"sub-012",119,"rot","red",1,"congruent","r",1,0.459205303981434
"sub-012",120,"blau","blue",1,"congruent","b",1,0.471087249025004
"sub-013",1,"rot","red",1,"congruent","r",1,0.707645300077274
"sub-013",2,"rot","blue",0,"incongruent","b",1,0.369174899999052
"sub-013",3,"gelb","red",0,"incongruent","r",1,0.69202939979732
"sub-013",4,"blau","yellow",0,"incongruent","g",1,0.546515099937096
"sub-013",5,"gelb","blue",0,"incongruent","b",1,0.606401900062338
"sub-013",6,"rot","yellow",0,"incongruent","g",1,0.633863300085068
"sub-013",7,"rot","red",1,"congruent","r",1,0.473149500088766
"sub-013",8,"gelb","yellow",1,"congruent","g",1,0.320469900034368
"sub-013",9,"blau","red",0,"incongruent","r",1,0.46044380008243
"sub-013",10,"blau","blue",1,"congruent","b",1,0.44930769992061
"sub-013",11,"gelb","yellow",1,"congruent","g",1,0.421451499918476
"sub-013",12,"blau","blue",1,"congruent","b",1,0.506234500091523
"sub-013",13,"blau","blue",1,"congruent","b",1,0.407778199994937
"sub-013",14,"rot","yellow",0,"incongruent","g",1,0.596042899880558
"sub-013",15,"rot","red",1,"congruent","r",1,0.473616099916399
"sub-013",16,"gelb","blue",0,"incongruent","b",1,0.328395000193268
"sub-013",17,"gelb","yellow",1,"congruent","g",1,0.414276799885556
"sub-013",18,"blau","red",0,"incongruent","r",1,0.925024399999529
"sub-013",19,"rot","blue",0,"incongruent","b",1,0.562828400172293
"sub-013",20,"blau","blue",1,"congruent","b",1,0.552814800059423
"sub-013",21,"blau","yellow",0,"incongruent","g",1,0.307152700144798
"sub-013",22,"gelb","yellow",1,"congruent","b",0,0.350231599994004
"sub-013",23,"gelb","red",0,"incongruent","r",1,0.82814639993012
"sub-013",24,"rot","red",1,"congruent","r",1,0.650326699949801
"sub-013",25,"blau","blue",1,"congruent","b",1,0.955423800041899
"sub-013",26,"blau","yellow",0,"incongruent","g",1,0.600867199944332
"sub-013",27,"rot","yellow",0,"incongruent","g",1,0.532016400014982
"sub-013",28,"gelb","yellow",1,"congruent","g",1,0.413290600059554
"sub-013",29,"rot","red",1,"congruent","r",1,0.465243400074542
"sub-013",30,"gelb","yellow",1,"congruent","g",1,0.71325709996745
"sub-013",31,"gelb","blue",0,"incongruent","b",1,0.521038600010797
"sub-013",32,"blau","red",0,"incongruent","r",1,0.677160199964419
"sub-013",33,"rot","blue",0,"incongruent","b",1,1.39410159992985
"sub-013",34,"gelb","red",0,"incongruent","r",1,0.620952300028875
"sub-013",35,"rot","red",1,"congruent","r",1,0.524440899956971
"sub-013",36,"blau","blue",1,"congruent","b",1,0.921333599835634
"sub-013",37,"blau","yellow",0,"incongruent","g",1,0.528870100155473
"sub-013",38,"rot","red",1,"congruent","r",1,1.10377699998207
"sub-013",39,"rot","blue",0,"incongruent","b",1,0.835031700087711
"sub-013",40,"rot","red",1,"congruent","r",1,2.77944450010546
"sub-013",41,"blau","red",0,"incongruent","r",1,2.23145039984956
"sub-013",42,"blau","blue",1,"congruent","b",1,0.845455400180072
"sub-013",43,"gelb","yellow",1,"congruent","g",1,1.62221319996752
"sub-013",44,"gelb","blue",0,"incongruent","b",1,2.38429129985161
"sub-013",45,"blau","blue",1,"congruent","b",1,0.605133000062779
"sub-013",46,"gelb","red",0,"incongruent","r",1,0.573843399994075
"sub-013",47,"gelb","yellow",1,"congruent","g",1,0.443404800025746
"sub-013",48,"rot","yellow",0,"incongruent","g",1,0.558529099915177
"sub-013",49,"gelb","yellow",1,"congruent","g",1,1.28480120003223
"sub-013",50,"blau","red",0,"incongruent","r",1,0.52123810001649
"sub-013",51,"gelb","red",0,"incongruent","r",1,0.679330300074071
"sub-013",52,"blau","yellow",0,"incongruent","g",1,0.754214700078592
"sub-013",53,"gelb","blue",0,"incongruent","b",1,0.608831299934536
"sub-013",54,"blau","blue",1,"congruent","b",1,0.551490100100636
"sub-013",55,"rot","red",1,"congruent","r",1,0.663161000004038
"sub-013",56,"rot","yellow",0,"incongruent","g",1,0.746817100094631
"sub-013",57,"blau","blue",1,"congruent","b",1,0.478880400070921
"sub-013",58,"gelb","yellow",1,"congruent","g",1,0.900199899915606
"sub-013",59,"rot","red",1,"congruent","r",1,0.472434200113639
"sub-013",60,"rot","blue",0,"incongruent","b",1,0.672582400031388
"sub-013",61,"blau","blue",1,"congruent","b",1,0.567860200069845
"sub-013",62,"rot","yellow",0,"incongruent","g",1,0.759562199935317
"sub-013",63,"gelb","yellow",1,"congruent","g",1,0.483234299812466
"sub-013",64,"rot","red",1,"congruent","r",1,0.438857899978757
"sub-013",65,"blau","blue",1,"congruent","b",1,0.666331599932164
"sub-013",66,"rot","blue",0,"incongruent","b",1,0.650119199883193
"sub-013",67,"blau","red",0,"incongruent","r",1,0.61297639994882
"sub-013",68,"blau","yellow",0,"incongruent","g",1,0.7242825999856
"sub-013",69,"gelb","yellow",1,"congruent","g",1,0.541452900040895
"sub-013",70,"gelb","red",0,"incongruent","r",1,0.522599899908528
"sub-013",71,"gelb","blue",0,"incongruent","b",1,0.49302290007472
"sub-013",72,"rot","red",1,"congruent","r",1,0.526111299870536
"sub-013",73,"rot","blue",0,"incongruent","b",1,0.864716500043869
"sub-013",74,"rot","red",1,"congruent","r",1,1.17645910009742
"sub-013",75,"gelb","blue",0,"incongruent","b",1,0.540155299939215
"sub-013",76,"blau","red",0,"incongruent","r",1,0.419969199923798
"sub-013",77,"blau","blue",1,"congruent","b",1,0.781696600141004
"sub-013",78,"gelb","red",0,"incongruent","r",1,0.837393600028008
"sub-013",79,"blau","yellow",0,"incongruent","g",1,0.854008599882945
"sub-013",80,"gelb","yellow",1,"congruent","g",1,0.649633500026539
"sub-013",81,"rot","red",1,"congruent","r",1,0.641560399904847
"sub-013",82,"blau","blue",1,"congruent","b",1,0.48147809994407
"sub-013",83,"rot","yellow",0,"incongruent","g",1,0.602309900103137
"sub-013",84,"gelb","yellow",1,"congruent","g",1,0.481156300054863
"sub-013",85,"blau","blue",1,"congruent","r",0,1.37902790005319
"sub-013",86,"gelb","yellow",1,"congruent","b",0,0.745713399956003
"sub-013",87,"rot","yellow",0,"incongruent","g",1,0.524379699956626
"sub-013",88,"blau","red",0,"incongruent","r",1,1.7204827000387
"sub-013",89,"blau","yellow",0,"incongruent","g",1,0.716587299946696
"sub-013",90,"rot","red",1,"congruent","r",1,0.890455099986866
"sub-013",91,"rot","red",1,"congruent","r",1,0.607422600034624
"sub-013",92,"gelb","yellow",1,"congruent","g",1,0.510262500029057
"sub-013",93,"blau","blue",1,"congruent","b",1,0.695732099935412
"sub-013",94,"gelb","red",0,"incongruent","r",1,0.683744699927047
"sub-013",95,"rot","blue",0,"incongruent","b",1,0.580207300139591
"sub-013",96,"gelb","blue",0,"incongruent","b",1,0.648357999976724
"sub-013",97,"blau","yellow",0,"incongruent","g",1,0.419203100027516
"sub-013",98,"gelb","red",0,"incongruent","r",1,0.395624099997804
"sub-013",99,"rot","yellow",0,"incongruent","g",1,0.527650099946186
"sub-013",100,"rot","blue",0,"incongruent","b",1,0.551861600019038
"sub-013",101,"gelb","yellow",1,"congruent","g",1,0.289552200119942
"sub-013",102,"blau","blue",1,"congruent","b",1,0.582488999934867
"sub-013",103,"rot","red",1,"congruent","r",1,0.842978800181299
"sub-013",104,"gelb","yellow",1,"congruent","g",1,0.786838899832219
"sub-013",105,"rot","red",1,"congruent","r",1,0.389024900039658
"sub-013",106,"gelb","blue",0,"incongruent","g",0,1.0138355998788
