id,block,trial,detectOri,imagineOri,present,stimulus,congruency,visLevel,response,corr,rt,vivid,compliance,complied
sub-001,3,3,right,none,1,present,none,7.3,present,1,2.7318829991854727,None,down,yes
sub-001,3,7,right,none,1,present,none,14,present,1,0.6142205419018865,None,down,yes
sub-001,3,39,right,none,1,present,none,7.3,present,1,0.459089124109596,None,down,yes
sub-001,3,14,right,none,1,present,none,14,present,1,0.29604924912564456,None,down,yes
sub-001,3,41,right,none,1,present,none,6.1,present,1,0.3531215831171721,None,down,yes
sub-001,3,40,right,none,1,present,none,4.8,present,1,0.39225833280943334,None,down,yes
sub-001,3,21,right,none,1,present,none,5.3,absent,0,0.7331644159276038,None,down,yes
sub-001,3,19,right,none,1,present,none,5.3,present,1,0.6222484579775482,None,down,yes
sub-001,3,25,right,none,1,present,none,4.8,present,1,0.965895373839885,None,down,yes
sub-001,3,17,right,none,1,present,none,3.7,absent,0,0.7384552489966154,None,down,yes
sub-001,3,30,right,none,1,present,none,5.3,present,1,0.34228129079565406,None,down,yes
sub-001,3,36,right,none,0,absent,none,0,absent,1,0.37499141599982977,None,down,yes
sub-001,3,35,right,none,1,present,none,4.8,present,1,0.2524531250819564,None,down,yes
sub-001,3,2,right,none,1,present,none,14,present,1,1.0469222490210086,None,down,yes
sub-001,3,10,right,none,1,present,none,5.3,present,1,0.35854666703380644,None,down,yes
sub-001,3,27,right,none,1,present,none,6.1,present,1,0.30761516699567437,None,down,yes
sub-001,3,42,right,none,0,absent,none,0,absent,1,0.4456941660027951,None,down,yes
sub-001,3,29,right,none,1,present,none,6.1,present,1,0.2426690410356969,None,down,yes
sub-001,3,34,right,none,1,present,none,14,present,1,3.0455855829641223,None,down,yes
sub-001,3,18,right,none,1,present,none,7.3,present,1,0.3841332499869168,None,down,yes
sub-001,3,33,right,none,0,absent,none,0,absent,1,0.5599603329319507,None,down,yes
sub-001,3,1,right,none,1,present,none,5.3,present,1,0.3508769581094384,None,down,yes
sub-001,3,9,right,none,1,present,none,6.1,present,1,0.3548735829535872,None,down,yes
sub-001,3,5,right,none,1,present,none,4.8,present,1,0.4780875409487635,None,down,yes
sub-001,3,11,right,none,0,absent,none,0,absent,1,0.4259985410608351,None,down,yes
sub-001,3,24,right,none,0,absent,none,0,absent,1,0.41367824911139905,None,down,yes
sub-001,3,8,right,none,1,present,none,3.7,present,1,0.4715264157857746,None,down,yes
sub-001,3,38,right,none,1,present,none,7.3,present,1,0.1756110000424087,None,down,yes
sub-001,3,4,right,none,1,present,none,7.3,present,1,0.13421070808544755,None,down,yes
sub-001,3,23,right,none,1,present,none,4.8,present,1,0.27289570798166096,None,down,yes
sub-001,3,13,right,none,1,present,none,6.1,present,1,0.34942270815372467,None,down,yes
sub-001,3,16,right,none,1,present,none,7.3,present,1,0.3107295830268413,None,down,yes
sub-001,3,20,right,none,1,present,none,3.7,present,1,0.343611832940951,None,down,yes
sub-001,3,6,right,none,1,present,none,6.1,present,1,0.33509295783005655,None,down,yes
sub-001,3,22,right,none,1,present,none,3.7,absent,0,0.37562533281743526,None,down,yes
sub-001,3,12,right,none,1,present,none,5.3,present,1,0.2741715000011027,None,down,yes
sub-001,3,15,right,none,0,absent,none,0,absent,1,0.3964017080143094,None,down,yes
sub-001,3,37,right,none,1,present,none,3.7,present,1,0.33285333309322596,None,down,yes
sub-001,3,31,right,none,1,present,none,14,present,1,0.8967815830837935,None,down,yes
sub-001,3,28,right,none,1,present,none,14,present,1,0.7305544998962432,None,down,yes
sub-001,3,32,right,none,1,present,none,3.7,present,1,0.4304870408959687,None,down,yes
sub-001,3,26,right,none,1,present,none,4.8,absent,0,0.9207936241291464,None,down,yes
sub-001,1,18,right,right,1,present,congruent,14,present,1,1.5056860002223402,4,right,yes
sub-001,1,24,right,right,1,present,congruent,7.3,present,1,0.12854566611349583,4,right,yes
sub-001,1,29,right,right,1,present,congruent,3.7,present,1,0.494473499013111,4,right,yes
sub-001,1,21,right,right,1,present,congruent,5.3,present,1,0.22628191602416337,4,right,yes
sub-001,1,2,right,right,1,present,congruent,4.8,present,1,0.24802662408910692,4,right,yes
sub-001,1,12,right,right,1,present,congruent,6.1,present,1,0.10243550012819468,4,right,yes
sub-001,1,28,right,right,1,present,congruent,14,present,1,0.34074316592887044,4,right,yes
sub-001,1,38,right,right,1,present,congruent,6.1,present,1,0.27326012402772903,4,right,yes
sub-001,1,13,right,right,0,absent,congruent,0,absent,1,0.9018803751096128,4,right,yes
sub-001,1,8,right,right,1,present,congruent,3.7,present,1,0.2350459999870509,4,right,yes
sub-001,1,26,right,right,1,present,congruent,7.3,present,1,0.2495532080065459,4,right,yes
sub-001,1,16,right,right,1,present,congruent,14,present,1,0.2743452910799533,4,right,yes
sub-001,1,23,right,right,1,present,congruent,7.3,present,1,0.19453341700136664,4,right,yes
sub-001,1,31,right,right,1,present,congruent,4.8,present,1,0.2803579999599606,4,right,yes
sub-001,1,39,right,right,1,present,congruent,6.1,present,1,0.20746079087257385,4,right,yes
sub-001,1,40,right,right,0,absent,congruent,0,present,0,0.5516209579072893,4,right,yes
sub-001,1,22,right,right,0,absent,congruent,0,present,0,0.4693500001449138,4,right,yes
sub-001,1,11,right,right,1,present,congruent,5.3,present,1,0.2549192919395864,4,right,yes
sub-001,1,33,right,right,1,present,congruent,14,present,1,0.2589180408976972,4,right,yes
sub-001,1,9,right,right,0,absent,congruent,0,present,0,0.369696875102818,4,right,yes
sub-001,1,6,right,right,0,absent,congruent,0,absent,1,0.5201377079356462,4,right,yes
sub-001,1,4,right,right,1,present,congruent,6.1,present,1,0.2069628748577088,4,right,yes
sub-001,1,30,right,right,1,present,congruent,4.8,present,1,0.19619712512940168,4,right,yes
sub-001,1,1,right,right,1,present,congruent,6.1,present,1,0.5892999998759478,4,right,yes
sub-001,1,36,right,right,1,present,congruent,4.8,present,1,0.2995046670548618,4,right,yes
sub-001,1,15,right,right,1,present,congruent,3.7,present,1,0.22094770800322297,4,right,yes
sub-001,1,20,right,right,1,present,congruent,5.3,present,1,0.31421370804309845,4,right,yes
sub-001,1,42,right,right,1,present,congruent,3.7,present,1,0.2779470409732312,4,right,yes
sub-001,1,10,right,right,1,present,congruent,4.8,present,1,0.6473335830960423,4,right,yes
sub-001,1,17,right,right,1,present,congruent,3.7,present,1,2.8118003748822957,4,right,yes
sub-001,1,34,right,right,1,present,congruent,5.3,present,1,0.29183512390591204,4,right,yes
sub-001,1,3,right,right,1,present,congruent,14,present,1,0.2245103328023106,4,right,yes
sub-001,1,32,right,right,1,present,congruent,7.3,present,1,0.29786145803518593,4,right,yes
sub-001,1,19,right,right,1,present,congruent,5.3,present,1,0.23044787417165935,4,right,yes
sub-001,1,5,right,right,1,present,congruent,7.3,present,1,0.5438728330191225,4,right,yes
sub-001,1,7,right,right,1,present,congruent,7.3,present,1,0.5754011240787804,4,right,yes
sub-001,1,25,right,right,0,absent,congruent,0,present,0,0.48572987387888134,4,right,yes
sub-001,1,14,right,right,1,present,congruent,6.1,present,1,0.2668887081090361,4,right,yes
sub-001,1,35,right,right,1,present,congruent,4.8,present,1,0.2950801670085639,4,right,yes
sub-001,1,41,right,right,1,present,congruent,5.3,present,1,0.30872733308933675,4,right,yes
sub-001,1,37,right,right,1,present,congruent,3.7,present,1,0.344857124844566,4,right,yes
sub-001,1,27,right,right,1,present,congruent,14,present,1,0.2504878749605268,4,right,yes
sub-001,6,11,left,none,0,absent,none,0,absent,1,2.0746599989943206,None,down,yes
sub-001,6,26,left,none,1,present,none,3.7,absent,0,0.9146586249116808,None,down,yes
sub-001,6,10,left,none,0,absent,none,0,absent,1,0.5100165409967303,None,down,yes
sub-001,6,21,left,none,1,present,none,5.3,present,1,0.5283869169652462,None,down,yes
sub-001,6,34,left,none,1,present,none,5.3,present,1,0.7193379169330001,None,down,yes
sub-001,6,28,left,none,1,present,none,3.7,absent,0,0.5496944161131978,None,down,yes
sub-001,6,1,left,none,0,absent,none,0,absent,1,0.5958461659029126,None,down,yes
sub-001,6,9,left,none,1,present,none,14,present,1,0.37130504101514816,None,down,yes
sub-001,6,40,left,none,1,present,none,6.1,present,1,0.5242460831068456,None,down,yes
sub-001,6,41,left,none,1,present,none,6.1,absent,0,0.9251447080168872,None,down,yes
sub-001,6,27,left,none,1,present,none,5.3,present,1,0.462223791051656,None,down,yes
sub-001,6,30,left,none,1,present,none,7.3,present,1,0.3400745000690222,None,down,yes
sub-001,6,2,left,none,1,present,none,5.3,present,1,0.42101699905470014,None,down,yes
sub-001,6,8,left,none,1,present,none,4.8,present,1,0.3604128749575466,None,down,yes
sub-001,6,33,left,none,0,absent,none,0,absent,1,0.6226990409195423,None,down,yes
sub-001,6,29,left,none,1,present,none,4.8,present,1,0.4449179170187562,None,down,yes
sub-001,6,23,left,none,1,present,none,14,present,1,0.321652916027233,None,down,yes
sub-001,6,19,left,none,1,present,none,7.3,present,1,0.399510667193681,None,down,yes
sub-001,6,37,left,none,1,present,none,4.8,absent,0,0.4040181660093367,None,down,yes
sub-001,6,5,left,none,1,present,none,6.1,present,1,0.3819799160119146,None,down,yes
sub-001,6,35,left,none,1,present,none,14,present,1,0.2706636239308864,None,down,yes
sub-001,6,20,left,none,1,present,none,3.7,absent,0,0.4055712081026286,None,down,yes
sub-001,6,36,left,none,1,present,none,7.3,present,1,0.30199441709555686,None,down,yes
sub-001,6,39,left,none,1,present,none,3.7,absent,0,0.43406599992886186,None,down,yes
sub-001,6,14,left,none,1,present,none,4.8,absent,0,0.4225284580606967,None,down,yes
sub-001,6,12,left,none,1,present,none,6.1,present,1,0.4283605830278248,None,down,yes
sub-001,6,15,left,none,1,present,none,5.3,absent,0,0.6579429579433054,None,down,yes
sub-001,6,25,left,none,1,present,none,14,present,1,0.37556420802138746,None,down,yes
sub-001,6,17,left,none,1,present,none,14,present,1,0.389804792124778,None,down,yes
sub-001,6,24,left,none,1,present,none,4.8,present,1,0.4525557910092175,None,down,yes
sub-001,6,3,left,none,1,present,none,7.3,present,1,0.3540423740632832,None,down,yes
sub-001,6,13,left,none,1,present,none,3.7,absent,0,0.4134462499059737,None,down,yes
sub-001,6,31,left,none,0,absent,none,0,absent,1,0.4657534582074731,None,down,yes
sub-001,6,38,left,none,1,present,none,3.7,absent,0,0.8272334579378366,None,down,yes
sub-001,6,32,left,none,1,present,none,5.3,present,1,0.4149034582078457,None,down,yes
sub-001,6,18,left,none,1,present,none,4.8,present,1,0.349264333024621,None,down,yes
sub-001,6,4,left,none,1,present,none,14,present,1,0.32252791593782604,None,down,yes
sub-001,6,42,left,none,1,present,none,7.3,present,1,0.3294402491301298,None,down,yes
sub-001,6,22,left,none,1,present,none,6.1,present,1,0.3980468751396984,None,down,yes
sub-001,6,7,left,none,0,absent,none,0,absent,1,0.3608947079628706,None,down,yes
sub-001,6,16,left,none,1,present,none,7.3,present,1,0.3288231249898672,None,down,yes
sub-001,6,6,left,none,1,present,none,6.1,present,1,0.3605626658536494,None,down,yes
sub-001,4,24,left,right,0,absent,incongruent,0,absent,1,1.362982208142057,2,right,yes
sub-001,4,32,left,right,0,absent,incongruent,0,absent,1,0.6438578739762306,2,right,yes
sub-001,4,8,left,right,1,present,incongruent,3.7,present,1,0.511090749874711,2,right,yes
sub-001,4,23,left,right,1,present,incongruent,6.1,present,1,0.9157595420256256,2,right,yes
sub-001,4,18,left,right,1,present,incongruent,5.3,absent,0,0.6998299579136074,2,right,yes
sub-001,4,35,left,right,1,present,incongruent,14,present,1,0.6885621671099216,2,right,yes
sub-001,4,19,left,right,1,present,incongruent,3.7,absent,0,1.122562874108553,2,right,yes
sub-001,4,20,left,right,1,present,incongruent,3.7,absent,0,0.6907490829471499,2,right,yes
sub-001,4,33,left,right,1,present,incongruent,6.1,absent,0,0.745156415970996,2,right,yes
sub-001,4,7,left,right,1,present,incongruent,3.7,absent,0,0.5434527909383178,2,right,yes
sub-001,4,42,left,right,1,present,incongruent,6.1,present,1,0.6324410000815988,2,right,yes
sub-001,4,22,left,right,1,present,incongruent,14,present,1,0.37898012483492494,2,right,yes
sub-001,4,5,left,right,1,present,incongruent,3.7,absent,0,0.4183731661178171,2,right,yes
sub-001,4,10,left,right,1,present,incongruent,5.3,present,1,1.0775277081411332,2,right,yes
sub-001,4,2,left,right,1,present,incongruent,5.3,present,1,0.8640774581581354,2,right,yes
sub-001,4,28,left,right,1,present,incongruent,6.1,absent,0,0.8350300409365445,2,right,yes
sub-001,4,4,left,right,1,present,incongruent,14,present,1,0.23371333302929995,2,right,yes
sub-001,4,41,left,right,1,present,incongruent,5.3,present,1,0.4953207499347627,2,right,yes
sub-001,4,1,left,right,1,present,incongruent,7.3,absent,0,0.5052249159198254,2,right,yes
sub-001,4,14,left,right,1,present,incongruent,7.3,present,1,0.33217091602273285,2,right,yes
sub-001,4,27,left,right,0,absent,incongruent,0,absent,1,0.6559694579336792,2,right,yes
sub-001,4,11,left,right,1,present,incongruent,5.3,present,1,0.4120389160234481,2,right,yes
sub-001,4,16,left,right,0,absent,incongruent,0,absent,1,0.5904386241454631,2,right,yes
sub-001,4,39,left,right,0,absent,incongruent,0,absent,1,0.4411814580671489,2,right,yes
sub-001,4,6,left,right,1,present,incongruent,6.1,present,1,0.33715241705067456,2,right,yes
sub-001,4,25,left,right,1,present,incongruent,7.3,present,1,0.45020595798268914,2,right,yes
sub-001,4,31,left,right,1,present,incongruent,7.3,present,1,0.422527875052765,2,right,yes
sub-001,4,40,left,right,1,present,incongruent,4.8,present,1,0.5536118750460446,2,right,yes
sub-001,4,17,left,right,1,present,incongruent,4.8,absent,0,0.3937810829374939,2,right,yes
sub-001,4,9,left,right,1,present,incongruent,14,present,1,0.354778666049242,2,right,yes
sub-001,4,12,left,right,1,present,incongruent,7.3,present,1,0.6128710829652846,2,right,yes
sub-001,4,15,left,right,1,present,incongruent,3.7,absent,0,0.5929557080380619,2,right,yes
sub-001,4,26,left,right,1,present,incongruent,6.1,present,1,0.38824729109182954,2,right,yes
sub-001,4,13,left,right,1,present,incongruent,14,present,1,0.3615045410115272,2,right,yes
sub-001,4,21,left,right,1,present,incongruent,4.8,absent,0,1.8387598739936948,2,right,yes
sub-001,4,34,left,right,1,present,incongruent,4.8,present,1,0.60874920804053545,2,right,yes
sub-001,4,37,left,right,1,present,incongruent,4.8,present,1,0.8312327910680324,2,right,yes
sub-001,4,30,left,right,1,present,incongruent,7.3,present,1,0.4016901249997318,2,right,yes
sub-001,4,36,left,right,1,present,incongruent,5.3,present,1,0.893083208007738,2,right,yes
sub-001,4,29,left,right,1,present,incongruent,4.8,absent,0,1.033985499991104,2,right,yes
sub-001,4,38,left,right,0,absent,incongruent,0,absent,1,1.108392040943727,2,right,yes
sub-001,4,3,left,right,1,present,incongruent,14,present,1,0.3059891250450164,2,right,yes
sub-001,2,37,right,left,1,present,incongruent,4.8,absent,0,1.3363852079492062,2,left,yes
sub-001,2,12,right,left,1,present,incongruent,14,present,1,1.12097308319062,2,left,yes
sub-001,2,13,right,left,1,present,incongruent,4.8,present,1,0.4592123329639435,2,left,yes
sub-001,2,21,right,left,1,present,incongruent,5.3,present,1,0.39749358291737735,2,left,yes
sub-001,2,33,right,left,1,present,incongruent,14,present,1,0.2827429159078747,2,left,yes
sub-001,2,25,right,left,1,present,incongruent,14,present,1,0.3271135420072824,2,left,yes
sub-001,2,2,right,left,1,present,incongruent,7.3,present,1,0.3220038330182433,2,left,yes
sub-001,2,17,right,left,1,present,incongruent,14,present,1,0.3078288750257343,2,left,yes
sub-001,2,11,right,left,1,present,incongruent,6.1,present,1,0.4216202080715448,2,left,yes
sub-001,2,35,right,left,0,absent,incongruent,0,absent,1,0.3993749578949064,2,left,yes
sub-001,2,16,right,left,1,present,incongruent,3.7,present,1,0.4844748331233859,2,left,yes
sub-001,2,42,right,left,1,present,incongruent,6.1,present,1,0.4449990000575781,2,left,yes
sub-001,2,14,right,left,1,present,incongruent,3.7,present,1,0.438399916049093,2,left,yes
sub-001,2,27,right,left,1,present,incongruent,3.7,present,1,0.4815762499347329,2,left,yes
sub-001,2,5,right,left,1,present,incongruent,4.8,present,1,0.3456005419138819,2,left,yes
sub-001,2,23,right,left,1,present,incongruent,6.1,present,1,0.27645633299835026,2,left,yes
sub-001,2,10,right,left,0,absent,incongruent,0,absent,1,0.6428752080537379,2,left,yes
sub-001,2,15,right,left,1,present,incongruent,3.7,present,1,0.5019767081830651,2,left,yes
sub-001,2,9,right,left,0,absent,incongruent,0,absent,1,0.7174526671878994,2,left,yes
sub-001,2,26,right,left,1,present,incongruent,4.8,present,1,0.28789124893955886,2,left,yes
sub-001,2,32,right,left,1,present,incongruent,4.8,present,1,0.33778758300468326,2,left,yes
sub-001,2,24,right,left,1,present,incongruent,5.3,present,1,0.39580691582523286,2,left,yes
sub-001,2,20,right,left,1,present,incongruent,3.7,present,1,0.4364369579125196,2,left,yes
sub-001,2,31,right,left,1,present,incongruent,5.3,present,1,0.405477040912956,2,left,yes
sub-001,2,8,right,left,1,present,incongruent,3.7,present,1,0.4361111661419272,2,left,yes
sub-001,2,34,right,left,1,present,incongruent,6.1,present,1,0.21352158300578591,2,left,yes
sub-001,2,3,right,left,1,present,incongruent,14,present,1,0.322832333156839,2,left,yes
sub-001,2,29,right,left,1,present,incongruent,7.3,present,1,0.290815707994625,2,left,yes
sub-001,2,22,right,left,1,present,incongruent,7.3,present,1,0.6426867910195142,2,left,yes
sub-001,2,38,right,left,1,present,incongruent,7.3,present,1,0.3511347498279065,2,left,yes
sub-001,2,6,right,left,0,absent,incongruent,0,absent,1,0.5925708750728518,2,left,yes
sub-001,2,41,right,left,1,present,incongruent,7.3,present,1,0.20744683290831745,2,left,yes
sub-001,2,30,right,left,0,absent,incongruent,0,absent,1,0.35815433296374977,2,left,yes
sub-001,2,18,right,left,1,present,incongruent,5.3,present,1,0.33624283294193447,2,left,yes
sub-001,2,36,right,left,1,present,incongruent,6.1,present,1,0.3754592500627041,2,left,yes
sub-001,2,19,right,left,1,present,incongruent,4.8,present,1,0.6078124581836164,2,left,yes
sub-001,2,40,right,left,1,present,incongruent,7.3,present,1,0.29521683300845325,2,left,yes
sub-001,2,39,right,left,1,present,incongruent,5.3,present,1,0.16873512510210276,2,left,yes
sub-001,2,4,right,left,1,present,incongruent,6.1,present,1,0.31565704103559256,2,left,yes
sub-001,2,28,right,left,0,absent,incongruent,0,absent,1,0.6466704159975052,2,left,yes
sub-001,2,1,right,left,1,present,incongruent,5.3,present,1,0.33366800006479025,2,left,yes
sub-001,2,7,right,left,1,present,incongruent,14,present,1,0.343203250085935,2,left,yes
sub-001,5,17,left,left,1,present,congruent,7.3,present,1,1.3682413750793785,3,left,yes
sub-001,5,5,left,left,1,present,congruent,6.1,present,1,0.6680790409445763,3,left,yes
sub-001,5,18,left,left,1,present,congruent,4.8,present,1,0.35045608319342136,3,left,yes
sub-001,5,29,left,left,1,present,congruent,7.3,present,1,0.3534434160683304,3,left,yes
sub-001,5,33,left,left,1,present,congruent,6.1,present,1,0.30267699901014566,3,left,yes
sub-001,5,22,left,left,1,present,congruent,4.8,present,1,0.31402920791879296,3,left,yes
sub-001,5,19,left,left,1,present,congruent,5.3,present,1,0.26402866607531905,3,left,yes
sub-001,5,9,left,left,0,absent,congruent,0,absent,1,0.5855335001833737,3,left,yes
sub-001,5,28,left,left,0,absent,congruent,0,absent,1,0.5436602081172168,3,left,yes
sub-001,5,39,left,left,1,present,congruent,3.7,absent,0,0.6945539161097258,3,left,yes
sub-001,5,26,left,left,1,present,congruent,6.1,present,1,0.4215556660201401,3,left,yes
sub-001,5,32,left,left,1,present,congruent,6.1,present,1,0.3284652081783861,3,left,yes
sub-001,5,38,left,left,1,present,congruent,7.3,present,1,0.2678145000245422,3,left,yes
sub-001,5,20,left,left,1,present,congruent,4.8,absent,0,0.6188006249722093,3,left,yes
sub-001,5,25,left,left,1,present,congruent,3.7,present,1,0.8689704579301178,3,left,yes
sub-001,5,4,left,left,1,present,congruent,14,present,1,0.18664766591973603,3,left,yes
sub-001,5,11,left,left,1,present,congruent,5.3,present,1,0.6656705408822745,3,left,yes
sub-001,5,2,left,left,1,present,congruent,5.3,present,1,0.41805587499402463,3,left,yes
sub-001,5,34,left,left,1,present,congruent,5.3,present,1,0.2955252081155777,3,left,yes
sub-001,5,31,left,left,1,present,congruent,4.8,present,1,0.3533047919627279,3,left,yes
sub-001,5,23,left,left,0,absent,congruent,0,absent,1,0.6563836249988526,3,left,yes
sub-001,5,37,left,left,1,present,congruent,7.3,present,1,0.2924542499240488,3,left,yes
sub-001,5,21,left,left,1,present,congruent,5.3,present,1,0.45010595791973174,3,left,yes
sub-001,5,8,left,left,1,present,congruent,7.3,present,1,0.3056749159004539,3,left,yes
sub-001,5,3,left,left,0,absent,congruent,0,absent,1,0.6435519999358803,3,left,yes
sub-001,5,30,left,left,1,present,congruent,3.7,present,1,0.3717861659824848,3,left,yes
sub-001,5,12,left,left,1,present,congruent,14,present,1,0.21271358290687203,3,left,yes
sub-001,5,14,left,left,1,present,congruent,3.7,present,1,0.4268132490105927,3,left,yes
sub-001,5,41,left,left,1,present,congruent,6.1,present,1,0.3106704999227077,3,left,yes
sub-001,5,36,left,left,1,present,congruent,4.8,present,1,0.3745062919333577,3,left,yes
sub-001,5,1,left,left,1,present,congruent,14,present,1,0.19396812515333295,3,left,yes
sub-001,5,35,left,left,1,present,congruent,4.8,present,1,0.3866405831649899,3,left,yes
sub-001,5,13,left,left,1,present,congruent,14,present,1,0.21320545813068748,3,left,yes
sub-001,5,10,left,left,1,present,congruent,7.3,present,1,0.2672658748924732,3,left,yes
sub-001,5,15,left,left,0,absent,congruent,0,absent,1,0.7082257498987019,3,left,yes
sub-001,5,40,left,left,1,present,congruent,14,present,1,0.91280537401326,3,left,yes
sub-001,5,6,left,left,1,present,congruent,3.7,absent,0,0.5534024578519166,3,left,yes
sub-001,5,7,left,left,1,present,congruent,5.3,present,1,0.36113204108551145,3,left,yes
sub-001,5,27,left,left,1,present,congruent,6.1,present,1,0.3265430829487741,3,left,yes
sub-001,5,16,left,left,0,absent,congruent,0,absent,1,0.461054207989946,3,left,yes
sub-001,5,42,left,left,1,present,congruent,3.7,absent,0,1.1156175411306322,3,left,yes
sub-002,2,30,right,left,0,absent,incongruent,0,absent,1,1.998617690998799,3,right,no
sub-002,2,15,right,left,1,present,incongruent,3.7,absent,0,0.9615868939999928,3,right,no
sub-002,2,19,right,left,1,present,incongruent,4.8,absent,0,2.7848989459998847,3,right,no
sub-002,2,12,right,left,1,present,incongruent,14,absent,0,2.9171781719996943,3,right,no
sub-002,2,27,right,left,1,present,incongruent,3.7,present,1,0.3684208600006969,3,right,no
sub-002,2,22,right,left,1,present,incongruent,7.3,present,1,1.8301045410007648,3,right,no
sub-002,2,26,right,left,1,present,incongruent,4.8,present,1,2.5100763850005023,3,right,no
sub-002,2,8,right,left,1,present,incongruent,3.7,absent,0,0.9899366190002185,3,right,no
sub-002,2,24,right,left,1,present,incongruent,5.3,present,1,0.7853974839999864,3,right,no
sub-002,2,2,right,left,1,present,incongruent,7.3,present,1,0.7646037959984824,3,right,no
sub-002,2,38,right,left,1,present,incongruent,7.3,present,1,0.8259849080004642,3,right,no
sub-002,2,1,right,left,1,present,incongruent,5.3,present,1,0.5956584169998678,3,right,no
sub-002,2,17,right,left,1,present,incongruent,14,present,1,0.8106391430010262,3,right,no
sub-002,2,35,right,left,0,absent,incongruent,0,absent,1,3.2753422960013268,3,right,no
sub-002,2,23,right,left,1,present,incongruent,6.1,present,1,0.7094275460003701,3,right,no
sub-002,2,41,right,left,1,present,incongruent,7.3,present,1,0.9127423970003292,3,right,no
sub-002,2,36,right,left,1,present,incongruent,6.1,present,1,0.8508341280012246,3,right,no
sub-002,2,4,right,left,1,present,incongruent,6.1,present,1,0.7527717680004571,3,right,no
sub-002,2,13,right,left,1,present,incongruent,4.8,present,1,0.6984322589996736,3,right,no
sub-002,2,10,right,left,0,absent,incongruent,0,absent,1,0.8295705609998549,3,right,no
sub-002,2,11,right,left,1,present,incongruent,6.1,present,1,0.7510733520011854,3,right,no
sub-002,2,31,right,left,1,present,incongruent,5.3,present,1,0.7539458380015276,3,right,no
sub-002,2,9,right,left,0,absent,incongruent,0,absent,1,0.928071127000294,3,right,no
sub-002,2,39,right,left,1,present,incongruent,5.3,present,1,0.6029435750006087,3,right,no
sub-002,2,37,right,left,1,present,incongruent,4.8,present,1,0.8644577360009862,3,right,no
sub-002,2,16,right,left,1,present,incongruent,3.7,absent,0,0.8407531840002775,3,right,no
sub-002,2,7,right,left,1,present,incongruent,14,present,1,0.6279642549998243,3,right,no
sub-002,2,25,right,left,1,present,incongruent,14,present,1,0.6376597079997737,3,right,no
sub-002,2,3,right,left,1,present,incongruent,14,present,1,0.6578959990001749,3,right,no
sub-002,2,34,right,left,1,present,incongruent,6.1,present,1,0.5292995489999157,3,right,no
sub-002,2,28,right,left,0,absent,incongruent,0,absent,1,0.7333144300009735,3,right,no
sub-002,2,33,right,left,1,present,incongruent,14,present,1,0.397758581000744,3,right,no
sub-002,2,29,right,left,1,present,incongruent,7.3,present,1,0.5723638700001175,3,right,no
sub-002,2,5,right,left,1,present,incongruent,4.8,present,1,0.7693900680005754,3,right,no
sub-002,2,42,right,left,1,present,incongruent,6.1,present,1,0.6127537120009947,3,right,no
sub-002,2,21,right,left,1,present,incongruent,5.3,present,1,0.6280903309998394,3,right,no
sub-002,2,32,right,left,1,present,incongruent,4.8,present,1,0.5598711580005329,3,right,no
sub-002,4,26,left,right,1,present,incongruent,6.1,absent,0,2.0275086269994063,3,right,yes
sub-002,4,37,left,right,1,present,incongruent,4.8,absent,0,0.3979551869997522,3,right,yes
sub-002,4,4,left,right,1,present,incongruent,14,present,1,0.8719217939997179,3,right,yes
sub-002,4,12,left,right,1,present,incongruent,7.3,present,1,2.132810957999027,3,right,yes
sub-002,4,8,left,right,1,present,incongruent,3.7,present,1,0.7866123509993486,3,right,yes
sub-002,4,19,left,right,1,present,incongruent,3.7,absent,0,0.26928497400149354,3,right,yes
sub-002,4,10,left,right,1,present,incongruent,5.3,absent,0,1.7125893680004085,3,right,yes
sub-002,4,40,left,right,1,present,incongruent,4.8,present,1,0.4140661679994082,3,right,yes
sub-002,4,18,left,right,1,present,incongruent,5.3,present,1,0.6299106559999927,3,right,yes
sub-002,4,15,left,right,1,present,incongruent,3.7,present,1,0.5359050770002796,3,right,yes
sub-002,4,25,left,right,1,present,incongruent,7.3,present,1,0.5913415659997554,3,right,yes
sub-002,4,38,left,right,0,absent,incongruent,0,absent,1,0.40616251100072986,3,right,yes
sub-002,4,36,left,right,1,present,incongruent,5.3,present,1,0.8702519210000901,3,right,yes
sub-002,4,14,left,right,1,present,incongruent,7.3,present,1,0.2766215529991314,3,right,yes
sub-002,4,9,left,right,1,present,incongruent,14,present,1,0.4207794060002925,3,right,yes
sub-002,4,22,left,right,1,present,incongruent,14,present,1,0.24091667799984864,3,right,yes
sub-002,4,27,left,right,0,absent,incongruent,0,absent,1,0.5494182660004299,3,right,yes
sub-002,4,11,left,right,1,present,incongruent,5.3,present,1,0.4747117820006679,3,right,yes
sub-002,4,21,left,right,1,present,incongruent,4.8,present,1,0.45204571900103474,3,right,yes
sub-002,4,17,left,right,1,present,incongruent,4.8,absent,0,0.38715682300062326,3,right,yes
sub-002,4,34,left,right,1,present,incongruent,4.8,absent,0,0.31609385999945516,3,right,yes
sub-002,4,39,left,right,0,absent,incongruent,0,absent,1,0.4426960689997941,3,right,yes
sub-002,4,20,left,right,1,present,incongruent,3.7,absent,0,0.370211384999493,3,right,yes
sub-002,4,7,left,right,1,present,incongruent,3.7,absent,0,0.598513124999954,3,right,yes
sub-002,4,29,left,right,1,present,incongruent,4.8,absent,0,2.2897982109989243,3,right,yes
sub-002,4,33,left,right,1,present,incongruent,6.1,present,1,0.6024642389984365,3,right,yes
sub-002,4,42,left,right,1,present,incongruent,6.1,present,1,0.44637159099875134,3,right,yes
sub-002,4,30,left,right,1,present,incongruent,7.3,present,1,0.4446024029984983,3,right,yes
sub-002,4,28,left,right,1,present,incongruent,6.1,present,1,0.3295912800003862,3,right,yes
sub-002,4,35,left,right,1,present,incongruent,14,present,1,0.5352347290008765,3,right,yes
sub-002,4,13,left,right,1,present,incongruent,14,absent,0,1.475695484001335,3,right,yes
sub-002,4,1,left,right,1,present,incongruent,7.3,present,1,1.1226584810010536,3,right,yes
sub-002,4,31,left,right,1,present,incongruent,7.3,present,1,4.742278928000815,3,right,yes
sub-002,4,24,left,right,0,absent,incongruent,0,absent,1,3.127661504000571,3,right,yes
sub-002,4,16,left,right,0,absent,incongruent,0,present,0,0.5546912110003177,3,right,yes
sub-002,4,5,left,right,1,present,incongruent,3.7,absent,0,0.8867232739994506,3,right,yes
sub-002,4,32,left,right,0,absent,incongruent,0,present,0,0.8091464999997697,3,right,yes
sub-002,4,3,left,right,1,present,incongruent,14,present,1,0.3404875329997594,3,right,yes
sub-002,4,6,left,right,1,present,incongruent,6.1,present,1,4.186314689999563,3,right,yes
sub-002,4,41,left,right,1,present,incongruent,5.3,present,1,3.952785791001588,3,right,yes
sub-002,4,2,left,right,1,present,incongruent,5.3,present,1,2.1399280760015245,3,right,yes
sub-002,4,23,left,right,1,present,incongruent,6.1,present,1,0.8512383839988615,3,right,yes
sub-002,3,25,right,none,1,present,none,4.8,absent,0,0.9847812600000908,None,down,yes
sub-002,3,42,right,none,0,absent,none,0,absent,1,0.8079258510006184,None,down,yes
sub-002,3,32,right,none,1,present,none,3.7,present,1,0.5612062310010515,None,down,yes
sub-002,3,2,right,none,1,present,none,14,present,1,0.4727382319997559,None,down,yes
sub-002,3,16,right,none,1,present,none,7.3,present,1,0.5868156249998719,None,down,yes
sub-002,3,37,right,none,1,present,none,3.7,present,1,0.80999470200004,None,down,yes
sub-002,3,13,right,none,1,present,none,6.1,present,1,1.039955837000889,None,down,yes
sub-002,3,11,right,none,0,absent,none,0,present,0,0.5254293519992643,None,down,yes
sub-002,3,9,right,none,1,present,none,6.1,present,1,0.4687534819986467,None,down,yes
sub-002,3,38,right,none,1,present,none,7.3,absent,0,1.9590641650011096,None,down,yes
sub-002,3,21,right,none,1,present,none,5.3,absent,0,1.284669329999815,None,down,yes
sub-002,3,27,right,none,1,present,none,6.1,absent,0,4.496425527000611,None,down,yes
sub-002,3,12,right,none,1,present,none,5.3,present,1,0.43372896700020647,None,down,yes
sub-002,3,31,right,none,1,present,none,14,present,1,0.416017298000952,None,down,yes
sub-002,3,17,right,none,1,present,none,3.7,present,1,0.511614955999903,None,down,yes
sub-002,3,30,right,none,1,present,none,5.3,present,1,0.3955716719992779,None,down,yes
sub-002,3,15,right,none,0,absent,none,0,absent,1,0.6439386599995487,None,down,yes
sub-002,3,22,right,none,1,present,none,3.7,present,1,0.6491117560017301,None,down,yes
sub-002,3,28,right,none,1,present,none,14,present,1,0.7306257889995322,None,down,yes
sub-002,3,35,right,none,1,present,none,4.8,present,1,0.36594195799989393,None,down,yes
sub-002,3,8,right,none,1,present,none,3.7,present,1,0.6927570080006262,None,down,yes
sub-002,3,41,right,none,1,present,none,6.1,present,1,0.4704292619990156,None,down,yes
sub-002,3,1,right,none,1,present,none,5.3,present,1,0.3851715989985678,None,down,yes
sub-002,3,7,right,none,1,present,none,14,present,1,3.8150405550004503,None,down,yes
sub-002,3,26,right,none,1,present,none,4.8,present,1,0.6647916800011444,None,down,yes
sub-002,3,36,right,none,0,absent,none,0,absent,1,1.7690361740005756,None,down,yes
sub-002,3,20,right,none,1,present,none,3.7,present,1,0.6070940479985438,None,down,yes
sub-002,3,5,right,none,1,present,none,4.8,absent,0,0.7289303640009166,None,down,yes
sub-002,3,23,right,none,1,present,none,4.8,absent,0,0.868325024999649,None,down,yes
sub-002,3,14,right,none,1,present,none,14,present,1,0.5221767200000613,None,down,yes
sub-002,3,18,right,none,1,present,none,7.3,present,1,0.958873018000304,None,down,yes
sub-002,3,19,right,none,1,present,none,5.3,present,1,0.4237277519987402,None,down,yes
sub-002,3,29,right,none,1,present,none,6.1,present,1,0.6674249340012466,None,down,yes
sub-002,3,10,right,none,1,present,none,5.3,present,1,0.6070099499993376,None,down,yes
sub-002,3,3,right,none,1,present,none,7.3,present,1,0.7459768850003456,None,down,yes
sub-002,3,39,right,none,1,present,none,7.3,present,1,0.7919678700000077,None,down,yes
sub-002,3,24,right,none,0,absent,none,0,present,0,0.948229003999586,None,down,yes
sub-002,3,4,right,none,1,present,none,7.3,present,1,0.6177656279996881,None,down,yes
sub-002,3,34,right,none,1,present,none,14,present,1,2.0277167090007424,None,down,yes
sub-002,3,40,right,none,1,present,none,4.8,present,1,1.017355181000312,None,down,yes
sub-002,3,6,right,none,1,present,none,6.1,present,1,1.798702146999858,None,down,yes
sub-002,1,14,right,right,1,present,congruent,6.1,present,1,0.7326554549999855,2,right,yes
sub-002,1,24,right,right,1,present,congruent,7.3,present,1,1.0809565789986664,2,right,yes
sub-002,1,5,right,right,1,present,congruent,7.3,present,1,0.8593563719987287,2,right,yes
sub-002,1,41,right,right,1,present,congruent,5.3,present,1,0.5548022329985542,2,right,yes
sub-002,1,31,right,right,1,present,congruent,4.8,present,1,4.586759633000838,2,right,yes
sub-002,1,25,right,right,0,absent,congruent,0,present,0,2.852841975998672,2,right,yes
sub-002,1,9,right,right,0,absent,congruent,0,present,0,2.0498573320001015,2,right,yes
sub-002,1,37,right,right,1,present,congruent,3.7,present,1,1.1300260789994354,2,right,yes
sub-002,1,6,right,right,0,absent,congruent,0,present,0,1.0764935860006517,2,right,yes
sub-002,1,16,right,right,1,present,congruent,14,present,1,0.6370994799999607,2,right,yes
sub-002,1,23,right,right,1,present,congruent,7.3,present,1,0.662771105999127,2,right,yes
sub-002,1,33,right,right,1,present,congruent,14,present,1,3.3001045680011885,2,right,yes
sub-002,1,28,right,right,1,present,congruent,14,present,1,0.4511638129988569,2,right,yes
sub-002,1,40,right,right,0,absent,congruent,0,absent,1,0.8924545879999641,2,right,yes
sub-002,1,18,right,right,1,present,congruent,14,present,1,1.0782215599992924,2,right,yes
sub-002,1,10,right,right,1,present,congruent,4.8,present,1,0.7750434310000855,2,right,yes
sub-002,1,29,right,right,1,present,congruent,3.7,absent,0,0.5211361619985837,2,right,yes
sub-002,1,8,right,right,1,present,congruent,3.7,absent,0,0.8689474739985599,2,right,yes
sub-002,1,42,right,right,1,present,congruent,3.7,absent,0,1.090273875001003,2,right,yes
sub-002,1,22,right,right,0,absent,congruent,0,absent,1,0.7939302350005164,2,right,yes
sub-002,1,15,right,right,1,present,congruent,3.7,absent,0,0.8164976900006877,2,right,yes
sub-002,1,2,right,right,1,present,congruent,4.8,absent,0,0.8089709159994527,2,right,yes
sub-002,1,7,right,right,1,present,congruent,7.3,present,1,0.5662444879999384,2,right,yes
sub-002,1,26,right,right,1,present,congruent,7.3,present,1,1.1619797019993712,2,right,yes
sub-002,1,3,right,right,1,present,congruent,14,present,1,0.4961083800008055,2,right,yes
sub-002,1,19,right,right,1,present,congruent,5.3,present,1,0.619734703001086,2,right,yes
sub-002,1,30,right,right,1,present,congruent,4.8,present,1,2.2006998369997746,2,right,yes
sub-002,1,1,right,right,1,present,congruent,6.1,present,1,0.8359449529998528,2,right,yes
sub-002,1,4,right,right,1,present,congruent,6.1,present,1,0.790561235999121,2,right,yes
sub-002,1,21,right,right,1,present,congruent,5.3,present,1,0.6227038440010801,2,right,yes
sub-002,1,13,right,right,0,absent,congruent,0,present,0,0.7826988399992842,2,right,yes
sub-002,1,11,right,right,1,present,congruent,5.3,present,1,0.6290675230011402,2,right,yes
sub-002,1,20,right,right,1,present,congruent,5.3,present,1,0.7844520339986047,2,right,yes
sub-002,1,36,right,right,1,present,congruent,4.8,present,1,0.7193057589993259,2,right,yes
sub-002,1,27,right,right,1,present,congruent,14,present,1,0.3981655410007079,2,right,yes
sub-002,1,39,right,right,1,present,congruent,6.1,present,1,0.6788634169988654,2,right,yes
sub-002,1,12,right,right,1,present,congruent,6.1,present,1,0.5346336889997474,2,right,yes
sub-002,1,35,right,right,1,present,congruent,4.8,present,1,0.4393296630005352,2,right,yes
sub-002,1,17,right,right,1,present,congruent,3.7,present,1,2.0307499339996866,2,right,yes
sub-002,6,2,left,none,1,present,none,5.3,absent,0,1.4953867989988794,None,down,yes
sub-002,6,22,left,none,1,present,none,6.1,absent,0,4.092603588000202,None,down,yes
sub-002,6,8,left,none,1,present,none,4.8,absent,0,1.3058720259996337,None,down,yes
sub-002,6,10,left,none,0,absent,none,0,absent,1,0.944458490001125,None,down,yes
sub-002,6,20,left,none,1,present,none,3.7,absent,0,0.5757813090003765,None,down,yes
sub-002,6,37,left,none,1,present,none,4.8,absent,0,1.184728152999014,None,down,yes
sub-002,6,29,left,none,1,present,none,4.8,absent,0,2.847788777999085,None,down,yes
sub-002,6,32,left,none,1,present,none,5.3,absent,0,0.7431547510004748,None,down,yes
sub-002,6,18,left,none,1,present,none,4.8,present,1,0.96437299200079,None,down,yes
sub-002,6,28,left,none,1,present,none,3.7,absent,0,1.0559416209998744,None,down,yes
sub-002,6,23,left,none,1,present,none,14,present,1,0.382035939999696,None,down,yes
sub-002,6,26,left,none,1,present,none,3.7,absent,0,0.7947608100002981,None,down,yes
sub-002,6,27,left,none,1,present,none,5.3,present,1,1.0636937159997617,None,down,yes
sub-002,6,25,left,none,1,present,none,14,present,1,0.4288659379999445,None,down,yes
sub-002,6,5,left,none,1,present,none,6.1,present,1,0.9925084730002708,None,down,yes
sub-002,6,15,left,none,1,present,none,5.3,present,1,0.6928471079991141,None,down,yes
sub-002,6,21,left,none,1,present,none,5.3,present,1,0.7778759619995981,None,down,yes
sub-002,6,36,left,none,1,present,none,7.3,present,1,1.1766552320004848,None,down,yes
sub-002,6,4,left,none,1,present,none,14,present,1,1.0350522629996703,None,down,yes
sub-002,6,35,left,none,1,present,none,14,present,1,0.7210035650005011,None,down,yes
sub-002,6,34,left,none,1,present,none,5.3,present,1,0.7621171869996033,None,down,yes
sub-002,6,12,left,none,1,present,none,6.1,present,1,1.1055343730004097,None,down,yes
sub-002,6,24,left,none,1,present,none,4.8,present,1,0.7766871849999006,None,down,yes
sub-002,6,41,left,none,1,present,none,6.1,present,1,0.5304737300011766,None,down,yes
sub-002,6,31,left,none,0,absent,none,0,present,0,2.794412077999368,None,down,yes
sub-002,6,7,left,none,0,absent,none,0,absent,1,0.8189852960003918,None,down,yes
sub-002,6,30,left,none,1,present,none,7.3,present,1,0.7443277739985206,None,down,yes
sub-002,6,39,left,none,1,present,none,3.7,absent,0,2.4315601540001808,None,down,yes
sub-002,6,19,left,none,1,present,none,7.3,present,1,0.6894974570004706,None,down,yes
sub-002,6,6,left,none,1,present,none,6.1,present,1,0.6566290890004893,None,down,yes
sub-002,6,17,left,none,1,present,none,14,present,1,2.4744529129984585,None,down,yes
sub-002,6,13,left,none,1,present,none,3.7,present,1,0.9015674059992308,None,down,yes
sub-002,6,40,left,none,1,present,none,6.1,present,1,1.0567500699999073,None,down,yes
sub-002,6,3,left,none,1,present,none,7.3,present,1,1.336542688999543,None,down,yes
sub-002,6,33,left,none,0,absent,none,0,absent,1,4.538766268000472,None,down,yes
sub-002,6,14,left,none,1,present,none,4.8,present,1,0.7287862330013013,None,down,yes
sub-002,6,16,left,none,1,present,none,7.3,absent,0,3.315037674999985,None,down,yes
sub-002,6,42,left,none,1,present,none,7.3,present,1,1.891941312000199,None,down,yes
sub-002,5,18,left,left,1,present,congruent,4.8,absent,0,1.302823243999228,3,down,no
sub-002,5,1,left,left,1,present,congruent,14,present,1,0.7976508060000924,3,down,no
sub-002,5,13,left,left,1,present,congruent,14,present,1,0.6296179680011846,3,down,no
sub-002,5,3,left,left,0,absent,congruent,0,absent,1,1.383971874998679,3,down,no
sub-002,5,32,left,left,1,present,congruent,6.1,present,1,0.7094009069987806,3,down,no
sub-002,5,16,left,left,0,absent,congruent,0,present,0,1.0804396559997258,3,down,no
sub-002,5,22,left,left,1,present,congruent,4.8,present,1,0.8051501879999705,3,down,no
sub-002,5,40,left,left,1,present,congruent,14,absent,0,2.0368491239987634,3,down,no
sub-002,5,41,left,left,1,present,congruent,6.1,present,1,1.191015984000842,3,down,no
sub-002,5,9,left,left,0,absent,congruent,0,absent,1,1.0406311280003138,3,down,no
sub-002,5,31,left,left,1,present,congruent,4.8,present,1,1.5022561800014955,3,down,no
sub-002,5,5,left,left,1,present,congruent,6.1,absent,0,1.0953968160010843,3,down,no
sub-002,5,2,left,left,1,present,congruent,5.3,absent,0,2.3431165929996496,3,down,no
sub-002,5,6,left,left,1,present,congruent,3.7,absent,0,2.2623866779995296,3,down,no
sub-002,5,11,left,left,1,present,congruent,5.3,present,1,0.7689286820004781,3,down,no
sub-002,5,14,left,left,1,present,congruent,3.7,present,1,1.5792884300008154,3,down,no
sub-002,5,8,left,left,1,present,congruent,7.3,present,1,0.7897609400006331,3,down,no
sub-002,5,29,left,left,1,present,congruent,7.3,present,1,1.0615458519987442,3,down,no
sub-002,5,23,left,left,0,absent,congruent,0,present,0,0.8289081389993953,3,down,no
sub-002,5,17,left,left,1,present,congruent,7.3,present,1,0.4647719210006471,3,down,no
sub-002,5,21,left,left,1,present,congruent,5.3,present,1,0.9804480330003572,3,down,no
sub-002,5,7,left,left,1,present,congruent,5.3,present,1,4.127885154999603,3,down,no
sub-002,5,37,left,left,1,present,congruent,7.3,present,1,0.7979806670009566,3,down,no
sub-002,5,10,left,left,1,present,congruent,7.3,present,1,0.9250402850011596,3,down,no
sub-002,5,12,left,left,1,present,congruent,14,present,1,0.718070674000046,3,down,no
sub-002,5,39,left,left,1,present,congruent,3.7,present,1,1.2008310869987326,3,down,no
sub-002,5,20,left,left,1,present,congruent,4.8,present,1,0.94562458099972,3,down,no
sub-002,5,30,left,left,1,present,congruent,3.7,present,1,1.6249965040005918,3,down,no
sub-002,5,26,left,left,1,present,congruent,6.1,present,1,2.4182072169987805,3,down,no
sub-002,5,25,left,left,1,present,congruent,3.7,present,1,1.2046329229997357,3,down,no
sub-002,5,42,left,left,1,present,congruent,3.7,present,1,2.2542885949987976,3,down,no
sub-002,5,24,left,left,1,present,congruent,14,present,1,0.9329563600003894,3,down,no
sub-002,5,15,left,left,0,absent,congruent,0,absent,1,1.0009103000011237,3,down,no
sub-002,5,34,left,left,1,present,congruent,5.3,absent,0,4.024583453001469,3,down,no
sub-002,5,27,left,left,1,present,congruent,6.1,present,1,0.726636168999903,3,down,no
sub-002,5,4,left,left,1,present,congruent,14,absent,0,0.4375707920007698,3,down,no
sub-002,5,35,left,left,1,present,congruent,4.8,absent,0,0.9891185169999516,3,down,no
sub-002,5,19,left,left,1,present,congruent,5.3,absent,0,0.7255207130001509,3,down,no
sub-002,5,28,left,left,0,absent,congruent,0,absent,1,0.6377643680007168,3,down,no
sub-003,1,36,right,right,1,present,congruent,4.8,present,1,0.8414397080050549,3,right,yes
sub-003,1,38,right,right,1,present,congruent,6.1,present,1,0.47091695900599007,3,right,yes
sub-003,1,34,right,right,1,present,congruent,5.3,present,1,1.1227229999931296,3,right,yes
sub-003,1,35,right,right,1,present,congruent,4.8,absent,0,0.6022383329982404,3,right,yes
sub-003,1,16,right,right,1,present,congruent,14,present,1,0.29755037499126047,3,right,yes
sub-003,1,30,right,right,1,present,congruent,4.8,present,1,0.33905920801043976,3,right,yes
sub-003,1,5,right,right,1,present,congruent,7.3,present,1,0.30715820798650384,3,right,yes
sub-003,1,37,right,right,1,present,congruent,3.7,absent,0,0.37013816699618474,3,right,yes
sub-003,1,39,right,right,1,present,congruent,6.1,present,1,0.3466254169907188,3,right,yes
sub-003,1,31,right,right,1,present,congruent,4.8,present,1,0.3086869170074351,3,right,yes
sub-003,1,10,right,right,1,present,congruent,4.8,present,1,0.12998716700531077,3,right,yes
sub-003,1,22,right,right,0,absent,congruent,0,present,0,1.2408582500065677,3,right,yes
sub-003,1,23,right,right,1,present,congruent,7.3,present,1,0.4689964999997755,3,right,yes
sub-003,1,17,right,right,1,present,congruent,3.7,absent,0,0.576756333000958,3,right,yes
sub-003,1,40,right,right,0,absent,congruent,0,absent,1,0.2851027919969056,3,right,yes
sub-003,1,15,right,right,1,present,congruent,3.7,present,1,0.3897919579903828,3,right,yes
sub-003,1,8,right,right,1,present,congruent,3.7,present,1,0.4075845420011319,3,right,yes
sub-003,1,25,right,right,0,absent,congruent,0,absent,1,0.508822957999655,3,right,yes
sub-003,1,3,right,right,1,present,congruent,14,present,1,0.337800374996732,3,right,yes
sub-003,1,26,right,right,1,present,congruent,7.3,present,1,0.3630090840015328,3,right,yes
sub-003,1,14,right,right,1,present,congruent,6.1,present,1,0.2980135409889044,3,right,yes
sub-003,1,29,right,right,1,present,congruent,3.7,present,1,0.34762187500018626,3,right,yes
sub-003,1,6,right,right,0,absent,congruent,0,absent,1,0.4965349999984028,3,right,yes
sub-003,1,24,right,right,1,present,congruent,7.3,present,1,0.43575704099202994,3,right,yes
sub-003,1,41,right,right,1,present,congruent,5.3,present,1,0.30487324998830445,3,right,yes
sub-003,1,32,right,right,1,present,congruent,7.3,present,1,0.17055158299626785,3,right,yes
sub-003,1,11,right,right,1,present,congruent,5.3,present,1,0.36547570800757967,3,right,yes
sub-003,1,19,right,right,1,present,congruent,5.3,present,1,0.2890785420022439,3,right,yes
sub-003,1,28,right,right,1,present,congruent,14,present,1,0.25316733300860506,3,right,yes
sub-003,1,7,right,right,1,present,congruent,7.3,present,1,0.3074973750044592,3,right,yes
sub-003,1,12,right,right,1,present,congruent,6.1,present,1,0.3149331250024261,3,right,yes
sub-003,1,42,right,right,1,present,congruent,3.7,present,1,0.32291858400276396,3,right,yes
sub-003,1,20,right,right,1,present,congruent,5.3,present,1,0.30855316600354854,3,right,yes
sub-003,1,18,right,right,1,present,congruent,14,present,1,0.3327688340068562,3,right,yes
sub-003,1,33,right,right,1,present,congruent,14,present,1,0.18569225000101144,3,right,yes
sub-003,1,21,right,right,1,present,congruent,5.3,present,1,0.49585899998783134,3,right,yes
sub-003,1,9,right,right,0,absent,congruent,0,absent,1,0.47126958300941624,3,right,yes
sub-003,1,13,right,right,0,absent,congruent,0,absent,1,0.31005754199577495,3,right,yes
sub-003,1,2,right,right,1,present,congruent,4.8,present,1,0.32609070900070947,3,right,yes
sub-003,1,1,right,right,1,present,congruent,6.1,present,1,0.4840350000013131,3,right,yes
sub-003,1,4,right,right,1,present,congruent,6.1,present,1,0.3240859579964308,3,right,yes
sub-003,1,27,right,right,1,present,congruent,14,present,1,0.37807429100212175,3,right,yes
sub-003,4,18,left,right,1,present,incongruent,5.3,absent,0,1.2890486660035094,2,right,yes
sub-003,4,1,left,right,1,present,incongruent,7.3,absent,0,0.4571682090027025,2,right,yes
sub-003,4,20,left,right,1,present,incongruent,3.7,present,1,2.10955962499429,2,right,yes
sub-003,4,41,left,right,1,present,incongruent,5.3,present,1,2.199387166008819,2,right,yes
sub-003,4,17,left,right,1,present,incongruent,4.8,present,1,0.5991349999967497,2,right,yes
sub-003,4,38,left,right,0,absent,incongruent,0,absent,1,0.7418151249876246,2,right,yes
sub-003,4,42,left,right,1,present,incongruent,6.1,present,1,0.41377045901026577,2,right,yes
sub-003,4,39,left,right,0,absent,incongruent,0,absent,1,0.7527852500061272,2,right,yes
sub-003,4,6,left,right,1,present,incongruent,6.1,present,1,0.39076379100151826,2,right,yes
sub-003,4,37,left,right,1,present,incongruent,4.8,present,1,0.4032559999905061,2,right,yes
sub-003,4,7,left,right,1,present,incongruent,3.7,absent,0,0.7163301670079818,2,right,yes
sub-003,4,9,left,right,1,present,incongruent,14,present,1,0.3167832089966396,2,right,yes
sub-003,4,24,left,right,0,absent,incongruent,0,absent,1,0.5523363329994027,2,right,yes
sub-003,4,2,left,right,1,present,incongruent,5.3,present,1,0.35175975000311155,2,right,yes
sub-003,4,28,left,right,1,present,incongruent,6.1,present,1,0.6404650420008693,2,right,yes
sub-003,4,5,left,right,1,present,incongruent,3.7,absent,0,0.8359117090003565,2,right,yes
sub-003,4,31,left,right,1,present,incongruent,7.3,present,1,0.31887354199716356,2,right,yes
sub-003,4,13,left,right,1,present,incongruent,14,present,1,0.32506779200048186,2,right,yes
sub-003,4,25,left,right,1,present,incongruent,7.3,present,1,0.4632798339880537,2,right,yes
sub-003,4,36,left,right,1,present,incongruent,5.3,absent,0,0.7783334589912556,2,right,yes
sub-003,4,3,left,right,1,present,incongruent,14,present,1,0.34298620800836943,2,right,yes
sub-003,4,15,left,right,1,present,incongruent,3.7,absent,0,0.49501962499925867,2,right,yes
sub-003,4,26,left,right,1,present,incongruent,6.1,present,1,0.45482829099637456,2,right,yes
sub-003,4,8,left,right,1,present,incongruent,3.7,absent,0,0.5129905420035357,2,right,yes
sub-003,4,22,left,right,1,present,incongruent,14,present,1,0.391157457997906,2,right,yes
sub-003,4,35,left,right,1,present,incongruent,14,present,1,0.33170566700573545,2,right,yes
sub-003,4,12,left,right,1,present,incongruent,7.3,present,1,0.3460883749939967,2,right,yes
sub-003,4,11,left,right,1,present,incongruent,5.3,absent,0,0.6852111250045709,2,right,yes
sub-003,4,40,left,right,1,present,incongruent,4.8,present,1,0.4166682499926537,2,right,yes
sub-003,4,33,left,right,1,present,incongruent,6.1,present,1,0.38008250000712,2,right,yes
sub-003,4,34,left,right,1,present,incongruent,4.8,present,1,0.4258172910049325,2,right,yes
sub-003,4,32,left,right,0,absent,incongruent,0,absent,1,0.6077130000048783,2,right,yes
sub-003,4,19,left,right,1,present,incongruent,3.7,absent,0,0.46265679100179113,2,right,yes
sub-003,4,23,left,right,1,present,incongruent,6.1,absent,0,0.29157320800004527,2,right,yes
sub-003,4,27,left,right,0,absent,incongruent,0,absent,1,0.4778114579967223,2,right,yes
sub-003,4,10,left,right,1,present,incongruent,5.3,present,1,0.7467987919953885,2,right,yes
sub-003,4,30,left,right,1,present,incongruent,7.3,present,1,0.31805062500643544,2,right,yes
sub-003,4,14,left,right,1,present,incongruent,7.3,present,1,1.558278833006625,2,right,yes
sub-003,4,21,left,right,1,present,incongruent,4.8,absent,0,0.7345536250068108,2,right,yes
sub-003,4,4,left,right,1,present,incongruent,14,present,1,0.27019137499155477,2,right,yes
sub-003,4,29,left,right,1,present,incongruent,4.8,present,1,0.4285218330041971,2,right,yes
sub-003,4,16,left,right,0,absent,incongruent,0,absent,1,0.5262467080028728,2,right,yes
sub-003,6,8,left,none,1,present,none,4.8,absent,0,0.7616653330042027,None,down,yes
sub-003,6,24,left,none,1,present,none,4.8,absent,0,0.7064513750083279,None,down,yes
sub-003,6,22,left,none,1,present,none,6.1,absent,0,0.3973771669989219,None,down,yes
sub-003,6,34,left,none,1,present,none,5.3,absent,0,0.33537445799447596,None,down,yes
sub-003,6,32,left,none,1,present,none,5.3,absent,0,0.6844704170071054,None,down,yes
sub-003,6,3,left,none,1,present,none,7.3,present,1,0.36967670799640473,None,down,yes
sub-003,6,16,left,none,1,present,none,7.3,present,1,0.34160295900073834,None,down,yes
sub-003,6,15,left,none,1,present,none,5.3,absent,0,0.3703735000017332,None,down,yes
sub-003,6,13,left,none,1,present,none,3.7,absent,0,0.5089725419966271,None,down,yes
sub-003,6,26,left,none,1,present,none,3.7,absent,0,0.5313553750020219,None,down,yes
sub-003,6,29,left,none,1,present,none,4.8,absent,0,0.324852917008684,None,down,yes
sub-003,6,42,left,none,1,present,none,7.3,absent,0,0.3027517500013346,None,down,yes
sub-003,6,18,left,none,1,present,none,4.8,absent,0,0.3542931249976391,None,down,yes
sub-003,6,6,left,none,1,present,none,6.1,absent,0,0.35957191699708346,None,down,yes
sub-003,6,2,left,none,1,present,none,5.3,absent,0,0.3569477499986533,None,down,yes
sub-003,6,23,left,none,1,present,none,14,present,1,0.27036804100498557,None,down,yes
sub-003,6,14,left,none,1,present,none,4.8,absent,0,0.2769737499911571,None,down,yes
sub-003,6,12,left,none,1,present,none,6.1,present,1,0.5186562089947984,None,down,yes
sub-003,6,38,left,none,1,present,none,3.7,absent,0,0.5154702910076594,None,down,yes
sub-003,6,33,left,none,0,absent,none,0,absent,1,1.6088030420069117,None,down,yes
sub-003,6,9,left,none,1,present,none,14,present,1,0.27441166700737085,None,down,yes
sub-003,6,5,left,none,1,present,none,6.1,present,1,0.3874036659981357,None,down,yes
sub-003,6,37,left,none,1,present,none,4.8,absent,0,0.5577361670002574,None,down,yes
sub-003,6,31,left,none,0,absent,none,0,absent,1,0.36738641699776053,None,down,yes
sub-003,6,1,left,none,0,absent,none,0,absent,1,0.955140082995058,None,down,yes
sub-003,6,11,left,none,0,absent,none,0,absent,1,0.4701871669967659,None,down,yes
sub-003,6,27,left,none,1,present,none,5.3,present,1,0.33262033300707117,None,down,yes
sub-003,6,19,left,none,1,present,none,7.3,present,1,0.28675341699272394,None,down,yes
sub-003,6,35,left,none,1,present,none,14,present,1,0.8529428339970764,None,down,yes
sub-003,6,21,left,none,1,present,none,5.3,present,1,0.31518170799245127,None,down,yes
sub-003,6,39,left,none,1,present,none,3.7,present,1,0.6601753329887288,None,down,yes
sub-003,6,36,left,none,1,present,none,7.3,present,1,0.3037467079993803,None,down,yes
sub-003,6,17,left,none,1,present,none,14,present,1,0.13118391699390486,None,down,yes
sub-003,6,10,left,none,0,absent,none,0,absent,1,0.6863929169921903,None,down,yes
sub-003,6,20,left,none,1,present,none,3.7,absent,0,0.4341604999935953,None,down,yes
sub-003,6,40,left,none,1,present,none,6.1,present,1,0.4900106249988312,None,down,yes
sub-003,6,4,left,none,1,present,none,14,present,1,0.28884154198749457,None,down,yes
sub-003,6,30,left,none,1,present,none,7.3,present,1,0.31488883300335146,None,down,yes
sub-003,6,28,left,none,1,present,none,3.7,absent,0,0.5049942499899771,None,down,yes
sub-003,6,25,left,none,1,present,none,14,present,1,0.31291641600546427,None,down,yes
sub-003,6,7,left,none,0,absent,none,0,absent,1,1.6860456249996787,None,down,yes
sub-003,6,41,left,none,1,present,none,6.1,present,1,0.3986164160014596,None,down,yes
sub-003,5,17,left,left,1,present,congruent,7.3,present,1,0.4656613749975804,2,left,yes
sub-003,5,9,left,left,0,absent,congruent,0,absent,1,0.5192183750041295,2,left,yes
sub-003,5,24,left,left,1,present,congruent,14,present,1,0.27142616600031033,2,left,yes
sub-003,5,23,left,left,0,absent,congruent,0,absent,1,0.471073124994291,2,left,yes
sub-003,5,2,left,left,1,present,congruent,5.3,absent,0,0.4392452920001233,2,left,yes
sub-003,5,22,left,left,1,present,congruent,4.8,absent,0,0.3095230829931097,2,left,yes
sub-003,5,21,left,left,1,present,congruent,5.3,present,1,0.4605792920046952,2,left,yes
sub-003,5,37,left,left,1,present,congruent,7.3,present,1,0.28020387499418575,2,left,yes
sub-003,5,6,left,left,1,present,congruent,3.7,absent,0,0.2700611670006765,2,left,yes
sub-003,5,4,left,left,1,present,congruent,14,present,1,0.371848292008508,2,left,yes
sub-003,5,5,left,left,1,present,congruent,6.1,present,1,0.4209553749969928,2,left,yes
sub-003,5,7,left,left,1,present,congruent,5.3,present,1,0.4293627919978462,2,left,yes
sub-003,5,35,left,left,1,present,congruent,4.8,absent,0,0.4868269170110579,2,left,yes
sub-003,5,18,left,left,1,present,congruent,4.8,absent,0,0.2963630000012927,2,left,yes
sub-003,5,20,left,left,1,present,congruent,4.8,present,1,0.6189574580057524,2,left,yes
sub-003,5,25,left,left,1,present,congruent,3.7,absent,0,0.7117053749971092,2,left,yes
sub-003,5,10,left,left,1,present,congruent,7.3,present,1,0.25816562499676365,2,left,yes
sub-003,5,36,left,left,1,present,congruent,4.8,present,1,0.3342099580040667,2,left,yes
sub-003,5,3,left,left,0,absent,congruent,0,absent,1,0.4965096249943599,2,left,yes
sub-003,5,16,left,left,0,absent,congruent,0,absent,1,0.3498641670012148,2,left,yes
sub-003,5,38,left,left,1,present,congruent,7.3,present,1,0.24127262498950583,2,left,yes
sub-003,5,29,left,left,1,present,congruent,7.3,present,1,0.1998267079907237,2,left,yes
sub-003,5,8,left,left,1,present,congruent,7.3,present,1,0.21086525000282563,2,left,yes
sub-003,5,34,left,left,1,present,congruent,5.3,absent,0,0.5298357919964474,2,left,yes
sub-003,5,13,left,left,1,present,congruent,14,present,1,1.3520089160010684,2,left,yes
sub-003,5,39,left,left,1,present,congruent,3.7,absent,0,0.48536579198844265,2,left,yes
sub-003,5,27,left,left,1,present,congruent,6.1,present,1,0.40839799999957904,2,left,yes
sub-003,5,40,left,left,1,present,congruent,14,present,1,0.19887754099909216,2,left,yes
sub-003,5,30,left,left,1,present,congruent,3.7,absent,0,0.5679291249980452,2,left,yes
sub-003,5,26,left,left,1,present,congruent,6.1,present,1,0.2712834580015624,2,left,yes
sub-003,5,42,left,left,1,present,congruent,3.7,absent,0,0.8202455419959733,2,left,yes
sub-003,5,15,left,left,0,absent,congruent,0,absent,1,0.69794445799198,2,left,yes
sub-003,5,28,left,left,0,absent,congruent,0,absent,1,3.1137485000072047,2,left,yes
sub-003,5,33,left,left,1,present,congruent,6.1,present,1,0.32943012499890756,2,left,yes
sub-003,5,19,left,left,1,present,congruent,5.3,present,1,0.3643342909927014,2,left,yes
sub-003,5,32,left,left,1,present,congruent,6.1,present,1,0.24713274999521673,2,left,yes
sub-003,5,11,left,left,1,present,congruent,5.3,present,1,0.3997483749990351,2,left,yes
sub-003,5,12,left,left,1,present,congruent,14,present,1,0.25055891599913593,2,left,yes
sub-003,5,31,left,left,1,present,congruent,4.8,present,1,0.38480908299970906,2,left,yes
sub-003,5,1,left,left,1,present,congruent,14,present,1,0.2549371670029359,2,left,yes
sub-003,5,41,left,left,1,present,congruent,6.1,present,1,0.27628320798976347,2,left,yes
sub-003,5,14,left,left,1,present,congruent,3.7,absent,0,0.8185924999997951,2,left,yes
sub-003,2,27,right,left,1,present,incongruent,3.7,present,1,0.2905943339865189,2,left,yes
sub-003,2,28,right,left,0,absent,incongruent,0,absent,1,0.8323535830131732,2,left,yes
sub-003,2,34,right,left,1,present,incongruent,6.1,present,1,0.36077420800575055,2,left,yes
sub-003,2,26,right,left,1,present,incongruent,4.8,present,1,0.3984184169967193,2,left,yes
sub-003,2,24,right,left,1,present,incongruent,5.3,present,1,0.27531374999671243,2,left,yes
sub-003,2,13,right,left,1,present,incongruent,4.8,present,1,0.31867558301019017,2,left,yes
sub-003,2,1,right,left,1,present,incongruent,5.3,present,1,0.30895804199099075,2,left,yes
sub-003,2,29,right,left,1,present,incongruent,7.3,present,1,0.2134454169863602,2,left,yes
sub-003,2,12,right,left,1,present,incongruent,14,present,1,0.18433799999183975,2,left,yes
sub-003,2,30,right,left,0,absent,incongruent,0,absent,1,0.6894263330032118,2,left,yes
sub-003,2,10,right,left,0,absent,incongruent,0,absent,1,0.7203847500059055,2,left,yes
sub-003,2,6,right,left,0,absent,incongruent,0,absent,1,0.4708922919962788,2,left,yes
sub-003,2,21,right,left,1,present,incongruent,5.3,present,1,0.681619333990966,2,left,yes
sub-003,2,22,right,left,1,present,incongruent,7.3,present,1,0.29897358299058396,2,left,yes
sub-003,2,14,right,left,1,present,incongruent,3.7,present,1,0.3016074169863714,2,left,yes
sub-003,2,16,right,left,1,present,incongruent,3.7,present,1,0.29250325000612065,2,left,yes
sub-003,2,33,right,left,1,present,incongruent,14,present,1,0.17105366599571423,2,left,yes
sub-003,2,9,right,left,0,absent,incongruent,0,present,0,0.32278825000685174,2,left,yes
sub-003,2,40,right,left,1,present,incongruent,7.3,present,1,0.5964827080024406,2,left,yes
sub-003,2,39,right,left,1,present,incongruent,5.3,present,1,0.35414220798702445,2,left,yes
sub-003,2,18,right,left,1,present,incongruent,5.3,present,1,0.3130925000004936,2,left,yes
sub-003,2,37,right,left,1,present,incongruent,4.8,present,1,0.31103616699692793,2,left,yes
sub-003,2,23,right,left,1,present,incongruent,6.1,present,1,0.14104320900514722,2,left,yes
sub-003,2,11,right,left,1,present,incongruent,6.1,present,1,0.2639450830029091,2,left,yes
sub-003,2,35,right,left,0,absent,incongruent,0,absent,1,0.8815738749981392,2,left,yes
sub-003,2,38,right,left,1,present,incongruent,7.3,present,1,0.2959437079989584,2,left,yes
sub-003,2,19,right,left,1,present,incongruent,4.8,present,1,0.21373683400452137,2,left,yes
sub-003,2,25,right,left,1,present,incongruent,14,present,1,0.2763137919973815,2,left,yes
sub-003,2,31,right,left,1,present,incongruent,5.3,present,1,0.3363590000080876,2,left,yes
sub-003,2,15,right,left,1,present,incongruent,3.7,present,1,0.29335079199518077,2,left,yes
sub-003,2,32,right,left,1,present,incongruent,4.8,present,1,0.3916837919969112,2,left,yes
sub-003,2,5,right,left,1,present,incongruent,4.8,present,1,0.2504958329955116,2,left,yes
sub-003,2,4,right,left,1,present,incongruent,6.1,present,1,0.2592493749980349,2,left,yes
sub-003,2,8,right,left,1,present,incongruent,3.7,present,1,0.31387470799381845,2,left,yes
sub-003,2,42,right,left,1,present,incongruent,6.1,present,1,0.6193746250064578,2,left,yes
sub-003,2,3,right,left,1,present,incongruent,14,present,1,0.2461989580042427,2,left,yes
sub-003,2,2,right,left,1,present,incongruent,7.3,present,1,0.29728175001218915,2,left,yes
sub-003,2,20,right,left,1,present,incongruent,3.7,present,1,0.32465195799886715,2,left,yes
sub-003,3,22,right,none,1,present,none,3.7,present,1,0.25714566599344835,None,down,yes
sub-003,3,34,right,none,1,present,none,14,present,1,0.1887962909968337,None,down,yes
sub-003,3,5,right,none,1,present,none,4.8,present,1,0.26689170899044257,None,down,yes
sub-003,3,11,right,none,0,absent,none,0,absent,1,0.2871992909931578,None,down,yes
sub-003,3,20,right,none,1,present,none,3.7,present,1,0.3057934579992434,None,down,yes
sub-003,3,9,right,none,1,present,none,6.1,present,1,0.2837631669972325,None,down,yes
sub-003,3,33,right,none,0,absent,none,0,absent,1,0.28099300000758376,None,down,yes
sub-003,3,4,right,none,1,present,none,7.3,present,1,0.25433783399057575,None,down,yes
sub-003,3,39,right,none,1,present,none,7.3,present,1,0.2487729160056915,None,down,yes
sub-003,3,36,right,none,0,absent,none,0,absent,1,0.28588875000423286,None,down,yes
sub-003,3,6,right,none,1,present,none,6.1,present,1,0.11304650000238324,None,down,yes
sub-003,3,40,right,none,1,present,none,4.8,present,1,0.27744162500312086,None,down,yes
sub-003,3,19,right,none,1,present,none,5.3,present,1,0.3574390419962583,None,down,yes
sub-003,3,37,right,none,1,present,none,3.7,present,1,0.4037800829974003,None,down,yes
sub-003,3,31,right,none,1,present,none,14,present,1,0.30541537499811966,None,down,yes
sub-003,3,10,right,none,1,present,none,5.3,present,1,0.44639291599742137,None,down,yes
sub-003,3,25,right,none,1,present,none,4.8,present,1,0.2844371660030447,None,down,yes
sub-003,3,32,right,none,1,present,none,3.7,absent,0,0.4816107079968788,None,down,yes
sub-003,3,13,right,none,1,present,none,6.1,present,1,0.3303130419953959,None,down,yes
sub-003,3,30,right,none,1,present,none,5.3,present,1,0.3066969580104342,None,down,yes
sub-003,3,29,right,none,1,present,none,6.1,present,1,0.2566313330025878,None,down,yes
sub-003,3,12,right,none,1,present,none,5.3,present,1,0.300927624994074,None,down,yes
sub-003,3,35,right,none,1,present,none,4.8,present,1,1.0139950000011595,None,down,yes
sub-003,3,24,right,none,0,absent,none,0,absent,1,0.9845915419864468,None,down,yes
sub-003,3,16,right,none,1,present,none,7.3,present,1,0.2850459159963066,None,down,yes
sub-003,3,42,right,none,0,absent,none,0,absent,1,0.5716866250004387,None,down,yes
sub-003,3,21,right,none,1,present,none,5.3,present,1,0.34152462499332614,None,down,yes
sub-003,3,7,right,none,1,present,none,14,present,1,0.2552092090045335,None,down,yes
sub-003,3,28,right,none,1,present,none,14,present,1,0.2790300000051502,None,down,yes
sub-003,3,2,right,none,1,present,none,14,present,1,0.6568086670013145,None,down,yes
sub-003,3,17,right,none,1,present,none,3.7,present,1,0.45579129199904855,None,down,yes
sub-003,3,38,right,none,1,present,none,7.3,present,1,0.300986375004868,None,down,yes
sub-003,3,23,right,none,1,present,none,4.8,present,1,0.297159207999357,None,down,yes
sub-003,3,8,right,none,1,present,none,3.7,present,1,0.3414676249958575,None,down,yes
sub-003,3,41,right,none,1,present,none,6.1,present,1,0.293714874991565,None,down,yes
sub-003,3,1,right,none,1,present,none,5.3,present,1,0.4379991669993615,None,down,yes
sub-003,3,26,right,none,1,present,none,4.8,present,1,0.5514799999946263,None,down,yes
sub-003,3,27,right,none,1,present,none,6.1,present,1,0.2891607909987215,None,down,yes
sub-003,3,3,right,none,1,present,none,7.3,present,1,0.25744308400317095,None,down,yes
sub-003,3,15,right,none,0,absent,none,0,present,0,0.4816782089910703,None,down,yes
sub-004,1,5,right,right,1,present,congruent,7.3,present,1,1.7447337079993304,2,right,yes
sub-004,1,7,right,right,1,present,congruent,7.3,present,1,0.6247671239998454,2,right,yes
sub-004,1,40,right,right,0,absent,congruent,0,absent,1,1.4907279580002069,2,right,yes
sub-004,1,16,right,right,1,present,congruent,14,present,1,0.4011070409997046,2,right,yes
sub-004,1,19,right,right,1,present,congruent,5.3,present,1,1.789770707999196,2,right,yes
sub-004,1,4,right,right,1,present,congruent,6.1,present,1,0.505999958000757,2,right,yes
sub-004,1,20,right,right,1,present,congruent,5.3,present,1,0.9108607079997456,2,right,yes
sub-004,1,2,right,right,1,present,congruent,4.8,absent,0,0.8176210410001659,2,right,yes
sub-004,1,32,right,right,1,present,congruent,7.3,present,1,0.5749447910002345,2,right,yes
sub-004,1,24,right,right,1,present,congruent,7.3,present,1,0.4858839160006028,2,right,yes
sub-004,1,42,right,right,1,present,congruent,3.7,absent,0,1.546707499999684,2,right,yes
sub-004,1,22,right,right,0,absent,congruent,0,absent,1,0.89929229200060945,2,right,yes
sub-004,1,9,right,right,0,absent,congruent,0,absent,1,0.8422077919985895,2,right,yes
sub-004,1,26,right,right,1,present,congruent,7.3,present,1,0.5171638330011774,2,right,yes
sub-004,1,33,right,right,1,present,congruent,14,present,1,0.209421083000052,2,right,yes
sub-004,1,13,right,right,0,absent,congruent,0,absent,1,0.8354916660009621,2,right,yes
sub-004,1,29,right,right,1,present,congruent,3.7,absent,0,3.768430207999699,2,right,yes
sub-004,1,23,right,right,1,present,congruent,7.3,present,1,0.733665290999852,2,right,yes
sub-004,1,38,right,right,1,present,congruent,6.1,absent,0,2.4159635830001207,2,right,yes
sub-004,1,17,right,right,1,present,congruent,3.7,absent,0,2.0225036239990004,2,right,yes
sub-004,1,18,right,right,1,present,congruent,14,present,1,0.17017054200005077,2,right,yes
sub-004,1,31,right,right,1,present,congruent,4.8,present,1,0.5006870830002299,2,right,yes
sub-004,1,34,right,right,1,present,congruent,5.3,present,1,0.6135536659985519,2,right,yes
sub-004,1,12,right,right,1,present,congruent,6.1,present,1,0.2983344170006603,2,right,yes
sub-004,1,1,right,right,1,present,congruent,6.1,present,1,0.38872254099987913,2,right,yes
sub-004,1,27,right,right,1,present,congruent,14,present,1,0.4878493329997582,2,right,yes
sub-004,1,10,right,right,1,present,congruent,4.8,present,1,0.5852710409999418,2,right,yes
sub-004,1,35,right,right,1,present,congruent,4.8,present,1,0.4551522080000723,2,right,yes
sub-004,1,25,right,right,0,absent,congruent,0,absent,1,1.29276149999896,2,right,yes
sub-004,1,14,right,right,1,present,congruent,6.1,present,1,0.4460161659990262,2,right,yes
sub-004,1,3,right,right,1,present,congruent,14,present,1,1.3072562489996926,2,right,yes
sub-004,1,41,right,right,1,present,congruent,5.3,absent,0,0.9403792079992854,2,right,yes
sub-004,1,15,right,right,1,present,congruent,3.7,absent,0,0.8581586660002358,2,right,yes
sub-004,1,21,right,right,1,present,congruent,5.3,absent,0,3.6689887499996985,2,right,yes
sub-004,1,8,right,right,1,present,congruent,3.7,absent,0,0.7614913750003325,2,right,yes
sub-004,1,36,right,right,1,present,congruent,4.8,absent,0,0.8342950830010523,2,right,yes
sub-004,1,39,right,right,1,present,congruent,6.1,absent,0,1.1348051250006392,2,right,yes
sub-004,1,6,right,right,0,absent,congruent,0,absent,1,1.0127741239994066,2,right,yes
sub-004,1,37,right,right,1,present,congruent,3.7,absent,0,0.8643662079994101,2,right,yes
sub-004,1,11,right,right,1,present,congruent,5.3,present,1,0.5533232489997317,2,right,yes
sub-004,6,19,left,none,1,present,none,7.3,present,1,1.0240781250013242,None,down,yes
sub-004,6,10,left,none,0,absent,none,0,absent,1,0.8635146239994356,None,down,yes
sub-004,6,8,left,none,1,present,none,4.8,present,1,2.5330130830006965,None,down,yes
sub-004,6,4,left,none,1,present,none,14,present,1,0.9018989159994816,None,down,yes
sub-004,6,25,left,none,1,present,none,14,present,1,0.4403734160005115,None,down,yes
sub-004,6,42,left,none,1,present,none,7.3,absent,0,0.7428842080007598,None,down,yes
sub-004,6,23,left,none,1,present,none,14,present,1,0.6166268750002928,None,down,yes
sub-004,6,17,left,none,1,present,none,14,present,1,0.8084807499999442,None,down,yes
sub-004,6,12,left,none,1,present,none,6.1,absent,0,1.359292582999842,None,down,yes
sub-004,6,30,left,none,1,present,none,7.3,present,1,0.7331124169995746,None,down,yes
sub-004,6,20,left,none,1,present,none,3.7,absent,0,0.9382167499989008,None,down,yes
sub-004,6,35,left,none,1,present,none,14,present,1,0.45035133300007146,None,down,yes
sub-004,6,37,left,none,1,present,none,4.8,absent,0,0.694754500000272,None,down,yes
sub-004,6,31,left,none,0,absent,none,0,absent,1,0.719659041000341,None,down,yes
sub-004,6,34,left,none,1,present,none,5.3,present,1,1.2701610830008576,None,down,yes
sub-004,6,41,left,none,1,present,none,6.1,present,1,1.026090707999174,None,down,yes
sub-004,6,14,left,none,1,present,none,4.8,absent,0,0.5611967499989987,None,down,yes
sub-004,6,3,left,none,1,present,none,7.3,present,1,0.8233111669997015,None,down,yes
sub-004,6,32,left,none,1,present,none,5.3,absent,0,0.9117308330005472,None,down,yes
sub-004,6,16,left,none,1,present,none,7.3,present,1,1.7526211660006084,None,down,yes
sub-004,6,2,left,none,1,present,none,5.3,absent,0,0.748887083000227,None,down,yes
sub-004,6,38,left,none,1,present,none,3.7,absent,0,0.7095899160012777,None,down,yes
sub-004,6,7,left,none,0,absent,none,0,absent,1,0.6512876239994512,None,down,yes
sub-004,6,28,left,none,1,present,none,3.7,absent,0,0.6150120410002273,None,down,yes
sub-004,6,18,left,none,1,present,none,4.8,absent,0,0.6196284990001004,None,down,yes
sub-004,6,22,left,none,1,present,none,6.1,absent,0,0.6866604989991174,None,down,yes
sub-004,6,9,left,none,1,present,none,14,present,1,1.00348699999995,None,down,yes
sub-004,6,6,left,none,1,present,none,6.1,present,1,0.6021825410007295,None,down,yes
sub-004,6,39,left,none,1,present,none,3.7,absent,0,0.7482291249998525,None,down,yes
sub-004,6,15,left,none,1,present,none,5.3,absent,0,0.73644270800105,None,down,yes
sub-004,6,24,left,none,1,present,none,4.8,present,1,4.7285054580006545,None,down,yes
sub-004,6,1,left,none,0,absent,none,0,absent,1,0.8070562489992881,None,down,yes
sub-004,6,13,left,none,1,present,none,3.7,absent,0,0.7051231670011475,None,down,yes
sub-004,6,40,left,none,1,present,none,6.1,present,1,0.7138149160000467,None,down,yes
sub-004,6,29,left,none,1,present,none,4.8,present,1,1.4211355419993197,None,down,yes
sub-004,6,21,left,none,1,present,none,5.3,present,1,0.5783283750006376,None,down,yes
sub-004,6,36,left,none,1,present,none,7.3,absent,0,0.7637978330003534,None,down,yes
sub-004,6,26,left,none,1,present,none,3.7,absent,0,0.6927784160016017,None,down,yes
sub-004,6,11,left,none,0,absent,none,0,absent,1,0.6307011659991986,None,down,yes
sub-004,6,33,left,none,0,absent,none,0,absent,1,0.5814206240011117,None,down,yes
sub-004,6,5,left,none,1,present,none,6.1,present,1,0.4972966660006932,None,down,yes
sub-004,4,18,left,right,1,present,incongruent,5.3,present,1,1.6230140830011806,2,right,yes
sub-004,4,12,left,right,1,present,incongruent,7.3,present,1,3.3357343330008007,2,right,yes
sub-004,4,2,left,right,1,present,incongruent,5.3,present,1,0.7353277080001135,2,right,yes
sub-004,4,1,left,right,1,present,incongruent,7.3,present,1,2.7285552079993067,2,right,yes
sub-004,4,33,left,right,1,present,incongruent,6.1,present,1,0.6057007079998584,2,right,yes
sub-004,4,40,left,right,1,present,incongruent,4.8,absent,0,0.5663885409994691,2,right,yes
sub-004,4,11,left,right,1,present,incongruent,5.3,present,1,0.5032108329996845,2,right,yes
sub-004,4,9,left,right,1,present,incongruent,14,present,1,0.40266808300111734,2,right,yes
sub-004,4,28,left,right,1,present,incongruent,6.1,present,1,0.5788701669989678,2,right,yes
sub-004,4,30,left,right,1,present,incongruent,7.3,present,1,2.5116925000002084,2,right,yes
sub-004,4,37,left,right,1,present,incongruent,4.8,present,1,2.855963542000609,2,right,yes
sub-004,4,41,left,right,1,present,incongruent,5.3,present,1,0.8154524999990826,2,right,yes
sub-004,4,22,left,right,1,present,incongruent,14,present,1,0.25090479199934634,2,right,yes
sub-004,4,42,left,right,1,present,incongruent,6.1,present,1,0.6449688329994387,2,right,yes
sub-004,4,34,left,right,1,present,incongruent,4.8,absent,0,2.1452429159999156,2,right,yes
sub-004,4,29,left,right,1,present,incongruent,4.8,absent,0,0.7690629989992885,2,right,yes
sub-004,4,17,left,right,1,present,incongruent,4.8,absent,0,0.7203155419992981,2,right,yes
sub-004,4,10,left,right,1,present,incongruent,5.3,absent,0,0.6580152909991739,2,right,yes
sub-004,4,26,left,right,1,present,incongruent,6.1,absent,0,0.670063833000313,2,right,yes
sub-004,4,39,left,right,0,absent,incongruent,0,absent,1,0.6300974160003534,2,right,yes
sub-004,4,35,left,right,1,present,incongruent,14,present,1,1.1580306670002756,2,right,yes
sub-004,4,3,left,right,1,present,incongruent,14,present,1,0.4556680410005356,2,right,yes
sub-004,4,13,left,right,1,present,incongruent,14,present,1,0.3418454999991809,2,right,yes
sub-004,4,21,left,right,1,present,incongruent,4.8,present,1,0.7548732080012996,2,right,yes
sub-004,4,19,left,right,1,present,incongruent,3.7,absent,0,0.9854742499992426,2,right,yes
sub-004,4,6,left,right,1,present,incongruent,6.1,present,1,0.7346440829987841,2,right,yes
sub-004,4,7,left,right,1,present,incongruent,3.7,absent,0,1.0788684580002157,2,right,yes
sub-004,4,4,left,right,1,present,incongruent,14,present,1,1.108214374000454,2,right,yes
sub-004,4,14,left,right,1,present,incongruent,7.3,present,1,0.5328943330005131,2,right,yes
sub-004,4,20,left,right,1,present,incongruent,3.7,present,1,1.719176124999649,2,right,yes
sub-004,4,31,left,right,1,present,incongruent,7.3,present,1,0.6809158330015634,2,right,yes
sub-004,4,25,left,right,1,present,incongruent,7.3,present,1,0.9612727919993632,2,right,yes
sub-004,4,38,left,right,0,absent,incongruent,0,absent,1,0.6359972910013312,2,right,yes
sub-004,4,27,left,right,0,absent,incongruent,0,absent,1,0.6287277909996192,2,right,yes
sub-004,4,5,left,right,1,present,incongruent,3.7,absent,0,0.5184957910005323,2,right,yes
sub-004,4,23,left,right,1,present,incongruent,6.1,absent,0,0.575537249998888,2,right,yes
sub-004,4,36,left,right,1,present,incongruent,5.3,absent,0,0.5858154159996047,2,right,yes
sub-004,4,16,left,right,0,absent,incongruent,0,absent,1,0.530426332999923,2,right,yes
sub-004,4,8,left,right,1,present,incongruent,3.7,absent,0,0.506671290999293,2,right,yes
sub-004,2,8,right,left,1,present,incongruent,3.7,absent,0,1.183754374000273,2,left,yes
sub-004,2,2,right,left,1,present,incongruent,7.3,present,1,0.9065920830016694,2,left,yes
sub-004,2,34,right,left,1,present,incongruent,6.1,present,1,0.6607470829985687,2,left,yes
sub-004,2,27,right,left,1,present,incongruent,3.7,absent,0,0.8859688330012432,2,left,yes
sub-004,2,24,right,left,1,present,incongruent,5.3,present,1,0.4661022909986059,2,left,yes
sub-004,2,1,right,left,1,present,incongruent,5.3,absent,0,0.8492074579990003,2,left,yes
sub-004,2,11,right,left,1,present,incongruent,6.1,present,1,0.5914536660002341,2,left,yes
sub-004,2,17,right,left,1,present,incongruent,14,present,1,0.5840937079992727,2,left,yes
sub-004,2,32,right,left,1,present,incongruent,4.8,present,1,1.207189708000442,2,left,yes
sub-004,2,4,right,left,1,present,incongruent,6.1,present,1,0.5626968329997908,2,left,yes
sub-004,2,42,right,left,1,present,incongruent,6.1,present,1,0.4757693329993344,2,left,yes
sub-004,2,7,right,left,1,present,incongruent,14,present,1,0.33212066700070864,2,left,yes
sub-004,2,31,right,left,1,present,incongruent,5.3,present,1,0.7069885000000795,2,left,yes
sub-004,2,19,right,left,1,present,incongruent,4.8,present,1,0.6814508329989621,2,left,yes
sub-004,2,18,right,left,1,present,incongruent,5.3,present,1,0.5599231249998411,2,left,yes
sub-004,2,15,right,left,1,present,incongruent,3.7,absent,0,1.6709016250006243,2,left,yes
sub-004,2,13,right,left,1,present,incongruent,4.8,present,1,0.5958214170004794,2,left,yes
sub-004,2,16,right,left,1,present,incongruent,3.7,present,1,0.6991381249990809,2,left,yes
sub-004,2,10,right,left,0,absent,incongruent,0,absent,1,2.4535417080005573,2,left,yes
sub-004,2,37,right,left,1,present,incongruent,4.8,present,1,0.7594144580016291,2,left,yes
sub-004,2,33,right,left,1,present,incongruent,14,present,1,0.47551600000042527,2,left,yes
sub-004,2,22,right,left,1,present,incongruent,7.3,present,1,0.4338805000006687,2,left,yes
sub-004,2,30,right,left,0,absent,incongruent,0,absent,1,0.8186039160009386,2,left,yes
sub-004,2,23,right,left,1,present,incongruent,6.1,absent,0,0.6731990829994174,2,left,yes
sub-004,2,9,right,left,0,absent,incongruent,0,absent,1,0.60519712399946,2,left,yes
sub-004,2,29,right,left,1,present,incongruent,7.3,present,1,0.5136655000005703,2,left,yes
sub-004,2,41,right,left,1,present,incongruent,7.3,present,1,0.6868497499999648,2,left,yes
sub-004,2,36,right,left,1,present,incongruent,6.1,present,1,1.1750907080004254,2,left,yes
sub-004,2,39,right,left,1,present,incongruent,5.3,absent,0,0.6886922499998036,2,left,yes
sub-004,2,14,right,left,1,present,incongruent,3.7,absent,0,0.6994527490005567,2,left,yes
sub-004,2,40,right,left,1,present,incongruent,7.3,present,1,0.5785810409997794,2,left,yes
sub-004,2,35,right,left,0,absent,incongruent,0,absent,1,1.4412120409997442,2,left,yes
sub-004,2,6,right,left,0,absent,incongruent,0,absent,1,1.1118400410014146,2,left,yes
sub-004,2,20,right,left,1,present,incongruent,3.7,present,1,0.5899614580011985,2,left,yes
sub-004,2,5,right,left,1,present,incongruent,4.8,present,1,0.5017471669998486,2,left,yes
sub-004,2,26,right,left,1,present,incongruent,4.8,absent,0,0.843743291001374,2,left,yes
sub-004,2,25,right,left,1,present,incongruent,14,present,1,0.42469654199885554,2,left,yes
sub-004,2,12,right,left,1,present,incongruent,14,present,1,0.34504008300064015,2,left,yes
sub-004,2,38,right,left,1,present,incongruent,7.3,present,1,0.43879570799981593,2,left,yes
sub-004,2,21,right,left,1,present,incongruent,5.3,absent,0,0.6707147919987619,2,left,yes
sub-004,2,28,right,left,0,absent,incongruent,0,absent,1,0.7543966659995931,2,left,yes
sub-004,5,14,left,left,1,present,congruent,3.7,absent,0,0.7784869579991209,3,left,yes
sub-004,5,42,left,left,1,present,congruent,3.7,absent,0,0.7016756670000177,3,left,yes
sub-004,5,23,left,left,0,absent,congruent,0,absent,1,0.5618696239998826,3,left,yes
sub-004,5,12,left,left,1,present,congruent,14,present,1,0.45628874999965774,3,left,yes
sub-004,5,1,left,left,1,present,congruent,14,present,1,0.3915956660002848,3,left,yes
sub-004,5,22,left,left,1,present,congruent,4.8,present,1,1.5967379580015404,3,left,yes
sub-004,5,34,left,left,1,present,congruent,5.3,present,1,0.5793881660010811,3,left,yes
sub-004,5,8,left,left,1,present,congruent,7.3,absent,0,0.7045417499994073,3,left,yes
sub-004,5,15,left,left,0,absent,congruent,0,absent,1,0.538752749998821,3,left,yes
sub-004,5,27,left,left,1,present,congruent,6.1,present,1,0.45645054099986737,3,left,yes
sub-004,5,26,left,left,1,present,congruent,6.1,present,1,0.4697751240000798,3,left,yes
sub-004,5,29,left,left,1,present,congruent,7.3,present,1,0.6628954579991841,3,left,yes
sub-004,5,6,left,left,1,present,congruent,3.7,absent,0,0.7842075000007753,3,left,yes
sub-004,5,4,left,left,1,present,congruent,14,present,1,0.3978296250006679,3,left,yes
sub-004,5,33,left,left,1,present,congruent,6.1,present,1,0.4674490409997816,3,left,yes
sub-004,5,5,left,left,1,present,congruent,6.1,present,1,0.4181586669983517,3,left,yes
sub-004,5,13,left,left,1,present,congruent,14,present,1,0.35998025000117195,3,left,yes
sub-004,5,20,left,left,1,present,congruent,4.8,present,1,0.5335263749984733,3,left,yes
sub-004,5,16,left,left,0,absent,congruent,0,absent,1,4.7934856669999135,3,left,yes
sub-004,5,41,left,left,1,present,congruent,6.1,present,1,0.4846741250003106,3,left,yes
sub-004,5,38,left,left,1,present,congruent,7.3,present,1,3.2058482490010647,3,left,yes
sub-004,5,35,left,left,1,present,congruent,4.8,present,1,0.6021141250002984,3,left,yes
sub-004,5,40,left,left,1,present,congruent,14,present,1,1.1645192910000333,3,left,yes
sub-004,5,9,left,left,0,absent,congruent,0,present,0,1.2055589159990632,3,left,yes
sub-004,5,7,left,left,1,present,congruent,5.3,present,1,0.5292225829998642,3,left,yes
sub-004,5,18,left,left,1,present,congruent,4.8,present,1,0.7818662919999042,3,left,yes
sub-004,5,24,left,left,1,present,congruent,14,present,1,0.32367633300054877,3,left,yes
sub-004,5,21,left,left,1,present,congruent,5.3,absent,0,0.85036774999935,3,left,yes
sub-004,5,3,left,left,0,absent,congruent,0,absent,1,0.6170587079996039,3,left,yes
sub-004,5,31,left,left,1,present,congruent,4.8,absent,0,0.6054731660005928,3,left,yes
sub-004,5,11,left,left,1,present,congruent,5.3,absent,0,0.7686595409995789,3,left,yes
sub-004,5,36,left,left,1,present,congruent,4.8,present,1,0.4660040409999056,3,left,yes
sub-004,5,32,left,left,1,present,congruent,6.1,present,1,0.4482717920000141,3,left,yes
sub-004,5,39,left,left,1,present,congruent,3.7,present,1,0.8359321250009089,3,left,yes
sub-004,5,30,left,left,1,present,congruent,3.7,present,1,1.0007910410004115,3,left,yes
sub-004,5,17,left,left,1,present,congruent,7.3,present,1,0.442866999999751,3,left,yes
sub-004,5,28,left,left,0,absent,congruent,0,absent,1,0.9127305829988472,3,left,yes
sub-004,5,37,left,left,1,present,congruent,7.3,present,1,0.41281087399875105,3,left,yes
sub-004,5,19,left,left,1,present,congruent,5.3,present,1,2.407912999000473,3,left,yes
sub-004,5,10,left,left,1,present,congruent,7.3,present,1,0.3908248329989874,3,left,yes
sub-004,5,2,left,left,1,present,congruent,5.3,absent,0,0.7612868750002235,3,left,yes
sub-004,5,25,left,left,1,present,congruent,3.7,absent,0,0.642010958001265,3,left,yes
sub-004,3,37,right,none,1,present,none,3.7,absent,0,0.9304176660007216,None,down,yes
sub-004,3,1,right,none,1,present,none,5.3,present,1,1.220298374999402,None,down,yes
sub-004,3,5,right,none,1,present,none,4.8,present,1,0.9849500000000262,None,down,yes
sub-004,3,30,right,none,1,present,none,5.3,present,1,0.38110616599988134,None,down,yes
sub-004,3,14,right,none,1,present,none,14,present,1,2.403587291000804,None,down,yes
sub-004,3,9,right,none,1,present,none,6.1,present,1,0.4282944160004263,None,down,yes
sub-004,3,15,right,none,0,absent,none,0,absent,1,1.3966407499992783,None,down,yes
sub-004,3,16,right,none,1,present,none,7.3,present,1,0.3005545419982809,None,down,yes
sub-004,3,17,right,none,1,present,none,3.7,present,1,0.6973433750008553,None,down,yes
sub-004,3,21,right,none,1,present,none,5.3,present,1,0.2543838750007126,None,down,yes
sub-004,3,42,right,none,0,absent,none,0,absent,1,1.0305198750011186,None,down,yes
sub-004,3,19,right,none,1,present,none,5.3,present,1,0.4682282079993456,None,down,yes
sub-004,3,3,right,none,1,present,none,7.3,present,1,0.18552883300071699,None,down,yes
sub-004,3,25,right,none,1,present,none,4.8,absent,0,1.4364729579992854,None,down,yes
sub-004,3,29,right,none,1,present,none,6.1,present,1,0.3103642910009512,None,down,yes
sub-004,3,12,right,none,1,present,none,5.3,present,1,0.45693587499954447,None,down,yes
sub-004,3,32,right,none,1,present,none,3.7,absent,0,1.080403292000483,None,down,yes
sub-004,3,4,right,none,1,present,none,7.3,present,1,0.4231256239982031,None,down,yes
sub-004,3,31,right,none,1,present,none,14,present,1,1.2608613329994114,None,down,yes
sub-004,3,23,right,none,1,present,none,4.8,present,1,0.5638955829999759,None,down,yes
sub-004,3,20,right,none,1,present,none,3.7,present,1,0.7433991249999963,None,down,yes
sub-004,3,24,right,none,0,absent,none,0,absent,1,1.133149332999892,None,down,yes
sub-004,3,28,right,none,1,present,none,14,present,1,2.139378542000486,None,down,yes
sub-004,3,38,right,none,1,present,none,7.3,present,1,0.5273831240010622,None,down,yes
sub-004,3,39,right,none,1,present,none,7.3,present,1,0.4004670829999668,None,down,yes
sub-004,3,10,right,none,1,present,none,5.3,present,1,0.5627723329998844,None,down,yes
sub-004,3,35,right,none,1,present,none,4.8,present,1,0.6332548330010468,None,down,yes
sub-004,3,36,right,none,0,absent,none,0,absent,1,1.2000765000011595,None,down,yes
sub-004,3,41,right,none,1,present,none,6.1,present,1,0.5050741670002026,None,down,yes
sub-004,3,40,right,none,1,present,none,4.8,present,1,0.4106211660000554,None,down,yes
sub-004,3,34,right,none,1,present,none,14,present,1,1.3266450829996757,None,down,yes
sub-004,3,13,right,none,1,present,none,6.1,present,1,0.5101594990010199,None,down,yes
sub-004,3,18,right,none,1,present,none,7.3,present,1,0.471828916000959,None,down,yes
sub-004,3,22,right,none,1,present,none,3.7,absent,0,1.176338625000426,None,down,yes
sub-004,3,33,right,none,0,absent,none,0,absent,1,1.0806571249995611,None,down,yes
sub-004,3,6,right,none,1,present,none,6.1,present,1,0.4464914159998443,None,down,yes
sub-004,3,8,right,none,1,present,none,3.7,absent,0,4.687618832998851,None,down,yes
sub-004,3,26,right,none,1,present,none,4.8,present,1,1.1585138749996986,None,down,yes
sub-004,3,11,right,none,0,absent,none,0,absent,1,3.000774874999479,None,down,yes
sub-004,3,27,right,none,1,present,none,6.1,present,1,0.4807051670013607,None,down,yes
sub-004,3,7,right,none,1,present,none,14,present,1,0.43297612500100513,None,down,yes
sub-005,2,36,right,left,1,present,incongruent,6.1,present,1,1.6595519159454852,1,right,no
sub-005,2,12,right,left,1,present,incongruent,14,present,1,0.4971456660423428,1,right,no
sub-005,2,4,right,left,1,present,incongruent,6.1,present,1,0.8689799581188709,1,right,no
sub-005,2,7,right,left,1,present,incongruent,14,present,1,0.4495069577824325,1,right,no
sub-005,2,29,right,left,1,present,incongruent,7.3,present,1,1.0041377500165254,1,right,no
sub-005,2,11,right,left,1,present,incongruent,6.1,present,1,0.6969081251882017,1,right,no
sub-005,2,13,right,left,1,present,incongruent,4.8,present,1,1.6530617489479482,1,right,no
sub-005,2,20,right,left,1,present,incongruent,3.7,absent,0,0.6375308739952743,1,right,no
sub-005,2,37,right,left,1,present,incongruent,4.8,present,1,0.4386829161085189,1,right,no
sub-005,2,31,right,left,1,present,incongruent,5.3,present,1,0.47604162502102554,1,right,no
sub-005,2,23,right,left,1,present,incongruent,6.1,present,1,1.1119591251481324,1,right,no
sub-005,2,40,right,left,1,present,incongruent,7.3,present,1,0.4986644999589771,1,right,no
sub-005,2,17,right,left,1,present,incongruent,14,present,1,0.47913858294487,1,right,no
sub-005,2,33,right,left,1,present,incongruent,14,present,1,0.21765933302231133,1,right,no
sub-005,2,21,right,left,1,present,incongruent,5.3,absent,0,0.4885642498265952,1,right,no
sub-005,2,30,right,left,0,absent,incongruent,0,absent,1,0.4926411239430308,1,right,no
sub-005,2,39,right,left,1,present,incongruent,5.3,present,1,0.41475962405093014,1,right,no
sub-005,2,28,right,left,0,absent,incongruent,0,absent,1,0.5813532909378409,1,right,no
sub-005,2,1,right,left,1,present,incongruent,5.3,present,1,0.3441230000462383,1,right,no
sub-005,2,10,right,left,0,absent,incongruent,0,absent,1,0.5441246239934117,1,right,no
sub-005,2,14,right,left,1,present,incongruent,3.7,present,1,0.3958111251704395,1,right,no
sub-005,2,3,right,left,1,present,incongruent,14,present,1,0.2936743327882141,1,right,no
sub-005,2,9,right,left,0,absent,incongruent,0,absent,1,0.3860003328882158,1,right,no
sub-005,2,18,right,left,1,present,incongruent,5.3,absent,0,0.4442517498973757,1,right,no
sub-005,2,8,right,left,1,present,incongruent,3.7,absent,0,0.8725559159647673,1,right,no
sub-005,2,25,right,left,1,present,incongruent,14,present,1,0.3166583739221096,1,right,no
sub-005,2,19,right,left,1,present,incongruent,4.8,absent,0,2.747547458158806,1,right,no
sub-005,2,2,right,left,1,present,incongruent,7.3,present,1,0.21548266615718603,1,right,no
sub-005,2,35,right,left,0,absent,incongruent,0,absent,1,0.5113654159940779,1,right,no
sub-005,2,22,right,left,1,present,incongruent,7.3,present,1,0.2773792911320925,1,right,no
sub-005,2,32,right,left,1,present,incongruent,4.8,absent,0,0.883642541943118,1,right,no
sub-005,2,27,right,left,1,present,incongruent,3.7,absent,0,0.6989012910053134,1,right,no
sub-005,2,6,right,left,0,absent,incongruent,0,absent,1,0.619234916055575,1,right,no
sub-005,2,38,right,left,1,present,incongruent,7.3,present,1,0.7902139581274241,1,right,no
sub-005,2,24,right,left,1,present,incongruent,5.3,present,1,0.42198495799675584,1,right,no
sub-005,2,41,right,left,1,present,incongruent,7.3,present,1,0.6386681240983307,1,right,no
sub-005,2,42,right,left,1,present,incongruent,6.1,present,1,0.77636604080908,1,right,no
sub-005,2,15,right,left,1,present,incongruent,3.7,absent,0,0.77174549899064,1,right,no
sub-005,2,16,right,left,1,present,incongruent,3.7,absent,0,0.5232660830952227,1,right,no
sub-005,2,34,right,left,1,present,incongruent,6.1,present,1,0.37432658299803734,1,right,no
sub-005,2,26,right,left,1,present,incongruent,4.8,present,1,0.663715833099559,1,right,no
sub-005,2,5,right,left,1,present,incongruent,4.8,present,1,0.3833852079696954,1,right,no
sub-005,6,21,left,none,1,present,none,5.3,absent,0,0.4782677500043064,None,left,no
sub-005,6,34,left,none,1,present,none,5.3,present,1,0.8571783751249313,None,left,no
sub-005,6,2,left,none,1,present,none,5.3,present,1,0.6560374989639968,None,left,no
sub-005,6,13,left,none,1,present,none,3.7,absent,0,0.5122344580013305,None,left,no
sub-005,6,24,left,none,1,present,none,4.8,present,1,1.2636748738586905,None,left,no
sub-005,6,10,left,none,0,absent,none,0,absent,1,0.3793635000474751,None,left,no
sub-005,6,35,left,none,1,present,none,14,present,1,0.4240897078998387,None,left,no
sub-005,6,9,left,none,1,present,none,14,present,1,0.4254225408658386,None,left,no
sub-005,6,25,left,none,1,present,none,14,present,1,0.31102224881760776,None,left,no
sub-005,6,4,left,none,1,present,none,14,present,1,0.25163887487724423,None,left,no
sub-005,6,18,left,none,1,present,none,4.8,absent,0,0.7276132910046726,None,left,no
sub-005,6,15,left,none,1,present,none,5.3,absent,0,0.5749577910173684,None,left,no
sub-005,6,31,left,none,0,absent,none,0,absent,1,0.7216196241788566,None,left,no
sub-005,6,29,left,none,1,present,none,4.8,absent,0,0.6144237080588937,None,left,no
sub-005,6,27,left,none,1,present,none,5.3,absent,0,0.3808954991400242,None,left,no
sub-005,6,7,left,none,0,absent,none,0,absent,1,0.3213270001579076,None,left,no
sub-005,6,6,left,none,1,present,none,6.1,present,1,0.2702276250347495,None,left,no
sub-005,6,32,left,none,1,present,none,5.3,absent,0,0.3775834159459919,None,left,no
sub-005,6,20,left,none,1,present,none,3.7,absent,0,0.3743581250309944,None,left,no
sub-005,6,26,left,none,1,present,none,3.7,absent,0,0.5402168738655746,None,left,no
sub-005,6,16,left,none,1,present,none,7.3,present,1,0.33878495800308883,None,left,no
sub-005,6,39,left,none,1,present,none,3.7,absent,0,0.4092102919239551,None,left,no
sub-005,6,17,left,none,1,present,none,14,present,1,0.2606586250476539,None,left,no
sub-005,6,22,left,none,1,present,none,6.1,present,1,0.28181258286349475,None,left,no
sub-005,6,28,left,none,1,present,none,3.7,absent,0,0.49764562398195267,None,left,no
sub-005,6,3,left,none,1,present,none,7.3,present,1,0.508340833010152,None,left,no
sub-005,6,14,left,none,1,present,none,4.8,absent,0,0.5744612489361316,None,left,no
sub-005,6,23,left,none,1,present,none,14,present,1,0.2716236251872033,None,left,no
sub-005,6,38,left,none,1,present,none,3.7,absent,0,0.4336782079190016,None,left,no
sub-005,6,41,left,none,1,present,none,6.1,present,1,0.5116945828776807,None,left,no
sub-005,6,8,left,none,1,present,none,4.8,absent,0,0.3683525000233203,None,left,no
sub-005,6,37,left,none,1,present,none,4.8,present,1,0.406841958174482,None,left,no
sub-005,6,1,left,none,0,absent,none,0,absent,1,0.3801132079679519,None,left,no
sub-005,6,40,left,none,1,present,none,6.1,present,1,0.33607954112812877,None,left,no
sub-005,6,12,left,none,1,present,none,6.1,present,1,0.3462728748563677,None,left,no
sub-005,6,11,left,none,0,absent,none,0,absent,1,0.38977783289738,None,left,no
sub-005,6,36,left,none,1,present,none,7.3,present,1,0.4505328331142664,None,left,no
sub-005,6,42,left,none,1,present,none,7.3,present,1,0.3325775000266731,None,left,no
sub-005,6,33,left,none,0,absent,none,0,absent,1,0.3040145409759134,None,left,no
sub-005,6,30,left,none,1,present,none,7.3,present,1,0.6658260410185903,None,left,no
sub-005,6,5,left,none,1,present,none,6.1,present,1,0.3521826241631061,None,left,no
sub-005,3,18,right,none,1,present,none,7.3,present,1,0.27113770809955895,None,down,yes
sub-005,3,19,right,none,1,present,none,5.3,absent,0,1.7701779580675066,None,down,yes
sub-005,3,39,right,none,1,present,none,7.3,present,1,0.3000039989128709,None,down,yes
sub-005,3,29,right,none,1,present,none,6.1,present,1,0.4041836659889668,None,down,yes
sub-005,3,1,right,none,1,present,none,5.3,present,1,0.29092900012619793,None,down,yes
sub-005,3,25,right,none,1,present,none,4.8,absent,0,0.3800989161245525,None,down,yes
sub-005,3,41,right,none,1,present,none,6.1,present,1,0.8334015000145882,None,down,yes
sub-005,3,31,right,none,1,present,none,14,present,1,0.3320478748064488,None,down,yes
sub-005,3,3,right,none,1,present,none,7.3,present,1,0.34337133285589516,None,down,yes
sub-005,3,12,right,none,1,present,none,5.3,present,1,0.3574539159890264,None,down,yes
sub-005,3,37,right,none,1,present,none,3.7,absent,0,0.5661130421794951,None,down,yes
sub-005,3,5,right,none,1,present,none,4.8,absent,0,0.6767783740069717,None,down,yes
sub-005,3,24,right,none,0,absent,none,0,absent,1,0.9990267080720514,None,down,yes
sub-005,3,42,right,none,0,absent,none,0,absent,1,0.6850794581696391,None,down,yes
sub-005,3,14,right,none,1,present,none,14,present,1,0.2596217489335686,None,down,yes
sub-005,3,4,right,none,1,present,none,7.3,present,1,0.34723187517374754,None,down,yes
sub-005,3,17,right,none,1,present,none,3.7,absent,0,0.6491488739848137,None,down,yes
sub-005,3,13,right,none,1,present,none,6.1,present,1,0.6104506659321487,None,down,yes
sub-005,3,6,right,none,1,present,none,6.1,present,1,0.29424345795996487,None,down,yes
sub-005,3,34,right,none,1,present,none,14,present,1,0.467307582963258,None,down,yes
sub-005,3,38,right,none,1,present,none,7.3,present,1,0.1787856249138713,None,down,yes
sub-005,3,9,right,none,1,present,none,6.1,present,1,0.3497069161385298,None,down,yes
sub-005,3,8,right,none,1,present,none,3.7,absent,0,0.30618816590867937,None,down,yes
sub-005,3,21,right,none,1,present,none,5.3,present,1,0.27730345795862377,None,down,yes
sub-005,3,16,right,none,1,present,none,7.3,present,1,0.4860914160963148,None,down,yes
sub-005,3,30,right,none,1,present,none,5.3,present,1,0.447456541005522,None,down,yes
sub-005,3,36,right,none,0,absent,none,0,absent,1,0.4837232499849051,None,down,yes
sub-005,3,35,right,none,1,present,none,4.8,absent,0,0.3759379170369357,None,down,yes
sub-005,3,20,right,none,1,present,none,3.7,absent,0,0.3895767910871655,None,down,yes
sub-005,3,22,right,none,1,present,none,3.7,absent,0,0.407029332825914,None,down,yes
sub-005,3,32,right,none,1,present,none,3.7,absent,0,0.5175658329389989,None,down,yes
sub-005,3,27,right,none,1,present,none,6.1,present,1,0.6636122490745038,None,down,yes
sub-005,3,28,right,none,1,present,none,14,present,1,0.4080159170553088,None,down,yes
sub-005,3,40,right,none,1,present,none,4.8,absent,0,0.48807916580699384,None,down,yes
sub-005,3,23,right,none,1,present,none,4.8,absent,0,0.4091011250857264,None,down,yes
sub-005,3,33,right,none,0,absent,none,0,absent,1,1.006814582971856,None,down,yes
sub-005,3,26,right,none,1,present,none,4.8,present,1,0.3934000830631703,None,down,yes
sub-005,3,15,right,none,0,absent,none,0,absent,1,0.6094565831590444,None,down,yes
sub-005,3,10,right,none,1,present,none,5.3,present,1,0.3167689999099821,None,down,yes
sub-005,3,2,right,none,1,present,none,14,present,1,0.2502328329719603,None,down,yes
sub-005,3,11,right,none,0,absent,none,0,absent,1,0.7354790000244975,None,down,yes
sub-005,1,2,right,right,1,present,congruent,4.8,absent,0,0.7727902489714324,1,right,yes
sub-005,1,31,right,right,1,present,congruent,4.8,absent,0,0.6305397499818355,1,right,yes
sub-005,1,40,right,right,0,absent,congruent,0,absent,1,0.6622896248009056,1,right,yes
sub-005,1,1,right,right,1,present,congruent,6.1,absent,0,0.9027749579399824,1,right,yes
sub-005,1,4,right,right,1,present,congruent,6.1,present,1,0.28955354099161923,1,right,yes
sub-005,1,38,right,right,1,present,congruent,6.1,present,1,0.3744565420784056,1,right,yes
sub-005,1,13,right,right,0,absent,congruent,0,absent,1,0.3714800411835313,1,right,yes
sub-005,1,35,right,right,1,present,congruent,4.8,present,1,0.456137458095327,1,right,yes
sub-005,1,32,right,right,1,present,congruent,7.3,present,1,0.4924998739734292,1,right,yes
sub-005,1,17,right,right,1,present,congruent,3.7,absent,0,0.3632505831774324,1,right,yes
sub-005,1,11,right,right,1,present,congruent,5.3,absent,0,0.6516236248426139,1,right,yes
sub-005,1,29,right,right,1,present,congruent,3.7,absent,0,0.46658641612157226,1,right,yes
sub-005,1,15,right,right,1,present,congruent,3.7,absent,0,0.6963997080456465,1,right,yes
sub-005,1,6,right,right,0,absent,congruent,0,absent,1,0.460244792047888,1,right,yes
sub-005,1,39,right,right,1,present,congruent,6.1,present,1,0.31907533295452595,1,right,yes
sub-005,1,28,right,right,1,present,congruent,14,present,1,0.16594941704533994,1,right,yes
sub-005,1,19,right,right,1,present,congruent,5.3,present,1,0.30294025014154613,1,right,yes
sub-005,1,16,right,right,1,present,congruent,14,present,1,0.22301995800808072,1,right,yes
sub-005,1,10,right,right,1,present,congruent,4.8,present,1,0.3681651658844203,1,right,yes
sub-005,1,23,right,right,1,present,congruent,7.3,present,1,0.3542405420448631,1,right,yes
sub-005,1,8,right,right,1,present,congruent,3.7,absent,0,0.42208312498405576,1,right,yes
sub-005,1,30,right,right,1,present,congruent,4.8,present,1,0.342288123909384,1,right,yes
sub-005,1,20,right,right,1,present,congruent,5.3,present,1,0.36022833292372525,1,right,yes
sub-005,1,37,right,right,1,present,congruent,3.7,absent,0,0.7787609579972923,1,right,yes
sub-005,1,36,right,right,1,present,congruent,4.8,present,1,0.3928187908604741,1,right,yes
sub-005,1,12,right,right,1,present,congruent,6.1,present,1,0.33421466685831547,1,right,yes
sub-005,1,7,right,right,1,present,congruent,7.3,present,1,0.2881208329927176,1,right,yes
sub-005,1,5,right,right,1,present,congruent,7.3,present,1,0.2998933328781277,1,right,yes
sub-005,1,21,right,right,1,present,congruent,5.3,present,1,0.2982897909823805,1,right,yes
sub-005,1,34,right,right,1,present,congruent,5.3,present,1,0.32144695799797773,1,right,yes
sub-005,1,27,right,right,1,present,congruent,14,present,1,0.3715252908878029,1,right,yes
sub-005,1,42,right,right,1,present,congruent,3.7,present,1,0.4112269578035921,1,right,yes
sub-005,1,22,right,right,0,absent,congruent,0,absent,1,0.4139459158759564,1,right,yes
sub-005,1,25,right,right,0,absent,congruent,0,absent,1,0.54793483298271894,1,right,yes
sub-005,1,26,right,right,1,present,congruent,7.3,present,1,0.2834732080809772,1,right,yes
sub-005,1,24,right,right,1,present,congruent,7.3,present,1,0.2801122919190675,1,right,yes
sub-005,1,9,right,right,0,absent,congruent,0,absent,1,0.796794624067843,1,right,yes
sub-005,1,41,right,right,1,present,congruent,5.3,present,1,0.34102195780724287,1,right,yes
sub-005,1,3,right,right,1,present,congruent,14,present,1,0.4138963329605758,1,right,yes
sub-005,1,14,right,right,1,present,congruent,6.1,present,1,0.8151685418561101,1,right,yes
sub-005,4,15,left,right,1,present,incongruent,3.7,absent,0,0.9040688329841942,1,left,no
sub-005,4,38,left,right,0,absent,incongruent,0,absent,1,0.36785554187372327,1,left,no
sub-005,4,20,left,right,1,present,incongruent,3.7,absent,0,0.43391154217533767,1,left,no
sub-005,4,35,left,right,1,present,incongruent,14,present,1,0.2874516239389777,1,left,no
sub-005,4,40,left,right,1,present,incongruent,4.8,present,1,0.3554594158194959,1,left,no
sub-005,4,12,left,right,1,present,incongruent,7.3,present,1,0.2967190828640014,1,left,no
sub-005,4,10,left,right,1,present,incongruent,5.3,present,1,0.4801435829140246,1,left,no
