wordCTK,colorCTK,corrAnsCTK,congruentCTK,wordPractice,colorPractice,corrAnsPractice,congruentPractice,word,color,corrAns,congruent,trials_CTK.thisRepN,trials_CTK.thisTrialN,trials_CTK.thisN,trials_CTK.thisIndex,trials_practice.thisRepN,trials_practice.thisTrialN,trials_practice.thisN,trials_practice.thisIndex,trials_test.thisRepN,trials_test.thisTrialN,trials_test.thisN,trials_test.thisIndex,thisRow.t,notes,instruction.started,instr_text.started,instr_image.started,instr_resp.started,instruction.stopped,instr_resp.keys,instr_resp.rt,instr_resp.duration,instr_color_to_key.started,instr_ctk.started,resp_ctk.started,instr_color_to_key.stopped,resp_ctk.keys,resp_ctk.rt,resp_ctk.duration,ITI.started,fixcross.started,fixcross.stopped,ITI.stopped,color_to_key_run.started,stimulus_CTK.started,keyResp_CTK.started,color_to_key_run.stopped,keyResp_CTK.keys,keyResp_CTK.corr,keyResp_CTK.rt,keyResp_CTK.duration,instr_practice.started,instr_practice_text.started,instr_practice_resp.started,instr_practice.stopped,instr_practice_resp.keys,instr_practice_resp.rt,instr_practice_resp.duration,practice_run.started,stimulus_practice.started,respPractice.started,practice_run.stopped,respPractice.keys,respPractice.corr,respPractice.rt,respPractice.duration,feedback.started,textFeedback.started,feedback.stopped,instr_test.started,instr_test_text.started,instr_test_resp.started,instr_test.stopped,instr_test_resp.keys,instr_test_resp.rt,instr_test_resp.duration,test_run.started,stimulus_test_run.started,keyResp_test_run.started,test_run.stopped,keyResp_test_run.keys,keyResp_test_run.corr,keyResp_test_run.rt,keyResp_test_run.duration,goodbye.started,textGoodbye.started,goodbye.stopped,participant,session,date,expName,psychopyVersion,frameRate,expStart,
,,,,,,,,,,,,,,,,,,,,,,,,,,0.01250930002424866,0.06996170000638813,0.06996170000638813,0.06996170000638813,187.1745262000477,space,187.1005329999607,None,,,,,,,,,,,,,,,,,,,,,,,,,,,,,,,,,,,,,,,,,,,,,,,,,,,,,,,,sub-154989,001,2024-03-13_18h51.58.866,stroop_test,2023.2.3,None,2024-03-13 18h52.18.263622 +0100,
,,,,,,,,,,,,,,,,,,,,,,,,,,,,,,,,,,187.1746363999555,187.19469010003377,187.19469010003377,193.45410670002457,space,6.252502600080334,None,,,,,,,,,,,,,,,,,,,,,,,,,,,,,,,,,,,,,,,,,,,,,,,,,sub-154989,001,2024-03-13_18h51.58.866,stroop_test,2023.2.3,None,2024-03-13 18h52.18.263622 +0100,
test,blue,b,1,,,,,,,,,0,0,0,2,,,,,,,,,193.5270048000384,,,,,,,,,,,,,,,,,193.51193669997156,194.2689811999444,195.10397299996112,195.05759129999205,195.05768029997125,195.10397299996112,195.10397299996112,196.98780909995548,b,1,1.8719126000069082,None,,,,,,,,,,,,,,,,,,,,,,,,,,,,,,,,,,,,,sub-154989,001,2024-03-13_18h51.58.866,stroop_test,2023.2.3,None,2024-03-13 18h52.18.263622 +0100,
test,red,r,1,,,,,,,,,0,1,1,0,,,,,,,,,197.03106930002104,,,,,,,,,,,,,,,,,197.01745449996088,198.22069870005362,199.03744380001444,199.01754769997206,199.01761029998306,199.03744380001444,199.03744380001444,200.3518304999452,r,1,1.3079717999789864,None,,,,,,,,,,,,,,,,,,,,,,,,,,,,,,,,,,,,,sub-154989,001,2024-03-13_18h51.58.866,stroop_test,2023.2.3,None,2024-03-13 18h52.18.263622 +0100,
test,yellow,g,1,,,,,,,,,0,2,2,1,,,,,,,,,200.36889649997465,,,,,,,,,,,,,,,,,200.35292610002216,200.46359519998077,201.2809910000069,201.25864060001913,201.25872509996407,201.2809910000069,201.2809910000069,202.15815349994227,g,1,0.8613759999861941,None,,,,,,,,,,,,,,,,,,,,,,,,,,,,,,,,,,,,,sub-154989,001,2024-03-13_18h51.58.866,stroop_test,2023.2.3,None,2024-03-13 18h52.18.263622 +0100,
test,yellow,g,1,,,,,,,,,1,0,3,1,,,,,,,,,202.17930309998337,,,,,,,,,,,,,,,,,202.16060559998732,203.3668248000322,204.17513049999252,204.15139080001973,204.1514258000534,204.17513049999252,204.17513049999252,204.98546019999776,g,1,0.8027307000011206,None,,,,,,,,,,,,,,,,,,,,,,,,,,,,,,,,,,,,,sub-154989,001,2024-03-13_18h51.58.866,stroop_test,2023.2.3,None,2024-03-13 18h52.18.263622 +0100,
test,blue,b,1,,,,,,,,,1,1,4,2,,,,,,,,,205.003086599987,,,,,,,,,,,,,,,,,204.9871352999471,205.80082140001468,206.61424979998264,206.59352959995158,206.59359029994812,206.61424979998264,206.61424979998264,208.26800769998226,b,1,1.6473740000510588,None,,,,,,,,,,,,,,,,,,,,,,,,,,,,,,,,,,,,,sub-154989,001,2024-03-13_18h51.58.866,stroop_test,2023.2.3,None,2024-03-13 18h52.18.263622 +0100,
test,red,r,1,,,,,,,,,1,2,5,0,,,,,,,,,208.28494919999503,,,,,,,,,,,,,,,,,208.26972199999727,208.63186630001292,209.44422179996036,209.4206472999649,209.42072369996458,209.44422179996036,209.44422179996036,210.51436719996855,r,1,1.058870599954389,None,,,,,,,,,,,,,,,,,,,,,,,,,,,,,,,,,,,,,sub-154989,001,2024-03-13_18h51.58.866,stroop_test,2023.2.3,None,2024-03-13 18h52.18.263622 +0100,
test,yellow,g,1,,,,,,,,,2,0,6,1,,,,,,,,,210.5349361000117,,,,,,,,,,,,,,,,,210.51634420000482,210.6198084000498,211.43490220000967,211.41392449999694,211.41398429998662,211.43490220000967,211.43490220000967,212.42126950004604,g,1,0.9808504999382421,None,,,,,,,,,,,,,,,,,,,,,,,,,,,,,,,,,,,,,sub-154989,001,2024-03-13_18h51.58.866,stroop_test,2023.2.3,None,2024-03-13 18h52.18.263622 +0100,
test,red,r,1,,,,,,,,,2,1,7,0,,,,,,,,,212.43468069995288,,,,,,,,,,,,,,,,,212.42212410003413,212.53464650001843,213.3466607000446,213.32440769998357,213.32448720000684,213.3466607000446,213.3466607000446,214.4593660000246,r,1,1.1026400999398902,None,,,,,,,,,,,,,,,,,,,,,,,,,,,,,,,,,,,,,sub-154989,001,2024-03-13_18h51.58.866,stroop_test,2023.2.3,None,2024-03-13 18h52.18.263622 +0100,
test,blue,b,1,,,,,,,,,2,2,8,2,,,,,,,,,214.47974910004996,,,,,,,,,,,,,,,,,214.4612586000003,215.66952580004,216.48532099998556,216.46865439997055,216.46870069997385,216.48532099998556,216.48532099998556,217.66335519996937,b,1,1.151937899994664,None,,,,,,,,,,,,,,,,,,,,,,,,,,,,,,,,,,,,,sub-154989,001,2024-03-13_18h51.58.866,stroop_test,2023.2.3,None,2024-03-13 18h52.18.263622 +0100,
test,red,r,1,,,,,,,,,3,0,9,0,,,,,,,,,217.68302600004245,,,,,,,,,,,,,,,,,217.6652365999762,218.46908860001713,219.2879305999959,219.27084540005308,219.27090630005114,219.2879305999959,219.2879305999959,220.24775330000557,r,1,0.9533160000573844,None,,,,,,,,,,,,,,,,,,,,,,,,,,,,,,,,,,,,,sub-154989,001,2024-03-13_18h51.58.866,stroop_test,2023.2.3,None,2024-03-13 18h52.18.263622 +0100,
test,yellow,g,1,,,,,,,,,3,1,10,1,,,,,,,,,220.26570870005526,,,,,,,,,,,,,,,,,220.24887410004158,220.36476669996046,221.17014239996206,221.15343669999857,221.15349179995246,221.17014239996206,221.17014239996206,222.08858029998373,g,1,0.908169399946928,None,,,,,,,,,,,,,,,,,,,,,,,,,,,,,,,,,,,,,sub-154989,001,2024-03-13_18h51.58.866,stroop_test,2023.2.3,None,2024-03-13 18h52.18.263622 +0100,
test,blue,b,1,,,,,,,,,3,2,11,2,,,,,,,,,222.10506520001218,,,,,,,,,,,,,,,,,222.0905105000129,222.45442369999364,223.2711664000526,223.25229299999774,223.25235500000417,223.2711664000526,223.2711664000526,224.184686099994,r,0,0.8928666999563575,None,,,,,,,,,,,,,,,,,,,,,,,,,,,,,,,,,,,,,sub-154989,001,2024-03-13_18h51.58.866,stroop_test,2023.2.3,None,2024-03-13 18h52.18.263622 +0100,
,,,,,,,,,,,,,,,,,,,,,,,,,,,,,,,,,,,,,,,,,,,,,,,,,,,,,224.18552189995535,224.20274360000622,224.20274360000622,234.00147080002353,space,9.793406200013123,None,,,,,,,,,,,,,,,,,,,,,,,,,,,,,,sub-154989,001,2024-03-13_18h51.58.866,stroop_test,2023.2.3,None,2024-03-13 18h52.18.263622 +0100,
,,,,gelb,blue,b,0,,,,,,,,,0,0,0,9,,,,,234.04185319994576,,,,,,,,,,,,,,,,,234.02763190004043,234.11608179996256,234.94808200001717,234.90284070000052,,,,,,,,,,,,,,,,234.90290220000315,234.94808200001717,234.94808200001717,236.98158400005195,b,1,2.012781099998392,None,236.98358050000388,237.030487800017,237.98789270000998,,,,,,,,,,,,,,,,,,,sub-154989,001,2024-03-13_18h51.58.866,stroop_test,2023.2.3,None,2024-03-13 18h52.18.263622 +0100,
,,,,blau,blue,b,1,,,,,,,,,0,1,1,6,,,,,238.0037884999765,,,,,,,,,,,,,,,,,237.98975059995428,238.10075820004568,238.94321229995694,238.9034352999879,,,,,,,,,,,,,,,,238.90349729999434,238.94321229995694,238.94321229995694,239.94487100001425,b,1,0.9981440999545157,None,239.94561789999716,239.9650101000443,240.9539661000017,,,,,,,,,,,,,,,,,,,sub-154989,001,2024-03-13_18h51.58.866,stroop_test,2023.2.3,None,2024-03-13 18h52.18.263622 +0100,
,,,,blau,blue,b,1,,,,,,,,,0,2,2,5,,,,,240.9784005000256,,,,,,,,,,,,,,,,,240.95570060005412,241.74936320004053,242.5531058999477,242.53502680000383,,,,,,,,,,,,,,,,242.53508800000418,242.5531058999477,242.5531058999477,243.79415279999375,b,1,1.2207593000493944,None,243.79494499997236,243.81449330004398,244.8136859999504,,,,,,,,,,,,,,,,,,,sub-154989,001,2024-03-13_18h51.58.866,stroop_test,2023.2.3,None,2024-03-13 18h52.18.263622 +0100,
,,,,blau,yellow,g,0,,,,,,,,,0,3,3,7,,,,,244.8308581999736,,,,,,,,,,,,,,,,,244.81426470004953,245.60093489999417,246.41006459994242,246.38656240003183,,,,,,,,,,,,,,,,246.38662450003903,246.41006459994242,246.41006459994242,248.64439949998632,g,1,2.2241507000289857,None,248.6451648999937,248.66467870003544,249.65259770001285,,,,,,,,,,,,,,,,,,,sub-154989,001,2024-03-13_18h51.58.866,stroop_test,2023.2.3,None,2024-03-13 18h52.18.263622 +0100,
,,,,rot,yellow,g,0,,,,,,,,,0,4,4,3,,,,,249.67815129994415,,,,,,,,,,,,,,,,,249.6535519999452,250.46409799996763,251.29734369996004,251.26345059997402,,,,,,,,,,,,,,,,251.26351049996447,251.29734369996004,251.29734369996004,252.49540959997103,g,1,1.1956887999549508,None,252.4960080999881,252.51584100001492,253.50149419996887,,,,,,,,,,,,,,,,,,,sub-154989,001,2024-03-13_18h51.58.866,stroop_test,2023.2.3,None,2024-03-13 18h52.18.263622 +0100,
,,,,rot,blue,b,0,,,,,,,,,0,5,5,2,,,,,253.5276796000544,,,,,,,,,,,,,,,,,253.50238870002795,254.70043049997184,255.50274759996682,255.4846321999794,,,,,,,,,,,,,,,,255.48468750005122,255.50274759996682,255.50274759996682,257.1028086999431,b,1,1.586158400052227,None,257.1040676999837,257.1267490000464,258.1131174999755,,,,,,,,,,,,,,,,,,,sub-154989,001,2024-03-13_18h51.58.866,stroop_test,2023.2.3,None,2024-03-13 18h52.18.263622 +0100,
,,,,gelb,yellow,g,1,,,,,,,,,0,6,6,11,,,,,258.1317121000029,,,,,,,,,,,,,,,,,258.1140240000095,259.3161947999615,260.1368332999991,260.11452379997354,,,,,,,,,,,,,,,,260.114559300011,260.1368332999991,260.1368332999991,262.2875355000142,g,1,2.144101900048554,None,262.28908180003054,262.31107040005736,263.2996636000462,,,,,,,,,,,,,,,,,,,sub-154989,001,2024-03-13_18h51.58.866,stroop_test,2023.2.3,None,2024-03-13 18h52.18.263622 +0100,
,,,,rot,red,r,1,,,,,,,,,0,7,7,0,,,,,263.3266896000132,,,,,,,,,,,,,,,,,263.3005858999677,263.6493222999852,264.47176350001246,264.44921550003346,,,,,,,,,,,,,,,,264.44925089995377,264.47176350001246,264.47176350001246,265.47607209999114,r,1,0.9893236999632791,None,265.4772098000394,265.50015039998107,266.4920551000396,,,,,,,,,,,,,,,,,,,sub-154989,001,2024-03-13_18h51.58.866,stroop_test,2023.2.3,None,2024-03-13 18h52.18.263622 +0100,
,,,,gelb,red,r,0,,,,,,,,,0,8,8,8,,,,,266.51044049998745,,,,,,,,,,,,,,,,,266.49301380000543,267.2828661999665,268.10131729999557,268.07956230000127,,,,,,,,,,,,,,,,268.07959760003723,268.10131729999557,268.10131729999557,268.94478919997346,r,1,0.8274787999689579,None,268.94606680003926,268.9663487999933,269.9580959000159,,,,,,,,,,,,,,,,,,,sub-154989,001,2024-03-13_18h51.58.866,stroop_test,2023.2.3,None,2024-03-13 18h52.18.263622 +0100,
,,,,gelb,yellow,g,1,,,,,,,,,0,9,9,10,,,,,269.9765596999787,,,,,,,,,,,,,,,,,269.9590307000326,271.16444039996713,271.9638277000049,271.9492319000419,,,,,,,,,,,,,,,,271.9492681999691,271.9638277000049,271.9638277000049,273.2844889999833,g,1,1.3081669999519363,None,273.2856377999997,273.30772249994334,274.2913558,,,,,,,,,,,,,,,,,,,sub-154989,001,2024-03-13_18h51.58.866,stroop_test,2023.2.3,None,2024-03-13 18h52.18.263622 +0100,
,,,,rot,red,r,1,,,,,,,,,0,10,10,1,,,,,274.3097885999596,,,,,,,,,,,,,,,,,274.2922659999458,274.3992102999473,275.23009399999864,275.2000178999733,,,,,,,,,,,,,,,,275.20007220003754,275.23009399999864,275.23009399999864,276.4498046999797,r,1,1.2063243000302464,None,276.45074620004743,276.46642239997163,277.4641185000073,,,,,,,,,,,,,,,,,,,sub-154989,001,2024-03-13_18h51.58.866,stroop_test,2023.2.3,None,2024-03-13 18h52.18.263622 +0100,
,,,,blau,red,r,0,,,,,,,,,0,11,11,4,,,,,277.4825940999435,,,,,,,,,,,,,,,,,277.46504979999736,278.6655438999878,279.497075399966,279.466895999969,,,,,,,,,,,,,,,,279.4669541999465,279.497075399966,279.497075399966,281.25266580004245,r,1,1.7514187999768183,None,281.2550852999557,281.27862490003463,282.25740640005097,,,,,,,,,,,,,,,,,,,sub-154989,001,2024-03-13_18h51.58.866,stroop_test,2023.2.3,None,2024-03-13 18h52.18.263622 +0100,
,,,,gelb,yellow,g,1,,,,,,,,,1,0,12,11,,,,,282.27576200000476,,,,,,,,,,,,,,,,,282.2582964999601,282.36533960001543,283.1798269000137,283.14967720001005,,,,,,,,,,,,,,,,283.1497325999662,283.1798269000137,283.1798269000137,284.5261542999651,g,1,1.324240899994038,None,284.5274078999646,284.5487046999624,285.5342337000184,,,,,,,,,,,,,,,,,,,sub-154989,001,2024-03-13_18h51.58.866,stroop_test,2023.2.3,None,2024-03-13 18h52.18.263622 +0100,
,,,,blau,blue,b,1,,,,,,,,,1,1,13,5,,,,,285.55089499999303,,,,,,,,,,,,,,,,,285.5365664999699,285.8805641999934,286.7162645000499,286.68559919996187,,,,,,,,,,,,,,,,286.68568959995173,286.7162645000499,286.7162645000499,287.9975200999761,b,1,1.2669432999100536,None,287.99832180002704,288.01589140004944,288.99908450001385,,,,,,,,,,,,,,,,,,,sub-154989,001,2024-03-13_18h51.58.866,stroop_test,2023.2.3,None,2024-03-13 18h52.18.263622 +0100,
,,,,rot,red,r,1,,,,,,,,,1,2,14,1,,,,,289.01334369997494,,,,,,,,,,,,,,,,,289.00002629996743,289.11263150000013,289.93242750002537,289.9024849999696,,,,,,,,,,,,,,,,289.9025655000005,289.93242750002537,289.93242750002537,291.43503599998076,r,1,1.4942367000039667,None,291.43622559995856,291.4568971999688,292.44823880004697,,,,,,,,,,,,,,,,,,,sub-154989,001,2024-03-13_18h51.58.866,stroop_test,2023.2.3,None,2024-03-13 18h52.18.263622 +0100,
,,,,rot,yellow,g,0,,,,,,,,,1,3,15,3,,,,,292.4622647999786,,,,,,,,,,,,,,,,,292.44918090000283,292.5449816000182,293.3551854999969,293.3325764000183,,,,,,,,,,,,,,,,293.33263189997524,293.3551854999969,293.3551854999969,294.6622215999523,r,0,1.290615399950184,None,294.663339599967,294.69875660003163,295.6636145999655,,,,,,,,,,,,,,,,,,,sub-154989,001,2024-03-13_18h51.58.866,stroop_test,2023.2.3,None,2024-03-13 18h52.18.263622 +0100,
,,,,gelb,yellow,g,1,,,,,,,,,1,4,16,10,,,,,295.68975589994807,,,,,,,,,,,,,,,,,295.6642098999582,296.4628313999856,297.29840840003453,297.26581739995163,,,,,,,,,,,,,,,,297.26589779998176,297.29840840003453,297.29840840003453,298.4047452999512,g,1,1.0962286998983473,None,298.40594530000817,298.44114430004265,299.40812719997484,,,,,,,,,,,,,,,,,,,sub-154989,001,2024-03-13_18h51.58.866,stroop_test,2023.2.3,None,2024-03-13 18h52.18.263622 +0100,
,,,,blau,blue,b,1,,,,,,,,,1,5,17,6,,,,,299.4260896999622,,,,,,,,,,,,,,,,,299.40868680004496,300.60848479997367,301.42977579997387,301.3987533999607,,,,,,,,,,,,,,,,301.39883550000377,301.42977579997387,301.42977579997387,303.56626919994596,b,1,2.1196125999558717,None,303.567450499977,303.5894267000258,304.5731519999681,,,,,,,,,,,,,,,,,,,sub-154989,001,2024-03-13_18h51.58.866,stroop_test,2023.2.3,None,2024-03-13 18h52.18.263622 +0100,
,,,,blau,red,r,0,,,,,,,,,1,6,18,4,,,,,304.59031690005213,,,,,,,,,,,,,,,,,304.5737409000285,304.6751576999668,305.4960802999558,305.47490869998,,,,,,,,,,,,,,,,305.4749634000473,305.4960802999558,305.4960802999558,306.8326125999447,r,1,1.319286399986595,None,306.8337575000478,306.8535879000556,307.8454525000416,,,,,,,,,,,,,,,,,,,sub-154989,001,2024-03-13_18h51.58.866,stroop_test,2023.2.3,None,2024-03-13 18h52.18.263622 +0100,
,,,,rot,blue,b,0,,,,,,,,,1,7,19,2,,,,,307.86251660005655,,,,,,,,,,,,,,,,,307.84609650005586,308.1936018000124,309.0143907000311,308.98564159998205,,,,,,,,,,,,,,,,308.98573840002064,309.0143907000311,309.0143907000311,310.14031799999066,b,1,1.1225285000400618,None,310.14146810001694,310.16324040002655,311.14251200004946,,,,,,,,,,,,,,,,,,,sub-154989,001,2024-03-13_18h51.58.866,stroop_test,2023.2.3,None,2024-03-13 18h52.18.263622 +0100,
,,,,gelb,red,r,0,,,,,,,,,1,8,20,8,,,,,311.16076819994487,,,,,,,,,,,,,,,,,311.1433694999432,311.2460754000349,312.06727210001554,312.04094099998474,,,,,,,,,,,,,,,,312.04097590001766,312.06727210001554,312.06727210001554,313.91600069997367,r,1,1.8299091999651864,None,313.91726559994277,313.9389513999922,314.93776220001746,,,,,,,,,,,,,,,,,,,sub-154989,001,2024-03-13_18h51.58.866,stroop_test,2023.2.3,None,2024-03-13 18h52.18.263622 +0100,
,,,,gelb,blue,b,0,,,,,,,,,1,9,21,9,,,,,314.9564249999821,,,,,,,,,,,,,,,,,314.9386994000524,315.72365950001404,316.5290636999998,316.5106949999463,,,,,,,,,,,,,,,,316.51072529994417,316.5290636999998,316.5290636999998,317.8458001000108,b,1,1.2874188999412581,None,317.8478019000031,317.86855530005414,318.86364650004543,,,,,,,,,,,,,,,,,,,sub-154989,001,2024-03-13_18h51.58.866,stroop_test,2023.2.3,None,2024-03-13 18h52.18.263622 +0100,
,,,,blau,yellow,g,0,,,,,,,,,1,10,22,7,,,,,318.8777952999808,,,,,,,,,,,,,,,,,318.8646932999836,319.6593931999523,320.4735337999882,320.4446068999823,,,,,,,,,,,,,,,,320.4446677999804,320.4735337999882,320.4735337999882,322.11277380003594,g,1,1.6147486000554636,None,322.1141091999598,322.13347210001666,323.114257200039,,,,,,,,,,,,,,,,,,,sub-154989,001,2024-03-13_18h51.58.866,stroop_test,2023.2.3,None,2024-03-13 18h52.18.263622 +0100,
,,,,rot,red,r,1,,,,,,,,,1,11,23,0,,,,,323.1398392999545,,,,,,,,,,,,,,,,,323.1151994999964,323.2293940000236,324.0505794000346,324.02819250000175,,,,,,,,,,,,,,,,324.0282319999533,324.0505794000346,324.0505794000346,325.3928332000505,r,1,1.3164028000319377,None,325.39419839996845,325.41363029996864,326.39626039995346,,,,,,,,,,,,,,,,,,,sub-154989,001,2024-03-13_18h51.58.866,stroop_test,2023.2.3,None,2024-03-13 18h52.18.263622 +0100,
,,,,,,,,,,,,,,,,,,,,,,,,,,,,,,,,,,,,,,,,,,,,,,,,,,,,,,,,,,,,,,,,,,,,,,,326.3964162999764,326.4198387999786,326.4198387999786,345.23140679998323,space,18.801049499888904,None,,,,,,,,,,,,sub-154989,001,2024-03-13_18h51.58.866,stroop_test,2023.2.3,None,2024-03-13 18h52.18.263622 +0100,
,,,,,,,,rot,red,r,1,,,,,,,,,0,0,0,1,345.2750417999923,,,,,,,,,,,,,,,,,345.260016300017,346.042407299974,346.8564802999608,346.8276739999419,,,,,,,,,,,,,,,,,,,,,,,,,,,,,,,,,,346.8277699999744,346.8564802999608,346.8564802999608,347.92350050003733,r,1,1.063979099970311,None,,,,sub-154989,001,2024-03-13_18h51.58.866,stroop_test,2023.2.3,None,2024-03-13 18h52.18.263622 +0100,
,,,,,,,,rot,red,r,1,,,,,,,,,0,1,1,0,347.9420450000325,,,,,,,,,,,,,,,,,347.9252850000048,348.28868150000926,349.11129080003593,349.0913900999585,,,,,,,,,,,,,,,,,,,,,,,,,,,,,,,,,,349.0914529999718,349.11129080003593,349.11129080003593,349.8640295000514,r,1,0.7370254999259487,None,,,,sub-154989,001,2024-03-13_18h51.58.866,stroop_test,2023.2.3,None,2024-03-13 18h52.18.263622 +0100,
,,,,,,,,blau,blue,b,1,,,,,,,,,0,2,2,5,349.88089519995265,,,,,,,,,,,,,,,,,349.86628469999414,350.67791610001586,351.49746800004505,351.4755050999811,,,,,,,,,,,,,,,,,,,,,,,,,,,,,,,,,,351.4755398000125,351.49746800004505,351.49746800004505,352.7061526000034,b,1,1.1883303000358865,None,,,,sub-154989,001,2024-03-13_18h51.58.866,stroop_test,2023.2.3,None,2024-03-13 18h52.18.263622 +0100,
,,,,,,,,gelb,yellow,g,1,,,,,,,,,0,3,3,10,352.72609490004834,,,,,,,,,,,,,,,,,352.7083309999434,352.8112464000005,353.6451011999743,353.61303250002675,,,,,,,,,,,,,,,,,,,,,,,,,,,,,,,,,,353.613115599961,353.6451011999743,353.6451011999743,354.8708459000336,g,1,1.2007896999130026,None,,,,sub-154989,001,2024-03-13_18h51.58.866,stroop_test,2023.2.3,None,2024-03-13 18h52.18.263622 +0100,
,,,,,,,,rot,yellow,g,0,,,,,,,,,0,4,4,3,354.89107460004743,,,,,,,,,,,,,,,,,354.87330830004066,355.2263372000307,356.0497020999901,356.02684579999186,,,,,,,,,,,,,,,,,,,,,,,,,,,,,,,,,,356.02688180003315,356.0497020999901,356.0497020999901,357.7228084000526,g,1,1.6688681000377983,None,,,,sub-154989,001,2024-03-13_18h51.58.866,stroop_test,2023.2.3,None,2024-03-13 18h52.18.263622 +0100,
,,,,,,,,blau,yellow,g,0,,,,,,,,,0,5,5,7,357.7446636999957,,,,,,,,,,,,,,,,,357.7251826999709,358.0915490000043,358.90685140003916,358.878109900048,,,,,,,,,,,,,,,,,,,,,,,,,,,,,,,,,,358.87816459999885,358.90685140003916,358.90685140003916,360.49941229994874,g,1,1.587903199950233,None,,,,sub-154989,001,2024-03-13_18h51.58.866,stroop_test,2023.2.3,None,2024-03-13 18h52.18.263622 +0100,
,,,,,,,,blau,red,r,0,,,,,,,,,0,6,6,4,360.5205109999515,,,,,,,,,,,,,,,,,360.50193000002764,360.8631827000063,361.6873965000268,361.66432059998624,,,,,,,,,,,,,,,,,,,,,,,,,,,,,,,,,,361.6644083999563,361.6873965000268,361.6873965000268,362.9962738000322,r,1,1.2894894999917597,None,,,,sub-154989,001,2024-03-13_18h51.58.866,stroop_test,2023.2.3,None,2024-03-13 18h52.18.263622 +0100,
,,,,,,,,gelb,red,r,0,,,,,,,,,0,7,7,8,363.01200430002064,,,,,,,,,,,,,,,,,362.9984486999456,363.10877229995094,363.9304399000248,363.9083822000539,,,,,,,,,,,,,,,,,,,,,,,,,,,,,,,,,,363.90842230001,363.9304399000248,363.9304399000248,364.74997480004095,r,1,0.8118555000983179,None,,,,sub-154989,001,2024-03-13_18h51.58.866,stroop_test,2023.2.3,None,2024-03-13 18h52.18.263622 +0100,
,,,,,,,,gelb,blue,b,0,,,,,,,,,0,8,8,9,364.77098150004167,,,,,,,,,,,,,,,,,364.752278800006,364.85883649997413,365.67713740002364,365.6575803000014,,,,,,,,,,,,,,,,,,,,,,,,,,,,,,,,,,365.6576693999814,365.67713740002364,365.67713740002364,367.29952160001267,b,1,1.6079187999712303,None,,,,sub-154989,001,2024-03-13_18h51.58.866,stroop_test,2023.2.3,None,2024-03-13 18h52.18.263622 +0100,
,,,,,,,,gelb,yellow,g,1,,,,,,,,,0,9,9,11,367.3189084000187,,,,,,,,,,,,,,,,,367.30083540000487,367.6537516999524,368.46200119995046,368.4448269000277,,,,,,,,,,,,,,,,,,,,,,,,,,,,,,,,,,368.44488700001966,368.46200119995046,368.46200119995046,370.537750700023,g,1,2.05172460002359,None,,,,sub-154989,001,2024-03-13_18h51.58.866,stroop_test,2023.2.3,None,2024-03-13 18h52.18.263622 +0100,
,,,,,,,,blau,blue,b,1,,,,,,,,,0,10,10,6,370.5578038999811,,,,,,,,,,,,,,,,,370.53995160001796,370.6434835999971,371.45980730000883,371.4372991999844,,,,,,,,,,,,,,,,,,,,,,,,,,,,,,,,,,371.43733450002037,371.45980730000883,371.45980730000883,373.017076899996,b,1,1.5419153000693768,None,,,,sub-154989,001,2024-03-13_18h51.58.866,stroop_test,2023.2.3,None,2024-03-13 18h52.18.263622 +0100,
,,,,,,,,rot,blue,b,0,,,,,,,,,0,11,11,2,373.03767540003173,,,,,,,,,,,,,,,,,373.01913839997724,374.2255797999678,375.04383360000793,375.0114670000039,,,,,,,,,,,,,,,,,,,,,,,,,,,,,,,,,,375.01152920001186,375.04383360000793,375.04383360000793,375.71038389997557,b,1,0.6499647999880835,None,,,,sub-154989,001,2024-03-13_18h51.58.866,stroop_test,2023.2.3,None,2024-03-13 18h52.18.263622 +0100,
,,,,,,,,gelb,yellow,g,1,,,,,,,,,1,0,12,10,375.7253620000556,,,,,,,,,,,,,,,,,375.71192929998506,376.9264977000421,377.74927959998604,377.7209409000352,,,,,,,,,,,,,,,,,,,,,,,,,,,,,,,,,,377.72102089994587,377.74927959998604,377.74927959998604,379.1812605999876,g,1,1.4248958000680432,None,,,,sub-154989,001,2024-03-13_18h51.58.866,stroop_test,2023.2.3,None,2024-03-13 18h52.18.263622 +0100,
,,,,,,,,rot,red,r,1,,,,,,,,,1,1,13,0,379.2002708000364,,,,,,,,,,,,,,,,,379.1829193000449,380.38661000004504,381.21817939996254,381.1890980999451,,,,,,,,,,,,,,,,,,,,,,,,,,,,,,,,,,381.18915880005807,381.21817939996254,381.21817939996254,382.7029925000388,r,1,1.4634557999670506,None,,,,sub-154989,001,2024-03-13_18h51.58.866,stroop_test,2023.2.3,None,2024-03-13 18h52.18.263622 +0100,
,,,,,,,,blau,blue,b,1,,,,,,,,,1,2,14,6,382.72256040002685,,,,,,,,,,,,,,,,,382.705015799962,382.80844819999766,383.6285918999929,383.60570349998306,,,,,,,,,,,,,,,,,,,,,,,,,,,,,,,,,,383.60574180004187,383.6285918999929,383.6285918999929,384.8890678000171,b,1,1.245068799937144,None,,,,sub-154989,001,2024-03-13_18h51.58.866,stroop_test,2023.2.3,None,2024-03-13 18h52.18.263622 +0100,
,,,,,,,,blau,red,r,0,,,,,,,,,1,3,15,4,384.91126810002606,,,,,,,,,,,,,,,,,384.89103259996045,385.0092101000482,385.8257218999788,385.8066168000223,,,,,,,,,,,,,,,,,,,,,,,,,,,,,,,,,,385.8066713999724,385.8257218999788,385.8257218999788,388.1776857000077,r,1,2.3465265999548137,None,,,,sub-154989,001,2024-03-13_18h51.58.866,stroop_test,2023.2.3,None,2024-03-13 18h52.18.263622 +0100,
,,,,,,,,gelb,blue,b,0,,,,,,,,,1,4,16,9,388.1999444999965,,,,,,,,,,,,,,,,,388.18074970005546,388.5403629000066,389.36660059995484,389.3368733000243,,,,,,,,,,,,,,,,,,,,,,,,,,,,,,,,,,389.3369372000452,389.36660059995484,389.36660059995484,390.9998018000042,b,1,1.6217358999419957,None,,,,sub-154989,001,2024-03-13_18h51.58.866,stroop_test,2023.2.3,None,2024-03-13 18h52.18.263622 +0100,
,,,,,,,,rot,red,r,1,,,,,,,,,1,5,17,1,391.0208815999795,,,,,,,,,,,,,,,,,391.0019665999571,392.2081414000131,393.0224769000197,392.9933607999701,,,,,,,,,,,,,,,,,,,,,,,,,,,,,,,,,,392.9934218999697,393.0224769000197,393.0224769000197,394.3444464999484,r,1,1.3176976999966428,None,,,,sub-154989,001,2024-03-13_18h51.58.866,stroop_test,2023.2.3,None,2024-03-13 18h52.18.263622 +0100,
,,,,,,,,gelb,yellow,g,1,,,,,,,,,1,6,18,11,394.36107960005756,,,,,,,,,,,,,,,,,394.34654880000744,394.7218063999899,395.52864369994495,395.5061438999837,,,,,,,,,,,,,,,,,,,,,,,,,,,,,,,,,,395.5061789000174,395.52864369994495,395.52864369994495,397.2460743000265,g,1,1.7117289999732748,None,,,,sub-154989,001,2024-03-13_18h51.58.866,stroop_test,2023.2.3,None,2024-03-13 18h52.18.263622 +0100,
,,,,,,,,blau,yellow,g,0,,,,,,,,,1,7,19,7,397.2673791999696,,,,,,,,,,,,,,,,,397.248767400044,397.35840180004016,398.1892202999443,398.15945369994733,,,,,,,,,,,,,,,,,,,,,,,,,,,,,,,,,,398.1595152999507,398.1892202999443,398.1892202999443,399.3908292000415,g,1,1.1987211999949068,None,,,,sub-154989,001,2024-03-13_18h51.58.866,stroop_test,2023.2.3,None,2024-03-13 18h52.18.263622 +0100,
,,,,,,,,rot,yellow,g,0,,,,,,,,,1,8,20,3,399.4068902999861,,,,,,,,,,,,,,,,,399.392145800055,399.5018261000514,400.32476710004266,400.292282099952,,,,,,,,,,,,,,,,,,,,,,,,,,,,,,,,,,400.29234329995234,400.32476710004266,400.32476710004266,401.1367983999662,g,1,0.7994935000315309,None,,,,sub-154989,001,2024-03-13_18h51.58.866,stroop_test,2023.2.3,None,2024-03-13 18h52.18.263622 +0100,
,,,,,,,,rot,blue,b,0,,,,,,,,,1,9,21,2,401.15758620004635,,,,,,,,,,,,,,,,,401.13905440003145,401.241430999944,402.0678877000464,402.0477921999991,,,,,,,,,,,,,,,,,,,,,,,,,,,,,,,,,,402.0478422000306,402.0678877000464,402.0678877000464,405.17004430003,b,1,3.0968782000709325,None,,,,sub-154989,001,2024-03-13_18h51.58.866,stroop_test,2023.2.3,None,2024-03-13 18h52.18.263622 +0100,
,,,,,,,,blau,blue,b,1,,,,,,,,,1,10,22,5,405.1903284,,,,,,,,,,,,,,,,,405.17199439997785,405.5237172000343,406.3421643000329,406.3117836000165,,,,,,,,,,,,,,,,,,,,,,,,,,,,,,,,,,406.31184840004425,406.3421643000329,406.3421643000329,407.1102814000333,b,1,0.7655531000345945,None,,,,sub-154989,001,2024-03-13_18h51.58.866,stroop_test,2023.2.3,None,2024-03-13 18h52.18.263622 +0100,
,,,,,,,,gelb,red,r,0,,,,,,,,,1,11,23,8,407.12470229994506,,,,,,,,,,,,,,,,,407.1115991000552,407.9183868999826,408.73982080002315,408.7170712000225,,,,,,,,,,,,,,,,,,,,,,,,,,,,,,,,,,408.71711279999,408.73982080002315,408.73982080002315,410.1868660999462,r,1,1.4249096000567079,None,,,,sub-154989,001,2024-03-13_18h51.58.866,stroop_test,2023.2.3,None,2024-03-13 18h52.18.263622 +0100,
,,,,,,,,rot,yellow,g,0,,,,,,,,,2,0,24,3,410.2067910999758,,,,,,,,,,,,,,,,,410.1890932000242,410.9914158999454,411.8121036000084,411.7899778999854,,,,,,,,,,,,,,,,,,,,,,,,,,,,,,,,,,411.7900154000381,411.8121036000084,411.8121036000084,413.9925493999617,g,1,2.1748603999149054,None,,,,sub-154989,001,2024-03-13_18h51.58.866,stroop_test,2023.2.3,None,2024-03-13 18h52.18.263622 +0100,
,,,,,,,,gelb,yellow,g,1,,,,,,,,,2,1,25,10,414.0085718999617,,,,,,,,,,,,,,,,,413.99450419994537,414.3574267999502,415.1810310999863,415.1570202000439,,,,,,,,,,,,,,,,,,,,,,,,,,,,,,,,,,415.15705659997184,415.1810310999863,415.1810310999863,416.37570520001464,g,1,1.1865250000264496,None,,,,sub-154989,001,2024-03-13_18h51.58.866,stroop_test,2023.2.3,None,2024-03-13 18h52.18.263622 +0100,
,,,,,,,,blau,blue,b,1,,,,,,,,,2,2,26,6,416.39200079999864,,,,,,,,,,,,,,,,,416.3777610999532,416.4903599000536,417.31740739999805,417.28898269997444,,,,,,,,,,,,,,,,,,,,,,,,,,,,,,,,,,417.28904579998925,417.31740739999805,417.31740739999805,418.9085702999728,b,1,1.5804605999728665,None,,,,sub-154989,001,2024-03-13_18h51.58.866,stroop_test,2023.2.3,None,2024-03-13 18h52.18.263622 +0100,
,,,,,,,,gelb,blue,b,0,,,,,,,,,2,3,27,9,418.9245012999745,,,,,,,,,,,,,,,,,418.91067440004554,419.01913549995515,419.83529620000627,419.8072206999641,,,,,,,,,,,,,,,,,,,,,,,,,,,,,,,,,,419.8072558999993,419.83529620000627,419.83529620000627,420.57333769998513,b,1,0.724536299938336,None,,,,sub-154989,001,2024-03-13_18h51.58.866,stroop_test,2023.2.3,None,2024-03-13 18h52.18.263622 +0100,
,,,,,,,,gelb,yellow,g,1,,,,,,,,,2,4,28,11,420.5918074999936,,,,,,,,,,,,,,,,,420.57522740005516,420.69103069999255,421.5087127999868,421.49159770004917,,,,,,,,,,,,,,,,,,,,,,,,,,,,,,,,,,421.491660199943,421.5087127999868,421.5087127999868,422.85671329998877,g,1,1.3249340999173,None,,,,sub-154989,001,2024-03-13_18h51.58.866,stroop_test,2023.2.3,None,2024-03-13 18h52.18.263622 +0100,
,,,,,,,,rot,red,r,1,,,,,,,,,2,5,29,0,422.8738609000575,,,,,,,,,,,,,,,,,422.85889519995544,423.67130329995416,424.48997090000194,424.45813589997124,,,,,,,,,,,,,,,,,,,,,,,,,,,,,,,,,,424.45821239997167,424.48997090000194,424.48997090000194,425.7224863000447,r,1,1.226165600004606,None,,,,sub-154989,001,2024-03-13_18h51.58.866,stroop_test,2023.2.3,None,2024-03-13 18h52.18.263622 +0100,
,,,,,,,,rot,blue,b,0,,,,,,,,,2,6,30,2,425.74049660004675,,,,,,,,,,,,,,,,,425.7247476000339,426.08992719999515,426.9050782000413,426.8840565000428,,,,,,,,,,,,,,,,,,,,,,,,,,,,,,,,,,426.8841300000204,426.9050782000413,426.9050782000413,429.09526730002835,b,1,2.1690293999854475,None,,,,sub-154989,001,2024-03-13_18h51.58.866,stroop_test,2023.2.3,None,2024-03-13 18h52.18.263622 +0100,
,,,,,,,,blau,blue,b,1,,,,,,,,,2,7,31,5,429.11537340003997,,,,,,,,,,,,,,,,,429.0977369999746,429.9063297000248,430.72847930004355,430.69994069996756,,,,,,,,,,,,,,,,,,,,,,,,,,,,,,,,,,430.70000309997704,430.72847930004355,430.72847930004355,431.8547670999542,b,1,1.121970699983649,None,,,,sub-154989,001,2024-03-13_18h51.58.866,stroop_test,2023.2.3,None,2024-03-13 18h52.18.263622 +0100,
,,,,,,,,blau,red,r,0,,,,,,,,,2,8,32,4,431.8714360999875,,,,,,,,,,,,,,,,,431.856100999983,431.97154279996175,432.7885995999677,432.76791639998555,,,,,,,,,,,,,,,,,,,,,,,,,,,,,,,,,,432.7679717000574,432.7885995999677,432.7885995999677,434.7619504999602,r,1,1.9532901999773458,None,,,,sub-154989,001,2024-03-13_18h51.58.866,stroop_test,2023.2.3,None,2024-03-13 18h52.18.263622 +0100,
,,,,,,,,blau,yellow,g,0,,,,,,,,,2,9,33,7,434.78220639994834,,,,,,,,,,,,,,,,,434.76416070002597,435.1168434000574,435.9210189000005,435.9058791999705,,,,,,,,,,,,,,,,,,,,,,,,,,,,,,,,,,435.90592980000656,435.9210189000005,435.9210189000005,436.94091010000557,g,1,1.0089006999041885,None,,,,sub-154989,001,2024-03-13_18h51.58.866,stroop_test,2023.2.3,None,2024-03-13 18h52.18.263622 +0100,
,,,,,,,,rot,red,r,1,,,,,,,,,2,10,34,1,436.9580344000133,,,,,,,,,,,,,,,,,436.94296180002857,437.7523810999701,438.5725010000169,438.54019820003305,,,,,,,,,,,,,,,,,,,,,,,,,,,,,,,,,,438.54025369999,438.5725010000169,438.5725010000169,439.9058071000036,r,1,1.3142441000090912,None,,,,sub-154989,001,2024-03-13_18h51.58.866,stroop_test,2023.2.3,None,2024-03-13 18h52.18.263622 +0100,
,,,,,,,,gelb,red,r,0,,,,,,,,,2,11,35,8,439.9239947999595,,,,,,,,,,,,,,,,,439.9082770999521,440.7363390000537,441.5648509999737,441.5357505000429,,,,,,,,,,,,,,,,,,,,,,,,,,,,,,,,,,441.5358113000402,441.5648509999737,441.5648509999737,443.03707740001846,r,1,1.4499048000434414,None,,,,sub-154989,001,2024-03-13_18h51.58.866,stroop_test,2023.2.3,None,2024-03-13 18h52.18.263622 +0100,
,,,,,,,,rot,red,r,1,,,,,,,,,3,0,36,0,443.0541037999792,,,,,,,,,,,,,,,,,443.03838479996193,443.8499875999987,444.6695278000552,444.6400181000354,,,,,,,,,,,,,,,,,,,,,,,,,,,,,,,,,,444.6400781000266,444.6695278000552,444.6695278000552,445.33262620004825,r,1,0.645207199966535,None,,,,sub-154989,001,2024-03-13_18h51.58.866,stroop_test,2023.2.3,None,2024-03-13 18h52.18.263622 +0100,
,,,,,,,,rot,red,r,1,,,,,,,,,3,1,37,1,445.3533430000534,,,,,,,,,,,,,,,,,445.33489649998955,446.5519927999703,447.37065249995794,447.35320480004884,,,,,,,,,,,,,,,,,,,,,,,,,,,,,,,,,,447.3532397999661,447.37065249995794,447.37065249995794,448.3084620999871,r,1,0.9280154999578372,None,,,,sub-154989,001,2024-03-13_18h51.58.866,stroop_test,2023.2.3,None,2024-03-13 18h52.18.263622 +0100,
,,,,,,,,rot,yellow,g,0,,,,,,,,,3,2,38,3,448.33019799995236,,,,,,,,,,,,,,,,,448.3115040999837,448.42138610000256,449.23035139997955,449.2072841000045,,,,,,,,,,,,,,,,,,,,,,,,,,,,,,,,,,449.2073456000071,449.23035139997955,449.23035139997955,451.89160360000096,g,1,2.644228999968618,None,,,,sub-154989,001,2024-03-13_18h51.58.866,stroop_test,2023.2.3,None,2024-03-13 18h52.18.263622 +0100,
,,,,,,,,gelb,blue,b,0,,,,,,,,,3,3,39,9,451.90594349999446,,,,,,,,,,,,,,,,,451.8928762000287,452.69804739998654,453.5091236999724,453.4865159000037,,,,,,,,,,,,,,,,,,,,,,,,,,,,,,,,,,453.4865532000549,453.5091236999724,453.5091236999724,454.77774259995203,b,1,1.2439823000459,None,,,,sub-154989,001,2024-03-13_18h51.58.866,stroop_test,2023.2.3,None,2024-03-13 18h52.18.263622 +0100,
,,,,,,,,gelb,yellow,g,1,,,,,,,,,3,4,40,10,454.7968252999708,,,,,,,,,,,,,,,,,454.779010899947,454.8821872000117,455.68749909999315,455.6702241000021,,,,,,,,,,,,,,,,,,,,,,,,,,,,,,,,,,455.6702712000115,455.68749909999315,455.68749909999315,457.6584051999962,g,1,1.96091229992453,None,,,,sub-154989,001,2024-03-13_18h51.58.866,stroop_test,2023.2.3,None,2024-03-13 18h52.18.263622 +0100,
,,,,,,,,blau,yellow,g,0,,,,,,,,,3,5,41,7,457.6803473000182,,,,,,,,,,,,,,,,,457.6615990999853,457.7713979999535,458.5888466000324,458.5565777999582,,,,,,,,,,,,,,,,,,,,,,,,,,,,,,,,,,458.55663250002544,458.5888466000324,458.5888466000324,459.73488220002037,g,1,1.1442717999452725,None,,,,sub-154989,001,2024-03-13_18h51.58.866,stroop_test,2023.2.3,None,2024-03-13 18h52.18.263622 +0100,
,,,,,,,,blau,blue,b,1,,,,,,,,,3,6,42,5,459.75296980002895,,,,,,,,,,,,,,,,,459.7362743000267,460.10398709995206,460.921285700053,460.9012400000356,,,,,,,,,,,,,,,,,,,,,,,,,,,,,,,,,,460.9013022000436,460.921285700053,460.921285700053,462.2389474000083,b,1,1.3062867999542505,None,,,,sub-154989,001,2024-03-13_18h51.58.866,stroop_test,2023.2.3,None,2024-03-13 18h52.18.263622 +0100,
,,,,,,,,blau,blue,b,1,,,,,,,,,3,7,43,6,462.2565781000303,,,,,,,,,,,,,,,,,462.2417955000419,462.3548543000361,463.1680155999493,463.1494372000452,,,,,,,,,,,,,,,,,,,,,,,,,,,,,,,,,,463.1494726999663,463.1680155999493,463.1680155999493,463.81188509997446,b,1,0.633824500022456,None,,,,sub-154989,001,2024-03-13_18h51.58.866,stroop_test,2023.2.3,None,2024-03-13 18h52.18.263622 +0100,
,,,,,,,,rot,blue,b,0,,,,,,,,,3,8,44,2,463.833446500008,,,,,,,,,,,,,,,,,463.8141858000308,463.920681699994,464.7373707999941,464.7083145000506,,,,,,,,,,,,,,,,,,,,,,,,,,,,,,,,,,464.70838810002897,464.7373707999941,464.7373707999941,465.8963076999644,b,1,1.1531045999145135,None,,,,sub-154989,001,2024-03-13_18h51.58.866,stroop_test,2023.2.3,None,2024-03-13 18h52.18.263622 +0100,
,,,,,,,,gelb,red,r,0,,,,,,,,,3,9,45,8,465.9175580999581,,,,,,,,,,,,,,,,,465.89871029998176,466.69913299998734,467.5261101999786,467.499216599972,,,,,,,,,,,,,,,,,,,,,,,,,,,,,,,,,,467.4992667000042,467.5261101999786,467.5261101999786,468.58152320003137,r,1,1.0524507999652997,None,,,,sub-154989,001,2024-03-13_18h51.58.866,stroop_test,2023.2.3,None,2024-03-13 18h52.18.263622 +0100,
,,,,,,,,blau,red,r,0,,,,,,,,,3,10,46,4,468.60191740002483,,,,,,,,,,,,,,,,,468.58355940005276,469.3908515999792,470.2171269999817,470.1816866999725,,,,,,,,,,,,,,,,,,,,,,,,,,,,,,,,,,470.18174140003975,470.2171269999817,470.2171269999817,470.8406002999982,r,1,0.6097596999024972,None,,,,sub-154989,001,2024-03-13_18h51.58.866,stroop_test,2023.2.3,None,2024-03-13 18h52.18.263622 +0100,
,,,,,,,,gelb,yellow,g,1,,,,,,,,,3,11,47,11,470.8630219999468,,,,,,,,,,,,,,,,,470.84371649997775,472.04852660000324,472.87576149997767,472.8482427999843,,,,,,,,,,,,,,,,,,,,,,,,,,,,,,,,,,472.84829750005156,472.87576149997767,472.87576149997767,475.09917920001317,g,1,2.19771950005088,None,,,,sub-154989,001,2024-03-13_18h51.58.866,stroop_test,2023.2.3,None,2024-03-13 18h52.18.263622 +0100,
,,,,,,,,blau,blue,b,1,,,,,,,,,4,0,48,5,475.12020340003073,,,,,,,,,,,,,,,,,475.10224929999094,475.2021280999761,476.01875549997203,475.9867381999502,,,,,,,,,,,,,,,,,,,,,,,,,,,,,,,,,,475.9867933000205,476.01875549997203,476.01875549997203,477.2234943000367,b,1,1.1962931000161916,None,,,,sub-154989,001,2024-03-13_18h51.58.866,stroop_test,2023.2.3,None,2024-03-13 18h52.18.263622 +0100,
,,,,,,,,gelb,yellow,g,1,,,,,,,,,4,1,49,10,477.24452760000713,,,,,,,,,,,,,,,,,477.22629739996046,478.03678249998484,478.8583020999795,478.82889480004087,,,,,,,,,,,,,,,,,,,,,,,,,,,,,,,,,,478.8289555000374,478.8583020999795,478.8583020999795,480.5235406999709,g,1,1.6619266000343487,None,,,,sub-154989,001,2024-03-13_18h51.58.866,stroop_test,2023.2.3,None,2024-03-13 18h52.18.263622 +0100,
,,,,,,,,rot,red,r,1,,,,,,,,,4,2,50,0,480.54524899995886,,,,,,,,,,,,,,,,,480.5262309999671,481.3339741999516,482.162673200015,482.1345415000105,,,,,,,,,,,,,,,,,,,,,,,,,,,,,,,,,,482.13464149995707,482.162673200015,482.162673200015,483.22986399999354,r,1,1.0536938000004739,None,,,,sub-154989,001,2024-03-13_18h51.58.866,stroop_test,2023.2.3,None,2024-03-13 18h52.18.263622 +0100,
,,,,,,,,blau,red,r,0,,,,,,,,,4,3,51,4,483.24771839997265,,,,,,,,,,,,,,,,,483.231140900054,484.4359728000127,485.2531879999442,485.22248150000814,,,,,,,,,,,,,,,,,,,,,,,,,,,,,,,,,,485.2225865999935,485.2531879999442,485.2531879999442,485.9565119999461,r,1,0.6906600999645889,None,,,,sub-154989,001,2024-03-13_18h51.58.866,stroop_test,2023.2.3,None,2024-03-13 18h52.18.263622 +0100,
,,,,,,,,rot,red,r,1,,,,,,,,,4,4,52,1,485.97849200002383,,,,,,,,,,,,,,,,,485.9596708000172,486.7823800999904,487.6019043000415,487.58018429996446,,,,,,,,,,,,,,,,,,,,,,,,,,,,,,,,,,487.5802201000042,487.6019043000415,487.6019043000415,488.2046605000505,r,1,0.5946676000021398,None,,,,sub-154989,001,2024-03-13_18h51.58.866,stroop_test,2023.2.3,None,2024-03-13 18h52.18.263622 +0100,
,,,,,,,,blau,yellow,g,0,,,,,,,,,4,5,53,7,488.2264550999971,,,,,,,,,,,,,,,,,488.2075132000027,489.0190417000558,489.83620559994597,489.8041282000486,,,,,,,,,,,,,,,,,,,,,,,,,,,,,,,,,,489.8041911999462,489.83620559994597,489.83620559994597,491.02034120005555,g,1,1.1654358999803662,None,,,,sub-154989,001,2024-03-13_18h51.58.866,stroop_test,2023.2.3,None,2024-03-13 18h52.18.263622 +0100,
,,,,,,,,blau,blue,b,1,,,,,,,,,4,6,54,6,491.0343163999496,,,,,,,,,,,,,,,,,491.02181129995733,491.13495540001895,491.952077700058,491.9353843999561,,,,,,,,,,,,,,,,,,,,,,,,,,,,,,,,,,491.93543129996397,491.952077700058,491.952077700058,493.2923070000252,b,1,1.3348801999818534,None,,,,sub-154989,001,2024-03-13_18h51.58.866,stroop_test,2023.2.3,None,2024-03-13 18h52.18.263622 +0100,
,,,,,,,,gelb,red,r,0,,,,,,,,,4,7,55,8,493.3128039999865,,,,,,,,,,,,,,,,,493.2943758999463,493.4020101999631,494.23605820001103,494.20472819998395,,,,,,,,,,,,,,,,,,,,,,,,,,,,,,,,,,494.20479420002084,494.23605820001103,494.23605820001103,495.5984319000272,r,1,1.3506695000687614,None,,,,sub-154989,001,2024-03-13_18h51.58.866,stroop_test,2023.2.3,None,2024-03-13 18h52.18.263622 +0100,
,,,,,,,,rot,yellow,g,0,,,,,,,,,4,8,56,3,495.6177575000329,,,,,,,,,,,,,,,,,495.5998091000365,495.7015871000476,496.51909129996784,496.48983940004837,,,,,,,,,,,,,,,,,,,,,,,,,,,,,,,,,,496.48992349999025,496.51909129996784,496.51909129996784,497.6710575999459,g,1,1.1472310000099242,None,,,,sub-154989,001,2024-03-13_18h51.58.866,stroop_test,2023.2.3,None,2024-03-13 18h52.18.263622 +0100,
,,,,,,,,gelb,yellow,g,1,,,,,,,,,4,9,57,11,497.687453999999,,,,,,,,,,,,,,,,,497.6731640000362,498.88711080001667,499.7054011999862,499.68325989996083,,,,,,,,,,,,,,,,,,,,,,,,,,,,,,,,,,499.68329479999375,499.7054011999862,499.7054011999862,500.4706112999702,g,1,0.7568182999966666,None,,,,sub-154989,001,2024-03-13_18h51.58.866,stroop_test,2023.2.3,None,2024-03-13 18h52.18.263622 +0100,
,,,,,,,,gelb,blue,b,0,,,,,,,,,4,10,58,9,500.4879629999632,,,,,,,,,,,,,,,,,500.47346310003195,500.8355527999811,501.6548593000043,501.6355400000466,,,,,,,,,,,,,,,,,,,,,,,,,,,,,,,,,,501.63560150004923,501.6548593000043,501.6548593000043,503.01578450005036,b,1,1.3487654000055045,None,,,,sub-154989,001,2024-03-13_18h51.58.866,stroop_test,2023.2.3,None,2024-03-13 18h52.18.263622 +0100,
,,,,,,,,rot,blue,b,0,,,,,,,,,4,11,59,2,503.0337838999694,,,,,,,,,,,,,,,,,503.0170772999991,504.23501049994957,505.0605822999496,505.031727100024,,,,,,,,,,,,,,,,,,,,,,,,,,,,,,,,,,505.0317879000213,505.0605822999496,505.0605822999496,506.08786359999795,b,1,1.016934199957177,None,,,,sub-154989,001,2024-03-13_18h51.58.866,stroop_test,2023.2.3,None,2024-03-13 18h52.18.263622 +0100,
,,,,,,,,gelb,blue,b,0,,,,,,,,,5,0,60,9,506.104340699967,,,,,,,,,,,,,,,,,506.09013699996285,506.8970055000391,507.7209811999928,507.69625409995206,,,,,,,,,,,,,,,,,,,,,,,,,,,,,,,,,,507.6963086000178,507.7209811999928,507.7209811999928,508.27944079996087,b,1,0.5515647999709472,None,,,,sub-154989,001,2024-03-13_18h51.58.866,stroop_test,2023.2.3,None,2024-03-13 18h52.18.263622 +0100,
,,,,,,,,blau,blue,b,1,,,,,,,,,5,1,61,6,508.3023433999624,,,,,,,,,,,,,,,,,508.28174070001114,508.3834286000347,509.20164420001674,509.17063479998615,,,,,,,,,,,,,,,,,,,,,,,,,,,,,,,,,,509.1706994000124,509.20164420001674,509.20164420001674,509.7632048999658,b,1,0.5534259000560269,None,,,,sub-154989,001,2024-03-13_18h51.58.866,stroop_test,2023.2.3,None,2024-03-13 18h52.18.263622 +0100,
,,,,,,,,blau,red,r,0,,,,,,,,,5,2,62,4,509.78471519995946,,,,,,,,,,,,,,,,,509.7654811999528,510.13362500001676,510.948761299951,510.9303219000576,,,,,,,,,,,,,,,,,,,,,,,,,,,,,,,,,,510.93035699997563,510.948761299951,510.948761299951,511.93759530002717,r,1,0.9776521000312641,None,,,,sub-154989,001,2024-03-13_18h51.58.866,stroop_test,2023.2.3,None,2024-03-13 18h52.18.263622 +0100,
,,,,,,,,gelb,yellow,g,1,,,,,,,,,5,3,63,10,511.95435540005565,,,,,,,,,,,,,,,,,511.9398928999435,512.7497854999965,513.5678005999653,513.5370815000497,,,,,,,,,,,,,,,,,,,,,,,,,,,,,,,,,,513.537169600022,513.5678005999653,513.5678005999653,514.651511300006,g,1,1.0770466999383643,None,,,,sub-154989,001,2024-03-13_18h51.58.866,stroop_test,2023.2.3,None,2024-03-13 18h52.18.263622 +0100,
,,,,,,,,blau,blue,b,1,,,,,,,,,5,4,64,5,514.6699006999843,,,,,,,,,,,,,,,,,514.6541257000063,514.7666401000461,515.5886051000562,515.5663856000174,,,,,,,,,,,,,,,,,,,,,,,,,,,,,,,,,,515.5664215999423,515.5886051000562,515.5886051000562,517.2840743999695,b,1,1.6865398000227287,None,,,,sub-154989,001,2024-03-13_18h51.58.866,stroop_test,2023.2.3,None,2024-03-13 18h52.18.263622 +0100,
,,,,,,,,rot,blue,b,0,,,,,,,,,5,5,65,2,517.3025996000506,,,,,,,,,,,,,,,,,517.2862640999956,517.4015800999478,518.2332650000462,518.202575400006,,,,,,,,,,,,,,,,,,,,,,,,,,,,,,,,,,518.202635900001,518.2332650000462,518.2332650000462,519.1176157000009,b,1,0.8822150999912992,None,,,,sub-154989,001,2024-03-13_18h51.58.866,stroop_test,2023.2.3,None,2024-03-13 18h52.18.263622 +0100,
,,,,,,,,rot,red,r,1,,,,,,,,,5,6,66,0,519.1338151999516,,,,,,,,,,,,,,,,,519.1189063000493,519.9345831000246,520.7519352999516,520.7332595000044,,,,,,,,,,,,,,,,,,,,,,,,,,,,,,,,,,520.7333212000085,520.7519352999516,520.7519352999516,521.7891048999736,r,1,1.0103875000495464,None,,,,sub-154989,001,2024-03-13_18h51.58.866,stroop_test,2023.2.3,None,2024-03-13 18h52.18.263622 +0100,
,,,,,,,,gelb,yellow,g,1,,,,,,,,,5,7,67,11,521.8121118999552,,,,,,,,,,,,,,,,,521.7914405999472,522.6008411999792,523.4193356999895,523.3975195999956,,,,,,,,,,,,,,,,,,,,,,,,,,,,,,,,,,523.3975563000422,523.4193356999895,523.4193356999895,524.5363183999434,g,1,1.0950453999685124,None,,,,sub-154989,001,2024-03-13_18h51.58.866,stroop_test,2023.2.3,None,2024-03-13 18h52.18.263622 +0100,
,,,,,,,,rot,red,r,1,,,,,,,,,5,8,68,1,524.5522642999422,,,,,,,,,,,,,,,,,524.5388390000444,524.6503091000486,525.4814750000369,525.4509409000166,,,,,,,,,,,,,,,,,,,,,,,,,,,,,,,,,,525.4510197000345,525.4814750000369,525.4814750000369,526.4034248000244,r,1,0.9080240000039339,None,,,,sub-154989,001,2024-03-13_18h51.58.866,stroop_test,2023.2.3,None,2024-03-13 18h52.18.263622 +0100,
,,,,,,,,blau,yellow,g,0,,,,,,,,,5,9,69,7,526.4253872999689,,,,,,,,,,,,,,,,,526.4065622000489,526.5173863000236,527.3410842999583,527.3168350999476,,,,,,,,,,,,,,,,,,,,,,,,,,,,,,,,,,527.3168715999927,527.3410842999583,527.3410842999583,529.3196301000426,g,1,1.9628865999402478,None,,,,sub-154989,001,2024-03-13_18h51.58.866,stroop_test,2023.2.3,None,2024-03-13 18h52.18.263622 +0100,
,,,,,,,,gelb,red,r,0,,,,,,,,,5,10,70,8,529.336559999967,,,,,,,,,,,,,,,,,529.3218073999742,529.6969944000011,530.5174472000217,530.4880775000202,,,,,,,,,,,,,,,,,,,,,,,,,,,,,,,,,,530.488167500007,530.5174472000217,530.5174472000217,531.8864065000089,r,1,1.3657060000114143,None,,,,sub-154989,001,2024-03-13_18h51.58.866,stroop_test,2023.2.3,None,2024-03-13 18h52.18.263622 +0100,
,,,,,,,,rot,yellow,g,0,,,,,,,,,5,11,71,3,531.906897900044,,,,,,,,,,,,,,,,,531.8886650999775,531.9971944000572,532.814525200054,532.7845706000226,,,,,,,,,,,,,,,,,,,,,,,,,,,,,,,,,,532.7846270999871,532.814525200054,532.814525200054,533.9186442999635,g,1,1.0825862999772653,None,,,,sub-154989,001,2024-03-13_18h51.58.866,stroop_test,2023.2.3,None,2024-03-13 18h52.18.263622 +0100,
,,,,,,,,gelb,red,r,0,,,,,,,,,6,0,72,8,533.934840300004,,,,,,,,,,,,,,,,,533.9206114000408,534.2803595999721,535.0885689000133,535.0659228999866,,,,,,,,,,,,,,,,,,,,,,,,,,,,,,,,,,535.0659599000355,535.0885689000133,535.0885689000133,536.1240565000335,r,1,1.0292196999071166,None,,,,sub-154989,001,2024-03-13_18h51.58.866,stroop_test,2023.2.3,None,2024-03-13 18h52.18.263622 +0100,
,,,,,,,,gelb,yellow,g,1,,,,,,,,,6,1,73,10,536.1447351999814,,,,,,,,,,,,,,,,,536.1262737000361,536.9332379000261,537.7518383000279,537.7344527000096,,,,,,,,,,,,,,,,,,,,,,,,,,,,,,,,,,537.7345286000054,537.7518383000279,537.7518383000279,538.5188199999975,g,1,0.7474054000340402,None,,,,sub-154989,001,2024-03-13_18h51.58.866,stroop_test,2023.2.3,None,2024-03-13 18h52.18.263622 +0100,
,,,,,,,,gelb,yellow,g,1,,,,,,,,,6,2,74,11,538.5338899999624,,,,,,,,,,,,,,,,,538.5208731000312,538.6283538000425,539.4322955999523,539.4157187000383,,,,,,,,,,,,,,,,,,,,,,,,,,,,,,,,,,539.4157561999746,539.4322955999523,539.4322955999523,540.4433227999834,g,1,1.0060977999819443,None,,,,sub-154989,001,2024-03-13_18h51.58.866,stroop_test,2023.2.3,None,2024-03-13 18h52.18.263622 +0100,
,,,,,,,,blau,blue,b,1,,,,,,,,,6,3,75,6,540.463472399977,,,,,,,,,,,,,,,,,540.44520680001,541.2481473999796,542.0662927000085,542.0341578000225,,,,,,,,,,,,,,,,,,,,,,,,,,,,,,,,,,542.0342188000213,542.0662927000085,542.0662927000085,542.9327308000065,b,1,0.861037699971348,None,,,,sub-154989,001,2024-03-13_18h51.58.866,stroop_test,2023.2.3,None,2024-03-13 18h52.18.263622 +0100,
,,,,,,,,blau,blue,b,1,,,,,,,,,6,4,76,5,542.9464484000346,,,,,,,,,,,,,,,,,542.9336665000301,544.1484992000042,544.9520564000122,544.933417799999,,,,,,,,,,,,,,,,,,,,,,,,,,,,,,,,,,544.9334780999925,544.9520564000122,544.9520564000122,545.5280357999727,b,1,0.5580843000207096,None,,,,sub-154989,001,2024-03-13_18h51.58.866,stroop_test,2023.2.3,None,2024-03-13 18h52.18.263622 +0100,
,,,,,,,,gelb,blue,b,0,,,,,,,,,6,5,77,9,545.5482568000443,,,,,,,,,,,,,,,,,545.5300748000154,545.8960185999749,546.7043827000307,546.6819368000142,,,,,,,,,,,,,,,,,,,,,,,,,,,,,,,,,,546.6819731000578,546.7043827000307,546.7043827000307,547.2318951999769,b,1,0.517295700032264,None,,,,sub-154989,001,2024-03-13_18h51.58.866,stroop_test,2023.2.3,None,2024-03-13 18h52.18.263622 +0100,
,,,,,,,,blau,yellow,g,0,,,,,,,,,6,6,78,7,547.247990099946,,,,,,,,,,,,,,,,,547.2331765999552,547.5846647999715,548.415812500054,548.3837103999685,,,,,,,,,,,,,,,,,,,,,,,,,,,,,,,,,,548.3837720999727,548.415812500054,548.415812500054,549.718693700037,g,1,1.2867060999851674,None,,,,sub-154989,001,2024-03-13_18h51.58.866,stroop_test,2023.2.3,None,2024-03-13 18h52.18.263622 +0100,
,,,,,,,,rot,red,r,1,,,,,,,,,6,7,79,1,549.7349611000391,,,,,,,,,,,,,,,,,549.7216855000006,550.0834114999743,550.9020180000225,550.8798353000311,,,,,,,,,,,,,,,,,,,,,,,,,,,,,,,,,,550.8798709999537,550.9020180000225,550.9020180000225,551.9651960999472,r,1,1.0414890000829473,None,,,,sub-154989,001,2024-03-13_18h51.58.866,stroop_test,2023.2.3,None,2024-03-13 18h52.18.263622 +0100,
,,,,,,,,rot,blue,b,0,,,,,,,,,6,8,80,2,551.9828032000223,,,,,,,,,,,,,,,,,551.9674819000065,553.1878095000284,554.0126469000243,553.9911268999567,,,,,,,,,,,,,,,,,,,,,,,,,,,,,,,,,,553.9911885999609,554.0126469000243,554.0126469000243,555.7133064999944,b,1,1.691228699986823,None,,,,sub-154989,001,2024-03-13_18h51.58.866,stroop_test,2023.2.3,None,2024-03-13 18h52.18.263622 +0100,
,,,,,,,,blau,red,r,0,,,,,,,,,6,9,81,4,555.7317989999428,,,,,,,,,,,,,,,,,555.7152572999476,556.5291026999475,557.3493604999967,557.3219979000278,,,,,,,,,,,,,,,,,,,,,,,,,,,,,,,,,,557.3220520999748,557.3493604999967,557.3493604999967,558.5148280999856,r,1,1.1640768999932334,None,,,,sub-154989,001,2024-03-13_18h51.58.866,stroop_test,2023.2.3,None,2024-03-13 18h52.18.263622 +0100,
,,,,,,,,rot,red,r,1,,,,,,,,,6,10,82,0,558.5313516999595,,,,,,,,,,,,,,,,,558.5158181999577,559.3295083000557,560.1446402999572,560.1159631999908,,,,,,,,,,,,,,,,,,,,,,,,,,,,,,,,,,560.11601899995,560.1446402999572,560.1446402999572,560.7136143000098,r,1,0.5671481000026688,None,,,,sub-154989,001,2024-03-13_18h51.58.866,stroop_test,2023.2.3,None,2024-03-13 18h52.18.263622 +0100,
,,,,,,,,rot,yellow,g,0,,,,,,,,,6,11,83,3,560.7325771000469,,,,,,,,,,,,,,,,,560.7151767000323,561.9318282000022,562.7457507000072,562.7311846000375,,,,,,,,,,,,,,,,,,,,,,,,,,,,,,,,,,562.7312206999632,562.7457507000072,562.7457507000072,563.8815108999843,g,1,1.115667499951087,None,,,,sub-154989,001,2024-03-13_18h51.58.866,stroop_test,2023.2.3,None,2024-03-13 18h52.18.263622 +0100,
,,,,,,,,blau,blue,b,1,,,,,,,,,7,0,84,5,563.8982955999672,,,,,,,,,,,,,,,,,563.8836122000357,564.2615169000346,565.0818783999421,565.0490278999787,,,,,,,,,,,,,,,,,,,,,,,,,,,,,,,,,,565.0490888999775,565.0818783999421,565.0818783999421,566.793534400058,b,1,1.7060420999769121,None,,,,sub-154989,001,2024-03-13_18h51.58.866,stroop_test,2023.2.3,None,2024-03-13 18h52.18.263622 +0100,
,,,,,,,,rot,red,r,1,,,,,,,,,7,1,85,1,566.8110142999794,,,,,,,,,,,,,,,,,566.7945437999442,567.9978071999503,568.8317699000472,568.7985107999993,,,,,,,,,,,,,,,,,,,,,,,,,,,,,,,,,,568.7985658999532,568.8317699000472,568.8317699000472,569.6417193999514,r,1,0.7972574000013992,None,,,,sub-154989,001,2024-03-13_18h51.58.866,stroop_test,2023.2.3,None,2024-03-13 18h52.18.263622 +0100,
,,,,,,,,gelb,yellow,g,1,,,,,,,,,7,2,86,10,569.661877800012,,,,,,,,,,,,,,,,,569.643724399968,569.99679809995,570.8220026999479,570.7971506000031,,,,,,,,,,,,,,,,,,,,,,,,,,,,,,,,,,570.7971865000436,570.8220026999479,570.8220026999479,571.2879137999844,g,1,0.4510823000455275,None,,,,sub-154989,001,2024-03-13_18h51.58.866,stroop_test,2023.2.3,None,2024-03-13 18h52.18.263622 +0100,
,,,,,,,,gelb,red,r,0,,,,,,,,,7,3,87,8,571.3077090999577,,,,,,,,,,,,,,,,,571.2895088000223,572.4944194999989,573.3131803000579,573.2920141000068,,,,,,,,,,,,,,,,,,,,,,,,,,,,,,,,,,573.2920937000308,573.3131803000579,573.3131803000579,574.3438186000567,r,1,1.0222161998972297,None,,,,sub-154989,001,2024-03-13_18h51.58.866,stroop_test,2023.2.3,None,2024-03-13 18h52.18.263622 +0100,
,,,,,,,,gelb,yellow,g,1,,,,,,,,,7,4,88,11,574.3614884000272,,,,,,,,,,,,,,,,,574.344883600017,575.1583570999792,575.9713111999445,575.9483520999784,,,,,,,,,,,,,,,,,,,,,,,,,,,,,,,,,,575.9484144999878,575.9713111999445,575.9713111999445,577.3160793000134,g,1,1.331680899951607,None,,,,sub-154989,001,2024-03-13_18h51.58.866,stroop_test,2023.2.3,None,2024-03-13 18h52.18.263622 +0100,
,,,,,,,,rot,red,r,1,,,,,,,,,7,5,89,0,577.3323652000399,,,,,,,,,,,,,,,,,577.3181472000433,577.4293113000458,578.2572282999754,578.2268572000321,,,,,,,,,,,,,,,,,,,,,,,,,,,,,,,,,,578.2269514000509,578.2572282999754,578.2572282999754,579.1265177000314,r,1,0.8560784999281168,None,,,,sub-154989,001,2024-03-13_18h51.58.866,stroop_test,2023.2.3,None,2024-03-13 18h52.18.263622 +0100,
,,,,,,,,rot,blue,b,0,,,,,,,,,7,6,90,2,579.1452926000347,,,,,,,,,,,,,,,,,579.1277536000125,579.2286390999798,580.0493690000148,580.0318206000375,,,,,,,,,,,,,,,,,,,,,,,,,,,,,,,,,,580.0318805000279,580.0493690000148,580.0493690000148,581.0205214000307,b,1,0.9658002000069246,None,,,,sub-154989,001,2024-03-13_18h51.58.866,stroop_test,2023.2.3,None,2024-03-13 18h52.18.263622 +0100,
,,,,,,,,gelb,blue,b,0,,,,,,,,,7,7,91,9,581.040657900041,,,,,,,,,,,,,,,,,581.0225515000056,581.8432388999499,582.6521361999912,582.6283145999769,,,,,,,,,,,,,,,,,,,,,,,,,,,,,,,,,,582.6283507000189,582.6521361999912,582.6521361999912,583.5492646000348,b,1,0.883279399946332,None,,,,sub-154989,001,2024-03-13_18h51.58.866,stroop_test,2023.2.3,None,2024-03-13 18h52.18.263622 +0100,
,,,,,,,,blau,yellow,g,0,,,,,,,,,7,8,92,7,583.5716846999712,,,,,,,,,,,,,,,,,583.5524671999738,583.6639313000487,584.486799199949,584.4593372000381,,,,,,,,,,,,,,,,,,,,,,,,,,,,,,,,,,584.4593927999958,584.486799199949,584.486799199949,585.6501969000092,g,1,1.1523664999986067,None,,,,sub-154989,001,2024-03-13_18h51.58.866,stroop_test,2023.2.3,None,2024-03-13 18h52.18.263622 +0100,
,,,,,,,,rot,yellow,g,0,,,,,,,,,7,9,93,3,585.6738962000236,,,,,,,,,,,,,,,,,585.6533507000422,586.4614126000088,587.2814015999902,587.2577694000211,,,,,,,,,,,,,,,,,,,,,,,,,,,,,,,,,,587.2578048999421,587.2814015999902,587.2814015999902,588.7111882000463,g,1,1.4146963000530377,None,,,,sub-154989,001,2024-03-13_18h51.58.866,stroop_test,2023.2.3,None,2024-03-13 18h52.18.263622 +0100,
,,,,,,,,blau,blue,b,1,,,,,,,,,7,10,94,6,588.7296834000153,,,,,,,,,,,,,,,,,588.7130959000206,588.8304548000451,589.6519252000144,589.6249233999988,,,,,,,,,,,,,,,,,,,,,,,,,,,,,,,,,,589.6249782999512,589.6519252000144,589.6519252000144,591.2895860000281,b,1,1.629360600025393,None,,,,sub-154989,001,2024-03-13_18h51.58.866,stroop_test,2023.2.3,None,2024-03-13 18h52.18.263622 +0100,
,,,,,,,,blau,red,r,0,,,,,,,,,7,11,95,4,591.3098743000301,,,,,,,,,,,,,,,,,591.2916147999931,591.6442866999423,592.4601816999493,592.4385188999586,,,,,,,,,,,,,,,,,,,,,,,,,,,,,,,,,,592.4385788999498,592.4601816999493,592.4601816999493,593.4163612000411,r,1,0.9526672000065446,None,,,,sub-154989,001,2024-03-13_18h51.58.866,stroop_test,2023.2.3,None,2024-03-13 18h52.18.263622 +0100,
,,,,,,,,blau,yellow,g,0,,,,,,,,,8,0,96,7,593.4372112000128,,,,,,,,,,,,,,,,,593.4189653999638,593.5288663000101,594.3409460999537,594.3218925000401,,,,,,,,,,,,,,,,,,,,,,,,,,,,,,,,,,594.321932699997,594.3409460999537,594.3409460999537,596.5764482000377,g,1,2.228080700035207,None,,,,sub-154989,001,2024-03-13_18h51.58.866,stroop_test,2023.2.3,None,2024-03-13 18h52.18.263622 +0100,
,,,,,,,,rot,yellow,g,0,,,,,,,,,8,1,97,3,596.5961690000258,,,,,,,,,,,,,,,,,596.5789009999717,596.6945908999769,597.520828000037,597.4914599000476,,,,,,,,,,,,,,,,,,,,,,,,,,,,,,,,,,597.4915204000426,597.520828000037,597.520828000037,598.9131834999425,g,1,1.3734532999806106,None,,,,sub-154989,001,2024-03-13_18h51.58.866,stroop_test,2023.2.3,None,2024-03-13 18h52.18.263622 +0100,
,,,,,,,,gelb,blue,b,0,,,,,,,,,8,2,98,9,598.9269371000119,,,,,,,,,,,,,,,,,598.914526800043,599.742733299965,600.5663900000509,600.5388391000452,,,,,,,,,,,,,,,,,,,,,,,,,,,,,,,,,,600.5388990000356,600.5663900000509,600.5663900000509,602.727823000052,b,1,2.1574492000509053,None,,,,sub-154989,001,2024-03-13_18h51.58.866,stroop_test,2023.2.3,None,2024-03-13 18h52.18.263622 +0100,
,,,,,,,,blau,blue,b,1,,,,,,,,,8,3,99,6,602.744651200017,,,,,,,,,,,,,,,,,602.7291994000552,603.942908499972,604.7630811999552,604.7346267000539,,,,,,,,,,,,,,,,,,,,,,,,,,,,,,,,,,604.7347112999996,604.7630811999552,604.7630811999552,605.2914931999985,b,1,0.5164322000928223,None,,,,sub-154989,001,2024-03-13_18h51.58.866,stroop_test,2023.2.3,None,2024-03-13 18h52.18.263622 +0100,
,,,,,,,,gelb,yellow,g,1,,,,,,,,,8,4,100,10,605.3122963999631,,,,,,,,,,,,,,,,,605.2938459999859,605.6608290999429,606.4785945999902,606.4562713999767,,,,,,,,,,,,,,,,,,,,,,,,,,,,,,,,,,606.4563061000081,606.4785945999902,606.4785945999902,607.7298193000024,g,1,1.2325100000016391,None,,,,sub-154989,001,2024-03-13_18h51.58.866,stroop_test,2023.2.3,None,2024-03-13 18h52.18.263622 +0100,
,,,,,,,,gelb,red,r,0,,,,,,,,,8,5,101,8,607.7435446999734,,,,,,,,,,,,,,,,,607.7310897000134,608.9448447000468,609.7526978000533,609.7297581000021,,,,,,,,,,,,,,,,,,,,,,,,,,,,,,,,,,609.7298136999598,609.7526978000533,609.7526978000533,610.7958869000431,r,1,1.038275699946098,None,,,,sub-154989,001,2024-03-13_18h51.58.866,stroop_test,2023.2.3,None,2024-03-13 18h52.18.263622 +0100,
,,,,,,,,rot,red,r,1,,,,,,,,,8,6,102,0,610.8117321999744,,,,,,,,,,,,,,,,,610.7975882999599,611.1561845999677,611.9784279000014,611.9465350999963,,,,,,,,,,,,,,,,,,,,,,,,,,,,,,,,,,611.9465905999532,611.9784279000014,611.9784279000014,612.4894436999457,r,1,0.4865516999270767,None,,,,sub-154989,001,2024-03-13_18h51.58.866,stroop_test,2023.2.3,None,2024-03-13 18h52.18.263622 +0100,
,,,,,,,,rot,blue,b,0,,,,,,,,,8,7,103,2,612.5089529999532,,,,,,,,,,,,,,,,,612.4914082000032,613.2950042999582,614.1139925000025,614.095039900043,,,,,,,,,,,,,,,,,,,,,,,,,,,,,,,,,,614.0951008000411,614.1139925000025,614.1139925000025,615.2935377999675,b,1,1.1752225999953225,None,,,,sub-154989,001,2024-03-13_18h51.58.866,stroop_test,2023.2.3,None,2024-03-13 18h52.18.263622 +0100,
,,,,,,,,blau,blue,b,1,,,,,,,,,8,8,104,5,615.3179921000265,,,,,,,,,,,,,,,,,615.2946221999591,615.6597544000251,616.4814266000176,616.4535925999517,,,,,,,,,,,,,,,,,,,,,,,,,,,,,,,,,,616.4536522000562,616.4814266000176,616.4814266000176,617.0139020000352,b,1,0.5164880000520498,None,,,,sub-154989,001,2024-03-13_18h51.58.866,stroop_test,2023.2.3,None,2024-03-13 18h52.18.263622 +0100,
,,,,,,,,blau,red,r,0,,,,,,,,,8,9,105,4,617.0301610999741,,,,,,,,,,,,,,,,,617.015868699993,618.2252074000426,619.0285254999762,619.0116606999654,,,,,,,,,,,,,,,,,,,,,,,,,,,,,,,,,,619.0116963000037,619.0285254999762,619.0285254999762,620.130582200014,r,1,1.089617699966766,None,,,,sub-154989,001,2024-03-13_18h51.58.866,stroop_test,2023.2.3,None,2024-03-13 18h52.18.263622 +0100,
,,,,,,,,rot,red,r,1,,,,,,,,,8,10,106,1,620.1528194999555,,,,,,,,,,,,,,,,,620.1338037999813,620.2440978999948,621.0702191999881,621.0424055999611,,,,,,,,,,,,,,,,,,,,,,,,,,,,,,,,,,621.0424651999492,621.0702191999881,621.0702191999881,621.9559179999633,r,1,0.8701343999709934,None,,,,sub-154989,001,2024-03-13_18h51.58.866,stroop_test,2023.2.3,None,2024-03-13 18h52.18.263622 +0100,
,,,,,,,,gelb,yellow,g,1,,,,,,,,,8,11,107,11,621.9766532999929,,,,,,,,,,,,,,,,,621.9578363000182,622.7718366000336,623.5865872000577,623.5578001999529,,,,,,,,,,,,,,,,,,,,,,,,,,,,,,,,,,623.5578617999563,623.5865872000577,623.5865872000577,625.6768794000382,g,1,2.068970000022091,None,,,,sub-154989,001,2024-03-13_18h51.58.866,stroop_test,2023.2.3,None,2024-03-13 18h52.18.263622 +0100,
,,,,,,,,blau,red,r,0,,,,,,,,,9,0,108,4,625.6944991999771,,,,,,,,,,,,,,,,,625.6790829000529,626.4884104999946,627.2951422999613,627.2720031000208,,,,,,,,,,,,,,,,,,,,,,,,,,,,,,,,,,627.272037900053,627.2951422999613,627.2951422999613,629.3307937999489,r,1,2.0331050999229774,None,,,,sub-154989,001,2024-03-13_18h51.58.866,stroop_test,2023.2.3,None,2024-03-13 18h52.18.263622 +0100,
,,,,,,,,blau,blue,b,1,,,,,,,,,9,1,109,5,629.3516002000542,,,,,,,,,,,,,,,,,629.3329685999779,629.4429986999603,630.2617287000176,630.2406400999753,,,,,,,,,,,,,,,,,,,,,,,,,,,,,,,,,,630.2407009999733,630.2617287000176,630.2617287000176,632.0753432000056,b,1,1.8035989000927657,None,,,,sub-154989,001,2024-03-13_18h51.58.866,stroop_test,2023.2.3,None,2024-03-13 18h52.18.263622 +0100,
,,,,,,,,rot,blue,b,0,,,,,,,,,9,2,110,2,632.0941192000173,,,,,,,,,,,,,,,,,632.0775459000142,633.2933166000294,634.1116432000417,634.0810554999625,,,,,,,,,,,,,,,,,,,,,,,,,,,,,,,,,,634.0812064999482,634.1116432000417,634.1116432000417,635.0308174999664,b,1,0.9073977000080049,None,,,,sub-154989,001,2024-03-13_18h51.58.866,stroop_test,2023.2.3,None,2024-03-13 18h52.18.263622 +0100,
,,,,,,,,gelb,yellow,g,1,,,,,,,,,9,3,111,10,635.0448364999611,,,,,,,,,,,,,,,,,635.0319576000329,636.2435986000346,637.065762000042,637.0362640999956,,,,,,,,,,,,,,,,,,,,,,,,,,,,,,,,,,637.0363283000188,637.065762000042,637.065762000042,638.6364772999659,g,1,1.5519759999588132,None,,,,sub-154989,001,2024-03-13_18h51.58.866,stroop_test,2023.2.3,None,2024-03-13 18h52.18.263622 +0100,
,,,,,,,,gelb,red,r,0,,,,,,,,,9,4,112,8,638.6543565000175,,,,,,,,,,,,,,,,,638.6377680000151,639.8405922000529,640.6534257000312,640.6308666999685,,,,,,,,,,,,,,,,,,,,,,,,,,,,,,,,,,640.6309551999439,640.6534257000312,640.6534257000312,641.3751256000251,r,1,0.7185947999823838,None,,,,sub-154989,001,2024-03-13_18h51.58.866,stroop_test,2023.2.3,None,2024-03-13 18h52.18.263622 +0100,
,,,,,,,,gelb,yellow,g,1,,,,,,,,,9,5,113,11,641.3931758999825,,,,,,,,,,,,,,,,,641.3770610999782,642.5872630999656,643.4011562999804,643.3779081000248,,,,,,,,,,,,,,,,,,,,,,,,,,,,,,,,,,643.3779889999423,643.4011562999804,643.4011562999804,644.687835299992,g,1,1.2756522001000121,None,,,,sub-154989,001,2024-03-13_18h51.58.866,stroop_test,2023.2.3,None,2024-03-13 18h52.18.263622 +0100,
,,,,,,,,rot,yellow,g,0,,,,,,,,,9,6,114,3,644.7085948999738,,,,,,,,,,,,,,,,,644.689922700054,644.7935017000418,645.6286619999446,645.5942043999676,,,,,,,,,,,,,,,,,,,,,,,,,,,,,,,,,,645.594291800051,645.6286619999446,645.6286619999446,646.3113315999508,g,1,0.6769304000772536,None,,,,sub-154989,001,2024-03-13_18h51.58.866,stroop_test,2023.2.3,None,2024-03-13 18h52.18.263622 +0100,
,,,,,,,,blau,yellow,g,0,,,,,,,,,9,7,115,7,646.3250157999573,,,,,,,,,,,,,,,,,646.3124648999656,647.5242408999475,648.355309000006,648.3260439999867,,,,,,,,,,,,,,,,,,,,,,,,,,,,,,,,,,648.3261061999947,648.355309000006,648.355309000006,648.9108018999686,g,1,0.5445785999763757,None,,,,sub-154989,001,2024-03-13_18h51.58.866,stroop_test,2023.2.3,None,2024-03-13 18h52.18.263622 +0100,
,,,,,,,,blau,blue,b,1,,,,,,,,,9,8,116,6,648.9289326999569,,,,,,,,,,,,,,,,,648.9137362999609,649.2908049999969,650.10428520001,650.0816174000502,,,,,,,,,,,,,,,,,,,,,,,,,,,,,,,,,,650.0817030000035,650.10428520001,650.10428520001,651.0535134000238,b,1,0.9475558999693021,None,,,,sub-154989,001,2024-03-13_18h51.58.866,stroop_test,2023.2.3,None,2024-03-13 18h52.18.263622 +0100,
,,,,,,,,rot,red,r,1,,,,,,,,,9,9,117,1,651.0719254999422,,,,,,,,,,,,,,,,,651.0547973000212,651.4238962000236,652.2438636999577,652.2149542999687,,,,,,,,,,,,,,,,,,,,,,,,,,,,,,,,,,652.2150416000513,652.2438636999577,652.2438636999577,653.1971973000327,r,1,0.9329174999147654,None,,,,sub-154989,001,2024-03-13_18h51.58.866,stroop_test,2023.2.3,None,2024-03-13 18h52.18.263622 +0100,
,,,,,,,,rot,red,r,1,,,,,,,,,9,10,118,0,653.2171621000161,,,,,,,,,,,,,,,,,653.1994852999924,653.559512799955,654.373519100016,654.358998700045,,,,,,,,,,,,,,,,,,,,,,,,,,,,,,,,,,654.3590359999798,654.373519100016,654.373519100016,655.1636718000518,r,1,0.7808896999340504,None,,,,sub-154989,001,2024-03-13_18h51.58.866,stroop_test,2023.2.3,None,2024-03-13 18h52.18.263622 +0100,
,,,,,,,,gelb,blue,b,0,,,,,,,,,9,11,119,9,655.1851049000397,,,,,,,,,,,,,,,,,655.1662438999629,655.5226070999634,656.3437323999824,656.3142232999671,,,,,,,,,,,,,,,,,,,,,,,,,,,,,,,,,,656.3143060000148,656.3437323999824,656.3437323999824,657.4769904999994,b,1,1.1251619999529794,None,,,,sub-154989,001,2024-03-13_18h51.58.866,stroop_test,2023.2.3,None,2024-03-13 18h52.18.263622 +0100,
,,,,,,,,,,,,,,,,,,,,,,,,,,,,,,,,,,,,,,,,,,,,,,,,,,,,,,,,,,,,,,,,,,,,,,,,,,,,,,,,,,,,,,657.4789339000126,657.4993254999863,662.4914930999512,,,,,,,,
